"Time (s)","Acceleration x (m/s^2)","Acceleration y (m/s^2)","Acceleration z (m/s^2)"
0.000000000E0,-3.369839430E0,3.072201252E0,8.893214226E0
2.027739500E-2,-2.191263914E0,2.430212975E0,1.035924721E1
4.067739500E-2,-2.152936459E0,2.099637032E0,1.045985699E1
6.107739500E-2,-2.574540615E0,2.458958626E0,1.037362003E1
8.147739500E-2,-2.493094206E0,2.411049128E0,1.032091904E1
1.018773950E-1,-2.052326202E0,2.454167843E0,1.042152977E1
1.222773950E-1,-1.515739083E0,1.917580605E0,1.000950718E1
1.426773950E-1,-1.750495911E0,1.759479046E0,1.023468208E1
1.629717700E-1,-1.951716185E0,1.979863048E0,1.043590260E1
1.830681250E-1,-1.793614507E0,2.166710377E0,1.037362003E1
2.031644790E-1,-1.539693832E0,2.224201918E0,9.999925613E0
2.232608330E-1,-1.036643386E0,1.994235873E0,9.712468147E0
2.433571870E-1,-1.458247542E0,1.931953430E0,8.945914268E0
2.634535410E-1,-1.860687971E0,2.252947569E0,9.108807564E0
2.835498950E-1,-1.386383176E0,2.382303476E0,1.008137131E1
3.036462500E-1,-8.833327293E-1,2.430212975E0,1.050297546E1
3.237426040E-1,-5.479657054E-1,2.161919355E0,1.011969948E1
3.438389580E-1,-9.839428067E-1,1.884043932E0,1.001908875E1
3.639353120E-1,-1.486993313E0,1.864880085E0,9.654975891E0
3.840316660E-1,-1.419919848E0,1.898416758E0,9.817869186E0
4.041280200E-1,-1.161208272E0,1.903207660E0,9.654975891E0
4.242243750E-1,-1.223490715E0,1.903207660E0,9.329191208E0
4.443207290E-1,-1.055807114E0,2.109218836E0,9.448965073E0
4.644170830E-1,-8.354231715E-1,2.152337551E0,9.482501984E0
4.845134370E-1,-8.689598441E-1,2.166710377E0,9.439383507E0
5.046097910E-1,-8.833327293E-1,2.142755508E0,9.233371735E0
5.247061450E-1,-8.977055550E-1,2.195456028E0,9.089643478E0
5.448025000E-1,-9.695699215E-1,2.152337551E0,9.386682510E0
5.648988540E-1,-1.209117770E0,1.970281124E0,9.621439934E0
5.849952080E-1,-1.151626348E0,1.951117277E0,1.016281796E1
6.050915620E-1,-9.072874784E-1,2.032563448E0,1.007658005E1
6.251879160E-1,-9.935247302E-1,2.195456028E0,9.573530197E0
6.452842700E-1,-1.060598135E0,2.329602957E0,9.271699905E0
6.653806250E-1,-1.003106594E0,2.377512455E0,9.453756332E0
6.854769790E-1,-1.156417251E0,2.276902437E0,9.496874809E0
7.055733330E-1,-1.410338044E0,2.257738590E0,9.731631279E0
7.256696870E-1,-1.285773158E0,2.257738590E0,1.007658005E1
7.457660410E-1,-1.161208272E0,2.387094259E0,1.005262566E1
7.658623950E-1,-1.070180058E0,2.655387878E0,9.348355293E0
7.859587500E-1,-1.127671480E0,2.808698654E0,8.658456802E0
8.060551040E-1,-1.027061462E0,2.808698654E0,8.030841827E0
8.261514580E-1,-1.127671480E0,2.703297615E0,8.476400375E0
8.462478120E-1,-1.357637405E0,2.296066284E0,9.755586624E0
8.663441660E-1,-1.113298655E0,1.893625736E0,1.135576630E1
8.864405200E-1,-8.785417676E-1,1.620541215E0,1.162885094E1
9.065368750E-1,-9.599879980E-1,1.893625736E0,1.094374371E1
9.266332290E-1,-9.264513254E-1,2.224201918E0,1.035445595E1
9.467295830E-1,-4.665194452E-1,2.300857067E0,1.004783440E1
9.668259370E-1,-1.982258558E-1,2.224201918E0,9.746004105E0
9.869222910E-1,-2.988359630E-1,2.109218836E0,9.607067108E0
1.007018645E0,-2.317625433E-1,2.066100359E0,9.789123535E0
1.027115468E0,-2.461354136E-1,2.094846010E0,9.971179008E0
1.047212343E0,-3.515364826E-1,2.133173704E0,9.741213799E0
1.067309166E0,-3.946550786E-1,2.181083202E0,9.415428162E0
1.087405520E0,-3.994460404E-1,2.233783722E0,9.439383507E0
1.107501875E0,-4.569375217E-1,2.214619875E0,9.420219421E0
1.127598229E0,-4.713104069E-1,2.190665245E0,9.458546638E0
1.147694583E0,-4.090279639E-1,2.248156548E0,9.530411720E0
1.167790937E0,-6.150391102E-1,2.181083202E0,9.611857414E0
1.187887291E0,-7.300220728E-1,2.152337551E0,9.698095322E0
1.207983645E0,-5.479657054E-1,2.209828854E0,9.702885628E0
1.228080000E0,-5.479657054E-1,2.324811935E0,9.530411720E0
1.248176354E0,-4.138189256E-1,2.444585800E0,9.286072731E0
1.268272708E0,-3.467455208E-1,2.506868362E0,9.362728119E0
1.288369062E0,-3.036268950E-1,2.449376822E0,9.592694283E0
1.308465416E0,-1.407343596E-1,2.468540668E0,9.563947678E0
1.328561770E0,-1.071976647E-1,2.621851206E0,9.372309685E0
1.348658125E0,1.706778407E-1,2.760788918E0,9.286072731E0
1.368754479E0,4.054347575E-1,2.736834288E0,8.969869614E0
1.388850833E0,4.533443153E-1,2.573941708E0,8.466818810E0
1.408947187E0,1.610959321E-1,2.473331690E0,8.438073158E0
1.429043541E0,1.706778407E-1,2.540405035E0,8.251225471E0
1.449140364E0,-2.096043713E-2,2.569150686E0,7.820039749E0
1.469237239E0,-4.713104069E-1,2.818280458E0,7.901485920E0
1.489334114E0,-1.280982137E0,2.914099693E0,7.920650005E0
1.509430468E0,-9.360332489E-1,2.343975782E0,8.548265457E0
1.529526823E0,-2.700901926E-1,1.596586466E0,9.448965073E0
1.549623177E0,-1.074970961E0,1.773851871E0,9.750795364E0
1.569719531E0,9.180671573E-1,1.161807105E-1,9.602275848E0
1.589815885E0,1.138451219E0,-6.647452712E-1,1.091020679E1
1.609912239E0,1.708575130E0,-1.249242067E0,1.306134701E1
1.630008593E0,-2.221806347E-1,-8.468016386E-1,1.219897461E1
1.650104948E0,-3.994460404E-1,-8.611745238E-1,1.074731445E1
1.670201302E0,6.527678668E-2,-7.988920808E-1,9.611857414E0
1.690297656E0,4.677171707E-1,-6.791181564E-1,9.175880432E0
1.710394010E0,6.306097507E-1,-8.947112560E-1,8.754276276E0
1.730490364E0,-1.022270441E0,-2.609873772E0,1.239540386E1
1.750586718E0,-1.213908792E0,-9.953213334E-1,9.281281471E0
1.770683073E0,-2.200845957E0,3.952539712E-2,9.056106567E0
1.790779427E0,-1.434292793E0,-4.395703077E-1,7.690683842E0
1.810875781E0,-1.024067104E-1,1.769060850E0,7.604446411E0
1.830972135E0,9.372310042E-1,2.363139629E0,6.344424725E0
1.851068698E0,8.318299055E-1,8.827338219E-1,2.070891142E0
1.871165573E0,-3.802822232E-1,1.880450696E-1,4.691544533E0
1.891262448E0,-1.113298655E0,4.611296058E-1,7.925440788E0
1.911359062E0,7.743384242E-1,-1.177377701E0,1.005262566E1
1.931455416E0,3.006924391E0,-5.048470974E0,1.184444332E1
1.951551770E0,1.837930918E0,-5.192199707E0,1.313800240E1
1.971648125E0,2.019987345E0,-4.281918049E0,1.201212692E1
1.991744479E0,1.698993206E0,-2.978777647E0,1.174383354E1
2.011840833E0,2.082269669E0,-1.967885613E0,1.192588997E1
2.031937187E0,2.283489943E0,-9.522027373E-1,1.127431965E1
2.052033541E0,2.546992540E0,-3.437511623E-1,1.111621857E1
2.072129895E0,1.794812322E0,-1.182168603E0,1.165280533E1
2.092226250E0,1.866676688E0,-2.197851658E0,1.265890598E1
2.112322604E0,3.797432423E0,-3.352472305E0,1.396204662E1
2.132418958E0,1.790021300E0,-1.819365978E0,1.271160698E1
2.152515312E0,2.652393579E0,-2.542800426E0,1.081438828E1
2.172611666E0,2.158925056E0,-2.317625523E0,9.166298866E0
2.192708020E0,2.580529213E0,-2.983568430E0,7.235542774E0
2.212804375E0,2.139761209E0,-3.132088184E0,6.866639137E0
2.232900729E0,2.690721273E0,-3.098551512E0,8.792604446E0
2.252997083E0,3.102743626E0,-2.748811722E0,9.961597443E0
2.273093645E0,5.043081284E0,-2.815885067E0,9.175880432E0
2.293190520E0,8.468615532E0,-2.480518103E0,7.872740269E0
2.313287395E0,7.045701027E0,-1.321106434E0,7.053486347E0
2.333383958E0,5.268256187E0,-9.378298521E-1,6.363588810E0
2.353480312E0,4.180708885E0,-1.033648968E0,6.497735500E0
2.373576666E0,4.233409405E0,-4.826889336E-1,7.158887863E0
2.393673020E0,8.597970963E0,-1.642100573E0,6.713328838E0
2.413769375E0,9.757383347E0,-6.312085986E-1,6.004266739E0
2.433865729E0,9.752592087E0,-6.264176369E-1,5.755136967E0
2.453962083E0,9.666355133E0,-4.347793460E-1,6.128831863E0
2.474058437E0,1.054310036E1,-2.814687192E-1,5.951566219E0
2.494154791E0,1.059100914E1,1.161807105E-1,6.047385693E0
2.514251145E0,9.814874649E0,2.790732384E-1,5.199386120E0
2.534347500E0,1.091200352E1,2.072088867E-1,4.739454269E0
2.554443854E0,1.173125744E1,1.832541078E-1,4.911928654E0
2.574540208E0,1.185582256E1,-6.072537899E-1,3.987273932E0
2.594636562E0,1.050956345E1,-8.983044326E-2,3.747726202E0
2.614732916E0,1.004484081E1,7.437961102E-1,4.854437351E0
2.634829270E0,9.067484856E0,8.204513788E-1,6.100086212E0
2.654925625E0,9.196841240E0,5.665307045E-1,5.970730305E0
2.675021979E0,8.880638123E0,-2.718868256E-1,7.523000240E0
2.695118333E0,7.088819981E0,-6.108470261E-2,7.451136112E0
2.715214687E0,8.396751404E0,-2.862596810E-1,7.685893059E0
2.735311041E0,9.604072571E0,-7.174458504E-1,7.417599201E0
2.755407395E0,7.716435432E0,-1.796608977E-2,7.230751991E0
2.775503750E0,5.431148529E0,9.498072267E-1,6.330051899E0
2.795600104E0,4.870606899E0,9.210615158E-1,4.705917835E0
2.815696458E0,3.663285494E0,5.186210871E-1,3.225511789E0
2.835792812E0,2.336190462E0,4.419657886E-1,2.732043266E0
2.855889479E0,9.036942720E-1,7.294232249E-1,1.821761489E0
2.875986354E0,7.982932329E-1,9.114795923E-1,1.860089064E0
2.896083229E0,3.078788757E0,4.515477121E-1,2.358348608E0
2.916179583E0,5.948572159E0,2.515252493E-2,3.795635700E0
2.936275937E0,8.324887276E0,-2.143953294E-1,4.892765045E0
2.956372291E0,8.866265297E0,-3.868697882E-1,5.419770241E0
2.976468645E0,8.674626350E0,-5.114346743E-1,5.683272839E0
2.996565000E0,9.556162834E0,-3.772878647E-1,6.171950340E0
3.016661354E0,1.018377781E1,-2.766777575E-1,6.981622219E0
3.036757708E0,8.645880699E0,-2.275704592E-2,7.307407379E0
3.056854062E0,6.988209724E0,7.390051484E-1,7.197215080E0
3.076950416E0,6.801362514E0,1.510349274E0,6.713328838E0
3.097046770E0,8.205112457E0,9.881349206E-1,5.194595337E0
3.117143125E0,1.030355167E1,1.401354969E-1,4.749036312E0
3.137239479E0,1.079702091E1,-3.772878647E-1,4.859228134E0
3.157335833E0,1.132881737E1,-2.431410700E-1,5.472470760E0
3.177432187E0,1.241636372E1,-3.820788264E-1,6.018640041E0
3.197528541E0,1.318770790E1,-3.772878647E-1,7.039113522E0
3.217624895E0,1.232533550E1,-2.191862911E-1,8.184152603E0
3.237721250E0,1.071557426E1,1.218100786E0,9.214208603E0
3.257817604E0,8.712954521E0,2.842235327E0,1.128390121E1
3.277911458E0,9.019575119E0,3.479432583E0,1.108268166E1
3.298010000E0,1.133360767E1,2.190665245E0,1.055088520E1
3.318107031E0,1.318770790E1,-1.377400160E-1,1.111621857E1
3.338203385E0,1.378657818E1,-1.996631384E0,1.116891861E1
3.358299739E0,1.352307510E1,-2.600291967E0,9.779541016E0
3.378396093E0,1.180312157E1,-3.256653070E0,7.202006340E0
3.398492448E0,1.070120144E1,-2.868585587E0,6.191114426E0
3.418588802E0,1.007837677E1,-2.145151138E0,6.560018063E0
3.438685156E0,9.009993553E0,-1.622936726E0,6.291724205E0
3.458781510E0,7.879327774E0,-1.402552724E0,5.783883095E0
3.478877864E0,6.911554337E0,-1.584609032E0,5.443725109E0
3.498974218E0,5.953362942E0,-1.263614893E0,5.472470760E0
3.519070573E0,7.543960571E0,-8.803383708E-1,6.224650860E0
3.539166927E0,8.013474464E0,-9.665755630E-1,4.998166084E0
3.559263281E0,8.300931931E0,-1.009694219E0,4.461578846E0
3.579359635E0,7.740389824E0,-1.067185640E0,4.073511124E0
3.599458906E0,6.878017902E0,-9.378298521E-1,4.988584042E0
3.619529895E0,5.344911575E0,-7.797282934E-1,7.637983322E0
3.639648906E0,3.174607992E0,-4.108245671E-1,9.132761955E0
3.659745260E0,2.944642067E0,-9.569936991E-1,8.356626511E0
3.679841614E0,4.592730999E0,-2.197851658E0,6.876221180E0
3.699937968E0,6.518695831E0,-3.026687145E0,6.253396511E0
3.720034323E0,5.819216251E0,-1.824156880E0,7.436763287E0
3.740130677E0,5.076617718E0,-1.541490436E0,7.657146931E0
3.760227031E0,3.610584974E0,-6.312085986E-1,7.781712055E0
3.780323385E0,2.546992540E0,-2.335591614E-1,7.360107899E0
3.800419739E0,1.286970854E0,4.802934527E-1,7.887113094E0
3.820516093E0,1.368417144E0,1.050417304E0,8.941123962E0
3.840612448E0,3.016506433E0,2.886551619E-1,9.712468147E0
3.860708802E0,4.094471931E0,-8.515926003E-1,9.300445557E0
3.880805156E0,3.538720608E0,-5.449713469E-1,7.891903877E0
3.900901510E0,2.685930252E0,3.317737877E-1,7.096605301E0
3.920997864E0,2.585320234E0,8.779428601E-1,6.995995045E0
3.941094218E0,3.577048302E0,1.237264633E0,7.867949486E0
3.961190573E0,4.631058693E0,1.495976329E0,8.629711151E0
3.981286406E0,4.142381191E0,1.467230558E0,8.404536247E0
4.001382239E0,3.059624910E0,1.563049793E0,7.705056667E0
4.021478333E0,2.719466925E0,1.730733275E0,7.575700760E0
4.041574687E0,2.451173306E0,1.649286985E0,7.412808418E0
4.061671041E0,2.240371227E0,1.931953430E0,7.618819714E0
4.081767395E0,2.144552231E0,2.252947569E0,8.385373116E0
4.101863437E0,2.048732996E0,1.821761489E0,9.008196831E0
4.121958489E0,1.794812322E0,1.711569428E0,9.012988091E0
4.142057604E0,1.675038338E0,1.706778407E0,9.300445557E0
4.162153958E0,1.813976169E0,1.414530039E0,9.616648674E0
4.182250312E0,2.091851711E0,1.376202464E0,9.846614838E0
4.202346562E0,2.312235594E0,9.066886306E-1,1.041673851E1
4.222442395E0,2.010405302E0,7.821237445E-1,1.083834267E1
4.242538229E0,2.671557426E0,6.431859732E-1,1.218460178E1
4.262634427E0,3.567466497E0,-2.096043676E-1,1.248643208E1
4.282730781E0,2.858404875E0,-5.258075595E-1,1.272118855E1
4.302827135E0,1.756484628E0,-2.383501083E-1,1.266369724E1
4.322923489E0,1.536100626E0,3.557285666E-1,1.245289516E1
4.343019843E0,8.653666377E-1,7.294232249E-1,1.354044247E1
4.363116198E0,1.215106487E0,-2.287681997E-1,1.405786610E1
4.383212552E0,1.962495804E0,-1.575027108E0,1.316674805E1
4.403308906E0,1.991241574E0,-2.111614227E0,1.147554016E1
4.423405260E0,1.085750699E0,-1.158213854E0,1.047422981E1
4.443501614E0,1.684620261E0,-5.737171173E-1,1.022989082E1
4.463597968E0,2.297862768E0,-7.605644464E-1,1.025384617E1
4.483694323E0,2.120597363E0,-8.420107365E-1,1.004783440E1
4.503790677E0,2.015196323E0,-7.270277143E-1,9.118389130E0
4.523887031E0,2.115806341E0,-5.401803851E-1,7.925440788E0
4.543983385E0,2.249953270E0,-1.664857566E-1,7.336153030E0
4.564079739E0,2.915896177E0,2.036156692E-2,7.412808418E0
4.584176093E0,3.136280298E0,-2.048134208E-1,7.939813614E0
4.604266041E0,3.073997736E0,-2.191862911E-1,8.423700333E0
4.624358958E0,2.566156387E0,-3.054235280E-1,8.409327507E0
4.644465833E0,2.336190462E0,-2.239772379E-1,8.217689514E0
4.664561823E0,2.350563288E0,-3.916607499E-1,7.877531052E0
4.684657656E0,1.636710763E0,-4.395703077E-1,8.141034126E0
4.704753541E0,1.718156934E0,-4.539431930E-1,8.040423393E0
4.724849895E0,2.235580444E0,-5.497623086E-1,8.198525429E0
4.744946250E0,3.059624910E0,-6.216266751E-1,8.850095749E0
4.765042604E0,3.648912668E0,-4.970617890E-1,9.975970268E0
4.785138958E0,4.381928921E0,-7.509825230E-1,1.051734829E1
4.805235312E0,4.357974529E0,-1.158213854E0,1.007658005E1
4.825331666E0,3.275218010E0,-8.132649660E-1,1.003825283E1
4.845428020E0,3.011715412E0,-1.474417090E0,1.133660221E1
4.865524375E0,2.915896177E0,-7.318186760E-1,1.240498543E1
4.885620729E0,2.776958466E0,-1.760676801E-1,1.260620594E1
4.905717083E0,3.466856241E0,-4.683160484E-1,1.142763042E1
4.925813437E0,3.912415266E0,-1.067185640E0,9.880150795E0
4.945909791E0,3.763895750E0,-1.388179779E0,9.290863991E0
4.966006145E0,3.687240362E0,-1.052812815E0,9.784332275E0
4.986102500E0,4.099262714E0,-5.689261556E-1,1.050776672E1
5.006198854E0,4.338810444E0,-3.868697882E-1,1.053651237E1
5.026295208E0,4.190290928E0,7.306209207E-2,9.487293243E0
5.046391562E0,3.366246223E0,6.288130879E-1,8.045214653E0
5.066487916E0,3.112325430E0,9.929258823E-1,6.847475529E0
5.086584270E0,3.073997736E0,9.498072267E-1,6.296515465E0
5.106680468E0,2.882359505E0,6.671407819E-1,6.603136539E0
5.126775937E0,2.685930252E0,4.611296058E-1,7.221169949E0
5.146872812E0,2.312235594E0,1.784631461E-1,7.796084881E0
5.166969687E0,2.019987345E0,1.065987945E-1,8.380581856E0
5.187066093E0,2.623647928E0,-1.904405504E-1,9.195044518E0
5.207161927E0,2.293071747E0,-8.024853468E-2,1.003346157E1
5.227257760E0,2.063105822E0,4.275929332E-1,1.026342773E1
5.247353750E0,1.933750033E0,4.515477121E-1,1.011011696E1
5.267450104E0,2.302653790E0,5.617397428E-1,9.827450752E0
5.287546458E0,2.695512295E0,8.264400810E-2,1.059879494E1
5.307642812E0,2.422427654E0,3.126099408E-1,1.161447811E1
5.327739166E0,2.470337152E0,5.389826745E-2,1.201212692E1
5.347835520E0,2.307444811E0,-2.754800394E-2,1.153782272E1
5.367931875E0,1.617546916E0,4.371748269E-1,1.210794640E1
5.388028229E0,1.813976169E0,1.213309884E0,1.300864601E1
5.408124583E0,1.325298548E0,1.318710923E0,1.418243027E1
5.428220937E0,-2.881161928E0,1.136654615E0,1.369375324E1
5.448317291E0,8.923157305E-2,3.940562308E-1,1.087187958E1
5.468413645E0,8.701575994E-1,-3.593217814E-3,9.913687706E0
5.488510000E0,8.893213868E-1,-4.539431930E-1,8.701576233E0
5.508606354E0,6.928921938E-1,-2.048134208E-1,9.444173813E0
5.528702708E0,1.946326345E-1,-5.629374459E-2,9.769959450E0
5.548799062E0,6.497735381E-1,-4.299883842E-1,9.310027122E0
5.568895416E0,1.397162914E0,-8.228468895E-1,9.381891251E0
5.588991770E0,1.952913880E0,-1.024067044E0,9.218998909E0
5.609082760E0,1.507354856E0,-6.743271947E-1,8.428491592E0
5.629184427E0,7.791293859E-1,1.880450696E-1,7.470299721E0
5.649280364E0,1.191151738E0,4.611296058E-1,7.499045372E0
5.669376198E0,2.173297882E0,3.701014221E-1,6.684582710E0
5.689472031E0,2.690721273E0,9.114795923E-1,6.258187771E0
5.709568333E0,1.823558092E0,1.654077888E0,5.927611828E0
5.729664687E0,2.312235594E0,1.433693886E0,6.813938618E0
5.749761041E0,2.982969761E0,7.629598975E-1,8.605756760E0
5.769857395E0,2.523037672E0,1.615750313E0,9.597484589E0
5.789953750E0,1.339671373E0,1.797806621E0,1.003825283E1
5.810050104E0,1.933750033E0,5.569487810E-1,9.621439934E0
5.830146458E0,1.818767071E0,1.012089729E0,9.147134781E0
5.850242812E0,2.039151192E0,1.745106101E0,1.026821899E1
5.870339166E0,2.446382523E0,1.098326921E0,1.149949455E1
5.890435520E0,3.766889870E-1,1.064790249E0,9.616648674E0
5.910531875E0,1.502563953E0,6.815136671E-1,1.111621857E1
5.930628229E0,2.724257946E0,1.979863048E0,1.463757133E1
5.950724583E0,1.670247436E0,2.703297615E0,1.391892815E1
5.970820937E0,1.167196870E0,2.511659145E0,1.080959702E1
5.990917291E0,7.791293859E-1,1.251637578E0,9.650185585E0
6.011013281E0,8.462027907E-1,5.425758958E-1,9.171089172E0
6.031109114E0,1.584010243E0,6.958864927E-1,1.079043293E1
6.051204948E0,3.926788092E0,1.007298708E0,1.338713169E1
6.071301145E0,4.760414600E0,1.357038617E0,1.415368462E1
6.091397500E0,3.212935686E0,1.979863048E0,1.201212692E1
6.111486510E0,1.507354856E0,2.219410896E0,9.161507607E0
6.131591093E0,6.928921938E-1,2.559568882E0,6.631882191E0
6.151687135E0,3.239884675E-1,2.286484241E0,5.228131771E0
6.171782968E0,6.641464233E-1,2.588314533E0,5.362278938E0
6.191878802E0,7.791293859E-1,2.502077341E0,5.759928226E0
6.211974895E0,5.347905755E-1,2.353557587E0,6.296515465E0
6.232071250E0,4.581352770E-1,2.022981644E0,7.077441216E0
6.252167604E0,5.012539029E-1,1.587004542E0,7.542164326E0
6.272263958E0,2.904517651E-1,1.788224697E0,8.203316689E0
6.292360312E0,1.176778793E0,2.358348608E0,9.975970268E0
6.312456666E0,2.015196323E0,2.228992701E0,1.129348373E1
6.332553020E0,1.833139896E0,1.486394405E0,1.131264782E1
6.352649375E0,1.171987891E0,8.923157454E-1,1.142763042E1
6.372745729E0,8.605756760E-1,1.127072692E0,1.152344990E1
6.392842083E0,1.497772932E0,1.112699747E0,1.148033047E1
6.412938437E0,1.986450553E0,1.979863048E0,1.235707569E1
6.433034791E0,2.642811775E0,1.706778407E0,1.271639824E1
6.453130677E0,2.053524017E0,1.749897122E0,1.350690556E1
6.473226510E0,6.689373851E-1,8.779428601E-1,1.489628315E1
6.493322343E0,1.421117663E0,2.503274977E-1,1.454654312E1
6.513418593E0,1.377999067E0,-4.539431930E-1,1.304218292E1
6.533514948E0,-2.605082989E-1,-4.060336053E-1,1.207440948E1
6.553611302E0,-4.090279639E-1,2.503274977E-1,1.124557400E1
6.573707656E0,3.814799488E-1,5.809035301E-1,1.013886261E1
6.593804479E0,6.066549420E-1,5.617397428E-1,1.029696465E1
6.613897448E0,5.443724990E-1,1.280383229E0,1.039757442E1
6.633997083E0,8.030841947E-1,2.042145491E0,1.001908875E1
6.654093177E0,8.462027907E-1,2.549986839E0,9.372309685E0
6.674189010E0,8.078751564E-1,2.971591234E0,9.262117386E0
6.694284843E0,1.128869295E0,3.091365099E0,9.420219421E0
6.714380885E0,1.258225083E0,3.215929985E0,9.899314880E0
6.734477239E0,9.707676768E-1,2.856608152E0,1.093895245E1
6.754573593E0,2.425422072E-1,2.722461462E0,1.095332527E1
6.774669948E0,-1.017479539E0,1.946326375E0,1.331526756E1
6.794766302E0,-1.137253404E0,1.500767350E0,1.391892815E1
6.814862656E0,-1.357637405E0,1.064790249E0,1.163364124E1
6.834959010E0,-7.587678432E-1,2.708088398E0,1.044548416E1
6.855055364E0,-4.329827428E-1,2.391885281E0,9.223790169E0
6.875151718E0,-4.012426734E-2,2.502077341E0,9.736422539E0
6.895248073E0,9.659767151E-1,2.425421953E0,1.133660221E1
6.915344375E0,1.258225083E0,2.257738590E0,1.198338127E1
6.935440208E0,2.034360170E0,2.142755508E0,1.240977669E1
6.955536041E0,2.379309177E0,1.692405581E0,1.175820637E1
6.975631875E0,1.377999067E0,1.668450832E0,1.098207092E1
6.995728125E0,1.323501915E-1,1.654077888E0,1.063712215E1
7.015824479E0,9.851405621E-1,1.179773211E0,1.005741692E1
7.035920833E0,2.532619715E0,1.093535900E0,9.166298866E0
7.056017187E0,3.476438284E0,1.285174251E0,7.384062767E0
7.076113541E0,2.705094099E0,1.812179565E0,6.607927322E0
7.096212083E0,1.584010243E0,2.027772665E0,6.425871372E0
7.116299114E0,1.536100626E0,2.224201918E0,6.147995472E0
7.136402760E0,1.473818183E0,2.597896576E0,6.052176476E0
7.156498593E0,1.037841082E0,2.751207113E0,5.798255920E0
7.176594427E0,5.347905755E-1,3.100946903E0,4.979001999E0
7.196690260E0,2.617060244E-1,3.326122046E0,4.279522419E0
7.216786562E0,1.227682754E-1,3.690234661E0,3.776471853E0
7.236882916E0,1.419321001E-1,4.011229038E0,4.864019394E0
7.256979270E0,3.287794292E-1,3.762099028E0,6.128831863E0
7.277075625E0,7.964966446E-2,3.833963394E0,6.440244198E0
7.297171979E0,5.012539029E-1,4.538234234E0,7.192424297E0
7.317268333E0,1.248643160E0,5.232923031E0,8.184152603E0
7.337354583E0,1.257626247E-2,4.993374825E0,8.509937286E0
7.357460468E0,-1.530111909E0,4.796945572E0,8.639293671E0
7.377557031E0,-1.525321007E0,4.897555828E0,9.060897827E0
7.397652864E0,-1.343264580E0,5.060448647E0,1.005741692E1
7.417748698E0,-1.070180058E0,5.223340988E0,1.078564167E1
7.437844791E0,-1.410338044E0,5.606617451E0,1.037841034E1
7.457941145E0,-1.673840642E0,5.827001572E0,9.257327080E0
7.478037500E0,-2.267919302E0,5.822210789E0,9.080060959E0
7.498133854E0,-2.301455975E0,4.566979885E0,1.049818516E1
7.518230208E0,-1.736123085E0,3.479432583E0,1.264453316E1
7.538326562E0,-1.544484735E0,3.124901772E0,1.289845467E1
7.558422916E0,-1.386383176E0,3.493805408E0,1.085750675E1
7.578519270E0,-9.216603637E-1,4.159748554E0,8.299135208E0
7.598615520E0,-9.408242106E-1,3.948946476E0,8.002096176E0
7.618711354E0,-1.051016212E0,3.038664579E0,8.725530624E0
7.638807187E0,-1.003106594E0,2.530822992E0,9.046525002E0
7.658903020E0,-1.012688518E0,2.631433249E0,8.653666496E0
7.678999218E0,-8.210502863E-1,2.952427387E0,8.265598297E0
7.699095573E0,-3.084178567E-1,3.076992273E0,7.839203358E0
7.719191927E0,-2.221806347E-1,3.259048462E0,7.048695564E0
7.739288281E0,-3.179997802E-1,3.560878754E0,6.861848354E0
7.759384635E0,-2.461354136E-1,3.527342081E0,6.804356575E0
7.779480989E0,1.179773211E-1,3.982483149E0,7.005577087E0
7.799577343E0,4.772990942E-1,4.461578846E0,7.494254589E0
7.819673750E0,5.587453842E-1,4.519070148E0,8.351836205E0
7.839765833E0,-2.269715965E-1,4.360968590E0,8.668039322E0
7.859866093E0,-9.216603637E-1,4.456788063E0,8.284762383E0
7.879961927E0,-9.647789598E-1,4.796945572E0,8.327880859E0
7.900057760E0,-7.156491876E-1,5.012538910E0,8.447654724E0
7.920153593E0,-4.491522163E-2,5.113149166E0,8.744694710E0
7.940249687E0,2.808698714E-1,5.223340988E0,9.401055336E0
7.960346041E0,1.467230618E-1,5.472470760E0,1.022030926E1
7.980442395E0,-4.491522163E-2,5.213758945E0,1.033529186E1
8.000538750E0,-1.311524510E-1,5.189804077E0,1.011490822E1
8.020635104E0,6.210278273E-1,4.701126575E0,1.079043293E1
8.040731458E0,9.803496003E-1,3.484223604E0,1.244331360E1
8.060827812E0,6.928921938E-1,2.684133768E0,1.323382092E1
8.080924166E0,4.389714301E-1,2.942845345E0,1.143721199E1
8.101020000E0,1.047423005E0,3.704607487E0,8.586592674E0
8.121115833E0,1.454654336E0,4.332222939E0,7.451136112E0
8.141211666E0,1.373208046E0,4.121420860E0,8.998615265E0
8.161307656E0,8.126661181E-1,3.536924124E0,9.669348717E0
8.181404010E0,-3.533330932E-2,3.522551298E0,9.434592247E0
8.201500364E0,-3.802822232E-1,3.484223604E0,8.442864418E0
8.221596718E0,-8.450050354E-1,3.532133102E0,7.566119194E0
8.241693073E0,-9.647789598E-1,3.551296949E0,6.933712482E0
8.261789427E0,-7.587678432E-1,3.685443640E0,6.334843159E0
8.281885781E0,-7.204401493E-1,3.747726202E0,6.138413906E0
8.301982083E0,-6.533667445E-1,3.838754416E0,6.425871372E0
8.322077916E0,-6.533667445E-1,4.035183430E0,7.101396084E0
8.342173750E0,-5.431747437E-1,4.049556255E0,7.570909977E0
8.362269583E0,-6.581577063E-1,4.404087067E0,8.160197258E0
8.382365573E0,-5.575476289E-1,4.485533714E0,9.151926041E0
8.402461927E0,-6.821125150E-1,4.581352711E0,9.841823578E0
8.422558281E0,-1.194744945E0,4.710708618E0,1.032571030E1
8.442654635E0,-1.357637405E0,4.590934753E0,1.048860264E1
8.462750989E0,-1.094134808E0,4.485533714E0,1.063233185E1
8.482847343E0,-1.415128946E0,4.667590141E0,1.114496422E1
8.502943698E0,-1.831942201E0,5.093985081E0,1.126952839E1
8.523039895E0,-1.587603450E0,5.707227707E0,1.077606010E1
8.543135729E0,-1.036643386E0,5.750346184E0,1.006699848E1
8.563231562E0,-5.575476289E-1,4.428041935E0,1.134618378E1
8.583327395E0,-7.012763619E-1,2.717670441E0,1.327214909E1
8.603423489E0,-1.467829466E0,2.262529373E0,1.308051014E1
8.623519843E0,-1.309727907E0,2.401467323E0,1.059400368E1
8.643616198E0,-9.072874784E-1,2.890144825E0,8.169779778E0
8.663712552E0,-6.006662250E-1,2.847026348E0,7.647565365E0
8.683808906E0,-5.048471093E-1,2.626642227E0,7.676311016E0
8.703905260E0,-6.006662250E-1,2.444585800E0,7.676311016E0
8.724001614E0,-4.329827428E-1,2.348766804E0,7.762548447E0
8.744097500E0,-1.982258558E-1,2.602687359E0,7.465508938E0
8.764193333E0,-1.646891534E-1,2.832653284E0,7.221169949E0
8.784289166E0,-1.694801003E-1,2.985964060E0,7.211588383E0
8.804385000E0,-3.533330932E-2,3.129692793E0,7.379271507E0
8.824482395E0,-1.311524510E-1,3.374031544E0,7.786502838E0
8.844578229E0,-8.803384006E-2,3.445895910E0,9.290863991E0
8.864674062E0,-6.198300719E-1,3.536924124E0,8.979451180E0
8.884769895E0,-4.904742241E-1,3.599206448E0,8.806977272E0
8.904865833E0,-8.497959971E-1,3.853127241E0,8.783021927E0
8.924962187E0,-9.599879980E-1,3.877082109E0,9.434592247E0
8.945058541E0,-1.223490715E0,4.078302383E0,9.904106140E0
8.965154895E0,-1.031852365E0,4.241194725E0,9.995134354E0
8.985251250E0,-3.707002997E-1,4.231612682E0,1.012448978E1
9.005347604E0,-3.323726356E-1,4.131002903E0,1.105393600E1
9.025443958E0,-6.533667445E-1,4.241194725E0,1.106351757E1
9.045539843E0,-4.904742241E-1,4.576561928E0,1.012448978E1
9.065635677E0,2.694913372E-2,4.792154789E0,9.693304062E0
9.085731510E0,9.947224855E-1,4.289104462E0,1.054130363E1
9.105827343E0,1.440281510E0,3.081783056E0,1.266369724E1
9.125923645E0,5.779091716E-1,2.478122473E0,1.342066860E1
9.146020000E0,5.922820568E-1,2.526032209E0,1.213190079E1
9.166116354E0,7.216379046E-1,2.866190195E0,1.001908875E1
9.186212708E0,1.181569815E0,3.326122046E0,8.792604446E0
9.206309062E0,1.195942640E0,3.292585373E0,8.644083977E0
9.226405312E0,4.868810177E-1,3.225511789E0,8.509937286E0
9.246501145E0,-1.598981917E-1,3.182393312E0,8.093124390E0
9.266596979E0,-3.659093380E-1,3.168020487E0,7.752966404E0
9.286692812E0,-4.090279639E-1,3.297376156E0,7.475090981E0
9.306788698E0,-2.940450013E-1,3.489014387E0,7.134932995E0
9.326885833E0,-1.407343596E-1,3.623161316E0,6.933712482E0
9.346981979E0,-5.048471093E-1,3.469850779E0,6.833102703E0
9.367077812E0,-7.204401493E-1,3.426732063E0,7.048695564E0
9.387173645E0,-8.737508059E-1,3.445895910E0,7.604446411E0
9.407269479E0,-9.072874784E-1,3.551296949E0,8.294344902E0
9.427365573E0,-1.098925829E0,3.637534142E0,8.955496788E0
9.447461927E0,-1.156417251E0,3.728562355E0,9.554366112E0
9.467558281E0,-8.450050354E-1,3.987273932E0,1.011490822E1
9.487654635E0,-1.137253404E0,4.356177807E0,1.000950718E1
9.507750989E0,-1.439083695E0,4.499906540E0,9.492083549E0
9.527847343E0,-1.616349101E0,4.533442974E0,9.056106567E0
9.547943385E0,-1.539693832E0,4.768199921E0,9.750795364E0
9.568039218E0,-1.429501772E0,4.749036312E0,1.079522419E1
9.588135052E0,-1.362428427E0,4.787364006E0,1.214148331E1
9.608230885E0,-1.597185373E0,4.753827095E0,1.220376587E1
9.628326875E0,-1.046225309E0,3.733353376E0,1.114975452E1
9.648423229E0,-1.065389037E0,3.062619209E0,1.112100887E1
9.668519583E0,-1.678631544E0,2.808698654E0,1.177257919E1
9.688615937E0,-2.411648035E0,2.684133768E0,1.034966469E1
9.708712291E0,-1.937343240E0,2.530822992E0,8.380581856E0
9.728808645E0,-1.649885893E0,2.842235327E0,7.652356148E0
9.748904739E0,-2.114608765E0,2.899726868E0,7.570909977E0
9.769000573E0,-2.641613960E0,2.770370960E0,7.110978127E0
9.789096406E0,-3.585432529E0,2.842235327E0,6.459407806E0
9.809192239E0,-2.953026056E0,2.549986839E0,7.158887863E0
9.829289323E0,-1.999625683E0,2.377512455E0,7.661938190E0
9.849385156E0,-2.119399548E0,2.775161982E0,7.911067963E0
9.869480989E0,-1.946925163E0,2.885353804E0,8.284762383E0
9.889576823E0,-1.846315145E0,2.803907633E0,8.318299294E0
9.909672656E0,-1.716959238E0,3.302167177E0,8.050005913E0
9.929768906E0,-1.726541162E0,3.651906967E0,8.256016731E0
9.949865260E0,-1.568439603E0,3.752517223E0,8.351836205E0
9.969961614E0,-1.582812428E0,4.284313202E0,8.121870041E0
9.990057968E0,-1.884642720E0,4.576561928E0,8.093124390E0
1.001015432E1,-2.421229839E0,4.792154789E0,8.509937286E0
1.003025057E1,-3.044054270E0,4.092675209E0,9.123180389E0
1.005034641E1,-2.009207726E0,4.495115280E0,9.329191208E0
1.007044224E1,-1.410338044E0,4.777781963E0,9.516038895E0
1.009053807E1,-5.910843015E-1,5.673690796E0,1.043590260E1
1.011063391E1,3.718980551E-1,5.443725109E0,1.081917858E1
1.013073016E1,-3.227907419E-1,4.471160889E0,1.079522419E1
1.015082651E1,1.658868939E-1,3.771681070E0,1.024426365E1
1.017092286E1,2.090055048E-1,3.824381590E0,1.013886261E1
1.019101922E1,1.023468256E0,3.220721006E0,1.067545033E1
1.021111557E1,1.698993206E0,2.343975782E0,1.169113350E1
1.023121172E1,1.023468256E0,2.310439110E0,1.140367603E1
1.025130755E1,7.551746368E-1,2.142755508E0,1.032091904E1
1.027140339E1,1.090541601E0,2.655387878E0,9.171089172E0
1.029149922E1,1.066586852E0,3.326122046E0,8.150615692E0
1.031159505E1,3.653104603E-2,3.872291088E0,7.316989422E0
1.033169141E1,-7.635588050E-1,4.121420860E0,6.823520660E0
1.035178776E1,-6.964854002E-1,3.680652857E0,7.192424297E0
1.037188411E1,-1.089343905E0,3.613579273E0,6.933712482E0
1.039198047E1,-1.314518809E0,3.958528280E0,6.229442120E0
1.041207682E1,-7.635588050E-1,4.624471188E0,5.803046703E0
1.043217281E1,-3.084178567E-1,5.141894817E0,5.716809750E0
1.045226864E1,-5.910843015E-1,4.389714241E0,6.253396511E0
1.047236448E1,-2.282292128E0,4.341804981E0,6.665419102E0
1.049246031E1,-2.794924498E0,5.141894817E0,6.468989849E0
1.051255625E1,-1.688213468E0,5.429352283E0,7.340943813E0
1.053265260E1,-1.367219329E0,5.352696896E0,9.439383507E0
1.055274896E1,-2.641613960E0,5.462888718E0,1.021551800E1
1.057284531E1,-3.427330971E0,5.635363102E0,9.410637856E0
1.059294167E1,-3.503986120E0,5.659317970E0,9.894524574E0
1.061303802E1,-3.858517170E0,5.688063622E0,1.108747196E1
1.063313401E1,-4.107646942E0,5.640154362E0,1.080001545E1
1.065322984E1,-6.230041027E0,6.742074490E0,8.875247836E-1
1.067332568E1,-4.922109604E0,5.395815372E0,1.136055660E1
1.069342151E1,-4.984392166E0,5.074821472E0,1.164801407E1
1.071351745E1,-4.735262394E0,4.653216839E0,9.827450752E0
1.073361380E1,-4.256166458E0,4.341804981E0,1.069940472E1
1.075371016E1,-3.245274544E0,3.436313868E0,1.147074890E1
1.077380651E1,-1.870269895E0,2.890144825E0,1.121682835E1
1.079390286E1,-6.677396297E-1,2.957218170E0,1.023468208E1
1.081399922E1,-5.144290328E-1,3.311748981E0,9.396265030E0
1.083409318E1,-1.012688518E0,3.105737925E0,8.979451180E0
1.085419026E1,-1.074970961E0,2.823071480E0,8.361417770E0
1.087428750E1,-7.108582854E-1,2.559568882E0,7.752966404E0
1.089438333E1,-1.027061462E0,2.717670441E0,7.106186867E0
1.091447917E1,-1.300145984E0,3.053037405E0,7.460718155E0
1.093457500E1,-1.041434288E0,3.038664579E0,8.002096176E0
1.095467088E1,-7.012763619E-1,3.048246384E0,8.256016731E0
1.097476724E1,-5.288019180E-1,2.985964060E0,7.915858746E0
1.099486359E1,-7.970954776E-1,3.110528946E0,7.288243294E0
1.101495995E1,-1.247445464E0,3.728562355E0,7.182842255E0
1.103505630E1,-1.381592274E0,4.087883949E0,7.614028454E0
1.105515266E1,-1.357637405E0,4.087883949E0,8.471610069E0
1.107524864E1,-1.324100733E0,3.541714907E0,8.830931664E0
1.109534448E1,-1.611558199E0,3.378822565E0,8.759067535E0
1.111544031E1,-1.496575236E0,4.284313202E0,9.209417343E0
1.113553615E1,-4.952651858E-1,4.792154789E0,9.621439934E0
1.115563219E1,6.018639803E-1,5.103567123E0,1.011011696E1
1.117572854E1,1.095332623E0,4.787364006E0,1.094853497E1
1.119582490E1,9.563947916E-1,4.317850113E0,1.163843250E1
1.121592125E1,4.533443153E-1,4.159748554E0,1.159052277E1
1.123601760E1,7.006774843E-2,4.475951672E0,1.137972069E1
1.125611396E1,5.970730186E-1,4.638844013E0,1.137013912E1
1.127620984E1,1.057004929E0,4.279522419E0,1.157614994E1
1.129630568E1,1.013886333E0,3.666279793E0,1.148991299E1
1.131640151E1,9.132761955E-1,3.163229465E0,1.039757442E1
1.133649833E1,7.120559812E-1,2.823071480E0,8.921959877E0
1.135659417E1,7.743384242E-1,2.847026348E0,8.059587479E0
1.137669000E1,1.148033142E0,3.134483576E0,8.639293671E0
1.139678583E1,1.310925603E0,3.158438444E0,9.573530197E0
1.141688182E1,9.659767151E-1,3.091365099E0,9.420219421E0
1.143697818E1,3.575251698E-1,3.110528946E0,8.260807991E0
1.145707453E1,-1.359434128E-1,3.110528946E0,7.163678646E0
1.147717089E1,-5.575476289E-1,3.278212309E0,6.464199066E0
1.149726724E1,-9.839428067E-1,3.589624643E0,6.085713387E0
1.151736359E1,-1.247445464E0,3.924991608E0,6.028221607E0
1.153745974E1,-1.204326868E0,4.131002903E0,6.267769814E0
1.155755557E1,-9.743608832E-1,4.322640896E0,6.684582710E0
1.157765141E1,-1.170790195E0,4.725081444E0,7.618819714E0
1.159774724E1,-1.122880578E0,4.792154789E0,9.017779350E0
1.161784318E1,-7.108582854E-1,4.523861408E0,1.034966469E1
1.163793953E1,2.215817571E-2,4.226821899E0,1.107309914E1
1.165803588E1,-8.497959971E-1,4.451996803E0,1.123120117E1
1.167813224E1,-6.294119954E-1,4.154957294E0,1.088146114E1
1.169822859E1,-6.006662250E-1,3.848336220E0,1.088625240E1
1.171832495E1,-6.342029572E-1,3.709398508E0,1.123599243E1
1.173842120E1,-3.036268950E-1,3.455477715E0,1.190193558E1
1.175851703E1,7.964966446E-2,3.517760277E0,1.288887215E1
1.177861286E1,4.006437957E-1,3.225511789E0,1.332484913E1
1.179870870E1,4.198076129E-1,2.228992701E0,1.308051014E1
1.181880458E1,7.964966446E-2,1.376202464E0,1.195463562E1
1.183890094E1,-7.300220728E-1,1.380993366E0,1.010532665E1
1.185899729E1,-8.545869589E-1,1.529513001E0,8.663248062E0
1.187909365E1,-7.845192403E-2,1.711569428E0,8.107497215E0
1.189919000E1,6.018639803E-1,2.003817797E0,8.600965500E0
1.191928635E1,9.276490808E-1,2.003817797E0,9.204626083E0
1.193938271E1,1.090541601E0,1.912789583E0,8.998615265E0
1.195947854E1,8.941123486E-1,1.941535354E0,8.289553642E0
1.197957438E1,3.623161316E-1,2.066100359E0,7.475090981E0
1.199967021E1,-1.694801003E-1,2.272111416E0,6.967249393E0
1.201976604E1,-5.928809568E-2,2.530822992E0,7.000785828E0
1.203986240E1,4.150166512E-1,2.990754843E0,6.909758091E0
1.205995875E1,4.772990942E-1,3.426732063E0,6.641464233E0
1.208005510E1,3.144065440E-1,3.493805408E0,6.871430397E0
1.210015146E1,1.131863594E-1,3.359658718E0,7.824830532E0
1.212024781E1,4.132200405E-2,3.302167177E0,8.375790596E0
1.214034417E1,-2.700901926E-1,3.417150259E0,7.767339230E0
1.216044021E1,-4.713104069E-1,3.714189529E0,7.173260689E0
1.218053604E1,-3.323726356E-1,4.250776768E0,7.158887863E0
1.220063188E1,-1.118089557E0,5.065239429E0,6.871430397E0
1.222072771E1,-1.156417251E0,4.868810177E0,8.198525429E0
1.224082385E1,-1.233072639E0,3.867500067E0,9.750795364E0
1.226092021E1,-1.084552884E0,2.559568882E0,1.163364124E1
1.228101656E1,-2.892540395E-1,1.601377368E0,1.268286133E1
1.230111292E1,1.406744719E0,1.912789583E0,1.121203709E1
1.232120927E1,2.096642494E0,1.936744452E0,1.049818516E1
1.234130562E1,1.948122978E0,2.607478380E0,1.223251152E1
1.236140198E1,1.334880471E0,2.315229893E0,1.455133438E1
1.238149781E1,3.048246503E-1,1.079163074E0,1.475734520E1
1.240159364E1,-2.575139515E-2,-8.180559278E-1,1.239540386E1
1.242168948E1,2.185874134E-1,-2.154732943E0,7.906276703E0
1.244178536E1,1.651083589E0,-3.041059971E0,5.836583614E0
1.246188172E1,2.302653790E0,-6.455814838E-1,6.742074490E0
1.248197807E1,3.577048302E0,1.050417304E0,8.826140404E0
1.250207443E1,3.562675476E0,1.141445518E0,8.318299294E0
1.252217078E1,3.629748821E0,1.769060850E0,8.347044945E0
1.254226714E1,1.732529879E0,5.425758958E-1,7.355316639E0
1.256236349E1,-1.982258558E-1,5.569487810E-1,4.753827095E0
1.258245948E1,-5.096380711E-1,2.024179399E-1,3.599206448E0
1.260255531E1,1.473818183E0,-3.437511623E-1,4.883183002E0
1.262265114E1,1.516936779E0,3.701014221E-1,7.297825336E0
1.264274698E1,3.096156120E-1,9.114795923E-1,7.326570988E0
1.266284323E1,-9.408242106E-1,1.127072692E0,6.239023685E0
1.268293958E1,9.947224855E-1,7.054684162E-1,2.056518316E0
1.270303594E1,1.157614946E0,-1.760676801E-1,3.076992273E0
1.272313229E1,2.249953270E0,-8.983044326E-2,3.992064953E0
1.274322864E1,3.950742960E0,-4.108245671E-1,5.913239002E0
1.276332500E1,6.743870735E0,-2.269716024E0,7.436763287E0
1.278342135E1,5.613204956E0,-3.347681284E0,9.367518425E0
1.280351719E1,5.632369041E0,-5.604221821E0,1.046943855E1
1.282361302E1,5.383239269E0,-7.127746582E0,1.057963085E1
1.284370885E1,7.040910244E0,-6.835497856E0,1.034008312E1
1.286380479E1,8.368005753E0,-6.351611137E0,1.119766426E1
1.288390115E1,8.746491432E0,-5.484447956E0,1.423034000E1
1.290399750E1,8.612343788E0,-4.995770454E0,1.758401108E1
1.292409385E1,9.829247475E0,-5.546730518E0,1.673122025E1
1.294419021E1,9.144140244E0,-6.734888077E0,1.344462299E1
1.296428656E1,6.307893753E0,-7.118164539E0,1.130306530E1
1.298438292E1,4.779578686E0,-7.075046062E0,1.138930321E1
1.300447901E1,5.891080379E0,-7.003181458E0,9.151926041E0
1.302457484E1,6.312685013E0,-5.838978767E0,9.841823578E0
1.304467068E1,7.127147675E0,-5.355092049E0,7.791294098E0
1.306476651E1,8.023056984E0,-4.784968376E0,5.510798454E0
1.308486271E1,7.069655895E0,-5.014934540E0,3.283003330E0
1.310495906E1,7.381068230E0,-4.871205807E0,2.219410896E0
1.312505542E1,8.377587318E0,-4.693940163E0,1.476812482E0
1.314515177E1,8.281767845E0,-4.626866817E0,1.074372172E0
1.316524813E1,9.929857254E0,-5.302391529E0,1.136654615E0
1.318534448E1,5.431148529E0,-4.334618568E0,7.725418210E-1
1.320544083E1,6.858853817E0,-4.507092953E0,-3.533330858E-1
1.322553672E1,6.264775276E0,-5.211363792E0,-5.353894830E-1
1.324563255E1,6.633678913E0,-5.642549515E0,-8.180559278E-1
1.326572839E1,7.313994884E0,-7.472695351E0,-1.896021247E0
1.328582422E1,7.529587746E0,-8.315903664E0,-1.742710590E0
1.330592057E1,9.115394592E0,-8.526705742E0,-1.186959624E0
1.332601693E1,1.074431992E1,-8.512332916E0,-1.833738804E0
1.334611328E1,1.150608253E1,-8.876445770E0,-2.236179113E0
1.336620964E1,1.075390244E1,-9.379496574E0,-1.474417090E0
1.338630599E1,9.077067375E0,-8.833327293E0,2.694913447E-1
1.340640234E1,9.014784813E0,-7.448740482E0,1.433693886E0
1.342649864E1,9.814874649E0,-6.346820354E0,1.040835381E0
1.344659448E1,1.089763069E1,-5.872515678E0,1.065987945E-1
1.346669031E1,9.340569496E0,-5.508402824E0,-5.880900025E-1
1.348678615E1,6.959464073E0,-4.660403728E0,-2.715274811E0
1.350688214E1,4.865815639E0,-2.930867910E0,-5.575476170E0
1.352697849E1,3.998652458E0,-1.603772879E0,-7.132537365E0
1.354707484E1,3.854923964E0,-1.230078220E0,-7.348130226E0
1.356717120E1,4.420256615E0,-1.656473398E0,-5.791069508E0
1.358726755E1,4.827487946E0,-2.058913708E0,-4.301081657E0
1.360736391E1,5.335329533E0,-2.494890928E0,-3.395590782E0
1.362746026E1,6.245611668E0,-2.978777647E0,-2.538009405E0
1.364755620E1,7.529587746E0,-3.769285440E0,-1.723546863E0
1.366765203E1,8.823145866E0,-4.305872917E0,-1.426507473E0
1.368774786E1,7.855372906E0,-4.435228348E0,-8.899202943E-1
1.370784370E1,8.161993980E0,-5.163454056E0,-9.186660051E-1
1.372793990E1,8.334468842E0,-5.278437138E0,-5.353894830E-1
1.374803625E1,8.521315575E0,-5.537148476E0,-6.503724456E-1
1.376813260E1,9.292659760E0,-6.088108540E0,-1.196541548E0
1.378822896E1,1.015982342E1,-6.337238312E0,-1.426507473E0
1.380832531E1,1.094074917E1,-6.524085999E0,-1.852902651E0
1.382842167E1,1.198996925E1,-7.664333820E0,-2.312834501E0
1.384851802E1,1.193726826E1,-8.014073372E0,-2.049331903E0
1.386861385E1,1.186061287E1,-7.338548660E0,-9.234569669E-1
1.388870969E1,1.095991325E1,-5.321555614E0,-2.287681997E-1
1.390880552E1,1.116592407E1,-4.674776554E0,-9.090840816E-1
1.392890135E1,1.189894104E1,-5.570685387E0,-1.632518649E0
1.394899771E1,1.185582256E1,-6.792379379E0,-1.373806953E0
1.396909406E1,1.058142757E1,-6.825916290E0,-6.072537899E-1
1.398919042E1,9.517834663E0,-5.886888504E0,-2.383501083E-1
1.400928677E1,8.626717567E0,-4.899951458E0,-6.024628282E-1
1.402938312E1,7.955983162E0,-4.555002213E0,-1.316315413E0
1.404947938E1,7.438559532E0,-4.717895031E0,-1.939139843E0
1.406957521E1,7.242130280E0,-5.163454056E0,-2.269716024E0
1.408967104E1,7.084028721E0,-5.637758732E0,-2.423026562E0
1.410976688E1,6.959464073E0,-6.068944931E0,-2.514054775E0
1.412986276E1,6.791780472E0,-6.246210098E0,-2.274506807E0
1.414995911E1,6.288730145E0,-6.447430611E0,-2.217015505E0
1.417005547E1,5.570086479E0,-6.413893700E0,-2.499681950E0
1.419015182E1,5.148482323E0,-6.375566006E0,-2.001422405E0
1.421024818E1,4.875397682E0,-6.476176262E0,-1.129468083E0
1.423034453E1,4.736459732E0,-7.233147621E0,-5.641351938E-1
1.425044073E1,4.822697163E0,-8.680016518E0,-8.384174667E-3
1.427053656E1,5.268256187E0,-9.925664902E0,8.731519580E-1
1.429063240E1,5.325747490E0,-1.020354080E1,1.821761489E0
1.431072823E1,5.709024429E0,-1.055807209E1,1.658868909E0
1.433082406E1,5.493431091E0,-1.062035370E1,1.424111962E0
1.435092036E1,5.986899853E0,-1.068263626E1,1.836134315E0
1.437101745E1,6.695961475E0,-1.018437672E1,3.067410231E0
1.439111328E1,7.543960571E0,-9.053710938E0,3.627952337E0
1.441120911E1,9.158513069E0,-9.154321671E0,2.233783722E0
1.443130495E1,9.623235703E0,-9.772355080E0,7.581689358E-1
1.445140078E1,9.105813026E0,-9.805891037E0,2.072088867E-1
1.447149708E1,8.023056984E0,-8.397350311E0,-4.778979719E-1
1.449159344E1,7.055283070E0,-6.720515251E0,-1.009694219E0
1.451168979E1,5.876707554E0,-5.867724895E0,-1.292360663E0
1.453178615E1,5.220346451E0,-5.302391529E0,-9.809484482E-1
1.455188250E1,5.354493618E0,-4.722685814E0,-3.437511623E-1
1.457197885E1,5.201182842E0,-4.334618568E0,-7.066661865E-2
1.459207505E1,5.689860344E0,-4.411273956E0,2.503274977E-1
1.461217089E1,6.686379433E0,-4.732267857E0,9.018976688E-1
1.463226672E1,7.745181084E0,-5.192199707E0,1.016880631E0
1.465236255E1,9.651982307E0,-5.340719223E0,1.079163074E0
1.467245870E1,1.183186722E1,-5.043680191E0,8.923157454E-1
1.469255505E1,1.266549397E1,-4.689149380E0,-2.766777575E-1
1.471265141E1,1.195643234E1,-4.353782177E0,-2.581128120E0
1.473274776E1,1.148212719E1,-4.483138084E0,-4.957442760E0
1.475284411E1,1.220077133E1,-5.177826881E0,-5.321555614E0
1.477294047E1,1.357577610E1,-5.853351593E0,-3.754912615E0
1.479303682E1,1.515679169E1,-7.156492233E0,-2.106823444E0
1.481313292E1,1.572212410E1,-7.985327721E0,1.688812375E-1
1.483322786E1,1.560714149E1,-8.109892845E0,1.984653950E0
1.485332469E1,1.427046490E1,-6.725306034E0,3.742935181E0
1.487342141E1,1.257925701E1,-5.460493565E0,3.311748981E0
1.489351724E1,1.152045536E1,-5.570685387E0,1.184564114E0
1.491361307E1,1.102219582E1,-6.528876781E0,1.353445351E-1
1.493370891E1,1.043290806E1,-7.142119408E0,3.461466432E-1
1.495380490E1,9.556162834E0,-6.936108112E0,1.079163074E0
1.497390125E1,8.890219688E0,-6.552831650E0,1.615750313E0
1.499399760E1,8.655463219E0,-6.433057785E0,1.793015718E0
1.501409396E1,8.626717567E0,-6.821125031E0,1.587004542E0
1.503419031E1,8.444661140E0,-7.410412788E0,1.184564114E0
1.505428667E1,8.229067802E0,-7.966164112E0,8.252423406E-1
1.507438281E1,8.075757027E0,-8.354231834E0,7.677508593E-1
1.509447864E1,7.730808258E0,-8.660852432E0,6.431859732E-1
1.511457448E1,7.457723618E0,-8.823744774E0,4.707115293E-1
1.513467031E1,7.222966671E0,-8.852491379E0,4.611296058E-1
1.515476646E1,6.619306087E0,-8.708762169E0,3.509376049E-1
1.517486281E1,5.464685440E0,-8.421304703E0,1.113897488E-1
1.519495917E1,4.573567390E0,-8.167384148E0,-5.449713469E-1
1.521505552E1,4.420256615E0,-8.282366753E0,-1.019276142E0
1.523515188E1,4.736459732E0,-8.924355507E0,-5.353894830E-1
1.525524823E1,4.492121220E0,-9.020174026E0,5.521578193E-1
1.527534432E1,4.602313042E0,-8.876445770E0,8.444061875E-1
1.529544016E1,4.976007938E0,-9.058502197E0,-7.066661865E-2
1.531553599E1,4.118426323E0,-8.962682724E0,-3.245873451E-1
1.533563182E1,3.917206287E0,-8.814163208E0,-4.156155288E-1
1.535572797E1,4.036980152E0,-8.550661087E0,3.509376049E-1
1.537582432E1,5.210764885E0,-7.784107685E0,9.114795923E-1
1.539592068E1,7.155893326E0,-7.520605087E0,6.348018348E-2
1.541601703E1,8.459033966E0,-7.937417984E0,-3.341692686E-1
1.543611338E1,8.281767845E0,-8.325485229E0,-1.042033136E-1
1.545620974E1,7.606243134E0,-7.884717464E0,1.880450696E-1
1.547630609E1,7.227757454E0,-6.859452724E0,8.264400810E-2
1.549640219E1,7.251712322E0,-5.450911522E0,-5.305985212E-1
1.551649802E1,6.868435860E0,-4.281918049E0,-1.071976662E0
1.553659385E1,5.838379860E0,-3.754912615E0,-8.036830425E-1
1.555668969E1,4.918516159E0,-4.056743145E0,1.557061076E-2
1.557678578E1,4.425047874E0,-4.775386333E0,8.252423406E-1
1.559688214E1,4.458584309E0,-5.326346397E0,1.452857733E0
1.561697849E1,5.756933689E0,-5.886888504E0,1.357038617E0
1.563707484E1,8.080548286E0,-6.739678860E0,8.827338219E-1
1.565717120E1,1.096470451E1,-7.726615906E0,9.258524776E-1
1.567726755E1,1.289066887E1,-7.472695351E0,1.591795444E0
1.569736391E1,1.485496140E1,-5.992289543E0,1.443275809E0
1.571746005E1,1.703484726E1,-5.283227921E0,3.748923838E-1
1.573755588E1,1.875959206E1,-5.474866390E0,-3.581240475E-1
1.575765172E1,1.792596436E1,-5.685668468E0,-1.431298375E0
1.577774755E1,1.628745842E1,-6.686978340E0,-2.696111202E0
1.579784364E1,1.573170662E1,-9.642998695E0,-3.050642014E0
1.581794135E1,1.291941452E1,-9.556761742E0,-5.018527508E-1
1.583803516E1,1.119466972E1,-8.344649315E0,1.299547076E0
1.585813307E1,1.066766453E1,-7.372085094E0,2.104427814E0
1.587822932E1,1.125216198E1,-7.678706646E0,1.639705062E0
1.589832516E1,1.229658985E1,-9.408242226E0,9.701687843E-2
1.591842099E1,1.150608253E1,-1.015563107E1,-4.204064906E-1
1.593851682E1,1.066287422E1,-1.011251259E1,6.479769349E-1
1.595861307E1,1.060059166E1,-9.652581215E0,1.970281124E0
1.597870943E1,1.057184601E1,-9.379496574E0,2.487704515E0
1.599880578E1,9.901111603E0,-9.077666283E0,2.329602957E0
1.601890214E1,9.077067375E0,-9.111202240E0,2.114009857E0
1.603899849E1,8.133248329E0,-9.130366325E0,2.066100359E0
1.605909484E1,7.194221020E0,-9.024965286E0,1.404948115E0
1.607919089E1,6.743870735E0,-8.794999123E0,5.904854536E-1
1.609928672E1,6.542650700E0,-8.598569870E0,3.269828260E-1
1.611938255E1,6.188119888E0,-8.531497002E0,1.880450696E-1
1.613947838E1,5.330538750E0,-8.301530838E0,-1.473219246E-1
1.615957464E1,4.525657654E0,-8.076355934E0,-4.970617890E-1
1.617967099E1,3.759104729E0,-7.889508724E0,-6.264176369E-1
1.619976734E1,3.011715412E0,-7.899090290E0,-1.091140509E0
1.621986370E1,2.302653790E0,-7.875135899E0,-1.364225030E0
1.623996005E1,2.307444811E0,-8.105101585E0,-1.148631930E0
1.626005641E1,2.336190462E0,-8.584197044E0,-3.341692686E-1
1.628015276E1,1.746902704E0,-8.483587265E0,4.371748269E-1
1.630024870E1,1.377999067E0,-8.066774368E0,5.856944919E-1
1.632034453E1,2.508664846E0,-8.359022141E0,-6.024628282E-1
1.634044036E1,3.351873398E0,-8.871654510E0,-1.483999014E0
1.636053620E1,4.094471931E0,-9.369914055E0,-1.613354802E0
1.638063255E1,4.813115120E0,-9.580716133E0,-7.030729651E-1
1.640072891E1,6.384549141E0,-9.647789955E0,8.683609962E-1
1.642082526E1,9.575326920E0,-1.065868187E1,1.654077888E0
1.644092161E1,1.218160725E1,-1.203368664E1,1.831343293E0
1.646101797E1,1.153003693E1,-1.191391277E1,1.802597642E0
1.648111432E1,9.848411560E0,-1.054369926E1,1.505558252E0
1.650121057E1,8.286559105E0,-8.665643692E0,7.306209207E-2
1.652130641E1,6.245611668E0,-5.637758732E0,-2.729647875E0
1.654140224E1,3.797432423E0,-3.726166964E0,-4.267545223E0
1.656149807E1,2.067896843E0,-3.132088184E0,-2.700901985E0
1.658159417E1,2.503874063E0,-4.023206234E0,-1.287569761E0
1.660169052E1,4.918516159E0,-5.546730518E0,8.827338219E-1
1.662178688E1,7.328367710E0,-6.964853764E0,1.907998681E0
1.664188323E1,9.944230080E0,-7.717034340E0,1.113897488E-1
1.666197958E1,1.255530167E1,-7.228356361E0,-3.433918476E0
1.668207594E1,1.508492756E1,-5.637758732E0,-6.356402397E0
1.670217229E1,1.764329910E1,-3.347681284E0,-7.415204048E0
1.672226838E1,1.886020088E1,-2.269716024E0,-7.731407166E0
1.674236422E1,1.625871086E1,-3.606392860E0,-7.482277393E0
1.676246005E1,1.213848877E1,-6.188718796E0,-6.524085999E0
1.678255588E1,9.599281311E0,-7.942209244E0,-4.473556042E0
1.680265208E1,8.435078621E0,-8.886027336E0,-1.910394192E0
1.682274844E1,7.845790863E0,-9.139948845E0,-1.664857566E-1
1.684284479E1,8.530898094E0,-1.080720139E1,-4.347793460E-1
1.686294114E1,8.554852486E0,-1.177018356E1,-1.019276142E0
1.688303750E1,8.382378578E0,-1.067784595E1,-1.263614893E0
1.690313385E1,9.628026962E0,-9.662162781E0,-1.934348941E0
1.692323021E1,1.090242195E1,-1.070659161E1,-2.705693007E0
1.694332620E1,1.172167492E1,-1.219178772E1,-2.451772213E0
1.696342203E1,1.180791283E1,-1.231156158E1,-1.244451046E0
1.698351786E1,1.047123528E1,-1.026103210E1,-1.317513175E-2
1.700361370E1,7.759553909E0,-7.079836845E0,1.064790249E0
1.702371000E1,6.758244038E0,-5.259273052E0,2.578732729E0
1.704380635E1,6.025227547E0,-4.248381138E0,3.345285892E0
1.706390271E1,7.611034393E0,-6.193509579E0,1.548676848E0
1.708399906E1,8.756072998E0,-8.766253471E0,-1.158213854E0
1.710409542E1,7.754763126E0,-1.081678295E1,-2.791930199E0
1.712419177E1,5.824007034E0,-1.230677128E1,-3.136879206E0
1.714428813E1,3.763895750E0,-1.337994576E1,-2.451772213E0
1.716438411E1,2.149343014E0,-1.313081551E1,-5.162256360E-1
1.718447995E1,2.063105822E0,-1.224927998E1,1.941535354E0
1.720457578E1,2.475128174E0,-1.079282856E1,3.862709045E0
1.722467161E1,2.853613853E0,-9.245349884E0,3.872291088E0
1.724476786E1,2.546992540E0,-8.076355934E0,2.209828854E0
1.726486422E1,1.952913880E0,-7.515813828E0,-3.197963834E-1
1.728496057E1,1.507354856E0,-7.779316425E0,-2.408653736E0
1.730505693E1,1.176778793E0,-8.454841614E0,-2.839839697E0
1.732515307E1,8.126661181E-1,-9.029756546E0,-2.178687811E0
1.734524818E1,8.270389438E-1,-9.432196617E0,-1.450462222E0
1.736534599E1,2.019987345E0,-9.925664902E0,-1.143841028E0
1.738544182E1,3.222517490E0,-1.060598087E1,-6.407905221E-1
1.740553766E1,3.826178074E0,-1.151147175E1,5.425758958E-1
1.742563349E1,8.161993980E0,-1.233072567E1,2.118800879E0
1.744572943E1,3.883669615E0,-1.165999222E1,2.650597095E0
1.746582578E1,8.435078621E0,-1.255111027E1,1.107908845E0
1.748592214E1,1.121383381E1,-1.264213848E1,-1.685219169E0
1.750601849E1,1.140068150E1,-1.104195881E1,-3.194370747E0
1.752611484E1,1.024127007E1,-8.818954468E0,-2.830257893E0
1.754621120E1,8.229067802E0,-7.094209671E0,-2.197851658E0
1.756630755E1,5.867125988E0,-5.609013081E0,-1.852902651E0
1.758640364E1,3.682449341E0,-4.928697109E0,-1.067185640E0
1.760649948E1,1.684620261E0,-4.425646782E0,-1.473219246E-1
1.762659531E1,1.109705448E0,-4.468765259E0,-3.006325662E-1
1.764669115E1,2.312235594E0,-5.527566910E0,-1.503162742E0
1.766678734E1,3.227308512E0,-6.739678860E0,-2.092450619E0
1.768688370E1,5.732978821E0,-8.119474411E0,-8.803383708E-1
1.770698005E1,9.153722763E0,-9.278885841E0,1.079163074E0
1.772707641E1,1.183665848E1,-8.929145813E0,3.287794352E0
1.774717276E1,1.396384335E1,-8.014073372E0,4.432833195E0
1.776726911E1,1.571733379E1,-6.801961422E0,4.011229038E0
1.778736547E1,1.606707382E1,-5.139499187E0,1.012089729E0
1.780746146E1,1.499868965E1,-5.407793045E0,-2.303252697E0
1.782755776E1,1.333622837E1,-7.213983536E0,-4.334618568E0
1.784765359E1,1.114676094E1,-8.038028717E0,-4.612493992E0
1.786774943E1,9.953812599E0,-7.918254375E0,-3.649511576E0
1.788784526E1,1.106052303E1,-1.039997005E1,-2.197851658E0
1.790794146E1,8.621926308E0,-1.072575474E1,3.952539712E-2
1.792803781E1,5.814425468E0,-8.598569870E0,1.246846557E0
1.794813417E1,7.898491859E0,-7.851181030E0,-5.449713469E-1
1.796823052E1,1.133360767E1,-9.226185799E0,-3.994460583E0
1.798832688E1,1.298648834E1,-1.166957378E1,-6.423475742E0
1.800842323E1,1.201871490E1,-1.268525696E1,-4.933487892E0
1.802851958E1,1.018856907E1,-1.117131424E1,-1.579818130E0
1.804861588E1,9.857993126E0,-9.355541229E0,9.929258823E-1
1.806871172E1,9.920275688E0,-8.272785187E0,1.975072026E0
1.808880755E1,9.211214066E0,-8.133847237E0,7.246322632E-1
1.810890338E1,7.951192379E0,-7.990118504E0,-8.995022178E-1
1.812899948E1,7.783508778E0,-8.737507820E0,-1.622936726E0
1.814909583E1,7.630198002E0,-9.039338112E0,-1.091140509E0
1.816919219E1,7.529587746E0,-9.508852005E0,-6.791181564E-1
1.818928854E1,6.672006607E0,-9.642998695E0,-1.281581074E-1
1.820938490E1,5.090990543E0,-9.805891037E0,4.910730943E-2
1.822948125E1,2.010405302E0,-1.049578953E1,1.077965368E-2
1.824957760E1,-1.530111909E0,-1.124317837E1,8.875247836E-1
1.826967396E1,-3.724370241E0,-1.139648914E1,2.104427814E0
1.828977005E1,-3.010517597E0,-1.150668144E1,2.444585800E0
1.830986588E1,-1.295355082E0,-1.110903168E1,2.377512455E0
1.832996250E1,3.862709105E-1,-1.078324699E1,2.329602957E0
1.835005833E1,1.349253297E0,-1.052932549E1,1.764269948E0
1.837015417E1,2.360145330E0,-1.170790100E1,1.832541078E-1
1.839025000E1,2.714676142E0,-1.220616055E1,-8.036830425E-1
1.841034620E1,2.911105394E0,-1.197140408E1,-8.503948897E-2
1.843044255E1,3.610584974E0,-1.111382294E1,1.093535900E0
1.845053891E1,5.503013134E0,-1.048141670E1,9.593891501E-1
1.847063526E1,7.491260052E0,-1.022749519E1,1.209716648E-1
1.849073161E1,8.535689354E0,-1.042392445E1,-3.485421240E-1
1.851082797E1,8.732118607E0,-1.038080597E1,-9.138750434E-1
1.853092432E1,7.673316479E0,-9.551970482E0,-2.312834501E0
1.855102068E1,6.303102970E0,-8.392559052E0,-3.026687145E0
1.857111651E1,5.148482323E0,-7.501441002E0,-2.672156334E0
1.859121234E1,4.923307419E0,-7.156492233E0,-1.330688357E0
1.861130818E1,5.201182842E0,-6.955271721E0,-5.449713469E-1
1.863140422E1,5.095781803E0,-6.710933208E0,-1.067185640E0
1.865150057E1,5.229928493E0,-6.667814732E0,-1.249242067E0
1.867159693E1,5.617996216E0,-6.806752205E0,-7.557734847E-1
1.869169328E1,6.748661995E0,-7.697870255E0,-5.785080791E-1
1.871178964E1,7.932028294E0,-8.397350311E0,-8.228468895E-1
1.873188599E1,9.158513069E0,-8.354231834E0,-1.071976662E0
1.875198234E1,1.042332554E1,-7.894299507E0,-7.988920808E-1
1.877207870E1,1.241157341E1,-7.204401493E0,-1.760676801E-1
1.879217453E1,1.491724396E1,-6.749260902E0,4.323838651E-1
1.881227036E1,1.712587547E1,-6.327656746E0,3.796833456E-1
1.883236547E1,1.795950127E1,-6.433057785E0,-6.072537899E-1
1.885246245E1,1.761934280E1,-8.445260048E0,-1.929557920E0
1.887255953E1,1.514241886E1,-9.944828987E0,-1.704383016E0
1.889265536E1,1.210495186E1,-9.810682297E0,-3.533330858E-1
1.891275120E1,1.032271576E1,-9.053710938E0,3.748923838E-1
1.893284703E1,1.027959728E1,-8.780626297E0,1.065987945E-1
1.895294318E1,1.122341537E1,-1.073533726E1,-2.527229786E-1
1.897303953E1,1.033708858E1,-1.147793579E1,4.898753762E-1
1.899313588E1,8.823145866E0,-1.073533726E1,1.716360331E0
1.901323224E1,8.593180656E0,-1.010293102E1,2.420631170E0
1.903332859E1,8.875846863E0,-9.992738724E0,1.941535354E0
1.905342495E1,8.506942749E0,-9.671744347E0,9.545981884E-1
1.907352130E1,7.702062607E0,-9.537597656E0,1.545083672E-1
1.909361745E1,6.916345596E0,-9.283677101E0,-6.455814838E-1
1.911371328E1,6.600142479E0,-9.077666283E0,-1.196541548E0
1.913380911E1,6.633678913E0,-9.173484802E0,-1.804993033E0
1.915390495E1,6.446831703E0,-9.432196617E0,-1.555863261E0
1.917400109E1,5.507803917E0,-9.389078140E0,-7.222367525E-1
1.919409745E1,4.583149433E0,-9.298049927E0,-3.916607499E-1
1.921419380E1,3.878878593E0,-9.274095535E0,6.827113777E-2
1.923429016E1,3.447692394E0,-9.317214012E0,6.863046288E-1
1.925438651E1,2.863195658E0,-9.159111977E0,1.328292847E0
1.927448286E1,2.273907900E0,-9.393869400E0,1.361829519E0
1.929457922E1,1.972077727E0,-9.633417130E0,7.629598975E-1
1.931467521E1,1.962495804E0,-9.566343307E0,5.138301253E-1
1.933477104E1,2.446382523E0,-9.202230453E0,6.623498201E-1
1.935486688E1,3.778268576E0,-9.441779137E0,2.934461236E-1
1.937496271E1,4.377138138E0,-1.010293102E1,-3.054235280E-1
1.939505901E1,4.391510963E0,-1.082636547E1,-7.988920808E-1
1.941515536E1,3.936370134E0,-1.029936028E1,2.119998485E-1
1.943525172E1,5.517385960E0,-9.571134567E0,5.234120488E-1
1.945534807E1,8.118875504E0,-9.767563820E0,-9.905303717E-1
1.947544443E1,8.339260101E0,-1.061077213E1,-2.212224483E0
1.949554078E1,5.795261383E0,-1.141086197E1,-2.221806288E0
1.951563693E1,3.165025949E0,-9.681326866E0,-3.021896124E0
1.953573276E1,3.054834127E0,-7.223565578E0,-4.281918049E0
1.955582859E1,3.936370134E0,-5.704832077E0,-3.845940828E0
1.957592443E1,3.888460636E0,-5.680877209E0,-1.996631384E0
1.959602047E1,3.773477554E0,-6.524085999E0,-1.474417090E0
1.961611682E1,4.286109924E0,-7.075046062E0,-2.102032423E0
1.963621318E1,5.847961903E0,-7.305011749E0,-2.413444519E0
1.965630953E1,7.567915440E0,-7.491858959E0,-1.680428147E0
1.967640588E1,9.029157639E0,-7.913463593E0,-4.970617890E-1
1.969650224E1,9.853201866E0,-8.440468788E0,5.809035301E-1
1.971659849E1,1.033229828E1,-8.450050354E0,1.591795444E0
1.973669432E1,1.051435375E1,-7.788898468E0,2.257738590E0
1.975679016E1,1.119946098E1,-7.242729187E0,2.425421953E0
1.977688599E1,1.215765285E1,-7.410412788E0,2.022981644E0
1.979698188E1,1.283796883E1,-7.400830746E0,1.366620541E0
1.981707823E1,1.326436329E1,-6.979226589E0,9.162705541E-1
1.983717521E1,1.315896225E1,-6.289329052E0,1.545083672E-1
1.985727104E1,1.328831863E1,-7.889508724E0,-3.293783069E-1
1.987736688E1,1.237324524E1,-9.187857628E0,5.809035301E-1
1.989746271E1,1.122820663E1,-7.947000027E0,1.079163074E0
1.991755880E1,1.156836510E1,-6.116854668E0,1.390575290E0
1.993765516E1,1.308709812E1,-4.823296070E0,9.498072267E-1
1.995775151E1,1.558797741E1,-6.332447529E0,2.742823064E-1
1.997784786E1,1.691507339E1,-8.368604660E0,4.850844145E-1
1.999794422E1,1.597125435E1,-9.283677101E0,1.716360331E0
2.001804057E1,1.329790020E1,-9.235767365E0,3.417150259E0
2.003813656E1,9.714263916E0,-8.962682724E0,5.683272839E0
2.005823240E1,7.979938030E0,-9.599880219E0,7.134932995E0
2.007832823E1,7.879327774E0,-1.036643314E1,6.330051899E0
2.009842406E1,7.730808258E0,-1.038080597E1,4.691544533E0
2.011852010E1,7.558333874E0,-1.032810593E1,2.909308672E0
2.013861646E1,7.500842094E0,-9.954411507E0,9.545981884E-1
2.015871281E1,7.452932835E0,-9.345959663E0,-4.060336053E-1
2.017880917E1,7.606243134E0,-8.656062126E0,-3.724969029E-1
2.019890552E1,8.056592941E0,-8.689598083E0,2.407455891E-1
2.021900182E1,8.262604713E0,-9.288468361E0,6.383950114E-1
2.023909766E1,7.486469269E0,-1.000232029E1,1.390575290E0
2.025919349E1,5.809634209E0,-9.805891037E0,2.382303476E0
2.027928932E1,4.204663754E0,-9.307631493E0,2.789534807E0
2.029938516E1,3.232099533E0,-8.823744774E0,2.214619875E0
2.031948245E1,2.494292021E0,-9.369914055E0,1.836134315E0
2.033957844E1,9.947224855E-1,-9.322004318E0,2.324811935E0
2.035967427E1,-4.281917810E-1,-8.363813400E0,3.311748981E0
2.037977010E1,-2.748811543E-1,-7.506231785E0,3.287794352E0
2.039986594E1,1.401953816E0,-7.740988731E0,1.816970468E0
2.041996177E1,2.690721273E0,-8.196129799E0,7.533779740E-1
2.044005802E1,2.982969761E0,-8.799790382E0,2.647003829E-1
2.046015438E1,3.644121647E0,-9.374705315E0,7.629598975E-1
2.048025073E1,5.900662422E0,-9.978365898E0,1.083954096E0
2.050034708E1,1.009754086E1,-1.141086197E1,7.006774545E-1
2.052044344E1,1.322603607E1,-1.283856678E1,3.605195284E-1
2.054053943E1,1.236366367E1,-1.250320053E1,1.197739271E-3
2.056063526E1,1.010712242E1,-1.111382294E1,2.694913447E-1
2.058073109E1,9.000411987E0,-9.441779137E0,6.048583388E-1
2.060082693E1,8.569225311E0,-7.745779991E0,1.280383229E0
2.062092276E1,7.912864685E0,-6.428266525E0,2.209828854E0
2.064101906E1,7.596661091E0,-6.136018276E0,2.492495537E0
2.066111542E1,7.141520500E0,-6.610322952E0,2.133173704E0
2.068121177E1,6.030018330E0,-6.974435806E0,1.361829519E0
2.070130812E1,5.426357746E0,-6.921735287E0,2.838642001E-1
2.072140448E1,6.111464500E0,-6.778006554E0,3.030280471E-1
2.074150031E1,8.722536087E0,-6.653441429E0,1.337874770E0
2.076159615E1,1.129528046E1,-6.624695778E0,2.617060423E0
2.078169198E1,1.281401348E1,-6.437848568E0,4.020810604E0
2.080178781E1,1.369075871E1,-5.877306461E0,4.950256348E0
2.082188370E1,1.520470142E1,-5.489239216E0,5.280832291E0
2.084198005E1,1.540113068E1,-4.746640682E0,4.854437351E0
2.086207641E1,1.490287113E1,-3.778867483E0,3.704607487E0
2.088217276E1,1.470165062E1,-3.534528494E0,1.960699201E0
2.090226911E1,1.539154816E1,-4.171725750E0,7.785305381E-2
2.092236526E1,1.514721012E1,-4.516674995E0,-3.006325662E-1
2.094246109E1,1.423213673E1,-3.457873344E0,5.377849340E-1
2.096255693E1,1.342246532E1,-2.245761156E0,2.061309338E0
2.098265276E1,1.336018276E1,-2.772766352E0,1.433693886E0
2.100274859E1,1.417943668E1,-5.379046917E0,-7.749373317E-1
2.102284458E1,1.499389935E1,-8.119474411E0,-1.685219169E0
2.104294094E1,1.452438545E1,-9.034546852E0,1.688812375E-1
2.106303729E1,1.337455559E1,-8.339859009E0,3.350076675E0
2.108313364E1,1.281401348E1,-8.148220062E0,5.347905636E0
2.110323000E1,1.228221703E1,-8.330276489E0,5.467679977E0
2.112332599E1,1.095033169E1,-9.001010895E0,4.231612682E0
2.114342182E1,9.000411987E0,-9.068083763E0,3.129692793E0
2.116351766E1,8.099711418E0,-8.981846809E0,2.066100359E0
2.118361349E1,8.032638550E0,-9.207021713E0,1.519931078E0
2.120370932E1,8.118875504E0,-9.432196617E0,1.107908845E0
2.122380526E1,8.094921112E0,-9.575925827E0,9.018976688E-1
2.124390161E1,7.270876408E0,-1.003106594E1,9.593891501E-1
2.126399797E1,6.111464500E0,-9.944828987E0,7.485870719E-1
2.128409432E1,4.626267910E0,-1.005023003E1,6.048583388E-1
2.130419068E1,1.799603224E0,-1.031852341E1,3.844743073E-1
2.132428510E1,-1.582812428E0,-1.054369926E1,9.450162649E-1
2.134437964E1,-1.779241681E0,-1.101800346E1,2.075682163E0
2.136447885E1,-1.022270441E0,-1.185642147E1,2.688924551E0
2.138457469E1,-4.761013687E-1,-1.159770966E1,1.701987505E0
2.140467052E1,5.347905755E-1,-1.217741489E1,-1.254032969E0
2.142476635E1,1.655874491E0,-1.221574306E1,-3.433918476E0
2.144486219E1,4.420256615E0,-1.163124561E1,-2.049331903E0
2.146495802E1,5.234719276E0,-1.140607071E1,6.479769349E-1
2.148505417E1,6.523487091E0,-1.037122440E1,1.280383229E0
2.150515052E1,7.184638977E0,-1.108028603E1,-3.389602005E-1
2.152524688E1,8.827937126E0,-1.206722355E1,-1.230078220E0
2.154534323E1,9.623235703E0,-1.260860157E1,-3.964517117E-1
2.156543938E1,1.010233212E1,-1.198098564E1,2.593105555E0
2.158553521E1,8.602762222E0,-9.269304276E0,9.450162649E-1
2.160563104E1,7.807463646E0,-6.984017849E0,-1.185761914E-1
2.162572688E1,7.414605141E0,-5.910843372E0,-8.707564473E-1
2.164582271E1,6.753452778E0,-5.206572533E0,-1.057603836E0
2.166591854E1,6.106673717E0,-5.187408924E0,-1.325897336E0
2.168601458E1,5.311374664E0,-5.450911522E0,-1.675637245E0
2.170611094E1,4.956843853E0,-5.656922817E0,-1.416925550E0
2.172620729E1,5.536549568E0,-5.968334675E0,-5.593442321E-1
2.174630364E1,6.327057838E0,-6.318074703E0,3.892652690E-1
2.176639984E1,7.246921539E0,-6.595950127E0,6.910955310E-1
2.178649568E1,8.866265297E0,-6.964853764E0,4.180110097E-1
2.180659151E1,1.093595886E1,-6.974435806E0,-5.150279030E-2
2.182668797E1,1.336497402E1,-6.615114212E0,-4.826889336E-1
2.184678380E1,1.600479126E1,-5.815024376E0,-1.664857566E-1
2.186687964E1,1.817509460E1,-5.134708405E0,2.311636806E-1
2.188697547E1,1.952135277E1,-5.000561237E0,-2.383501083E-1
2.190707130E1,1.935846138E1,-7.089418888E0,-1.656473398E0
2.192716714E1,1.709233856E1,-9.101620674E0,-1.642100573E0
2.194726297E1,1.322124481E1,-8.464423180E0,-6.455814838E-1
2.196735917E1,1.044248962E1,-6.840289116E0,2.599094212E-1
2.198745552E1,9.905902863E0,-6.030617237E0,6.192312241E-1
2.200755188E1,1.194205952E1,-8.502751350E0,-6.587565690E-2
2.202764823E1,1.381532383E1,-1.126713371E1,-7.414005995E-1
2.204774417E1,1.302960682E1,-1.164082813E1,-4.395703077E-1
2.206784000E1,1.125695229E1,-1.037601566E1,7.246322632E-1
2.208793583E1,1.053351784E1,-9.686117172E0,1.218100786E0
2.210803167E1,1.047123528E1,-9.729235649E0,1.476812482E0
2.212812750E1,1.030834293E1,-9.417823792E0,1.510349274E0
2.214822333E1,1.001609421E1,-9.896919250E0,8.779428601E-1
2.216831917E1,8.621926308E0,-9.753190994E0,-9.941235930E-2
2.218841542E1,7.323576927E0,-9.671744347E0,-9.426208138E-1
2.220851177E1,6.638469696E0,-9.662162781E0,-1.392970800E0
2.222860812E1,6.207283974E0,-9.781936646E0,-1.186959624E0
2.224870443E1,5.503013134E0,-9.614253044E0,-9.138750434E-1
2.226880026E1,4.985589504E0,-9.489687920E0,-6.791181564E-1
2.228889609E1,4.242991447E0,-9.274095535E0,-2.287681997E-1
2.230899193E1,3.093161583E0,-9.087247849E0,1.736721992E-1
2.232908776E1,2.144552231E0,-9.513643265E0,1.832541078E-1
2.234918359E1,8.845304251E-1,-1.005502129E1,-2.275704592E-2
2.236927943E1,-1.886439323E-1,-9.925664902E0,7.306209207E-2
2.238937526E1,-5.144290328E-1,-9.187857628E0,4.563386738E-1
2.240947146E1,5.635363460E-1,-8.857281685E0,6.348018348E-2
2.242956781E1,1.943331957E0,-9.513643265E0,-5.880900025E-1
2.244966417E1,2.460755348E0,-9.336378098E0,-3.916607499E-1
2.246976047E1,3.557884455E0,-8.895609856E0,-1.233671457E-1
2.248985630E1,5.258674145E0,-8.579406738E0,-2.048134208E-1
2.250995214E1,7.764344692E0,-8.790208817E0,-9.138750434E-1
2.253004797E1,9.920275688E0,-1.010293102E1,-1.483999014E0
2.255014380E1,1.038978958E1,-1.214387894E1,-1.230078220E0
2.257023964E1,9.810083389E0,-1.290084934E1,-3.197963834E-1
2.259033547E1,9.364524841E0,-1.152105427E1,-2.275704592E-2
2.261043130E1,1.000172138E1,-9.197440147E0,-6.168357134E-1
2.263052714E1,1.049519062E1,-7.031927109E0,-1.115095258E0
2.265062349E1,1.011670494E1,-5.953961849E0,-4.587341547E-1
2.267071984E1,9.086648941E0,-5.819815159E0,7.821237445E-1
2.269081620E1,7.970355988E0,-5.848560810E0,1.098326921E0
2.271091224E1,7.237339497E0,-5.862933636E0,6.767227054E-1
2.273100807E1,6.921136379E0,-5.896470547E0,3.365647495E-1
2.275110391E1,7.400232315E0,-6.068944931E0,4.611296058E-1
2.277119974E1,8.243440628E0,-6.404311657E0,4.994572699E-1
2.279129557E1,8.918965340E0,-6.533667564E0,1.557061076E-2
2.281139141E1,1.005442238E1,-6.778006554E0,-4.587341547E-1
2.283148250E1,1.208099747E1,-7.309803009E0,-8.420107365E-1
2.285158276E1,1.451480293E1,-7.649960518E0,-7.653554082E-1
2.287168005E1,1.661324310E1,-6.916944504E0,-4.731070101E-1
2.289177588E1,1.759538841E1,-5.829397202E0,-5.066437125E-1
2.291187172E1,1.745166016E1,-6.183928013E0,-1.436089396E0
2.293196755E1,1.667073441E1,-8.081147194E0,-2.308043480E0
2.295206339E1,1.402612591E1,-7.745779991E0,-1.891230345E0
2.297215922E1,1.106531429E1,-6.509713173E0,-1.570236206E0
2.299225505E1,9.541790009E0,-5.446120262E0,-1.354643106E0
2.301235088E1,1.015024185E1,-6.490549088E0,-1.867275476E0
2.303244672E1,1.181270313E1,-9.005801201E0,-2.365535021E0
2.305254271E1,1.254572010E1,-1.076408291E1,-1.345061183E0
2.307263906E1,1.188456821E1,-1.028498745E1,7.869147062E-1
2.309273542E1,1.111801434E1,-9.092039108E0,2.391885281E0
2.311283177E1,1.105094147E1,-8.550661087E0,2.942845345E0
2.313292760E1,1.065808296E1,-8.660852432E0,2.631433249E0
2.315302344E1,9.599281311E0,-8.780626297E0,1.869670987E0
2.317311927E1,8.540479660E0,-8.905191422E0,6.719317436E-1
2.319321510E1,7.639780045E0,-8.886027336E0,-4.395703077E-1
2.321331094E1,6.892390728E0,-8.938728333E0,-1.062394738E0
2.323340677E1,6.355803490E0,-9.034546852E0,-9.186660051E-1
2.325350260E1,5.996481895E0,-9.254931450E0,-5.737171173E-1
2.327359844E1,5.637159824E0,-9.355541229E0,-3.533330858E-1
2.329369427E1,5.100572586E0,-9.183067322E0,-8.983044326E-2
2.331379010E1,4.156754017E0,-9.087247849E0,3.269828260E-1
2.333388719E1,2.714676142E0,-9.350750923E0,2.982370853E-1
2.335398302E1,1.622337818E0,-1.032331467E1,4.132200480E-1
2.337407885E1,7.360107899E-1,-1.125755119E1,9.881349206E-1
2.339417469E1,1.563049704E-1,-1.143481636E1,1.994235873E0
2.341427052E1,7.360107899E-1,-1.095093060E1,2.300857067E0
2.343436635E1,2.082269669E0,-1.140128040E1,8.683609962E-1
2.345446219E1,2.134970188E0,-1.105633163E1,-1.281581074E-1
2.347455802E1,2.805704355E0,-1.096530342E1,-2.335591614E-1
2.349465385E1,3.845341921E0,-1.045267105E1,4.515477121E-1
2.351474969E1,5.895871639E0,-9.887337685E0,7.102593780E-1
2.353484552E1,8.832728386E0,-1.031852341E1,-4.539431930E-1
2.355494135E1,1.088325787E1,-1.107070446E1,-1.790620208E0
2.357503745E1,1.088325787E1,-1.122880554E1,-2.226597309E0
2.359513380E1,9.441180229E0,-1.005502129E1,-1.939139843E0
2.361523016E1,7.960773945E0,-8.349440575E0,-1.876857400E0
2.363532625E1,7.524796963E0,-6.936108112E0,-1.632518649E0
2.365542208E1,7.117565632E0,-6.035408020E0,-1.172586799E0
2.367551792E1,6.480368137E0,-5.551521301E0,-5.785080791E-1
2.369561375E1,5.661114693E0,-5.235318184E0,-4.108245671E-1
2.371570958E1,5.158064365E0,-5.407793045E0,-5.832990408E-1
2.373580542E1,5.138900280E0,-5.762323856E0,-7.030729651E-1
2.375590125E1,5.565295696E0,-6.126436234E0,-5.593442321E-1
2.377599708E1,6.408504009E0,-6.548040390E0,-5.497623086E-1
2.379609292E1,7.548751831E0,-7.146910191E0,-8.947112560E-1
2.381618875E1,8.866265297E0,-7.592469215E0,-1.014485121E0
2.383628323E1,1.021731472E1,-7.482277393E0,-1.330688357E0
2.385638073E1,1.204266930E1,-7.630796909E0,-1.709173918E0
2.387647734E1,1.407882595E1,-7.621214867E0,-1.330688357E0
2.389657318E1,1.610061073E1,-7.295429707E0,-7.222367525E-1
2.391666901E1,1.772474480E1,-7.372085094E0,-9.426208138E-1
2.393676484E1,1.843380547E1,-8.622525215E0,-1.062394738E0
2.395686068E1,1.645514107E1,-9.087247849E0,-9.761574864E-1
2.397695651E1,1.390156078E1,-9.149530411E0,-7.366096377E-1
2.399705234E1,1.133839893E1,-7.477486134E0,-2.287681997E-1
2.401714818E1,1.027001572E1,-6.591159344E0,-6.599543095E-1
2.403724401E1,1.101740456E1,-8.382977486E0,-1.498371840E0
2.405733984E1,1.110843277E1,-1.017479515E1,-1.876857400E0
2.407743568E1,9.580117226E0,-9.987947464E0,-1.095931411E0
2.409753151E1,8.406332970E0,-9.077666283E0,-1.808586270E-1
2.411762734E1,8.372796059E0,-8.957892418E0,3.844743073E-1
2.413772318E1,8.516525269E0,-8.933937073E0,7.677508593E-1
2.415781901E1,7.999101639E0,-8.756671906E0,5.761125684E-1
2.417791484E1,7.366695404E0,-8.406931877E0,-9.941235930E-2
2.419801094E1,6.782198429E0,-8.200921059E0,-8.084740043E-1
2.421810729E1,6.221656799E0,-8.109892845E0,-9.761574864E-1
2.423820365E1,5.685069561E0,-8.057191849E0,-9.522027373E-1
2.425829964E1,5.450312614E0,-8.267993927E0,-7.605644464E-1
2.427839547E1,5.148482323E0,-8.512332916E0,-2.383501083E-1
2.429849130E1,4.650222778E0,-8.948309898E0,2.551184595E-1
2.431858740E1,3.883669615E0,-9.173484802E0,6.910955310E-1
2.433868323E1,2.935060024E0,-9.001010895E0,1.007298708E0
2.435877906E1,2.364936113E0,-9.432196617E0,7.581689358E-1
2.437887490E1,1.766066551E0,-1.095572090E1,4.275929332E-1
2.439897073E1,9.563947916E-1,-1.152105427E1,9.114795923E-1
2.441906656E1,5.108358264E-1,-1.073533726E1,1.448066831E0
2.443916240E1,1.593592048E0,-1.132462502E1,9.785529971E-1
2.445925823E1,2.757794619E0,-1.212950516E1,7.725418210E-1
2.447935406E1,3.280009031E0,-1.187079430E1,1.400157213E0
2.449944990E1,4.252573490E0,-1.082636547E1,1.678032756E0
2.451954573E1,6.259984493E0,-9.743609428E0,1.251637578E0
2.453964156E1,9.144140244E0,-9.849010468E0,1.545083672E-1
2.455973740E1,1.132881737E1,-1.089822960E1,-7.078639269E-1
2.457983323E1,1.121383381E1,-1.157375431E1,-8.803383708E-1
2.459992906E1,8.880638123E0,-1.041434288E1,-1.038439989E0
2.462002490E1,7.366695404E0,-8.406931877E0,-1.781038284E0
2.464012073E1,7.400232315E0,-6.519294739E0,-1.958303690E0
2.466021656E1,7.543960571E0,-5.374256134E0,-1.551072359E0
2.468031240E1,6.973836899E0,-4.995770454E0,-1.345061183E0
2.470040823E1,5.728188038E0,-4.885578632E0,-1.565445185E0
2.472050406E1,5.110154629E0,-5.264064312E0,-2.149941921E0
2.474059990E1,5.138900280E0,-5.546730518E0,-2.308043480E0
2.476069573E1,5.680278301E0,-5.786278248E0,-1.766665459E0
2.478079156E1,6.791780472E0,-6.227046490E0,-1.148631930E0
2.480088740E1,7.946401119E0,-6.835497856E0,-1.081558585E0
2.482098453E1,9.249541283E0,-7.391249180E0,-1.249242067E0
2.484108036E1,1.066287422E1,-7.151700974E0,-1.512744665E0
2.486117620E1,1.230617237E1,-7.065464020E0,-1.694801092E0
2.488127203E1,1.396384335E1,-7.362503529E0,-1.503162742E0
2.490136786E1,1.509450912E1,-7.415204048E0,-1.364225030E0
2.492146370E1,1.517116451E1,-6.912153244E0,-1.483999014E0
2.494155953E1,1.528135681E1,-8.335067749E0,-2.078077555E0
2.496165536E1,1.404528999E1,-9.350750923E0,-1.416925550E0
2.498175120E1,1.119466972E1,-7.947000027E0,-7.318186760E-1
2.500184703E1,9.192049980E0,-6.356402397E0,-9.474117756E-1
2.502194286E1,9.115394592E0,-6.413893700E0,-1.431298375E0
2.504203870E1,1.127611637E1,-9.336378098E0,-2.619455814E0
2.506213453E1,1.260321140E1,-1.190912151E1,-2.432608366E0
2.508223036E1,1.199955082E1,-1.164561939E1,-4.443612695E-1
2.510232620E1,1.118029690E1,-9.815473557E0,1.352247596E0
2.512242203E1,1.094074917E1,-9.044129372E0,1.730733275E0
2.514251786E1,1.035146141E1,-8.953101158E0,1.055208325E0
2.516261370E1,9.091440201E0,-8.962682724E0,9.222592413E-2
2.518270953E1,7.960773945E0,-8.986638069E0,-8.611745238E-1
2.520280536E1,7.055283070E0,-8.919564247E0,-1.316315413E0
2.522290120E1,6.489950180E0,-8.977055550E0,-1.311524510E0
2.524299703E1,6.082718849E0,-9.135157585E0,-1.483999014E0
2.526309286E1,5.603623390E0,-9.307631493E0,-1.412134647E0
2.528318870E1,4.769996643E0,-9.283677101E0,-1.071976662E0
2.530328453E1,3.605794191E0,-9.139948845E0,-7.270277143E-1
2.532338000E1,2.206834555E0,-9.087247849E0,-4.299883842E-1
2.534347260E1,7.839203477E-1,-8.962682724E0,-5.629374459E-2
2.536357281E1,-3.659093380E-1,-9.384286880E0,3.365647495E-1
2.538366864E1,-1.343264580E0,-1.047183418E1,6.048583388E-1
2.540376448E1,-1.472620487E0,-1.102758503E1,8.731519580E-1
2.542386031E1,-2.263128281E0,-1.153542709E1,1.069581151E0
2.544395614E1,-1.831942201E0,-1.289605904E1,1.299547076E0
2.546405198E1,7.408017516E-1,-1.434292793E1,9.210615158E-1
2.548414781E1,3.912415266E0,-1.426627254E1,7.964966297E-1
2.550424365E1,7.438559532E0,-1.366261196E1,6.479769349E-1
2.552433948E1,9.426807404E0,-1.158812714E1,7.294232249E-1
2.554443531E1,1.131923485E1,-1.017000389E1,-1.329490542E-1
2.556453114E1,1.274694061E1,-1.008376694E1,-1.555863261E0
2.558462698E1,1.238282776E1,-1.033768749E1,-2.331998348E0
2.560472281E1,1.088804913E1,-1.016521358E1,-2.054122925E0
2.562481864E1,9.091440201E0,-9.681326866E0,-1.987049460E0
2.564491448E1,6.973836899E0,-8.339859009E0,-2.121196270E0
2.566501031E1,5.761724949E0,-7.003181458E0,-1.661264420E0
2.568510615E1,5.095781803E0,-6.193509579E0,-6.791181564E-1
2.570520198E1,4.789160252E0,-5.709623337E0,1.305535734E-1
2.572529781E1,4.602313042E0,-5.532357693E0,2.359546423E-1
2.574539364E1,4.602313042E0,-5.618595123E0,-4.347793460E-1
2.576548948E1,5.143691063E0,-6.107272625E0,-1.062394738E0
2.578558531E1,6.188119888E0,-6.778006554E0,-1.277987838E0
2.580568114E1,7.687689304E0,-7.683497429E0,-1.239660144E0
2.582577786E1,9.096230507E0,-7.779316425E0,-1.330688357E0
2.584587370E1,1.093116760E1,-7.170865059E0,-1.498371840E0
2.586596953E1,1.321645355E1,-6.715723991E0,-2.073286772E0
2.588606536E1,1.564067841E1,-6.274956226E0,-2.504472733E0
2.590616120E1,1.726002121E1,-5.738368988E0,-2.432608366E0
2.592625703E1,1.810802078E1,-5.944379807E0,-2.629037619E0
2.594635286E1,1.784930992E1,-8.023654938E0,-3.366845131E0
2.596644870E1,1.541550350E1,-9.518433571E0,-3.088969469E0
2.598654453E1,1.271819401E1,-9.868173599E0,-2.121196270E0
2.600664036E1,1.080181122E1,-8.641689301E0,-7.174458504E-1
2.602673620E1,1.035146141E1,-7.472695351E0,-7.066661865E-2
2.604683203E1,1.172646618E1,-9.350750923E0,-5.737171173E-1
2.606692786E1,1.235408211E1,-1.154021835E1,-9.953213334E-1
2.608702370E1,1.073952961E1,-1.165999222E1,-4.778979719E-1
2.610711953E1,9.307032585E0,-1.016521358E1,3.174009025E-1
2.612721536E1,9.465134621E0,-9.911292076E0,8.060785532E-1
2.614731120E1,9.810083389E0,-1.008376694E1,1.055208325E0
2.616740703E1,9.144140244E0,-9.973574638E0,1.103117824E0
2.618750286E1,8.161993980E0,-9.690908432E0,5.042482615E-1
2.620759870E1,7.596661091E0,-9.499270439E0,-2.143953294E-1
2.622769453E1,7.184638977E0,-9.417823792E0,-6.503724456E-1
2.624779036E1,6.892390728E0,-9.556761742E0,-7.749373317E-1
2.626788620E1,6.274357319E0,-9.671744347E0,-5.593442321E-1
2.628798203E1,5.344911575E0,-9.556761742E0,-4.635250866E-1
2.630807786E1,4.563985348E0,-9.269304276E0,-3.245873451E-1
2.632817458E1,3.854923964E0,-9.465733528E0,-1.317513175E-2
2.634827042E1,2.259535074E0,-9.724445343E0,4.755024910E-1
2.636836625E1,8.366208673E-1,-1.047183418E1,8.635700345E-1
2.638846208E1,-3.275817037E-1,-1.129108810E1,1.323501945E0
2.640855792E1,-5.815024376E-1,-1.121443272E1,2.243365765E0
2.642865375E1,4.820900559E-1,-1.014125824E1,2.243365765E0
2.644874958E1,2.115806341E0,-9.839427948E0,8.444061875E-1
2.646884542E1,2.724257946E0,-1.070659161E1,-9.809484482E-1
2.648894125E1,2.336190462E0,-1.057723522E1,-1.095931411E0
2.650903708E1,2.441591501E0,-1.026582336E1,-6.934910417E-1
2.652913292E1,3.687240362E0,-9.250140190E0,-1.808586270E-1
2.654922875E1,6.485159397E0,-8.833327293E0,-4.874798954E-1
2.656932458E1,9.220795631E0,-9.202230453E0,-1.282778740E0
2.658942042E1,1.014545059E1,-1.004064846E1,-1.632518649E0
2.660951625E1,9.565744400E0,-1.073054600E1,-1.268405914E0
2.662961208E1,8.756072998E0,-1.051016235E1,-1.651682496E0
2.664970792E1,8.425497055E0,-8.929145813E0,-2.327207327E0
2.666980375E1,8.310513496E0,-7.276266098E0,-2.312834501E0
2.668989958E1,8.003892899E0,-6.092899799E0,-1.440880299E0
2.670999542E1,7.088819981E0,-5.671295643E0,-2.766777575E-1
2.673009125E1,5.996481895E0,-5.704832077E0,2.551184595E-1
2.675018708E1,5.292211056E0,-6.155181885E0,1.209716648E-1
2.677028292E1,4.956843853E0,-6.476176262E0,-4.156155288E-1
2.679037875E1,5.388030052E0,-6.744469643E0,-6.359995604E-1
2.681047458E1,6.255193233E0,-7.084627628E0,-5.785080791E-1
2.683056990E1,7.285249233E0,-7.640378952E0,-8.563835621E-1
2.685066583E1,8.487779617E0,-8.248830795E0,-1.412134647E0
2.687076260E1,9.781337738E0,-8.430886269E0,-1.891230345E0
2.689085844E1,1.176000309E1,-8.612942696E0,-1.958303690E0
2.691095427E1,1.377699566E1,-8.311112404E0,-1.642100573E0
2.693105010E1,1.577003384E1,-7.549350739E0,-1.354643106E0
2.695114594E1,1.696777344E1,-6.519294739E0,-1.220496297E0
2.697124177E1,1.806490326E1,-7.894299507E0,-1.943930864E0
2.699133760E1,1.618205643E1,-8.200921059E0,-2.758393526E0
2.701143344E1,1.211453342E1,-6.538458824E0,-2.456563234E0
2.703152927E1,9.096230507E0,-4.799341202E0,-2.379907846E0
2.705162510E1,1.008795929E1,-6.734888077E0,-3.136879206E0
2.707172094E1,1.263674831E1,-1.032810593E1,-4.229217529E0
2.709181677E1,1.333143711E1,-1.213429642E1,-3.486618996E0
2.711191260E1,1.189894104E1,-1.069700909E1,-7.318186760E-1
2.713200844E1,1.142463589E1,-9.556761742E0,1.721151352E0
2.715210427E1,1.137193584E1,-9.350750923E0,2.827862501E0
2.717220010E1,1.047123528E1,-9.245349884E0,2.391885281E0
2.719229594E1,9.192049980E0,-9.360332489E0,1.313920021E0
2.721239177E1,7.783508778E0,-9.254931450E0,-3.102144599E-1
2.723248760E1,6.988209724E0,-9.183067322E0,-1.512744665E0
2.725258344E1,6.705543518E0,-9.072875023E0,-2.250552177E0
2.727267927E1,6.456413746E0,-9.154321671E0,-2.212224483E0
2.729277510E1,6.068346024E0,-9.398659706E0,-1.555863261E0
2.731287094E1,5.541340828E0,-9.456151962E0,-1.052812815E0
2.733296677E1,4.650222778E0,-9.317214012E0,-4.778979719E-1
2.735306260E1,3.754313707E0,-9.264513016E0,1.832541078E-1
2.737315844E1,2.968596697E0,-9.523224831E0,7.485870719E-1
2.739325427E1,1.809185147E0,-1.020833206E1,8.731519580E-1
2.741335010E1,5.060448647E-1,-1.070659161E1,1.194146037E0
2.743344594E1,2.664969862E-1,-1.079282856E1,1.678032756E0
2.745354177E1,7.743384242E-1,-1.056765366E1,1.754688025E0
2.747363760E1,1.540891528E0,-1.103237629E1,1.021671653E0
2.749373344E1,1.095332623E0,-1.143002605E1,9.545981884E-1
2.751382927E1,9.036942720E-1,-1.188037586E1,2.401467323E0
2.753392510E1,2.154134035E0,-1.226365280E1,3.397986412E0
2.755402094E1,3.974697828E0,-1.205764103E1,2.751207113E0
2.757411677E1,6.571396351E0,-1.226365280E1,6.479769349E-1
2.759421260E1,8.942920685E0,-1.301104164E1,-1.570236206E0
2.761430844E1,1.008316803E1,-1.276191235E1,-3.045850992E0
2.763440427E1,9.690309525E0,-1.169352818E1,-3.553692341E0
2.765449984E1,8.310513496E0,-1.005981255E1,-3.448291302E0
2.767459516E1,6.973836899E0,-8.440468788E0,-2.983568430E0
2.769469047E1,6.053973198E0,-7.343339443E0,-2.030168056E0
2.771478630E1,5.416775703E0,-6.931317329E0,-6.791181564E-1
2.773488214E1,4.952053070E0,-7.137328148E0,4.467567503E-1
2.775497797E1,4.559194565E0,-7.266684055E0,9.833439589E-1
2.777507380E1,4.568776608E0,-7.386457920E0,1.021671653E0
2.779516964E1,4.803533554E0,-7.597259998E0,1.194146037E0
2.781526547E1,5.364075184E0,-8.267993927E0,1.189355135E0
2.783535401E1,6.580978394E0,-8.929145813E0,6.719317436E-1
2.785545823E1,7.697271347E0,-9.115993500E0,-3.054235280E-1
2.787555406E1,8.406332970E0,-9.001010895E0,-1.033648968E0
2.789564964E1,9.843620300E0,-8.699180603E0,-1.282778740E0
2.791574495E1,1.292420578E1,-8.656062126E0,-1.709173918E0
2.793584026E1,1.600479126E1,-7.434367657E0,-2.231388330E0
2.795593604E1,1.729355812E1,-5.896470547E0,-2.763184547E0
2.797603188E1,1.739896011E1,-5.407793045E0,-3.376426935E0
2.799612771E1,1.755227089E1,-6.298910618E0,-4.272336006E0
2.801622354E1,1.697256470E1,-8.670434952E0,-4.521465778E0
2.803631938E1,1.486454296E1,-1.033768749E1,-2.916495085E0
2.805641521E1,1.108447838E1,-8.977055550E0,-4.156155288E-1
2.807651104E1,9.762173653E0,-7.764943600E0,4.611296058E-1
2.809660688E1,1.248343754E1,-1.063951778E1,1.832541078E-1
2.811670271E1,1.271340370E1,-1.223490620E1,2.263727188E-1
2.813679854E1,1.092637634E1,-1.120005989E1,6.958864927E-1
2.815689438E1,1.024127007E1,-1.005023003E1,1.141445518E0
2.817699021E1,1.071557426E1,-9.901710510E0,1.021671653E0
2.819708604E1,1.045686245E1,-9.834636688E0,8.827338219E-1
2.821718188E1,9.302242279E0,-9.566343307E0,6.383950114E-1
2.823727771E1,8.487779617E0,-9.331586838E0,3.413556814E-1
2.825737354E1,8.296140671E0,-9.465733528E0,2.072088867E-1
2.827746938E1,7.960773945E0,-9.609461784E0,-8.384174667E-3
2.829756521E1,7.352322578E0,-9.757982254E0,-5.629374459E-2
2.831766208E1,6.489950180E0,-9.762772560E0,-1.377400160E-1
2.833775536E1,5.948572159E0,-9.623834610E0,-4.671183228E-2
2.835785302E1,5.153273106E0,-9.666954041E0,-2.048134208E-1
2.837794906E1,3.529138803E0,-1.006939411E1,-4.491522312E-1
2.839804438E1,7.887113094E-1,-1.062993622E1,-2.143953294E-1
2.841813969E1,-1.463038564E0,-1.125755119E1,6.671407819E-1
2.843823526E1,-1.774450779E0,-1.179413891E1,1.979863048E0
2.845833109E1,-6.533667445E-1,-1.166957378E1,2.827862501E0
2.847842693E1,4.629262388E-1,-1.079282856E1,2.291275263E0
2.849852276E1,8.653666377E-1,-1.089822960E1,1.065987945E-1
2.851861859E1,2.154134035E0,-1.214387894E1,-1.790620208E0
2.853871443E1,3.548302650E0,-1.228281593E1,-1.690010071E0
2.855881026E1,4.884979725E0,-1.057723522E1,-7.270277143E-1
2.857890609E1,7.299622059E0,-9.508852005E0,-5.545532703E-1
2.859900193E1,9.891530037E0,-1.016042233E1,-1.071976662E0
2.861909776E1,1.033229828E1,-1.146835327E1,-1.712767184E-1
2.863919359E1,9.417224884E0,-1.221574306E1,1.021671653E0
2.865928943E1,8.626717567E0,-1.166957378E1,8.731519580E-1
2.867938526E1,8.746491432E0,-9.465733528E0,-5.976719260E-1
2.869948109E1,8.784818649E0,-6.998390675E0,-2.068495750E0
2.871957693E1,8.171576500E0,-5.460493565E0,-2.576337099E0
2.873967276E1,7.199011803E0,-5.082007885E0,-1.666055322E0
2.875976859E1,5.665905476E0,-5.474866390E0,-9.090840816E-1
2.877986443E1,4.884979725E0,-6.227046490E0,-9.617846608E-1
2.879996026E1,5.277838230E0,-6.605532169E0,-1.172586799E0
2.882005609E1,6.322266579E0,-6.869034767E0,-1.091140509E0
2.884015193E1,7.663734913E0,-7.295429707E0,-5.928809643E-1
2.886024776E1,8.938129425E0,-7.472695351E0,-5.497623086E-1
2.888034359E1,1.068203735E1,-7.463113308E0,-1.421716571E0
2.890043943E1,1.305835247E1,-7.089418888E0,-2.284088850E0
2.892053526E1,1.598562717E1,-6.500131130E0,-2.973986626E0
2.894063109E1,1.860628128E1,-5.834187984E0,-3.405172825E0
2.896072661E1,1.899434853E1,-5.168244839E0,-3.716584921E0
2.898082193E1,1.757622528E1,-6.294119835E0,-4.095070362E0
2.900091724E1,1.583231640E1,-9.087247849E0,-3.889059305E0
2.902101297E1,1.281880474E1,-9.657371521E0,-2.830257893E0
2.904110880E1,1.034667110E1,-8.512332916E0,-1.637309551E0
2.906120464E1,9.867574692E0,-7.079836845E0,-2.623049021E-1
2.908130047E1,1.080660248E1,-7.328966618E0,5.988696590E-3
2.910139630E1,1.228221703E1,-1.025145054E1,-8.276378512E-1
2.912149214E1,1.208099747E1,-1.233072567E1,-8.515926003E-1
2.914158797E1,1.043769932E1,-1.172706509E1,3.701014221E-1
2.916168380E1,9.671145439E0,-1.034727001E1,1.318710923E0
2.918177964E1,9.949021339E0,-9.877756119E0,1.395366192E0
2.920187547E1,9.326196671E0,-9.460942268E0,1.021671653E0
2.922197130E1,8.253022194E0,-9.053710938E0,5.665307045E-1
2.924206714E1,7.294830799E0,-8.675225258E0,-2.383501083E-1
2.926216297E1,6.925927162E0,-8.248830795E0,-8.611745238E-1
2.928225880E1,6.782198429E0,-8.186548233E0,-1.000112295E0
2.930235464E1,6.327057838E0,-8.320694923E0,-7.605644464E-1
2.932245047E1,5.574877262E0,-8.584197044E0,-6.312085986E-1
2.934254500E1,4.923307419E0,-8.579406738E0,-6.455814838E-1
2.936264188E1,4.357974529E0,-8.780626297E0,-3.533330858E-1
2.938273792E1,3.136280298E0,-9.005801201E0,-2.431410700E-1
2.940283323E1,1.842721820E0,-9.460942268E0,1.592993289E-1
2.942292854E1,8.941123486E-1,-1.022270489E1,6.863046288E-1
2.944302396E1,4.389714301E-1,-1.116652298E1,1.261219501E0
2.946311979E1,7.839203477E-1,-1.129108810E1,1.380993366E0
2.948321563E1,1.847512841E0,-1.053411674E1,1.045626402E0
2.950331146E1,2.753003597E0,-1.080241013E1,1.640902758E-1
2.952340729E1,2.666766405E0,-1.178455639E1,-7.941011190E-1
2.954350312E1,2.297862768E0,-1.173664665E1,-1.143841028E0
2.956359896E1,3.136280298E0,-1.116173267E1,-7.078639269E-1
2.958369479E1,4.712505341E0,-9.738818169E0,3.461466432E-1
2.960379063E1,7.462514400E0,-8.919564247E0,5.952764153E-1
2.962388646E1,9.359733582E0,-9.528016090E0,-8.503948897E-2
2.964398229E1,9.378897667E0,-1.073054600E1,-8.228468895E-1
2.966407813E1,8.181158066E0,-1.134378910E1,-6.312085986E-1
2.968417396E1,7.213384628E0,-1.089343834E1,1.018078402E-1
2.970426979E1,6.916345596E0,-9.580716133E0,1.016880631E0
2.972436562E1,7.658943653E0,-8.282366753E0,1.059999228E0
2.974446146E1,7.864954948E0,-7.257102013E0,2.167908102E-1
2.976455688E1,7.448141575E0,-6.706141949E0,-1.254032969E0
2.978465219E1,6.633678913E0,-6.548040390E0,-2.518845797E0
2.980474750E1,6.106673717E0,-6.763633728E0,-3.050642014E0
2.982484380E1,6.566605568E0,-7.199610710E0,-2.552382469E0
2.984493839E1,7.333158493E0,-7.683497429E0,-1.742710590E0
2.986503594E1,8.128458023E0,-7.970954895E0,-8.659654856E-1
2.988513125E1,9.536998749E0,-8.378186226E0,-3.916607499E-1
2.990522656E1,1.134319019E1,-8.018864632E0,-2.754800394E-2
2.992532188E1,1.332185459E1,-7.127746582E0,2.515252493E-2
2.994541771E1,1.580836201E1,-6.495339870E0,-2.275704592E-2
2.996551354E1,1.792117310E1,-6.073735714E0,-4.874798954E-1
2.998560938E1,1.820863152E1,-5.537148476E0,-1.603772879E0
3.000570521E1,1.690069962E1,-5.618595123E0,-3.237489223E0
3.002580104E1,1.582752514E1,-7.649960518E0,-3.721375942E0
3.004589688E1,1.355182076E1,-7.290638924E0,-3.036268950E0
3.006599271E1,1.194205952E1,-5.609013081E0,-1.632518649E0
3.008608854E1,1.174083900E1,-5.609013081E0,-4.108245671E-1
3.010618438E1,1.344641972E1,-8.617733955E0,2.994348109E-2
3.012628021E1,1.415548134E1,-1.193307590E1,2.036156692E-2
3.014637604E1,1.277568626E1,-1.199535847E1,7.294232249E-1
3.016647188E1,1.195164108E1,-1.073054600E1,1.951117277E0
3.018656771E1,1.232054520E1,-9.896919250E0,2.985964060E0
3.020666313E1,1.227742672E1,-9.518433571E0,3.129692793E0
3.022675844E1,1.150608253E1,-9.436987877E0,2.056518316E0
3.024685375E1,1.021252346E1,-9.681326866E0,8.587790728E-1
3.026694943E1,8.861474037E0,-9.738818169E0,-4.683160484E-1
3.028704526E1,8.061384201E0,-9.849010468E0,-1.512744665E0
3.030714109E1,7.500842094E0,-1.008855820E1,-1.848111749E0
3.032723693E1,7.088819981E0,-1.023707771E1,-1.646891475E0
3.034733276E1,6.830108166E0,-1.001669312E1,-1.551072359E0
3.036742859E1,6.557023525E0,-9.350750923E0,-1.254032969E0
3.038752443E1,5.589250088E0,-9.130366325E0,-7.366096377E-1
3.040762026E1,4.003443718E0,-8.751880646E0,-1.014485121E0
3.042771609E1,3.241681337E0,-8.727926254E0,-1.249242067E0
3.044781193E1,2.724257946E0,-8.761463165E0,-8.851293325E-1
3.046790776E1,2.436800480E0,-8.747090340E0,-5.162256360E-1
3.048800359E1,2.139761209E0,-8.363813400E0,-1.185761914E-1
3.050809911E1,2.043941975E0,-7.391249180E0,3.605195284E-1
3.052819443E1,2.580529213E0,-7.213983536E0,-4.299883842E-1
3.054828974E1,2.614065886E0,-7.520605087E0,-1.450462222E0
3.056838531E1,2.786540508E0,-7.506231785E0,-1.531908512E0
3.058848115E1,3.442901611E0,-7.563723564E0,-1.220496297E0
3.060857698E1,4.357974529E0,-6.892989635E0,-4.539431930E-1
3.062867281E1,6.336639404E0,-7.146910191E0,-3.629150093E-1
3.064876864E1,7.955983162E0,-8.344649315E0,-1.137852296E-1
3.066886448E1,8.621926308E0,-9.829846382E0,7.629598975E-1
3.068896031E1,9.374106407E0,-1.096530342E1,1.333083868E0
3.070905614E1,1.004963112E1,-1.058681774E1,1.165400267E0
3.072915198E1,1.069161987E1,-8.766253471E0,-1.796608977E-2
3.074924781E1,1.120425224E1,-6.610322952E0,-1.436089396E0
3.076934365E1,1.108926868E1,-5.096380711E0,-2.164314747E0
3.078943938E1,9.977766991E0,-4.741849899E0,-1.876857400E0
3.080953469E1,8.693790436E0,-5.062843800E0,-1.349852204E0
3.082963000E1,7.999101639E0,-5.273645878E0,-1.239660144E0
3.084972536E1,7.678107738E0,-5.292809963E0,-1.282778740E0
3.086982120E1,7.922446251E0,-5.517984867E0,-9.426208138E-1
3.088991703E1,8.693790436E0,-6.044990063E0,-3.389602005E-1
3.091001286E1,9.594490051E0,-6.399520874E0,-5.150279030E-2
3.093010870E1,1.062454605E1,-6.073735714E0,-1.377400160E-1
3.095020453E1,1.232054520E1,-5.791069508E0,-3.916607499E-1
3.097030036E1,1.501785374E1,-5.599431038E0,-3.054235280E-1
3.099039620E1,1.756664276E1,-4.971815586E0,-1.042033136E-1
3.101049203E1,1.881229210E1,-4.430437565E0,-1.616947949E-1
3.103058786E1,1.875480080E1,-4.550211430E0,-1.028858066E0
3.105068370E1,1.814634895E1,-6.624695778E0,-1.785829306E0
3.107077943E1,1.567900562E1,-6.298910618E0,-1.483999014E0
3.109087474E1,1.282359505E1,-4.943069935E0,-6.551634073E-1
3.111097005E1,1.113238811E1,-4.138189316E0,4.431635141E-2
3.113106542E1,1.148691845E1,-5.886888504E0,1.113897488E-1
3.115116125E1,1.293378735E1,-9.024965286E0,-2.527229786E-1
3.117125708E1,1.294816017E1,-1.046225262E1,2.742823064E-1
3.119135292E1,1.176958466E1,-9.106411934E0,2.286484241E0
3.121144875E1,1.160669231E1,-8.354231834E0,3.915409565E0
3.123154458E1,1.191810417E1,-8.076355934E0,4.178912163E0
3.125164042E1,1.123299789E1,-7.702661037E0,2.947636366E0
3.127173625E1,9.857993126E0,-7.520605087E0,1.443275809E0
3.129183208E1,8.813564301E0,-7.530186653E0,1.784631461E-1
3.131192792E1,8.142830849E0,-7.649960518E0,-7.270277143E-1
3.133202063E1,7.131938457E0,-7.884717464E0,-1.555863261E0
3.135211849E1,6.269566059E0,-7.956582069E0,-2.317625523E0
3.137221516E1,6.039600372E0,-8.057191849E0,-2.557173252E0
3.139231047E1,6.293520927E0,-8.315903664E0,-2.255342960E0
3.141240578E1,6.183329105E0,-8.914772987E0,-1.469626069E0
3.143250125E1,4.908934593E0,-8.996219635E0,-1.076767564E0
3.145259708E1,3.711195230E0,-9.197440147E0,-7.845191956E-1
3.147269292E1,2.657184601E0,-9.393869400E0,-6.455814838E-1
3.149278875E1,1.732529879E0,-9.719654083E0,-4.635250866E-1
3.151288458E1,8.366208673E-1,-9.676535606E0,-1.329490542E-1
3.153298042E1,1.467230618E-1,-9.173484802E0,-2.275704592E-2
3.155307625E1,5.922820568E-1,-9.422615051E0,-5.305985212E-1
3.157317208E1,1.195942640E0,-9.844219208E0,-9.330388904E-1
3.159326792E1,2.087060690E0,-1.032331467E1,-7.797282934E-1
3.161336375E1,3.380619049E0,-1.043829823E1,-1.521128863E-1
3.163345958E1,5.421566963E0,-9.671744347E0,7.773327827E-1
3.165355542E1,8.387168884E0,-9.609461784E0,7.198413014E-1
3.167365094E1,1.095033169E1,-1.042392445E1,-4.192087427E-2
3.169374625E1,1.210495186E1,-1.131504250E1,-3.437511623E-1
3.171384156E1,1.177916718E1,-1.136295223E1,-4.156155288E-1
3.173393714E1,1.054310036E1,-1.024665928E1,-6.791181564E-1
3.175403297E1,9.527417183E0,-8.387767792E0,-1.301942587E0
3.177412880E1,9.144140244E0,-6.792379379E0,-1.608563900E0
3.179422464E1,8.899801254E0,-5.628176689E0,-1.124677181E0
3.181432047E1,8.114084244E0,-5.273645878E0,-1.425309777E-1
3.183441630E1,7.266085148E0,-5.412583828E0,5.282030106E-1
3.185451214E1,6.806153297E0,-5.723996162E0,5.521578193E-1
3.187460797E1,6.897181511E0,-5.877306461E0,2.263727188E-1
3.189470380E1,7.788299561E0,-5.757532597E0,2.742823064E-1
3.191479964E1,9.604072571E0,-5.470075130E0,7.629598975E-1
3.193489547E1,1.095991325E1,-4.909533501E0,1.170191288E0
3.195499130E1,1.215765285E1,-4.219635487E0,1.630123138E0
3.197508693E1,1.388239670E1,-4.061533928E0,1.802597642E0
3.199518224E1,1.583710766E1,-4.147770882E0,1.424111962E0
3.201527755E1,1.691986465E1,-4.281918049E0,9.689710736E-1
3.203537307E1,1.645514107E1,-4.660403728E0,4.515477121E-1
3.205546891E1,1.592813587E1,-7.036718369E0,-2.958416045E-1
3.207556474E1,1.537238503E1,-8.847700119E0,5.473668575E-1
3.209566057E1,1.376262283E1,-7.947000027E0,2.320020914E0
3.211575641E1,1.199475956E1,-5.910843372E0,3.244675636E0
3.213585224E1,1.174083900E1,-6.121645451E0,2.090054989E0
3.215594807E1,1.349912071E1,-9.676535606E0,-2.143953294E-1
3.217604391E1,1.415548134E1,-1.136295223E1,-9.138750434E-1
3.219613974E1,1.274214935E1,-1.005023003E1,1.976269782E-1
3.221623557E1,1.168813896E1,-8.656062126E0,1.678032756E0
3.223633141E1,1.153003693E1,-8.651270866E0,1.884043932E0
3.225642724E1,1.122341537E1,-8.775835991E0,1.716360331E0
3.227652307E1,1.034187984E1,-8.895609856E0,1.347456694E0
3.229661838E1,9.345360756E0,-8.953101158E0,5.425758958E-1
3.231671370E1,8.530898094E0,-9.044129372E0,-4.539431930E-1
3.233681010E1,7.855372906E0,-9.240558624E0,-8.324288130E-1
3.235690542E1,7.428977966E0,-9.389078140E0,-9.569936991E-1
3.237700073E1,7.304412842E0,-9.949620247E0,-8.084740043E-1
3.239709625E1,6.461204529E0,-1.014604950E1,-5.641351938E-1
3.241719208E1,5.512595177E0,-1.018437672E1,-2.000224590E-1
3.243728792E1,4.247782230E0,-1.000232029E1,5.988696590E-3
3.245738375E1,2.906314373E0,-9.829846382E0,1.880450696E-1
3.247747958E1,1.047423005E0,-9.858592033E0,1.401354969E-1
3.249757542E1,-5.623385906E-1,-9.619044304E0,-3.233896196E-2
3.251767125E1,-1.233072639E0,-9.551970482E0,-8.024853468E-2
3.253776708E1,-6.916944385E-1,-9.671744347E0,3.126099408E-1
3.255786292E1,9.611857533E-1,-1.059160805E1,6.144402623E-1
3.257795875E1,2.245162249E0,-1.078803730E1,9.306434393E-1
3.259805458E1,3.131489277E0,-1.086469269E1,8.923157454E-1
3.261815042E1,3.960325003E0,-1.030415058E1,1.031253457E0
3.263824625E1,5.062244892E0,-9.590298653E0,7.629598975E-1
3.265834208E1,7.285249233E0,-9.604671478E0,-4.347793460E-1
3.267843740E1,8.995620728E0,-1.030415058E1,-1.852902651E0
3.269853271E1,9.316615105E0,-1.062035370E1,-2.250552177E0
3.271862802E1,8.885428429E0,-1.028019619E1,-1.852902651E0
3.273872385E1,8.813564301E0,-9.748399734E0,-1.158213854E0
3.275881969E1,8.914174080E0,-8.991428375E0,-6.887000799E-1
3.277891552E1,8.971666336E0,-8.382977486E0,-8.503948897E-2
3.279901135E1,8.559643745E0,-8.359022141E0,4.994572699E-1
3.281910719E1,8.018265724E0,-8.684807777E0,1.012089729E0
3.283920302E1,8.037429810E0,-8.962682724E0,1.275592327E0
3.285929885E1,8.157203674E0,-9.068083763E0,1.127072692E0
3.287939469E1,8.267395020E0,-9.168694496E0,1.016880631E0
3.289949052E1,8.794400215E0,-9.274095535E0,1.036044478E0
3.291958635E1,9.599281311E0,-9.130366325E0,8.635700345E-1
3.293968219E1,1.084013939E1,-8.833327293E0,1.257626265E-1
3.295977802E1,1.160190105E1,-7.947000027E0,-8.468016386E-1
3.297987385E1,1.244031906E1,-7.482277393E0,-1.483999014E0
3.299996969E1,1.410278130E1,-7.285848141E0,-1.225287318E0
3.302006510E1,1.610061073E1,-6.859452724E0,-7.270277143E-1
3.304016042E1,1.747082329E1,-6.107272625E0,-2.048134208E-1
3.306025573E1,1.815593147E1,-6.155181885E0,-5.629374459E-2
3.308035146E1,1.728876686E1,-6.011453629E0,9.222592413E-2
3.310044729E1,1.515679169E1,-5.034098148E0,2.647003829E-1
3.312054313E1,1.343683815E1,-3.975296736E0,4.275929332E-1
3.314063896E1,1.305835247E1,-4.392109871E0,2.215817720E-1
3.316073479E1,1.452917576E1,-7.099000454E0,-6.887000799E-1
3.318083062E1,1.502264500E1,-9.048920631E0,-1.163004875E0
3.320092646E1,1.386802387E1,-9.341168404E0,6.827113777E-2
3.322102229E1,1.248343754E1,-9.020174026E0,2.008608818E0
3.324111812E1,1.163064766E1,-8.665643692E0,3.153647423E0
3.326121396E1,1.109405994E1,-8.493168831E0,3.254257679E0
3.328130979E1,1.072515583E1,-8.761463165E0,2.803907633E0
3.330140562E1,1.024606037E1,-9.288468361E0,2.137964487E0
3.332150104E1,9.728637695E0,-9.949620247E0,1.505558252E0
3.334159516E1,9.345360756E0,-1.036164284E1,1.069581151E0
3.336169307E1,9.244750977E0,-1.075450134E1,7.006774545E-1
3.338178838E1,9.019575119E0,-1.121922398E1,4.180110097E-1
3.340188370E1,8.674626350E0,-1.161687279E1,5.521578193E-1
3.342197906E1,8.161993980E0,-1.169352818E1,1.203727961E0
3.344207490E1,7.448141575E0,-1.150668144E1,1.553467870E0
3.346217073E1,6.595351219E0,-1.097488499E1,1.658868909E0
3.348226656E1,5.814425468E0,-1.043829823E1,1.860089064E0
3.350236240E1,5.033499241E0,-1.009813976E1,1.955908179E0
3.352245823E1,4.463375568E0,-9.513643265E0,1.836134315E0
3.354255406E1,4.511284828E0,-9.317214012E0,1.730733275E0
3.356264990E1,5.143691063E0,-9.499270439E0,1.194146037E0
3.358274573E1,4.995171547E0,-9.475315094E0,9.641801119E-1
3.360284156E1,3.859714746E0,-9.168694496E0,1.141445518E0
3.362293740E1,2.417636633E0,-9.001010895E0,1.970281124E0
3.364303323E1,1.377999067E0,-8.502751350E0,3.709398508E0
3.366312906E1,2.240371227E0,-8.397350311E0,4.131002903E0
3.368322490E1,4.741250992E0,-9.417823792E0,2.789534807E0
3.370332073E1,4.813115120E0,-1.021312237E1,7.581689358E-1
3.372341620E1,4.381928921E0,-9.896919250E0,-1.948721766E0
3.374351151E1,4.377138138E0,-8.445260048E0,-5.599431038E0
3.376360682E1,4.607104301E0,-6.102481365E0,-8.464423180E0
3.378370250E1,5.134109497E0,-4.281918049E0,-8.325485229E0
3.380379833E1,5.455103397E0,-4.013624191E0,-5.407793045E0
3.382389516E1,4.995171547E0,-5.082007885E0,-2.767975569E0
3.384399047E1,4.707714081E0,-6.883407593E0,-1.507953763E0
3.386408578E1,4.544821739E0,-8.325485229E0,-1.263614893E0
3.388418114E1,5.833589077E0,-9.149530411E0,-1.809784055E0
3.390427698E1,8.578807831E0,-9.590298653E0,-3.007523298E0
3.392437281E1,1.088325787E1,-9.465733528E0,-3.558483362E0
3.394446864E1,1.208099747E1,-8.248830795E0,-3.342890263E0
3.396456448E1,1.269423962E1,-6.878616810E0,-3.534528494E0
3.398466031E1,1.298169708E1,-6.030617237E0,-4.186098576E0
3.400475614E1,1.275652218E1,-5.781487465E0,-4.698730946E0
3.402485198E1,1.223909855E1,-6.265374184E0,-4.775386333E0
3.404494781E1,1.221035290E1,-7.137328148E0,-3.980087519E0
3.406504364E1,1.235887241E1,-7.798480511E0,-2.590710163E0
3.408513948E1,1.183186722E1,-7.664333820E0,-1.618145704E0
3.410523531E1,1.137193584E1,-8.349440575E0,-1.354643106E0
3.412533115E1,1.088325787E1,-9.829846382E0,-8.851293325E-1
3.414542688E1,8.942920685E0,-8.962682724E0,-6.934910417E-1
3.416552219E1,7.903282642E0,-8.291949272E0,-1.483999014E0
3.418561750E1,6.681588650E0,-6.274956226E0,-1.733128667E0
3.420571286E1,6.633678913E0,-4.804131985E0,-2.125987291E0
3.422580870E1,8.358423233E0,-5.412583828E0,-3.141670227E0
3.424590453E1,1.018856907E1,-7.223565578E0,-2.815885067E0
3.426600036E1,1.026522446E1,-8.224875450E0,-1.095931411E0
3.428609620E1,1.005921364E1,-8.368604660E0,2.886551619E-1
3.430619203E1,9.891530037E0,-8.004491806E0,1.649286985E0
3.432628786E1,1.012149525E1,-7.175655842E0,2.655387878E0
3.434638370E1,1.007358646E1,-6.495339870E0,2.660178900E0
3.436647953E1,9.196841240E0,-6.437848568E0,1.495976329E0
3.438657536E1,8.257813454E0,-6.686978340E0,4.036381245E-1
3.440667120E1,7.912864685E0,-7.324175835E0,4.994572699E-1
3.442676703E1,7.615825176E0,-7.879926682E0,4.419657886E-1
3.444686286E1,7.634988785E0,-8.349440575E0,3.796833456E-1
3.446695823E1,7.572706699E0,-8.871654510E0,1.065987945E-1
3.448705354E1,7.175056934E0,-9.384286880E0,-2.275704592E-2
3.450714885E1,6.236029625E0,-9.551970482E0,2.982370853E-1
3.452724458E1,4.923307419E0,-9.542388916E0,8.731519580E-1
3.454734042E1,3.696822166E0,-9.504060745E0,1.242055655E0
3.456743625E1,2.997342587E0,-9.417823792E0,1.309129000E0
3.458753208E1,2.906314373E0,-9.278885841E0,1.251637578E0
3.460762792E1,3.236890316E0,-9.029756546E0,1.246846557E0
3.462772375E1,4.104053497E0,-8.919564247E0,1.222891808E0
3.464781958E1,5.546131611E0,-9.556761742E0,3.557285666E-1
3.466791542E1,6.403713226E0,-1.009813976E1,-7.318186760E-1
3.468801125E1,5.646741867E0,-9.518433571E0,-1.105513334E0
3.470810708E1,4.880188465E0,-8.699180603E0,-1.115095258E0
3.472820292E1,5.158064365E0,-7.563723564E0,2.934461236E-1
3.474829833E1,5.938990116E0,-6.567204475E0,1.989444971E0
3.476839364E1,6.700752258E0,-6.706141949E0,1.481603503E0
3.478848896E1,6.973836899E0,-8.205711365E0,-6.359995604E-1
3.480858458E1,5.627577782E0,-9.465733528E0,-2.561964273E0
3.482868146E1,4.434629440E0,-8.545869827E0,-4.099861622E0
3.484877677E1,5.297001839E0,-6.653441429E0,-5.848560810E0
3.486887208E1,6.691170216E0,-4.880787373E0,-6.581577301E0
3.488896740E1,7.218175888E0,-4.138189316E0,-6.217464447E0
3.490906318E1,6.839690208E0,-4.334618568E0,-5.388628960E0
3.492915901E1,6.528277874E0,-4.617284775E0,-4.722685814E0
3.494925484E1,6.542650700E0,-4.636448860E0,-3.908223152E0
3.496935068E1,7.055283070E0,-4.808923244E0,-2.806303024E0
3.498944651E1,7.955983162E0,-6.102481365E0,-1.642100573E0
3.500954234E1,8.085338593E0,-7.328966618E0,-2.718868256E-1
3.502963818E1,7.587079525E0,-7.103791714E0,8.587790728E-1
3.504973401E1,7.117565632E0,-6.112063408E0,5.809035301E-1
3.506982984E1,7.539169788E0,-5.848560810E0,-4.060336053E-1
3.508992568E1,7.692480564E0,-5.886888504E0,-1.512744665E0
3.511002099E1,8.310513496E0,-6.241419315E0,-2.686529160E0
3.513011630E1,9.206422806E0,-6.734888077E0,-3.572856188E0
3.515021161E1,1.041853523E1,-7.463113308E0,-4.257963181E0
3.517030729E1,1.115155125E1,-8.574615479E0,-4.665194511E0
3.519040312E1,9.608862877E0,-8.660852432E0,-3.237489223E0
3.521049896E1,8.564435005E0,-9.834636688E0,-1.263614893E0
3.523059479E1,7.520006180E0,-1.074012852E1,6.192312241E-1
3.525069063E1,5.838379860E0,-9.389078140E0,2.281693220E0
3.527078646E1,6.442040443E0,-7.870344639E0,2.928472519E0
3.529088229E1,8.219485283E0,-5.762323856E0,1.467230558E0
3.531097813E1,1.021731472E1,-5.321555614E0,-1.185761914E-1
3.533107391E1,1.180791283E1,-6.730096817E0,-8.947112560E-1
3.535116922E1,1.242594624E1,-8.440468788E0,-6.216266751E-1
3.537126453E1,1.212411594E1,-8.306322098E0,3.269828260E-1
3.539135984E1,1.194205952E1,-6.801961422E0,1.155818343E0
3.541145562E1,1.232054520E1,-6.145600319E0,1.845716238E0
3.543155146E1,1.197559643E1,-6.126436234E0,2.090054989E0
3.545164729E1,1.079222965E1,-6.514503956E0,1.907998681E0
3.547174312E1,1.006879520E1,-7.257102013E0,1.007298708E0
3.549183896E1,9.465134621E0,-8.215293884E0,-4.539431930E-1
3.551193479E1,8.521315575E0,-9.024965286E0,-2.015795231E0
3.553203063E1,7.390650272E0,-9.398659706E0,-2.950031757E0
3.555212646E1,6.648051739E0,-9.537597656E0,-2.542800426E0
3.557222229E1,6.173747063E0,-9.662162781E0,-1.896021247E0
3.559231760E1,5.407194138E0,-9.590298653E0,-1.718755841E0
3.561241292E1,4.056144238E0,-9.230976105E0,-1.416925550E0
3.563250823E1,3.126698256E0,-8.550661087E0,-7.318186760E-1
3.565260385E1,2.566156387E0,-8.100310326E0,-2.670958638E-1
3.567269969E1,1.952913880E0,-7.649960518E0,4.431635141E-2
3.569279552E1,1.636710763E0,-7.673915386E0,1.197739271E-3
3.571289135E1,1.454654336E0,-7.990118504E0,-1.952314973E-1
3.573298719E1,1.617546916E0,-8.320694923E0,-3.581240475E-1
3.575308302E1,2.101433516E0,-8.114683151E0,-6.168357134E-1
3.577317885E1,3.313545704E0,-8.244039536E0,-1.622936726E0
3.579327469E1,3.921997309E0,-8.938728333E0,-2.791930199E0
3.581337031E1,4.362765312E0,-9.743609428E0,-2.528427601E0
3.583346068E1,4.947262287E0,-1.089343834E1,-1.551072359E0
3.585356094E1,6.077928066E0,-1.094134808E1,-2.275704592E-2
3.587365719E1,8.593180656E0,-9.757982254E0,8.827338219E-1
3.589375250E1,1.113238811E1,-9.082456589E0,1.557061076E-2
3.591384781E1,1.199475956E1,-9.187857628E0,-1.143841028E0
3.593394328E1,1.129528046E1,-9.470524788E0,-8.084740043E-1
3.595403911E1,1.006879520E1,-9.039338112E0,-7.653554082E-1
3.597413495E1,9.177677155E0,-7.669124603E0,-1.828947902E0
3.599423078E1,8.502152443E0,-5.800651073E0,-2.830257893E0
3.601432661E1,8.047011375E0,-5.010143280E0,-3.002732277E0
3.603442245E1,6.791780472E0,-4.928697109E0,-2.264925003E0
3.605451828E1,5.349702358E0,-5.072425842E0,-1.627727628E0
3.607461411E1,4.760414600E0,-5.326346397E0,-1.119886160E0
3.609470964E1,4.971216679E0,-5.455702305E0,-2.479320318E-1
3.611480495E1,5.742560863E0,-5.891679287E0,8.923157454E-1
3.613490026E1,6.547441959E0,-6.600740910E0,1.682823658E0
3.615499557E1,7.136729240E0,-6.979226589E0,1.831343293E0
3.617509141E1,7.663734913E0,-6.878616810E0,9.833439589E-1
3.619518724E1,8.540479660E0,-6.461803436E0,-5.305985212E-1
3.621528307E1,9.834038734E0,-6.064154148E0,-1.598981977E0
3.623537891E1,1.164022923E1,-6.126436234E0,-2.672156334E0
3.625547474E1,1.336976433E1,-5.934798241E0,-3.453082323E0
3.627557057E1,1.378178692E1,-6.121645451E0,-3.778867483E0
3.629566641E1,1.288587761E1,-6.806752205E0,-3.175206900E0
3.631576193E1,1.191331387E1,-7.621214867E0,-2.054122925E0
3.633585594E1,1.168334770E1,-8.771044731E0,-6.312085986E-1
3.635595307E1,1.077785683E1,-8.143429756E0,1.107908845E0
3.637604891E1,1.013586903E1,-6.816334248E0,1.735524178E0
3.639614422E1,9.992139816E0,-5.537148476E0,7.102593780E-1
3.641623953E1,9.925066948E0,-4.847250938E0,-7.797282934E-1
3.643633484E1,1.035625267E1,-5.728786945E0,-2.796721220E0
3.645643062E1,1.073473835E1,-7.707452297E0,-3.764494419E0
3.647652646E1,1.090242195E1,-9.322004318E0,-1.943930864E0
3.649662229E1,1.099824047E1,-9.230976105E0,2.119998485E-1
3.651671813E1,1.139109898E1,-8.545869827E0,1.869670987E0
3.653681396E1,1.160669231E1,-8.406931877E0,2.358348608E0
3.655690979E1,1.141026306E1,-8.718343735E0,1.903207660E0
3.657700563E1,1.068682861E1,-9.168694496E0,6.000673771E-1
3.659710099E1,1.002567673E1,-9.566343307E0,-2.527229786E-1
3.661719630E1,9.508253098E0,-9.705281258E0,-8.468016386E-1
3.663729161E1,9.877157211E0,-1.027540493E1,-1.163004875E0
3.665738698E1,9.484298706E0,-1.092218399E1,-1.186959624E0
3.667748281E1,8.238649368E0,-1.107070446E1,-8.420107365E-1
3.669757864E1,7.141520500E0,-1.093655682E1,-2.814687192E-1
3.671767448E1,5.977317810E0,-1.039517879E1,1.161807105E-1
3.673777031E1,4.913725376E0,-9.523224831E0,5.617397428E-1
3.675786614E1,4.041770935E0,-8.636898041E0,1.122281671E0
3.677796198E1,2.997342587E0,-7.621214867E0,1.285174251E0
3.679805766E1,2.019987345E0,-6.931317329E0,1.141445518E0
3.681815297E1,1.037841082E0,-6.696560383E0,9.977167845E-1
3.683824828E1,5.090392008E-2,-6.730096817E0,6.096493006E-1
3.685834359E1,-7.683497667E-1,-6.715723991E0,-1.281581074E-1
3.687843911E1,-7.348130345E-1,-6.528876781E0,-9.090840816E-1
3.689853495E1,2.904517651E-1,-6.634277821E0,-1.426507473E0
3.691863078E1,2.235580444E0,-7.463113308E0,-2.298461676E0
3.693872661E1,3.174607992E0,-8.354231834E0,-2.648201466E0
3.695882245E1,3.524347782E0,-8.977055550E0,-2.121196270E0
3.697891828E1,4.813115120E0,-1.001669312E1,-1.891230345E0
3.699901411E1,6.940299988E0,-1.083115578E1,-1.024067044E0
3.701910943E1,1.049039936E1,-1.020833206E1,1.122281671E0
3.703920474E1,1.703963852E1,-8.176965714E0,2.411049128E0
3.705930005E1,2.304270744E1,-6.533667564E0,3.940562308E-1
3.707939536E1,2.324392700E1,-5.024516106E0,-2.399071693E0
3.709949120E1,1.819425774E1,-4.866414547E0,-3.903432369E0
3.711958703E1,1.333622837E1,-4.852041721E0,-4.607703209E0
3.713968286E1,1.042811680E1,-4.090279579E0,-4.516674995E0
3.715977870E1,9.067484856E0,-3.874686480E0,-3.045850992E0
3.717987453E1,7.625407219E0,-3.572856188E0,-1.316315413E0
3.719997036E1,6.461204529E0,-3.443500519E0,-2.275704592E-2
3.722006578E1,5.517385960E0,-3.366845131E0,6.431859732E-1
3.724016109E1,4.913725376E0,-3.448291302E0,1.074372172E0
3.726025641E1,4.813115120E0,-3.400381804E0,1.222891808E0
3.728035172E1,4.932888985E0,-3.568065405E0,1.218100786E0
3.730044740E1,5.364075184E0,-3.639929533E0,1.122281671E0
3.732054323E1,6.049182415E0,-4.080697536E0,5.952764153E-1
3.734063906E1,6.442040443E0,-4.703522205E0,-2.383501083E-1
3.736073490E1,6.993000507E0,-5.264064312E0,-7.126548886E-1
3.738083073E1,7.668525696E0,-5.383838177E0,-1.206123471E0
3.740092656E1,8.425497055E0,-5.704832077E0,-2.020586252E0
3.742102203E1,9.465134621E0,-6.658232689E0,-2.557173252E0
3.744111734E1,1.009274960E1,-7.769734859E0,-2.379907846E0
3.746121266E1,1.029397011E1,-8.450050354E0,-1.675637245E0
3.748130797E1,1.057663631E1,-8.397350311E0,-1.091140509E0
3.750140354E1,1.158752823E1,-9.120784760E0,-1.043230891E0
3.752149938E1,1.159711075E1,-9.216603279E0,-1.281581074E-1
3.754159521E1,1.077306557E1,-8.521914482E0,6.958864927E-1
3.756169104E1,9.829247475E0,-7.242729187E0,6.048583388E-1
3.758178688E1,9.450761795E0,-5.551521301E0,4.515477121E-1
3.760188271E1,1.016940498E1,-5.398211002E0,-3.629150093E-1
3.762197813E1,1.108447838E1,-6.773215771E0,-1.757083535E0
3.764207344E1,1.079702091E1,-7.970954895E0,-2.236179113E0
3.766216875E1,9.958602905E0,-8.033237457E0,-8.372197747E-1
3.768226406E1,9.292659760E0,-6.883407593E0,6.144402623E-1
3.770235964E1,9.311823845E0,-6.203091621E0,9.258524776E-1
3.772245547E1,9.148931503E0,-6.025826454E0,8.348242640E-1
3.774255130E1,8.602762222E0,-5.958753109E0,5.521578193E-1
3.776264714E1,8.051802635E0,-5.853351593E0,1.161807105E-1
3.778274297E1,7.740389824E0,-5.743159771E0,-1.856495887E-1
3.780283880E1,7.649362087E0,-5.848560810E0,-5.449713469E-1
3.782293417E1,7.424186707E0,-6.078526974E0,-7.701463699E-1
3.784302948E1,7.136729240E0,-6.643859863E0,-5.737171173E-1
3.786312479E1,6.619306087E0,-7.051091194E0,-2.335591614E-1
3.788322010E1,5.948572159E0,-7.367294312E0,9.701687843E-2
3.790331568E1,5.292211056E0,-7.300220966E0,4.180110097E-1
3.792341151E1,4.822697163E0,-7.089418888E0,7.102593780E-1
3.794350734E1,4.678968430E0,-7.007972240E0,7.964966297E-1
3.796360318E1,4.884979725E0,-7.415204048E0,3.653104901E-1
3.798369901E1,5.340120316E0,-8.344649315E0,1.832541078E-1
3.800379479E1,5.325747490E0,-9.235767365E0,2.838642001E-1
3.802389010E1,5.282629013E0,-9.307631493E0,6.527678967E-1
3.804398542E1,5.905453682E0,-8.842908859E0,6.575588584E-1
3.806408073E1,6.619306087E0,-8.938728333E0,-2.575139403E-1
3.808417604E1,6.456413746E0,-9.566343307E0,-8.803383708E-1
3.810427167E1,5.277838230E0,-9.197440147E0,-3.341692686E-1
3.812436750E1,4.952053070E0,-8.459632874E0,-4.192087427E-2
3.814446333E1,6.015645504E0,-7.860763073E0,-4.539431930E-1
3.816455917E1,6.715125084E0,-6.792379379E0,-7.126548886E-1
3.818465500E1,7.069655895E0,-5.733577728E0,-8.420107365E-1
3.820475062E1,7.342740536E0,-5.240109444E0,-1.091140509E0
3.822484594E1,8.008683205E0,-5.776696682E0,-1.225287318E0
3.824494125E1,8.406332970E0,-6.960062981E0,-1.028858066E0
3.826503656E1,8.286559105E0,-7.740988731E0,-6.743271947E-1
3.828513188E1,7.443350792E0,-7.463113308E0,-8.036830425E-1
3.830522755E1,6.715125084E0,-6.509713173E0,-1.004903197E0
3.832532052E1,6.710334301E0,-5.738368988E0,-8.611745238E-1
3.834541385E1,6.571396351E0,-5.244900227E0,-6.839091182E-1
3.836551531E1,6.240820408E0,-5.105962276E0,-5.210165977E-1
3.838561063E1,5.891080379E0,-5.283227921E0,-5.353894830E-1
3.840570594E1,5.627577782E0,-5.599431038E0,-5.162256360E-1
3.842580125E1,5.479058266E0,-5.800651073E0,-3.341692686E-1
3.844589656E1,5.943780899E0,-5.949171066E0,-1.808586270E-1
3.846599219E1,6.609724045E0,-6.236628532E0,-4.192087427E-2
3.848608802E1,7.136729240E0,-6.591159344E0,-2.275704592E-2
3.850618385E1,7.864954948E0,-6.658232689E0,-5.629374459E-2
3.852627969E1,8.315304756E0,-6.437848568E0,-1.329490542E-1
3.854637552E1,8.990829468E0,-6.217464447E0,-3.868697882E-1
3.856647104E1,9.838829041E0,-6.322865486E0,-1.014485121E0
3.858656635E1,1.085451221E1,-7.166074276E0,-1.881648421E0
3.860666167E1,1.163543797E1,-7.769734859E0,-2.116405249E0
3.862675698E1,1.220077133E1,-7.429576874E0,-1.790620208E0
3.864685229E1,1.287150478E1,-7.496650219E0,-1.455253243E0
3.866694797E1,1.357577610E1,-9.192648888E0,-1.378597856E0
3.868704380E1,1.238282776E1,-9.192648888E0,-5.305985212E-1
3.870713964E1,1.049039936E1,-7.740988731E0,-4.671183228E-2
3.872723547E1,9.637609482E0,-6.514503956E0,2.515252493E-2
3.874733130E1,9.450761795E0,-5.403001785E0,-3.197963834E-1
3.876742667E1,1.036104393E1,-6.131227493E0,-2.063704729E0
3.878752198E1,1.142463589E1,-7.731407166E0,-3.582438231E0
3.880761729E1,1.189414978E1,-9.130366325E0,-3.409963608E0
3.882771328E1,1.151566410E1,-9.254931450E0,-1.737919688E0
3.884780807E1,1.111322403E1,-8.842908859E0,-2.575139403E-1
3.886790365E1,1.065329170E1,-8.493168831E0,1.107908845E0
3.888799948E1,1.008795929E1,-8.416513443E0,1.807388544E0
3.890809531E1,8.947710991E0,-8.114683151E0,1.026462555E0
3.892819114E1,7.769135952E0,-7.745779991E0,2.994348109E-2
3.894828698E1,7.218175888E0,-7.611633301E0,-2.383501083E-1
3.896838234E1,6.839690208E0,-7.798480511E0,-3.593217814E-3
3.898847766E1,6.226447582E0,-8.133847237E0,1.065987945E-1
3.900857297E1,5.455103397E0,-8.138638496E0,1.077965368E-2
3.902866828E1,4.985589504E0,-8.133847237E0,3.365647495E-1
3.904876359E1,4.516076088E0,-7.903881550E0,8.156604171E-1
3.906885927E1,3.979488611E0,-7.798480511E0,9.306434393E-1
3.908895510E1,3.457274437E0,-8.028446198E0,1.088744998E0
3.910905094E1,2.786540508E0,-8.215293884E0,1.606168389E0
3.912914677E1,2.513455868E0,-8.598569870E0,1.740315199E0
3.914924260E1,2.887150526E0,-9.403450966E0,1.567840695E0
3.916933792E1,3.385410070E0,-9.920874596E0,1.582213521E0
3.918943323E1,3.342291355E0,-9.604671478E0,1.246846557E0
3.920952854E1,3.629748821E0,-1.003585720E1,1.065987945E-1
3.922962385E1,3.787850380E0,-1.027540493E1,-6.168357134E-1
3.924971917E1,4.204663754E0,-1.019874954E1,-7.126548886E-1
3.926981484E1,4.774787426E0,-9.513643265E0,-4.156155288E-1
3.928991068E1,6.331848621E0,-8.057191849E0,-1.760676801E-1
3.931000651E1,8.444661140E0,-7.463113308E0,-9.378298521E-1
3.933010245E1,9.881947517E0,-7.760152817E0,-1.594190955E0
3.935019776E1,1.026043320E1,-8.895609856E0,-2.125987291E0
3.937029307E1,9.671145439E0,-9.623834610E0,-2.576337099E0
3.939038838E1,8.688999176E0,-8.842908859E0,-2.538009405E0
3.941048370E1,8.339260101E0,-7.300220966E0,-2.523636580E0
3.943057911E1,8.415914536E0,-5.656922817E0,-1.934348941E0
3.945067495E1,8.209903717E0,-4.794550419E0,-1.153422952E0
3.947077078E1,7.084028721E0,-4.804131985E0,-5.832990408E-1
3.949086661E1,5.852753162E0,-5.129917145E0,-4.156155288E-1
3.951096245E1,5.196392059E0,-5.359883308E0,-3.533330858E-1
3.953105786E1,5.349702358E0,-5.379046917E0,-6.264176369E-1
3.955115318E1,6.034809113E0,-5.561103344E0,-1.028858066E0
3.957124849E1,6.868435860E0,-5.805442333E0,-1.632518649E0
3.959134380E1,7.390650272E0,-6.121645451E0,-2.001422405E0
3.961143911E1,7.730808258E0,-6.212673664E0,-1.948721766E0
3.963153458E1,8.837519646E0,-6.528876781E0,-2.173896790E0
3.965163042E1,1.059580040E1,-7.659542561E0,-2.317625523E0
3.967172625E1,1.203308773E1,-8.555451393E0,-2.073286772E0
3.969182208E1,1.314938068E1,-8.828536034E0,-1.412134647E0
3.971191792E1,1.412194443E1,-8.924355507E0,-9.378298521E-1
3.973201328E1,1.529093838E1,-1.009334850E1,-4.204064906E-1
3.975210859E1,1.462499523E1,-9.504060745E0,4.755024910E-1
3.977220391E1,1.311105251E1,-7.764943600E0,3.988471627E-1
3.979229922E1,1.206183338E1,-6.476176262E0,-4.683160484E-1
3.981239453E1,1.180312157E1,-6.524085999E0,-1.838529825E0
3.983249109E1,1.201392365E1,-8.584197044E0,-3.659093380E0
3.985258651E1,1.177916718E1,-1.051495266E1,-4.162144184E0
3.987268182E1,1.069161987E1,-1.044787979E1,-2.183478594E0
3.989277714E1,9.675936699E0,-9.504060745E0,-5.150279030E-2
3.991287245E1,8.674626350E0,-8.421304703E0,1.151027441E0
3.993296776E1,7.510424137E0,-7.817644119E0,1.237264633E0
3.995306312E1,6.202492714E0,-7.319384575E0,8.396152258E-1
3.997315896E1,5.167645931E0,-6.960062981E0,2.790732384E-1
3.999325479E1,4.631058693E0,-6.648650646E0,-2.275704592E-2
4.001335062E1,4.583149433E0,-6.643859863E0,-3.772878647E-1
4.003344646E1,4.492121220E0,-6.581577301E0,-7.509825230E-1
4.005354182E1,4.736459732E0,-6.691769123E0,-8.803383708E-1
4.007363714E1,4.913725376E0,-6.916944504E0,-7.174458504E-1
4.009373245E1,5.191600800E0,-7.434367657E0,-3.820788264E-1
4.011382776E1,4.841860771E0,-7.970954895E0,1.688812375E-1
4.013392307E1,4.587940216E0,-8.493168831E0,8.156604171E-1
4.015401844E1,4.635849953E0,-9.298049927E0,1.155818343E0
4.017411427E1,4.357974529E0,-9.748399734E0,1.266010404E0
4.019421010E1,4.161545277E0,-1.005023003E1,1.237264633E0
4.021430594E1,4.036980152E0,-1.014125824E1,1.050417304E0
4.023440177E1,4.290900707E0,-1.053890800E1,3.748923838E-1
4.025449714E1,4.056144238E0,-1.014125824E1,4.611296058E-1
4.027459245E1,4.707714081E0,-9.580716133E0,1.021671653E0
4.029468776E1,5.349702358E0,-7.918254375E0,1.884043932E0
4.031478307E1,6.772616863E0,-6.744469643E0,1.687614679E0
4.033487656E1,8.794400215E0,-6.931317329E0,5.234120488E-1
4.035497464E1,9.426807404E0,-7.654751778E0,-4.683160484E-1
4.037507031E1,8.665044785E0,-8.387767792E0,-1.172586799E0
4.039516563E1,7.395441055E0,-8.545869827E0,-2.001422405E0
4.041526094E1,6.370176315E0,-7.434367657E0,-2.926077127E0
4.043535625E1,6.149792194E0,-5.953961849E0,-3.179997683E0
4.045545156E1,6.030018330E0,-4.746640682E0,-2.490099907E0
4.047554688E1,5.747352123E0,-4.205262661E0,-1.666055322E0
4.049564266E1,5.182018757E0,-4.363364220E0,-1.450462222E0
4.051573849E1,4.765205860E0,-4.832878113E0,-1.402552724E0
4.053583432E1,4.463375568E0,-5.326346397E0,-1.177377701E0
4.055593016E1,4.851442814E0,-5.930006981E0,-7.653554082E-1
4.057602562E1,5.603623390E0,-6.322865486E0,-7.030729651E-1
4.059612094E1,6.710334301E0,-6.658232689E0,-1.172586799E0
4.061621625E1,8.133248329E0,-6.691769123E0,-1.929557920E0
4.063631156E1,9.709473610E0,-7.027136326E0,-2.552382469E0
4.065640688E1,1.165939331E1,-8.052401543E0,-2.897331238E0
4.067650219E1,1.281880474E1,-8.703970909E0,-2.403862715E0
4.069659786E1,1.330748177E1,-8.215293884E0,-1.349852204E0
4.071669370E1,1.393030643E1,-7.678706646E0,-7.509825230E-1
4.073678953E1,1.485496140E1,-9.528016090E0,-8.228468895E-1
4.075688536E1,1.348474789E1,-9.801100731E0,3.653104901E-1
4.077698088E1,1.101261330E1,-7.582887173E0,1.160609365E0
4.079707620E1,9.628026962E0,-5.685668468E0,9.689710736E-1
4.081717151E1,1.030355167E1,-6.145600319E0,-2.814687192E-1
4.083726750E1,1.223430824E1,-8.718343735E0,-2.188269615E0
4.085736281E1,1.268944836E1,-1.033768749E1,-2.317625523E0
4.087745813E1,1.162585640E1,-9.566343307E0,-6.407905221E-1
4.089755344E1,1.022689724E1,-8.215293884E0,8.539881110E-1
4.091764875E1,9.225586891E0,-7.448740482E0,1.505558252E0
4.093774406E1,8.171576500E0,-7.003181458E0,1.443275809E0
4.095783958E1,7.577497482E0,-6.734888077E0,1.366620541E0
4.097793542E1,6.887599468E0,-6.811543465E0,1.050417304E0
4.099803125E1,6.245611668E0,-6.701351166E0,5.473668575E-1
4.101812708E1,5.886289597E0,-6.960062981E0,-1.185761914E-1
4.103822276E1,5.670696735E0,-7.372085094E0,-6.551634073E-1
4.105831807E1,5.277838230E0,-7.721825123E0,-7.797282934E-1
4.107841339E1,4.698132515E0,-8.057191849E0,-7.797282934E-1
4.109850870E1,4.338810444E0,-8.354231834E0,-7.605644464E-1
4.111860401E1,4.003443718E0,-8.450050354E0,-3.293783069E-1
4.113869932E1,4.032189369E0,-8.569824219E0,-3.593217814E-3
4.115879479E1,4.257364273E0,-8.919564247E0,2.072088867E-1
4.117889062E1,4.535239697E0,-9.441779137E0,5.868922547E-2
4.119898646E1,4.971216679E0,-9.532806396E0,-3.233896196E-2
4.121908229E1,5.148482323E0,-9.125575066E0,-1.856495887E-1
4.123917802E1,5.972527027E0,-8.737507820E0,-6.407905221E-1
4.125927333E1,6.638469696E0,-8.780626297E0,-1.057603836E0
4.127936865E1,6.576187611E0,-8.157802582E0,-9.474117756E-1
4.129946396E1,6.523487091E0,-6.897780418E0,-9.905303717E-1
4.131955927E1,7.213384628E0,-4.612493992E0,-9.426208138E-1
4.133965458E1,9.364524841E0,-3.941759825E0,-1.594190955E0
4.135975000E1,1.072515583E1,-5.522775650E0,-2.145151138E0
4.137984583E1,9.508253098E0,-6.869034767E0,-2.001422405E0
4.139994167E1,8.109293938E0,-6.993599415E0,-1.512744665E0
4.142003750E1,8.454242706E0,-6.102481365E0,-1.584609032E0
4.144013328E1,8.435078621E0,-4.444810390E0,-1.670846343E0
4.146022859E1,7.687689304E0,-3.505782843E0,-1.268405914E0
4.148032391E1,6.691170216E0,-3.184788704E0,-5.928809643E-1
4.150041922E1,5.603623390E0,-3.184788704E0,-4.671183228E-2
4.152051453E1,4.894561768E0,-3.127297163E0,2.551184595E-1
4.154060984E1,4.698132515E0,-3.271025896E0,3.126099408E-1
4.156070516E1,5.009544373E0,-3.678257227E0,1.018078402E-1
4.158080099E1,6.240820408E0,-3.980087519E0,-9.941235930E-2
4.160089682E1,7.232548714E0,-4.334618568E0,-4.874798954E-1
