"Time (s)","Acceleration x (m/s^2)","Acceleration y (m/s^2)","Acceleration z (m/s^2)"
0.000000000E0,-8.526614308E-1,1.223331690E0,9.913249969E0
2.000937500E-2,-1.108620763E0,1.180868149E0,9.960721970E0
4.200156200E-2,-1.154474497E0,1.193040252E0,9.916802406E0
6.399843700E-2,-7.908239961E-1,1.177324653E0,9.796939850E0
8.400000000E-2,-5.871348977E-1,1.147521734E0,9.864781380E0
1.059984370E-1,-6.404297948E-1,1.073885679E0,9.991827011E0
1.260046870E-1,-1.111005425E0,1.043316483E0,9.958366394E0
1.479968750E-1,-9.760681987E-1,1.179153919E0,9.735857964E0
1.679984370E-1,-7.383622527E-1,1.256141901E0,9.512383461E0
1.879984370E-1,-2.823721766E-1,8.821197152E-1,1.008253860E1
2.080015620E-1,-8.277809024E-1,1.050767183E0,1.033292484E1
2.299984370E-1,-9.189712405E-1,9.597876072E-1,9.997707367E0
2.499984370E-1,-8.881147504E-1,1.129383326E0,9.850961685E0
2.699984370E-1,-5.574563742E-1,1.223781824E0,9.713850975E0
2.899984370E-1,-6.048519611E-1,1.133031964E0,1.021936226E1
3.099984370E-1,-5.890598297E-1,9.150639176E-1,1.032623005E1
3.299984370E-1,-7.049200535E-1,1.095644116E0,9.927241325E0
3.500140620E-1,-6.370587945E-1,1.084745765E0,9.669999123E0
3.719968750E-1,-7.086549401E-1,1.174030304E0,9.694639206E0
3.920000000E-1,-7.328460217E-1,1.177152395E0,9.574460983E0
4.139984370E-1,-2.210422754E-1,4.947665632E-1,1.020560074E1
4.359984370E-1,-7.151384950E-1,9.307506680E-1,1.081963634E1
4.559984370E-1,-4.799703956E-1,9.330395460E-1,9.977997780E0
4.760031250E-1,-3.762440085E-1,1.017152667E0,9.384236336E0
4.980031250E-1,-6.010978222E-1,1.155058742E0,9.262103081E0
5.199968750E-1,-3.271532953E-1,6.990590096E-1,9.351819038E0
5.399968750E-1,-4.954560995E-1,4.295580983E-1,1.035804367E1
5.599968750E-1,-7.311891764E-2,4.322300255E-1,1.027923775E1
5.799984370E-1,-1.280898005E-1,4.556453228E-1,1.011890221E1
6.019984370E-1,-6.289759278E-1,6.676183343E-1,9.750271797E0
6.239968750E-1,-7.524880171E-1,6.886298656E-1,9.718247414E0
6.439968750E-1,-3.463739753E-1,1.474732459E-1,1.018742371E1
6.639968750E-1,-2.861549854E-1,4.232373834E-1,1.013508701E1
6.839968750E-1,-1.874947250E-1,5.269063115E-1,9.860300064E0
7.039984370E-1,-3.657190800E-1,6.535691619E-1,9.679910660E0
7.260000000E-1,-3.875254691E-1,4.335420430E-1,9.821982384E0
7.479968750E-1,-3.452917933E-1,5.765908360E-1,9.475550652E0
7.679984370E-1,-2.287037224E-1,5.504269600E-1,9.732104301E0
7.899984370E-1,-3.084306419E-1,4.650976360E-1,1.006930351E1
8.119984370E-1,-5.712757111E-1,4.110365510E-1,1.008825588E1
8.339968750E-1,-4.772218764E-1,4.544577897E-1,9.947180748E0
8.539984370E-1,-3.820954263E-1,7.267168760E-1,9.840476036E0
8.759984370E-1,-2.154877335E-1,5.077239871E-1,1.005168247E1
8.979984370E-1,-4.832744002E-1,7.914081216E-1,1.007008934E1
9.179984370E-1,-9.279734492E-1,8.855673075E-1,1.004913521E1
9.379984370E-1,-7.600536942E-1,4.483094811E-1,9.712212563E0
9.599968750E-1,-1.202569246E0,9.171324968E-1,9.852456093E0
9.799968750E-1,-1.034180164E0,8.828187585E-1,8.299960136E0
9.999984370E-1,-3.433955610E-1,8.160588145E-1,9.650864601E0
1.020009375E0,-4.014501572E-1,7.588087320E-1,1.050341988E1
1.041996875E0,-1.286586523E0,6.195140481E-1,1.001086617E1
1.061998437E0,-7.418482304E-1,5.585193634E-1,9.331573486E0
1.081998437E0,-5.817814469E-1,1.074057937E0,9.520907402E0
1.101998437E0,-1.712620407E-1,8.874922395E-1,1.015410614E1
1.121998437E0,-2.072995603E-1,7.720055580E-1,1.064623928E1
1.141998437E0,-2.158420682E-1,2.970629632E-1,1.056297874E1
1.162000000E0,-4.565168023E-1,6.364170909E-1,9.897620201E0
1.183998437E0,-1.372356415E-1,4.963275790E-1,9.915720940E0
1.204003125E0,3.265690990E-3,5.655583739E-1,9.699830055E0
1.226003125E0,-3.070898652E-1,2.518029809E-1,1.027008152E1
1.248003125E0,-6.265721321E-1,5.752308965E-1,9.966296196E0
1.270006250E0,-2.183033079E-1,5.028110743E-1,9.568466187E0
1.291998437E0,-2.610733211E-1,6.112875938E-1,9.628991127E0
1.311998437E0,-1.727177054E-1,4.392498136E-1,9.869531631E0
1.333996875E0,-4.234959781E-1,3.477146924E-1,1.000822258E1
1.354004687E0,-4.901026487E-1,4.142064750E-1,1.004648209E1
1.375998437E0,-2.755055726E-1,5.623788238E-1,9.860864639E0
1.396003125E0,-1.205719914E-2,5.044966340E-1,9.926657677E0
1.417996875E0,-2.781870663E-1,5.382453203E-1,1.002239609E1
1.437998437E0,-5.039315820E-1,5.260922909E-1,1.001673603E1
1.457998437E0,-3.697317839E-1,5.122920871E-1,1.021911335E1
1.478007812E0,-4.727303386E-1,6.309583187E-1,1.011928558E1
1.500000000E0,-3.451097906E-1,6.863889098E-1,9.380223274E0
1.520003125E0,-5.258911848E-1,7.845894694E-1,9.163816452E0
1.541996875E0,-3.139756024E-1,7.668819427E-1,1.047150135E1
1.562001562E0,-3.007692099E-1,6.838223338E-1,1.057501698E1
1.583996875E0,-2.797768116E-1,5.859090686E-1,1.007075024E1
1.603996875E0,-4.146757126E-1,5.177029967E-1,9.317504883E0
1.623998437E0,-2.701521218E-1,6.269839406E-1,9.644294739E0
1.644004687E0,-2.852835059E-1,7.865239978E-1,1.046981525E1
1.666000000E0,-8.218815923E-2,6.971915364E-1,1.036372375E1
1.686001562E0,-3.004244268E-1,5.817048550E-1,9.899736404E0
1.707998437E0,-5.026770234E-1,5.842905641E-1,9.603573799E0
1.727998437E0,-3.580097556E-1,6.362447739E-1,9.817903519E0
1.749996875E0,-3.720589355E-2,7.512909174E-1,9.848921776E0
1.769996875E0,-2.442277223E-1,7.267742753E-1,9.710824013E0
1.789998437E0,-4.307169020E-1,6.189202666E-1,9.439035416E0
1.810001562E0,-4.034134150E-1,4.467963576E-1,9.569950104E0
1.831998437E0,-1.996189505E-1,4.000519514E-1,1.035541153E1
1.852000000E0,1.250443608E-1,3.959626555E-1,1.032782936E1
1.873996875E0,4.261679202E-2,4.303242564E-1,9.621731758E0
1.893996875E0,-3.306009471E-1,5.898067951E-1,9.503928185E0
1.913998437E0,-3.019279838E-1,4.365299940E-1,9.861180305E0
1.934003125E0,-1.061110198E-2,2.590143085E-1,1.044569111E1
1.955998437E0,-3.665044159E-2,3.907911777E-1,1.042927647E1
1.976017187E0,-5.439626426E-2,4.506749511E-1,9.696066856E0
1.997996875E0,-9.170750529E-2,5.493351817E-1,9.904438019E0
2.018007812E0,-2.607764490E-2,3.624725640E-1,1.017111397E1
2.039998437E0,-1.726123691E-1,3.810132444E-1,9.142786026E0
2.060000000E0,-1.104684696E-1,6.913688183E-1,9.482350349E0
2.081996875E0,2.730251849E-1,3.650008142E-1,1.017651558E1
2.101998437E0,-8.417055756E-2,5.893950462E-1,1.046265125E1
2.123998437E0,8.442912996E-2,2.450225949E-1,9.373003006E0
2.145998437E0,-1.752938628E-1,5.947293043E-1,9.337511063E0
2.166012500E0,1.604785472E-1,5.149832368E-1,1.010168266E1
2.187998437E0,9.953175485E-2,3.483276069E-1,1.050642776E1
2.208001562E0,-2.542259097E-1,4.725579619E-1,1.009444237E1
2.230004687E0,-1.471859366E-1,5.952273011E-1,9.607710838E0
2.251998437E0,1.562551707E-1,4.793957770E-1,9.715354919E0
2.271998437E0,2.187629938E-1,4.965382814E-1,1.005326271E1
2.292004687E0,-1.539950520E-1,5.402276516E-1,1.003453064E1
2.313996875E0,-1.113208011E-1,5.013841391E-1,9.687839508E0
2.333996875E0,-9.861238301E-2,6.247813106E-1,9.783435822E0
2.353998437E0,7.610688359E-2,4.985972941E-1,1.005243015E1
2.374001562E0,6.742072292E-3,5.068812370E-1,1.007103729E1
2.395996875E0,-5.631162319E-3,5.143798590E-1,9.996960640E0
2.416015625E0,9.579680115E-2,5.638919473E-1,9.974388123E0
2.437998437E0,5.280651152E-2,6.643909812E-1,9.903212547E0
2.458000000E0,3.304956108E-2,5.826624632E-1,9.963901520E0
2.479998437E0,-1.739339530E-1,4.801140428E-1,9.943761826E0
2.499998437E0,-1.997338831E-1,4.964999557E-1,9.677420616E0
2.519998437E0,-5.292143300E-2,4.659212232E-1,9.739832878E0
2.540000000E0,7.503427565E-2,6.960518956E-1,9.780620575E0
2.561998437E0,1.006905437E-1,4.235438406E-1,9.982787132E0
2.582001562E0,-3.207655549E-1,6.092573404E-1,1.012794209E1
2.603996875E0,-2.446108013E-1,7.064523101E-1,9.803355217E0
2.623998437E0,1.168178841E-1,5.375844836E-1,9.727057457E0
2.645996875E0,-3.033932298E-2,6.435326934E-1,1.001017666E1
2.665996875E0,-2.077209391E-2,4.532990158E-1,1.017579746E1
2.685998437E0,-1.257626265E-1,5.102139711E-1,1.012682247E1
2.706004687E0,-8.619125583E-5,3.969969451E-1,9.867875099E0
2.727998437E0,-3.251326084E-2,5.080974698E-1,9.882536888E0
2.749996875E0,-1.393425465E-1,5.553686023E-1,9.936702728E0
2.769996875E0,-6.221093610E-2,5.237555504E-1,1.001234055E1
2.790000000E0,-5.554547906E-2,4.141490161E-1,1.007139206E1
2.811998437E0,-1.858283579E-1,6.617764831E-1,9.697542191E0
2.833996875E0,-1.675845534E-1,7.949898839E-1,9.685819626E0
2.853996875E0,-1.018493399E-1,7.134529352E-1,9.869032860E0
2.874003125E0,-1.573660821E-1,6.593440175E-1,9.880449295E0
2.896003125E0,2.825158183E-3,6.669192314E-1,9.955885887E0
2.917998437E0,-4.441722855E-2,5.603293777E-1,1.026961231E1
2.939998437E0,5.135083944E-2,6.628203988E-1,1.017757893E1
2.961996875E0,3.198653460E-3,5.402180552E-1,9.818075180E0
2.981998437E0,-1.524723321E-1,6.063555479E-1,9.869032860E0
3.003996875E0,6.032430753E-2,5.238800645E-1,1.012288570E1
3.023996875E0,-1.281376779E-1,5.841181874E-1,1.003481770E1
3.043996875E0,-1.447821707E-1,5.225680470E-1,9.773514748E0
3.063996875E0,2.169146761E-2,6.814280748E-1,9.491592407E0
3.083996875E0,1.716546714E-1,6.915029287E-1,9.760719299E0
3.103998437E0,-6.694188341E-3,7.390325665E-1,1.004743958E1
3.123998437E0,-4.637089744E-2,4.780071676E-1,1.046911621E1
3.145996875E0,1.115602180E-1,5.049371123E-1,1.014277744E1
3.165998437E0,-3.923904896E-1,8.547491431E-1,9.790245056E0
3.185998437E0,-5.187469125E-1,8.670553565E-1,9.262428284E0
3.205998437E0,-9.337387048E-3,8.429409862E-1,9.618867874E0
3.225998437E0,1.484405017E-3,7.611166835E-1,1.017963791E1
3.246001562E0,-1.888067424E-1,7.464354634E-1,1.009301567E1
3.268000000E0,-3.892972171E-1,7.550833225E-1,9.905290604E0
3.289998437E0,-8.658390492E-2,4.601368308E-1,9.444771767E0
3.309998437E0,-1.803887337E-1,8.737686872E-1,9.673733711E0
3.329998437E0,2.520807087E-1,4.780071676E-1,1.026504421E1
3.350014062E0,1.086105630E-1,7.493563890E-1,1.056978703E1
3.371998437E0,5.020162091E-2,7.055808306E-1,9.949354172E0
3.391998437E0,-3.392105177E-2,7.043741345E-1,9.646564484E0
3.412001562E0,8.592311293E-2,5.601761341E-1,9.745856285E0
3.433996875E0,2.343444712E-2,6.623224020E-1,1.014427090E1
3.453996875E0,-9.543287754E-2,6.029078960E-1,1.024364948E1
3.474006250E0,-2.024632692E-1,5.885522366E-1,9.882373810E0
3.496000000E0,-5.766195431E-2,5.786880851E-1,9.780237198E0
3.516000000E0,-1.897069663E-1,7.470579743E-1,9.926531792E0
3.536001562E0,-5.459737405E-2,7.589811087E-1,1.007518387E1
3.557998437E0,8.516654372E-2,6.881701946E-1,9.993206024E0
3.578001562E0,1.496854890E-2,6.891182661E-1,9.908068657E0
3.599998437E0,-1.351287365E-1,6.941460967E-1,9.957886696E0
3.621996875E0,3.055959195E-2,7.052264810E-1,9.857283592E0
3.641998437E0,3.823061287E-2,8.433623910E-1,9.955741882E0
3.663996875E0,1.900229901E-1,6.356509924E-1,9.797973633E0
3.683998437E0,6.062118337E-3,6.191022396E-1,9.827795982E0
3.703998437E0,1.884715632E-2,6.647931933E-1,9.816954613E0
3.726003125E0,9.836337715E-2,6.338888407E-1,9.845235825E0
3.747998437E0,-1.180916056E-1,7.485710979E-1,9.950963020E0
3.768004687E0,-1.619437896E-2,6.365416050E-1,9.983955383E0
3.789998437E0,1.020696089E-1,7.453628778E-1,9.920355797E0
3.810004687E0,5.457821861E-2,7.578031421E-1,9.953414917E0
3.831996875E0,-2.169242501E-1,7.254910469E-1,9.540875435E0
3.851996875E0,-2.165220231E-1,7.977384329E-1,9.876263618E0
3.871996875E0,1.080646887E-1,7.514537573E-1,1.020443249E1
3.891998437E0,-8.534850180E-2,7.933713794E-1,1.018456078E1
3.913998437E0,1.493981928E-1,7.080708146E-1,9.643432617E0
3.934001562E0,1.148067638E-1,6.467505097E-1,9.726406097E0
3.955998437E0,8.685205877E-2,6.401233673E-1,1.049176598E1
3.976003125E0,1.180054173E-1,6.299623251E-1,1.017249393E1
3.997998437E0,-3.270479664E-2,7.739784122E-1,9.642503738E0
4.018000000E0,9.344090521E-2,7.387452722E-1,9.637475967E0
4.039996875E0,1.817677915E-2,7.885925770E-1,9.911813736E0
4.059998437E0,-3.578852862E-2,6.080219150E-1,9.867203712E0
4.079998437E0,-2.119443119E-1,7.902494073E-1,9.733042717E0
4.100004687E0,1.026920974E-1,6.614700556E-1,9.761121750E0
4.121996875E0,-9.682151489E-3,6.685664654E-1,1.002448463E1
4.141996875E0,-2.136585675E-2,6.177902222E-1,9.900024414E0
4.161998437E0,-2.172211260E-1,9.111853242E-1,9.897601128E0
4.181998437E0,1.252742112E-1,6.985897422E-1,9.863478661E0
4.203998437E0,-2.286462486E-1,8.277043104E-1,1.001146030E1
4.224004687E0,-2.726133764E-1,8.140189648E-1,9.915673256E0
4.245998437E0,1.461420767E-2,6.960327029E-1,9.843291283E0
4.266007812E0,1.514284611E-1,6.138254404E-1,1.008836174E1
4.287998437E0,1.559391469E-1,6.780762076E-1,1.011434364E1
4.308000000E0,7.390422374E-2,6.922116280E-1,1.005599213E1
4.328000000E0,4.850652814E-2,6.869730949E-1,9.770037651E0
4.348000000E0,-7.622180134E-2,7.836222053E-1,9.735916138E0
4.369998437E0,4.380431399E-2,8.482943773E-1,9.862051964E0
4.390003125E0,1.238472685E-1,7.598812580E-1,1.000174904E1
4.411996875E0,1.005277410E-1,8.053519726E-1,1.001910114E1
4.431998437E0,3.952348232E-2,7.868496180E-1,1.011046505E1
4.451998437E0,5.231522322E-1,8.635023832E-1,9.762769699E0
4.474001562E0,2.227565348E-1,1.339622974E0,9.787075043E0
4.496006250E0,4.245781600E-1,1.316734433E0,9.683923721E0
4.517998437E0,4.428986013E-1,1.194716215E0,9.796738625E0
4.537998437E0,6.575626731E-1,7.713351250E-1,1.016374969E1
4.557998437E0,5.238130689E-1,6.154630780E-1,1.011704350E1
4.579998437E0,4.489606991E-2,8.652453423E-1,1.009948063E1
4.601998437E0,-6.178955734E-2,1.163265944E0,9.833484650E0
4.623998437E0,-8.255207539E-2,1.280763745E0,9.508265495E0
4.643998437E0,-2.301498204E-1,1.206438184E0,9.881215096E0
4.665998437E0,-3.201047778E-1,1.059357643E0,1.024482727E1
4.687998437E0,-1.676228493E-1,1.224557519E0,1.020037174E1
4.709998437E0,-2.394201729E-4,1.119614840E0,9.752694130E0
4.729998437E0,-1.893430501E-1,1.341279626E0,9.558121681E0
4.751998437E0,-7.625436187E-1,1.418181419E0,1.006927586E1
4.773998437E0,-7.161918879E-1,1.391251445E0,9.936559677E0
4.795998437E0,-4.605486244E-2,8.536670208E-1,1.001270485E1
4.816012500E0,1.032858565E-1,7.664797306E-1,1.056563091E1
4.837998437E0,-8.476431668E-2,1.308958054E0,1.101333714E1
4.859998437E0,-1.347361058E-1,1.316389561E0,1.086097908E1
4.882004687E0,9.892841429E-2,1.174068570E0,9.946241379E0
4.903996875E0,2.140703648E-1,7.796957493E-1,8.838731766E0
4.923998437E0,-1.527787894E-1,1.145194530E0,9.399376869E0
4.945998437E0,-3.362033665E-1,1.748993039E0,9.117618561E0
4.965998437E0,-4.936269224E-1,1.805189848E0,8.956306458E0
4.985998437E0,-8.605718613E-1,1.820167899E0,9.761419296E0
5.007996875E0,-8.429505825E-1,1.690210581E0,9.629422188E0
5.027996875E0,-5.813696384E-1,1.177343845E0,9.622564316E0
5.048006250E0,-2.877351642E-1,5.950835943E-1,9.368492126E0
5.069998437E0,2.843353897E-2,2.198930681E-1,9.254183769E0
5.089998437E0,-4.688229859E-1,6.199737787E-1,9.380530357E0
5.111998437E0,-6.038177013E-1,1.151888847E0,9.275012970E0
5.133996875E0,-1.448970847E-2,7.675140500E-1,8.895819664E0
5.153996875E0,-4.601751268E-1,7.315914035E-1,8.441773415E0
5.173996875E0,-1.543015122E0,1.508701444E0,9.060118675E0
5.193998437E0,-9.459778666E-1,1.627913475E0,9.208185196E0
5.213998437E0,-2.832436562E-1,1.573459864E0,9.074407578E0
5.233998437E0,-6.489722729E-1,7.430835962E-1,1.013085365E1
5.256000000E0,-1.323543429E0,6.941939592E-1,1.060978031E1
5.277998437E0,-8.425770402E-1,6.109523773E-1,1.056227970E1
5.297998437E0,2.818166912E-1,1.435467601E-1,1.048450565E1
5.319996875E0,3.843651414E-1,5.953996778E-1,1.004464340E1
5.339996875E0,-5.541140214E-2,8.843798041E-1,9.842371941E0
5.359998437E0,-3.687932491E-1,5.635759234E-1,1.000446892E1
5.381998437E0,-1.571458280E-1,5.000337958E-1,9.983227730E0
5.401998437E0,-1.713290662E-1,4.582118690E-1,1.039421558E1
5.424000000E0,-1.325908899E-1,-1.558242142E-1,1.081389046E1
5.445998437E0,1.088978723E-1,-7.346081138E-1,1.101602840E1
5.467998437E0,-1.417558938E-1,-2.906560898E-1,1.015104198E1
5.487998437E0,-5.478603840E-1,8.058883250E-2,1.048611546E1
5.509998437E0,-7.761618495E-1,1.103343889E-1,1.129456997E1
5.531998437E0,-9.890159965E-1,1.647210717E-1,1.227707291E1
5.553996875E0,-4.959923923E-1,2.638697624E-1,1.198116970E1
5.573996875E0,6.580989957E-1,2.540726773E-2,1.107063580E1
5.593996875E0,1.386185288E0,-3.285132051E-1,1.039114189E1
5.613996875E0,1.537585139E0,-5.467494726E-1,1.011728287E1
5.633998437E0,9.662998319E-1,-4.342603087E-1,9.989538193E0
5.656004687E0,-2.645975947E-1,-1.472434103E-1,9.714290619E0
5.677996875E0,-2.022813112E-1,-3.173083365E-1,9.601199150E0
5.697998437E0,-3.269521892E-2,-8.853758126E-2,9.431497574E0
5.717998437E0,3.311085105E-1,2.048861980E-1,9.897639275E0
5.737998437E0,1.673068106E-1,2.722781897E-1,9.719213486E0
5.757998437E0,-2.192130983E-1,-6.860824674E-2,9.568753242E0
5.777998437E0,-5.516240746E-2,-1.465826184E-1,9.522295952E0
5.800000000E0,-1.380784065E-1,4.743392393E-2,9.586114883E0
5.821996875E0,1.018972248E-1,1.528937221E-1,9.839555740E0
5.841996875E0,5.757192969E-1,3.877840638E-1,1.052839661E1
5.861996875E0,8.218719959E-1,3.084498048E-1,1.024250984E1
5.881998437E0,7.011467218E-1,8.908824325E-1,9.673714638E0
5.901998437E0,5.332844853E-1,5.946239829E-1,9.871963501E0
5.921998437E0,3.044179678E-1,6.691985726E-1,1.000531197E1
5.941998437E0,-7.016926259E-2,5.266094208E-1,1.094254589E1
5.961998437E0,-1.504324824E-1,3.073771894E-1,1.132944870E1
5.983998437E0,1.574714333E-1,-3.523020148E-1,1.100590611E1
6.003998437E0,1.494077593E-1,-5.813217759E-1,1.013373661E1
6.023998437E0,6.182786450E-2,-1.795268208E-1,1.040035439E1
6.043998437E0,4.962892830E-1,-3.714556098E-1,1.048561764E1
6.063998437E0,5.322501659E-1,-6.103490591E-1,1.050709724E1
6.085998437E0,-2.112260461E-1,-5.187469125E-1,9.812711716E0
6.105998437E0,-2.149897367E-1,-5.083560348E-1,8.708535194E0
6.125998437E0,3.956657648E-1,-3.120506704E-1,8.709329605E0
6.145998437E0,6.519985795E-1,-2.117432095E-2,8.696516991E0
6.166000000E0,7.264295220E-1,-3.627694249E-1,8.907752037E0
6.187998437E0,1.693370938E-1,-5.535489917E-1,9.212438583E0
6.207998437E0,-1.858475208E-1,-2.035837620E-1,9.002562523E0
6.227998437E0,8.058883250E-2,-1.795172393E-1,8.759703636E0
6.247998437E0,-4.790318757E-2,-6.336015463E-2,9.445815086E0
6.267998437E0,-4.085465670E-1,3.001849949E-1,9.651180267E0
6.289998437E0,-6.647070050E-1,5.481189489E-1,9.332196236E0
6.311998437E0,-2.801216021E-2,2.707937956E-1,9.417056084E0
6.333996875E0,4.711214304E-1,5.022460818E-1,1.023199368E1
6.353996875E0,-3.237535357E-1,1.147751570E0,1.132750511E1
6.373996875E0,-1.662150621E-1,9.763650298E-1,1.004630947E1
6.393996875E0,3.940472901E-1,8.559271097E-1,8.957178116E0
6.413998437E0,8.353177905E-1,1.024996042E0,8.979836464E0
6.435998437E0,4.446894526E-1,1.626898289E0,9.070451736E0
6.455998437E0,2.140416205E-1,1.420498967E0,9.984329224E0
6.477998437E0,6.114886999E-1,1.033461928E0,1.073587799E1
6.499998437E0,7.403255105E-1,6.872891188E-1,1.089535141E1
6.521996875E0,4.480221868E-1,2.908763289E-1,1.151342869E1
6.541996875E0,2.739637196E-1,2.235514075E-1,1.102969456E1
6.561996875E0,-3.914040700E-2,7.584926486E-1,9.662758827E0
6.581996875E0,1.390648037E-1,1.130187750E0,9.419872284E0
6.601998437E0,4.058842063E-1,1.008926153E0,1.056372547E1
6.623996875E0,6.341378093E-1,4.791467786E-1,1.122913170E1
6.643996875E0,5.258145928E-1,2.502994239E-1,1.070628643E1
6.663996875E0,8.854427934E-1,1.882704496E-1,9.428539276E0
6.683996875E0,1.578315139E0,3.474465385E-2,1.004496861E1
6.703996875E0,1.152243018E0,7.239395976E-1,9.736883163E0
6.723996875E0,1.114960551E0,5.428134203E-1,9.435194016E0
6.743996875E0,9.442061186E-1,3.283120990E-1,9.238495827E0
6.763996875E0,6.837457418E-1,7.195150852E-1,9.312017441E0
6.783996875E0,8.742571473E-1,8.985056281E-1,9.726224899E0
6.803996875E0,9.204460382E-1,1.108084440E0,9.231667519E0
6.823996875E0,5.058373809E-1,1.455693841E0,8.561971664E0
6.843998437E0,-8.259038627E-2,1.924152851E0,8.095207214E0
6.865998437E0,-2.669630647E-1,2.038796902E0,7.947725296E0
6.885998437E0,2.418622524E-1,1.573114991E0,8.088446617E0
6.907998437E0,8.095274568E-1,1.760475755E0,8.136330605E0
6.929998437E0,7.466078401E-1,1.770301461E0,8.552472115E0
6.951996875E0,6.466834545E-1,1.384021044E0,8.596869469E0
6.971998437E0,2.437393069E-1,1.539174795E0,8.995695114E0
6.993998437E0,-1.399458796E-1,1.907489300E0,9.500862122E0
7.015998437E0,-2.191460729E-1,1.862890005E0,1.038431358E1
7.035998437E0,3.161495328E-1,1.545974374E0,1.114124489E1
7.056003125E0,4.541034400E-1,1.157481551E0,1.169248676E1
7.077996875E0,3.398234248E-1,7.292451262E-1,1.171292305E1
7.097998437E0,5.352860093E-1,2.150663435E-1,1.280813694E1
7.118003125E0,8.112416863E-1,-6.006382108E-1,1.279376125E1
7.139998437E0,-1.866040826E-1,-8.975287676E-1,1.199702835E1
7.159998437E0,-1.242016077E0,-3.628077507E-1,1.038128757E1
7.181996875E0,-8.026704788E-1,-5.738997459E-1,9.106490135E0
7.201996875E0,-3.025313318E-1,-7.590098381E-1,9.645769119E0
7.221996875E0,-5.029834509E-1,1.008533537E-1,1.016404724E1
7.241998437E0,-8.679077029E-1,1.815379560E-1,1.067880917E1
7.263996875E0,-1.595907807E0,4.215710610E-2,1.044189835E1
7.283996875E0,-1.803494573E0,1.684081405E-1,1.041629982E1
7.303996875E0,-1.419541359E0,2.473401874E-1,1.020228672E1
7.323996875E0,-1.456134319E0,8.792466521E-1,1.018969345E1
7.343998437E0,-9.779069424E-1,8.835370541E-1,9.677727699E0
7.365998437E0,-5.554165244E-1,1.081173539E0,8.576557159E0
7.385998437E0,-4.318852425E-1,1.398970366E0,7.608093262E0
7.407998437E0,-5.504174232E-1,1.947951317E0,7.339242935E0
7.427998437E0,-7.106086612E-1,1.754001737E0,7.280479908E0
7.448004687E0,-5.422866940E-1,1.694778800E0,8.948395729E0
7.469998437E0,-1.614937037E-1,1.544298410E0,9.798069000E0
7.491996875E0,2.803993225E-1,1.265163183E0,1.113994217E1
7.511996875E0,6.392327547E-1,9.730036259E-1,1.195597267E1
7.531996875E0,6.404201984E-1,4.369513988E-1,1.160122871E1
7.551996875E0,2.086881995E-1,2.105077952E-1,1.112592220E1
7.571996875E0,-3.874201477E-1,5.187947750E-1,1.105329227E1
7.591996875E0,-3.356383443E-1,7.597184777E-1,1.119072819E1
7.611998437E0,-6.572562456E-2,6.715640426E-1,1.138055038E1
7.633998437E0,1.339795347E-2,6.803938150E-1,1.182055664E1
7.655998437E0,9.311529249E-2,5.989717841E-1,1.150910950E1
7.677998437E0,3.775464594E-1,9.956048429E-2,1.050938702E1
7.697998437E0,5.121580958E-1,-3.245579824E-2,9.809666634E0
7.717998437E0,8.512823582E-1,1.576150805E-1,9.889977455E0
7.737998437E0,1.155997157E0,4.878616929E-1,1.029565144E1
7.757998437E0,1.132792592E0,6.161047220E-1,1.046659756E1
7.779996875E0,1.102060676E0,5.120143890E-1,1.022466755E1
7.799998437E0,4.848258495E-1,4.049935937E-1,9.134751320E0
7.821998437E0,-6.743412614E-1,8.250036240E-1,8.757798195E0
7.843998437E0,-8.733186126E-1,1.004827261E0,8.525397301E0
7.865996875E0,-5.243971944E-1,1.174049497E0,8.975440025E0
7.885998437E0,-9.414001368E-3,1.431914568E0,9.531154633E0
7.905998437E0,2.232928276E-1,1.116646171E0,9.527697563E0
7.927998437E0,1.108036563E-1,1.182869792E0,8.750462532E0
7.947998437E0,1.625375599E-1,1.199973822E0,8.774106979E0
7.967998437E0,1.776880771E-1,1.549460292E0,9.123497963E0
7.987998437E0,2.659096122E-1,1.661336541E0,9.724519730E0
8.009998437E0,4.562007785E-1,1.654508352E0,1.010866451E1
8.031998437E0,6.631460190E-1,1.237141490E0,1.029298973E1
8.053996875E0,3.458089232E-1,1.200788021E0,1.115953732E1
8.073998437E0,2.991890311E-1,9.533136487E-1,1.229529762E1
8.096004687E0,2.937206626E-1,9.700347781E-1,1.198025036E1
8.117998437E0,4.002530575E-1,9.723331928E-1,1.144658279E1
8.137998437E0,9.506512880E-1,4.889438748E-1,1.148250484E1
8.157998437E0,1.189994931E0,1.858762354E-1,1.159480286E1
8.177998437E0,5.133072734E-1,3.330622017E-1,1.108670521E1
8.197998437E0,1.190397050E-2,3.428496718E-1,1.003004742E1
8.217998437E0,-8.617210388E-2,5.458875895E-1,9.287817001E0
8.237998437E0,3.403118253E-1,4.089104831E-1,8.926331520E0
8.257998437E0,4.803630412E-1,-9.674490243E-2,8.992285728E0
8.277998437E0,-3.658244312E-1,-5.151364580E-2,9.439168930E0
8.297998437E0,-6.360148787E-1,-1.477509737E-1,9.299452782E0
8.317998437E0,-4.782370031E-1,-1.323706210E-1,9.401301384E0
8.337998437E0,-3.533841670E-2,-1.417750567E-1,9.266116142E0
8.357998437E0,5.675215647E-2,3.799214959E-1,9.334694862E0
8.377998437E0,2.521477640E-1,1.028309584E0,8.885638237E0
8.397998437E0,5.001583099E-1,1.197388172E0,8.345622063E0
8.419996875E0,7.158949971E-1,1.360155463E0,8.193637848E0
8.439998437E0,6.805853248E-1,1.830587506E0,8.059275627E0
8.461998437E0,3.908965290E-1,1.932475090E0,8.216220856E0
8.483996875E0,2.554900646E-1,1.965735316E0,8.505640984E0
8.503996875E0,3.102885485E-1,1.837942481E0,9.004918098E0
8.523996875E0,3.466037810E-1,1.522357941E0,1.016892147E1
8.543996875E0,2.430018932E-1,1.206208348E0,1.091507912E1
8.563996875E0,6.587885022E-1,1.050958782E-1,1.146367645E1
8.583996875E0,4.528105855E-1,-1.267203093E-1,1.164807796E1
8.603998437E0,-5.780465007E-1,4.326322377E-1,1.093937588E1
8.623998437E0,-7.913123965E-1,9.215282798E-1,1.021795464E1
8.643998437E0,2.145492136E-1,6.249728203E-1,1.082581329E1
8.663998437E0,1.119270086E0,4.960786086E-3,1.227463150E1
8.686009375E0,8.067597747E-1,1.017056853E-1,1.240895653E1
8.707998437E0,-1.398692578E-1,-8.274360560E-3,1.126800346E1
8.727998437E0,-6.443562508E-1,2.901772410E-2,1.014586067E1
8.747998437E0,-1.761557758E-1,-1.578161865E-1,9.134521484E0
8.767998437E0,1.035348624E-1,2.472923100E-1,8.898490906E0
8.787998437E0,6.220423579E-1,3.541694582E-1,9.473215103E0
8.807998437E0,3.955987096E-1,5.474869013E-1,9.464662552E0
8.827998437E0,-4.717535153E-2,8.082442284E-1,9.092440605E0
8.850012500E0,-4.512878656E-1,8.148139119E-1,8.669826508E0
8.871998437E0,-3.556826115E-1,1.046687484E0,8.837495804E0
8.891998437E0,1.464676857E-1,1.084812760E0,9.208167076E0
8.913996875E0,4.513357580E-1,1.355932236E0,8.657481194E0
8.933996875E0,3.408385515E-1,1.334815264E0,8.148914337E0
8.953996875E0,1.878777891E-1,1.348146200E0,8.019665718E0
8.973996875E0,1.318343133E-1,1.599001050E0,8.303445816E0
8.993998437E0,1.492353827E-1,1.442966223E0,8.567890167E0
9.016001562E0,-1.289612800E-1,1.383810282E0,9.266672134E0
9.037996875E0,-2.030570358E-1,1.582299232E0,9.930986404E0
9.057998437E0,-2.439499944E-1,1.564314008E0,1.027259064E1
9.079996875E0,-5.642846227E-1,1.158372164E0,1.080032063E1
9.099998437E0,-3.316927254E-1,2.336453497E-1,1.136397266E1
9.121996875E0,-2.261945903E-1,5.405149981E-2,1.148998451E1
9.141996875E0,-4.846438766E-1,5.837638378E-1,1.119147587E1
9.161996875E0,5.551674962E-2,-1.251975894E-1,1.137796497E1
9.181996875E0,4.841554463E-1,-6.369822025E-1,1.107129574E1
9.201996875E0,-3.677780926E-1,-1.885194331E-1,1.095402813E1
9.221998437E0,-1.287295222E0,1.037742794E-1,1.049005032E1
9.241998437E0,-1.176194668E0,2.951380312E-1,1.021501446E1
9.263996875E0,4.345763326E-1,-1.615703106E-1,1.047580051E1
9.283996875E0,1.305203915E0,1.402714849E-1,1.090113544E1
9.303998437E0,1.022525311E0,-5.090072751E-2,1.085781002E1
9.325996875E0,-2.509602308E-1,-3.710629642E-1,1.036098480E1
9.345996875E0,-1.223044395E0,-2.245761305E-1,1.000856781E1
9.365998437E0,-1.699174523E0,4.041795731E-1,9.900425911E0
9.386001562E0,-1.227181673E0,8.505257964E-1,9.844985962E0
9.407998437E0,2.007490247E-1,7.114896774E-1,9.542320251E0
9.427998437E0,2.354649454E-1,1.313459158E0,9.723236084E0
9.447998437E0,2.155068815E-1,1.327853084E0,8.956794739E0
9.467998437E0,1.641177386E-1,1.129708886E0,8.447730064E0
9.487998437E0,-7.757213432E-3,1.241997004E0,8.442586899E0
9.507998437E0,4.959828034E-2,1.264588594E0,9.157926559E0
9.529996875E0,7.037037611E-2,1.565453649E0,1.053661346E1
9.549996875E0,5.651656389E-1,1.175620079E0,1.108669567E1
9.569998437E0,8.336993456E-1,7.651581168E-1,1.078266144E1
9.589998437E0,9.170654416E-1,1.144332662E-1,1.067700958E1
9.609998437E0,6.640366316E-1,2.329175174E-1,1.078520775E1
9.629998437E0,-2.212242456E-3,1.270660281E0,1.081883240E1
9.650001562E0,8.272829056E-1,9.596247673E-1,1.042940140E1
9.671998437E0,2.144639730E0,-3.602316082E-1,1.108984661E1
9.693996875E0,1.451604486E0,-1.329260785E-2,1.106851864E1
9.713998437E0,1.736466736E-1,-4.893748090E-2,1.079067707E1
9.736004687E0,-4.111323133E-2,-1.269309968E-1,9.790302277E0
9.758000000E0,8.305198550E-1,-2.515348494E-1,9.179024696E0
9.779996875E0,1.176481962E0,8.623723388E-1,8.537053108E0
9.799998437E0,9.667307734E-1,6.014043093E-1,8.462440491E0
9.819998437E0,8.048061132E-1,-3.468719423E-1,8.454252243E0
9.839998437E0,4.645804763E-1,-2.438925356E-1,7.933991909E0
9.859998437E0,1.190780178E-1,1.510530591E0,8.279063225E0
9.879998437E0,-2.058438808E-1,2.488964081E0,8.423921585E0
9.899998437E0,-2.134670317E-1,1.950479507E0,7.781730175E0
9.921996875E0,1.336922310E-2,1.274950743E0,7.680235386E0
9.941996875E0,1.239526123E-1,1.862823009E0,8.755499840E0
9.961998437E0,-7.165941000E-1,2.406124830E0,1.080884361E1
9.983998437E0,-1.747480035E-1,1.529281974E0,1.101233196E1
1.000399844E1,5.802970529E-1,3.348530531E-1,1.021768665E1
1.002599844E1,6.780187488E-1,9.855204225E-1,1.006170940E1
1.004799844E1,-3.090722859E-1,2.431963205E0,1.072165585E1
1.006799844E1,-9.171037674E-1,2.486828566E0,1.140710735E1
1.008799844E1,-1.564946026E-1,1.447515130E0,1.098126507E1
1.010999844E1,1.136862755E0,1.284441352E-1,1.197770309E1
1.013199688E1,1.515481830E0,-7.948366404E-1,1.219798851E1
1.015199688E1,7.133476138E-1,-4.845960140E-1,1.272541237E1
1.017199844E1,-8.428930640E-1,9.784910679E-1,1.314761543E1
1.019399688E1,-7.352018952E-1,1.642451048E0,1.134574795E1
1.021399844E1,9.001240879E-2,1.428897858E0,8.446168900E0
1.023599844E1,-4.324885905E-1,2.176377296E0,8.922155380E0
1.025600625E1,-1.006943822E0,1.869229913E0,1.109817886E1
1.027799844E1,-2.208507359E-1,8.545193076E-1,1.097996235E1
1.029999844E1,1.214339063E-1,1.124604419E-1,1.025548649E1
1.032199688E1,1.093288288E-1,1.460846066E-1,8.625964165E0
1.034199688E1,-4.609221518E-1,9.038398266E-1,8.445000648E0
1.036199688E1,-1.057691336E0,1.598560572E0,9.080183029E0
1.038199688E1,-8.343218565E-1,1.754835010E0,8.501723289E0
1.040199844E1,-1.090223715E-1,1.302187085E0,7.367341995E0
1.042399844E1,3.173753619E-1,8.844468594E-1,8.032977104E0
1.044600000E1,-3.081433475E-1,1.667053938E0,8.835198402E0
1.046799688E1,-1.181663036E0,2.262731314E0,1.005482292E1
1.048799844E1,-8.521538973E-1,1.616268039E0,9.929636002E0
1.050799844E1,-3.385209739E-1,1.405415535E0,8.992937088E0
1.052799844E1,-1.227172017E-1,1.689300776E0,8.183764458E0
1.054799844E1,-4.022354782E-1,1.905478120E0,9.088658333E0
1.056799844E1,-6.675417423E-1,1.935491800E0,1.020693207E1
1.058799844E1,-8.239118457E-1,1.526092887E0,1.078633785E1
1.060999688E1,-1.205336899E-1,7.494809031E-1,1.097709846E1
1.062999688E1,-3.281971812E-1,1.180638313E0,1.020912457E1
1.065000000E1,-6.932650208E-1,1.985999823E0,1.008214664E1
1.067199844E1,9.624691308E-2,1.030962348E0,1.211892223E1
1.069399688E1,2.363172919E-1,2.106705904E-1,1.319128513E1
1.071399688E1,5.179998875E-1,6.663542241E-2,1.147426987E1
1.073399688E1,1.063092709E0,-1.853686720E-1,8.271946907E0
1.075399688E1,9.413234591E-1,-3.705170751E-1,8.785676956E0
1.077399844E1,-7.080995440E-1,-8.531019837E-2,1.083297729E1
1.079599688E1,-1.799405336E0,4.614392817E-1,1.076332474E1
1.081602969E1,-1.192322016E0,4.865017533E-2,1.021429729E1
1.083799844E1,1.321599353E-3,-6.392518431E-2,8.924635887E0
1.085999844E1,3.038624823E-1,4.181137979E-1,9.566664696E0
1.087999844E1,-3.119836450E-1,1.143442035E0,9.124407768E0
1.089999844E1,-4.025036097E-1,1.596884608E0,8.490288734E0
1.092199688E1,4.028675258E-1,1.378025889E0,8.475301743E0
1.094199688E1,9.850798845E-1,1.304849505E0,8.305542946E0
1.096199844E1,7.198023796E-1,1.253029466E0,8.416328430E0
1.098399688E1,-6.235458702E-2,1.482930183E0,9.318022728E0
1.100399688E1,-5.917317271E-1,1.954444289E0,9.761869431E0
1.102399688E1,-6.165452003E-1,1.812822461E0,9.584047318E0
1.104399844E1,-4.389816523E-1,1.678201318E0,9.763113976E0
1.106399844E1,-1.957212090E-1,1.764047861E0,1.015408707E1
1.108600000E1,1.965160668E-2,1.589874387E0,1.135660839E1
1.110600312E1,4.242525399E-1,1.069212198E0,1.196417046E1
1.112799844E1,5.866081715E-1,3.256593049E-1,1.199262333E1
1.114799844E1,2.202952951E-1,2.649040520E-1,1.099352360E1
1.116999688E1,-1.707736254E-1,1.787798256E-1,1.106590462E1
1.118999688E1,-2.830425203E-1,-2.078933269E-1,1.199928951E1
1.120999688E1,-1.954721957E-1,-9.708009660E-2,1.130959606E1
1.123000156E1,-3.382719755E-1,1.722197086E-1,9.360132217E0
1.125199844E1,-4.861761928E-1,-3.083731793E-2,8.882689476E0
1.127399688E1,5.267243460E-2,-2.064280659E-1,9.657309532E0
1.129399688E1,1.289038211E-1,6.823378801E-1,1.099331284E1
1.131399688E1,1.427231431E-1,6.737474799E-1,1.078464317E1
1.133399688E1,1.515433937E-1,6.299623847E-2,1.034837246E1
1.135399844E1,4.195598885E-2,-8.064629138E-2,8.696315765E0
1.137602031E1,-2.143002003E-1,3.849876300E-2,8.059830666E0
1.139799844E1,-7.356328368E-1,7.492319345E-1,8.483978271E0
1.141799844E1,-9.916113019E-1,1.518297315E0,8.126868248E0
1.143999844E1,-6.709511280E-1,1.566813469E0,7.819108486E0
1.145999844E1,-1.495609879E-1,1.638831019E0,7.898480892E0
1.148199844E1,-3.342114091E-1,1.625260711E0,9.230154991E0
1.150399688E1,-7.892150879E-1,1.784570932E0,9.956096649E0
1.152399688E1,-8.667105436E-1,1.678220510E0,1.024452019E1
1.154399688E1,-7.590768337E-1,1.460386515E0,1.055353642E1
1.156399844E1,-3.753533661E-1,9.484485984E-1,1.035745049E1
1.158599844E1,-1.101715863E-1,8.261719942E-1,1.046986294E1
1.160600000E1,-2.607764490E-2,9.559568763E-1,1.082662773E1
1.162799844E1,-3.813005686E-1,7.020373940E-1,1.113558483E1
1.164800000E1,-6.141606569E-1,6.679056287E-1,1.109548759E1
1.166999844E1,-1.549910456E-1,1.059625745E0,1.063498592E1
1.169199688E1,7.440316677E-1,8.720448613E-1,1.055948353E1
1.171199688E1,1.275803089E0,-1.603540480E-1,1.240844822E1
1.173199844E1,7.769758701E-1,-9.049125016E-2,1.261219501E1
1.175199844E1,2.393339872E-1,2.957222164E-1,1.127773380E1
1.177199844E1,4.361469448E-1,2.919681072E-1,9.525043488E0
1.179199844E1,1.649758220E0,-6.768503785E-1,9.767873764E0
1.181199844E1,2.168418884E0,-5.968745351E-1,1.019472122E1
1.183199844E1,1.186250329E0,4.507803023E-1,9.711658478E0
1.185399844E1,5.884852409E-1,4.962222576E-1,9.492808342E0
1.187399844E1,1.279748678E-1,7.599770427E-1,1.004947948E1
1.189399844E1,-3.996880054E-1,1.470786810E0,9.997305870E0
1.191399844E1,-6.932650208E-1,1.951427579E0,8.845435143E0
1.193602031E1,7.580042630E-2,1.218179464E0,7.334866524E0
1.195799844E1,6.161717772E-1,1.103880286E0,9.652090073E0
1.197799844E1,1.508346945E-1,1.765331030E0,8.971179008E0
1.199799844E1,7.372034192E-1,1.010017991E0,8.621232986E0
1.201799844E1,7.059543133E-1,7.636162639E-1,8.992075920E0
1.203999688E1,3.881767094E-1,1.616670251E0,8.998961449E0
1.205999844E1,-9.914868325E-2,1.785873413E0,9.846287727E0
1.207999844E1,2.283014953E-1,2.407676220E0,9.724576950E0
1.210000469E1,7.716129422E-1,2.412014723E0,9.220482826E0
1.212199688E1,-9.314402193E-2,2.014969826E0,1.015264034E1
1.214199844E1,-8.583021760E-1,1.669792891E0,1.038771248E1
1.216399688E1,-2.178436220E-1,1.326406837E0,1.218514538E1
1.218399688E1,9.199576378E-1,1.224586248E0,1.165236950E1
1.220399844E1,1.441577554E0,7.445009947E-1,1.058348274E1
1.222599844E1,9.850128889E-1,6.521518230E-1,1.020659637E1
1.224600000E1,-3.299497366E-1,1.480612636E0,1.032104874E1
1.226800000E1,-6.464440227E-1,1.273916364E0,9.739622116E0
1.229000000E1,8.050263673E-2,1.423343420E0,9.258023262E0
1.231199688E1,7.750222087E-1,1.751339316E0,9.315666199E0
1.233199844E1,1.044791222E0,9.520398974E-1,9.301549911E0
1.235399688E1,5.539128780E-1,2.665512562E-1,9.271795273E0
1.237399688E1,-8.618168533E-2,3.233513236E-1,9.596735954E0
1.239399688E1,-4.839447737E-1,4.813877642E-1,9.978754997E0
1.241399844E1,-1.131949782E0,6.613072753E-1,9.947084427E0
1.243599844E1,-1.073320627E0,8.646132946E-1,9.289254189E0
1.245600469E1,-6.644963622E-1,1.034841061E0,8.764722824E0
1.247799844E1,-6.294931173E-1,1.283924222E0,8.780132294E0
1.249999844E1,-5.530605912E-1,1.585871339E0,8.667536736E0
1.252199688E1,-5.745126307E-2,1.551394820E0,8.934001923E0
1.254199844E1,2.254667729E-1,1.300520778E0,9.355065346E0
1.256199844E1,1.019546837E-1,9.160598516E-1,9.702435493E0
1.258399688E1,-5.768589377E-1,7.499501109E-1,9.792093277E0
1.260399688E1,-1.136441350E0,8.271967173E-1,1.018747139E1
1.262399688E1,-7.352976799E-1,9.340834618E-1,1.076909924E1
1.264399844E1,3.408385441E-2,3.769527078E-1,1.117621994E1
1.266599844E1,1.285877824E-1,3.951390386E-1,1.140629292E1
1.268799844E1,-9.712031484E-1,5.139585137E-1,1.053147030E1
1.270999688E1,-1.786332965E0,9.192394018E-1,1.002294254E1
1.272999844E1,-9.557557106E-1,7.171591520E-1,1.053971672E1
1.275199844E1,1.344478250E0,-2.567445934E-1,1.181712818E1
1.277399844E1,1.264377952E0,-1.072315052E-1,1.183360100E1
1.279600312E1,5.853152871E-1,-4.148768485E-1,1.065913963E1
1.281799844E1,1.238664165E-1,-6.260454059E-1,9.622747421E0
1.283799844E1,-7.757213432E-3,-6.421536207E-1,9.082968712E0
1.285999844E1,4.192151427E-1,-1.835586578E-1,9.242174149E0
1.288199688E1,1.152472854E0,1.382890940E-1,8.900396347E0
1.290199844E1,9.670467973E-1,4.152024388E-1,9.258636475E0
1.292399844E1,1.565520614E-1,4.526381791E-1,9.958902359E0
1.294599844E1,-3.668204248E-1,6.805278659E-1,8.635224342E0
1.296599844E1,1.287697405E-1,9.131197929E-1,8.102562904E0
1.298599844E1,6.952474117E-1,9.843041897E-1,7.979098797E0
1.300600781E1,7.364181280E-1,1.305586934E0,8.056124687E0
1.302799688E1,5.757959485E-1,1.263027549E0,8.517439842E0
1.304800156E1,3.394786417E-1,1.344478250E0,9.221611977E0
1.306999844E1,-9.346006066E-2,1.070313454E0,9.786702156E0
1.309199688E1,-8.902599663E-2,8.819281459E-1,9.808891296E0
1.311199688E1,1.380017865E-2,9.637907147E-1,9.554139137E0
1.313199844E1,-2.267500609E-1,1.301966906E0,1.000283146E1
1.315399688E1,2.005383372E-2,1.060851574E0,1.168240166E1
1.317399688E1,8.995207548E-1,1.313076019E-1,1.246335220E1
1.319399688E1,1.398319125E0,-6.707690954E-1,1.239333630E1
1.321399844E1,6.230670810E-1,-5.142553449E-1,1.173065948E1
1.323599844E1,-2.771336436E-1,-1.849664450E-1,1.129231930E1
1.325799844E1,2.685719728E-1,8.108682185E-2,1.176580620E1
1.327799844E1,9.992152452E-1,-1.943325698E-1,1.308304787E1
1.329999844E1,7.901344895E-1,-6.936289668E-1,1.247652054E1
1.332199844E1,5.586726069E-1,-3.993720114E-1,9.630953789E0
1.334399844E1,5.136903524E-1,9.091741443E-1,7.138906479E0
1.336599688E1,1.080062747E0,1.241431832E0,6.486993790E0
1.338599688E1,7.068353891E-1,7.610688210E-1,9.275195122E0
1.340599844E1,-6.426037848E-2,3.357915580E-1,1.260480213E1
1.342600000E1,-1.161762476E-1,1.366610359E-2,1.170669842E1
1.344600469E1,3.058257401E-1,6.161429882E-1,9.405487061E0
1.346799844E1,4.761205018E-1,1.806674242E0,6.785090923E0
1.348799844E1,7.578989267E-1,2.062039852E0,7.771502018E0
1.350999844E1,8.498457819E-2,2.105183363E0,9.896987915E0
1.353199688E1,3.282450438E-1,1.731266379E0,9.097967148E0
1.355199688E1,5.527828336E-1,1.759747744E0,7.131522655E0
1.357199844E1,2.131126821E-1,2.148269176E0,7.139978409E0
1.359399688E1,-4.167443216E-1,2.009807825E0,7.547040939E0
1.361399688E1,-4.544098973E-1,1.893382549E0,8.143465042E0
1.363399844E1,-3.629705608E-1,1.549239993E0,1.019635963E1
1.365599844E1,-5.864644647E-1,6.618340015E-1,1.085468864E1
1.367799844E1,-1.094715238E0,4.271926284E-1,1.152090836E1
1.369799844E1,-1.516343713E0,1.769027710E-1,1.134390068E1
1.371999844E1,-2.101495981E0,4.875264764E-1,1.139465714E1
1.374199844E1,-1.302627683E0,1.134276986E0,9.499790192E0
1.376199844E1,1.136766970E-1,7.814865708E-1,9.654973030E0
1.378199844E1,4.682771266E-1,-4.113142788E-1,1.389715290E1
1.380399688E1,-7.181743383E-1,-1.742605329E0,1.469405842E1
1.382399688E1,-1.146583200E0,-1.456115127E0,1.033612347E1
1.384399844E1,3.376494646E-1,-4.378228784E-1,7.768648624E0
1.386399844E1,2.273390293E0,-1.316140592E-1,9.671674728E0
1.388399844E1,1.836525202E0,-5.733825564E-1,1.117843151E1
1.390399844E1,-7.867155075E-1,6.683940887E-1,9.530704498E0
1.392399844E1,-4.986451864E-1,9.431239218E-2,8.876387596E0
1.394399844E1,3.253624141E-1,5.276724696E-1,8.815230370E0
1.396399844E1,2.977333367E-1,6.922211647E-1,8.409624100E0
1.398399844E1,-1.869679987E-1,6.941460967E-1,9.374716759E0
1.400399844E1,-3.324301243E-1,6.484264731E-1,9.900465012E0
1.402599844E1,-6.864942908E-1,7.769184709E-1,8.552423477E0
1.404601875E1,-5.360426307E-1,1.267748952E0,7.426210403E0
1.406799844E1,-2.222681195E-1,1.482154489E0,8.161431313E0
1.408799844E1,-6.461663246E-1,1.459974647E0,9.465093613E0
1.410999688E1,-1.244659305E0,1.159540653E0,1.001194859E1
1.412999688E1,-8.774845004E-1,1.148565531E0,1.000653744E1
1.414999844E1,1.743840724E-1,1.240713596E0,1.067503738E1
1.417199844E1,3.771921098E-1,1.536531568E0,1.016900826E1
1.419399688E1,7.793605328E-2,1.264540792E0,1.064225483E1
1.421399688E1,6.114216447E-1,5.045540929E-1,1.185256290E1
1.423399688E1,3.613712192E-1,1.028453261E-1,1.184882736E1
1.425399688E1,-4.085944593E-1,4.997848272E-1,1.105827141E1
1.427399844E1,4.032697380E-1,1.145338297E0,1.015049648E1
1.429599688E1,1.280907512E0,9.911324382E-1,1.071144772E1
1.431599844E1,4.671757817E-1,4.603858292E-1,1.097504997E1
1.433601094E1,-6.211612821E-1,3.326120973E-1,1.010949707E1
1.435799688E1,-2.813090980E-1,6.642568707E-1,9.411492348E0
1.437799844E1,1.400521874E0,9.425780773E-1,1.007422638E1
1.439999844E1,1.497324228E0,5.540373921E-1,1.064284897E1
1.442199688E1,2.838565707E-1,-1.487373859E-1,1.088323593E1
1.444199688E1,-4.598016441E-1,-3.040540516E-1,1.029626465E1
1.446199844E1,-2.490927465E-2,1.812410802E-1,9.324687958E0
1.448399688E1,6.975458860E-1,6.786795855E-1,9.181917191E0
1.450399688E1,2.173168957E-1,7.126868367E-1,9.735388756E0
1.452400000E1,1.637633890E-2,6.452373862E-1,9.248676300E0
1.454599688E1,7.052360475E-2,8.956325650E-1,7.976953030E0
1.456599844E1,5.785253048E-1,1.398539424E0,7.803679943E0
1.458599844E1,7.734804153E-1,1.646118999E0,8.275740623E0
1.460599844E1,4.886661470E-1,1.391213179E0,9.053759575E0
1.462799844E1,4.287249148E-1,9.065021873E-1,9.800951958E0
1.464799844E1,1.561402529E-1,8.106001019E-1,9.310083389E0
1.466800312E1,1.588888019E-1,9.730706215E-1,8.816944122E0
1.468999844E1,8.068555593E-1,1.078654885E0,9.471088409E0
1.471199688E1,1.142570615E0,5.307370424E-1,1.167223167E1
1.473199688E1,6.149842739E-1,7.296568900E-2,1.210991001E1
1.475199844E1,2.444479913E-1,5.603868365E-1,1.046368694E1
1.477199844E1,4.010958374E-1,1.876843333E0,8.319917679E0
1.479399688E1,2.486522198E0,1.864901066E0,7.852723122E0
1.481399688E1,2.812545300E0,5.800288916E-1,1.161711693E1
1.483399844E1,1.273514152E0,-5.472474694E-1,1.399410915E1
1.485399844E1,6.585012078E-1,-5.366938710E-1,1.133306789E1
1.487599844E1,8.997601271E-1,5.280651152E-2,9.470762253E0
1.489601094E1,1.462847710E0,-2.733220719E-2,9.382349968E0
1.491799844E1,9.532274604E-1,2.758311629E-1,1.028353691E1
1.493999844E1,1.136096567E-1,1.880118698E-1,9.374085426E0
1.495999844E1,8.265741915E-2,2.232257873E-1,9.978832245E0
1.497999844E1,2.308968008E-1,4.066886902E-1,1.036140633E1
1.499999844E1,2.609009445E-1,3.758322001E-1,9.887334824E0
1.501999844E1,7.441178709E-2,6.741018891E-1,8.365159035E0
1.504199844E1,-1.577491611E-1,8.612900972E-1,8.104286194E0
1.506399844E1,-4.003584087E-1,1.121003509E0,8.483201981E0
1.508599844E1,-1.863072067E-1,1.386281133E0,8.454883575E0
1.510600469E1,-7.671021670E-2,1.425909877E0,9.240698814E0
1.512799844E1,-2.712247372E-1,1.590554357E0,9.367506027E0
1.514799844E1,-9.604579210E-2,1.501921058E0,9.509999275E0
1.516799844E1,3.224606514E-1,1.406765819E0,1.024140835E1
1.518799844E1,3.276800215E-1,1.435352683E0,1.110760117E1
1.520799844E1,5.720226169E-1,6.834871173E-1,1.139249325E1
1.522999844E1,1.406066716E-1,-3.384443521E-1,1.068685436E1
1.525199844E1,-2.360108346E-1,-3.219530880E-1,1.135617733E1
1.527399844E1,-2.220191211E-1,1.103439704E-1,1.109677982E1
1.529599688E1,7.705786228E-1,1.773624569E-1,1.151257610E1
1.531599844E1,6.057234406E-1,3.455503583E-1,1.175371075E1
1.533600469E1,-8.488211036E-1,1.883279085E-1,1.072687626E1
1.535799688E1,-1.032408476E0,4.641591012E-1,9.353973389E0
1.537799844E1,1.144370914E0,6.983886361E-1,9.197507858E0
1.539999688E1,1.818798423E0,5.278161168E-1,1.055023098E1
1.541999688E1,6.452947855E-1,-2.268745564E-2,1.098521042E1
1.543999688E1,-4.001764655E-1,-1.613308936E-1,1.080017662E1
1.545999844E1,-4.249899685E-1,-2.993709780E-2,1.013314247E1
1.548199844E1,5.924212560E-2,3.252379596E-1,9.610747337E0
1.550399688E1,3.334069550E-1,5.794447064E-1,8.444780350E0
1.552399688E1,8.955271542E-2,7.532733083E-1,7.925046921E0
1.554399688E1,-2.015534788E-1,6.785072088E-1,8.778695107E0
1.556399844E1,-3.581438363E-1,7.652634978E-1,9.522793770E0
1.558600000E1,2.243749946E-1,1.185283065E0,8.133073807E0
1.560600312E1,9.269295931E-1,1.606518865E0,7.185621738E0
1.562799844E1,8.450957537E-1,1.682357669E0,8.010395050E0
1.564800312E1,1.607467085E-1,1.256362200E0,9.079837799E0
1.566999688E1,-3.962786794E-1,1.122583747E0,9.390958786E0
1.568999688E1,-1.252646372E-2,1.231270909E0,9.389954567E0
1.570999688E1,8.049018383E-1,1.292169809E0,9.310963631E0
1.572999844E1,7.851449847E-1,9.097104669E-1,1.060994339E1
1.575199688E1,3.089477867E-2,-1.010640413E-1,1.159098148E1
1.577199688E1,-1.971577108E-1,-5.633077770E-2,1.244976234E1
1.579199688E1,-2.487288266E-1,5.962041020E-1,1.172247124E1
1.581199688E1,1.023808479E0,1.472328782E0,9.664492607E0
1.583199688E1,2.138299704E0,7.772727609E-1,1.117372990E1
1.585199688E1,1.309791088E0,-4.953124523E-1,1.423299313E1
1.587199688E1,5.172145963E-1,-6.175412536E-1,1.162333202E1
1.589199844E1,8.038388491E-1,4.689953923E-1,7.467113018E0
1.591399844E1,2.174710989E0,4.218296111E-1,6.892504215E0
1.593602188E1,7.145255804E-1,-5.236119628E-1,1.030847454E1
1.595799688E1,-1.068599224E0,-9.676693082E-1,1.191953278E1
1.597800000E1,-2.796044648E-1,-5.627523065E-1,1.082268238E1
1.599999844E1,1.524215817E0,1.891802400E-1,9.533778191E0
1.601999844E1,1.526629210E0,6.676853895E-1,9.259823799E0
1.604199844E1,1.861060858E-1,6.042007208E-1,9.090142250E0
1.606399844E1,-5.670331717E-1,7.186340094E-1,9.008729935E0
1.608600469E1,-1.219893619E-1,1.064816356E0,8.310733795E0
1.610799844E1,2.569552958E-1,1.568747997E0,8.259660721E0
1.612799844E1,3.899292648E-1,1.801971912E0,8.614710808E0
1.614999844E1,-6.895300746E-2,1.730404496E0,8.992755890E0
1.617199844E1,-4.657201171E-1,1.774093866E0,9.341993332E0
1.619399844E1,4.762354493E-1,1.951906443E0,1.032530212E1
1.621399844E1,1.441625476E0,2.312453985E0,1.066778755E1
1.623399844E1,5.544779897E-1,1.044820070E0,1.160074997E1
1.625399844E1,-3.774411082E-1,-6.167463660E-1,1.229305744E1
1.627399844E1,1.970811039E-1,-8.850118518E-1,1.239168835E1
1.629599688E1,1.152578235E0,-2.234843671E-1,1.178972912E1
1.631599844E1,1.831870675E0,-1.922927052E-1,1.173554420E1
1.633602188E1,1.457015395E0,-4.372386634E-1,1.199930763E1
1.635799688E1,1.449066550E-1,-4.028675258E-1,1.131961346E1
1.637799844E1,-5.472570062E-1,-5.294058472E-2,9.897170067E0
1.639999688E1,4.722036123E-1,-1.288750917E-1,8.538297653E0
1.641999688E1,1.707630873E0,-3.770388663E-2,9.290920258E0
1.643999844E1,1.518670917E0,-2.211476266E-1,1.028126717E1
1.646000000E1,-1.567627490E-1,-5.335525870E-1,9.981369019E0
1.648199688E1,-7.584065199E-1,-4.308892787E-1,8.978955269E0
1.650199688E1,9.826761484E-2,6.727706641E-2,8.586565018E0
1.652199688E1,4.274033308E-1,4.831977785E-1,9.082030296E0
1.654199844E1,3.432327509E-2,5.719652176E-1,8.955512047E0
1.656399688E1,-2.154685855E-1,6.469707489E-1,8.575120926E0
1.658399688E1,-4.074931443E-1,8.610985875E-1,8.154478073E0
1.660399688E1,-3.409630358E-1,1.192954063E0,7.973505974E0
1.662399688E1,6.064991653E-2,1.382009864E0,8.273690224E0
1.664399844E1,6.053212285E-1,1.307894945E0,9.353206635E0
1.666600000E1,-1.008341983E-1,9.510056376E-1,1.014996910E1
1.668600000E1,-5.472761989E-1,9.110895395E-1,9.086953163E0
1.670799844E1,8.494627476E-2,8.437358141E-1,8.692101479E0
1.672999844E1,8.673426509E-1,6.418471932E-1,1.064036942E1
1.675199844E1,7.462822199E-1,-4.571009800E-2,1.260176563E1
1.677399844E1,-6.687867641E-1,6.788040996E-1,1.175799084E1
1.679599688E1,1.352723986E-1,1.499670506E0,9.042554855E0
1.681600469E1,2.021893740E0,1.149532795E0,9.245410919E0
1.683799844E1,1.547123551E0,-7.956027985E-1,1.308169842E1
1.686002188E1,-1.462751985E0,-9.532370567E-1,1.272139931E1
1.688199844E1,-5.505418777E-1,-4.648581892E-2,9.104393005E0
1.690199844E1,1.892625928E0,7.702817321E-1,8.152458191E0
1.692199844E1,2.669668913E0,9.087048769E-1,9.089443207E0
1.694199844E1,1.185244799E0,5.044103861E-1,9.648843765E0
1.696199844E1,1.004607044E-2,-1.716929972E-1,1.082862949E1
1.698199844E1,1.947731078E-1,-4.020343348E-2,1.122214031E1
1.700199844E1,1.160450459E0,2.076060176E-1,1.031023693E1
1.702199844E1,1.165650606E0,4.911178052E-1,8.991520882E0
1.704199844E1,3.488926291E-1,7.348283529E-1,8.177912712E0
1.706199844E1,-2.021472305E-1,8.650346398E-1,7.973304749E0
1.708199844E1,-4.071962535E-1,9.882785678E-1,8.332252502E0
1.710199844E1,-2.861262560E-1,1.059625745E0,8.510150909E0
1.712199844E1,2.280237712E-2,1.326655865E0,8.419066429E0
1.714199844E1,3.122230470E-1,1.513671756E0,8.522773743E0
1.716199844E1,-2.422931977E-2,1.423994541E0,9.167531967E0
1.718199844E1,-5.447958112E-1,1.113600731E0,1.020846367E1
1.720199844E1,-5.075803399E-1,8.583883643E-1,1.185385513E1
1.722199844E1,5.365884677E-2,7.851640582E-1,1.218713760E1
1.724199844E1,7.537138462E-1,8.395795226E-1,1.167492199E1
1.726199844E1,7.755393386E-1,5.762364268E-1,1.127282143E1
1.728399844E1,-4.240610078E-2,3.301699758E-1,1.142507362E1
1.730599844E1,1.683602631E-1,3.992762268E-1,1.119733715E1
1.732599844E1,4.262540936E-1,1.395628005E-1,1.198625469E1
1.734599844E1,4.207474291E-1,-7.146213204E-2,1.254204464E1
1.736600313E1,-4.019290209E-1,5.594770610E-2,1.098607254E1
1.738799844E1,-9.638960361E-1,4.406576157E-1,9.271009445E0
1.740800469E1,7.202716172E-2,5.174061060E-1,9.189760208E0
1.742999844E1,1.471926570E0,5.228936672E-1,9.751688004E0
1.744999844E1,9.702071548E-1,3.355425596E-1,1.000223732E1
1.747199844E1,-4.842320979E-1,1.076528877E-1,8.527265549E0
1.749399844E1,-9.817472100E-1,1.899080873E-1,7.735359192E0
1.751599844E1,-5.243780613E-1,6.084145233E-2,8.659358025E0
1.753602344E1,-3.368354440E-1,-1.546175331E-1,1.002287483E1
1.755799844E1,-5.266573429E-1,9.394847788E-3,9.645318985E0
1.757799844E1,-1.180820316E-1,2.993997335E-1,8.658390999E0
1.759799844E1,1.941793412E-1,7.937161922E-1,8.654685020E0
1.761799844E1,5.285439491E-1,1.089074492E0,9.061123848E0
1.763799844E1,2.064951062E-1,1.231740117E0,9.186695099E0
1.765999844E1,-1.325429976E-1,1.081288576E0,8.653534889E0
1.767999844E1,-3.145214915E-1,9.702263474E-1,8.412315369E0
1.769999844E1,9.227253497E-2,8.781357408E-1,9.016190529E0
1.771999844E1,-1.462091058E-1,8.414565325E-1,1.051820660E1
1.774199688E1,-4.391540587E-1,5.597739220E-1,1.114557457E1
1.776199844E1,-3.733039200E-1,4.058555067E-1,1.090079117E1
1.778399844E1,-6.582713723E-1,5.741583109E-1,1.112438107E1
1.780599844E1,-8.815259337E-1,1.206964970E0,1.049292374E1
1.782799688E1,1.931067407E-1,7.411108017E-1,9.980775833E0
1.784800156E1,1.044666886E0,-8.226764798E-1,1.219024086E1
1.787000000E1,-5.171475559E-2,-1.885702014E0,1.473779583E1
1.789199844E1,-9.652559161E-1,-8.808459640E-1,1.199852276E1
1.791399688E1,4.269149005E-1,1.744128168E-1,8.642464638E0
1.793399688E1,1.489327550E0,4.438371062E-1,8.637312889E0
1.795399688E1,1.114759564E0,4.077517092E-1,1.026961231E1
1.797399688E1,3.442287147E-1,2.244229019E-1,1.049998283E1
1.799399844E1,4.170986712E-1,1.073368564E-1,9.338545799E0
1.801399844E1,4.955901802E-1,3.943345845E-1,8.916131973E0
1.803399844E1,6.744657755E-1,4.976683259E-1,8.893366814E0
1.805399844E1,2.282057405E-1,3.336559534E-1,8.774165154E0
1.807599688E1,-2.666757405E-1,3.428305387E-1,9.387866020E0
1.809602656E1,-4.832935631E-1,3.403597176E-1,9.101625443E0
1.811799844E1,-4.826710522E-1,7.308827639E-1,8.318433762E0
1.813799844E1,3.473507613E-2,1.137332082E0,7.739640236E0
1.815800000E1,3.234949708E-1,1.430114150E0,7.918247700E0
1.817999688E1,6.974979639E-1,1.383743286E0,9.097718239E0
1.819999688E1,2.962681055E-1,1.269932508E0,1.032018757E1
1.821999844E1,-9.224380553E-2,1.039878368E0,1.031278419E1
1.823999844E1,5.278161168E-1,1.388206005E0,9.629479408E0
1.825999844E1,1.214061379E0,1.633764863E0,9.738118172E0
1.828199844E1,8.943971395E-1,1.004262209E0,1.108819962E1
1.830399688E1,1.493407339E-1,9.781750292E-2,1.222535896E1
1.832399688E1,-6.004083157E-1,1.451460868E-1,1.147361851E1
1.834399844E1,-1.115506440E-1,8.626787364E-2,1.017803860E1
1.836400000E1,1.165966630E0,-4.005690813E-1,1.183019161E1
1.838599844E1,3.830435574E-1,-6.044976115E-1,1.352882957E1
1.840799844E1,-1.327996731E0,-5.523902178E-2,1.143626881E1
1.842999844E1,-9.795540571E-1,8.499799371E-1,8.536583900E0
1.845000313E1,1.237438321E0,9.408925176E-1,8.087202072E0
1.847199844E1,1.891783237E0,6.920583248E-1,9.765929222E0
1.849399844E1,-1.034965515E-1,-3.929363936E-2,1.032343388E1
1.851599844E1,-1.436233759E0,-2.140703648E-1,9.647694588E0
1.853599844E1,-8.374151587E-1,1.181682199E-1,8.773159027E0
1.855599844E1,4.096766412E-1,2.709566057E-1,8.535089493E0
1.857600469E1,3.159867525E-1,3.078847528E-1,9.014369965E0
1.859799844E1,-7.957081199E-1,3.590919375E-1,8.451024055E0
1.861799844E1,-1.067919254E0,7.261805534E-1,8.904658318E0
1.863799844E1,-5.980907679E-1,8.471738696E-1,8.923438072E0
1.865999844E1,-4.380431399E-2,9.955665469E-1,8.733521461E0
1.868199688E1,-4.844906554E-2,1.013513446E0,9.167877197E0
1.870199688E1,-5.734687448E-1,9.956718683E-1,1.001631546E1
1.872199688E1,-6.011266112E-1,8.847628832E-1,9.967989922E0
1.874199688E1,-4.312053025E-1,9.345144033E-1,9.208291054E0
1.876199688E1,-2.225171030E-1,1.002892733E0,9.640856743E0
1.878199688E1,-3.550313711E-1,8.520771861E-1,1.044548988E1
1.880199688E1,-1.496376097E-1,4.227394164E-1,1.166154385E1
1.882199844E1,-8.002667427E-1,3.910401464E-1,1.178181839E1
1.884199844E1,-1.337851167E0,1.177334309E0,9.886778831E0
1.886399844E1,4.752969444E-1,5.108939409E-1,9.277091026E0
1.888599844E1,1.516889572E0,-8.157619834E-1,1.345461941E1
1.890599844E1,-2.776795030E-1,-1.757344007E0,1.585206699E1
1.892799844E1,-1.432585001E0,-5.435125232E-1,1.151351452E1
1.894799844E1,1.525489539E-1,5.711320043E-1,7.763544083E0
1.896999688E1,1.781219006E0,8.617019057E-1,8.230106354E0
1.898999688E1,1.126280427E0,5.727600455E-1,1.087137127E1
1.900999688E1,7.917146385E-2,-5.861963332E-2,1.116079140E1
1.902999688E1,-1.306946874E-1,-5.277778208E-2,1.021819401E1
1.905000000E1,3.812239468E-1,3.223266006E-1,9.544954300E0
1.907199688E1,4.467484653E-1,6.753085256E-1,8.747780800E0
1.909199688E1,4.958774745E-1,8.128602505E-1,8.721491814E0
1.911199844E1,3.836851716E-1,8.715947866E-1,8.678617477E0
1.913399844E1,1.660426855E-1,8.794764876E-1,8.801478386E0
1.915600156E1,2.748447955E-1,8.429026604E-1,8.987613678E0
1.917600938E1,6.791009307E-1,1.055670500E0,8.128487587E0
1.919799688E1,6.483593583E-1,1.414341211E0,7.893845558E0
1.921799844E1,9.551907331E-2,1.591627002E0,8.541391373E0
1.923799844E1,2.465070225E-2,1.461688876E0,9.719290733E0
1.925999844E1,-1.219606325E-1,1.219682932E0,1.063595390E1
1.928199844E1,-2.344019115E-1,1.237716079E0,1.051263237E1
1.930399688E1,7.600153983E-2,1.290359735E0,1.015017033E1
1.932399688E1,1.020226836E0,1.150050044E0,1.095395088E1
1.934399688E1,8.320233822E-1,1.245492458E0,1.094619465E1
1.936399844E1,6.119291782E-1,4.697136581E-1,9.858680725E0
1.938399844E1,4.878904223E-1,-6.283342838E-1,1.142018890E1
1.940400625E1,1.671535820E-1,-8.652166128E-1,1.401424885E1
1.942599844E1,-3.354276717E-1,-1.157835945E-1,1.218672562E1
1.944599844E1,7.141424716E-2,1.008361101E0,8.000100136E0
1.946599844E1,1.514045238E0,1.324903369E0,7.318528652E0
1.948799844E1,1.518986940E0,1.016204476E0,1.071551800E1
1.950999844E1,-8.463981748E-2,7.086166143E-1,1.198492336E1
1.953199844E1,-9.114438295E-1,6.249728203E-1,9.751162529E0
1.955399844E1,-3.798353076E-1,9.307315946E-1,8.179177284E0
1.957399844E1,3.677493930E-1,8.261815310E-1,8.730752945E0
1.959600781E1,1.300051510E-1,8.114715815E-1,9.839680672E0
1.961799844E1,-4.141681492E-1,7.669681311E-1,9.583405495E0
1.963799844E1,-3.159005344E-1,1.048171878E0,8.446810722E0
1.965799844E1,1.162911654E-1,1.353126168E0,7.809972286E0
1.967799844E1,1.626429111E-1,1.661058784E0,7.684027195E0
1.969799844E1,1.410376281E-1,1.673575640E0,8.418607712E0
1.971799844E1,6.473921239E-2,1.408030033E0,9.354710579E0
1.973799844E1,-5.235448480E-1,1.097578645E0,1.033051109E1
1.975799844E1,-6.588364244E-1,1.132850051E0,1.015845394E1
1.977799844E1,1.415260434E-1,1.074067593E0,9.536478043E0
1.979799844E1,6.782773733E-1,5.944994688E-1,1.025161743E1
1.981799844E1,1.474732459E-1,3.763780892E-1,1.145314217E1
1.983799844E1,-1.029851437E0,1.251928091E0,1.152230644E1
1.985799844E1,-8.824931383E-1,1.948401332E0,9.755011559E0
1.987799844E1,1.056034565E0,8.803862929E-1,9.151586533E0
1.989799844E1,1.432096601E0,-2.859251499E-1,1.210346508E1
1.991799844E1,-1.858283579E-1,-5.716587305E-1,1.473929977E1
1.993799844E1,-1.283225060E0,-2.245474011E-1,1.091641045E1
1.995799844E1,4.646570683E-1,5.364352465E-1,9.591086388E0
1.997800000E1,1.949244142E0,1.038298249E0,9.755194664E0
1.999999844E1,9.511492848E-1,8.110789061E-1,1.071343899E1
2.001999844E1,-3.796725273E-1,5.250771642E-1,1.039557648E1
2.004199844E1,-1.877820343E-1,3.772878647E-1,9.813383102E0
2.006399844E1,6.526497602E-1,6.781528592E-1,9.116257668E0
2.008599844E1,4.283992946E-1,9.406531453E-1,8.396561623E0
2.010599844E1,-1.784637868E-1,1.378045082E0,8.190237999E0
2.012599844E1,-2.229863703E-1,1.252675056E0,8.070451736E0
2.014799688E1,1.407120228E-1,1.167154193E0,8.849161148E0
2.016799844E1,6.351338625E-1,1.276281834E0,8.957962990E0
2.018799844E1,6.827305257E-2,1.639013052E0,8.715823174E0
2.020799844E1,-5.391742289E-2,1.768596768E0,8.673627853E0
2.022799844E1,2.833681405E-1,2.006618738E0,9.586996078E0
2.024799844E1,1.227363572E-1,1.966195107E0,9.700922012E0
2.026800000E1,2.181883901E-1,1.952461958E0,9.603727341E0
2.028999844E1,2.875244617E-1,1.611537099E0,9.906412125E0
2.031199688E1,3.071090281E-1,1.054348946E0,1.087733650E1
2.033199688E1,2.772868574E-1,7.940800786E-1,1.097171688E1
2.035199688E1,2.825541198E-1,1.135330439E0,1.013079548E1
2.037199844E1,1.341260552E0,6.029748917E-1,1.075938034E1
2.039199844E1,1.249639153E0,2.469666898E-1,1.191443825E1
2.041399688E1,2.108429670E-1,1.066569015E-1,1.181496429E1
2.043399844E1,-6.173209548E-1,1.963341236E-1,1.083371449E1
2.045600625E1,-2.886641324E-1,6.330844164E-1,8.722948074E0
2.047799844E1,1.093278646E0,1.407704473E0,8.864082336E0
2.049799844E1,8.223508596E-1,1.380898952E0,9.040725708E0
2.051799844E1,-3.612850308E-1,9.274467230E-1,8.883225441E0
2.053799844E1,-1.181634307E0,6.256335974E-1,9.178938866E0
2.055799844E1,-7.850012779E-1,6.857663989E-1,8.643949509E0
2.057999844E1,-2.484989762E-1,8.807981014E-1,8.622975349E0
2.060199844E1,-5.130965710E-1,1.028874636E0,9.245534897E0
2.062399688E1,-9.872346520E-1,1.199763179E0,9.030986786E0
2.064399844E1,-8.033695817E-1,1.568987370E0,9.290057182E0
2.066600469E1,8.571912050E-1,1.910649538E0,8.951844215E0
2.068799844E1,1.019556403E0,2.078703403E0,8.922223091E0
2.070799844E1,2.457887381E-1,1.812458634E0,9.045983315E0
2.072999844E1,-4.246739149E-1,1.602602005E0,9.814340591E0
2.075199844E1,-4.341645539E-1,1.447802544E0,1.051822567E1
2.077399844E1,4.929086566E-1,1.356372714E0,1.009125423E1
2.079599688E1,1.386376858E0,1.338569403E0,9.940457344E0
2.081600469E1,7.876444459E-1,8.820335269E-1,1.105745792E1
2.083799844E1,-5.622159839E-1,7.330183983E-1,1.101667023E1
2.085999844E1,-9.876369238E-1,1.914346218E0,1.044985771E1
2.087999844E1,1.073789954E0,1.925704360E0,9.999143600E0
2.089999844E1,2.530048609E0,6.836594939E-1,1.295108891E1
2.092199688E1,1.172727942E0,-1.171846747E0,1.536389828E1
2.094199844E1,-5.555793047E-1,-1.147167325E0,1.220059395E1
2.096199844E1,7.492510080E-1,1.793640107E-1,9.534448624E0
2.098399688E1,2.484760046E0,1.136719108E0,8.181255341E0
2.100399688E1,1.380314708E0,8.265262842E-1,1.024707794E1
2.102399688E1,2.586025000E-1,3.407236338E-1,1.143445778E1
2.104399688E1,5.630300045E-1,4.844906628E-1,1.067973900E1
2.106399844E1,1.286184311E0,1.086651444E0,8.670629501E0
2.108599844E1,1.398730993E0,1.611546755E0,7.735206127E0
2.110600000E1,6.018161178E-1,1.574762225E0,8.111680031E0
2.112800000E1,1.373314112E-1,1.219548821E0,8.507029533E0
2.114800469E1,2.154111117E-1,1.126136661E0,9.223767281E0
2.116999688E1,2.970533967E-1,1.028845906E0,7.980917931E0
2.118999844E1,1.425411999E-1,1.285360694E0,7.297728062E0
2.121199688E1,1.958840042E-1,9.924731851E-1,7.969665527E0
2.123199688E1,-1.469082199E-2,6.665457487E-1,1.005315685E1
2.125199844E1,-6.317628026E-1,2.857048512E-1,1.116682529E1
2.127199844E1,-5.229223371E-1,7.509365678E-1,1.006017685E1
2.129399688E1,5.726547241E-1,1.090692997E0,9.204843521E0
2.131399688E1,1.986153126E0,1.019642591E0,1.050134182E1
2.133399688E1,1.533639431E0,3.738881350E-1,1.069793415E1
2.135399844E1,-1.367280781E-1,-7.479485869E-2,1.010221004E1
2.137600469E1,6.248291731E-1,-7.698986530E-1,1.107386303E1
2.139799688E1,1.972161412E0,-1.481273413E0,1.316726685E1
2.141799844E1,8.968200684E-1,-1.365892053E0,1.267996979E1
2.143799844E1,-5.645910501E-1,-7.503619194E-1,1.064673710E1
2.145799844E1,-1.893143207E-1,-7.017596364E-1,9.235795975E0
2.147799844E1,1.301737070E0,-4.815984368E-1,9.604905128E0
2.149799844E1,1.687040687E0,-1.685422212E-1,1.023317242E1
2.151799844E1,8.884307742E-1,6.462428719E-2,1.031559086E1
2.153799844E1,-1.383273900E-1,5.828444660E-2,8.909399033E0
2.155799844E1,-7.272244096E-1,4.531936646E-1,8.318758965E0
2.157799844E1,-5.504844189E-1,4.657488465E-1,8.540644646E0
2.159800000E1,-2.088126987E-1,6.969712377E-1,9.377954483E0
2.161999844E1,-2.237333655E-1,7.803182602E-1,8.699359894E0
2.163999844E1,-1.686284244E-1,1.033682227E0,8.078333855E0
2.165999844E1,3.639186546E-2,1.229872704E0,8.221697807E0
2.167999844E1,1.510549784E-1,1.373381138E0,8.741258621E0
2.169999844E1,2.591867149E-1,1.256831408E0,9.174073219E0
2.171999844E1,4.351796806E-1,9.739612341E-1,9.934768677E0
2.173999844E1,-6.824432313E-2,7.567400932E-1,1.026689243E1
2.175999844E1,-6.334099919E-2,9.241235256E-1,1.017247486E1
2.177999844E1,1.321024746E-1,6.146777868E-1,9.472017288E0
2.179999844E1,1.939303428E-1,1.632175148E-1,1.081563377E1
2.181999844E1,-4.152599275E-1,-1.029506698E-2,1.274236298E1
2.183999844E1,-1.331051588E0,8.998080492E-1,1.157144547E1
2.186000000E1,3.435105085E-1,1.485152125E0,9.162562370E0
2.188199844E1,2.684072495E0,5.351711512E-1,1.039830589E1
2.190199844E1,1.170649648E0,-1.830644846E0,1.545712852E1
2.192399844E1,-2.542201757E0,-2.382489204E0,1.530540371E1
2.194599844E1,-1.461937904E0,-1.339498401E0,9.960520744E0
2.196600156E1,2.437096119E0,8.577945828E-2,7.293667316E0
2.198799844E1,2.183033228E0,6.893385649E-1,9.151367188E0
2.200799844E1,-1.250635237E-1,8.042602241E-2,1.023149586E1
2.202799844E1,-1.422873974E0,-4.356106222E-1,9.913316727E0
2.204800000E1,-8.341302872E-1,-2.054129392E-1,9.594897270E0
2.206999844E1,7.035121918E-1,2.659096122E-1,9.119964600E0
2.208999844E1,8.787869215E-1,6.359861493E-1,8.568723679E0
2.210999844E1,1.099800467E-1,6.294547915E-1,8.627592087E0
2.212999844E1,-2.090616897E-2,6.583096981E-1,9.250678062E0
2.215000625E1,4.713704437E-2,9.054679275E-1,8.924683571E0
2.217199844E1,1.826297045E-1,1.347150326E0,7.520455360E0
2.219199844E1,7.247822881E-1,1.781515837E0,7.255791187E0
2.221199844E1,5.095627308E-1,1.759613752E0,8.480434418E0
2.223199844E1,-1.516487449E-1,1.532193303E0,1.036641407E1
2.225199844E1,7.030333579E-2,1.572645783E0,1.046461487E1
2.227199844E1,6.679822803E-1,1.847145796E0,8.939451218E0
2.229199844E1,1.247082114E0,2.106351614E0,9.201376915E0
2.231199844E1,1.459706426E0,1.852882266E0,1.006941891E1
2.233199844E1,1.218122005E0,1.128205299E0,1.098650265E1
2.235199844E1,3.973800242E-1,9.466961026E-1,1.142846298E1
2.237199844E1,8.858067393E-1,8.285183311E-1,1.011320400E1
2.239199844E1,3.239881516E0,4.044285417E-2,1.152135849E1
2.241199844E1,2.137409210E0,-1.281759739E-1,1.335521126E1
2.243199844E1,-6.418280005E-1,-2.073665857E-1,1.124491405E1
2.245199844E1,-1.725003123E0,1.239238828E-1,9.981761932E0
2.247199844E1,-7.741315961E-1,2.009597123E-1,1.048403740E1
2.249199844E1,7.581862211E-1,2.012853175E-1,1.038391113E1
2.251199844E1,4.590546489E-1,4.445745349E-1,1.051663685E1
2.253199844E1,-1.268620491E0,4.200195968E-1,9.508620262E0
2.255399844E1,-2.023234606E0,5.001679063E-1,8.403236389E0
2.257399844E1,-1.281041503E0,6.465781331E-1,8.941011429E0
2.259399844E1,-2.743180394E-1,7.422408462E-1,1.006525326E1
2.261399844E1,-4.181521237E-1,9.101318121E-1,9.824291229E0
2.263399844E1,-1.153995633E0,1.150835276E0,8.181667328E0
2.265399844E1,-7.505535483E-1,1.389221191E0,7.585539341E0
2.267399844E1,1.016769558E-1,1.319118857E0,8.118019104E0
2.269399844E1,7.211718559E-1,1.139869928E0,9.210455894E0
2.271399844E1,6.099372506E-1,1.204944253E0,9.459481239E0
2.273399844E1,-3.337325752E-1,1.277172446E0,8.950684547E0
2.275399844E1,-5.867422223E-1,1.264042735E0,8.880706787E0
2.277599688E1,-2.807249427E-1,9.697857499E-1,9.560966492E0
2.279600313E1,4.903516471E-1,8.470398784E-1,1.027545452E1
2.281602813E1,6.329023838E-1,7.962731719E-1,1.054907322E1
2.283799844E1,-3.955987096E-1,7.072088718E-1,1.158692074E1
2.286000000E1,-9.729748368E-1,1.836869836E0,1.094174099E1
2.288199688E1,1.223494530E0,1.810006976E0,8.896297455E0
2.290199688E1,2.642968655E0,6.277500987E-1,1.048449612E1
2.292199688E1,-6.833051145E-2,-3.191183507E-1,1.255187988E1
2.294199844E1,-1.282755852E0,4.406289011E-2,1.071008778E1
2.296199844E1,7.084730268E-1,2.516210079E-1,7.924529552E0
2.298199844E1,1.827091932E0,-3.044467047E-2,8.970863342E0
2.300199844E1,7.126676440E-1,6.660669297E-2,1.063004494E1
2.302199844E1,-2.470816225E-1,3.933577538E-1,1.014070797E1
2.304199844E1,-4.383592010E-1,6.373748183E-1,9.394913673E0
2.306199844E1,2.053650469E-1,7.895693779E-1,9.708994865E0
2.308199844E1,5.797607303E-1,8.971073627E-1,1.007334518E1
2.310199844E1,4.523125663E-2,9.845914841E-1,9.561972618E0
2.312199844E1,-7.204631716E-2,1.036440253E0,8.231686592E0
2.314399844E1,6.260837317E-1,1.323179603E0,7.677975178E0
2.316599844E1,1.118609428E0,1.527883768E0,8.478874207E0
2.318599844E1,1.150701165E0,1.487412214E0,8.016801834E0
2.320599844E1,5.467877984E-1,1.620903373E0,7.762882710E0
2.322599844E1,-2.672886550E-1,1.488705039E0,8.572764397E0
2.324599844E1,-2.419197261E-1,1.309369802E0,9.878533363E0
2.326599844E1,7.440699935E-1,1.247570634E0,1.108407116E1
2.328600156E1,9.408350587E-1,1.255021334E0,1.105433559E1
2.330600469E1,4.911082089E-1,7.754436135E-1,1.024223232E1
2.332799844E1,6.624181271E-1,3.353989124E-1,1.145378399E1
2.334799844E1,6.021800637E-1,-2.656893730E-1,1.289421272E1
2.336799844E1,-3.494768441E-1,2.299870104E-1,1.204491329E1
2.338799844E1,1.186279058E-1,3.869413137E-1,1.071212769E1
2.340799844E1,1.524704218E0,1.792490929E-1,1.120573521E1
2.342799844E1,1.216225743E0,5.795978904E-1,1.152320671E1
2.344799844E1,-1.506431680E-2,8.754254580E-1,8.903987885E0
2.346799844E1,-6.771759689E-2,1.322710156E0,6.919989586E0
2.348799844E1,1.374319673E0,9.231083989E-1,8.211269379E0
2.350799844E1,1.298241496E0,8.848011494E-2,1.083041096E1
2.352799844E1,-7.701955438E-1,-4.606252313E-1,1.146211624E1
2.354799844E1,-1.694462776E0,-5.684313774E-1,1.024683857E1
2.356799844E1,-4.259285033E-1,-3.085168600E-1,8.764348984E0
2.358799844E1,5.481572747E-1,9.720458835E-2,9.346282959E0
2.360799844E1,-2.757258415E-1,1.159368232E-1,1.059937954E1
2.362799844E1,-1.166474223E0,3.773836493E-1,1.022272396E1
2.364800469E1,-8.984960318E-1,9.611666203E-1,9.099805832E0
2.366999844E1,-1.762419790E-1,1.461842060E0,8.444005013E0
2.368999844E1,6.670916080E-1,1.655734181E0,9.100294113E0
2.370999844E1,2.953678966E-1,1.625873685E0,9.277071953E0
2.372999844E1,-5.029355884E-1,1.442324638E0,8.992861748E0
2.375199844E1,-4.639675617E-1,1.209943414E0,9.219744682E0
2.377199844E1,-1.296986938E-1,7.661349773E-1,1.005441189E1
2.379199844E1,4.653944969E-1,6.185851097E-1,1.105877972E1
2.381200000E1,4.804492593E-1,4.314926267E-1,1.199818707E1
2.383399844E1,-3.141863048E-1,4.479455650E-1,1.146699142E1
2.385399844E1,-7.226179838E-1,1.452504754E0,9.913039207E0
2.387399844E1,7.965125442E-1,1.516343713E0,8.696650505E0
2.389399844E1,1.829610586E0,-8.070375025E-2,1.183322620E1
2.391399844E1,-3.579140007E-1,-2.096200228E0,1.622118568E1
2.393399844E1,-2.982188940E0,-1.741523147E0,1.532751656E1
2.395399844E1,-1.353470922E0,-2.881852686E-1,8.537435532E0
2.397399844E1,1.714602828E0,5.534053445E-1,5.353348732E0
2.399399844E1,1.889226198E0,9.576232433E-1,9.340154648E0
2.401399844E1,6.574478149E-1,5.168697834E-1,1.109753704E1
2.403599844E1,1.822657883E-1,4.816463292E-1,9.251406670E0
2.405600469E1,8.658103347E-1,6.239576936E-1,8.154603004E0
2.407799688E1,1.189889550E0,9.085803628E-1,8.855031013E0
2.409799844E1,6.344442964E-1,9.537924528E-1,8.466146469E0
2.411799844E1,1.273715287E-3,9.520782232E-1,8.426833153E0
2.413799844E1,-1.982399076E-2,1.138711095E0,8.482992172E0
2.415799844E1,2.598187625E-1,1.544815540E0,8.100427628E0
2.417799844E1,5.274617672E-1,1.758809328E0,7.426392078E0
2.419800000E1,2.049532533E-1,1.815973282E0,8.082001686E0
2.421999844E1,3.416046873E-2,1.490946054E0,9.679680824E0
2.423999844E1,3.402064741E-1,1.425287485E0,1.086468697E1
2.425999844E1,9.051135778E-1,1.611939311E0,1.027132607E1
2.428199688E1,1.085818410E0,1.545725346E0,1.036922073E1
2.430199688E1,7.481880784E-1,1.399937630E0,1.079317570E1
2.432199844E1,5.669469833E-1,1.139639974E0,1.087534428E1
2.434399688E1,5.341081023E-1,3.887608945E-1,1.182507706E1
2.436399844E1,-2.263669819E-1,2.106131315E-1,1.222064781E1
2.438600156E1,-3.556634486E-1,5.646389723E-1,1.104531479E1
2.440799844E1,9.753019810E-1,5.150789618E-1,1.117830753E1
2.442799844E1,6.801639795E-1,5.537596941E-1,1.159494591E1
2.444799844E1,-7.379121184E-1,7.678300738E-1,1.024141788E1
2.446799844E1,-1.014787197E0,6.450554132E-1,8.347173691E0
2.448799844E1,-3.717333376E-1,3.987495005E-1,9.086962700E0
2.450799844E1,1.959510446E-1,-8.370129764E-2,1.077502823E1
2.452999688E1,-1.017574072E0,-4.010287821E-1,1.047217083E1
2.454999688E1,-1.964720249E0,-5.009531975E-1,8.959132195E0
2.456999688E1,-1.629857540E0,-2.553751469E-1,8.256902695E0
2.458999844E1,-4.304583073E-1,-1.618480310E-2,9.772345543E0
2.461199844E1,-3.200089931E-1,4.724047184E-1,1.012875652E1
2.463399844E1,-1.016434431E0,8.568273187E-1,8.138552666E0
2.465601875E1,-5.487414598E-1,1.185972691E0,7.033877373E0
2.467799688E1,4.329386950E-1,1.453184724E0,8.464710236E0
2.469799844E1,6.580032110E-1,1.656050205E0,8.910758972E0
2.471799844E1,2.751608193E-1,1.718261123E0,8.510784149E0
2.473799844E1,-2.708991468E-1,1.560693860E0,8.259201050E0
2.475799844E1,-5.618903637E-1,1.368190527E0,8.469546318E0
2.477799844E1,1.220468283E-1,1.198872566E0,9.556493759E0
2.479799844E1,2.274491638E-1,1.141938448E0,1.062442303E1
2.481799844E1,-4.159111381E-1,8.947610259E-1,1.037154770E1
2.483800000E1,-1.315470189E-1,5.861675739E-1,1.082517147E1
2.485999844E1,4.793670774E-1,1.232410550E0,1.066688633E1
2.487999844E1,1.181327939E0,1.544183493E0,9.348609924E0
2.490199844E1,1.437679768E0,-7.731355727E-2,1.109948063E1
2.492399844E1,-6.729813814E-1,-1.620328665E0,1.483807468E1
2.494599688E1,-1.679609179E0,-1.150117040E0,1.426283360E1
2.496599844E1,-3.491320908E-1,-1.649126112E-1,1.012576866E1
2.498599844E1,1.563241363E0,2.031336576E-1,7.993252754E0
2.500600781E1,1.567177415E0,2.321130633E-1,1.043217850E1
2.502799844E1,2.196344882E-1,-1.708693802E-1,1.137269688E1
2.504800469E1,2.543599904E-2,-2.669439018E-1,1.049761677E1
2.506999688E1,7.824251056E-1,8.078036457E-2,9.041750908E0
2.508999844E1,7.919444442E-1,4.436934590E-1,8.454969406E0
2.511199844E1,4.442201853E-1,6.798862219E-1,8.745693207E0
2.513399844E1,4.888001829E-2,7.160291076E-1,8.720793724E0
2.515599844E1,-2.243079692E-1,7.932277918E-1,8.573559761E0
2.517599844E1,4.639005065E-1,1.003381252E0,8.264631271E0
2.519799688E1,1.166186929E0,1.367951035E0,7.717613220E0
2.521799844E1,6.541916728E-1,1.429003119E0,8.316441536E0
2.523800000E1,1.569830179E-1,1.281960964E0,9.227875710E0
2.525999844E1,2.095884085E-1,1.107394934E0,1.033735847E1
2.528199688E1,5.391359329E-1,1.044465661E0,1.088183784E1
2.530199688E1,1.046179891E0,1.175610423E0,1.110531330E1
2.532199844E1,1.267576575E0,1.073962331E0,1.091311646E1
2.534399688E1,9.066075683E-1,1.632462442E-1,1.145135117E1
2.536399844E1,4.149247408E-1,-5.114972591E-2,1.227641296E1
2.538599844E1,4.879766107E-1,4.489990175E-1,1.151240444E1
2.540600312E1,1.361027122E0,-3.837426379E-2,1.164056015E1
2.542799688E1,1.494001031E0,-8.806065917E-1,1.256988430E1
2.544799844E1,1.052682549E-1,-1.039907098E0,1.216988945E1
2.546799844E1,-8.561090827E-1,-5.763514042E-1,1.078604126E1
2.548799844E1,3.001945913E-1,-1.794310510E-1,9.448104858E0
2.550999844E1,2.236414194E0,9.579680115E-2,9.732497215E0
2.552999844E1,1.082054734E0,-1.662533544E-2,1.098433876E1
2.555199688E1,-1.024000168E0,2.395255119E-1,1.061572742E1
2.557199688E1,-1.768941522E0,7.976043820E-1,8.889019966E0
2.559199688E1,-1.150442600E0,1.226779461E0,7.624278069E0
2.561199844E1,-6.376908422E-1,1.250606418E0,8.496217728E0
2.563399844E1,-7.798681259E-1,8.827517629E-1,9.437722206E0
2.565599844E1,-9.177166820E-1,6.216975451E-1,8.867750168E0
2.567600938E1,-2.023962438E-1,7.319553494E-1,8.412507057E0
2.569799844E1,8.573540449E-1,1.053238034E0,8.318614960E0
2.571799844E1,9.818812609E-1,1.419732928E0,8.057494164E0
2.573799844E1,5.695135593E-1,1.555895925E0,7.719605446E0
2.575999844E1,1.202846915E-1,1.150385141E0,8.780093193E0
2.578199688E1,1.529320180E-1,8.216517568E-1,9.900579453E0
2.580199688E1,5.037687421E-1,6.577543020E-1,9.983955383E0
2.582199844E1,8.644409180E-1,6.671873927E-1,9.639822006E0
2.584399688E1,2.568787038E-1,4.371812344E-1,9.186886787E0
2.586399688E1,3.387316465E-1,3.626832664E-1,1.066066170E1
2.588399688E1,-3.385401145E-2,9.604579210E-1,1.298042297E1
2.590399688E1,1.163869351E-1,1.445178509E0,1.078028584E1
2.592399688E1,1.054617047E0,6.494320035E-1,9.277032852E0
2.594399688E1,1.030770898E0,-3.687932491E-1,1.146200085E1
2.596399688E1,-2.224692143E-2,-3.116484284E-1,1.274391365E1
2.598399688E1,-2.292208672E-1,5.932927728E-1,1.083716202E1
2.600399844E1,1.006685138E0,9.024512172E-1,8.534247398E0
2.602599844E1,1.579694390E0,9.700347781E-1,8.636048317E0
2.604600469E1,1.052021861E0,5.496703982E-1,9.322877884E0
2.606799844E1,-5.917509198E-1,1.866615415E-1,9.614721298E0
2.608999844E1,-1.044140100E0,3.102885559E-3,9.654953003E0
2.611199844E1,7.211335748E-2,3.029527068E-1,9.587168694E0
2.613399844E1,9.430472851E-1,7.056957483E-1,9.322906494E0
2.615599688E1,6.300581247E-2,1.029803634E0,8.610353470E0
2.617601875E1,-7.887170911E-1,1.051954746E0,8.941787720E0
2.619799844E1,-4.460685253E-1,1.270401716E0,9.091712952E0
2.621799844E1,-7.889373600E-2,1.616651177E0,8.919742584E0
2.623799844E1,2.594261169E-1,1.760983229E0,8.627677917E0
2.625799844E1,3.939994276E-1,1.659832954E0,8.926992416E0
2.627799844E1,-4.579629004E-2,1.328255296E0,9.846116066E0
2.629999844E1,-6.579074860E-1,1.057739139E0,1.114039230E1
2.632199844E1,-4.582980871E-1,9.188563228E-1,1.083335018E1
2.634399688E1,4.068706334E-1,8.348485827E-1,1.038010979E1
2.636399688E1,1.142637610E0,3.901112378E-1,1.179354095E1
2.638399688E1,1.039303780E0,-1.378581375E-1,1.367399406E1
2.640399688E1,2.505196929E-1,7.565677911E-2,1.227388477E1
2.642399844E1,5.086912513E-1,4.471890032E-1,1.021767712E1
2.644600000E1,1.327086806E0,-1.565999389E-1,1.100608826E1
2.646600000E1,8.532839417E-1,-5.435891151E-1,1.308032799E1
2.648799844E1,-7.896364927E-1,-5.263891816E-1,1.191657448E1
2.650999844E1,-1.223245502E0,1.792107821E-1,8.967530251E0
2.653199688E1,5.456864834E-1,5.036730170E-1,7.640252113E0
2.655199844E1,1.494518161E0,7.119590044E-1,8.811974525E0
2.657399844E1,5.906304121E-1,4.804683924E-1,9.956995964E0
2.659599844E1,-9.270157218E-1,3.806014657E-1,9.789948463E0
2.661600156E1,-1.375047445E0,6.481391788E-1,8.850827217E0
2.663800000E1,-8.841403723E-1,1.121989965E0,7.865459919E0
2.665800156E1,-1.194131970E-1,1.421849370E0,8.225069046E0
2.667999844E1,-4.249516726E-1,1.532384872E0,9.040199280E0
2.669999844E1,-8.135114312E-1,1.436176300E0,9.360284805E0
2.672000000E1,-4.466239512E-1,1.599690676E0,8.752492905E0
2.674199844E1,5.411278605E-1,1.907422185E0,7.832726479E0
2.676199844E1,1.455061793E0,2.000412941E0,8.399242401E0
2.678399844E1,6.085007191E-1,1.655887365E0,1.020603085E1
2.680600000E1,-1.020322561E0,1.219347835E0,1.108611107E1
2.682799688E1,-7.688356042E-1,1.259388447E0,9.933034897E0
2.684799844E1,4.341932535E-1,1.351028800E0,9.336792946E0
2.686799844E1,1.234383345E0,9.924157858E-1,9.734670639E0
2.688799844E1,3.729017079E-1,5.366076827E-1,1.125839806E1
2.690799844E1,-1.490045786E0,7.204152942E-1,1.193950081E1
2.692799844E1,-1.363018990E0,2.000738621E0,1.038246441E1
2.694999844E1,1.635163069E0,1.780012369E0,8.354872704E0
2.697199688E1,2.045414448E0,7.382760644E-1,1.231535244E1
2.699199688E1,-5.856217071E-2,-2.916041911E-1,1.435364151E1
2.701199688E1,-9.918985963E-1,-4.785530269E-1,1.207006168E1
2.703199688E1,2.645113878E-2,2.257061750E-1,9.103071213E0
2.705199844E1,1.114539146E0,3.940472901E-1,8.222359657E0
2.707199844E1,6.093339324E-1,3.818177283E-1,8.846355438E0
2.709399688E1,-2.520711422E-1,2.241068631E-1,9.419220924E0
2.711399688E1,-3.527329266E-1,2.811942101E-1,9.730333328E0
2.713399844E1,6.717172265E-2,4.205175638E-1,9.340969086E0
2.715599844E1,3.497833014E-1,7.274351120E-1,8.571548462E0
2.717599844E1,6.578021049E-1,1.136201859E0,8.257103920E0
2.719799844E1,7.648229599E-1,1.184689283E0,8.393065453E0
2.721999844E1,7.061554790E-1,1.284996867E0,8.515428543E0
2.723999844E1,6.039900780E-1,1.344286799E0,8.250735283E0
2.725999844E1,6.337164044E-1,1.473439574E0,7.803335667E0
2.728199688E1,5.675694346E-1,1.546213746E0,8.401224136E0
2.730199688E1,-2.010171674E-2,1.328992724E0,9.968603134E0
2.732199844E1,-4.210730195E-1,1.190473795E0,1.111910343E1
2.734399688E1,-3.820379674E-1,1.177899241E0,1.119358158E1
2.736399688E1,4.734773189E-2,1.193375468E0,1.104858971E1
2.738399688E1,4.683728814E-1,1.243356824E0,1.113574791E1
2.740399688E1,2.835692465E-1,1.279997706E0,1.113685894E1
2.742399844E1,7.377972007E-1,1.120553493E0,1.064001465E1
2.744599688E1,1.808273554E0,1.506335884E-1,1.093768024E1
2.746599844E1,8.529103994E-1,-1.060229182E0,1.372352505E1
2.748799844E1,-9.018191695E-1,-1.783086538E0,1.423983097E1
2.750799844E1,-1.076940656E0,-1.200692177E0,1.185982132E1
2.752799844E1,1.323227435E-1,-5.179232955E-1,1.027377796E1
2.754799844E1,9.648154378E-1,9.077855200E-2,1.038072300E1
2.756799844E1,8.661360145E-1,2.951859236E-1,1.086926365E1
2.758799844E1,-1.929726638E-2,7.008786201E-1,9.915673256E0
2.760799844E1,-7.283065915E-1,9.009093642E-1,8.173891068E0
2.762800000E1,-7.573434711E-1,1.146238446E0,8.039825439E0
2.764800000E1,-6.042773724E-1,1.007594943E0,9.314794540E0
2.766800000E1,-1.203459859E0,7.963497639E-1,1.011699581E1
2.768800000E1,-1.478725910E0,4.550419748E-1,9.546956062E0
2.770800000E1,-8.845521808E-1,6.010882854E-1,8.538758278E0
2.773000000E1,2.084679306E-1,1.038058877E0,7.023774147E0
2.775199844E1,1.055804729E0,1.142666221E0,7.863487244E0
2.777199844E1,5.968745351E-1,7.434954047E-1,1.007440853E1
2.779199844E1,-3.644262254E-1,8.226956129E-1,9.669357300E0
2.781199844E1,-3.720301986E-1,1.385151029E0,8.221267700E0
2.783199844E1,-6.449022144E-2,1.506556153E0,8.461846352E0
2.785199844E1,7.007924318E-1,1.326234460E0,9.762989044E0
2.787199844E1,8.379897475E-1,7.592971325E-1,1.198478889E1
2.789200000E1,-4.746073782E-1,1.558146477E-1,1.152512169E1
2.791399844E1,-1.239487767E0,1.343616486E0,9.752503395E0
2.793400000E1,5.763705373E-1,1.831286669E0,7.073113441E0
2.795600000E1,2.607496262E0,6.665553451E-1,9.801468849E0
2.797600625E1,7.748306990E-1,-7.993090153E-1,1.504901409E1
2.799800000E1,-1.489509463E0,-8.308454752E-1,1.380011177E1
2.801999844E1,5.043146387E-2,-4.068227485E-2,8.876560211E0
2.803999844E1,2.727752209E0,6.179051399E-1,8.098405838E0
2.805999844E1,2.335696936E0,1.008514285E0,9.862051964E0
2.807999844E1,5.301529169E-1,8.901258707E-1,1.014542007E1
2.809999844E1,-4.773080349E-1,5.908219814E-1,9.630514145E0
2.811999844E1,-1.307712942E-1,6.720524430E-1,8.856842041E0
2.813999844E1,8.103032112E-1,8.322724104E-1,8.817538261E0
2.815999844E1,9.672574997E-1,1.096304893E0,8.761380196E0
2.818199844E1,6.775111556E-1,1.188309312E0,9.101711273E0
2.820199844E1,4.182287157E-1,1.184229612E0,8.020077705E0
2.822399844E1,7.371076941E-1,1.451422453E0,7.652835846E0
2.824600625E1,9.831166863E-1,1.617762089E0,7.984720230E0
2.826800000E1,8.088283539E-1,1.650744677E0,9.538537979E0
2.828999844E1,-3.620032920E-3,1.350195646E0,1.042653847E1
2.830999844E1,-1.636293232E-1,1.260891914E0,1.010941124E1
2.833199844E1,3.478200436E-1,1.300846457E0,1.043490791E1
2.835399844E1,8.039537668E-1,1.094025612E0,1.142190361E1
2.837600000E1,5.347497463E-1,6.434560418E-1,1.147910500E1
2.839799844E1,-2.332622856E-1,8.601409197E-1,1.065843105E1
2.841799844E1,-3.202388287E-1,9.682438970E-1,9.650260925E0
2.843799844E1,4.005882442E-1,7.491935790E-2,1.085300255E1
2.845799844E1,5.569008589E-1,1.880597472E-1,1.264280319E1
2.847799844E1,8.084357381E-1,6.011361480E-1,1.228873825E1
2.849799844E1,9.830209613E-1,1.116876006E0,9.843884468E0
2.851799844E1,1.621018171E0,1.360289693E0,7.045513153E0
2.853799844E1,1.695899248E0,1.083586931E0,8.030660629E0
2.855799844E1,6.928149462E-1,5.212081075E-1,1.106812572E1
2.857799844E1,-8.224849105E-1,-8.423759788E-2,1.211184502E1
2.859799844E1,-1.398194551E0,-4.313393682E-2,1.073667240E1
2.861799844E1,-9.859610200E-1,4.276906252E-1,8.753737450E0
2.863799844E1,-1.161858216E-1,9.014169574E-1,8.181350708E0
2.865799844E1,-1.638783067E-1,1.368908763E0,7.999573708E0
2.867999688E1,-3.432040215E-1,1.347514153E0,8.883618355E0
2.869999844E1,-3.346806765E-1,1.275171041E0,9.379035950E0
2.872199688E1,-4.284663498E-2,1.488810420E0,8.385633469E0
2.874199688E1,7.369735837E-1,1.828135848E0,6.709022522E0
2.876199844E1,1.086594105E0,1.761691928E0,8.280835152E0
2.878199844E1,9.698431939E-2,1.129392862E0,1.199632072E1
2.880399688E1,-7.492414713E-1,5.996900797E-1,1.209567928E1
2.882399844E1,-2.618298866E-2,6.753372550E-1,9.820162773E0
2.884599688E1,1.919239998E0,7.222061753E-1,9.387262344E0
2.886600000E1,1.417578101E0,6.648697853E-1,1.111136532E1
2.888799844E1,-2.537662089E-1,1.326799512E0,1.123246384E1
2.890799844E1,2.894110978E-2,9.606398940E-1,9.148666382E0
2.892799844E1,1.787740827E0,-5.400552750E-1,1.068291759E1
2.894799844E1,1.395733356E0,-1.222096324E0,1.475173950E1
2.896799844E1,-1.432019919E-1,-8.120174408E-1,1.489338112E1
2.898799844E1,1.173254624E-1,-1.353490204E-1,1.114298820E1
2.900799844E1,1.372365952E0,5.646676421E-1,7.450094700E0
2.902799844E1,1.790489435E0,9.941874146E-1,8.411730766E0
2.904799844E1,9.440912008E-1,9.441677928E-1,9.831176758E0
2.906799844E1,8.924625814E-2,7.246195078E-1,9.371556282E0
2.908799844E1,-3.349871337E-1,7.847043872E-1,8.747034073E0
2.910799844E1,1.434893012E-1,8.814780116E-1,8.361088753E0
2.912799844E1,2.921213508E-1,9.095476866E-1,7.836097717E0
2.914799844E1,1.673738509E-1,8.906143308E-1,8.569058418E0
2.916799844E1,-4.870189130E-1,8.352603912E-1,8.029453278E0
2.918799844E1,-1.210709453E0,1.053295493E0,7.629056454E0
2.920799844E1,-1.363660693E0,1.300348401E0,7.746171474E0
2.922799844E1,-3.147513568E-1,1.160737634E0,9.484629631E0
2.924799844E1,2.829754949E-1,1.286940932E0,1.037816525E1
2.926799844E1,1.950220913E-1,1.486406565E0,8.893846512E0
2.928799844E1,-2.091574669E-2,1.622004628E0,8.106383324E0
2.930999688E1,-2.803705931E-1,1.495743990E0,1.006963825E1
2.932999688E1,-2.314426899E-1,9.835380912E-1,1.292223454E1
2.935001406E1,2.480967492E-1,4.766951203E-1,1.422402000E1
2.937199844E1,2.191173434E-1,3.951964974E-1,1.189845467E1
2.939199844E1,-3.542173505E-1,1.085607648E0,9.230384827E0
2.941199844E1,3.135446608E-1,6.793404222E-1,8.992133141E0
2.943399844E1,1.210230708E0,-3.558166921E-1,1.250983810E1
2.945599844E1,5.544109344E-1,-3.886268437E-1,1.304634953E1
2.947600000E1,-1.396968812E-1,1.973588467E-1,1.054570198E1
2.949600781E1,2.236375958E-1,3.694348931E-1,8.483336449E0
2.951799688E1,1.637758374E0,2.384050339E-1,9.735830307E0
2.953799844E1,1.867668867E0,-6.224924698E-3,1.134249210E1
2.955800156E1,5.532042384E-1,-9.820057452E-2,1.123783684E1
2.957999844E1,-6.258922219E-1,-8.323202282E-2,9.610373497E0
2.959999844E1,-7.636545897E-1,1.675174981E-1,8.778733253E0
2.961999844E1,-4.694072008E-1,2.554996312E-1,9.494829178E0
2.964199688E1,-1.838076413E-1,4.764174223E-1,9.465640068E0
2.966199688E1,-1.738477796E-1,9.685311913E-1,8.362535477E0
2.968199844E1,-5.908889696E-2,1.311639428E0,7.289645195E0
2.970399688E1,2.918244600E-1,1.664726853E0,6.881701469E0
2.972399844E1,4.583459795E-1,1.545639157E0,7.713016510E0
2.974399844E1,2.736572623E-1,1.166684985E0,8.955597878E0
2.976599844E1,-2.872180045E-1,9.003347754E-1,1.073729610E1
2.978599844E1,-4.016512632E-1,7.859876752E-1,1.015489197E1
2.980799688E1,2.169625610E-1,1.175083756E0,9.307947159E0
2.982799844E1,6.700508595E-1,1.181979179E0,9.995361328E0
2.984800938E1,1.385859698E-1,6.702041030E-1,1.205730438E1
2.986999844E1,-1.202894807E0,5.631257892E-1,1.321955585E1
2.988999844E1,-1.204992175E0,1.678201318E0,1.166755772E1
2.990999844E1,1.066913724E0,1.745325208E0,9.320053101E0
2.992999844E1,2.083712101E0,1.064509988E0,1.136920261E1
2.994999844E1,7.303751707E-1,-8.139327914E-2,1.369406700E1
2.996999844E1,-7.677438855E-1,2.762142718E-1,1.176100826E1
2.998999844E1,-1.905688792E-1,9.028151035E-1,8.494426727E0
3.000999844E1,1.260336518E0,9.335566759E-1,6.554596424E0
3.003199688E1,1.620443583E0,6.521422267E-1,8.083495140E0
3.005199844E1,4.628279209E-1,1.034965515E-1,9.812721252E0
3.007399844E1,-7.555334568E-1,-3.176914155E-1,1.027771378E1
3.009599844E1,-5.613732934E-1,-1.748629212E-1,9.525732994E0
3.011599844E1,7.955262065E-1,2.562178969E-1,9.032777786E0
3.013600469E1,9.620477557E-1,6.794170141E-1,8.806036949E0
3.015799688E1,8.133582026E-2,8.929414749E-1,8.089308739E0
3.017799844E1,-3.062471449E-1,1.194026709E0,8.085171700E0
3.019799844E1,-2.850632370E-1,1.313669801E0,8.380423546E0
3.021999688E1,2.972640693E-1,1.550274253E0,8.939422607E0
3.023999844E1,4.161601365E-1,1.789780617E0,9.398870468E0
3.025999844E1,1.212423667E-2,1.944800377E0,9.922712326E0
3.028199688E1,-4.323641062E-1,1.968550920E0,1.039640903E1
3.030199688E1,-2.902442813E-1,2.002136946E0,1.099640560E1
3.032199844E1,1.294975877E-1,2.059348583E0,1.115490150E1
3.034399688E1,6.076962948E-1,1.884466529E0,1.084218025E1
3.036399688E1,7.933809757E-1,1.575183630E0,1.130097675E1
3.038399688E1,2.693955787E-2,1.463518023E0,1.129511642E1
3.040399688E1,-1.097885147E-1,1.291231275E0,1.090217018E1
3.042399844E1,5.160557628E-1,7.288811803E-1,1.115749741E1
3.044600625E1,1.784829497E-1,1.433073431E-1,1.205935478E1
3.046799688E1,-7.282395363E-1,4.610753655E-1,1.037955379E1
3.048799844E1,1.602965891E-1,7.112311125E-1,8.056546211E0
3.050799844E1,1.193174362E0,4.160548151E-1,8.406836510E0
3.052999688E1,3.581342697E-1,-4.332930744E-1,1.072648335E1
3.054999688E1,-1.364359736E0,-7.977479696E-1,1.100792694E1
3.056999688E1,-1.243941069E0,-7.772727609E-1,1.004007530E1
3.058999844E1,-6.473921239E-2,-3.393828869E-1,9.416959763E0
3.061199688E1,-1.294401288E-1,1.746043414E-1,9.450497627E0
3.063199688E1,-6.715257168E-1,6.746190190E-1,8.958691597E0
3.065199844E1,-8.294568062E-1,8.148713112E-1,9.553956032E0
3.067399688E1,-6.814855933E-1,6.683844924E-1,1.022639179E1
3.069399688E1,2.388359904E-1,8.056584597E-1,1.037180710E1
3.071399844E1,5.180382133E-1,1.208583474E0,8.847408295E0
3.073600938E1,-1.788947545E-2,1.373936653E0,8.613513947E0
3.075799844E1,-3.441425562E-1,1.284872293E0,9.380185127E0
3.077799844E1,-3.583640978E-2,1.311447859E0,9.223911285E0
3.079799844E1,5.656732321E-1,1.261294246E0,9.740741730E0
3.081799844E1,7.895119488E-2,1.255279899E0,1.033843040E1
3.083799844E1,-2.956838906E-1,1.233080983E0,1.018002129E1
3.085799844E1,-3.133626878E-1,1.522913456E0,1.000664234E1
3.087799844E1,-4.647815824E-1,2.183607578E0,1.053818417E1
3.089999844E1,1.920915842E-1,2.594241858E0,9.878371239E0
3.092199688E1,1.338741779E0,1.160900474E0,1.081696510E1
3.094199688E1,6.848661900E-1,8.193915337E-2,1.336015320E1
3.096199688E1,-7.356998920E-1,1.595496088E-1,1.295102215E1
3.098199844E1,-2.105652392E-1,8.626308441E-1,9.871198654E0
3.100399844E1,1.762697458E0,1.065103769E0,7.453686237E0
3.102599844E1,2.045634747E0,1.076145768E0,8.385117531E0
3.104600469E1,7.363606691E-1,8.567028046E-1,9.028573036E0
3.106799844E1,-2.723739743E-1,5.850854516E-1,9.140698433E0
3.108999844E1,-1.604211032E-1,7.919636369E-1,9.465773582E0
3.110999844E1,6.122835875E-1,8.456320167E-1,9.343008041E0
3.113000000E1,2.815485597E-1,1.003936648E0,9.567699432E0
3.115000156E1,-4.798171818E-1,1.039753914E0,8.457325935E0
3.117199844E1,-2.338656187E-1,1.315776587E0,7.860145092E0
3.119199844E1,1.686858833E-1,1.502514720E0,8.747799873E0
3.121199844E1,8.685205877E-2,1.784523129E0,9.161546707E0
3.123399688E1,-1.831755787E-1,2.057327986E0,9.241015434E0
3.125399688E1,-7.377972007E-1,2.162222624E0,8.943884850E0
3.127399688E1,-6.333046556E-1,2.125696659E0,9.458054543E0
3.129399844E1,-1.999254078E-1,2.121396780E0,9.846163750E0
3.131599844E1,5.523040295E-1,1.903380752E0,1.088563061E1
3.133799844E1,4.607497454E-1,1.465931416E0,1.198290348E1
3.135799844E1,1.933940500E-1,9.664530754E-1,1.146337986E1
3.137999844E1,-5.559527874E-1,1.418468714E0,1.043981171E1
3.139999844E1,1.809058711E-2,1.194256544E0,1.061030674E1
3.142199688E1,2.982600629E-1,8.491659164E-1,1.193436718E1
3.144199844E1,4.397669435E-2,7.333056927E-1,1.200371265E1
3.146199844E1,1.120773703E-1,1.127563596E0,1.019907951E1
3.148199844E1,5.409363508E-1,1.226597428E0,8.411787987E0
3.150399844E1,1.095931530E0,7.082144022E-1,9.347289085E0
3.152399844E1,7.172741294E-1,3.714843467E-2,1.078049564E1
3.154599844E1,-3.571478724E-1,-3.700669408E-1,1.135654068E1
3.156799844E1,-5.643325448E-1,-4.508281946E-1,1.047249699E1
3.158799844E1,-5.066130776E-3,1.953668445E-1,9.984568596E0
3.160999688E1,-3.639186732E-3,8.143637776E-1,9.657654762E0
3.162999844E1,-1.658702828E-2,9.967923760E-1,8.908470154E0
3.165001875E1,-1.709460020E-1,1.548493028E0,8.090764046E0
3.167199688E1,-3.727580607E-1,1.827446342E0,8.428997993E0
3.169199844E1,-9.634937644E-1,1.807794690E0,8.986683846E0
3.171199844E1,-7.544033527E-1,1.644174933E0,9.337952614E0
3.173399688E1,2.399851978E-1,1.551260710E0,8.681423187E0
3.175399688E1,8.756074309E-1,1.501356006E0,8.799745560E0
3.177399688E1,3.188693523E-1,1.652669549E0,9.362927437E0
3.179399844E1,1.088978723E-1,1.403730035E0,1.037619209E1
3.181600625E1,1.839513034E-1,1.102721453E0,9.633990288E0
3.183799844E1,5.580500960E-1,7.287279367E-1,9.561349869E0
3.185799844E1,9.946280122E-1,1.439077973E0,9.467718124E0
3.187999844E1,2.009788603E-1,2.724026918E0,9.763411522E0
3.189999844E1,6.703190207E-1,1.525269270E0,1.027242756E1
3.192199688E1,7.429686785E-1,3.109014630E-1,1.058700657E1
3.194199844E1,5.489233732E-1,-2.516880631E-1,9.944297791E0
3.196200000E1,4.223659039E-1,2.900910676E-1,1.328572178E1
3.198399844E1,9.770641327E-1,-2.222202271E-1,1.141190529E1
3.200399844E1,1.466592193E0,-2.354936898E-1,1.098839951E1
3.202399844E1,6.232585758E-2,4.037198722E-1,1.033458138E1
3.204399844E1,-2.644539475E-1,6.635769606E-1,9.886165619E0
3.206599844E1,5.046402812E-1,9.608985186E-1,9.247805595E0
3.208799844E1,8.436783552E-1,1.148316622E0,9.916659355E0
3.210999688E1,1.130733564E-1,1.461324930E0,9.339397430E0
3.212999688E1,-1.124412939E-1,1.587135553E0,8.261249542E0
3.214999688E1,1.780328304E-1,1.782789707E0,7.737054348E0
3.216999844E1,4.755842313E-2,1.677655339E0,8.713974953E0
3.218999844E1,2.323333360E-2,1.657304645E0,9.928419113E0
3.220999844E1,-3.450619280E-1,1.421849370E0,9.520877838E0
3.222999844E1,-9.808565676E-2,1.368688464E0,9.171995163E0
3.224999844E1,5.494022965E-1,1.247273684E0,9.775860786E0
3.226999844E1,-1.058907583E-1,1.567397714E0,1.030501747E1
3.228999844E1,-1.333091408E-1,1.732520938E0,1.045126438E1
3.230999844E1,-8.900684118E-2,1.363095522E0,1.065561485E1
3.232999844E1,1.705150455E-1,8.636364341E-1,1.172950077E1
3.235001406E1,4.461834207E-2,2.871413827E-1,1.278874302E1
3.237199844E1,-2.993709743E-1,1.294104338E0,1.145948219E1
3.239199844E1,3.279864788E-1,6.859771013E-1,1.054434204E1
3.241199844E1,8.875688314E-1,1.724591404E-1,1.051973915E1
3.243399844E1,4.282652140E-1,6.242449880E-1,1.059346199E1
3.245600469E1,-3.858782649E-1,9.480559826E-1,9.939997673E0
3.247600469E1,-1.828787029E-1,6.918668151E-1,9.490386009E0
3.249799844E1,1.225141764E0,6.431975365E-1,1.003154182E1
3.251999844E1,1.724313617E0,3.337996006E-1,1.032862377E1
3.254199844E1,6.332088709E-1,4.482615888E-1,9.324735641E0
3.256399688E1,-4.112663865E-1,2.951763272E-1,8.236484528E0
3.258399688E1,-5.594292283E-1,6.728855968E-1,9.003558159E0
3.260399688E1,-3.219243586E-1,1.280035973E0,8.970240593E0
3.262399688E1,4.596867263E-1,1.701348543E0,8.850970268E0
3.264399844E1,2.739828825E-1,1.819995522E0,9.221123695E0
3.266399844E1,9.209057689E-2,1.676515698E0,8.779911041E0
3.268399844E1,1.712333113E-1,2.146105051E0,8.406683922E0
3.270399844E1,2.005862147E-1,2.029516935E0,7.577332497E0
3.272399844E1,6.255570054E-2,1.684991360E0,8.179407120E0
3.274399844E1,2.061311901E-1,1.599652290E0,9.147124290E0
3.276399844E1,-8.999325335E-2,1.471600771E0,9.515103340E0
3.278399844E1,-5.933981538E-1,1.226568699E0,1.005059052E1
3.280399844E1,1.405396461E-1,6.299240589E-1,1.041503620E1
3.282399844E1,5.511356592E-1,6.414832473E-1,1.107403469E1
3.284399844E1,-4.574457407E-1,1.773662925E0,1.110664463E1
3.286399844E1,-7.330662012E-1,2.399919033E0,9.965433121E0
3.288399844E1,1.145041347E0,1.071443558E0,9.410083771E0
3.290600156E1,2.005958080E0,-1.335006859E-2,1.142680645E1
3.292799844E1,8.270242810E-1,-3.531926274E-1,1.307957172E1
3.294800312E1,1.455961913E-1,3.555868566E-2,1.176988602E1
3.296999688E1,8.758085370E-1,-3.290112019E-1,9.220559120E0
3.298999844E1,9.721224904E-1,1.115027592E-1,8.003682137E0
3.300999844E1,1.088710546E0,-7.956410944E-2,8.907675743E0
3.302999844E1,6.916082501E-1,2.178723551E-2,9.588346481E0
3.305000469E1,7.971446514E-1,2.071559131E-1,1.055350685E1
3.307199688E1,6.286695004E-1,4.397190809E-1,1.064712048E1
3.309199688E1,3.384826779E-1,8.850501776E-1,9.771340370E0
3.311200000E1,4.132679403E-1,1.329327822E0,8.358723640E0
3.313399844E1,5.077335238E-1,1.964432836E0,7.097859859E0
3.315400156E1,3.761386573E-1,1.984668732E0,7.581297398E0
3.317600000E1,2.830616832E-1,1.731869698E0,9.049029350E0
3.319600156E1,-1.120199114E-1,1.437325478E0,1.021695900E1
3.321600312E1,-3.942005336E-1,1.276846886E0,1.005416298E1
3.323600469E1,1.477605551E-1,1.100997567E0,1.037736988E1
3.325600469E1,6.411193013E-1,9.545969367E-1,1.031006432E1
3.327799844E1,3.335984945E-1,8.908345699E-1,1.087991333E1
3.329799844E1,-1.462282538E-1,4.876509905E-1,1.175882530E1
3.331799844E1,-4.168783873E-2,-6.227797270E-2,1.270120239E1
3.333799844E1,8.082346320E-1,4.658159018E-1,1.189945984E1
3.335799844E1,8.775802851E-1,1.964490414E-1,1.081926346E1
3.337801406E1,1.670444131E0,-3.912221491E-1,1.089693165E1
3.339999844E1,8.903940320E-1,-1.791150272E-1,1.067011452E1
3.341999844E1,-5.354392529E-2,8.599972352E-3,1.037923813E1
3.343999844E1,-8.671798557E-2,-1.160134375E-1,1.004852200E1
3.345999844E1,7.632906437E-1,-4.259667993E-1,9.541037560E0
3.347999844E1,1.520969391E0,-1.071357355E-1,9.605642319E0
3.349999844E1,1.322413325E0,-1.668950170E-1,9.764924049E0
3.351999844E1,3.073867857E-1,-2.506058812E-1,9.885093689E0
3.354199844E1,-8.577179313E-1,6.332184374E-2,9.214008331E0
3.356399688E1,-9.915921688E-1,2.086020112E-1,9.008317947E0
3.358399844E1,-1.240579560E-1,4.819144905E-1,9.049449921E0
3.360600312E1,5.572456717E-1,8.475186825E-1,8.284407616E0
3.362799844E1,1.733401977E-2,1.063513875E0,7.324063778E0
3.364799844E1,-5.385134220E-1,8.891490698E-1,8.263989449E0
3.366799844E1,-3.439797461E-1,3.729783297E-1,8.310388565E0
3.368999844E1,4.016321003E-1,1.808484197E-1,8.852580070E0
3.370999844E1,1.219319105E-1,6.315042377E-1,9.501197815E0
3.372999844E1,-2.640517354E-1,-5.213230848E-1,9.000790596E0
3.375000469E1,-6.151278615E-1,-1.882848144E0,8.994345665E0
3.377199844E1,-1.209320784E0,-1.619916856E-1,1.109099579E1
3.379399688E1,-1.468220234E0,6.426133513E-1,1.139858437E1
3.381399844E1,-3.747500181E-1,-1.552477002E0,1.099477768E1
3.383399844E1,-7.200801373E-2,-1.940050364E0,1.087811375E1
3.385399844E1,-2.807632387E-1,1.983165145E-1,1.129242516E1
3.387399844E1,-1.466582656E0,2.102894306E0,1.199791908E1
3.389399844E1,4.633163512E-1,-9.387664795E-1,1.212073231E1
3.391399844E1,1.178071737E0,-3.817190647E0,1.146217346E1
3.393399844E1,-1.383082420E-1,-2.427481174E0,1.096998310E1
3.395399844E1,-1.284163594E0,-8.754637837E-1,1.063895130E1
3.397399844E1,-1.838861823E0,1.545313597E0,1.070223427E1
3.399399844E1,-6.395678520E-1,7.395593524E-1,9.697293282E0
3.401399844E1,-9.691728279E-3,-1.029027820E0,9.558055878E0
3.403599844E1,-3.514401019E-1,-1.522779346E0,8.931272507E0
3.405599844E1,-1.214731812E0,-1.648360044E-1,8.996892929E0
3.407600469E1,-1.713942051E0,1.144026279E0,8.003768921E0
3.409601250E1,-1.590803385E0,2.302791119E0,7.254929066E0
3.411799844E1,-1.167470217E0,1.503012776E0,8.043186188E0
3.413799844E1,-1.161925316E0,6.587119102E-1,8.148972511E0
3.415799844E1,-1.698695660E0,1.833431721E0,7.416250706E0
3.417799844E1,-1.942147732E0,2.072344542E0,8.174254417E0
3.419799844E1,-1.059003353E0,1.229288459E0,9.129435539E0
3.421799844E1,-1.372921348E0,1.139132500E0,9.504751205E0
3.423999688E1,-2.137045145E0,1.413364291E0,9.956479073E0
3.425999844E1,-1.573440671E0,1.378112078E0,1.004149246E1
3.427999844E1,-1.148067594E0,9.044910669E-1,1.056866741E1
3.429999844E1,-1.434912086E0,4.995645583E-1,1.062251759E1
3.432199688E1,-3.155471563E0,6.197247505E-1,1.056790161E1
3.434199844E1,-3.465358019E0,6.042964756E-2,1.218912983E1
3.436399688E1,-3.273084402E0,-1.211465988E-2,1.263202858E1
3.438399844E1,-2.890443087E0,-2.763866447E-2,1.082130337E1
3.440399844E1,-2.617245674E0,-2.774018049E-1,1.019977856E1
3.442399844E1,-2.319780350E0,-8.263443708E-1,1.195239162E1
3.444599688E1,-2.780865192E0,-4.384357929E-1,1.218226337E1
3.446599844E1,-2.620913267E0,-1.007116199E0,1.025973797E1
3.448799844E1,-2.501931190E0,-7.104458809E-1,8.943177223E0
3.450799844E1,-2.301958084E0,-2.076060176E-1,8.893846512E0
3.452799844E1,-1.901503682E0,1.149312556E-1,9.212754250E0
3.455000469E1,-9.178602695E-1,4.579054117E-1,9.791825294E0
3.457199688E1,-6.012032032E-1,3.586705625E-1,9.078429222E0
3.459200313E1,-7.094690204E-1,5.581554770E-1,8.739525795E0
3.461399688E1,-7.945589423E-1,1.371542335E0,7.425348759E0
3.463399688E1,-3.839916289E-1,1.554315805E0,7.343169689E0
3.465399844E1,-3.406182826E-1,1.288693428E0,8.451656342E0
3.467403125E1,-1.764622331E-1,2.928587608E-2,1.081224346E1
3.469599844E1,-3.567169011E-1,1.000201702E-1,1.017586517E1
3.471600625E1,-4.209581316E-1,6.402095556E-1,9.590310097E0
3.473601094E1,-2.447544485E-1,8.308550119E-1,9.093235016E0
3.475800156E1,-1.878969371E-1,6.875094175E-1,1.000708294E1
3.477999688E1,1.885481775E-1,-2.731209397E-1,1.143773365E1
3.480000625E1,1.335964538E-2,2.075389922E-1,1.109487438E1
3.482199844E1,-9.930191189E-2,1.154014826E0,9.941606522E0
3.484200469E1,1.448970847E-2,1.002739549E0,1.064356709E1
3.486399844E1,7.277702689E-1,3.999466002E-1,1.108606339E1
3.488399844E1,8.332300782E-1,-5.692741275E-1,1.193792057E1
3.490399844E1,3.074346483E-1,-1.021845341E-1,1.040689564E1
3.492400312E1,3.601932824E-1,6.695145369E-2,9.165837288E0
3.494599844E1,4.244919717E-1,-2.920064032E-1,9.151787758E0
3.496601875E1,-3.887130022E-1,-6.609337330E-1,1.035609055E1
3.498800000E1,-8.361606002E-1,-7.202333212E-1,1.016998482E1
3.500800156E1,-4.825370014E-1,-4.826519191E-1,9.587667465E0
3.502999844E1,-1.217212155E-1,-3.221541941E-1,9.762012482E0
3.505000312E1,-1.821412742E-1,2.064855397E-1,9.119915962E0
3.507199688E1,-7.122175097E-1,8.129847050E-1,8.099248886E0
3.509199688E1,-7.991940975E-1,1.070562482E0,8.621137619E0
3.511199844E1,-2.534501851E-1,1.067306399E0,8.901373863E0
3.513399688E1,8.033983111E-1,9.899066091E-1,8.589361191E0
3.515399844E1,6.567582488E-1,1.160316229E0,8.890868187E0
3.517600469E1,1.530373748E-2,1.314684987E0,9.451571465E0
3.519800469E1,-5.191778541E-1,1.484587073E0,9.477514267E0
3.521999688E1,-2.885779142E-1,1.253355026E0,9.948645592E0
3.524000156E1,-6.145436689E-2,1.300626040E0,1.026317692E1
3.526199688E1,5.468356609E-2,9.260771871E-1,1.091587448E1
3.528200156E1,-2.288856776E-3,6.609528661E-1,1.116815662E1
3.530399844E1,-2.120592296E-1,1.436138004E-1,1.149675560E1
3.532399844E1,-2.230342627E-1,-1.835586578E-1,1.224969292E1
3.534399844E1,1.271799952E-1,-6.993559003E-1,1.322612572E1
3.536400312E1,3.915477693E-1,-1.301727414E0,1.267168522E1
3.538599844E1,-3.352648616E-1,-7.530147433E-1,1.067778492E1
3.540601875E1,-8.418970704E-1,-1.151227951E-1,9.118383408E0
3.542799844E1,-3.799789846E-1,-5.637866259E-2,8.781347275E0
3.544799844E1,1.459792703E-1,-3.335123062E-1,9.743749619E0
3.546799844E1,1.952136159E-1,-9.943885207E-1,1.029607296E1
3.548799844E1,-2.914222479E-1,-1.065055728E0,9.747838974E0
3.550799844E1,-1.267471194E0,-6.315999627E-1,8.986578941E0
3.552799844E1,-1.720981002E0,-8.167100698E-2,8.324199677E0
3.554799844E1,-1.524052978E0,3.111217320E-1,8.411960602E0
3.556799844E1,-1.207165956E0,7.266880870E-1,8.297115326E0
3.558800156E1,-5.256038904E-1,7.609539032E-1,8.136857033E0
3.560999844E1,-6.944046617E-1,7.666521072E-1,8.627639771E0
3.563001563E1,-7.095551491E-1,8.520771861E-1,8.581604958E0
3.565199844E1,-5.506567955E-1,9.702454209E-1,8.611090660E0
3.567200625E1,-6.517017484E-1,9.553247690E-1,9.082049370E0
3.569399844E1,-8.300409913E-1,8.107628822E-1,9.382866859E0
3.571399844E1,-1.123771191E0,9.817088842E-1,9.330644608E0
3.573599688E1,-2.331760824E-1,8.798882961E-1,9.581173897E0
3.575599844E1,9.280883521E-2,8.100829720E-1,1.090328026E1
3.577600312E1,-2.322758734E-1,6.331802011E-1,1.161388969E1
3.579602656E1,-9.541468620E-1,1.046361923E0,1.073900032E1
3.581799844E1,1.180820260E-2,1.259378791E0,9.085449219E0
3.583799844E1,9.196990132E-1,5.932353139E-1,1.062259388E1
3.585799844E1,6.862452626E-1,-3.982610703E-1,1.395765877E1
3.587999844E1,1.886630952E-1,-7.230393291E-1,1.356420612E1
3.590000000E1,3.418920040E-1,-4.415291250E-1,1.075656414E1
3.592199844E1,1.071845770E0,-6.731441617E-1,9.510267258E0
3.594199844E1,6.009159088E-1,-3.724516034E-1,1.067761326E1
3.596199844E1,3.603177667E-1,-2.060833126E-1,1.106727409E1
3.598199844E1,5.289461613E-1,-1.860390455E-1,9.775592804E0
3.600399844E1,-1.795268208E-1,4.903229475E-1,9.231016159E0
3.602599844E1,-2.250549644E-1,4.113430083E-1,9.153349876E0
3.604799688E1,-4.423526824E-1,8.696123362E-1,8.379064560E0
3.606799844E1,-6.083187833E-2,1.048727393E0,7.637666225E0
3.608999844E1,7.879796624E-2,1.420537353E0,7.545029640E0
3.611199844E1,4.130764306E-1,1.276578784E0,7.867518902E0
3.613399688E1,1.873798072E-1,1.163830996E0,8.119772911E0
3.615399688E1,-1.804845035E-1,1.159205437E0,8.487627029E0
3.617399688E1,-5.365405679E-1,1.084525466E0,8.874884605E0
3.619399688E1,-6.965882182E-1,1.222517729E0,9.211882591E0
3.621399844E1,-5.039411783E-1,9.116066694E-1,9.839900017E0
3.623600000E1,-3.985675275E-1,9.635033607E-1,1.056101608E1
3.625601875E1,-2.852739394E-1,7.210761309E-1,1.093798733E1
3.627799844E1,-2.862028778E-1,4.584704638E-1,1.199665546E1
3.629800156E1,-4.950155616E-1,3.206698000E-1,1.160768318E1
3.631999688E1,-5.958210230E-1,-7.275500149E-2,1.123094177E1
3.633999688E1,-9.537733197E-1,-5.589120388E-1,1.278491211E1
3.635999688E1,-1.488896608E0,-2.082380801E-1,1.266790295E1
3.637999844E1,-8.577754498E-1,-5.951697826E-1,1.138348103E1
3.640199844E1,-1.130350530E-1,-1.412674785E-1,9.660411835E0
3.642399688E1,1.063312814E-1,-6.095924973E-1,9.919560432E0
3.644399688E1,-2.325631678E-1,-5.022460818E-1,1.112829781E1
3.646399844E1,-3.794043660E-1,-8.273978233E-1,1.110230541E1
3.648400156E1,-4.785721898E-1,-6.856514812E-1,9.967675209E0
3.650599844E1,-3.688507080E-1,-2.467464358E-1,9.093033791E0
3.652599844E1,-5.325183868E-1,5.179998875E-1,9.235537529E0
3.654599844E1,-1.304169595E-1,7.779048681E-1,9.442789078E0
3.656800000E1,3.673375845E-1,9.393889904E-1,9.753134727E0
3.658999844E1,4.848162532E-1,1.120783329E0,9.441764832E0
3.661000000E1,3.953018486E-1,1.370651722E0,8.671242714E0
3.663199688E1,2.384050339E-1,1.319128513E0,8.456023216E0
3.665199688E1,-1.752364039E-1,1.351996064E0,8.731949806E0
3.667199688E1,-2.344306558E-1,1.220315099E0,8.997649193E0
3.669200000E1,-3.252187669E-1,1.092167735E0,9.132348061E0
3.671399844E1,-2.571085095E-1,1.210192442E0,9.270569801E0
3.673400000E1,-3.154600039E-2,9.446753263E-1,9.971505165E0
3.675599844E1,-4.415865615E-2,5.603868365E-1,1.065899467E1
3.677601406E1,-2.082859576E-1,4.294431806E-1,1.071588230E1
3.679799844E1,-7.187106609E-1,1.534903526E0,9.779663086E0
3.682007031E1,-2.799300551E-1,2.465539217E0,8.792218208E0
3.684200625E1,1.345340252E0,1.011262894E0,1.079484272E1
3.686400000E1,6.758161187E-1,3.012959361E-1,1.348176861E1
3.688599844E1,7.116525620E-2,-9.696134329E-1,1.270776176E1
3.690599844E1,-3.554335833E-1,-5.399020314E-1,1.011593342E1
3.692599844E1,-1.300051510E-1,2.554613054E-1,8.333153725E0
3.694600313E1,1.179987073E0,-2.631132007E-1,8.279675484E0
3.696600469E1,7.577456832E-1,-6.198109314E-2,9.675504684E0
3.698799844E1,4.477348626E-1,1.465538740E-1,9.485865593E0
3.700800469E1,-2.435381897E-2,2.407513410E-1,9.292202950E0
3.702999844E1,-6.866953969E-1,7.133763433E-1,9.093388557E0
3.704999844E1,-1.132361591E-1,1.109894395E0,8.073066711E0
3.706999844E1,2.824391723E-1,1.318640113E0,7.128697395E0
3.708999844E1,3.297869265E-1,1.434260845E0,7.186129570E0
3.710999844E1,2.409332991E-1,1.464485407E0,8.506349564E0
3.712999844E1,-6.085103378E-2,1.611977696E0,9.624805450E0
3.714999844E1,-4.513549060E-2,1.500264287E0,9.559492111E0
3.716999844E1,-7.570561767E-1,1.768252134E0,9.568081856E0
3.718999844E1,-1.088777542E0,1.781630874E0,1.012837315E1
3.720999844E1,-9.219687581E-1,1.829074383E0,1.051026726E1
3.722999844E1,-5.231618285E-1,1.770502567E0,1.119592857E1
3.725000000E1,2.821040154E-1,1.215354204E0,1.154687119E1
3.727000000E1,-7.297527045E-3,7.998070121E-1,1.208895588E1
3.729199844E1,-6.752989292E-1,9.596247673E-1,1.149150753E1
3.731199844E1,-6.631460190E-1,8.230499029E-1,1.072473049E1
3.733199844E1,-5.917891860E-1,8.201673031E-1,1.097101784E1
3.735199844E1,-1.137724668E-1,7.721779346E-1,1.147275543E1
3.737199844E1,-4.865017533E-2,5.923446417E-1,1.134696484E1
3.739199844E1,-3.549547791E-1,6.645154357E-1,9.871609688E0
3.741199844E1,-5.043433905E-1,4.078187346E-1,9.265120506E0
3.743199844E1,-5.195417404E-1,9.961794317E-2,9.523492813E0
3.745199844E1,-3.111600280E-1,-3.380804360E-1,1.006230259E1
3.747199844E1,-4.894322753E-1,-4.796926975E-1,1.023413944E1
3.749199844E1,-6.612114906E-1,-4.286099970E-1,1.009655952E1
3.751199844E1,-9.024704099E-1,1.332325339E-1,9.654599190E0
3.753199844E1,-7.511281371E-1,4.720120728E-1,9.142240524E0
3.755199844E1,-4.530978799E-1,1.035798669E0,8.305054665E0
3.757199844E1,-1.282142997E-1,1.379012346E0,7.902656078E0
3.759199844E1,-3.400724009E-2,1.495399117E0,7.972040653E0
3.761199844E1,-1.236365736E-1,1.603779912E0,8.622496605E0
3.763199844E1,-2.087839693E-1,1.326588869E0,8.857521057E0
3.765199844E1,-2.741360962E-1,1.298471332E0,8.662757874E0
3.767199844E1,-2.709278464E-1,1.474464297E0,8.102438927E0
3.769199844E1,-2.111781687E-1,1.570069551E0,8.105771065E0
3.771199844E1,-3.602028489E-1,1.393674493E0,8.952648163E0
3.773199844E1,-6.044018269E-1,9.486402273E-1,1.044292355E1
3.775199844E1,-8.117876053E-1,5.470463634E-1,1.104689407E1
3.777199844E1,-8.960539699E-1,5.765429139E-1,1.125158024E1
3.779199844E1,-1.095088720E0,1.223532796E0,1.042862511E1
3.781199844E1,-1.035137892E0,2.122488499E0,8.953672409E0
3.783199844E1,-9.144892544E-2,1.157969952E0,9.891519547E0
3.785199844E1,-8.322244883E-2,-6.741113961E-2,1.270167065E1
3.787199844E1,-1.282267332E0,4.529829603E-3,1.435553837E1
3.789199844E1,-1.050183058E0,-1.752938628E-1,1.199911594E1
3.791199844E1,-5.835148320E-2,7.121313363E-2,1.012687016E1
3.793199844E1,5.114014745E-1,3.606817126E-1,9.479248047E0
3.795199844E1,2.965745628E-1,3.358969092E-1,1.042260170E1
3.797199844E1,-5.168889761E-1,4.032123089E-1,1.062597466E1
3.799199844E1,-9.444646835E-1,6.453427076E-1,9.856889725E0
3.801399844E1,-7.756734490E-1,8.891873956E-1,8.767078400E0
3.803399844E1,-4.652316868E-1,1.083031535E0,8.262830734E0
3.805399844E1,-4.459918737E-1,1.128004193E0,8.000713348E0
3.807399844E1,-7.100340724E-1,1.274701715E0,7.796871185E0
3.809399844E1,-4.455513656E-1,1.147895217E0,7.946537495E0
3.811399844E1,-5.872976780E-1,1.319406271E0,7.934633255E0
3.813399844E1,-7.363702655E-1,1.274950743E0,7.805892467E0
3.815399844E1,-9.187892675E-1,1.359274507E0,8.512631416E0
3.817399844E1,-1.271608353E0,1.497707248E0,9.962714195E0
3.819399844E1,-1.914901733E0,1.558385849E0,1.077597618E1
3.821400000E1,-2.330477476E0,1.494029760E0,9.454042435E0
3.823599688E1,-1.718653798E0,1.688247442E0,9.879855156E0
3.825600156E1,-1.560052276E0,1.478285551E0,1.148974514E1
3.827799844E1,-2.161379814E0,9.175155759E-1,1.185638332E1
3.829800156E1,-2.934831619E0,8.180029392E-1,1.162189579E1
3.831999844E1,-2.560321093E0,8.464939594E-1,1.139457130E1
3.834000312E1,-1.930425644E0,6.986950636E-1,1.240599728E1
3.836199844E1,-1.468153238E0,1.181787491E0,1.307484055E1
3.838199844E1,-1.149437189E0,1.074469805E0,1.207009983E1
3.840199844E1,-7.372800112E-1,7.549875379E-1,1.022465801E1
3.842200312E1,-1.086239696E0,1.430133343E0,9.432369232E0
3.844399844E1,-8.471260667E-1,9.980565310E-1,9.888484001E0
3.846400625E1,-5.715150833E-1,5.929288268E-1,1.025668335E1
3.848600469E1,-1.312692910E-1,-3.052415848E-1,1.100632668E1
3.850600469E1,-6.187383533E-1,5.100607127E-2,1.048097229E1
3.852799844E1,-1.065869927E0,4.040837884E-1,9.205964088E0
3.854799844E1,-1.044101834E0,8.806065917E-1,8.088331223E0
3.856799844E1,-1.029238582E0,1.470164299E0,7.905797958E0
3.858799844E1,-4.238502979E-1,1.248930573E0,8.284588814E0
3.860799844E1,-3.429645896E-1,1.463556409E0,8.257611275E0
3.862799844E1,-3.105375469E-1,1.559343576E0,8.347317696E0
3.864999688E1,7.929596119E-3,1.287965536E0,8.262198448E0
3.867000312E1,-2.250453830E-1,1.660263896E0,8.467726707E0
3.869199844E1,-5.242152810E-1,1.642872453E0,9.003606796E0
3.871200156E1,-7.488487959E-1,1.264780164E0,9.513743401E0
3.873399688E1,-7.941566706E-1,1.266743422E0,1.003030682E1
3.875400000E1,-1.330697387E-1,1.026633620E0,1.009726715E1
3.877599688E1,-2.068302929E-1,9.640300870E-1,1.020767879E1
3.879601094E1,-5.489233732E-1,1.364599228E0,9.236495018E0
3.881799688E1,-8.883445859E-1,1.939619422E0,9.006738663E0
3.883800156E1,-6.300389171E-1,9.801383018E-1,1.165930271E1
3.885999844E1,-8.899822235E-1,5.953900889E-2,1.444077110E1
3.887999844E1,-5.910900831E-1,-6.799916029E-1,1.269192219E1
3.889999844E1,-2.930598855E-1,1.972343326E-1,1.009858036E1
3.892199844E1,2.341146171E-1,4.162942171E-1,8.598833084E0
3.894199844E1,2.605561912E-1,4.181233943E-1,9.167159081E0
3.896199844E1,-2.028846592E-1,2.082763910E-1,1.057861710E1
3.898199844E1,-8.579382300E-1,-4.399201870E-1,7.423758984E0
3.900199844E1,-1.072602391E0,6.279320717E-1,9.696277618E0
3.902200313E1,-7.448266149E-1,8.934873939E-1,1.030146503E1
3.904399844E1,-2.006915659E-1,7.711149454E-1,9.913785934E0
3.906400469E1,-5.560772419E-1,1.423965812E0,8.606704712E0
3.908599844E1,-7.384963036E-1,2.220813751E0,8.145859718E0
3.910602188E1,-1.752555603E-3,1.741063476E0,8.505046844E0
3.912799844E1,7.571423054E-2,1.745669961E0,8.839076042E0
3.914799844E1,4.955039918E-2,1.763942480E0,9.174753189E0
3.916799844E1,-5.806801319E-1,1.771450639E0,9.739353180E0
3.918800312E1,-6.351050735E-1,1.693342328E0,9.659904480E0
3.920999844E1,-5.252304077E-1,1.795354366E0,9.455257416E0
3.923000625E1,-7.661253810E-1,1.951887369E0,1.005617428E1
3.925199844E1,-5.290132165E-1,1.376426458E0,1.124166775E1
3.927199844E1,-6.632034183E-1,1.125111938E0,1.191192913E1
3.929199844E1,-6.126474738E-1,1.116923809E0,1.079110718E1
3.931200625E1,-6.095733047E-1,5.064981580E-1,1.086896706E1
3.933399844E1,-1.586302280E0,4.234768152E-1,1.285632706E1
3.935400313E1,-9.366691709E-1,1.594059467E-1,1.203328609E1
3.937600313E1,-8.846479654E-1,1.945049465E-1,1.043435287E1
3.939600312E1,-1.039734721E0,8.599014878E-1,9.352881432E0
3.941800000E1,-7.466461658E-1,1.059223533E0,9.415284157E0
3.944000000E1,-6.056181192E-1,6.096403599E-1,1.004516983E1
3.946200312E1,-8.617210984E-1,7.791689783E-2,1.031914330E1
3.948399844E1,-1.595639706E0,1.918042898E-1,9.856287003E0
3.950400469E1,-1.963389039E0,8.152352571E-1,9.024435997E0
3.952599844E1,-2.041842222E0,1.159186244E0,8.270990372E0
3.954599844E1,-2.015630484E0,1.939705610E0,8.911381721E0
3.956599844E1,-1.421609998E0,2.237477303E0,8.828627586E0
3.958599844E1,-5.671768188E-1,1.912076592E0,7.962990284E0
3.960599844E1,-1.074086785E0,2.201267242E0,7.219121456E0
3.962599844E1,-1.449028373E0,2.138424397E0,8.195888519E0
3.964599844E1,-1.407771468E0,1.985032558E0,9.247488976E0
3.966599844E1,-9.321489334E-1,1.873539448E0,1.006471634E1
3.968602656E1,-7.534170151E-1,1.991994977E0,1.002951145E1
3.970799844E1,-9.031120539E-1,1.643389702E0,9.352316856E0
3.972799844E1,-1.023885131E0,1.775961280E0,9.568715096E0
3.974799844E1,-7.309306264E-1,1.336041093E0,1.045319080E1
3.976800625E1,-6.134806275E-1,1.419100881E0,1.035369587E1
3.978999844E1,-1.289517045E0,1.054425478E0,9.972587585E0
3.980999844E1,-8.329619169E-1,-6.703764666E-4,1.412990856E1
3.982999844E1,-1.467387080E0,-4.345954955E-2,1.441290188E1
3.985004688E1,-1.168887615E0,1.811069995E-1,1.109653091E1
3.987199844E1,-6.716023088E-1,4.980130792E-1,9.065529823E0
3.989199844E1,4.433104023E-2,8.333162665E-1,9.331381798E0
3.991199844E1,3.745872080E-1,1.000872016E0,1.021453571E1
3.993199844E1,9.451925159E-1,4.429177344E-1,1.108677292E1
3.995199844E1,1.028596878E0,3.421122730E-1,1.063989925E1
3.997199844E1,4.616403878E-1,9.895619154E-1,9.824434280E0
3.999200156E1,-5.141212940E-1,1.335380316E0,9.225567818E0
4.001399844E1,-8.325213790E-1,1.700476885E0,8.647357941E0
4.003399844E1,-7.791690230E-1,1.870417356E0,8.344663620E0
4.005399844E1,-6.136147380E-1,1.868042350E0,7.777899265E0
4.007399844E1,-6.815430522E-1,1.995519280E0,7.864492893E0
4.009399844E1,-6.370012760E-1,1.909490705E0,8.125355721E0
4.011399844E1,-6.897599697E-1,1.874324679E0,8.065116882E0
4.013400312E1,-5.748860836E-1,1.917018175E0,8.085142136E0
4.015599844E1,-6.255378127E-1,1.836563349E0,9.034989357E0
4.017602188E1,-7.017979622E-1,1.819028378E0,9.475455284E0
4.019799844E1,-7.504385710E-1,1.683842063E0,9.675438881E0
4.021799844E1,-8.207898140E-1,1.630183220E0,9.790091515E0
4.023799844E1,-7.099382877E-1,1.890978813E0,9.939155579E0
4.025800625E1,-4.853046834E-1,1.779035568E0,1.022601891E1
4.027999844E1,-6.298953295E-1,1.758129358E0,1.030240345E1
4.030000469E1,-8.620275259E-1,9.888148904E-1,1.217831707E1
4.032199844E1,-7.637790442E-1,2.722303271E-1,1.252647305E1
4.034199844E1,-3.549643457E-1,1.740871817E-1,1.077879238E1
4.036399844E1,-3.498024642E-1,7.067492008E-1,8.798413277E0
4.038399844E1,-6.539714336E-1,6.313605309E-1,8.800644875E0
4.040399844E1,-8.240172267E-1,3.352744281E-1,1.048280144E1
4.042599844E1,-5.542384982E-1,-1.674504727E-1,1.177534485E1
4.044800000E1,-6.832764149E-1,-3.530010954E-2,1.110866547E1
4.046999844E1,-1.129536510E0,4.238790572E-1,9.453543663E0
4.048999844E1,-9.802914858E-1,1.034438848E0,8.207715988E0
4.050999844E1,-7.646601796E-1,1.538954616E0,8.555105209E0
4.052999844E1,-8.311039805E-1,1.846877575E0,9.347854614E0
4.054999844E1,-6.456491947E-1,1.589702010E0,9.826407433E0
4.056999844E1,-9.580924511E-1,1.840901732E0,8.580924034E0
4.059000000E1,-7.062512040E-1,1.569332123E0,8.172674179E0
4.061200000E1,-7.975947857E-1,1.645745516E0,8.635282516E0
4.063399688E1,-5.365788937E-1,1.414542198E0,9.774136543E0
4.065399844E1,-8.302804232E-1,1.758627295E0,1.028556728E1
4.067399844E1,-6.626766920E-1,1.423688054E0,9.665833473E0
4.069400000E1,-5.995463729E-1,1.162021041E0,9.220703125E0
4.071600156E1,-7.352305651E-1,1.213515520E0,1.038400650E1
4.073799844E1,-4.611902833E-1,9.228402972E-1,1.095350170E1
4.075799844E1,-7.011659145E-1,2.082333088E0,9.613026619E0
4.077799844E1,-3.408193886E-1,2.390122175E0,9.120874405E0
4.079799844E1,-7.655220628E-1,1.725951314E0,1.135163784E1
4.081799844E1,-7.059638500E-1,1.205911517E0,1.291706276E1
4.083799844E1,-2.665320933E-1,4.329578578E-1,1.198546028E1
4.085799844E1,4.996220022E-2,7.418864965E-1,9.780601501E0
4.087799844E1,-1.571170986E-1,7.958805561E-1,9.637341499E0
4.089799844E1,2.760993317E-2,5.173295140E-1,9.684852600E0
4.091799844E1,-5.312063098E-1,5.180190206E-1,9.659895897E0
4.093999688E1,-1.433561802E0,1.014949977E-1,7.626451492E0
4.095999844E1,-1.404065132E0,5.448053479E-1,9.828130722E0
4.098200625E1,-1.199140787E0,3.760716319E-1,1.135318947E1
4.100399844E1,-6.101479530E-1,1.075810552E0,9.611330986E0
4.102399844E1,-6.570551395E-1,2.147522211E0,7.567381859E0
4.104399844E1,-4.598208070E-1,2.285112381E0,7.123046875E0
4.106400625E1,-4.203452170E-1,2.205739737E0,8.014618874E0
4.108599844E1,-1.563126445E-1,2.354477167E0,7.617928028E0
4.110600625E1,-6.016054153E-1,2.450963497E0,7.937707424E0
4.112799844E1,-7.408905029E-1,2.576955795E0,8.664108276E0
4.114800312E1,-4.232661426E-1,1.892080188E0,1.020190430E1
4.117000000E1,-4.033655524E-1,1.864297867E0,1.112646770E1
4.119200000E1,-2.289623022E-1,1.675424099E0,1.163995743E1
4.121400000E1,-4.720120728E-1,1.512196898E0,1.163379955E1
4.123599844E1,-2.549824715E-1,1.177726984E0,1.194441414E1
4.125601250E1,-8.449617028E-2,1.339776158E0,1.100969791E1
4.127800000E1,-2.285792232E-1,1.231912613E0,1.045793056E1
4.130000000E1,-7.651773095E-1,1.235494256E0,1.027908421E1
4.132199844E1,-7.357668877E-1,1.158621192E0,9.787611008E0
4.134199844E1,-1.471955329E-1,9.334130287E-1,8.897954941E0
4.136199844E1,9.051997960E-2,4.133253992E-1,9.286581993E0
4.138199844E1,8.652645350E-2,-1.285494864E-1,1.036992931E1
4.140199844E1,-7.050444931E-2,-5.753554106E-1,1.096912098E1
4.142200000E1,-3.459238410E-1,-5.832945704E-1,1.067489243E1
4.144399844E1,-4.084891081E-1,1.394861937E-1,9.613313675E0
4.146399844E1,-8.345420957E-1,1.517052412E0,9.427887917E0
4.148399844E1,-3.579905927E-1,1.781496763E0,9.056298256E0
4.150400625E1,-4.814260826E-2,1.708224654E0,8.443746567E0
4.152599844E1,-3.048584759E-1,1.556585431E0,8.201548576E0
4.154601719E1,-3.676057458E-1,1.206591487E0,8.187250137E0
4.156800000E1,-1.895824671E-1,8.563485146E-1,8.722545624E0
4.158800625E1,-5.071781278E-1,9.933543205E-1,9.116785049E0
4.160999844E1,-4.564976394E-1,7.378546596E-1,9.805193901E0
4.162999844E1,-8.607347012E-1,9.698911309E-1,1.011143208E1
4.164999844E1,-8.372140527E-1,7.744955420E-1,9.940993309E0
4.167000156E1,8.227434754E-2,1.062221050E0,9.959304810E0
4.169199844E1,7.559931278E-1,1.853179216E0,1.014204884E1
4.171199844E1,9.348782897E-1,7.392815948E-1,1.361924458E1
4.173199844E1,-4.288111031E-1,8.214984834E-2,1.453997707E1
4.175199844E1,-2.643677294E-1,-3.027994633E-1,1.258871269E1
4.177199844E1,-1.115985289E-1,7.151959091E-2,1.143123055E1
4.179199844E1,2.050011307E-1,1.186326861E0,9.192680359E0
4.181199844E1,4.603571296E-1,1.087666631E0,9.530167580E0
4.183199844E1,9.882306308E-2,6.815525889E-1,1.037022686E1
4.185199844E1,-6.772909760E-1,5.169560388E-2,1.084323406E1
4.187199844E1,-1.260710001E0,-2.758599222E-1,1.040927029E1
4.189199844E1,-8.967338800E-1,-1.529799104E-1,9.251645088E0
4.191199844E1,-6.151374578E-1,3.616489470E-1,8.231198311E0
4.193199844E1,-7.447690964E-1,1.156801581E0,8.200494766E0
4.195199844E1,-8.308166862E-1,1.264531136E0,8.557978630E0
4.197199844E1,-9.232329130E-1,8.741517663E-1,8.913708687E0
4.199199844E1,-4.229117632E-1,4.113717377E-1,8.678617477E0
4.201199844E1,8.784804493E-2,2.827073336E-1,8.539533615E0
4.203199844E1,-1.461324990E-1,1.017468691E0,9.448170662E0
4.205199844E1,-2.946687639E-1,1.225926995E0,9.967081070E0
4.207399844E1,2.468326092E-1,5.436466336E-1,1.025028610E1
4.209600312E1,4.787828624E-1,-6.263231859E-3,1.061716366E1
4.211799844E1,-4.549845159E-1,5.935321450E-1,1.139852619E1
4.213799844E1,-8.753392696E-1,1.344554901E0,1.125585079E1
4.215799844E1,9.510727227E-2,2.733412087E-1,1.228312588E1
4.217799844E1,1.418267608E0,-5.555984378E-1,1.191744518E1
4.219999688E1,7.335929275E-1,4.044189751E-1,9.170367241E0
4.221999688E1,6.557431221E-1,-6.870784163E-1,8.661809921E0
4.223999844E1,3.014587164E-1,-4.371333420E-1,8.641803741E0
4.225999844E1,3.689464629E-1,6.976608038E-1,9.361376762E0
4.228199688E1,3.551080078E-2,2.579848051E0,9.913163185E0
4.230199688E1,9.387186170E-1,1.909892917E0,9.245458603E0
4.232199688E1,1.596290946E0,1.029506773E-1,7.731930733E0
4.234199688E1,1.706931710E0,2.356373221E-1,6.411748409E0
4.236199688E1,1.662112355E0,-1.431387782E0,9.850425720E0
4.238199688E1,6.412438154E-1,1.342199087E0,7.994047642E0
4.240200312E1,1.019364834E0,2.404822350E0,8.524488449E0
4.242399844E1,1.164290667E0,2.790470600E0,9.051174164E0
4.244399844E1,1.378590941E0,1.502917051E0,8.213932037E0
4.246399844E1,1.778872728E0,8.543756604E-1,8.285431862E0
4.248399844E1,2.098987103E0,1.200835824E0,8.772153854E0
4.250399844E1,1.890519142E0,1.710752964E0,9.678320885E0
4.252399844E1,1.385974646E0,1.432699800E0,9.008049965E0
4.254399844E1,1.485132933E0,1.162442327E0,9.455574036E0
4.256599688E1,1.276751041E0,3.772208691E-1,1.017249393E1
4.258599844E1,1.092560410E0,2.627013922E-1,1.132663250E1
4.260600000E1,4.515464231E-2,1.282343984E0,1.138717747E1
4.262600625E1,-2.126051113E-2,2.498799562E0,1.106198692E1
