"Time (s)","Gyroscope x (rad/s)","Gyroscope y (rad/s)","Gyroscope z (rad/s)"
2.852562000E-3,-5.475097895E-2,-1.517040133E-1,-3.693116829E-2
2.484787500E-2,-7.805112749E-2,-2.183755934E-1,-2.478367463E-2
4.484787500E-2,-6.288421154E-2,-1.581268311E-1,1.233598739E-1
6.484943700E-2,-7.686430216E-2,-4.988151044E-2,1.438151300E-1
8.485100000E-2,-7.794640213E-2,-6.689847261E-2,-5.305801053E-3
1.068494370E-1,-4.429645464E-2,-7.159340382E-2,-1.012116447E-1
1.268556870E-1,1.085594762E-2,-7.138396800E-2,-2.986258268E-2
1.488478750E-1,-2.251474652E-3,-1.068839654E-1,8.798204362E-2
1.688494370E-1,-1.038121805E-1,-1.077740788E-1,6.663667411E-2
1.888494370E-1,-2.025978118E-1,-1.916895062E-1,-6.763150543E-2
2.088525620E-1,-2.134537697E-2,-8.787732571E-2,-1.269901544E-1
2.308494370E-1,1.227315515E-1,6.295402348E-2,5.188863724E-2
2.508494370E-1,1.762782573E-3,-1.764527895E-2,8.696975559E-2
2.708494370E-1,-1.428551972E-1,-7.220426947E-2,1.483529899E-2
2.908494370E-1,-2.009746581E-1,-1.222079545E-1,-4.033455998E-2
3.108494370E-1,1.692969352E-2,-6.084217876E-2,-6.979571283E-2
3.308494370E-1,1.076868176E-1,1.478293911E-2,1.516691130E-2
3.508650620E-1,-2.364921197E-2,-2.019869536E-1,-4.351105914E-2
3.728478750E-1,-1.683021039E-1,-2.844712138E-1,-8.874998987E-2
3.928510000E-1,-3.018023372E-1,-1.922829300E-1,-2.038544603E-2
4.148494370E-1,-3.020466864E-1,-1.613033265E-1,-4.808381945E-2
4.368494370E-1,8.761553094E-3,-2.851868048E-2,-1.624901593E-2
4.568494370E-1,1.929636002E-1,3.675663471E-2,2.686061710E-2
4.768541250E-1,5.571090803E-2,-9.695304185E-2,-6.321582198E-2
4.988541250E-1,-2.154608965E-1,-2.500882149E-1,-9.876818210E-2
5.208478750E-1,-4.518657327E-1,-1.909564734E-1,5.742133129E-3
5.408478750E-1,-3.685786426E-1,4.956734832E-3,5.682792142E-2
5.608478750E-1,-1.597674340E-1,1.600641459E-1,-1.570796361E-3
5.808494370E-1,-1.056447774E-1,6.640977412E-2,-1.353328228E-1
6.028494370E-1,-1.035503820E-1,-1.069886833E-1,-1.396088898E-1
6.248478750E-1,-1.761386245E-1,-2.322160602E-1,-2.408554405E-2
6.448478750E-1,-1.507964432E-1,-9.377653897E-2,1.715658605E-2
6.648478750E-1,4.169591516E-2,1.437104046E-1,4.827580601E-2
6.848478750E-1,6.988298148E-2,9.227555990E-2,-3.708824515E-2
7.048494370E-1,3.281218931E-3,-5.948081985E-2,-1.121548563E-1
7.268510000E-1,1.312487572E-2,-2.944370359E-2,-3.420845419E-2
7.488478750E-1,3.525565192E-2,2.187246680E-1,6.157521531E-2
7.688494370E-1,-6.944665313E-2,7.548549026E-2,-3.544763848E-2
7.908494370E-1,-3.939208016E-2,-8.264134079E-2,-1.156455129E-1
8.128494370E-1,9.279915690E-2,-3.111921996E-2,-5.572836101E-2
8.348478750E-1,1.745154709E-1,3.017674200E-2,3.780383244E-2
8.548494370E-1,1.517912894E-1,1.565036774E-1,6.869615614E-2
8.768494370E-1,9.557422996E-2,2.405761778E-1,-7.304202765E-2
8.988494370E-1,2.479589283E-1,2.768441141E-1,-1.698205322E-1
9.188494370E-1,2.936342061E-1,2.277654707E-1,-9.196139872E-2
9.388494370E-1,2.324604094E-1,8.395033330E-2,-6.354743987E-2
9.608478750E-1,1.647241712E-1,-1.855284907E-2,4.560545459E-2
9.808478750E-1,-2.230530791E-2,2.295107953E-2,9.532988071E-2
1.000849437E0,-2.486570626E-1,-2.044304162E-1,-4.138175771E-2
1.020860375E0,-2.139773592E-2,-1.160992980E-1,-1.156455129E-1
1.042847875E0,1.842544079E-1,-2.799508162E-2,7.546803355E-2
1.062849437E0,-9.880308807E-2,-5.803219602E-2,1.944645792E-1
1.082849437E0,-4.282688797E-1,-1.303237379E-1,1.610589772E-1
1.102849437E0,-4.537506998E-1,-2.047969401E-1,2.316051908E-2
1.122849437E0,-2.696708143E-1,-2.869495749E-1,-2.460914291E-2
1.142849437E0,4.995132238E-2,-1.496445239E-1,-4.853760451E-2
1.162851000E0,1.650906950E-1,4.848524556E-2,6.522295624E-2
1.184849437E0,-2.157226950E-2,-1.297303289E-1,5.113814492E-3
1.204854125E0,-1.767145842E-1,-1.852841526E-1,-1.808684766E-1
1.226854125E0,-1.036376506E-1,-2.532472648E-2,-1.795245707E-1
1.248854125E0,1.183682308E-1,1.458397061E-1,3.762929887E-2
1.270857250E0,3.361504152E-2,-2.096140385E-2,8.627162129E-2
1.292849437E0,-7.483971864E-2,-1.404640973E-1,-2.398082428E-2
1.312849437E0,-1.101477295E-1,-1.357167959E-1,-1.122595742E-1
1.334847875E0,-2.209586836E-2,1.300270297E-2,-7.997098565E-2
1.354855687E0,6.503096968E-2,5.087634921E-2,3.691371530E-2
1.376849437E0,5.649630725E-2,-6.497860700E-2,5.611233413E-2
1.396854125E0,-2.227040194E-2,-7.641051710E-2,-9.407324344E-2
1.418847875E0,2.932153083E-2,1.491558403E-1,-1.304284483E-1
1.438849437E0,1.132369637E-1,1.841147840E-1,-1.694714651E-2
1.458849437E0,1.737300754E-1,1.904154196E-2,3.199188411E-2
1.478858812E0,2.791479528E-1,4.111995548E-2,5.672320258E-3
1.500851000E0,1.981821358E-1,1.149997413E-1,-5.153957382E-2
1.520854125E0,-2.644872069E-1,-1.023810133E-1,-7.470009383E-3
1.542847875E0,-2.778913081E-1,-2.035053968E-1,-2.544690110E-2
1.562852562E0,1.091005281E-1,-1.236391217E-1,-1.743583940E-2
1.584847875E0,2.458994389E-1,-1.123468429E-1,-1.452113967E-2
1.604847875E0,5.379104614E-2,-1.918116771E-2,-7.557275705E-3
1.624849437E0,-1.880941391E-1,-2.696533687E-2,-2.061233856E-2
1.644855687E0,-1.308473349E-1,-6.792821735E-2,-8.517206647E-3
1.666851000E0,8.121016622E-2,-1.126260981E-1,-7.398450375E-2
1.686852562E0,1.278279126E-1,-6.860889494E-2,-1.225221157E-1
1.708849437E0,-2.373647690E-2,8.724901080E-2,3.248057887E-2
1.728849437E0,-4.482005537E-2,3.844960406E-2,1.156804189E-1
1.750847875E0,-5.183627829E-3,-1.332733482E-1,2.138028294E-2
1.770847875E0,-5.099852011E-2,-2.012190074E-1,-8.218755573E-2
1.790849437E0,-1.681450158E-1,-2.018647790E-1,-3.844960406E-2
1.810852562E0,-2.893057764E-1,-6.288421154E-2,9.721484035E-2
1.832849437E0,-2.295806110E-1,-6.325073540E-2,1.456302702E-1
1.852851000E0,8.726646192E-3,-4.735078290E-2,6.396631896E-2
1.874847875E0,3.497639671E-2,-4.567526653E-2,-6.000442058E-2
1.894847875E0,-1.200611964E-1,-8.316493779E-2,-4.480260238E-2
1.914849437E0,-2.036624700E-1,-4.852015153E-2,6.440264732E-2
1.934854125E0,-1.029220670E-1,1.757546514E-2,1.062381938E-1
1.956849437E0,1.172163114E-1,7.190756500E-2,7.120943069E-2
1.976868187E0,8.784241974E-2,7.934267074E-2,1.970476657E-2
1.998847875E0,-2.432988957E-2,4.153883550E-3,-1.307251584E-2
2.018858812E0,4.363323096E-4,1.738347858E-2,1.328195538E-2
2.040849437E0,1.010371074E-1,8.953539282E-2,4.726351425E-2
2.060851000E0,-1.327846497E-1,-8.815658092E-2,5.653121322E-2
2.082847875E0,-8.805186301E-2,-3.382448107E-2,9.005898610E-3
2.102849437E0,1.840798706E-1,2.722713631E-3,-2.755874954E-2
2.124849437E0,2.897072136E-1,-2.094395168E-4,1.403244678E-2
2.146849437E0,-9.915215522E-2,-2.090904415E-1,2.809980139E-2
2.166863500E0,-2.288999259E-1,-1.679355800E-1,-4.494222626E-2
2.188849437E0,1.926843449E-2,5.619960371E-3,-8.686503768E-2
2.208852562E0,1.847780049E-1,6.663667411E-2,6.894050632E-3
2.230855687E0,9.243264049E-2,-5.510004610E-2,5.605997518E-2
2.252849437E0,-6.307619810E-2,-8.162904531E-2,-9.773843922E-3
2.272849437E0,-3.775146976E-2,-7.714355364E-3,-8.234463632E-2
2.292855687E0,7.527604699E-2,6.503096968E-2,-7.981390506E-2
2.314847875E0,5.558873713E-2,-1.670280099E-2,-2.192133479E-2
2.334847875E0,-4.492477328E-2,-6.094689667E-2,2.235766686E-2
2.354849437E0,-1.471312530E-2,-1.134464052E-2,1.919862116E-3
2.374852562E0,3.422590718E-2,5.183627829E-3,-1.774999872E-2
2.396847875E0,9.930923581E-3,-1.525417715E-2,-6.108652335E-3
2.416866625E0,1.973967440E-2,-8.185594343E-3,-2.000147291E-2
2.438849437E0,1.466076588E-3,4.708898440E-2,-4.869468510E-2
2.458851000E0,3.019419499E-3,6.649704278E-2,-8.112290502E-2
2.480849437E0,5.558873713E-2,1.577777602E-2,-3.785619140E-2
2.500849437E0,7.012733072E-2,5.230751634E-2,7.253587991E-2
2.520849437E0,1.884955540E-2,1.570796303E-4,7.305948436E-2
2.540851000E0,-2.157226950E-2,-8.499753661E-3,-2.878047898E-2
2.562849437E0,-2.813470736E-2,5.110324174E-2,-1.006705910E-1
2.582852562E0,4.623377323E-2,6.178465672E-3,-1.240929123E-2
2.604847875E0,2.883283980E-2,-1.764527895E-2,9.374163300E-2
2.624849437E0,-6.843435764E-2,1.656317525E-2,1.879719645E-2
2.646847875E0,-9.574875981E-2,2.659881860E-2,-2.567379363E-2
2.666847875E0,-1.497492474E-2,6.667157635E-3,-1.024508290E-2
2.686849437E0,8.826129884E-2,-1.017526910E-2,2.994984947E-2
2.706855687E0,1.166229025E-1,6.138322875E-2,6.276203692E-2
2.728849437E0,5.452408642E-2,8.719664812E-2,1.802925020E-2
2.750847875E0,1.996656694E-2,3.387684003E-2,-7.033676840E-3
2.770847875E0,6.609562039E-2,4.991641734E-3,-7.155850064E-3
2.790851000E0,1.529606581E-1,3.729768470E-2,8.150687441E-3
2.812849437E0,1.325577497E-1,8.693484962E-2,2.282890677E-2
2.834847875E0,1.404990070E-2,-1.883210242E-2,3.467969224E-2
2.854847875E0,-3.269001842E-2,-1.094670519E-1,9.442231618E-3
2.874854125E0,-5.286602303E-2,-3.516838327E-2,-1.055924222E-2
2.896854125E0,-7.340855151E-2,3.637266159E-2,-2.478367416E-3
2.918849437E0,-3.145083413E-2,-7.189010829E-2,3.392919898E-2
2.940849437E0,8.030259609E-2,-5.335471407E-2,3.434807807E-2
2.962847875E0,6.955137104E-2,3.771656379E-2,-3.926991019E-3
2.982849437E0,-4.160865024E-2,7.356562465E-2,1.076868176E-2
3.004847875E0,-5.440191180E-2,-1.384046115E-2,-1.556833647E-2
3.024847875E0,3.445279971E-2,1.445132587E-2,1.548107062E-2
3.044847875E0,8.459610492E-2,5.045747012E-2,7.623597980E-2
3.064847875E0,8.063420653E-3,6.253514439E-2,7.229153812E-2
3.084847875E0,-4.262094200E-2,8.464846760E-3,-4.180063680E-2
3.104849437E0,-1.972222002E-3,-4.105014354E-2,-8.208283782E-2
3.124849437E0,1.203579083E-1,-5.853834376E-2,-3.947934881E-2
3.146847875E0,2.830400467E-1,5.639158934E-2,-1.872738265E-2
3.166849437E0,2.391973734E-1,1.014210805E-1,-1.640609466E-2
3.186849437E0,-8.918632753E-3,5.129522830E-2,1.340412907E-2
3.206849437E0,-2.119702399E-1,-5.459389836E-2,-7.941247895E-3
3.226849437E0,-7.843509316E-2,-5.766567960E-2,-6.330309063E-2
3.246852562E0,9.128072113E-2,-1.500983164E-2,-3.572688997E-2
3.268851000E0,1.222079545E-1,-5.982988700E-2,3.221877664E-2
3.290849437E0,-8.419468254E-2,-6.115633622E-2,5.714207888E-2
3.310849437E0,-3.148573935E-1,-7.089527696E-2,7.937757671E-2
3.330849437E0,-2.234370559E-1,-2.356194519E-2,1.825614460E-2
3.350865062E0,4.124213010E-2,-1.635373570E-2,-2.460914291E-2
3.372849437E0,1.537635028E-1,-6.412339956E-2,-3.864159063E-2
3.392849437E0,2.382374369E-2,-9.157742560E-2,-8.499753661E-3
3.412852562E0,-9.915215522E-2,1.919862116E-3,5.672320258E-3
3.434847875E0,-5.640904233E-2,3.279473633E-2,-4.576253146E-2
3.454847875E0,8.213519305E-2,-5.426228791E-2,-3.052580915E-2
3.474857250E0,1.102175415E-1,-6.633996218E-2,6.754423957E-3
3.496851000E0,1.857030392E-2,-2.775073517E-3,3.731513768E-2
3.516851000E0,-3.726277873E-2,3.239331022E-2,6.316346675E-2
3.536852562E0,8.761553094E-3,3.647738136E-3,5.312782153E-2
3.558849437E0,4.019493237E-2,-3.089232743E-2,-1.490511186E-2
3.578852562E0,1.073377486E-2,5.078908056E-3,-3.645992652E-2
3.600849437E0,-9.878563695E-3,7.641051710E-2,2.038544603E-2
3.622847875E0,-4.101523757E-2,7.267551124E-2,5.904448777E-2
3.642849437E0,-1.764527895E-2,-4.014257342E-2,1.546361670E-2
3.664847875E0,2.766346931E-2,-4.543092102E-2,-6.702064537E-3
3.684849437E0,2.981022373E-2,-5.881759338E-3,2.076941775E-3
3.704849437E0,2.757620299E-3,6.517059356E-2,1.830850355E-2
3.726854125E0,-2.537708730E-2,6.719517522E-3,-1.267109066E-2
3.748849437E0,-1.143190637E-2,-5.916666240E-2,2.623229846E-2
3.768855687E0,4.429645464E-2,-3.059562109E-2,5.138249323E-2
3.790849437E0,7.524114102E-2,3.867649660E-2,1.466076542E-2
3.810855687E0,7.803367078E-2,3.771656379E-2,-4.427900165E-2
3.832847875E0,-3.954916075E-2,7.576474547E-2,-9.791296907E-3
3.852847875E0,-1.206720620E-1,-3.382448107E-2,1.436406001E-2
3.872847875E0,7.452555932E-3,-2.691297606E-2,6.789330859E-3
3.892849437E0,1.280548126E-1,-2.789036185E-2,-2.145009674E-2
3.914849437E0,7.295475900E-2,-5.038765445E-2,-5.946336687E-2
3.934852562E0,-1.304982603E-1,-6.503096968E-2,-6.682865322E-2
3.956849437E0,-4.820599407E-2,-7.155850180E-4,-3.885103017E-2
3.976854125E0,1.537460536E-1,7.789404690E-2,-1.272345055E-2
3.998849437E0,1.012639999E-1,3.953170776E-2,-3.286454827E-2
4.018851000E0,-5.637413636E-2,-6.750933826E-2,-8.063421398E-2
4.040847875E0,-5.914920941E-2,-1.860520989E-2,-8.482300490E-2
4.060849437E0,5.263913050E-2,6.206390634E-2,-1.623156108E-2
4.080849437E0,5.585053563E-2,2.373647876E-3,5.586798862E-2
4.100855687E0,-1.778490469E-2,-1.017177850E-1,4.572762642E-3
4.122847875E0,-2.584832534E-2,-4.558800161E-2,-6.770132482E-2
4.142847875E0,1.495747175E-2,3.703588620E-2,-4.721115530E-2
4.162849437E0,-7.976154797E-3,1.438151300E-2,-1.509709843E-2
4.182849437E0,-6.010913849E-2,2.464404888E-2,-4.082325101E-2
4.204849437E0,-2.241002768E-2,3.548254445E-2,-2.673844434E-2
4.224855687E0,-9.372417815E-3,-3.174753860E-2,3.611086309E-2
4.246849437E0,-6.901031733E-2,-6.230825558E-2,7.225663215E-2
4.266858812E0,-7.675957680E-2,-2.316051908E-2,3.733259439E-2
4.288849437E0,-1.343903481E-3,3.981095925E-2,-2.958333120E-2
4.308851000E0,6.672393531E-2,8.258897811E-2,-3.975860029E-2
4.328851000E0,5.979498103E-2,4.214970022E-2,-4.886921961E-3
4.348851000E0,-3.106686100E-2,6.370451767E-3,2.261946723E-2
4.370849437E0,-5.164429173E-2,1.984439418E-2,3.502875939E-2
4.390854125E0,-4.146902263E-2,5.695009232E-2,3.061307408E-2
4.412847875E0,-6.352998316E-3,8.731882274E-2,-1.963495463E-2
4.432849437E0,4.197516665E-2,7.847000659E-2,-3.755948693E-2
4.452849437E0,4.619886354E-2,1.400801241E-1,2.234021435E-3
4.474852562E0,-4.436627030E-2,1.261873096E-1,4.677482322E-2
4.496857250E0,-9.407324344E-2,6.632251199E-3,3.082251363E-2
4.518849437E0,-1.516167521E-1,-3.385938704E-2,-5.759586347E-4
4.538849437E0,-1.532050073E-1,3.630284918E-3,-5.068436265E-2
4.558849437E0,-8.775515109E-2,3.644247353E-2,-9.803514183E-2
4.580849437E0,-5.724680144E-3,-4.619886354E-2,-7.555530220E-2
4.602849437E0,1.879719645E-2,-3.359758854E-2,-2.478367416E-3
4.624849437E0,-5.911429971E-2,-3.574434295E-2,3.356268257E-2
4.644849437E0,-1.991769671E-1,-1.619490981E-1,3.986331820E-2
4.666849437E0,-1.240754575E-1,-2.203303576E-1,8.876744658E-2
4.688849437E0,5.276130140E-2,2.572615258E-2,1.626297832E-1
4.710849437E0,2.789036185E-2,1.517214775E-1,4.482005537E-2
4.730849437E0,-2.143613398E-1,5.331980810E-2,-7.127925009E-2
4.752849437E0,-3.445454538E-1,-1.494350880E-1,1.000073645E-2
4.774849437E0,-3.630633950E-1,-1.632755548E-1,2.380280048E-1
4.796849437E0,-4.573286176E-1,4.939281940E-2,3.266907334E-1
4.816863500E0,-4.193502665E-1,9.808750823E-3,1.370781660E-1
4.838849437E0,-2.615201473E-1,-3.166027367E-1,-7.075564563E-2
4.860849437E0,-7.407177240E-2,-4.583060145E-1,-1.608146429E-1
4.882855687E0,-7.236135006E-2,-2.125112861E-1,-1.411622316E-1
4.904847875E0,-1.623156220E-1,6.715503335E-1,1.029744223E-1
4.924849437E0,-3.968878835E-2,8.914617896E-1,1.955466866E-1
4.946849437E0,6.647959352E-2,8.138644695E-1,1.509884298E-1
4.966849437E0,2.813470736E-2,5.352401137E-1,1.178097259E-2
4.986849437E0,-1.250702888E-1,-6.632251292E-2,-3.423114121E-1
5.008847875E0,-2.917143404E-1,-5.378406644E-1,-6.489832401E-1
5.028847875E0,-3.674790859E-1,-4.449716806E-1,-6.231349111E-1
5.048857250E0,-4.085641205E-1,-3.052755296E-1,-3.699923456E-1
5.070849437E0,-4.662996233E-1,-4.883431271E-2,-1.398357749E-1
5.090849437E0,-3.440916538E-1,8.585274220E-2,-3.820525855E-2
5.112849437E0,-2.251474652E-3,2.343453616E-1,-1.203928143E-1
5.134847875E0,1.386489570E-1,1.284387857E-1,-1.946391165E-1
5.154847875E0,-6.478662044E-2,-5.021312088E-2,-2.939134464E-2
5.174847875E0,-7.962191850E-2,1.273217648E-1,1.611287892E-1
5.194849437E0,-7.033676840E-3,1.993340552E-1,5.920156837E-2
5.214849437E0,-1.374621242E-1,1.845685691E-1,-2.720095515E-1
5.234849437E0,-3.106162548E-1,-3.555933833E-1,-4.488637745E-1
5.256851000E0,-1.476723105E-1,-8.168315291E-1,-1.949009150E-1
5.278849437E0,2.458994389E-1,-5.300390124E-1,1.457524449E-1
5.298849437E0,4.304854572E-1,-6.105161831E-2,7.398450375E-2
5.320847875E0,3.633077443E-1,2.753256857E-1,-1.699427068E-1
5.340847875E0,2.447998822E-1,2.799507976E-1,-3.242123723E-1
5.360849437E0,1.063254550E-1,3.862413764E-2,-3.453831971E-1
5.382849437E0,-2.862340026E-2,-3.584906086E-2,-3.260449469E-1
5.402849437E0,-1.178097259E-2,1.463633180E-1,-3.253642917E-1
5.424851000E0,1.952674389E-1,2.858500183E-1,-3.888767958E-1
5.446849437E0,2.796191871E-1,5.494296551E-2,-5.051855445E-1
5.468849437E0,-1.387536712E-2,7.764969766E-2,-5.893278718E-1
5.488849437E0,-4.815886915E-1,-3.748967126E-2,-6.411815882E-1
5.510849437E0,-8.993157744E-1,-2.960427403E-1,-4.713261724E-1
5.532849437E0,-7.897789478E-1,-3.880565166E-1,-6.846926361E-2
5.554847875E0,-3.422765136E-1,-3.539702296E-1,2.798810005E-1
5.574847875E0,6.824237108E-2,-2.237861156E-1,3.925769031E-1
5.594847875E0,2.659707367E-1,-1.705186665E-1,2.974390090E-1
5.614847875E0,2.397035211E-1,-2.600715160E-1,-8.208283782E-2
5.634849437E0,1.947787404E-2,-3.977081776E-1,-4.657061994E-1
5.656855687E0,-2.035926580E-1,-4.862487316E-2,-3.968006074E-1
5.678847875E0,-2.267182618E-1,3.210533261E-1,-1.398008764E-1
5.698849437E0,-1.421396136E-1,3.433411717E-1,-8.264134079E-2
5.718849437E0,-8.354891092E-2,2.244668007E-1,-1.611287892E-1
5.738849437E0,2.446951531E-2,1.853539646E-1,-2.491282970E-1
5.758849437E0,6.546729803E-2,1.077566296E-1,-1.612858772E-1
5.778849437E0,7.185520232E-2,-3.293436393E-2,-8.178612590E-2
5.800851000E0,6.391395628E-2,-6.864380091E-2,1.080184281E-1
5.822847875E0,1.457349956E-1,-2.531949282E-1,2.919761240E-1
5.842847875E0,2.735978067E-1,-4.768763185E-1,2.450965792E-1
5.862847875E0,3.917216957E-1,-1.977981627E-1,1.411098689E-1
5.882849437E0,4.700520635E-1,4.075692892E-1,9.897761792E-2
5.902849437E0,2.910685539E-1,2.611187100E-1,7.642796636E-2
5.922849437E0,1.531700939E-1,-2.876302600E-2,4.961971194E-2
5.942849437E0,1.062032878E-1,-4.325973094E-1,5.389576778E-2
5.962849437E0,2.720444798E-1,-4.788834453E-1,6.133086979E-2
5.984849437E0,4.980122447E-1,-6.075491011E-2,1.263792962E-1
6.004849437E0,4.774697125E-1,4.489859343E-1,2.549227774E-1
6.024849437E0,2.499136925E-1,3.628365099E-1,2.921855748E-1
6.044849437E0,-7.304202765E-2,-1.072853878E-1,1.723338068E-1
6.064849437E0,-2.129999846E-1,-1.011592820E-1,9.580112249E-2
6.086849437E0,-3.082251363E-2,2.736327052E-1,2.605951130E-1
6.106849437E0,2.092998773E-1,6.148271561E-1,4.817108810E-1
6.126849437E0,2.827607989E-1,5.130046010E-1,4.340633750E-1
6.146849437E0,1.360309571E-1,-2.701769583E-2,1.659110039E-1
6.166851000E0,-9.648180008E-2,-4.635943472E-1,-1.337096691E-1
6.188849437E0,-2.595653534E-1,-4.642575681E-1,-1.746725440E-1
6.208849437E0,-2.666863203E-1,-1.272345036E-1,-3.796090931E-2
6.228849437E0,-2.278352827E-1,1.850921661E-1,1.452113967E-2
6.248849437E0,-2.284461409E-1,1.292416304E-1,-1.708677411E-2
6.268849437E0,-2.117084414E-1,-2.409427017E-1,-7.857472450E-2
6.290849437E0,-1.276010275E-1,-2.377138436E-1,3.462733328E-2
6.312849437E0,-2.658136375E-2,8.506734669E-2,2.380629033E-1
6.334847875E0,1.915498823E-1,1.356120855E-1,1.358215213E-1
6.354847875E0,5.296201706E-1,-3.466223776E-1,6.305874884E-2
6.374847875E0,8.972912431E-1,-5.147324800E-1,1.245117858E-1
6.394847875E0,1.051752806E0,-2.020393163E-1,7.557275891E-2
6.414849437E0,8.232368827E-1,4.007275775E-2,-1.012465507E-1
6.436849437E0,3.296054304E-1,9.456194192E-2,-2.219709754E-1
6.456849437E0,7.815584540E-2,1.175130159E-1,-2.502278686E-1
6.478849437E0,9.417796880E-2,9.040805511E-3,-2.999871969E-1
6.500849437E0,2.462484986E-1,3.909537569E-2,-3.517187536E-1
6.522847875E0,4.207814336E-1,-2.028072625E-1,-3.992440701E-1
6.542847875E0,5.570043921E-1,-2.963918149E-1,-3.703239560E-1
6.562847875E0,5.609662533E-1,1.614604145E-1,-2.133664936E-1
6.582847875E0,3.798709214E-1,4.344299138E-1,-1.143016145E-1
6.602849437E0,-2.754129469E-2,-1.433962435E-1,-2.142391652E-1
6.624847875E0,-2.020393163E-1,-8.301309347E-1,-3.410896957E-1
6.644847875E0,3.385938704E-2,-6.402565837E-1,-2.295806110E-1
6.664847875E0,2.969677746E-1,2.275560200E-1,-6.658431143E-2
6.684847875E0,2.208539695E-1,4.588645101E-1,-2.088810056E-1
6.704847875E0,-1.200437471E-1,-2.499311417E-2,-3.461860418E-1
6.724847875E0,-3.077888191E-1,-2.143089771E-1,-3.958406746E-1
6.744847875E0,-4.198563993E-1,-2.693217695E-1,-4.147774875E-1
6.764847875E0,-5.200208426E-1,-1.176177412E-1,-3.369532526E-1
6.784847875E0,-5.323777795E-1,9.787806123E-2,-2.212553918E-1
6.804847875E0,-3.299195766E-1,4.542219341E-1,-1.508662552E-1
6.824847875E0,-8.532914519E-2,6.584079862E-1,-1.106015146E-1
6.844849437E0,1.733111963E-2,4.906120598E-1,-2.956587821E-2
6.866849437E0,1.676737815E-1,3.013660014E-1,2.048492879E-1
6.886849437E0,2.560746968E-1,7.391469181E-2,2.363350391E-1
6.908849437E0,2.305754423E-1,-2.738945186E-1,6.056292448E-3
6.930849437E0,1.647590846E-1,-3.063052893E-1,-1.618618369E-1
6.952847875E0,9.775589406E-2,-6.956882030E-2,-1.485449672E-1
6.972849437E0,-7.911577821E-2,1.076693609E-1,-1.617396623E-1
6.994849437E0,-3.218387067E-1,8.241444826E-2,-1.022937447E-1
7.016849437E0,-3.890862465E-1,-3.525565146E-3,8.552113175E-2
7.036849437E0,-3.126059175E-1,-2.257234305E-1,1.903107017E-1
7.056854125E0,-1.465203911E-1,-3.214721978E-1,1.449321359E-1
7.078847875E0,1.395216137E-1,4.347615317E-2,1.242848933E-1
7.098849437E0,3.710395396E-1,1.610240787E-1,1.356295347E-1
7.118854125E0,4.995830357E-1,7.714355364E-3,9.093165398E-2
7.140849437E0,4.898615479E-1,-1.834515631E-1,-3.665191308E-2
7.160849437E0,5.005080700E-1,5.810201168E-2,1.406037211E-1
7.182847875E0,4.186870456E-1,4.022809267E-1,3.580019474E-1
7.202847875E0,-7.937757671E-2,6.235188842E-1,3.937288225E-1
7.222847875E0,-7.600908875E-1,7.498981357E-1,4.465948343E-1
7.242849437E0,-1.055836916E0,9.830392599E-1,5.104913712E-1
7.264847875E0,-9.738064408E-1,1.163698316E0,5.312258601E-1
7.284847875E0,-6.963514686E-1,1.130606890E0,4.931253195E-1
7.304847875E0,-5.376661420E-1,9.895668030E-1,3.833441138E-1
7.324847875E0,-3.286978602E-1,7.429692149E-1,4.316373765E-1
7.344849437E0,1.701172441E-1,5.443507433E-1,6.311284900E-1
7.366849437E0,7.301933765E-1,3.767467737E-1,6.811147332E-1
7.386849437E0,8.631002307E-1,1.583537161E-1,5.096710324E-1
7.408849437E0,5.989097357E-1,-2.176774591E-1,3.157824278E-1
7.428849437E0,2.823593616E-1,-5.257979035E-1,1.471138000E-1
7.448855687E0,-6.457717973E-4,-1.027614951E0,3.630284918E-3
7.470849437E0,-1.162389293E-2,-1.002639294E0,4.537856206E-3
7.492847875E0,1.857903004E-1,-5.367236733E-1,6.438519806E-2
7.512847875E0,3.593807518E-1,-2.842617631E-1,-1.818633080E-2
7.532847875E0,3.079109788E-1,-2.900213599E-1,-1.858950108E-1
7.552847875E0,5.880014226E-2,-3.189065456E-1,-2.534741759E-1
7.572847875E0,-1.667836607E-1,-5.398303270E-2,-9.381144494E-2
7.592847875E0,-2.216568217E-3,4.362101257E-1,2.367713600E-1
7.612849437E0,1.867153198E-1,5.160415173E-1,4.266457260E-1
7.634849437E0,5.581562966E-2,-2.016029805E-1,2.324429452E-1
7.656849437E0,-6.187192351E-2,-6.871710420E-1,-7.787659019E-2
7.678849437E0,8.850564808E-2,-3.023957312E-1,-1.280373484E-1
7.698849437E0,-5.712462589E-2,-1.317199916E-1,-2.129301615E-2
7.718849437E0,-3.403217494E-1,-3.175975680E-1,5.719443783E-2
7.738849437E0,-4.333128929E-1,-4.195596874E-1,-4.080579802E-2
7.758849437E0,-3.976732790E-1,-5.373519659E-1,-3.051882684E-1
7.780847875E0,-4.539775848E-1,-5.192703605E-1,-7.383790016E-1
7.800849437E0,-5.871810913E-1,-2.068040669E-1,-9.444500208E-1
7.822849437E0,-6.644293666E-1,-4.326671362E-2,-6.935240030E-1
7.844849437E0,-5.475621223E-1,-7.038912922E-2,-1.817411333E-1
7.866847875E0,-2.577502131E-1,-1.912008226E-1,6.946410239E-2
7.886849437E0,1.436056942E-1,-1.294859797E-1,3.269001842E-2
7.906849437E0,5.761157274E-1,5.365142226E-2,-8.911651373E-2
7.928849437E0,8.420690298E-1,2.186897546E-1,-8.025024086E-2
7.948849437E0,7.226710320E-1,-3.829252347E-2,8.377579972E-3
7.968849437E0,3.610562682E-1,-3.943047822E-1,-1.881464943E-2
7.988849437E0,9.302604944E-2,-4.963890910E-1,-1.746201962E-1
8.010849437E0,3.473205119E-2,-1.160643920E-1,-2.700024247E-1
8.032849437E0,7.522369269E-3,2.250776589E-1,-1.527686715E-1
8.054847875E0,-9.166469425E-2,1.075297371E-1,5.927138031E-2
8.074849437E0,-4.506440088E-2,-2.694788277E-1,1.296081543E-1
8.096855687E0,2.176425606E-1,-3.269001842E-2,1.915847957E-1
8.118849437E0,3.585429788E-1,4.638386965E-1,3.287153244E-1
8.138849437E0,1.649161577E-1,3.043854237E-1,3.691022396E-1
8.158849437E0,-3.846705705E-2,2.549926005E-2,2.724109888E-1
8.178849437E0,8.855800331E-2,1.340587437E-1,2.782229483E-1
8.198849437E0,3.768165708E-1,5.050459504E-1,4.152487218E-1
8.218849437E0,3.932750523E-1,6.575877070E-1,4.773126543E-1
8.238849437E0,5.237733200E-2,4.047767520E-1,3.198664784E-1
8.258849437E0,-4.147425890E-1,-8.707447350E-2,-9.969320893E-2
8.278849437E0,-7.517831326E-1,-5.651376247E-1,-4.438197613E-1
8.298849437E0,-7.898138165E-1,-5.715953112E-1,-3.951599896E-1
8.318849437E0,-6.047042012E-1,-2.100678235E-1,-7.276277989E-2
8.338849437E0,-3.271619678E-1,3.165154457E-1,3.118205369E-1
8.358849437E0,-1.081755087E-1,4.261221290E-1,5.817705989E-1
8.378849437E0,1.862964481E-1,4.272740483E-1,7.405083179E-1
8.398849437E0,4.277976453E-1,5.469163656E-1,7.166321874E-1
8.420847875E0,4.580616653E-1,3.986332119E-1,4.898790121E-1
8.440849437E0,3.875678182E-1,2.428276539E-1,2.945592105E-1
8.462849437E0,3.560122550E-1,9.318313003E-2,9.616763890E-2
8.484847875E0,3.478790224E-1,8.290314116E-3,-7.180284709E-2
8.504847875E0,2.423738688E-1,-1.311091334E-1,-2.220407873E-1
8.524847875E0,1.032885835E-1,-5.085365772E-1,-4.655142128E-1
8.544847875E0,5.948081985E-2,-7.258998752E-1,-6.856002212E-1
8.564847875E0,1.452113967E-2,-6.792646646E-1,-8.495215774E-1
8.584847875E0,-3.586651757E-2,-3.301290274E-1,-8.451931477E-1
8.604849437E0,1.886700839E-2,2.625498772E-1,-5.106484294E-1
8.624849437E0,1.334478706E-1,7.389898300E-1,3.178244457E-2
8.644849437E0,3.904301673E-2,4.580093026E-1,1.637991518E-1
8.664849437E0,-3.530277610E-1,-6.339210272E-1,-3.688927889E-1
8.686860375E0,-4.104316235E-1,-8.884423971E-1,-9.289689660E-1
8.708849437E0,8.726646047E-5,-2.014808059E-1,-7.814711928E-1
8.728849437E0,2.588846982E-1,4.554785788E-1,-2.653947771E-1
8.748849437E0,6.808529049E-2,6.734876633E-1,1.513549536E-1
8.768849437E0,-3.788062632E-1,5.273686647E-1,2.663372457E-1
8.788849437E0,-5.758539438E-1,2.721666396E-1,1.981472224E-1
8.808849437E0,-5.155876875E-1,1.291892678E-1,-8.360126987E-3
8.828849437E0,-4.091575444E-1,5.911429971E-2,-1.146855876E-1
8.850863500E0,-3.454006612E-1,-1.036201939E-1,-2.164208330E-2
8.872849437E0,-2.411870509E-1,-2.637716234E-1,1.499761492E-1
8.892849437E0,-5.375614017E-2,-1.805194020E-1,2.306627184E-1
8.914847875E0,1.720371097E-1,9.665632993E-2,1.556833684E-1
8.934847875E0,2.822546363E-1,3.592934906E-1,1.191187203E-1
8.954847875E0,2.496518940E-1,2.444333583E-1,1.010371074E-1
8.974847875E0,1.472708881E-1,-3.480186686E-2,5.916666240E-2
8.994849437E0,3.618067503E-2,-2.020218670E-1,-4.930555075E-2
9.016852562E0,-6.150540337E-2,-3.875154555E-1,-1.637642384E-1
9.038847875E0,-5.160938576E-2,-2.739468813E-1,-1.871167421E-1
9.058849437E0,-2.813470736E-2,1.322261393E-1,-1.979552358E-1
9.080847875E0,-4.410447180E-2,2.503849268E-1,-1.715134978E-1
9.100849437E0,-7.831292599E-2,-7.923794538E-2,-1.483529806E-1
9.122847875E0,-5.108578876E-2,-1.939584464E-1,-9.515535086E-2
9.142847875E0,1.086118370E-1,2.484127134E-1,1.171115935E-1
9.162847875E0,6.265731901E-2,1.635199040E-1,1.837133616E-1
9.182847875E0,-2.112022936E-1,-8.138470352E-2,-8.806931227E-2
9.202847875E0,-3.693465889E-1,5.555383116E-2,-2.250951082E-1
9.222849437E0,-2.559874356E-1,3.470063508E-1,-8.445648104E-2
9.242849437E0,-1.600815952E-1,2.143613398E-1,2.490235716E-1
9.264847875E0,-2.131919712E-1,-4.411843121E-1,2.550100684E-1
9.284847875E0,-2.478193045E-1,-7.825707197E-1,-1.563640535E-1
9.304849437E0,-2.146056890E-1,-7.810522914E-1,-7.724652886E-1
9.326847875E0,-3.806737661E-1,-6.422287822E-1,-1.153051734E0
9.346847875E0,-4.959702194E-1,-5.042081475E-1,-9.638755322E-1
9.366849437E0,-3.817558587E-1,-3.333055377E-1,-3.535164297E-1
9.386852562E0,-2.586578019E-2,-1.772207320E-1,3.723310828E-1
9.408849437E0,4.382347167E-1,7.660250366E-2,6.798930168E-1
9.428849437E0,7.174524665E-1,9.382890165E-2,4.647462666E-1
9.448849437E0,7.853632569E-1,6.656685472E-2,2.552194893E-1
9.468849437E0,6.372545958E-1,1.739046127E-1,1.980075985E-1
9.488849437E0,3.480186462E-1,2.174680233E-1,2.391973734E-1
9.508849437E0,1.196248680E-1,1.247561350E-1,2.898119092E-1
9.530847875E0,1.730843037E-1,4.733332992E-2,2.094220519E-1
9.550847875E0,4.824788272E-1,9.313076735E-2,1.624901593E-2
9.570849437E0,6.958976984E-1,1.578301191E-1,-1.156106070E-1
9.590849437E0,5.639857054E-1,-1.276708394E-1,-1.413891166E-1
9.610849437E0,4.451985955E-1,-1.339889318E-1,-5.646140128E-2
9.630849437E0,5.840744376E-1,3.502701223E-1,2.136283070E-1
9.650852562E0,6.878517270E-1,6.566975713E-1,4.282863438E-1
9.672849437E0,2.419375330E-1,2.015855350E-2,9.189158678E-2
9.694847875E0,-2.399304062E-1,-3.823143840E-1,-4.668930173E-1
9.714849437E0,-8.574802428E-2,-1.512851417E-1,-5.342801809E-1
9.736855687E0,2.598097026E-1,2.262819409E-1,-1.462411433E-1
9.758851000E0,2.598271668E-1,4.603305757E-1,7.314674556E-2
9.780847875E0,-1.174955666E-1,3.782477677E-1,7.065092772E-2
9.800849437E0,-3.716154993E-1,3.800454438E-1,-8.391542733E-2
9.820849437E0,-4.287575781E-1,1.688431501E-1,-2.173283994E-1
9.840849437E0,-4.175351262E-1,-8.267624676E-2,-3.714409769E-1
9.860849437E0,-4.463679492E-1,-1.724210829E-1,-4.961447418E-1
9.880849437E0,-4.565606713E-1,-1.132369637E-1,-4.943645000E-1
9.900849437E0,-4.586899877E-1,6.733480096E-2,-2.968281507E-1
9.922847875E0,-5.259026289E-1,2.200336605E-1,-2.312561311E-2
9.942847875E0,-5.884901285E-1,8.946557343E-2,2.436479554E-2
9.962849437E0,-4.608541727E-1,-5.012410879E-1,5.309291556E-2
9.984849437E0,-1.186823845E-2,-8.167268038E-1,-8.180358261E-2
1.000484944E1,3.910235763E-1,-5.987526774E-1,-3.076840937E-1
1.002684944E1,5.353448391E-1,-7.529350370E-2,-3.792076707E-1
1.004884944E1,4.989198148E-1,1.842544079E-1,-1.612858772E-1
1.006884944E1,5.564284325E-1,9.609782696E-2,6.531021744E-2
1.008884944E1,5.667258501E-1,9.299114347E-2,1.549154222E-1
1.011084944E1,2.288999259E-1,3.888593614E-2,-7.194247097E-2
1.013284788E1,9.581857920E-2,-9.166469425E-2,-5.212251544E-1
1.015284788E1,2.783102095E-1,5.213298276E-2,-7.774394751E-1
1.017284944E1,4.801924229E-1,7.285004109E-2,-5.637064576E-1
1.019484788E1,5.598841906E-1,3.995407820E-1,-7.583455741E-2
1.021484944E1,3.204424381E-1,1.125056744E0,2.567553818E-1
1.023684944E1,-2.369109988E-1,1.336485863E0,4.314453900E-1
1.025685725E1,-7.659028172E-1,1.021192148E-1,4.111472070E-1
1.027884944E1,-9.737366438E-1,-8.730660677E-1,1.451590359E-1
1.030084944E1,-8.060977459E-1,-9.825330973E-1,-2.733185515E-2
1.032284788E1,-7.276277542E-1,-5.707226396E-1,1.034980267E-1
1.034284788E1,-7.096334100E-1,1.046324894E-1,3.377386630E-1
1.036284788E1,-5.413487554E-1,5.338264108E-1,5.676159859E-1
1.038284788E1,-2.445031703E-1,6.343050003E-1,6.944316030E-1
1.040284944E1,-1.747074537E-2,7.987673879E-1,6.581811309E-1
1.042484944E1,2.320415229E-1,8.018042445E-1,4.837703705E-1
1.044685100E1,4.607494771E-1,4.071504176E-1,3.645643592E-1
1.046884788E1,5.851216316E-1,-2.465801090E-1,2.986083925E-1
1.048884944E1,6.893352270E-1,-6.421764493E-1,3.166899979E-1
1.050884944E1,7.897964120E-1,-2.296329737E-1,3.941651583E-1
1.052884944E1,6.458765268E-1,3.994011581E-1,4.749913514E-1
1.054884944E1,2.821673751E-1,6.282138228E-1,4.500331581E-1
1.056884944E1,1.054178830E-2,3.238109350E-1,2.467371970E-1
1.058884944E1,1.122421250E-1,2.295107953E-2,6.225589290E-2
1.061084788E1,3.585779071E-1,-4.989547133E-1,-6.012659147E-2
1.063084788E1,3.728372455E-1,-5.413312912E-1,8.300785720E-2
1.065085100E1,2.044653147E-1,-2.469291836E-1,3.814591467E-1
1.067284944E1,4.958480224E-2,-2.845584750E-1,1.931730360E-1
1.069484788E1,-7.836528122E-3,-8.143182397E-1,-3.159220517E-1
1.071484788E1,4.836307466E-2,-5.595002174E-1,-4.841019809E-1
1.073484788E1,6.359979510E-2,7.018318176E-1,-3.837455511E-1
1.075484788E1,-1.799434423E-1,1.279047132E0,-5.587846041E-1
1.077484944E1,-6.506761909E-1,6.358234584E-2,-9.411687851E-1
1.079684788E1,-8.907462358E-1,-9.926909208E-1,-9.113062024E-1
1.081688069E1,-6.863681674E-1,-1.124026895E0,-5.833414197E-1
1.083884944E1,-3.944967687E-1,-4.397531450E-1,-1.402721107E-1
1.086084944E1,-2.018996924E-1,8.127998561E-2,1.190314516E-1
1.088084944E1,-7.721336931E-2,4.089306295E-2,1.997878402E-1
1.090084944E1,2.713987045E-2,3.679154068E-2,2.070135027E-1
1.092284788E1,-2.871066518E-2,4.220206290E-2,1.244943365E-1
1.094284788E1,-9.145525098E-2,5.501277745E-2,-2.663372457E-2
1.096284944E1,-7.447320223E-2,1.728574038E-1,-1.268330812E-1
1.098484788E1,-3.389429301E-2,3.000221029E-2,-1.968033314E-1
1.100484788E1,-4.045673087E-2,-2.589893937E-1,-1.888097227E-1
1.102484788E1,-6.674139202E-2,-3.009645641E-1,-5.890486389E-2
1.104484944E1,-1.297826767E-1,-1.662949771E-1,1.112123802E-1
1.106484944E1,-1.616174877E-1,7.536331564E-2,2.412917614E-1
1.108685100E1,-1.654223055E-1,2.183406800E-2,2.267357260E-1
1.110685412E1,-9.450957924E-2,-2.638763189E-1,8.237954229E-2
1.112884944E1,6.557202339E-2,-4.074645638E-1,-2.787290886E-2
1.114884944E1,2.908765674E-1,1.269901544E-1,1.336049587E-1
1.117084788E1,4.455476403E-1,7.263536453E-1,3.989298940E-1
1.119084788E1,3.864158988E-1,3.809530139E-1,3.759439290E-1
1.121084788E1,2.568950057E-1,-1.363102160E-2,2.448173314E-1
1.123085256E1,2.380978167E-1,3.250675797E-1,2.715906799E-1
1.125284944E1,1.851794273E-1,6.385287046E-1,3.786840737E-1
1.127484788E1,-2.234021435E-3,2.252870947E-1,2.094918638E-1
1.129484788E1,-2.203303576E-1,-5.556430221E-1,-9.939649701E-2
1.131484788E1,-2.118306160E-1,-7.918209434E-1,-3.295530677E-1
1.133484788E1,-5.829399824E-2,-7.169288993E-1,-5.055869818E-1
1.135484944E1,1.570796361E-3,-2.805442214E-1,-4.495444596E-1
1.137687131E1,-1.613382399E-1,2.594780922E-1,-2.583261728E-1
1.139884944E1,-4.592310190E-1,1.991769671E-1,-3.762929887E-2
1.141884944E1,-5.329537392E-1,1.186823919E-1,2.456725389E-1
1.144084944E1,-3.846880198E-1,3.671474457E-1,3.406358957E-1
1.146084944E1,-2.034355700E-1,8.158192635E-1,2.081654221E-1
1.148284944E1,-1.112123802E-1,5.922076702E-1,1.787217148E-2
1.150484788E1,-8.534659632E-3,-2.919237614E-1,-1.351408362E-1
1.152484788E1,1.704663038E-1,-6.733131409E-1,-2.268753499E-1
1.154484788E1,3.506889939E-1,-6.272014976E-1,-2.019869536E-1
1.156484944E1,4.490033984E-1,-3.785095513E-1,-1.627694070E-1
1.158684944E1,4.106585085E-1,-2.132966816E-1,-1.535889804E-1
1.160685100E1,2.758667469E-1,-1.997703910E-1,-1.467821896E-1
1.162884944E1,1.580046564E-1,-3.199712038E-1,-7.988371700E-2
1.164885100E1,1.523148865E-1,-3.116634488E-1,7.993607968E-2
1.167084944E1,2.515892088E-1,1.244594306E-1,3.408104479E-1
1.169284788E1,1.994911283E-1,6.433981657E-1,4.212701321E-1
1.171284788E1,-1.424014121E-1,-1.404640973E-1,1.171115879E-2
1.173284944E1,-4.192280769E-1,-1.002307653E0,-4.069409668E-1
1.175284944E1,-3.142814338E-1,-6.967529058E-1,-2.967932522E-1
1.177284944E1,-7.948229462E-2,2.380454540E-1,2.421120703E-1
1.179284944E1,-8.354891092E-2,5.844758749E-1,4.199087620E-1
1.181284944E1,-3.431840837E-1,1.828406900E-1,7.511897385E-2
1.183284944E1,-4.578871131E-1,8.649851382E-2,-1.751088798E-1
1.185484944E1,-3.829252422E-1,2.303485572E-1,-2.620437443E-1
1.187484944E1,-2.347816974E-1,2.518684566E-1,-2.367888242E-1
1.189484944E1,1.145285070E-1,8.728391677E-2,-4.188790172E-2
1.191484944E1,4.582710862E-1,3.171263263E-2,3.578448594E-1
1.193687131E1,5.483475327E-1,1.146506816E-1,5.730788708E-1
1.195884944E1,3.935019374E-1,-2.709449232E-1,2.456550896E-1
1.197884944E1,3.904126883E-1,-4.667359591E-1,9.992010146E-2
1.199884944E1,4.224045873E-1,-2.830225825E-1,2.368586361E-1
1.201884944E1,4.939107299E-1,-1.530304700E-1,2.173283994E-1
1.204084788E1,6.624048352E-1,4.317944497E-2,4.996877536E-2
1.206084944E1,6.751631498E-1,1.704139411E-1,-6.016149744E-2
1.208084944E1,4.245688021E-1,1.078438908E-1,-1.687558889E-1
1.210085569E1,2.047620267E-1,5.031260848E-1,-2.056172341E-1
1.212284788E1,2.827433310E-2,4.452683926E-1,-1.980599612E-1
1.214284944E1,-3.822271014E-3,7.616616786E-2,-7.771950960E-2
1.216484788E1,5.956808850E-2,-7.091272473E-1,1.253146380E-1
1.218484788E1,2.114466429E-1,-6.292784810E-1,1.416858286E-1
1.220484944E1,2.792177796E-1,1.778839529E-1,2.382025421E-1
1.222684944E1,4.714134336E-2,5.304404497E-1,2.073276639E-1
1.224685100E1,-5.208062381E-2,6.107255816E-1,2.575931549E-1
1.226885100E1,5.592034757E-2,6.089279056E-1,4.771032035E-1
1.229085100E1,1.032362282E-1,2.925346494E-1,5.250997543E-1
1.231284788E1,-1.068839654E-1,-1.878323406E-1,2.285683155E-1
1.233284944E1,-4.620410204E-1,-2.351133078E-1,-1.691573113E-1
1.235484788E1,-8.182103634E-1,2.358637899E-1,-3.665540516E-1
1.237484788E1,-1.024996996E0,5.335296988E-1,-2.895850241E-1
1.239484788E1,-1.093466282E0,5.908114314E-1,-1.559277177E-1
1.241484944E1,-9.847496748E-1,3.841295242E-1,2.720968239E-2
1.243684944E1,-6.953042746E-1,1.278279126E-1,2.658136487E-1
1.245685569E1,-4.415508509E-1,3.508635461E-1,3.398679495E-1
1.247884944E1,-3.190636337E-1,5.115036368E-1,3.416656554E-1
1.250084944E1,-2.366666496E-1,2.783451080E-1,3.461511433E-1
1.252284788E1,-5.139994621E-2,1.232202444E-2,2.185675800E-1
1.254284944E1,9.098401666E-2,1.160643995E-2,-6.752678752E-2
1.256284944E1,1.853888780E-1,4.412192479E-2,-3.918438554E-1
1.258484788E1,2.264041156E-1,-1.394518092E-2,-3.626270592E-1
1.260484788E1,2.409776151E-1,-6.003932562E-3,1.820378378E-2
1.262484788E1,2.264913768E-1,-1.025904566E-1,2.613804936E-1
1.264484944E1,2.514670491E-1,-1.442863643E-1,4.187044874E-2
1.266684944E1,2.464928478E-1,-2.269626111E-1,-2.627418637E-1
1.268884944E1,2.279749066E-1,-1.027475297E-1,-2.489537597E-1
1.271084788E1,1.234471351E-1,-5.232496932E-2,2.234719545E-1
1.273084944E1,-1.403070241E-1,-4.319340885E-1,6.783047318E-1
1.275284944E1,-4.143760800E-1,-9.618334770E-1,1.014385372E-1
1.277484944E1,-2.793748379E-1,-8.522617221E-1,-6.242170334E-1
1.279685413E1,1.226966456E-1,-2.676462531E-1,-7.888364792E-1
1.281884944E1,7.192502171E-2,-4.546059072E-1,-7.068408728E-1
1.283884944E1,-1.973618269E-1,-6.780429482E-1,-4.884653091E-1
1.286084944E1,-4.354945421E-1,-7.234564424E-1,-1.650732458E-1
1.288284788E1,-5.359905958E-1,-1.289274693E-1,-1.565909386E-1
1.290284944E1,-4.360530674E-1,3.026750088E-1,-3.143512607E-1
1.292484944E1,-1.728225052E-1,-9.754645079E-2,-4.198389649E-1
1.294684944E1,1.727875881E-2,-4.223347604E-1,-2.894802988E-1
1.296684944E1,4.223696887E-3,-1.579522900E-2,9.285151958E-3
1.298684944E1,-3.515093029E-2,4.480958283E-1,1.026253626E-1
1.300685881E1,-9.241518378E-2,5.595874786E-1,-4.389503226E-2
1.302884788E1,-2.018298805E-1,3.721739948E-1,-1.759815514E-1
1.304885256E1,-1.893856823E-1,1.810255498E-1,-2.254965454E-1
1.307084944E1,3.382448107E-2,9.709266573E-2,-1.855285019E-1
1.309284788E1,1.262222081E-1,1.875181794E-1,-3.354522958E-2
1.311284788E1,1.413716702E-3,3.670427501E-1,2.853613347E-2
1.313284944E1,-1.548281610E-1,3.544065654E-1,1.233075112E-1
1.315484788E1,-1.214923710E-1,4.337143153E-2,1.729446799E-1
1.317484788E1,1.949707270E-1,-2.727949619E-1,5.272639543E-2
1.319484788E1,3.315078318E-1,-3.568500280E-1,-1.776221544E-1
1.321484944E1,3.808482885E-1,1.446528882E-1,-1.999972761E-1
1.323684944E1,4.314104915E-1,5.742307901E-1,1.343903542E-1
1.325884944E1,2.518684566E-1,6.976080686E-2,2.727077007E-1
1.327884944E1,3.770260215E-1,-4.534365237E-1,1.134638563E-1
1.330084944E1,1.005972862E0,-5.076813698E-1,-6.457718089E-3
1.332284944E1,1.269273281E0,-2.350085825E-1,2.193878777E-2
1.334484944E1,6.340082884E-1,-2.763728797E-1,-1.879719645E-2
1.336684788E1,-4.471533597E-1,-3.323106840E-2,-2.345897108E-1
1.338684788E1,-1.090150118E0,-1.595754474E-1,-4.211828411E-1
1.340684944E1,-7.604225278E-1,-5.802696347E-1,-3.812322617E-1
1.342685100E1,1.091877967E-1,-5.332679152E-1,-8.925613761E-2
1.344685569E1,5.545260310E-1,-6.799802929E-2,1.472359747E-1
1.346884944E1,2.264215648E-1,3.676012456E-1,1.891064197E-1
1.348884944E1,-1.433613449E-1,3.989648223E-1,8.030259609E-2
1.351084944E1,2.143787891E-1,-6.014404446E-2,-1.932079531E-2
1.353284788E1,7.903897762E-1,-6.695082784E-2,-1.092925146E-1
1.355284788E1,6.735225320E-1,2.550973296E-1,-1.408655196E-1
1.357284944E1,1.630486548E-1,3.307049870E-1,-2.116386294E-1
1.359484788E1,-2.643999159E-1,4.759163857E-1,-2.362128645E-1
1.361484788E1,-5.578246713E-1,1.112525225E0,-1.731017530E-1
1.363484944E1,-6.055594087E-1,1.501227498E0,-1.561371535E-1
1.365684944E1,-3.550872207E-1,1.200350165E0,-2.136108428E-1
1.367884944E1,-2.601064146E-1,2.343453616E-1,-3.912853599E-1
1.369884944E1,-2.349562198E-1,-4.241324663E-1,-3.001268208E-1
1.372084944E1,4.473278672E-2,-3.120474219E-1,1.043357849E-1
1.374284944E1,1.209862232E-1,8.576548100E-2,3.980921507E-1
1.376284944E1,-4.971221387E-1,3.218910694E-1,2.386737764E-1
1.378284944E1,-6.595075727E-1,-3.221354187E-1,-1.903107017E-1
1.380484788E1,6.785839796E-2,-1.093710542E0,-3.583509922E-1
1.382484788E1,4.892157912E-1,-6.595948339E-1,2.128778100E-1
1.384484944E1,-8.288568258E-2,1.484577060E-1,6.149318814E-1
1.386484944E1,-5.035623908E-1,3.746000230E-1,2.721666396E-1
1.388484944E1,-1.942900568E-1,-1.264840066E-1,-3.682644665E-1
1.390484944E1,-2.164208330E-2,-2.889218032E-1,-3.539527655E-1
1.392484944E1,-1.175479218E-1,-1.932428479E-1,-5.721189082E-2
1.394484944E1,-1.620712727E-1,6.777113676E-2,2.579596639E-2
1.396484944E1,-2.013935447E-1,4.222998619E-1,-7.686430216E-2
1.398484944E1,-2.086017579E-1,-9.669124149E-3,-1.906597614E-1
1.400484944E1,2.951351739E-2,-1.927018017E-1,-1.576555967E-1
1.402684944E1,2.654122114E-1,2.544515431E-1,6.161012221E-3
1.404686975E1,1.204277202E-1,5.856626630E-1,1.630835682E-1
1.406884944E1,-1.644100100E-1,4.348487854E-1,6.094689667E-2
1.408884944E1,-8.475318551E-2,-3.960151970E-2,-7.497934252E-2
1.411084788E1,1.462411433E-1,-3.457322717E-1,3.096214123E-2
1.413084788E1,2.702293396E-1,-4.539775848E-1,2.071356773E-1
1.415084944E1,3.375117779E-1,-5.808106661E-1,1.683544517E-1
1.417284944E1,2.432116270E-1,-6.334148645E-1,-6.143558770E-3
1.419484788E1,-2.199114766E-3,-5.660277009E-1,-1.186823938E-3
1.421484788E1,6.723008305E-2,-4.006752372E-1,6.469935179E-2
1.423484788E1,2.257408798E-1,-4.396484420E-2,1.328195482E-1
1.425484788E1,2.867575884E-1,3.190461919E-2,3.096912205E-1
1.427484944E1,6.756169349E-2,-1.552819461E-1,3.744080365E-1
1.429684788E1,-1.774476171E-1,-3.163409233E-1,1.359611452E-1
1.431684944E1,-1.390329301E-1,-4.954989627E-2,4.103269055E-2
1.433686194E1,2.513274085E-3,2.843141258E-1,2.473480552E-1
1.435884788E1,-8.459610492E-2,1.631184667E-1,3.658210039E-1
1.437884944E1,-2.891137898E-1,-4.808556736E-1,7.380997390E-2
1.440084944E1,-4.077089131E-1,-9.390569329E-1,-3.933623135E-1
1.442284788E1,-3.421892524E-1,-6.137624979E-1,-4.132415950E-1
1.444284788E1,-1.507789940E-1,2.323033288E-2,-3.260274976E-2
1.446284944E1,-1.250004768E-1,1.531351954E-1,2.026152760E-1
1.448484788E1,-7.438593358E-2,-1.737126261E-1,9.341002256E-2
1.450484788E1,8.648106456E-2,-5.244888663E-1,-4.602433369E-2
1.452485100E1,3.970973194E-1,-2.572615445E-1,1.044579521E-1
1.454684788E1,4.718846679E-1,3.108431399E-1,3.419623673E-1
1.456684944E1,2.981022298E-1,3.549999595E-1,3.545810878E-1
1.458684944E1,1.841671467E-1,-4.886921961E-3,1.357691586E-1
1.460684944E1,1.333780587E-1,-3.544065654E-1,-4.658283666E-2
1.462884944E1,3.330611885E-1,-2.555685639E-1,-7.527604699E-2
1.464884944E1,4.628264010E-1,1.646718085E-1,7.393214852E-2
1.466885413E1,2.771931887E-1,3.188018501E-1,1.988104582E-1
1.469084944E1,-8.812167495E-2,5.883504823E-2,1.073726565E-1
1.471284788E1,-6.534512341E-2,-2.566681206E-1,-1.087514684E-1
1.473284788E1,2.819055915E-1,-1.958782971E-1,-1.984439418E-2
1.475284944E1,5.041732788E-1,2.223025858E-1,3.456275463E-1
1.477284944E1,3.992615044E-1,7.993258834E-1,6.618114114E-1
1.479484788E1,-4.690397680E-1,9.804736376E-1,3.858748376E-1
1.481484788E1,-9.896714687E-1,3.331135511E-1,-3.759788275E-1
1.483484944E1,-4.839623570E-1,-4.654793069E-2,-5.845806003E-1
1.485484944E1,1.736079007E-1,5.016250610E-1,-2.861990929E-1
1.487684944E1,-5.705481395E-2,6.715852618E-1,-2.075545490E-1
1.489686194E1,-4.821646512E-1,2.322858721E-1,-4.918512404E-1
1.491884944E1,-3.884055614E-1,1.718974710E-1,-6.621081233E-1
1.494084944E1,-2.278701812E-1,2.884854674E-1,-4.788136184E-1
1.496084944E1,-3.242123723E-1,-1.077915356E-1,-4.002214372E-1
1.498084944E1,-1.252099127E-1,-4.655665755E-1,-4.409050643E-1
1.500084944E1,1.865756959E-1,-4.613603354E-1,-4.320737123E-1
1.502084944E1,2.215695530E-1,-9.201376140E-2,-3.317521811E-1
1.504284944E1,3.556980938E-2,4.071154892E-1,-9.946631640E-2
1.506484944E1,8.150687814E-2,1.983915716E-1,2.572615258E-2
1.508684944E1,1.450194120E-1,5.131267942E-3,4.881685972E-2
1.510685569E1,1.994736791E-1,-2.325127572E-1,-2.635447076E-3
1.512884944E1,1.668709219E-1,-3.209660351E-1,3.602359444E-2
1.514884944E1,8.377579972E-3,-1.289798319E-1,1.315105557E-1
1.516884944E1,-6.328564137E-2,3.368485486E-3,2.257059813E-1
1.518884944E1,-2.967059799E-2,-1.090481728E-1,2.227389216E-1
1.520884944E1,8.023278415E-2,-1.644100100E-1,1.303761005E-1
1.523084944E1,1.125039235E-1,-4.502949305E-3,2.351656556E-1
1.525284944E1,-3.225368261E-2,2.103121728E-1,5.189387202E-1
1.527484944E1,-3.961897269E-2,3.763976991E-1,6.438170671E-1
1.529684788E1,-1.991071552E-1,-1.943249553E-1,4.813443422E-1
1.531684944E1,-7.049384713E-2,-5.414534807E-1,1.943773180E-1
1.533685569E1,2.249554843E-1,-3.193079829E-1,2.943846881E-1
1.535884788E1,1.584060788E-1,6.942919642E-2,6.196442246E-1
1.537884944E1,-1.739046127E-1,1.324704941E-2,5.035623908E-1
1.540084788E1,-4.139048159E-1,-3.473554254E-1,-1.262571216E-1
1.542084788E1,-4.192106426E-1,-3.818256855E-1,-4.241848290E-1
1.544084788E1,-2.897246480E-1,-6.981316954E-2,-2.795668244E-1
1.546084944E1,-1.673596203E-1,1.160120368E-1,-1.504473854E-2
1.548284944E1,-1.142492518E-1,-6.033603102E-2,1.811651699E-2
1.550484788E1,-4.944517836E-2,-6.005677953E-2,-4.146902263E-2
1.552484788E1,-1.944645792E-1,1.792453080E-1,-1.837831736E-2
1.554484788E1,-1.977981627E-1,4.256159961E-1,8.597491682E-2
1.556484944E1,1.355073601E-1,2.169444263E-1,2.251823843E-1
1.558685100E1,4.327892959E-1,-2.204525322E-1,2.483254522E-1
1.560685413E1,2.609267235E-1,-2.778738737E-1,1.078613475E-1
1.562884944E1,4.677482415E-3,1.204277202E-2,-9.651670605E-2
1.564885413E1,-2.553416602E-2,2.557954490E-1,-1.038819999E-1
1.567084788E1,6.541494280E-2,1.977458000E-1,2.984513063E-3
1.569084788E1,8.604472876E-2,3.183480725E-2,4.710643739E-2
1.571084788E1,-1.263618376E-2,-1.831199378E-1,-1.607448310E-1
1.573084944E1,-1.210734919E-1,-4.006228745E-1,-4.530700147E-1
1.575284788E1,-3.310889751E-2,-2.924648225E-1,-3.764675260E-1
1.577284788E1,1.795943826E-1,2.593559213E-2,-5.188863724E-2
1.579284788E1,4.356516302E-1,2.986083925E-1,2.673320770E-1
1.581284788E1,2.486570626E-1,7.847000659E-2,1.824567169E-1
1.583284788E1,-2.746275663E-1,-7.164751291E-1,-4.062428474E-1
1.585284788E1,1.296779662E-1,-9.839468002E-1,-5.811946392E-1
1.587284788E1,8.574278951E-1,-1.823694557E-1,-1.519832760E-1
1.589284944E1,4.792499542E-1,6.197489500E-1,1.566781998E-1
1.591484944E1,-7.210129499E-1,9.992359281E-1,-2.628640234E-1
1.593687288E1,-1.072504878E0,8.687551022E-1,-6.463652253E-1
1.595884788E1,-5.618389249E-1,3.480012119E-1,-3.890687823E-1
1.597885100E1,-5.777040031E-3,-4.078834504E-2,-9.581857361E-3
1.600084944E1,1.048244759E-1,-3.654021323E-1,-6.033603102E-2
1.602084944E1,-7.415904105E-2,-4.800527990E-1,-3.774274588E-1
1.604284944E1,-8.569566905E-2,-7.538077235E-2,-3.534466326E-1
1.606484944E1,1.297128648E-1,3.496941626E-1,-2.462659590E-2
1.608685569E1,2.560572624E-1,2.810329199E-1,1.216843575E-1
1.610884944E1,2.084795833E-1,-3.812671602E-1,-4.288274050E-2
1.612884944E1,1.012814566E-1,-7.156897187E-1,-2.368062735E-1
1.615084944E1,2.296853252E-2,-6.223495007E-1,-2.655344009E-1
1.617284944E1,-3.478441015E-2,-4.743630290E-1,2.783800103E-2
1.619484944E1,-1.530304700E-1,-6.467142701E-1,1.741838604E-1
1.621484944E1,-1.803274155E-1,-6.339559555E-1,-8.395033330E-2
1.623484944E1,-5.201081187E-2,-2.509434521E-1,-3.737098873E-1
1.625484944E1,1.693143845E-1,-1.710422635E-1,-8.756317198E-2
1.627484944E1,2.480287403E-1,5.044001341E-2,4.143062532E-1
1.629684788E1,2.278876454E-1,7.870387435E-1,7.860962749E-1
1.631684944E1,1.287878454E-1,1.013809443E0,6.965783834E-1
1.633687288E1,9.649925679E-2,7.318514585E-1,4.158072472E-1
1.635884788E1,3.390302062E-1,5.690820813E-1,3.356791735E-1
1.637884944E1,4.627566040E-1,5.997126102E-1,4.821646512E-1
1.640084788E1,5.637413636E-2,1.391376406E-1,4.640481472E-1
1.642084788E1,-4.143586159E-1,-3.192381859E-1,1.000073627E-1
1.644084944E1,-4.533318281E-1,-2.649933398E-1,-2.774724364E-1
1.646085100E1,-2.499486059E-1,-9.302604944E-3,-2.297725976E-1
1.648284788E1,-1.315978318E-1,1.100953668E-1,1.237263903E-1
1.650284788E1,-1.773429066E-1,-5.354670063E-2,2.306627184E-1
1.652284788E1,-1.133765876E-1,-2.604903877E-1,7.998844236E-2
1.654284944E1,7.024950534E-2,-3.458544314E-1,4.712388851E-3
1.656484788E1,1.936268210E-1,-4.974188283E-2,1.037947312E-1
1.658484788E1,2.890963256E-1,3.232873380E-1,2.690075934E-1
1.660484788E1,2.209412307E-1,3.621034622E-1,3.478790224E-1
1.662484788E1,1.293463558E-1,1.185951233E-1,2.732836604E-1
1.664484944E1,1.586853415E-1,-5.122541264E-2,3.818780556E-2
1.666685100E1,5.168443322E-1,8.901178953E-4,-9.759881347E-2
1.668685100E1,5.704608560E-1,1.078438908E-1,3.450515866E-2
1.670884944E1,1.601165086E-1,9.878563881E-2,7.297221571E-2
1.673084944E1,-1.823694557E-1,-1.745852828E-1,-1.373923123E-1
1.675284944E1,-3.417354822E-2,-3.490309417E-1,-3.151192069E-1
1.677484944E1,4.302760065E-1,6.386159360E-2,5.886995420E-2
1.679684788E1,2.082526833E-1,3.290643692E-1,3.222226799E-1
1.681685569E1,-6.169040799E-1,-1.424537748E-1,-1.537809670E-1
1.683884944E1,-7.238229513E-1,-6.019465923E-1,-7.439640164E-1
1.686087288E1,1.791580468E-1,1.068665087E-1,-1.894729435E-1
1.688284944E1,3.305304646E-1,6.570117474E-1,5.658357143E-1
1.690284944E1,-3.049962819E-1,5.015203357E-1,3.589444160E-1
1.692284944E1,-5.556255579E-1,4.819552302E-1,-2.152514607E-1
1.694284944E1,-6.740984917E-1,3.414911330E-1,-5.706353784E-1
1.696284944E1,-5.448394418E-1,1.875181794E-1,-4.016700685E-1
1.698284944E1,-1.663996875E-1,-1.142667085E-1,-1.263967454E-1
1.700284944E1,9.203121066E-2,-2.424436808E-1,-8.773770183E-2
1.702284944E1,1.340587437E-1,-8.892452717E-2,-1.938537210E-1
1.704284944E1,5.871287733E-2,2.757271230E-1,-1.647067219E-1
1.706284944E1,4.223696887E-2,5.272290707E-1,-2.090904489E-2
1.708284944E1,8.923868090E-2,4.564385116E-1,1.027649865E-1
1.710284944E1,2.130348831E-1,1.506044567E-1,1.257684231E-1
1.712284944E1,2.327222079E-1,-1.614778638E-1,7.489208132E-2
1.714284944E1,1.106015146E-1,-1.876228899E-1,-4.892157763E-2
1.716284944E1,-1.148601174E-1,-4.352851212E-2,-1.215098202E-1
1.718284944E1,-2.082003206E-1,6.448991597E-2,2.230530791E-2
1.720284944E1,-5.131268129E-2,-1.525068730E-1,1.576730460E-1
1.722284944E1,2.719397545E-1,-3.525914252E-1,1.793325841E-1
1.724284944E1,3.385589719E-1,-4.149520397E-1,1.036027446E-1
1.726284944E1,1.682497412E-1,-2.004859746E-1,2.809980139E-2
1.728484944E1,1.013687253E-1,2.045351416E-1,1.687209755E-1
1.730684944E1,8.098327555E-3,3.030764163E-1,2.809630930E-1
1.732684944E1,-9.185668081E-2,1.413716655E-2,1.198343039E-1
1.734684944E1,1.012814566E-1,-2.094395161E-1,-5.431464687E-2
1.736685412E1,2.760761678E-1,-5.700245500E-2,-8.784241974E-2
1.738884944E1,1.068490595E-1,2.481160015E-1,1.175828278E-1
1.740885569E1,-2.270498872E-1,1.184729487E-1,1.662426144E-1
1.743084944E1,-3.884928226E-1,-1.643751115E-1,-1.581093818E-1
1.745084944E1,-2.593559325E-1,-1.675516069E-1,-4.625646174E-1
1.747284944E1,-1.155582517E-1,1.611462533E-1,-3.633601069E-1
1.749484944E1,-3.494672775E-1,2.007477731E-1,-8.585274220E-2
1.751684944E1,-5.912128091E-1,-7.661995478E-3,2.794272080E-2
1.753687444E1,-3.475125134E-1,-1.868549436E-1,6.108652428E-2
1.755884944E1,1.175479218E-1,-2.016553432E-1,2.175727487E-1
1.757884944E1,2.119353265E-1,2.787290886E-2,3.555061221E-1
1.759884944E1,1.172512174E-1,1.343379915E-1,3.730117679E-1
1.761884944E1,2.142042518E-1,9.618509561E-2,2.459343374E-1
1.763884944E1,3.470587134E-1,-4.105014354E-2,9.169960022E-2
1.766084944E1,4.408527017E-1,1.691747606E-1,8.473573625E-2
1.768084944E1,2.749766111E-1,2.869321406E-1,1.170766875E-1
1.770084944E1,2.764601447E-2,2.549926043E-1,6.630505621E-2
1.772084944E1,-3.333578818E-3,1.362753063E-1,-5.717698485E-2
1.774284788E1,1.863662601E-1,2.186897583E-2,-1.041088924E-1
1.776284944E1,1.300444752E-1,8.239699155E-2,-5.171410739E-2
1.778484944E1,-5.759586347E-4,2.175378352E-1,2.621484548E-2
1.780684944E1,-9.512044489E-3,4.197866023E-1,1.731541157E-1
1.782884788E1,-3.881088495E-1,1.364498436E-1,-1.689478755E-2
1.784885256E1,-8.514414430E-1,-5.699198246E-1,-4.407654405E-1
1.787085100E1,-3.854559660E-1,-8.179136515E-1,-4.170464277E-1
1.789284944E1,5.771279931E-1,-8.204792440E-2,2.663197815E-1
1.791484788E1,1.914975196E-1,2.593559325E-1,4.967905283E-1
1.793484788E1,-4.419348240E-1,2.328618318E-1,1.866280586E-1
1.795484788E1,-3.664493263E-1,-4.712388851E-3,-1.067268848E-1
1.797484788E1,-1.361356815E-3,-3.618242145E-1,-2.162637413E-1
1.799484944E1,1.991420686E-1,-3.792600334E-1,-1.353502870E-1
1.801484944E1,4.490732029E-2,-3.027797043E-1,-1.254542619E-1
1.803484944E1,-5.906194076E-2,-4.450589418E-2,-2.098583877E-1
1.805484944E1,-1.046499386E-1,2.908765674E-1,-1.970127672E-1
1.807684788E1,-3.717551241E-3,3.718598485E-1,-9.203121066E-2
1.809687756E1,2.348689586E-1,4.124387503E-1,9.409070015E-2
1.811884944E1,3.624001741E-1,2.686759830E-1,2.885552943E-1
1.813884944E1,2.607347369E-1,1.376890242E-1,3.431491852E-1
1.815885100E1,7.304202765E-2,-8.428195119E-2,2.535265386E-1
1.818084788E1,-7.173303515E-2,-3.598868847E-1,8.052948862E-2
1.820084788E1,4.934045672E-2,-4.350058734E-1,-3.296926990E-2
1.822084944E1,2.497391552E-1,-2.527585924E-1,1.275486648E-1
1.824084944E1,1.923527420E-1,-1.645147353E-1,2.194227874E-1
1.826084944E1,-6.075491011E-2,-7.176794112E-2,8.388052136E-2
1.828284944E1,-1.571145356E-1,-2.587974072E-1,-1.974141896E-1
1.830484788E1,-5.410520826E-4,-3.557330072E-1,-2.116386294E-1
1.832484788E1,1.736602634E-1,1.032362282E-1,1.049640998E-1
1.834484944E1,-1.491034776E-1,4.432612658E-1,3.846705556E-1
1.836485100E1,-6.025225520E-1,2.314132005E-1,2.182883322E-1
1.838684944E1,-2.092998773E-1,1.090307161E-1,3.094468825E-2
1.840884944E1,4.594055712E-1,3.124488294E-1,2.744879425E-1
1.843084944E1,4.215144515E-1,3.617543876E-1,6.006376147E-1
1.845085413E1,-1.549154222E-1,8.436921239E-2,3.887546360E-1
1.847284944E1,-4.831071496E-1,-1.541998386E-1,-2.996904850E-1
1.849484944E1,-3.651403189E-1,-1.298874021E-1,-5.829225183E-1
1.851684944E1,-2.043780535E-1,1.236914843E-1,-2.131046951E-1
1.853684944E1,-2.273640335E-1,2.181312442E-1,1.091179848E-1
1.855684944E1,-3.130946159E-1,2.132792324E-1,6.398376822E-2
1.857685569E1,-2.366317362E-1,2.640683204E-2,-1.988104582E-1
1.859884944E1,-5.436700583E-2,-2.089159191E-2,-1.786693484E-1
1.861884944E1,4.913101718E-2,1.370083448E-2,1.150172018E-2
1.863884944E1,1.581791937E-1,1.233424172E-1,1.213701963E-1
1.866084944E1,1.436056942E-1,1.449146867E-1,6.370452046E-2
1.868284788E1,5.787511915E-2,9.334021062E-2,-8.651597053E-2
1.870284788E1,1.531351954E-1,-5.794493109E-2,-1.133416817E-1
1.872284788E1,3.735877275E-1,-1.499935985E-1,-2.204350755E-2
1.874284788E1,3.531673849E-1,-2.284635976E-2,8.627162129E-2
1.876284788E1,1.844289452E-1,9.751154482E-2,9.873327613E-2
1.878284788E1,9.946631640E-2,5.427973811E-3,4.284783453E-2
1.880284788E1,2.071531266E-1,-2.239781022E-1,-3.639011458E-2
1.882284944E1,4.977329969E-1,-2.774026394E-1,4.904375412E-3
1.884284944E1,4.665788710E-1,-1.604830176E-1,2.438573986E-1
1.886484944E1,-2.907893062E-1,-2.224945724E-1,1.097288504E-1
1.888684944E1,-7.383440733E-1,-5.655041337E-1,-3.724358082E-1
1.890684944E1,5.436700583E-2,-6.332054734E-1,-3.218212724E-1
1.892884944E1,9.821491241E-1,-9.372417815E-3,3.764151633E-1
1.894884944E1,3.896796703E-1,9.281660616E-2,5.457295775E-1
1.897084788E1,-4.894775748E-1,2.730218470E-1,2.110975683E-1
1.899084788E1,-5.403713584E-1,-1.391027402E-2,-1.868898571E-1
1.901084788E1,-1.779014170E-1,-4.289321303E-1,-2.845061123E-1
1.903084788E1,2.288126573E-2,-4.445004463E-1,-1.009323895E-1
1.905085100E1,1.019272283E-1,-1.574461460E-1,3.696607426E-2
1.907284788E1,1.026253626E-1,1.973094642E-1,8.709193021E-2
1.909284788E1,1.246863231E-1,2.383945286E-1,5.611233413E-2
1.911284944E1,1.682846397E-1,1.452637464E-1,3.251548484E-2
1.913484944E1,2.905973196E-1,1.339889318E-1,8.691739291E-2
1.915685256E1,4.669279456E-1,1.469392627E-1,1.551248580E-1
1.917686038E1,4.638910592E-1,2.067342550E-1,1.314581931E-1
1.919884788E1,1.769938320E-1,1.975014508E-1,2.506292798E-2
1.921884944E1,-4.708898440E-2,1.697158217E-1,1.359611470E-2
1.923884944E1,-6.124360487E-2,-1.884955564E-3,1.874483563E-2
1.926084944E1,8.477064222E-2,-2.931455076E-1,3.693116829E-2
1.928284944E1,2.045351416E-1,-3.541796505E-1,1.709200889E-1
1.930484788E1,3.783873841E-2,-2.736501694E-1,3.360107839E-1
1.932484788E1,-6.187192351E-2,-1.558404416E-1,3.021164834E-1
1.934484788E1,-1.727875904E-3,2.056346983E-1,1.465727538E-1
1.936484944E1,-3.371627033E-1,2.694962919E-1,7.764969766E-2
1.938484944E1,-7.226361036E-1,-6.543239206E-2,-6.653194875E-2
1.940485725E1,-2.951875329E-1,-4.190884531E-1,1.935570128E-2
1.942684944E1,5.821895003E-1,-3.969576955E-1,3.458195329E-1
1.944684944E1,3.586651683E-1,5.759586347E-4,5.497089028E-1
1.946684944E1,-5.185896754E-1,3.506191969E-1,4.020715058E-1
1.948884944E1,-7.572634816E-1,2.639985085E-1,-1.266410947E-1
1.951084944E1,-1.656317413E-1,-1.874658167E-1,-4.114962816E-1
1.953284944E1,3.207217157E-1,-3.389778435E-1,-2.192831635E-1
1.955484944E1,6.908012927E-2,-2.637541592E-1,-3.546509147E-2
1.957484944E1,-2.010968328E-1,3.113667294E-2,-9.192649275E-2
1.959685881E1,-4.544837400E-2,1.451590359E-1,-1.776919663E-1
1.961884944E1,3.863286376E-1,2.253569067E-1,-4.815363511E-2
1.963884944E1,5.298994184E-1,2.139948159E-1,7.173303515E-2
1.965884944E1,4.421268106E-1,3.011391163E-1,9.541714936E-2
1.967884944E1,2.277829200E-1,3.729768693E-1,2.366666496E-2
1.969884944E1,-1.146681327E-2,3.023957312E-1,-1.043008789E-1
1.971884944E1,-4.483750835E-2,2.710670829E-1,-2.249729335E-1
1.973884944E1,1.583013684E-1,1.961400956E-1,-1.855983138E-1
1.975884944E1,3.116808832E-1,6.492624432E-2,-1.173035800E-1
1.977884944E1,1.994387656E-1,3.171263263E-2,-1.497492492E-1
1.979884944E1,-6.984807551E-2,-6.178465672E-3,-2.912081778E-1
1.981884944E1,-2.101376466E-2,3.562216833E-2,-2.927964330E-1
1.983884944E1,3.104766309E-1,2.316749990E-1,-6.248278543E-2
1.985884944E1,4.127005637E-1,4.320562482E-1,1.455255598E-1
1.987884944E1,-3.060958385E-1,6.723008305E-2,-1.424014121E-1
1.989884944E1,-7.789055109E-1,-8.593826890E-1,-7.077484727E-1
1.991884944E1,-5.506513640E-2,-7.943167686E-1,-6.529625654E-1
1.993884944E1,5.519952774E-1,2.032959461E-1,2.918190509E-2
1.995884944E1,-7.119198143E-2,3.020815849E-1,2.579945624E-1
1.997885100E1,-5.399350524E-1,2.213426530E-1,-1.106713265E-1
2.000084944E1,-4.000992775E-1,-5.532693863E-2,-5.598492622E-1
2.002084944E1,-1.854586899E-1,-4.037470222E-1,-5.374741554E-1
2.004284944E1,2.373647876E-3,-4.573460817E-1,-1.957735866E-1
2.006484944E1,3.253293782E-2,-7.944738865E-2,-5.759586394E-2
2.008684944E1,8.665559441E-2,3.670776486E-1,-6.743951887E-2
2.010684944E1,2.525491454E-2,5.883854032E-1,-7.696901914E-3
2.012684944E1,-6.876597181E-3,6.163979173E-1,1.010894701E-1
2.014884788E1,1.236216724E-1,2.947162986E-1,1.290845573E-1
2.016884944E1,2.879269719E-1,7.960446924E-2,1.820378378E-2
2.018884944E1,2.405063659E-1,-5.906194076E-2,-1.338492930E-1
2.020884944E1,1.099906489E-1,-1.067792401E-1,-1.386489570E-1
2.022884944E1,1.244943365E-1,-1.880417764E-1,-1.541474760E-1
2.024884944E1,2.716430426E-1,-1.231155246E-1,-2.101027369E-1
2.026885100E1,2.561445236E-1,-7.946483791E-2,-2.080257982E-1
2.029084944E1,1.229060888E-1,1.284911335E-1,-1.489114910E-1
2.031284788E1,1.094495952E-1,1.872040182E-1,-1.257160604E-1
2.033284788E1,1.259080470E-1,1.354899108E-1,-4.621632025E-2
2.035284788E1,-4.834562074E-3,2.041860670E-1,-9.599310579E-4
2.037284944E1,-3.171786964E-1,-4.970697686E-2,-1.448448747E-1
2.039284944E1,-3.288374841E-1,-1.530304700E-1,-3.391174674E-1
2.041484788E1,1.150172018E-2,-1.745329238E-3,-2.487617731E-1
2.043484944E1,2.544864714E-1,4.506440088E-2,2.199114766E-3
2.045685725E1,2.749940753E-1,5.588544160E-2,2.613979578E-1
2.047884944E1,-2.469640970E-2,-2.415186614E-1,1.127482671E-2
2.049884944E1,-2.264041156E-1,-5.283635259E-1,-3.893305957E-1
2.051884944E1,-3.367438316E-1,-4.431216419E-1,-4.690397680E-1
2.053884944E1,-4.026823640E-1,-3.153111935E-1,-2.481334656E-1
2.055884944E1,-4.697204530E-1,-3.170565069E-1,-3.808308393E-2
2.058084944E1,-5.497786999E-1,-2.029119730E-1,-3.769911127E-3
2.060284944E1,-4.202054739E-1,-2.006779611E-1,3.450515866E-2
2.062484788E1,-1.124515608E-1,-1.003738865E-1,3.299195766E-1
2.064484944E1,1.186300293E-1,-5.038765445E-2,6.793170571E-1
2.066685569E1,1.884082854E-1,-2.199812979E-1,5.399525166E-1
2.068884944E1,1.276359260E-1,-1.022064835E-1,1.337445825E-1
2.070884944E1,4.799655639E-3,1.433438957E-1,-2.261946723E-2
2.073084944E1,3.928736225E-2,4.423362315E-1,1.167974323E-1
2.075284944E1,2.558827102E-1,2.182883322E-1,2.679603994E-1
2.077484944E1,3.626270592E-1,-1.947089285E-1,2.069436908E-1
2.079684788E1,9.435249865E-2,-2.790955901E-1,-9.107127786E-2
2.081685569E1,-3.803072497E-2,-6.939429045E-2,-2.820626497E-1
2.083884944E1,7.159340382E-2,4.815712571E-1,3.295181692E-2
2.086084944E1,1.066221669E-1,7.587819099E-1,4.321958721E-1
2.088084944E1,-2.595129907E-1,1.484227926E-1,1.756324768E-1
2.090084944E1,-6.917961240E-1,-1.033269763E0,-7.003657222E-1
2.092284788E1,-2.403492928E-1,-1.339889288E0,-9.846624136E-1
2.094284944E1,4.913625419E-1,2.286381321E-3,-1.127133593E-1
2.096284944E1,3.660828173E-1,8.015075326E-1,4.312185049E-1
2.098484788E1,-4.440117478E-1,3.165503740E-1,-5.604252219E-2
2.100484788E1,-6.470982432E-1,-3.266383708E-1,-5.248728395E-1
2.102484788E1,-3.399028778E-1,-7.839495540E-1,-4.680275023E-1
2.104484788E1,1.473057866E-1,-5.410869718E-1,-1.156804189E-1
2.106484944E1,2.597573400E-1,-7.145377994E-2,4.206243530E-2
2.108684944E1,-5.023057386E-2,2.212902904E-1,-6.717772037E-2
2.110685100E1,-1.617222130E-1,8.471827954E-2,-1.972047538E-1
2.112885100E1,-9.318313003E-2,-2.545562685E-1,-2.037846446E-1
2.114885569E1,2.022138536E-1,-2.994635999E-1,-1.952150762E-1
2.117084788E1,4.930555224E-1,1.777617782E-1,-1.295034289E-1
2.119084944E1,1.439896673E-1,2.438050359E-1,-1.303586364E-1
2.121284788E1,-3.146479428E-1,7.510151714E-2,-1.635722518E-1
2.123284788E1,-3.774798214E-1,-1.696983576E-1,-1.628915817E-1
2.125284944E1,7.035422325E-2,-1.935046464E-1,5.293583497E-2
2.127284944E1,2.223025858E-1,-1.037423685E-1,3.797661960E-1
2.129484788E1,-8.541641384E-2,-6.782349199E-2,6.088755727E-1
2.131484788E1,-2.469815463E-1,-1.752310544E-1,4.244291782E-1
2.133484788E1,-2.171189636E-1,-1.529257447E-1,4.865977913E-2
2.135484944E1,-3.092548847E-1,1.392598152E-1,7.922049612E-2
2.137685569E1,-5.273512602E-1,1.444783509E-1,2.776644230E-1
2.139884788E1,-5.882457495E-1,-3.985633850E-1,-1.752310619E-2
2.141884944E1,-1.860346496E-1,-2.448347807E-1,-1.565211266E-1
2.143884944E1,7.115707546E-2,2.251474708E-1,8.018042892E-2
2.145884944E1,-9.527752548E-2,3.749665320E-1,3.920707703E-1
2.147884944E1,-4.020715058E-1,1.398357749E-1,3.243694305E-1
2.149884944E1,-3.368834555E-1,3.316125600E-3,2.986258268E-2
2.151884944E1,-7.265805453E-2,-2.832669392E-2,-1.989326328E-1
2.153884944E1,7.248352468E-2,1.908692122E-1,-1.178969890E-1
2.155884944E1,-1.225919276E-1,3.067416251E-1,3.998549283E-2
2.157884944E1,-2.646442652E-1,3.485248089E-1,1.892635077E-1
2.159885100E1,-5.150466785E-2,2.323731333E-1,2.101550996E-1
2.162084944E1,2.406809032E-1,9.546951391E-3,1.632930040E-1
2.164084944E1,2.495471686E-1,7.347836345E-2,2.102598101E-1
2.166084944E1,1.469567269E-1,2.214473784E-1,2.140471786E-1
2.168084944E1,1.641307622E-1,2.649584413E-1,1.899441779E-1
2.170084944E1,1.300095767E-1,1.030791476E-1,1.502902955E-1
2.172084944E1,1.120850444E-1,1.193805225E-2,4.440117627E-2
2.174084944E1,2.800031602E-1,5.906194076E-2,2.261946723E-2
2.176084944E1,3.844262064E-1,1.656317413E-1,3.652974218E-2
2.178084944E1,1.596801728E-1,1.437278688E-1,-4.118977115E-2
2.180084944E1,-1.259080470E-1,-1.145983189E-1,-1.647067219E-1
2.182084944E1,1.256811619E-1,-2.405063659E-1,-1.138827354E-1
2.184084944E1,5.360255241E-1,9.470156580E-2,2.224945724E-1
2.186085100E1,2.046747655E-1,2.752384245E-1,3.666413128E-1
2.188284944E1,-1.066500902E0,-1.438674927E-1,-4.347091615E-1
2.190284944E1,-1.070585012E0,-4.688128829E-1,-1.011348486E0
2.192484944E1,3.453657627E-1,-8.709193207E-3,-4.159294069E-1
2.194684944E1,9.200153947E-1,5.399874449E-1,6.129770875E-1
2.196685256E1,2.241875380E-1,8.170584440E-1,5.680872202E-1
2.198884944E1,-2.563714087E-1,5.903925300E-1,-2.401922047E-1
2.200884944E1,-1.026777178E-1,7.522369269E-3,-5.374916196E-1
2.202884944E1,1.900489032E-1,-2.051285505E-1,-2.324080467E-1
2.204885100E1,3.552617729E-1,-1.741489470E-1,2.150943726E-1
2.207084944E1,4.102221727E-1,-1.828057915E-1,2.340137511E-1
2.209084944E1,3.658559024E-1,-1.493478268E-1,-3.286454827E-2
2.211084944E1,2.220931500E-1,-1.398357749E-1,-7.372270525E-2
2.213084944E1,3.614576757E-1,-6.780604273E-2,8.237954229E-2
2.215085725E1,6.168691516E-1,-1.246514171E-1,1.957910359E-1
2.217284944E1,5.748940110E-1,-1.570272744E-1,1.986882836E-1
2.219284944E1,1.955990493E-1,-1.676912308E-1,7.265805453E-2
2.221284944E1,-8.000589162E-2,-2.882934809E-1,-9.260717034E-2
2.223284944E1,1.500983164E-2,-3.264638484E-1,-1.986184716E-2
2.225284944E1,4.406956434E-1,-2.182708681E-1,1.612335145E-1
2.227284944E1,4.040262699E-1,-1.018225104E-1,2.204699963E-1
2.229284944E1,5.007349700E-2,-1.113520041E-1,8.374089748E-2
2.231284944E1,-1.677959561E-1,-1.307426095E-1,-1.012290940E-1
2.233284944E1,-2.257059813E-1,2.145009674E-2,-1.382475346E-1
2.235284944E1,-6.702063978E-2,4.913800061E-1,6.930702180E-2
2.237284944E1,-1.679006666E-1,5.314353108E-1,1.860346496E-1
2.239284944E1,-6.464699507E-1,-3.330088034E-2,-2.776644230E-1
2.241284944E1,-4.502949417E-1,-1.559102684E-1,-8.027816415E-1
2.243284944E1,-1.484227926E-1,3.762057126E-1,-6.878342628E-1
2.245284944E1,-2.656565607E-1,7.368605733E-1,-2.568426430E-1
2.247284944E1,-2.989225388E-1,5.481380820E-1,-3.965387866E-2
2.249284944E1,-2.983989418E-1,2.438225038E-2,-2.843664885E-1
2.251284944E1,-1.543918252E-1,-2.509957850E-1,-6.696653962E-1
2.253284944E1,-4.244640842E-2,-2.072054893E-1,-6.427349448E-1
2.255484944E1,-1.973269284E-1,5.862560868E-2,-1.728399545E-1
2.257484944E1,-3.507413566E-1,7.906341553E-2,1.229060888E-1
2.259484944E1,-1.371828765E-1,-1.772730947E-1,5.529202893E-2
2.261484944E1,3.534989953E-1,-4.003610611E-1,-1.037772745E-1
2.263484944E1,5.362873077E-1,-3.492054641E-1,4.783947393E-2
2.265484944E1,3.927339911E-1,-1.777617782E-1,2.976833582E-1
2.267484944E1,2.360208780E-1,-2.043780498E-2,3.401821256E-1
2.269484944E1,2.241526395E-1,-1.051211804E-1,1.429599226E-1
2.271484944E1,3.260798752E-1,-6.068509817E-2,-8.707447350E-2
2.273484944E1,3.879168928E-1,2.029817924E-2,-1.025206372E-1
2.275484944E1,2.661103606E-1,5.810201168E-2,1.535889693E-2
2.277684788E1,9.131562710E-2,1.272345055E-2,8.833111078E-2
2.279685413E1,5.073672161E-2,6.881833076E-2,1.162389293E-2
2.281687912E1,-4.263839498E-2,2.718350291E-1,-1.149648353E-1
2.283884944E1,1.401499361E-1,2.904576957E-1,1.207767799E-2
2.286085100E1,4.924272001E-1,2.350958437E-1,3.538306057E-1
2.288284788E1,1.494176388E-1,-1.225919276E-1,2.022836655E-1
2.290284788E1,-4.399276972E-1,-3.391000330E-1,-4.882733226E-1
2.292284788E1,-1.689827740E-1,-2.195798755E-1,-5.707575679E-1
2.294284944E1,3.712664247E-1,3.359758854E-2,1.172861271E-2
2.296284944E1,-2.736676298E-2,6.876597181E-3,1.047197580E-1
2.298284944E1,-5.386260748E-1,1.452113967E-2,-1.834690124E-1
2.300284944E1,-4.559672773E-1,-3.307398781E-2,-3.203377426E-1
2.302284944E1,-2.464055866E-1,1.022937447E-1,-1.503077596E-1
2.304284944E1,-2.866703272E-1,1.758768260E-1,6.085963175E-2
2.306284944E1,-3.175103068E-1,9.831439704E-2,1.007229537E-1
2.308284944E1,-1.177050024E-1,-1.054178849E-1,-2.595304511E-2
2.310284944E1,1.462062299E-1,-2.581341863E-1,-6.700319052E-2
2.312284944E1,2.162288427E-1,-1.223475784E-1,9.503317624E-2
2.314484944E1,7.623597980E-2,1.742711216E-1,2.554638386E-1
2.316684944E1,1.049291939E-1,1.476373971E-1,1.215970889E-1
2.318684944E1,8.737118542E-2,-1.129228063E-2,-7.810348272E-2
2.320684944E1,-8.810421824E-2,6.756169349E-2,-1.740791351E-1
2.322684944E1,-2.475400418E-1,6.016149744E-2,-8.319984376E-2
2.324684944E1,-2.413441241E-1,-1.657888293E-1,2.977531776E-2
2.326684944E1,-8.337438107E-2,-4.127878249E-1,-3.659955412E-2
2.328685256E1,7.157595456E-2,-3.052580953E-1,-1.625425071E-1
2.330685569E1,-1.071806699E-1,-5.078908056E-3,-8.173377067E-2
2.332884944E1,-3.189065456E-1,2.144660652E-1,4.577998444E-2
2.334884944E1,-1.673421711E-1,2.860071063E-1,7.979645580E-2
2.336884944E1,2.487268746E-1,5.265483856E-1,2.623578906E-1
2.338884944E1,2.593384683E-1,3.024480939E-1,3.859620988E-1
2.340884944E1,1.197295859E-1,-2.032435834E-1,2.429672778E-1
2.342884944E1,4.811349213E-1,-1.547757983E-1,3.267256171E-2
2.344884944E1,5.683141351E-1,1.020494029E-1,4.452335089E-2
2.346884944E1,1.911135577E-2,2.650980651E-1,9.833184630E-2
2.348884944E1,-7.140491009E-1,4.337143153E-2,-2.282541543E-1
2.350884944E1,-8.977624774E-1,-3.041585386E-1,-7.415380478E-1
2.352884944E1,-5.935166478E-1,-3.130946159E-1,-7.885048389E-1
2.354884944E1,-3.204075396E-1,-2.509957850E-1,-3.226590157E-1
2.356884944E1,-3.685611784E-1,-1.359611452E-1,-4.677482415E-3
2.358884944E1,-5.616993308E-1,-7.761479169E-2,-7.768460363E-2
2.360884944E1,-3.702192307E-1,-6.726498902E-2,-1.759466380E-1
2.362884944E1,2.506292798E-2,3.843215108E-2,1.480039209E-2
2.364885569E1,2.478542030E-1,1.236391217E-1,2.361081392E-1
2.367084944E1,2.672273517E-1,7.665485889E-2,2.608743608E-1
2.369084944E1,2.488141358E-1,-1.547757983E-1,4.066617228E-3
2.371084944E1,3.600439727E-1,-1.607099175E-1,-1.947962046E-1
2.373084944E1,3.850196302E-1,1.316676438E-1,-1.262222081E-1
2.375284944E1,2.449744195E-1,4.377111197E-1,4.555309191E-2
2.377284944E1,1.831199378E-1,2.473829687E-1,5.082398653E-2
2.379284944E1,1.936268210E-1,-3.080157042E-1,-1.341111064E-1
2.381285100E1,3.400599360E-1,-6.373767853E-1,-3.222226799E-1
2.383484944E1,4.907167852E-1,-2.110626698E-1,-9.567894787E-2
2.385484944E1,3.922976553E-1,4.596149921E-1,3.001617193E-1
2.387484944E1,-2.785719931E-1,5.453630090E-1,1.907644868E-1
2.389484944E1,-1.009585738E0,-1.925621778E-1,-5.711415410E-1
2.391484944E1,-6.098180413E-1,-7.054446340E-1,-8.322253227E-1
2.393484944E1,8.586321473E-1,-3.429397345E-1,1.196772233E-1
2.395484944E1,1.321912408E0,4.196120501E-1,9.319534302E-1
2.397484944E1,1.510931551E-1,3.531499207E-1,7.508580685E-1
2.399484944E1,-4.755324125E-1,-9.410814941E-2,8.428195119E-2
2.401484944E1,-5.269148946E-2,-3.954392374E-1,-1.831024885E-1
2.403684944E1,2.016727924E-1,-2.896722853E-1,-1.516691130E-2
2.405685569E1,-3.811798990E-2,1.616174914E-2,1.054702476E-1
2.407884788E1,-1.786868125E-1,4.719370231E-2,-3.775146976E-2
2.409884944E1,-1.339016557E-1,7.115707546E-2,-1.748121828E-1
2.411884944E1,-1.387536824E-1,2.804569602E-1,-4.743804783E-2
2.413884944E1,-1.443387289E-2,4.510977864E-1,1.837133616E-1
2.415884944E1,4.653047770E-2,2.759540081E-1,2.315528244E-1
2.417884944E1,-1.133591309E-1,5.941100791E-2,1.627868563E-1
2.419885100E1,-3.576877713E-1,5.899212789E-3,1.294685304E-1
2.422084944E1,-3.477219343E-1,-1.236216724E-1,1.764527857E-1
2.424084944E1,-2.802998759E-2,-3.623303473E-1,1.977109015E-1
2.426084944E1,9.889035672E-2,-3.992091715E-1,1.555262953E-1
2.428284788E1,-1.928588748E-2,-1.595929116E-1,8.524188399E-2
2.430284788E1,-5.445427261E-3,7.024950534E-2,4.878195375E-2
2.432284944E1,-4.248131439E-2,1.756324768E-1,6.017895415E-2
2.434484788E1,-3.146828711E-2,2.897421122E-1,6.778858602E-2
2.436484944E1,2.717477679E-1,4.398927689E-1,1.877974272E-1
2.438685256E1,3.758217394E-1,4.986754656E-1,3.814242482E-1
2.440884944E1,7.946483791E-2,3.714933395E-1,2.177821845E-1
2.442884944E1,1.971349418E-1,5.789257288E-1,-6.105161831E-2
2.444884944E1,3.721914589E-1,9.396503568E-1,-1.147903055E-1
2.446884944E1,6.564183533E-2,6.697526574E-1,-1.189965457E-1
2.448884944E1,-4.835260212E-1,-1.324355900E-1,-3.100926578E-1
2.450884944E1,-4.341681004E-1,-5.296376348E-1,-6.022607684E-1
2.453084788E1,-1.418429017E-1,-6.343747973E-1,-6.513045430E-1
2.455084788E1,-8.927359432E-2,-4.641703069E-1,-2.305929065E-1
2.457084788E1,-4.102221727E-1,-3.205471635E-1,1.985661089E-1
2.459084944E1,-3.855432272E-1,-3.995931447E-1,2.906671464E-1
2.461284944E1,1.287180334E-1,-4.902455211E-1,2.263692021E-1
2.463484944E1,4.302236736E-1,-3.381749988E-1,3.399377763E-1
2.465686975E1,1.093797833E-1,-8.719664812E-2,5.072799325E-1
2.467884788E1,1.823868975E-2,-1.972221956E-2,4.479736686E-1
2.469884944E1,2.675065994E-1,-1.642529368E-1,2.202954590E-1
2.471884944E1,3.573736250E-1,-2.159844935E-1,4.249876738E-2
2.473884944E1,2.853438854E-1,-5.277875811E-2,4.291764647E-2
2.475884944E1,7.777187228E-2,1.623156108E-2,1.487893164E-1
2.477884944E1,1.115265395E-2,-1.555088349E-2,1.252971888E-1
2.479884944E1,1.617920250E-1,-4.865977913E-2,-5.529202893E-2
2.481884944E1,2.055299729E-1,-7.799876481E-2,-4.979424179E-2
2.483885100E1,1.020668522E-1,-1.749867052E-1,4.387757555E-2
2.486084944E1,9.627236426E-2,3.637266159E-2,1.361880451E-1
2.488084944E1,-2.956587672E-1,3.659955561E-1,-9.365436435E-2
2.490284944E1,-1.113659739E0,1.736951619E-1,-6.208660007E-1
2.492484944E1,-1.013844252E0,-1.582839042E-1,-6.072174907E-1
2.494684788E1,1.937489957E-1,1.289100200E-1,1.644623727E-1
2.496684944E1,4.195422530E-1,3.556806445E-1,5.221326947E-1
2.498684944E1,-2.750464380E-1,2.648362517E-1,3.139498234E-1
2.500685881E1,-5.705132484E-1,-1.105317026E-1,-1.459095180E-1
2.502884944E1,-2.325127572E-1,-4.230852723E-1,-3.008773029E-1
2.504885569E1,1.013687253E-1,-4.420046210E-1,-8.691739291E-2
2.507084788E1,7.902850956E-2,-1.575334221E-1,4.949753731E-2
2.509084944E1,-1.179493517E-1,1.370258033E-1,2.815216035E-2
2.511284944E1,-1.098335683E-1,1.880243123E-1,2.822197415E-2
2.513484944E1,-9.093165398E-3,-2.890265174E-2,6.578145921E-2
2.515684944E1,1.764178872E-1,-2.076941729E-1,2.586577833E-1
2.517684944E1,2.968106866E-1,-2.653249502E-1,3.541447520E-1
2.519884788E1,1.520181745E-1,-7.744026184E-2,2.158099562E-1
2.521884944E1,-2.961823717E-2,1.797689125E-3,8.485791087E-2
2.523885100E1,-1.379159242E-1,-1.687733456E-2,1.050862744E-1
2.526084944E1,-1.038819999E-1,-9.306095541E-2,2.193529755E-1
2.528284788E1,5.164429173E-2,-1.522101611E-1,2.680302262E-1
2.530284788E1,2.281319797E-1,-2.172062248E-1,1.303062886E-1
2.532284944E1,2.095791399E-1,-1.972745657E-1,-7.119198143E-2
2.534484788E1,4.464552179E-2,-3.525565146E-3,-6.232570857E-2
2.536484944E1,6.635741889E-2,2.682396472E-1,1.702219546E-1
2.538684944E1,1.447576135E-1,4.430169165E-1,3.242647350E-1
2.540685413E1,-9.018116444E-2,6.031857803E-2,1.113869101E-1
2.542884788E1,-1.313185692E-1,-2.853264213E-1,-2.226865590E-1
2.544884944E1,1.459618807E-1,2.115339041E-2,-1.647067219E-1
2.546884944E1,3.543542027E-1,3.549650609E-1,2.218138874E-1
2.548884944E1,2.264913768E-1,2.833891213E-1,4.557578266E-1
2.551084944E1,-1.925796270E-1,-2.402794808E-1,1.762782573E-3
2.553084944E1,-2.163510174E-1,-4.285132289E-1,-4.394913614E-1
2.555284788E1,1.416683793E-1,-1.095019579E-1,-3.089756370E-1
2.557284788E1,2.598620653E-1,1.601863205E-1,5.290092900E-2
2.559284788E1,-6.393141299E-2,3.184178770E-1,2.247634977E-1
2.561284944E1,-2.624975145E-1,1.135860309E-1,1.205498874E-1
2.563484944E1,-3.647738136E-3,-1.752485037E-1,2.476622164E-2
2.565684944E1,2.811550796E-1,-2.079385221E-1,2.149023861E-1
2.567686038E1,2.649933398E-1,-1.392772701E-2,4.398404360E-1
2.569884944E1,2.309245169E-1,3.067416251E-1,4.351629317E-1
2.571884944E1,2.198067605E-1,5.134235024E-1,2.774026394E-1
2.573884944E1,1.181064323E-1,5.005953312E-1,1.180017069E-1
2.576084944E1,4.492477328E-2,1.103048101E-1,6.405358203E-3
2.578284788E1,2.978055179E-1,-2.647838891E-1,-5.176646635E-2
2.580284788E1,4.685336351E-1,-2.785196304E-1,-1.027824357E-1
2.582284944E1,4.587423503E-1,2.967059612E-3,-2.134188563E-1
2.584484788E1,5.035274848E-2,3.365692794E-1,-1.607448310E-1
2.586484788E1,-2.411346883E-1,3.275459409E-1,-6.703809649E-2
2.588484788E1,1.607099175E-1,6.709045917E-2,-2.583087236E-2
2.590484788E1,5.359033346E-1,2.350958437E-2,-8.831365965E-3
2.592484788E1,-5.031784251E-2,-2.020567656E-1,-2.276258469E-1
2.594484788E1,-5.185722113E-1,-3.367089033E-1,-3.998898268E-1
2.596484788E1,-8.367108554E-2,7.286749780E-2,-1.786344498E-1
2.598484788E1,3.990520835E-1,5.448917747E-1,1.720021963E-1
2.600484944E1,1.375144869E-1,4.863534570E-1,1.267632693E-1
2.602684944E1,-3.908315897E-1,2.309070528E-2,-3.615798652E-1
2.604685569E1,-5.028119087E-1,-4.954989627E-2,-6.986203790E-1
2.606884944E1,-4.377634823E-1,2.035053819E-2,-6.526309848E-1
2.609084944E1,-3.042457998E-1,-1.038470864E-2,-2.559350729E-1
2.611284944E1,-1.901361644E-1,-2.315702885E-1,-4.406956211E-2
2.613484944E1,-1.786693484E-1,-3.970449567E-1,-2.460565120E-1
2.615684788E1,-2.817834020E-1,-8.422958851E-2,-2.994635999E-1
2.617686975E1,-2.683443725E-1,2.120051384E-1,-8.173377067E-2
2.619884944E1,-7.524114102E-2,2.411870509E-1,1.536762416E-1
2.621884944E1,3.991568089E-2,6.056292355E-2,1.447576135E-1
2.623884944E1,5.010840297E-2,-9.517280012E-2,3.595378250E-2
2.625884944E1,-8.761552721E-2,-2.070309520E-1,-1.217018068E-1
2.627884944E1,-1.094321460E-1,-9.283406287E-2,-1.413367689E-1
2.630084944E1,9.749408811E-2,7.463027537E-2,6.531021744E-2
2.632284944E1,2.565982938E-1,1.482657194E-1,2.644348443E-1
2.634484788E1,2.513274178E-2,-1.061160211E-2,2.593733668E-1
2.636484788E1,-1.174082980E-1,-3.235142231E-1,4.612905160E-2
2.638484788E1,1.706233919E-1,-4.992688894E-1,-9.681341052E-2
2.640484788E1,5.414884090E-1,5.330235511E-2,1.955466866E-1
2.642484944E1,2.618866563E-1,6.130818129E-1,4.037120938E-1
2.644685100E1,-3.369358182E-1,6.100100279E-1,2.395115346E-1
2.646685100E1,-1.378460974E-1,2.718175650E-1,-9.004153311E-2
2.648884944E1,4.852539003E-1,2.576978505E-1,-1.478293911E-2
2.651084944E1,5.836206675E-1,3.353300989E-1,3.549825251E-1
2.653284788E1,5.342452973E-2,2.138726413E-1,3.723485470E-1
2.655284944E1,-3.519107401E-1,-4.234168679E-2,-9.253735840E-2
2.657484944E1,-3.203900754E-1,-3.008075058E-1,-5.394638181E-1
2.659684944E1,-9.044296294E-2,-3.317347169E-1,-4.791975915E-1
2.661685256E1,2.775073517E-3,-1.312138587E-1,-1.175130159E-1
2.663885100E1,-1.518087387E-1,2.335948646E-1,1.815665960E-1
2.665885256E1,-2.785894573E-1,3.573037982E-1,1.877974272E-1
2.668084944E1,-1.789486110E-1,-9.581857361E-3,3.412118554E-2
2.670084944E1,1.296779662E-1,-3.818605840E-1,1.011418328E-1
2.672085100E1,4.189313650E-1,-3.921231329E-1,2.592686713E-1
2.674284944E1,3.116285503E-1,-2.315877378E-1,2.409078032E-1
2.676284944E1,-5.853834376E-2,6.894050632E-3,-2.370157093E-2
2.678484944E1,-1.338492930E-1,2.424960434E-1,-2.978753448E-1
2.680685100E1,2.418328226E-1,1.717927605E-1,-1.607273668E-1
2.682884788E1,5.600935817E-1,-2.916445211E-2,7.372270525E-2
2.684884944E1,3.507064581E-1,-3.367089033E-1,-4.290019348E-2
2.686884944E1,-1.672025397E-2,-3.397632539E-1,-3.236364126E-1
2.688884944E1,-1.261349469E-1,-2.019345909E-1,-4.893030524E-1
2.690884944E1,1.982868612E-1,1.640085876E-1,-1.232202426E-1
2.692884944E1,4.475198686E-1,4.741710424E-1,3.288200200E-1
2.695084944E1,-2.384468764E-1,1.773079932E-1,3.375466913E-2
2.697284788E1,-8.840267062E-1,-7.814188004E-1,-8.981115222E-1
2.699284788E1,-3.199014068E-1,-8.193971515E-1,-9.527752399E-1
2.701284788E1,4.381998181E-1,-1.659459025E-1,-3.001966178E-1
2.703284788E1,2.014459074E-1,1.755452156E-1,3.783873841E-2
2.705284944E1,-3.030066192E-1,4.504520297E-1,-4.937536269E-2
2.707284944E1,-5.236860514E-1,4.052654505E-1,-2.411870509E-1
2.709484788E1,-4.274660349E-1,-6.195918657E-3,-2.673320770E-1
2.711484788E1,-2.125985622E-1,-3.464129567E-1,-1.249830276E-1
2.713484944E1,-6.194173545E-2,-2.939658165E-1,-2.225294709E-2
2.715684944E1,-5.173156038E-2,-4.171337001E-3,8.503244072E-2
2.717684944E1,-4.394739121E-2,2.640683055E-1,1.101128235E-1
2.719884944E1,6.178465672E-3,2.591813803E-1,4.106759652E-2
2.722084944E1,1.828756034E-1,7.361798733E-2,-1.968731359E-2
2.724084944E1,2.996730208E-1,-6.888814270E-2,-3.347541392E-2
2.726084944E1,1.677785069E-1,-6.229080260E-2,-4.900884628E-2
2.728284788E1,-1.931381375E-1,-1.919862116E-4,-1.354724616E-1
2.730284788E1,-3.634997308E-1,-3.536036983E-2,-1.578475833E-1
2.732284944E1,-2.232625186E-1,-1.234471351E-1,-3.668681905E-2
2.734484788E1,-1.310742274E-2,-1.317898184E-1,1.608320922E-1
2.736484788E1,1.701696031E-2,-9.847147763E-2,2.877698839E-1
2.738484788E1,5.211552978E-2,-7.415904105E-2,3.228335381E-1
2.740484788E1,1.718451232E-1,-2.039242685E-1,3.251548409E-1
2.742484944E1,1.983741224E-1,-4.732285738E-1,2.257757932E-1
2.744684788E1,-4.517261088E-1,-6.871710420E-1,-2.461263239E-1
2.746684944E1,-6.364517808E-1,-4.741186798E-1,-4.844161272E-1
2.748884944E1,-9.923942387E-2,6.092944369E-2,-1.852317899E-1
2.750884944E1,1.565734893E-1,4.861789048E-1,2.935818434E-1
2.752884944E1,7.344345748E-2,5.581039190E-1,4.913101792E-1
2.754884944E1,-1.480213702E-1,1.226093769E-1,2.438225001E-1
2.756884944E1,-3.930481523E-2,-1.764178872E-1,-5.541420355E-2
2.758884944E1,1.843940318E-1,5.438445881E-2,-1.395390779E-1
2.760884944E1,7.534586638E-2,3.380353749E-1,-2.918190509E-2
2.762885100E1,-3.192381859E-1,3.815115094E-1,4.417428374E-2
2.764885100E1,-3.914424479E-1,2.475400418E-1,-2.206096239E-2
2.766885100E1,-1.007578596E-1,-2.188642882E-2,-5.119050667E-2
2.768885100E1,3.048741221E-1,-1.898918152E-1,1.606226563E-1
2.770885100E1,4.384965301E-1,-2.486745119E-1,4.204323590E-1
2.773085100E1,2.475400418E-1,-1.946914792E-1,4.733332992E-1
2.775284944E1,-1.208291426E-1,-1.289972812E-1,1.999449134E-1
2.777284944E1,5.115560070E-2,-1.104793400E-1,-5.169665068E-2
2.779284944E1,4.825311899E-1,1.425410360E-1,6.391395628E-2
2.781284944E1,3.845832944E-1,4.806287587E-1,2.860245705E-1
2.783284944E1,3.612831607E-2,5.925567150E-1,3.531499207E-1
2.785284944E1,-1.140398160E-1,2.417280972E-1,9.403833747E-2
2.787284944E1,1.776221544E-1,-3.717551231E-1,-3.421543539E-1
2.789285100E1,6.501526237E-1,-5.504244566E-1,-3.433935344E-1
2.791484944E1,8.276351094E-1,-1.554564834E-1,1.780759394E-1
2.793485100E1,3.588222265E-1,5.320287347E-1,3.706032038E-1
2.795685100E1,-9.628806710E-1,3.197617829E-1,-3.742334843E-1
2.797685725E1,-5.886646509E-1,-2.105565220E-1,-7.591832876E-1
2.799885100E1,7.368605733E-1,-3.713886142E-1,-2.132792324E-1
2.802084944E1,6.438170671E-1,-2.590592206E-1,3.507762849E-1
2.804084944E1,-1.685115397E-1,1.930683255E-1,2.575582266E-1
2.806084944E1,-4.740314186E-1,2.612757981E-1,-2.658310831E-1
2.808084944E1,-3.066892624E-1,8.098327368E-2,-4.677482247E-1
2.810084944E1,-5.473352596E-2,-1.497143358E-1,-3.121695817E-1
2.812084944E1,-8.618436009E-2,-3.359584212E-1,-6.682865322E-2
2.814084944E1,-1.715134978E-1,-1.801528782E-1,-3.089232743E-2
2.816084944E1,-1.917244196E-1,5.923647434E-2,-9.164723754E-2
2.818284944E1,4.571017250E-2,9.918706119E-2,-1.505346447E-1
2.820284944E1,1.495572627E-1,1.152266338E-1,-7.328637689E-2
2.822484944E1,-3.176499158E-3,1.525592357E-1,-2.947861142E-2
2.824685725E1,-1.733635515E-1,5.009094998E-2,-1.041787043E-1
2.826885100E1,-1.230631620E-1,-1.990198940E-1,-2.879618704E-1
2.829084944E1,8.583529294E-2,-3.684913516E-1,-2.848900855E-1
2.831084944E1,9.852383286E-2,-1.548979729E-1,-4.829325899E-2
2.833284944E1,6.579891313E-3,2.375742197E-1,1.585457027E-1
2.835484944E1,5.665338784E-2,2.237861156E-1,9.496336430E-2
2.837685100E1,2.268404365E-1,1.011418328E-1,1.202531811E-2
2.839884944E1,3.647214472E-1,2.278701812E-1,1.485100687E-1
2.841884944E1,2.985036671E-1,4.869992137E-1,2.639286816E-1
2.843884944E1,1.806415804E-2,1.150695607E-1,1.782155633E-1
2.845884944E1,2.527411282E-1,-3.515791297E-1,1.321214288E-1
2.847884944E1,8.587892652E-1,-5.009269714E-1,1.294510663E-1
2.849884944E1,1.008363962E0,-4.456349015E-1,4.871213809E-2
2.851884944E1,3.112445772E-1,3.913028166E-2,-1.396787018E-1
2.853884944E1,-7.105235457E-1,3.911457360E-1,-4.249353111E-1
2.855884944E1,-9.773843884E-1,1.844987571E-1,-7.194247246E-1
2.857884944E1,-5.032656789E-1,-1.638340503E-1,-6.862809062E-1
2.859884944E1,-6.065019220E-2,-4.440815747E-1,-3.619463742E-1
2.861884944E1,-1.155407950E-1,-3.216467202E-1,4.162610322E-2
2.863884944E1,-3.503573835E-1,1.224697530E-1,2.474178672E-1
2.865884944E1,-4.449193180E-1,3.729943037E-1,3.028669953E-1
2.868084788E1,-3.494498134E-1,1.387711316E-1,2.926917076E-1
2.870084944E1,-3.501130641E-2,-3.066892624E-1,3.028669953E-1
2.872284788E1,4.865977913E-2,-6.756169796E-1,3.209486008E-1
2.874284788E1,-4.267329872E-1,-4.459839761E-1,2.657787502E-1
2.876284944E1,-1.128739357E0,-1.162738353E-1,-2.158972248E-2
2.878284944E1,-7.606493831E-1,9.665632993E-2,-1.933301240E-1
2.880484788E1,2.974564731E-1,1.982519478E-1,1.226268336E-1
2.882484944E1,4.870690405E-1,9.297368675E-2,4.233994186E-1
2.884684788E1,6.719517708E-2,1.533271670E-1,2.871066630E-1
2.886685100E1,-2.816961333E-2,3.344399929E-1,3.741985932E-2
2.888884944E1,4.113217294E-1,6.709569097E-1,1.196248680E-1
2.890884944E1,2.779436707E-1,9.190205932E-1,2.439970225E-1
2.892884944E1,-5.865527987E-1,3.602534235E-1,-1.073377505E-1
2.894884944E1,-5.721538067E-1,-3.843389452E-1,-4.933696687E-1
2.896884944E1,5.847201943E-1,-2.495471686E-1,-2.343453616E-1
2.898884944E1,1.207034826E0,-4.052654654E-2,1.011767387E-1
2.900884944E1,4.957607687E-1,1.430995464E-1,4.865977913E-2
2.902884944E1,-2.082177848E-1,5.955936313E-1,-1.847780049E-1
2.904884944E1,-1.576555967E-1,6.343747973E-1,-4.873657525E-1
2.906884944E1,9.719738364E-2,2.799682617E-1,-5.829225183E-1
2.908884944E1,2.036624700E-1,-3.443534672E-1,-5.360604525E-1
2.910884944E1,9.431759268E-2,-7.874053121E-1,-5.446125269E-1
2.912884944E1,-5.981243402E-2,-6.067811847E-1,-5.454851985E-1
2.914884944E1,-9.665632993E-2,-1.291369051E-1,-4.810650945E-1
2.916884944E1,-5.370378122E-2,5.159018636E-1,-2.723586261E-1
2.918884944E1,-1.386838555E-1,5.831319690E-1,-1.464331243E-2
2.920884944E1,-2.577502131E-1,8.377580671E-4,1.523672491E-1
2.922884944E1,-2.238908410E-1,-8.619308472E-1,1.516691148E-1
2.924884944E1,1.952848881E-1,-1.180366158E0,-9.459684603E-3
2.926884944E1,3.451563120E-1,-5.895896554E-1,3.159045801E-2
2.928884944E1,-1.547408849E-1,2.077988982E-1,1.945693046E-1
2.931084788E1,-5.883330107E-1,5.123937726E-1,3.056944311E-1
2.933084788E1,-3.247185051E-1,-1.448623277E-2,3.256609738E-1
2.935086506E1,3.968704045E-1,-6.520898938E-1,2.481683642E-1
2.937284944E1,9.170483351E-1,-4.228234589E-1,3.458718956E-1
2.939284944E1,5.886995792E-1,2.932327688E-1,5.864131451E-1
2.941284944E1,-9.304349869E-2,6.743428707E-1,7.074168324E-1
2.943484944E1,-4.204847217E-1,-1.358738840E-1,4.026125371E-1
2.945684944E1,1.793674827E-1,-4.621108174E-1,1.843242198E-1
2.947685100E1,4.738568962E-1,-1.682497412E-1,2.338566631E-1
2.949685881E1,-2.750638872E-2,2.705260413E-3,2.635447085E-1
2.951884788E1,-6.443406343E-1,-5.567600206E-2,4.729842395E-2
2.953884944E1,-6.242519021E-1,-1.646369100E-1,-3.558551669E-1
2.955885256E1,-2.879269719E-1,-9.046041220E-2,-5.028817058E-1
2.958084944E1,-1.083849445E-1,5.138249323E-2,-2.982942164E-1
2.960084944E1,-2.476971298E-1,9.646435082E-2,-2.872812003E-2
2.962084944E1,-2.640857697E-1,2.245715111E-1,1.566956639E-1
2.964284788E1,9.571385384E-2,1.949881762E-1,2.199114859E-1
2.966284788E1,3.605675697E-1,1.814095229E-1,2.535788715E-1
2.968284944E1,3.875154555E-1,2.003986984E-1,2.847679257E-1
2.970484788E1,2.320415229E-1,3.537956774E-1,2.719397545E-1
2.972484944E1,2.850122750E-2,2.901086211E-1,8.332201838E-2
2.974484944E1,-3.368485346E-2,1.020843089E-1,-7.770206034E-2
2.976684944E1,1.850223541E-1,-1.052608043E-1,-1.465727538E-1
2.978684944E1,4.417079389E-1,1.374970376E-1,5.190609023E-2
2.980884788E1,2.032610476E-1,3.027099073E-1,8.688248694E-2
2.982884944E1,-1.688955128E-1,2.694962919E-1,-1.409702450E-1
2.984886038E1,-1.852492392E-1,-4.363323003E-2,-3.185051382E-1
2.987084944E1,2.464055866E-1,-3.147177696E-1,-1.275835633E-1
2.989084944E1,6.450387836E-1,-1.229759008E-1,3.094119728E-1
2.991084944E1,1.630486548E-1,-8.424704522E-2,2.685014606E-1
2.993084944E1,-5.656437278E-1,-4.442735612E-1,-2.310641408E-1
2.995084944E1,-1.791754961E-1,-4.696680903E-1,-3.894702196E-1
2.997084944E1,6.504318714E-1,-1.534144394E-2,1.509709843E-2
2.999084944E1,6.615146995E-1,1.074773744E-1,2.433512509E-1
3.001084944E1,-7.850491256E-2,7.298967242E-2,2.155481651E-2
3.003284788E1,-6.346715093E-1,-1.422443334E-2,-4.446400702E-1
3.005284944E1,-6.772924662E-1,-2.154259831E-1,-7.088131309E-1
3.007484944E1,-2.914525270E-1,-2.281494439E-1,-4.825137258E-1
3.009684944E1,-5.913175642E-2,-2.577676773E-1,-8.073893189E-2
3.011684944E1,-5.115560070E-2,-1.445307136E-1,1.659808122E-2
3.013685569E1,-3.797836602E-2,6.585127115E-2,-1.224697530E-1
3.015884788E1,1.591740362E-2,3.165503740E-1,-1.144412383E-1
3.017884944E1,1.003564335E-2,4.557229280E-1,8.669050038E-2
3.019884944E1,9.697049111E-2,4.583932757E-1,2.690424919E-1
3.022084788E1,1.332035214E-1,2.110626698E-1,2.425309569E-1
3.024084944E1,9.674359858E-2,4.380776361E-2,1.000946313E-1
3.026084944E1,1.038819999E-1,1.194503307E-1,6.017895415E-2
3.028284788E1,1.476024985E-1,2.233497798E-1,2.119876891E-1
3.030284788E1,1.910786480E-1,2.513797581E-1,3.907094002E-1
3.032284944E1,2.782229483E-1,1.737998873E-1,4.203974605E-1
3.034484788E1,2.049190998E-1,1.448623277E-2,2.944544852E-1
3.036484788E1,5.855579674E-2,5.115560070E-2,1.972571164E-1
3.038484788E1,4.584980011E-2,2.776120603E-1,2.659707367E-1
3.040484788E1,-7.785914093E-2,2.173807621E-1,3.184527755E-1
3.042484944E1,-2.825513482E-1,-3.661700711E-2,1.742885858E-1
3.044685725E1,-9.426523000E-2,-1.796292812E-1,4.242895544E-2
3.046884788E1,3.289945722E-1,-6.272713095E-2,2.212902904E-1
3.048884944E1,5.515240598E-3,-5.534439161E-2,2.155481577E-1
3.050884944E1,-6.152634621E-1,-1.128006279E-1,-1.182635128E-1
3.053084788E1,-6.605547667E-1,-2.414314002E-1,-5.098804832E-1
3.055084788E1,-3.074572086E-1,-2.130523473E-1,-3.564660549E-1
3.057084788E1,-1.212305725E-1,-5.628686771E-2,7.112216949E-2
3.059084944E1,-1.488940418E-1,1.941678822E-1,2.068215162E-1
3.061284788E1,-1.391376406E-1,3.438647687E-1,1.340587437E-1
3.063284788E1,-1.074599251E-1,3.418052793E-1,1.186474785E-1
3.065284944E1,-6.424556673E-2,1.355073601E-1,1.398881376E-1
3.067484788E1,1.928588748E-1,-1.343903542E-1,2.659532726E-1
3.069484788E1,4.752182364E-1,-3.631506562E-1,2.175203860E-1
3.071484944E1,5.111720562E-1,-7.044149190E-2,9.011135250E-2
3.073686038E1,3.209311366E-1,3.858923018E-1,1.193979755E-1
3.075884944E1,3.684389889E-1,4.478165805E-1,2.457423508E-1
3.077884944E1,4.304156601E-1,2.390577495E-1,2.797064781E-1
3.079884944E1,3.147352338E-1,1.028871611E-1,9.297368675E-2
3.081884944E1,3.386113346E-1,-6.190682948E-2,-7.675957680E-2
3.083884944E1,3.856479526E-1,-1.182460561E-1,-4.216715321E-2
3.085884944E1,2.342929989E-1,2.862340026E-2,8.290313929E-2
3.087884944E1,1.581093818E-1,8.702211827E-2,1.436056942E-1
3.090084944E1,1.370781660E-1,-6.986553222E-2,-1.151917269E-3
3.092284788E1,-3.956661522E-1,-5.631828308E-1,-5.065818429E-1
3.094284788E1,-2.656216621E-1,-6.213546395E-1,-6.391919255E-1
3.096284788E1,4.558799863E-1,-1.759466380E-1,-2.624800801E-1
3.098284944E1,6.885672808E-1,1.361356769E-2,1.268679798E-1
3.100484944E1,-4.223696887E-3,-9.353219718E-2,-6.902777404E-2
3.102684944E1,-5.008571148E-1,1.208640486E-1,-5.005604029E-1
3.104685569E1,-5.543340445E-1,3.148050308E-1,-7.023903131E-1
3.106884944E1,-3.794171214E-1,3.673743606E-1,-4.709421992E-1
3.109084944E1,-2.610838115E-1,-1.314756572E-1,-2.582738101E-1
3.111084944E1,-1.655793786E-1,-5.809328556E-1,-2.978928089E-1
3.113085100E1,2.581341937E-2,-6.106383204E-1,-4.042357206E-1
3.115085256E1,1.173210293E-1,-1.421047002E-1,-1.545663625E-1
3.117284944E1,-6.728244573E-2,4.261395931E-1,1.336049587E-1
3.119284944E1,-7.702138275E-2,3.690673113E-1,1.300793886E-1
3.121284944E1,2.757620253E-2,-4.667010531E-2,-2.111848444E-3
3.123484788E1,1.467821896E-1,-2.597922683E-1,-9.035569429E-2
3.125484788E1,1.790707856E-1,1.523672417E-2,4.656538367E-2
3.127484788E1,1.084024012E-1,1.775348932E-1,2.519382834E-1
3.129484944E1,5.674065277E-2,2.422167957E-1,3.437426090E-1
3.131684944E1,1.764527895E-2,1.500284970E-1,1.855634004E-1
3.133884944E1,2.350260317E-1,5.422737822E-2,5.864306353E-3
3.135884944E1,4.055272639E-1,1.867851317E-1,1.008800268E-1
3.138084944E1,2.772630155E-1,5.158320665E-1,3.370754421E-1
3.140084944E1,-2.890265174E-2,5.015377998E-1,3.915820718E-1
3.142284788E1,-1.051386371E-1,2.157226950E-2,2.036275566E-1
3.144284944E1,2.209935933E-1,-2.579771280E-1,1.755626649E-1
3.146284944E1,3.710919023E-1,-2.224771231E-1,1.914800704E-1
3.148284944E1,-5.305800959E-2,-4.206243530E-2,1.102349982E-1
3.150484944E1,-7.063696384E-1,-8.342673630E-2,-2.002241760E-1
3.152484944E1,-8.094662428E-1,-2.289348394E-1,-4.791103303E-1
3.154684944E1,-4.964414537E-1,-3.047519326E-1,-4.305727184E-1
3.156884944E1,-3.118205369E-1,-3.158347905E-1,-9.939649701E-2
3.158884944E1,-2.906322181E-1,-2.027723491E-1,9.539970011E-2
3.161084788E1,-1.583013684E-1,4.146902263E-2,1.101128235E-1
3.163084944E1,-1.052258983E-1,6.908012927E-2,8.127998561E-2
3.165086975E1,-1.237438470E-1,9.011135250E-2,9.189158678E-2
3.167284788E1,-1.896823794E-1,1.263618320E-1,1.049466506E-1
3.169284944E1,-4.454080388E-2,1.717403978E-1,2.343278974E-1
3.171284944E1,1.372876018E-1,-7.436847687E-2,3.261845708E-1
3.173484788E1,2.405587286E-1,-3.617020249E-1,1.806590259E-1
3.175484788E1,2.186548412E-1,-4.654444158E-1,-1.491034776E-1
3.177484788E1,2.575233281E-1,-5.082049966E-1,-3.351206779E-1
3.179484944E1,4.943296015E-1,-7.142061591E-1,-4.316897392E-1
3.181685725E1,7.240847349E-1,-4.078834355E-1,-4.803844094E-1
3.183884944E1,6.323676705E-1,-5.211552978E-1,-4.293859005E-1
3.185884944E1,3.070034087E-1,-6.853209734E-1,-3.919835091E-1
3.188084944E1,1.176526472E-1,-1.023984700E-1,-1.846732944E-1
3.190084944E1,-7.972663641E-2,1.205848008E-1,-9.807004780E-2
3.192284788E1,-6.362772584E-1,1.170068756E-1,-2.099456489E-1
3.194284944E1,-7.122688890E-1,1.427801490E0,7.534586638E-2
3.196285100E1,-5.946860313E-1,1.304127455E0,4.306774437E-1
3.198484944E1,-3.284186125E-1,8.684409261E-1,3.262369335E-1
3.200484944E1,-3.614576757E-1,2.288126647E-1,-1.121199504E-1
3.202484944E1,-2.460390627E-1,-3.371975943E-2,-1.788613349E-1
3.204484944E1,-1.246863231E-1,-6.517059356E-2,7.660250366E-2
3.206684944E1,-1.765924096E-1,-2.550100684E-1,1.915324330E-1
3.208884944E1,-1.884606481E-1,-3.665191531E-1,8.038986474E-2
3.211084788E1,-3.577924892E-2,-2.174505740E-1,-1.802925020E-2
3.213084788E1,-2.745402977E-2,1.710946262E-1,5.557128415E-2
3.215084788E1,-2.575582266E-1,4.559323490E-1,6.963863969E-2
3.217084944E1,-2.997253835E-1,5.020264983E-1,1.912880875E-2
3.219084944E1,-3.977605328E-2,-2.697231770E-1,1.148426626E-2
3.221084944E1,1.742711216E-1,-6.039537191E-1,6.719517522E-3
3.223084944E1,1.847780049E-1,-3.259402514E-1,1.429424584E-1
3.225084944E1,1.521228999E-1,1.257509738E-1,2.037148327E-1
3.227084944E1,1.099557430E-1,2.690424919E-1,1.230806187E-1
3.229084944E1,2.086890191E-1,-1.966986060E-2,1.320865154E-1
3.231084944E1,2.012713701E-1,-2.851867974E-1,4.508185387E-2
3.233084944E1,2.165953666E-1,-4.502425790E-1,2.249729447E-2
3.235086506E1,4.629136622E-1,-6.424906254E-1,1.224697530E-1
3.237284944E1,7.298792601E-1,-3.969227672E-1,4.163482785E-1
3.239284944E1,4.870341122E-1,-3.229033649E-1,4.844859540E-1
3.241284944E1,3.579670191E-2,-2.009222955E-1,3.714584112E-1
3.243484944E1,-4.178318381E-2,1.800481677E-1,3.670601845E-1
3.245685569E1,3.769911127E-3,5.240700245E-1,3.004060686E-1
3.247685569E1,-6.253514439E-2,1.713913307E-2,2.163859159E-1
3.249884944E1,-1.528384835E-1,-5.279272199E-1,3.471459821E-2
3.252084944E1,-7.009242475E-2,-7.454475760E-1,-3.369881809E-1
3.254284944E1,-2.278178334E-1,-5.945813060E-1,-6.113888621E-1
3.256484788E1,-4.655142128E-1,4.359134436E-1,-2.535614371E-1
3.258484788E1,-4.773649871E-1,5.955936313E-1,1.795420200E-1
3.260484788E1,-3.643898368E-1,5.519254804E-1,3.653846681E-1
3.262484788E1,-3.035127558E-2,4.765272439E-1,2.870717645E-1
3.264484944E1,2.865481675E-1,3.658210039E-1,7.695156336E-2
3.266484944E1,5.234242678E-1,-5.468116701E-2,-9.791296907E-3
3.268484944E1,5.925741792E-1,-3.345621526E-1,-4.961971194E-2
3.270484944E1,3.769911230E-1,-3.142988980E-1,-1.017526984E-1
3.272484944E1,8.340928704E-2,2.588846982E-1,-2.118829638E-2
3.274484944E1,-7.672467083E-2,5.799030662E-1,-9.145525284E-3
3.276484944E1,-1.146157682E-1,8.188386559E-1,-8.101818711E-2
3.278484944E1,-1.098335683E-1,6.511648893E-1,-4.893903062E-2
3.280484944E1,-1.332209855E-1,5.621705577E-2,-8.918632567E-2
3.282484944E1,-5.112069473E-2,-2.755351365E-1,-1.778490543E-1
3.284484944E1,1.933999360E-1,-7.398450375E-2,-9.290387481E-2
3.286484944E1,3.204075396E-1,1.383871585E-1,1.143539697E-1
3.288484944E1,-1.948660165E-1,-1.696460098E-1,-8.103563637E-2
3.290685256E1,-8.066737056E-1,-3.373721540E-1,-5.019043088E-1
3.292884944E1,-4.179888964E-1,2.035752088E-1,-5.161113143E-1
3.294885413E1,2.809107304E-1,4.140968025E-1,-2.257234305E-1
3.297084788E1,1.494874507E-1,-2.364921123E-1,-2.716255784E-1
3.299084944E1,-4.261221290E-1,-4.210781455E-1,-3.569721878E-1
3.301084944E1,-7.752926946E-1,-3.430968225E-1,-3.691720366E-1
3.303084944E1,-8.014202714E-1,-2.013760954E-1,-2.902657092E-1
3.305085569E1,-6.063972116E-1,-2.454631031E-1,-1.744107455E-1
3.307284788E1,-1.813397110E-1,-2.034181207E-1,-1.929810494E-1
3.309284788E1,1.415287554E-1,-2.158623189E-1,-1.082976833E-1
3.311285100E1,3.032684028E-1,-1.705710292E-1,-3.670427576E-2
3.313484944E1,1.353153735E-1,9.964084625E-2,-4.452335089E-2
3.315485256E1,-1.174606606E-1,2.919761240E-1,-9.299114347E-2
3.317685100E1,-1.170068756E-1,5.925392732E-2,-2.120575011E-1
3.319685256E1,8.702211827E-2,-3.574259877E-1,-2.952922583E-1
3.321685413E1,2.715034187E-1,-4.613777995E-1,-1.993166059E-1
3.323685569E1,2.316749990E-1,-2.797588110E-1,-4.082325101E-2
3.325685569E1,6.403613091E-2,4.785692692E-2,-4.614650458E-2
3.327884944E1,-1.478468478E-1,3.010518551E-1,-3.522074595E-2
3.329884944E1,-1.307600737E-1,3.378608227E-1,1.550375968E-1
3.331884944E1,3.516838327E-2,5.135282278E-1,4.691444933E-1
3.333884944E1,3.490134776E-1,5.214520097E-1,7.247828841E-1
3.335884944E1,2.232625186E-1,3.215943575E-1,5.415232778E-1
3.337886506E1,-1.715484113E-1,-1.773254573E-1,2.031214237E-1
3.340084944E1,-2.033134103E-1,2.818706818E-2,1.665044017E-2
3.342084944E1,1.631882787E-2,4.350756705E-1,1.485798806E-1
3.344084944E1,-3.839724232E-3,1.327672005E-1,2.050936371E-1
3.346084944E1,-2.463706732E-1,-3.675139844E-1,2.504547499E-2
3.348084944E1,-4.007450342E-1,-4.039040804E-1,-1.915673316E-1
3.350084944E1,-4.202403724E-1,-1.075646430E-1,-4.456523657E-1
3.352084944E1,-3.747570813E-1,4.529129341E-2,-5.348736048E-1
3.354284944E1,-3.552792072E-1,1.266236305E-1,-3.289247453E-1
3.356484788E1,-3.307049870E-1,1.248434037E-1,-1.633628085E-2
3.358484944E1,-2.070135027E-1,-7.536331564E-2,1.496968865E-1
3.360685413E1,-7.262314856E-2,6.679374725E-2,9.365436435E-2
3.362884944E1,-1.324006766E-1,6.906791329E-1,6.874851882E-2
3.364884944E1,-2.580992877E-1,8.863654733E-1,1.691747606E-1
3.366884944E1,-2.855184078E-1,5.363397002E-1,1.853190660E-1
3.369084944E1,-2.182359695E-1,2.478018403E-1,-1.695761830E-1
3.371084944E1,-2.234370559E-1,2.742086649E-1,-6.079505086E-1
3.373084944E1,-2.638588846E-1,3.495021760E-1,-9.018290639E-1
3.375085569E1,-8.670795709E-2,6.302384138E-1,-8.765043616E-1
3.377284944E1,6.293657422E-2,5.008047819E-1,-3.675139844E-1
3.379484788E1,-2.509434521E-1,-1.549328715E-1,2.135584801E-1
3.381484944E1,-2.123891115E-1,9.508553892E-2,1.434660703E-1
3.383484944E1,3.140021861E-1,4.853236973E-1,-6.304129213E-2
3.385484944E1,6.417924762E-1,7.342425585E-1,7.218682021E-2
3.387484944E1,1.293289009E-2,-2.423215061E-1,4.787088931E-1
3.389484944E1,-3.736924529E-1,4.187044874E-2,2.355496287E-1
3.391484944E1,-1.165705398E-1,2.639810443E-1,-2.560921609E-1
3.393484944E1,2.737897933E-1,3.163409233E-1,-4.701567888E-1
3.395484944E1,3.526612222E-1,3.099181056E-1,-4.258777797E-1
3.397484944E1,3.692418635E-1,-8.819148690E-2,-3.432713449E-1
3.399484944E1,4.125958383E-1,1.819505692E-1,-4.135732055E-1
3.401484944E1,3.477219343E-1,1.509535313E-1,-5.784718990E-1
3.403684944E1,3.330437243E-1,-1.771509275E-2,-7.467740178E-1
3.405684944E1,4.334001541E-1,-8.934340626E-2,-7.648730874E-1
3.407685569E1,5.413138866E-1,1.297652274E-1,-6.311284900E-1
3.409686350E1,4.376063943E-1,4.936663806E-1,-3.853861392E-1
3.411884944E1,1.997878402E-1,2.435083389E-1,-9.503317624E-2
3.413884944E1,2.242922634E-1,1.574810594E-1,-3.080506064E-2
3.415884944E1,2.079734355E-1,5.474399924E-1,1.166578084E-1
3.417884944E1,1.040216256E-2,6.664539576E-1,2.833891213E-1
3.419884944E1,-1.037772745E-1,3.315252960E-1,1.906074136E-1
3.421884944E1,-3.604104742E-2,2.501580417E-1,1.087863743E-1
3.424084788E1,1.095717698E-1,6.550569534E-1,4.765097797E-1
3.426084944E1,1.467472762E-1,7.312929630E-1,6.666459441E-1
3.428084944E1,6.489133835E-2,3.996454775E-1,3.269176185E-1
3.430084944E1,8.447393775E-2,4.554785788E-1,-7.372270525E-2
3.432284788E1,1.861219108E-1,9.222319722E-1,-4.782202188E-3
3.434284944E1,-1.054353416E-1,4.407480061E-1,1.162389293E-1
3.436484788E1,-8.613199741E-2,7.087782025E-2,2.838952541E-1
3.438484944E1,-1.185078546E-1,1.061683744E-1,4.897393882E-1
3.440484944E1,-4.016526341E-1,-2.671400905E-1,1.755277663E-1
3.442484944E1,-4.310439527E-1,-5.472480059E-1,-6.054547057E-2
3.444684788E1,-2.666863054E-2,-6.296275258E-1,2.565633971E-3
3.446684944E1,-9.014625847E-2,-9.167516232E-1,1.513200402E-1
3.448884944E1,-6.074094772E-1,-1.086973548E0,2.495820820E-1
3.450884944E1,-1.061875820E0,-1.113589883E0,3.293610811E-1
3.452884944E1,-1.156821728E0,-1.210787296E0,4.719893932E-1
3.455085569E1,-7.277499437E-1,-1.293079495E0,6.499257088E-1
3.457284788E1,-1.151742786E-1,-6.050358415E-1,6.835058331E-1
3.459285412E1,2.631083727E-1,-1.712516993E-1,6.554758549E-1
3.461484788E1,2.761808932E-1,-1.519832760E-1,6.024876833E-1
3.463484788E1,-4.670501128E-2,-3.579670191E-1,4.793895781E-1
3.465484944E1,-2.877349854E-1,-4.935441911E-1,3.438822329E-1
3.467488225E1,-5.906194076E-2,-7.637909651E-1,1.151393726E-1
3.469684944E1,6.299417019E-1,-1.858775616E-1,5.384340882E-2
3.471685725E1,8.799949884E-1,1.026253588E-2,1.802925169E-1
3.473686194E1,5.845107436E-1,-3.024306595E-1,8.408996463E-2
3.475885256E1,2.080432475E-1,-6.319313645E-1,-2.837905288E-2
3.478084788E1,1.575508714E-1,-5.236685872E-1,-7.248352468E-2
3.480085725E1,3.496243656E-1,5.422737822E-2,9.889035672E-2
3.482284944E1,5.923996568E-1,6.742730737E-1,3.663446009E-1
3.484285569E1,4.358261526E-1,5.316272750E-2,1.169719696E-1
3.486484944E1,-1.237438470E-1,-7.724827528E-1,-3.214547336E-1
3.488484944E1,-2.279400080E-2,-2.082701325E-1,-1.868549436E-1
3.490484944E1,3.575132489E-1,6.722135544E-1,1.011767387E-1
3.492485412E1,1.498714238E-1,6.366263032E-1,-5.258677155E-2
3.494684944E1,-4.581140280E-1,2.377138473E-2,-4.929333329E-1
3.496686975E1,-5.397081375E-1,-2.678556740E-1,-5.012410879E-1
3.498885100E1,-3.133913279E-1,-3.021164834E-1,-2.485523373E-1
3.500885256E1,-3.279822767E-1,-8.714429289E-2,4.550073296E-2
3.503084944E1,-3.656813800E-1,1.775697917E-1,1.103222594E-1
3.505085412E1,-2.688854337E-1,3.166899979E-1,1.692969352E-2
3.507284788E1,-4.204672575E-1,2.321287990E-2,1.478817463E-1
3.509284788E1,-3.905348778E-1,-5.348561406E-1,3.264463842E-1
3.511284944E1,1.516691130E-2,-4.102047384E-1,5.060756803E-1
3.513484788E1,1.944994926E-1,-1.836435497E-1,3.752632439E-1
3.515484944E1,1.122246683E-1,-1.168323383E-1,4.445353523E-2
3.517685569E1,1.186649352E-1,4.019493237E-2,-9.817477316E-2
3.519885569E1,2.053728998E-1,2.700896859E-1,8.735372871E-2
3.522084788E1,1.564862132E-1,1.328544617E-1,2.016553432E-1
3.524085256E1,1.609891653E-1,7.986626774E-2,2.053205371E-1
3.526284788E1,1.419476271E-1,2.309070528E-2,1.065872535E-1
3.528285256E1,2.124065720E-2,-2.876302600E-2,1.797689125E-2
3.530484944E1,-7.323401421E-2,7.604399323E-2,1.156978756E-1
3.532484944E1,-3.712315485E-2,2.256710678E-1,2.170840502E-1
3.534484944E1,-6.291911751E-2,-3.298672382E-3,1.626472324E-1
3.536485412E1,6.651449949E-2,1.707630157E-1,9.021607041E-2
3.538684944E1,2.776469886E-1,7.728667259E-1,1.474803239E-1
3.540686975E1,2.256361693E-1,8.867669106E-1,2.164382786E-1
3.542884944E1,-8.265879005E-2,2.982069552E-1,1.443910897E-1
3.544884944E1,-3.384891450E-1,-3.918613195E-1,-1.351931989E-1
3.546884944E1,-1.666963995E-1,-3.979350626E-1,-3.431317210E-1
3.548884944E1,6.997025013E-2,1.620014608E-1,-3.979525268E-1
3.550884944E1,-4.883431271E-2,3.936939240E-1,-3.510206044E-1
3.552884944E1,-2.989749014E-1,3.201631904E-1,-1.240230948E-1
3.554884944E1,-3.258355260E-1,6.791076064E-2,1.722290963E-1
3.556884944E1,-1.440769285E-1,-1.244594306E-1,2.985036671E-1
3.558885256E1,-7.401940972E-2,-1.918116808E-1,2.390751988E-1
3.561084944E1,2.284635976E-2,3.349286690E-2,2.488315850E-1
3.563086662E1,1.861393601E-1,1.622458100E-1,2.699326277E-1
3.565284944E1,1.978505254E-1,-3.787364438E-2,1.686686128E-1
3.567285725E1,1.816364080E-1,-2.231403440E-1,8.796459064E-3
3.569484944E1,2.117084414E-1,-2.012713701E-1,-7.857472450E-2
3.571484944E1,1.902932525E-1,-5.407030135E-2,-7.347836159E-3
3.573684788E1,2.740166895E-2,1.677261479E-2,-2.963569015E-2
3.575684944E1,-2.970550396E-2,-2.032610476E-1,-2.162462920E-1
3.577685412E1,1.311789453E-1,-4.100301862E-1,-3.043505251E-1
3.579687756E1,3.201282918E-1,-1.583537161E-1,-2.713987045E-2
3.581884944E1,1.429075599E-1,1.686337143E-1,1.075820923E-1
3.583884944E1,-4.690746963E-1,-3.664842248E-1,-3.334800601E-1
3.585884944E1,-6.154379845E-1,-9.558470249E-1,-6.537829041E-1
3.588084944E1,2.512226999E-1,-3.337244093E-1,-3.112096488E-1
3.590085100E1,5.595002174E-1,1.723687202E-1,-8.089601249E-2
3.592284944E1,-2.237861156E-1,-2.604554892E-1,-3.665365875E-1
3.594284944E1,-6.391046643E-1,-3.292389214E-1,-4.545011818E-1
3.596284944E1,-2.792526782E-1,-2.864085324E-2,-3.946538568E-1
3.598284944E1,-3.928736225E-2,8.944812417E-2,-4.048989415E-1
3.600484944E1,-1.792976707E-1,-7.993607782E-3,-3.389080465E-1
3.602684944E1,-1.257858723E-1,-1.008102149E-1,-3.037396371E-1
3.604884788E1,3.101450019E-2,5.389576778E-2,-1.319468915E-1
3.606884944E1,4.670501128E-2,2.410299629E-1,-7.504915819E-3
3.609084944E1,4.157374427E-2,2.187246680E-1,-1.150172018E-2
3.611284944E1,1.558404416E-1,5.647885427E-2,-9.035569429E-2
3.613484788E1,2.509259880E-1,5.419247225E-2,-1.670803726E-1
3.615484788E1,2.668259442E-1,1.138827354E-1,-1.522974372E-1
3.617484788E1,2.742086649E-1,8.269369602E-2,-1.079311594E-1
3.619484788E1,2.333156168E-1,4.412192479E-2,-5.590289459E-2
3.621484944E1,1.547234356E-1,5.482079089E-2,1.916371472E-2
3.623685100E1,1.832595766E-1,1.193281636E-1,7.623597980E-2
3.625686975E1,1.454208344E-1,5.354670063E-2,1.151742786E-1
3.627884944E1,1.729795784E-1,-2.876302600E-2,1.233947799E-1
3.629885256E1,2.283588797E-1,2.098409384E-1,1.951278150E-1
3.632084788E1,4.361577705E-2,4.960923791E-1,1.615651250E-1
3.634084788E1,-2.073451132E-1,2.373647690E-2,-6.126105785E-3
3.636084788E1,4.548327997E-2,3.960151970E-2,3.802025318E-1
3.638084944E1,3.704461455E-1,1.694889218E-1,6.370800734E-1
3.640284944E1,2.777516842E-1,2.552369535E-1,5.309291482E-1
3.642484788E1,-3.875852525E-1,-1.029744223E-1,8.862782270E-2
3.644484788E1,-5.137900114E-1,-2.240653634E-1,-1.159596741E-1
3.646484944E1,-2.373124212E-1,-1.408480667E-2,1.584758982E-2
3.648485256E1,-1.905201375E-1,4.789183289E-2,1.474803239E-1
3.650684944E1,-5.724505186E-1,-6.436774135E-2,1.781806648E-1
3.652684944E1,-7.337538600E-1,-5.256931856E-2,2.637366951E-1
3.654684944E1,-5.656437278E-1,-6.078981608E-2,3.834313750E-1
3.656885100E1,-1.380729973E-1,-1.966986060E-2,4.512199759E-1
3.659084944E1,3.811275363E-1,1.133067757E-1,3.900636435E-1
3.661085100E1,5.585053563E-1,6.913249195E-2,1.740442365E-1
3.663284788E1,4.161912203E-1,1.015781611E-2,1.438151300E-2
3.665284788E1,3.385764062E-1,1.096066758E-1,4.368559271E-2
3.667284788E1,4.249702096E-1,1.872912794E-1,4.345869645E-2
3.669285100E1,5.452408791E-1,2.025629133E-1,5.037020147E-2
3.671484944E1,4.650604427E-1,2.609267272E-2,3.806563094E-2
3.673485100E1,3.670776486E-1,-3.247883320E-1,-1.420872509E-1
3.675684944E1,3.694862127E-1,-4.889365435E-1,-2.989574373E-1
3.677686506E1,3.413514793E-1,-2.179567218E-1,-2.103296220E-1
3.679884944E1,3.102846444E-1,3.722263575E-1,1.334478706E-1
3.682092131E1,1.222603172E-1,4.246211648E-1,2.114291787E-1
3.684285725E1,-3.923674822E-1,-6.272364259E-1,-4.696680903E-1
3.686485100E1,-4.001865387E-1,-1.105753303E0,-9.156869650E-1
3.688684944E1,5.302309990E-1,-2.451838553E-1,-5.177868009E-1
3.690684944E1,9.270141721E-1,5.145754218E-1,-1.684068143E-1
3.692684944E1,2.339613885E-1,1.043532342E-1,-1.389631182E-1
3.694685412E1,-5.631479621E-1,-1.828930527E-1,-2.814692557E-1
3.696685569E1,-5.814564228E-1,-5.031784251E-2,-3.880914152E-1
3.698884944E1,-2.324604094E-1,1.414414793E-1,-4.088782966E-1
3.700885569E1,-1.289798319E-1,-6.981316837E-4,-3.028495312E-1
3.703084944E1,4.722860828E-2,-5.626941472E-2,-2.480112948E-2
3.705084944E1,1.625250578E-1,1.319992542E-1,1.836609989E-1
3.707084944E1,3.253293782E-2,3.228859007E-1,1.580221057E-1
3.709084944E1,-2.049365640E-1,3.513871431E-1,2.185152285E-2
3.711084944E1,-2.749940753E-1,7.566002011E-2,5.881759338E-3
3.713084944E1,-3.626793995E-2,-1.616524011E-1,1.665044017E-2
3.715084944E1,8.977973461E-2,-1.084198505E-1,-7.108726352E-2
3.717084944E1,-2.757620299E-3,1.306727976E-1,-7.539822254E-3
3.719084944E1,-7.321656495E-2,1.107236892E-1,1.486845911E-1
3.721084944E1,-1.189441904E-1,-5.880014226E-2,2.941054404E-1
3.723084944E1,-8.377580345E-2,-1.196423173E-1,3.779859543E-1
3.725085100E1,8.429940045E-2,-1.860520989E-2,2.719746530E-1
3.727085100E1,2.819230258E-1,-2.101376466E-2,9.412560612E-2
3.729284944E1,3.683168292E-1,1.592089385E-1,1.698030829E-1
3.731284944E1,2.238210291E-1,4.189837277E-1,2.652725875E-1
3.733284944E1,-8.464846760E-2,2.411696017E-1,2.455852777E-1
3.735284944E1,-1.384744197E-1,1.740267724E-1,2.524444163E-1
3.737284944E1,1.421047002E-1,2.212902904E-1,1.615127623E-1
3.739284944E1,2.231054306E-1,1.445481628E-1,-1.216494478E-2
3.741284944E1,-7.738789916E-2,-7.456046343E-2,-2.020044029E-1
3.743284944E1,-4.187568426E-1,-2.107834071E-1,-2.923077345E-1
3.745284944E1,-4.883954823E-1,-1.690525860E-1,-2.868274152E-1
3.747284944E1,-3.602883220E-1,-1.858426630E-1,-2.916968763E-1
3.749284944E1,-2.447998822E-1,-2.787814438E-1,-2.311339527E-1
3.751284944E1,-1.350361258E-1,-2.569473684E-1,-3.352777660E-2
3.753284944E1,9.861109778E-3,-9.967575222E-2,1.961051971E-1
3.755284944E1,3.614576906E-2,9.890780598E-2,2.960602045E-1
3.757284944E1,6.038838997E-3,2.539105117E-1,2.553416789E-1
3.759284944E1,7.138396800E-2,3.003537059E-1,1.563465893E-1
3.761284944E1,2.457249016E-1,4.002039880E-2,8.098327368E-2
3.763284944E1,4.421442449E-1,-1.766273230E-1,1.713913307E-2
3.765284944E1,5.376661420E-1,1.542871073E-2,5.225515738E-2
3.767284944E1,4.814316332E-1,4.028045237E-1,3.508111835E-2
3.769284944E1,3.238283992E-1,5.746147633E-1,-3.832742944E-2
3.771284944E1,1.479341090E-1,2.838254273E-1,-1.832421124E-1
3.773284944E1,1.449496001E-1,-2.162637413E-1,-3.054849803E-1
3.775284944E1,3.393967152E-1,-3.820874691E-1,-2.819230258E-1
3.777284944E1,4.634896219E-1,-9.854128957E-2,-6.688101590E-2
3.779284944E1,4.707502127E-1,4.598244429E-1,2.402445674E-1
3.781284944E1,2.462136000E-1,9.302430153E-1,4.398927689E-1
3.783284944E1,-2.202605456E-1,6.175323725E-1,2.007128671E-2
3.785284944E1,-6.760532856E-1,-5.135805607E-1,-6.330658197E-1
3.787284944E1,-4.058763087E-1,-8.655436635E-1,-3.333055377E-1
3.789284944E1,3.025877178E-1,-5.710717291E-2,3.869394958E-1
3.791284944E1,2.562143207E-1,3.962246478E-1,5.282238722E-1
3.793284944E1,-3.999072909E-1,1.759815514E-1,4.092797264E-2
3.795284944E1,-7.383964658E-1,4.874704406E-2,-3.791727722E-1
3.797284944E1,-4.679402113E-1,2.359161526E-1,-3.788935244E-1
3.799284944E1,-1.844638437E-1,3.782477677E-1,-1.596976221E-1
3.801484944E1,-1.914800704E-1,3.943920434E-1,-1.167625282E-2
3.803484944E1,-1.979377866E-1,4.970348477E-1,4.206243437E-3
3.805484944E1,-1.091528907E-1,5.647361875E-1,-7.895869762E-2
3.807484944E1,4.049163684E-2,5.664815307E-1,-2.408554405E-2
3.809484944E1,1.357167959E-1,3.833615780E-1,6.190682948E-2
3.811484944E1,1.600466967E-1,2.975437343E-1,9.058258682E-2
3.813484944E1,1.839576960E-1,5.566378832E-1,9.807004780E-2
3.815484944E1,1.408306211E-1,6.361376047E-1,-7.801621687E-3
3.817484944E1,1.307949722E-1,3.796440065E-1,-1.835737228E-1
3.819484944E1,2.890265286E-1,2.182185203E-1,-1.393121779E-1
3.821485100E1,1.258905977E-1,-1.577428579E-1,6.665412337E-2
3.823684788E1,-5.684537441E-2,-1.547932476E-1,1.497143358E-1
3.825685256E1,1.036725566E-2,2.705260366E-2,3.167772666E-2
3.827884944E1,3.735004691E-3,-1.041437984E-1,-1.325577497E-1
3.829885256E1,-2.538930476E-1,-3.471285403E-1,-2.544690110E-2
3.832084944E1,-5.345594287E-1,-2.765823305E-1,2.874906361E-1
3.834085412E1,-7.438418865E-1,-6.423859000E-1,4.365243018E-1
3.836284944E1,-4.989547133E-1,-7.973362207E-1,4.936140180E-1
3.838284944E1,4.078834504E-2,-3.814591467E-1,4.619188309E-1
3.840284944E1,2.533694506E-1,-5.759586394E-2,2.736152709E-1
3.842285412E1,2.202605456E-2,-1.293463558E-1,5.735151842E-2
3.844484944E1,-2.823069990E-1,-7.207860947E-1,-1.133591309E-1
3.846485725E1,-3.931877613E-1,-9.792169929E-1,-1.672548950E-1
3.848685569E1,-2.372251451E-1,-8.602902293E-1,-2.807536721E-1
3.850685569E1,6.188937649E-2,-1.361007690E-1,-2.409427017E-1
3.852884944E1,2.214822769E-1,5.141739845E-1,-1.292939931E-1
3.854884944E1,1.508313566E-1,4.402593076E-1,-6.288421154E-2
3.856884944E1,9.845402092E-2,4.668755829E-2,1.455604564E-2
3.858884944E1,2.025629133E-1,-3.142639697E-1,6.243042648E-2
3.860884944E1,4.023507535E-1,-2.724284530E-1,9.775589406E-2
3.862884944E1,5.397430658E-1,-2.480112948E-2,1.019272283E-1
3.865084788E1,5.139122009E-1,1.256113499E-1,-9.892526269E-2
3.867085413E1,3.745301962E-1,1.111425683E-1,-2.419026345E-1
3.869284944E1,2.556383610E-1,4.520402849E-2,-2.541024983E-1
3.871285256E1,3.300592005E-1,8.379326016E-2,-1.447227001E-1
3.873484788E1,4.719195664E-1,-2.005383372E-2,-9.018116444E-2
3.875485100E1,4.466646612E-1,-1.535715163E-1,-1.330289990E-1
3.877684788E1,2.878571451E-1,-3.182956874E-1,-3.242123723E-1
3.879686194E1,1.865931451E-1,-9.878563881E-2,-3.108082414E-1
3.881884788E1,-1.379682720E-1,3.038618155E-2,-2.286206782E-1
3.883885256E1,-6.744999290E-1,-6.358932853E-1,-5.059360266E-1
3.886084944E1,-6.387730241E-1,-1.041891694E0,-5.060407519E-1
3.888084944E1,1.964717060E-1,-2.774899006E-1,-4.209734127E-2
3.890084944E1,6.862809062E-1,6.815685034E-1,2.642428577E-1
3.892284944E1,1.673945338E-1,3.709697425E-1,-7.190756500E-3
3.894284944E1,-5.205968022E-1,-1.419476271E-1,-3.605675697E-1
3.896284944E1,-5.100375414E-1,-2.328792810E-1,-4.267853498E-1
3.898284944E1,-6.713758111E-1,-2.359859645E-1,-3.880914152E-1
3.900284944E1,-1.180750132E0,-1.045679092E0,-2.243969738E-1
3.902285412E1,-8.193971515E-1,-3.897320330E-1,3.728023171E-2
3.904484944E1,-1.214225590E-1,3.042283356E-1,7.611380517E-2
3.906485569E1,1.654921174E-1,3.662748039E-1,8.257152885E-2
3.908684944E1,-6.911503617E-3,-3.164282069E-2,2.270673364E-1
3.910687288E1,8.220500499E-2,-8.569566533E-3,3.194999695E-1
3.912884944E1,3.698701859E-1,1.195550524E-2,2.980498672E-1
3.914884944E1,4.920432270E-1,1.268854365E-2,1.810604632E-1
3.916884944E1,6.000267267E-1,-1.089434549E-1,5.647885427E-2
3.918885413E1,6.050183773E-1,-8.562584966E-2,5.188863724E-2
3.921084944E1,3.294483423E-1,8.100073040E-2,9.779080003E-2
3.923085725E1,2.520255372E-2,2.064549923E-1,1.969953179E-1
3.925284944E1,1.727875904E-3,3.783873916E-1,2.593210340E-1
3.927284944E1,1.511106044E-1,4.419697225E-1,2.625673413E-1
3.929284944E1,2.466150224E-1,7.360402346E-1,3.539353311E-1
3.931285725E1,1.692445725E-1,7.341378331E-1,3.416656554E-1
3.933484944E1,-6.881833076E-2,-1.177573651E-1,2.272942215E-1
3.935485412E1,-6.140068173E-2,1.089085452E-2,4.134859443E-1
3.937685412E1,2.174156606E-1,9.471552968E-1,5.841966271E-1
3.939685413E1,2.389181256E-1,1.234698296E0,4.490208626E-1
3.941885100E1,-1.027649865E-1,4.063999057E-1,1.499761492E-1
3.944085100E1,-2.731614709E-1,-4.636990726E-1,-8.468337357E-2
3.946285412E1,-6.592108309E-2,-4.344299138E-1,-1.485798806E-1
3.948484944E1,2.223898470E-1,2.601762414E-1,-1.609717160E-1
3.950485569E1,2.121447772E-1,8.669748306E-1,3.333579004E-2
3.952684944E1,-5.558175445E-1,4.287575781E-1,2.766346931E-1
3.954684944E1,-3.965213597E-1,9.512044489E-2,3.971496820E-1
3.956684944E1,1.892809570E-1,1.252971888E-1,5.514018536E-1
3.958684944E1,4.429121912E-1,1.827010661E-1,4.192455411E-1
3.960684944E1,1.610415280E-1,-2.827433404E-3,1.699601561E-1
3.962684944E1,-1.375144869E-1,-3.179640770E-1,6.735225767E-2
3.964684944E1,-1.410400569E-1,-4.019493163E-1,1.028522551E-1
3.966684944E1,1.100953668E-1,-1.801354289E-1,1.880243123E-1
3.968687756E1,4.734205604E-1,1.187696531E-1,2.117782533E-1
3.970884944E1,5.202652216E-1,-2.270673402E-2,2.343977243E-2
3.972884944E1,1.901710778E-1,-4.435579777E-1,-1.368338168E-1
3.974884944E1,-2.741912194E-2,-5.364444256E-1,-1.767320335E-1
3.976885725E1,-2.256710641E-2,-1.086292937E-1,-1.618443877E-1
3.979084944E1,-6.344795227E-1,-3.886499107E-1,-4.857774973E-1
3.981084944E1,-9.514138699E-1,-1.190873027E0,-9.018639922E-1
3.983084944E1,-3.328692019E-1,-4.934743941E-1,-4.405909181E-1
3.985089788E1,9.063494951E-2,5.939006209E-1,8.628907800E-2
3.987284944E1,-8.400269598E-2,6.828600764E-1,2.118480653E-1
3.989284944E1,-6.782698631E-1,-5.818927661E-2,2.025629133E-1
3.991284944E1,-8.046840429E-1,-6.540272236E-1,2.583611012E-1
3.993284944E1,-3.546159863E-1,-7.193025351E-1,1.420174390E-1
3.995284944E1,1.453684717E-1,-3.271794319E-1,-1.862615347E-1
3.997284944E1,2.350434959E-1,1.536936909E-1,-4.160341322E-1
3.999285256E1,1.373748630E-1,4.094716907E-1,-4.456523657E-1
4.001484944E1,1.474105120E-1,4.852887988E-1,-2.743657529E-1
4.003484944E1,2.408903390E-1,3.960501254E-1,-8.290313929E-2
4.005484944E1,2.838952541E-1,2.443984598E-1,-3.865904361E-2
4.007484944E1,2.836858034E-1,1.439198554E-1,-9.442231618E-3
4.009484944E1,3.442312777E-1,2.046049535E-1,1.022064835E-1
4.011484944E1,4.084593952E-1,2.584657967E-1,1.654223055E-1
4.013485413E1,3.187145591E-1,1.584235430E-1,1.308298856E-1
4.015684944E1,2.271720618E-1,-1.186300293E-1,3.258529678E-2
4.017687288E1,2.156528831E-1,-1.501332223E-1,5.614724010E-2
4.019884944E1,1.950580031E-1,2.996730246E-2,1.916720569E-1
4.021884944E1,1.596452594E-1,2.269451618E-1,2.798286378E-1
4.023884944E1,4.482005537E-2,3.000046313E-1,3.344574571E-1
4.025885725E1,-3.303908184E-2,3.219608963E-1,2.845410407E-1
4.028084944E1,-6.684611086E-3,2.880316973E-1,1.700997949E-1
4.030085569E1,-1.052433550E-1,-4.244815111E-1,3.687880561E-2
4.032284944E1,-6.405358016E-2,-5.669003725E-1,9.812241048E-2
4.034284944E1,1.065523475E-1,1.881814003E-1,1.666789502E-1
4.036484944E1,-1.224522963E-1,6.836454868E-1,-9.220574051E-2
4.038484944E1,-6.352300048E-1,3.806388676E-1,-3.085741997E-1
4.040484944E1,-8.697499037E-1,-5.097059608E-1,-4.041135311E-1
4.042684944E1,-5.051680803E-1,-1.087060809E0,-3.096912205E-1
4.044885100E1,-2.844886621E-3,-7.259696722E-1,-2.067866027E-1
4.047084944E1,3.171263263E-2,1.433089823E-1,-1.016479731E-1
4.049084944E1,-3.205995262E-1,5.847725868E-1,-6.562437862E-2
4.051084944E1,-5.261644125E-1,5.762727857E-1,-3.448770568E-2
4.053084944E1,-2.768441141E-1,1.499412358E-1,-3.984586522E-2
4.055084944E1,2.479414791E-1,-3.153809905E-1,-9.616764262E-3
4.057084944E1,5.717872977E-1,-3.337767720E-1,1.228711754E-2
4.059085100E1,4.391597509E-1,-2.080956101E-1,-6.901031733E-2
4.061285100E1,1.269377917E-1,3.467969224E-2,-1.075297371E-1
4.063484788E1,6.499606371E-2,1.147204936E-1,-1.228886321E-1
4.065484944E1,3.936066628E-1,1.403768361E-1,-7.014477998E-2
4.067484944E1,7.002435327E-1,1.325752139E-1,-6.569419056E-2
4.069485100E1,5.308418870E-1,-2.223025858E-1,-1.599245220E-1
4.071685256E1,2.027548999E-1,-4.083023369E-1,-1.281246245E-1
4.073884944E1,1.864709705E-1,-1.090132669E-1,-7.494443655E-2
4.075884944E1,3.091676235E-1,3.788237274E-1,4.571017250E-2
4.077884944E1,1.126784533E-1,4.902280867E-1,6.178465672E-3
4.079884944E1,-3.261845708E-1,-5.349783301E-1,-3.808482885E-1
4.081884944E1,-2.370680720E-1,-8.256803751E-1,-3.386462331E-1
4.083884944E1,3.543367386E-1,-1.279850006E-1,-1.214749143E-1
4.085884944E1,4.200832844E-1,4.823217392E-1,-1.054353416E-1
4.087884944E1,-1.190314535E-2,1.860346496E-1,-3.249453902E-1
4.089884944E1,-2.293013632E-1,-1.501681209E-1,-5.387308002E-1
4.091884944E1,-1.639038622E-1,-7.007496804E-2,-6.628586054E-1
4.094084788E1,-1.127744436E0,-2.290046513E-1,-7.648381591E-1
4.096084944E1,-1.349436164E0,-3.713711500E-1,-5.595350862E-1
4.098285725E1,-3.956137896E-1,-1.715309620E-1,-1.818807572E-1
4.100484944E1,2.646966279E-1,-4.464552179E-2,6.682865322E-2
