"Time (s)","Linear Acceleration x (m/s^2)","Linear Acceleration y (m/s^2)","Linear Acceleration z (m/s^2)"
1.399843700E-2,9.829999506E-2,-1.030000001E-1,1.596999913E-1
3.400156200E-2,-2.028999925E-1,5.240000039E-2,2.606999874E-1
6.399843700E-2,1.360999942E-1,4.569999874E-2,8.819999546E-2
8.400000000E-2,1.894999892E-1,1.249999925E-2,1.440999955E-1
1.139968750E-1,-1.648000032E-1,-8.590000123E-2,3.197000027E-1
1.340062500E-1,-3.964999914E-1,-8.219999820E-2,1.314999908E-1
1.639984370E-1,-9.099999815E-2,1.074000001E-1,-1.524000019E-1
1.839984370E-1,2.525999844E-1,-3.309999779E-2,2.329999954E-2
2.040000000E-1,-1.300000004E-3,-1.324999928E-1,5.156999826E-1
2.340015620E-1,-2.109999955E-1,-8.150000125E-2,1.425999999E-1
2.639984370E-1,-3.099999856E-3,1.620000005E-1,-5.079999939E-2
2.840015620E-1,2.960000001E-2,2.113999873E-1,6.430000067E-2
3.139984370E-1,-9.899999946E-3,2.559999935E-2,5.388000011E-1
3.339984370E-1,-6.289999932E-2,1.127000004E-1,1.489999890E-1
3.639984370E-1,-2.599999867E-2,6.359999627E-2,-3.819999844E-2
3.839984370E-1,-3.209999800E-1,3.231999874E-1,-3.770000041E-1
4.139984370E-1,2.636999786E-1,-4.088999927E-1,4.443999827E-1
4.439968750E-1,-2.615000010E-1,1.321000010E-1,7.328999639E-1
4.639968750E-1,1.467999965E-1,5.399999674E-3,-1.929999888E-2
4.839984370E-1,-6.619999558E-2,2.654999793E-1,-5.077999830E-1
5.139968750E-1,1.165999994E-1,1.869999990E-2,-6.814000010E-1
5.339968750E-1,-6.669999659E-2,-3.279999793E-1,3.692999780E-1
5.539984370E-1,1.856999993E-1,-2.888999879E-1,6.092999578E-1
5.839968750E-1,1.774999946E-1,-1.863999963E-1,2.933999896E-1
6.039968750E-1,-2.667999864E-1,6.340000033E-2,-5.139999837E-2
6.239968750E-1,-3.793999851E-1,8.590000123E-2,-7.339999825E-2
6.439968750E-1,-2.039999887E-2,-4.108999968E-1,3.932999969E-1
6.639968750E-1,4.329999909E-2,-1.125999987E-1,3.427999914E-1
6.839968750E-1,1.688999981E-1,-1.200000010E-2,5.969999731E-2
7.039984370E-1,-7.299999706E-3,1.087999940E-1,-1.159999967E-1
7.339968750E-1,-7.759999484E-2,-4.380000010E-2,5.999999703E-4
7.539968750E-1,1.163999960E-1,2.649999969E-2,-2.822999954E-1
7.739968750E-1,1.498000026E-1,3.350000083E-2,7.159999758E-2
7.939968750E-1,5.029999837E-2,-7.699999958E-2,3.452000022E-1
8.139968750E-1,-2.265999913E-1,-8.859999478E-2,2.859999835E-1
8.339968750E-1,-8.229999989E-2,-9.950000048E-2,1.497000009E-1
8.539984370E-1,1.779999956E-2,1.385999918E-1,4.439999908E-2
8.839984370E-1,2.404999882E-1,-1.957999915E-1,4.310999811E-1
9.139984370E-1,-3.421999812E-1,2.622999847E-1,2.529999912E-1
9.439968750E-1,-2.358999997E-1,-2.833999991E-1,-1.010999978E-1
9.639968750E-1,-5.138999820E-1,1.194999963E-1,6.889999658E-2
9.839984370E-1,-3.902999759E-1,4.999999888E-3,-1.115100026E0
1.013998437E0,1.482999921E-1,1.132999957E-1,6.428999901E-1
1.043996875E0,-6.556000113E-1,-2.005999982E-1,9.339999408E-2
1.064003125E0,-2.052999884E-1,-1.805000007E-1,-4.149999917E-1
1.093998437E0,2.405999899E-1,2.678999901E-1,2.231999934E-1
1.113998437E0,2.122999877E-1,3.073999882E-1,6.371999979E-1
1.133998437E0,3.712999821E-1,-2.326999903E-1,8.960999846E-1
1.154006250E0,-3.269999847E-2,2.879999951E-2,4.339999855E-1
1.183998437E0,2.536000013E-1,-9.709999710E-2,1.224999949E-1
1.204003125E0,3.493999839E-1,-8.899999782E-3,-9.489999712E-2
1.233998437E0,-1.617999971E-1,-1.884000003E-1,5.379999876E-1
1.253998437E0,-1.733999997E-1,1.159999985E-2,-3.999999899E-4
1.273998437E0,1.631999910E-1,-1.459999941E-2,-2.834999859E-1
1.293998437E0,8.529999852E-2,6.859999895E-2,-1.764999926E-1
1.323996875E0,2.679999918E-2,-2.167999893E-1,2.129999995E-1
1.343998437E0,-1.953999996E-1,-1.263999939E-1,3.003999889E-1
1.373996875E0,-1.730000041E-2,3.419999778E-2,7.599999756E-2
1.393998437E0,2.716000080E-1,-1.260000002E-2,1.151999980E-1
1.423996875E0,-1.190999970E-1,1.179999951E-2,2.620999813E-1
1.444004687E0,-9.709999710E-2,4.299999680E-3,2.445999980E-1
1.473998437E0,-1.201999933E-1,3.519999981E-2,3.752999902E-1
1.503996875E0,-2.224999964E-1,1.296999902E-1,-1.453400016E0
1.523996875E0,3.999999899E-4,1.437000036E-1,-6.880999804E-1
1.544001562E0,3.769999743E-2,2.009999901E-1,7.480999827E-1
1.573996875E0,-2.529999986E-2,6.279999763E-2,5.697000027E-1
1.594001562E0,-1.351999938E-1,-6.239999831E-2,-2.419999987E-1
1.623998437E0,-6.300000008E-3,-1.049999986E-2,-1.430999935E-1
1.644004687E0,-2.199999988E-2,1.977999955E-1,6.777999997E-1
1.673998437E0,9.820000082E-2,-1.009999961E-2,4.020999968E-1
1.693998437E0,-1.357000023E-1,-2.689999901E-2,-2.536000013E-1
1.713998437E0,-3.332999945E-1,-4.230000079E-2,-7.660000026E-2
1.743996875E0,1.314000040E-1,1.353999972E-1,1.190999970E-1
1.763996875E0,1.198999956E-1,1.074999943E-1,-4.809999838E-2
1.783996875E0,-2.662999928E-1,1.071999967E-1,-2.161999941E-1
1.803996875E0,-2.451999933E-1,-4.939999804E-2,-3.655999899E-1
1.823998437E0,-1.886999905E-1,-1.074000001E-1,4.060999751E-1
1.843998437E0,1.009999961E-1,-6.019999832E-2,6.973999739E-1
1.873996875E0,1.158999950E-1,-4.230000079E-2,-1.851999909E-1
1.893996875E0,-2.474999875E-1,1.256999969E-1,-3.030000031E-1
1.913998437E0,-2.321999967E-1,0.000000000E0,4.839999974E-2
1.934003125E0,5.659999698E-2,-1.291999966E-1,6.352999806E-1
1.963996875E0,1.030000020E-2,1.343999952E-1,2.823999822E-1
1.983998437E0,1.048999950E-1,-8.599999361E-3,-1.479000002E-1
2.013996875E0,6.480000168E-2,-5.309999734E-2,2.833999991E-1
2.033998437E0,9.719999880E-2,-2.469999902E-2,4.599999785E-1
2.053998437E0,2.799999900E-3,1.543999910E-1,8.819999546E-2
2.074001562E0,6.679999828E-2,5.969999731E-2,3.224000037E-1
2.103996875E0,0.000000000E0,1.621000022E-1,6.258000135E-1
2.123998437E0,1.562999934E-1,-2.038999945E-1,-4.309999943E-1
2.153996875E0,5.799999833E-2,1.366000026E-1,-2.041999996E-1
2.173996875E0,2.034000009E-1,-2.699999884E-2,6.958000064E-1
2.193998437E0,1.599999960E-3,-2.589999884E-2,5.673999786E-1
2.224006250E0,-1.990999877E-1,1.278000027E-1,-6.799999624E-2
2.253996875E0,1.548999995E-1,9.499999695E-3,-5.729999766E-2
2.274006250E0,2.026999891E-1,-7.400000002E-3,2.656999826E-1
2.303996875E0,-2.280999869E-1,5.949999765E-2,1.190999970E-1
2.324001562E0,-8.839999884E-2,3.519999981E-2,-8.599999547E-2
2.353998437E0,4.239999875E-2,1.420000009E-2,2.468999922E-1
2.374001562E0,-1.599999890E-2,1.370000001E-2,2.664999962E-1
2.403998437E0,-1.630000025E-2,4.549999908E-2,1.687999964E-1
2.424006250E0,9.759999812E-2,9.089999646E-2,2.190000005E-2
2.453998437E0,4.079999775E-2,8.049999923E-2,1.101999953E-1
2.473998437E0,-7.490000129E-2,3.999999899E-4,1.886999905E-1
2.493998437E0,-2.277999967E-1,7.699999958E-3,-8.509999514E-2
2.513998437E0,-8.240000159E-2,-9.329999983E-2,-5.499999970E-2
2.533998437E0,1.609999873E-2,1.071999967E-1,2.359999903E-2
2.553998437E0,2.120999992E-1,-2.459999919E-2,5.269999802E-2
2.574000000E0,-1.695999950E-1,-9.399999864E-3,3.466999829E-1
2.603996875E0,-2.061999887E-1,1.727999896E-1,4.199999850E-3
2.623998437E0,1.331999898E-1,3.899999894E-3,-7.409999520E-2
2.653998437E0,-4.189999774E-2,7.800000161E-2,2.678000033E-1
2.673998437E0,4.030000046E-2,-3.969999775E-2,3.555999994E-1
2.693998437E0,-6.949999928E-2,-4.219999909E-2,2.483000010E-1
2.714004687E0,5.549999699E-2,-1.114000008E-1,9.250000119E-2
2.743998437E0,-1.860000007E-2,1.480000000E-2,6.430000067E-2
2.773996875E0,4.769999906E-2,-4.299999774E-2,2.217999995E-1
2.793996875E0,1.480000000E-2,-1.620000005E-1,2.034000009E-1
2.813996875E0,-6.899999827E-2,6.140000001E-2,-1.081999987E-1
2.833996875E0,-4.989999905E-2,1.729999930E-1,-1.071999967E-1
2.853996875E0,8.399999700E-3,8.469999582E-2,6.920000166E-2
2.874003125E0,-7.050000131E-2,3.339999914E-2,7.829999924E-2
2.903998437E0,7.059999555E-2,3.089999966E-2,2.831999958E-1
2.923998437E0,7.609999925E-2,-5.370000005E-2,5.177000165E-1
2.943998437E0,9.049999714E-2,4.930000007E-2,3.315999806E-1
2.973996875E0,2.199999988E-3,-6.489999592E-2,-7.859999686E-2
2.993998437E0,-1.999999862E-3,-2.060000040E-2,1.368999928E-1
3.023996875E0,-4.149999842E-2,-2.630000003E-2,2.340999991E-1
3.043996875E0,-5.680000037E-2,-9.769999981E-2,-1.999999955E-2
3.063996875E0,9.999999404E-2,5.619999766E-2,-3.034999967E-1
3.083996875E0,2.556000054E-1,6.740000099E-2,-2.889999934E-2
3.103998437E0,9.709999710E-2,1.251000017E-1,2.547999918E-1
3.123998437E0,6.009999663E-2,-1.538999975E-1,6.766999960E-1
3.153998437E0,6.430000067E-2,-1.159999985E-2,1.211999953E-1
3.183998437E0,-4.339999855E-1,1.176999956E-1,-6.769999862E-1
3.204001562E0,1.234999970E-1,7.189999521E-2,-2.653000057E-1
3.233998437E0,6.529999524E-2,8.919999748E-2,3.585999906E-1
3.254004687E0,-1.235999987E-1,7.109999657E-2,2.316999882E-1
3.283998437E0,1.699999906E-3,-3.130999804E-1,-3.348000050E-1
3.303998437E0,-1.445999891E-1,7.499999553E-2,-3.850999773E-1
3.323998437E0,1.948999912E-1,-1.090999991E-1,3.563999832E-1
3.344003125E0,1.964999884E-1,-1.999999955E-2,8.335999846E-1
3.373998437E0,9.259999543E-2,6.619999558E-2,8.959999681E-2
3.394004687E0,7.999999449E-3,4.279999807E-2,-1.638000011E-1
3.423998437E0,1.938000023E-1,-1.559000015E-1,1.488000005E-1
3.443998437E0,-8.320000023E-2,1.048000008E-1,5.105999708E-1
3.463998437E0,-5.839999765E-2,-1.270999908E-1,3.050999939E-1
3.484004687E0,-1.723999977E-1,-3.329999745E-2,2.600000007E-3
3.513996875E0,-1.366999894E-1,4.490000010E-2,9.160000086E-2
3.533998437E0,-5.350000039E-2,8.079999685E-2,2.578999996E-1
3.553998437E0,7.249999791E-2,2.759999968E-2,2.090999931E-1
3.573998437E0,7.649999857E-2,-8.299999870E-3,1.212999970E-1
3.594001562E0,-8.779999614E-2,-4.979999736E-2,1.410999894E-1
3.623998437E0,7.059999555E-2,2.439999953E-2,6.229999661E-2
3.644003125E0,6.749999523E-2,1.693999916E-1,1.891999990E-1
3.674021875E0,1.296000034E-1,-1.079999954E-1,1.403999925E-1
3.703998437E0,1.999999955E-2,-1.769999973E-2,2.319999970E-2
3.734006250E0,2.259999886E-2,3.439999744E-2,9.169999510E-2
3.763996875E0,-9.499999695E-3,-4.800000042E-2,2.382999957E-1
3.784004687E0,5.379999802E-2,4.219999909E-2,2.193000019E-1
3.813996875E0,6.379999965E-2,-3.999999899E-4,9.339999408E-2
3.834004687E0,-1.591999978E-1,9.599999525E-3,-7.249999791E-2
3.863996875E0,3.590000048E-2,6.589999795E-2,3.962000012E-1
3.884001562E0,9.200000204E-3,1.659999937E-1,5.333999991E-1
3.913998437E0,1.590999961E-1,-1.549999975E-2,-1.506000012E-1
3.934001562E0,1.075999960E-1,-7.779999822E-2,-6.209999695E-2
3.963998437E0,-4.859999940E-2,-1.719999872E-2,9.161999822E-1
3.984001562E0,1.735999882E-1,-1.206000000E-1,1.229999959E-1
4.013996875E0,4.519999772E-2,3.700000048E-2,-1.683000028E-1
4.034004687E0,7.490000129E-2,3.729999810E-2,9.559999406E-2
4.063998437E0,-1.189999934E-2,-1.171999946E-1,-3.199999919E-3
4.083998437E0,-1.400000006E-1,3.869999945E-2,-1.219999976E-2
4.103998437E0,1.428999901E-1,-1.015999988E-1,-2.199999988E-3
4.124003125E0,-2.149999887E-2,-5.469999835E-2,2.422999889E-1
4.153996875E0,-1.261999905E-1,1.999999862E-3,1.050999984E-1
4.174006250E0,6.300000008E-3,1.218999997E-1,2.649999969E-2
4.203998437E0,-2.026999891E-1,1.099999994E-1,2.213999927E-1
4.224004687E0,-2.466999888E-1,1.028999984E-1,1.230999976E-1
4.253998437E0,1.079999954E-1,-4.219999909E-2,2.419999987E-2
4.274000000E0,1.498000026E-1,-7.400000002E-3,3.565999866E-1
4.303998437E0,9.899999946E-2,-1.169999968E-2,3.170000017E-1
4.323998437E0,4.710000008E-2,1.399999950E-2,5.309999734E-2
4.343998437E0,-1.339999959E-2,6.459999830E-2,-1.128999963E-1
4.374001562E0,9.579999745E-2,1.560999900E-1,9.209999442E-2
4.403996875E0,1.174999997E-1,1.299999952E-1,8.139999956E-2
4.423998437E0,2.128999978E-1,5.419999734E-2,2.087999880E-1
4.453996875E0,6.424999833E-1,1.695999950E-1,-1.569999941E-2
4.474001562E0,3.264999986E-1,6.469999552E-1,-5.399999674E-3
4.503996875E0,6.218000054E-1,5.694000125E-1,-9.479999542E-2
4.523996875E0,5.881999731E-1,5.329999924E-1,1.150000002E-2
4.543996875E0,8.522999883E-1,5.299999844E-3,2.644999921E-1
4.563996875E0,5.060999990E-1,1.286000013E-1,4.002999961E-1
4.583998437E0,1.439999938E-1,3.328999877E-1,3.017999828E-1
4.613998437E0,1.269999985E-2,6.822999716E-1,-7.069999725E-2
4.643998437E0,-1.191999987E-1,6.448999643E-1,7.490000129E-2
4.674009375E0,-2.606999874E-1,5.774999857E-1,5.816000104E-1
4.703998437E0,3.099999949E-2,5.625000000E-1,1.307999939E-1
4.733996875E0,-2.224999964E-1,8.684999943E-1,-1.244999990E-1
4.753996875E0,-7.166000009E-1,9.655999541E-1,2.942999899E-1
4.773998437E0,-6.757000089E-1,1.013399959E0,1.245999932E-1
4.803996875E0,1.317999959E-1,4.194999933E-1,4.151999950E-1
4.823996875E0,1.013000011E-1,8.193999529E-1,1.001600027E0
4.843998437E0,-1.301999986E-1,1.299299955E0,1.138000011E0
4.864023437E0,-1.902000010E-1,1.198099971E0,1.069399953E0
4.893996875E0,9.779999405E-2,9.208999872E-1,-9.394999743E-1
4.913998437E0,-5.089999735E-2,8.003999591E-1,-4.113000035E-1
4.943996875E0,-1.585000008E-1,1.677699924E0,-6.848999858E-1
4.963996875E0,-1.574999988E-1,1.792899966E0,-8.382999897E-1
4.983998437E0,-4.073999822E-1,1.750299931E0,-1.385999918E-1
5.013996875E0,-4.292999804E-1,1.608799934E0,-1.712999940E-1
5.033998437E0,-2.940999866E-1,9.936999679E-1,3.099999856E-3
5.053998437E0,-5.429999903E-2,6.789999604E-1,-6.933999658E-1
5.083996875E0,-2.013999969E-1,7.240999937E-1,-4.451999962E-1
5.103998437E0,-4.934999943E-1,1.364499927E0,-5.115000010E-1
5.123998437E0,-2.201999873E-1,1.549399972E0,-7.263000011E-1
5.153996875E0,-2.547999918E-1,1.086599946E0,-1.364300013E0
5.173996875E0,-1.343400002E0,1.880399942E0,-7.457000017E-1
5.193998437E0,-6.983999610E-1,2.005599976E0,-5.974999666E-1
5.213998437E0,-9.499999695E-3,1.961399913E0,-7.337999940E-1
5.233998437E0,-3.626999855E-1,1.169799924E0,3.271999955E-1
5.263996875E0,-1.299600005E0,1.249599934E0,1.014199972E0
5.283998437E0,-5.241999626E-1,9.223999977E-1,6.894999743E-1
5.313996875E0,3.172000051E-1,7.917999625E-1,2.920999825E-1
5.333996875E0,7.339999825E-2,1.111199975E0,1.322999895E-1
5.353998437E0,-3.402999938E-1,9.397999644E-1,2.192000002E-1
5.383996875E0,-1.184999943E-1,7.480999827E-1,1.990000010E-1
5.403996875E0,-1.278999895E-1,6.563000083E-1,6.011999846E-1
5.424000000E0,-5.939999968E-2,9.089999646E-2,1.003299952E0
5.453998437E0,2.637999952E-1,-5.769999623E-1,8.158999681E-1
5.483998437E0,-3.430999815E-1,2.363999933E-1,6.196999550E-1
5.513996875E0,-7.238999605E-1,4.275999963E-1,1.643899918E0
5.533996875E0,-9.419999719E-1,6.940999627E-1,2.524099827E0
5.553996875E0,-5.310999751E-1,8.863999844E-1,2.187700033E0
5.573996875E0,5.309999585E-1,6.936999559E-1,1.269999981E0
5.593996875E0,1.225499988E0,3.389999866E-1,6.020999551E-1
5.613996875E0,1.344599962E0,6.509999931E-2,3.243999779E-1
5.633998437E0,7.005999684E-1,1.465999931E-1,1.961999983E-1
5.663996875E0,-6.748999953E-1,3.513000011E-1,-1.042999998E-1
5.683996875E0,-4.151999950E-1,3.272999823E-1,-2.791000009E-1
5.703998437E0,-1.823999882E-1,6.905999780E-1,-2.784999907E-1
5.733996875E0,1.145999953E-1,9.886999726E-1,-2.319999970E-2
5.753996875E0,-2.955999970E-1,7.092999816E-1,-1.710999906E-1
5.773998437E0,-1.703999937E-1,5.686999559E-1,-2.505999804E-1
5.803996875E0,-2.398999929E-1,7.075999975E-1,-9.479999542E-2
5.823996875E0,-1.069999952E-2,7.768999934E-1,1.198999956E-1
5.843998437E0,4.107999802E-1,9.849999547E-1,7.463999987E-1
5.873998437E0,5.063999891E-1,1.177299976E0,8.639999479E-2
5.893998437E0,-1.184999943E-1,1.098899961E0,2.861000001E-1
5.913998437E0,2.046999931E-1,1.078799963E0,-3.119999915E-2
5.933998437E0,-1.358000040E-1,8.859999776E-1,7.813999653E-1
5.953998437E0,-4.135999978E-1,7.274999619E-1,1.478500009E0
5.983998437E0,-2.178999931E-1,-1.253999919E-1,1.205600023E0
6.003998437E0,-2.087999880E-1,-4.596000016E-1,3.303000033E-1
6.023998437E0,-2.032999992E-1,-1.406999975E-1,5.817999840E-1
6.043998437E0,2.761999965E-1,-3.691999912E-1,6.688999534E-1
6.063998437E0,2.926999927E-1,-5.795999765E-1,6.988999844E-1
6.094000000E0,-5.619999766E-1,-4.095999897E-1,-4.289999902E-1
6.123998437E0,2.843999863E-1,-3.292999864E-1,-1.117799997E0
6.143998437E0,6.622999907E-1,-4.389999807E-2,-1.127499938E0
6.163998437E0,7.835999727E-1,-3.770999908E-1,-8.822999597E-1
6.193996875E0,-1.318999976E-1,-4.217000008E-1,-6.071000099E-1
6.213996875E0,-3.291999996E-1,-1.294000000E-1,-9.493999481E-1
6.233996875E0,-5.559999868E-2,-1.257999986E-1,-8.610999584E-1
6.253996875E0,-3.163999915E-1,1.931999922E-1,-2.336999923E-1
6.273998437E0,-6.843999624E-1,5.988000035E-1,-3.112999797E-1
6.303996875E0,-6.017999649E-1,5.929999948E-1,-4.168999791E-1
6.323996875E0,2.694999874E-1,4.939000010E-1,-1.324999928E-1
6.343998437E0,-1.343999952E-1,1.114099979E0,1.346899986E0
6.373996875E0,-4.265999794E-1,9.921999574E-1,2.390999943E-1
6.393996875E0,3.489999846E-2,6.858999729E-1,-8.453999758E-1
6.413998437E0,4.442999959E-1,6.621999741E-1,-8.195999861E-1
6.443996875E0,-1.549999975E-2,1.102100015E0,-4.298000038E-1
6.463996875E0,-2.819999866E-2,7.107999921E-1,6.003999710E-1
6.483998437E0,3.552999794E-1,3.938999772E-1,9.832999706E-1
6.513996875E0,2.351000011E-1,-2.415999919E-1,1.526199937E0
6.533996875E0,-6.000000052E-3,-5.170999765E-1,1.601300001E0
6.553998437E0,-3.759000003E-1,-2.909999788E-1,3.750000000E-1
6.583996875E0,-1.552999914E-1,1.340999901E-1,-2.778999805E-1
6.603996875E0,1.548999995E-1,-5.709999800E-2,9.213999510E-1
6.623996875E0,3.006999791E-1,-5.467999578E-1,1.470499992E0
6.643996875E0,1.899999916E-3,-7.412999868E-1,9.454999566E-1
6.663996875E0,2.890000045E-1,-8.339999914E-1,-3.224999905E-1
6.683996875E0,1.053200006E0,-1.047299981E0,2.973999977E-1
6.703996875E0,7.118999958E-1,-3.847999871E-1,-6.699999794E-3
6.723996875E0,6.635999680E-1,-5.399000049E-1,-3.137999773E-1
6.743996875E0,4.526000023E-1,-6.912999749E-1,-5.141000152E-1
6.763996875E0,1.555999964E-1,-2.075999975E-1,-4.425999820E-1
6.783996875E0,3.330999911E-1,5.959999934E-2,-3.920000046E-2
6.803996875E0,4.189999998E-1,3.581999838E-1,-5.479999781E-1
6.823996875E0,1.001999974E-1,7.633999586E-1,-1.213500023E0
6.843998437E0,-3.157999814E-1,1.232999921E0,-1.689399958E0
6.873996875E0,-2.334999889E-1,1.092100024E0,-1.856599927E0
6.893996875E0,3.657999933E-1,7.876999974E-1,-1.725799918E0
6.913998437E0,6.821999550E-1,1.021600008E0,-1.603799939E0
6.943996875E0,4.490999877E-1,5.794999599E-1,-1.127200007E0
6.963996875E0,1.718999892E-1,5.931000113E-1,-1.124400020E0
6.983998437E0,-2.299999893E-1,8.666999936E-1,-4.685999751E-1
7.013996875E0,-4.205999970E-1,1.097299933E0,4.838999808E-1
7.033996875E0,1.139999926E-2,8.876000047E-1,1.263000011E0
7.053998437E0,2.063999921E-1,5.331000090E-1,1.868299961E0
7.073998437E0,-2.999999933E-2,1.796000004E-1,1.839100003E0
7.103996875E0,3.012000024E-1,-5.841000080E-1,2.989499807E0
7.123998437E0,4.351999760E-1,-1.615399957E0,3.132999897E0
7.153996875E0,-1.313099980E0,-1.388299942E0,1.067899942E0
7.173996875E0,-1.473299980E0,-1.388000011E0,-3.346999884E-1
7.193998437E0,-5.683999658E-1,-1.934599996E0,-5.618999600E-1
7.223996875E0,-6.039999723E-1,-8.924999833E-1,4.879999757E-1
7.243996875E0,-8.039999604E-1,-7.251999974E-1,9.111999869E-1
7.263996875E0,-1.314499974E0,-6.409999728E-1,6.543999910E-1
7.283996875E0,-1.298099995E0,-3.412999809E-1,6.233999729E-1
7.303996875E0,-7.236999869E-1,-1.520999968E-1,4.240999818E-1
7.323996875E0,-5.853999853E-1,5.665999651E-1,4.153999984E-1
7.343998437E0,4.360000044E-2,6.148999929E-1,-8.119999617E-2
7.373996875E0,6.733999848E-1,7.956999540E-1,-1.532599926E0
7.393996875E0,8.373000026E-1,9.953999519E-1,-2.431999922E0
7.413998437E0,4.807999730E-1,1.112200022E0,-2.638000011E0
7.443996875E0,4.550999999E-1,7.928000093E-1,-1.038499951E0
7.463996875E0,4.904999733E-1,7.820999622E-1,-2.717999816E-1
7.483996875E0,7.642999887E-1,5.288000107E-1,9.599999785E-1
7.503996875E0,1.013899922E0,2.349999994E-1,1.994699955E0
7.523996875E0,1.094799995E0,-2.602999806E-1,2.204099894E0
7.543996875E0,8.751999736E-1,-8.224999905E-1,1.443099976E0
7.563998437E0,2.072999924E-1,-7.091999650E-1,1.158299923E0
7.593996875E0,4.580000043E-2,-2.392999977E-1,1.429099917E0
7.613996875E0,4.463999867E-1,-3.551000059E-1,1.650699973E0
7.633998437E0,5.047000051E-1,-3.598999977E-1,2.078299999E0
7.663996875E0,5.529999733E-1,-5.834999681E-1,1.394899964E0
7.683996875E0,6.966999769E-1,-1.049299955E0,3.921999931E-1
7.703998437E0,8.051999807E-1,-1.037699938E0,6.870000064E-2
7.733996875E0,1.298200011E0,-5.615000129E-1,4.407999814E-1
7.753996875E0,1.224200010E0,-2.815999985E-1,7.457999587E-1
7.773998437E0,1.097499967E0,-2.727999985E-1,6.017000079E-1
7.803996875E0,9.609999508E-2,-2.500999868E-1,-7.899000049E-1
7.823996875E0,-9.028999805E-1,3.226999938E-1,-1.111699939E0
7.843998437E0,-1.013599992E0,5.807999969E-1,-1.274899960E0
7.873996875E0,-5.753999949E-1,1.067999959E0,-5.234000087E-1
7.893996875E0,-1.013000011E-1,1.008700013E0,-2.381999940E-1
7.913998437E0,5.499999970E-3,6.985999942E-1,-5.490999818E-1
7.943996875E0,-2.510000020E-2,5.698999763E-1,-1.059000015E0
7.963996875E0,-3.999999899E-4,7.471999526E-1,-7.741000056E-1
7.983998437E0,-9.950000048E-2,8.452999592E-1,-1.489999890E-1
8.013996875E0,1.084999964E-1,7.730000019E-1,3.761000037E-1
8.033996875E0,3.034999967E-1,3.723999858E-1,5.428000093E-1
8.053996875E0,3.570000082E-2,3.554999828E-1,1.384400010E0
8.073998437E0,-1.620000042E-2,1.171999946E-1,2.510900021E0
8.103998437E0,-1.062999964E-1,2.248999923E-1,1.926599979E0
8.133998437E0,5.202999711E-1,-3.586999774E-1,1.696499944E0
8.153998437E0,9.927999973E-1,-7.537999749E-1,1.775999904E0
8.173998437E0,3.647999763E-1,-6.085000038E-1,1.579100013E0
8.193998437E0,-1.125999987E-1,-6.915000081E-1,4.529999793E-1
8.213998437E0,-2.414999902E-1,-5.539000034E-1,-4.043000042E-1
8.233998437E0,2.353999913E-1,-6.262999773E-1,-7.696999907E-1
8.253998437E0,6.087999940E-1,-1.124599934E0,-8.274999857E-1
8.273998437E0,-1.762999892E-1,-1.066399932E0,-3.655000031E-1
8.293998437E0,-6.583999991E-1,-1.034399986E0,-4.497999847E-1
8.313998437E0,-6.611999869E-1,-8.745999932E-1,-3.727999926E-1
8.333998437E0,-3.673999906E-1,-6.933999658E-1,-5.859999657E-1
8.353998437E0,-7.270000130E-2,-3.777000010E-1,-4.141999781E-1
8.383996875E0,2.949999869E-1,5.703999996E-1,-1.160899997E0
8.403996875E0,5.916999578E-1,5.891999602E-1,-1.500399947E0
8.423996875E0,8.854999542E-1,7.221999764E-1,-1.659099936E0
8.443996875E0,8.276000023E-1,1.036100030E0,-1.660899997E0
8.463998437E0,5.902000070E-1,1.071499944E0,-1.527499914E0
8.493996875E0,5.065000057E-1,9.508999586E-1,-1.055699944E0
8.513996875E0,6.018999815E-1,6.006000042E-1,-1.881999969E-1
8.533996875E0,4.465999901E-1,4.145999849E-1,8.233000040E-1
8.553996875E0,4.718999863E-1,-4.799999893E-1,1.598099947E0
8.573998437E0,6.058999896E-1,-1.182199955E0,1.834299922E0
8.603998437E0,-7.111999989E-1,-6.475999951E-1,1.187199950E0
8.623998437E0,-8.362999558E-1,-1.685999930E-1,4.618999958E-1
8.643998437E0,3.014000058E-1,-4.901999831E-1,1.073300004E0
8.663998437E0,1.235399961E0,-1.097499967E0,2.514099836E0
8.693998437E0,3.775999844E-1,-9.569000006E-1,2.363499880E0
8.723996875E0,-7.536999583E-1,-9.310999513E-1,5.582999587E-1
8.743996875E0,-3.561999798E-1,-1.130999923E0,-4.179999828E-1
8.763996875E0,1.109999940E-1,-8.962000012E-1,-8.777999878E-1
8.783998437E0,7.164999843E-1,-5.913999677E-1,-3.737999797E-1
8.813996875E0,4.897999763E-1,-1.536999941E-1,-3.780999780E-1
8.833996875E0,6.589999795E-2,1.213999987E-1,-8.543999791E-1
8.853998437E0,-1.993999928E-1,1.815999895E-1,-1.085299969E0
8.883996875E0,5.659999698E-2,5.447999835E-1,-7.971000075E-1
8.903996875E0,6.040999889E-1,6.703000069E-1,-7.105000019E-1
8.923998437E0,5.177999735E-1,8.590999842E-1,-1.454299927E0
8.953996875E0,4.079999924E-1,7.059999704E-1,-1.771699905E0
8.973996875E0,3.820999861E-1,9.120000005E-1,-1.483199954E0
8.993998437E0,3.850999773E-1,7.315999866E-1,-1.217199922E0
9.023996875E0,8.229999989E-2,7.066000104E-1,-1.699000001E-1
9.043996875E0,-1.324999928E-1,9.289000034E-1,2.298999876E-1
9.063998437E0,-2.269999981E-1,8.277999759E-1,6.117999554E-1
9.083998437E0,-4.122000039E-1,3.143999875E-1,1.102299929E0
9.113996875E0,8.100000210E-3,-6.843000054E-1,1.856099963E0
9.133998437E0,-3.558999896E-1,-1.624999940E-1,1.560599923E0
9.163996875E0,3.042999804E-1,-8.938999772E-1,1.523800015E0
9.183996875E0,6.098999977E-1,-1.263899922E0,1.278599977E0
9.203998437E0,-2.949000001E-1,-7.450000048E-1,1.098799944E0
9.223998437E0,-1.159099936E0,-3.871999979E-1,6.538999677E-1
9.243998437E0,-7.958999872E-1,-2.467999905E-1,4.276999831E-1
9.274020312E0,1.123000026E0,-4.454999864E-1,8.068999648E-1
9.303998437E0,9.981999993E-1,-4.108999968E-1,1.046499968E0
9.333996875E0,-9.594999552E-1,-6.250000000E-1,4.478999972E-1
9.353998437E0,-1.809199929E0,-2.136999965E-1,1.699999906E-2
9.383996875E0,-1.723999977E0,7.172999978E-1,4.859999940E-2
9.403998437E0,-4.440999925E-1,6.040999889E-1,-2.246999890E-1
9.433996875E0,-2.736999989E-1,1.204599977E0,-1.836999953E-1
9.453996875E0,-1.865999997E-1,8.208000064E-1,-1.061599970E0
9.474004687E0,-2.516999841E-1,5.874999762E-1,-1.399799943E0
9.503998437E0,-3.285000026E-1,5.855000019E-1,-8.547999859E-1
9.533996875E0,-1.882999986E-1,8.452000022E-1,1.009999990E0
9.553998437E0,3.662999868E-1,3.017999828E-1,1.230299950E0
9.573998437E0,5.730000138E-1,-2.486999929E-1,1.013800025E0
9.603998437E0,6.036999822E-1,-1.042799950E0,1.030399919E0
9.623998437E0,-1.676999927E-1,-1.424999982E-1,1.081599951E0
9.643998437E0,2.069999874E-1,-7.099999487E-2,7.802999616E-1
9.663998437E0,1.624599934E0,-1.396899939E0,1.156000018E0
9.693996875E0,1.278100014E0,-1.422599912E0,1.350499988E0
9.713998437E0,-4.189999774E-2,-1.423999906E0,1.071300030E0
9.743996875E0,-3.199999779E-2,-1.731799960E0,-3.181999922E-1
9.763996875E0,8.739999533E-1,-1.387899995E0,-5.349000096E-1
9.783998437E0,1.115100026E0,-5.791000128E-1,-1.258799911E0
9.813996875E0,8.959999681E-1,-1.467899919E0,-1.321200013E0
9.833998437E0,6.895999908E-1,-1.725699902E0,-1.625599980E0
9.853998437E0,3.495000005E-1,-3.358999789E-1,-1.667599916E0
9.873998437E0,-5.219999701E-2,1.257799983E0,-1.324999928E0
9.893998437E0,-7.310000062E-2,1.083400011E0,-1.698099971E0
9.913998437E0,-1.799999923E-2,4.389999807E-1,-2.187000036E0
9.943996875E0,2.026000023E-1,1.174299955E0,-7.989000082E-1
9.963996875E0,-5.683000088E-1,1.647199988E0,1.095499992E0
9.983998437E0,-1.444000006E-1,8.833999634E-1,1.217100024E0
1.000399844E1,4.235999882E-1,-3.331999779E-1,4.250999987E-1
1.003399688E1,1.557999998E-1,7.817999721E-1,5.051999688E-1
1.005399844E1,-7.662999630E-1,1.686599970E0,1.191100001E0
1.008399688E1,-5.727999806E-1,6.348999739E-1,1.314299941E0
1.010399688E1,6.732999682E-1,-6.956999898E-1,1.697600007E0
1.012399688E1,1.360700011E0,-1.778299928E0,2.753199816E0
1.014399688E1,1.128299952E0,-2.142999887E0,2.618700027E0
1.016399688E1,-4.469999969E-1,-8.748999834E-1,3.389199972E0
1.018399688E1,-1.179499984E0,1.743000001E-1,2.872599840E0
1.020399844E1,-2.549000084E-1,-8.119999617E-2,-1.439999975E-2
1.023399688E1,-1.063999981E-1,5.625999570E-1,-1.018700004E0
1.025399688E1,-5.454999804E-1,4.485999942E-1,1.323799968E0
1.027399844E1,5.590000004E-2,-2.802000046E-1,1.260699987E0
1.030399688E1,3.506000042E-1,-1.097399950E0,2.203999907E-1
1.032399688E1,7.569999993E-2,-7.579999566E-1,-1.249799967E0
1.034399844E1,-5.784999728E-1,1.876999885E-1,-1.252300024E0
1.037399688E1,-9.802999496E-1,1.109499931E0,-8.041999936E-1
1.039399688E1,-1.692999899E-1,9.501999617E-1,-2.149800062E0
1.041400312E1,5.329999924E-1,4.145999849E-1,-2.185499907E0
1.044399688E1,3.438999951E-1,9.038999677E-1,-1.043699980E0
1.046399688E1,-5.138999820E-1,1.515999913E0,4.459999874E-2
1.048399844E1,-4.520999789E-1,8.680999875E-1,3.251000047E-1
1.051399688E1,2.581000030E-1,4.165000021E-1,-1.004400015E0
1.053399688E1,2.335999906E-1,5.331999660E-1,-1.614199996E0
1.055399688E1,1.529999916E-2,6.305999756E-1,-9.769999981E-2
1.057399688E1,-2.272999883E-1,5.770999789E-1,7.335000038E-1
1.059399688E1,-1.219999939E-1,-1.819999889E-2,1.393100023E0
1.061399688E1,4.795999825E-1,-6.679999828E-1,9.853000045E-1
1.063399844E1,-8.999999613E-3,-1.053999960E-1,4.614999890E-1
1.066399688E1,8.549999446E-2,-5.399999674E-3,1.498799920E0
1.068399688E1,4.314999878E-1,-1.159199953E0,3.333299875E0
1.070399844E1,4.796999991E-1,-1.386500001E0,3.027199984E0
1.073399688E1,1.074100018E0,-1.743299961E0,-1.423399925E0
1.075399688E1,1.154699922E0,-1.933499932E0,-9.004999995E-1
1.077399844E1,-2.513999939E-1,-1.577600002E0,1.146799922E0
1.080399688E1,-1.351099968E0,-9.571999907E-1,9.138000011E-1
1.082399688E1,-5.857999921E-1,-1.223699927E0,-4.329999909E-2
1.084399844E1,1.670999974E-1,-1.007599950E0,-9.188999534E-1
1.087399688E1,-1.655000001E-1,-8.929999918E-2,-3.761999905E-1
1.089399688E1,-4.858999848E-1,6.348999739E-1,-1.152599931E0
1.091399844E1,5.739999935E-2,5.153999925E-1,-1.427099943E0
1.094399688E1,9.615999460E-1,3.793999851E-1,-1.486999989E0
1.096399688E1,6.607999802E-1,3.297999799E-1,-1.282799959E0
1.098399688E1,-1.569999941E-2,5.867999792E-1,-4.600999951E-1
1.100399688E1,-5.511999726E-1,1.073099971E0,-9.499999695E-3
1.102399688E1,-6.392999887E-1,9.357999563E-1,-1.966999918E-1
1.104399844E1,-5.095999837E-1,8.155999780E-1,-1.150000002E-2
1.106399844E1,-2.942999899E-1,9.273999929E-1,3.788000047E-1
1.109399688E1,6.709999591E-2,6.669999957E-1,1.923699975E0
1.111399688E1,3.638999760E-1,-4.900000058E-3,2.373299837E0
1.113399688E1,3.238999844E-1,-5.449000001E-1,1.923599958E0
1.115399688E1,-1.812999994E-1,-4.632000029E-1,1.024999976E0
1.117399688E1,-3.465999961E-1,-7.849000096E-1,1.539499998E0
1.119399688E1,-2.576999962E-1,-1.199699998E0,2.263799906E0
1.121399844E1,-1.861999929E-1,-1.013199925E0,1.131199956E0
1.124399688E1,-4.142999947E-1,-9.368999600E-1,-9.202999473E-1
1.126399688E1,-1.449999958E-2,-1.384899974E0,-5.324999690E-1
1.128399688E1,3.930999935E-1,-9.741999507E-1,7.252999544E-1
1.130399688E1,2.745999992E-1,-2.281999886E-1,1.112900019E0
1.132399688E1,1.541000009E-1,-7.568999529E-1,1.037099957E0
1.134399844E1,2.789999917E-2,-1.042599916E0,-3.270999789E-1
1.137399688E1,-3.515999913E-1,-1.020799994E0,-1.669999957E0
1.139399688E1,-6.843999624E-1,-4.389999807E-1,-1.233999968E0
1.141399844E1,-1.067799926E0,5.429999828E-1,-1.615700006E0
1.144399688E1,-5.922999978E-1,8.240999579E-1,-2.020400047E0
1.146399688E1,-7.029999793E-2,9.213999510E-1,-1.779299974E0
1.148400156E1,-1.503999978E-1,9.502999783E-1,-4.649999738E-1
1.151399688E1,-5.309999585E-1,1.097399950E0,1.916999966E-1
1.153399688E1,-7.472999692E-1,9.550999999E-1,7.202999592E-1
1.155399688E1,-5.170999765E-1,4.492999911E-1,6.937999725E-1
1.157399844E1,-3.244999945E-1,-6.999999750E-3,6.033999920E-1
1.160399688E1,-1.239999980E-1,1.829999872E-2,1.026899934E0
1.162399688E1,-4.533999860E-1,-2.236999869E-1,1.404699922E0
1.164399844E1,-7.986999750E-1,-4.264999926E-1,1.243199944E0
1.166399844E1,-7.064999938E-1,-8.299999684E-2,1.139899969E0
1.169399688E1,6.062999964E-1,-3.689999878E-1,9.890999794E-1
1.171399844E1,1.108500004E0,-1.343799949E0,2.773900032E0
1.173399844E1,4.801999927E-1,-1.144999981E0,2.769999981E0
1.175399844E1,-2.542999983E-1,-6.530999541E-1,1.296999931E0
1.177399844E1,3.399999812E-2,-7.536999583E-1,-2.928999960E-1
1.179399844E1,1.350199938E0,-1.710999966E0,9.429999441E-2
1.181399844E1,1.763899922E0,-1.359099984E0,3.719999790E-1
1.183399844E1,7.947999835E-1,-3.558999896E-1,-7.719999552E-2
1.185399844E1,3.037000000E-1,-2.707000077E-1,-2.908999920E-1
1.187399844E1,-1.081999987E-1,6.509999931E-2,2.621999979E-1
1.189399844E1,-5.705999732E-1,8.059999943E-1,1.999999881E-1
1.191399844E1,-8.513999581E-1,1.246299982E0,-9.447000027E-1
1.194399688E1,2.644999921E-1,9.619999677E-2,-2.287199974E0
1.196399688E1,3.843999803E-1,3.770000041E-1,-1.114000008E-1
1.198399688E1,-1.902000010E-1,6.725999713E-1,-9.842000008E-1
1.200399688E1,7.924000025E-1,-4.664999843E-1,-1.102100015E0
1.202399688E1,3.006999791E-1,-2.164999992E-1,-8.246999979E-1
1.204399688E1,-1.489999890E-1,4.221999943E-1,-5.837999582E-1
1.206399688E1,-4.609999955E-1,4.246999919E-1,2.450999916E-1
1.208399688E1,-3.399999812E-3,1.008999944E0,-1.900999993E-1
1.210399688E1,4.217000008E-1,7.258999944E-1,-2.105000019E-1
1.212399688E1,-3.813999891E-1,3.883999884E-1,4.572999775E-1
1.214399844E1,-9.911999702E-1,1.219999976E-2,8.586999774E-1
1.217399688E1,4.837999940E-1,-5.820999742E-1,2.597300053E0
1.219399844E1,8.562999964E-1,-2.963999808E-1,1.304299951E0
1.222399688E1,7.842999697E-1,-1.195099950E0,5.886999965E-1
1.224399844E1,-4.562999904E-1,-2.775000036E-1,6.549999714E-1
1.226399844E1,-8.450999856E-1,-3.859999776E-1,2.003999949E-1
1.229399844E1,1.802999973E-1,-2.014999986E-1,-4.734999835E-1
1.232399688E1,9.917999506E-1,-4.508000016E-1,-3.273999989E-1
1.234399844E1,7.356999516E-1,-1.150599957E0,-4.791999757E-1
1.237399688E1,-6.909999996E-2,-1.091300011E0,-1.144999936E-1
1.239399688E1,-3.664000034E-1,-7.493999600E-1,2.335999906E-1
1.241399844E1,-8.992999792E-1,-3.317999840E-1,1.800999939E-1
1.244399688E1,-6.482999921E-1,2.470999956E-1,-7.329999804E-1
1.246399844E1,-1.705999970E-1,4.017999768E-1,-1.090999961E0
1.249399688E1,-1.542000026E-1,9.728999734E-1,-1.071599960E0
1.251399688E1,3.377999961E-1,1.054399967E0,-9.829999804E-1
1.253399688E1,6.272000074E-1,9.874999523E-1,-5.713999867E-1
1.255399688E1,7.340999842E-1,5.119999647E-1,-7.059999555E-2
1.257399844E1,3.238999844E-1,2.858999968E-1,1.979999989E-2
1.260399688E1,-5.830999613E-1,2.149999887E-1,4.060999751E-1
1.262399688E1,-1.867999882E-1,2.812999785E-1,9.869999886E-1
1.264399844E1,5.277999640E-1,-3.213999867E-1,1.400900006E0
1.267399688E1,2.909999788E-1,-4.093999863E-1,1.266199946E0
1.269399688E1,-9.052000046E-1,-1.401999891E-1,4.936999977E-1
1.271399844E1,-1.320599914E0,-1.359999925E-2,5.058999658E-1
1.274399688E1,9.494999647E-1,-8.791999817E-1,1.834800005E0
1.276399688E1,1.750699997E0,-9.695000052E-1,2.119699955E0
1.278399844E1,8.800999522E-1,-8.941999674E-1,1.593299985E0
1.281399688E1,3.350000083E-2,-1.287400007E0,1.343999952E-1
1.283399688E1,-2.044999897E-1,-1.376199961E0,-7.166999578E-1
1.285399844E1,-1.658999920E-1,-9.456999898E-1,-4.801999927E-1
1.288399688E1,6.559000015E-1,-3.919999897E-1,-8.434999585E-1
1.290399688E1,4.070999920E-1,-7.679999620E-2,-4.566999972E-1
1.292399844E1,-2.953000069E-1,5.719999969E-2,1.547999978E-1
1.295399688E1,-7.640999556E-1,4.447000027E-1,-1.597299933E0
1.297399688E1,-1.800999939E-1,4.903999865E-1,-1.801299930E0
1.299399688E1,2.893999815E-1,7.796999812E-1,-1.784999967E0
1.301399688E1,2.978999913E-1,9.691999555E-1,-1.662799954E0
1.303399688E1,2.138999999E-1,9.276999831E-1,-1.048799992E0
1.305399688E1,-1.269999985E-2,1.011500001E0,-2.967000008E-1
1.307399844E1,-3.419999778E-1,7.339000106E-1,-2.319999970E-2
1.310399688E1,-1.781999916E-1,5.720999837E-1,-2.290999889E-1
1.312399688E1,-2.690999806E-1,8.917999864E-1,5.299999844E-3
1.314399844E1,-2.387999892E-1,9.297999740E-1,9.845999479E-1
1.317399688E1,8.439999819E-1,-1.349000037E-1,2.651099920E0
1.319399688E1,1.278399944E0,-9.795999527E-1,2.584800005E0
1.321399844E1,4.698999822E-1,-8.668999672E-1,1.920199990E0
1.324399688E1,-1.991999894E-1,-6.577000022E-1,1.404799938E0
1.326399688E1,5.083999634E-1,-4.106999934E-1,2.290499926E0
1.328399844E1,1.028999925E0,-9.529999495E-1,3.549299955E0
1.331399688E1,4.754999876E-1,-1.438199997E0,1.038599968E0
1.333399844E1,1.576000005E-1,-7.041999698E-1,-1.357800007E0
1.335399844E1,5.238999724E-1,5.439999700E-2,-3.250200033E0
1.338399688E1,5.155999660E-1,-3.707999885E-1,-9.567999840E-1
1.340399688E1,-3.420999944E-1,-5.870000124E-1,2.691599846E0
1.342399688E1,-5.992999673E-1,-8.338999748E-1,2.242599964E0
1.344399688E1,-2.689999938E-1,-4.073999822E-1,-1.612000018E-1
1.346399688E1,-1.493999958E-1,6.538999677E-1,-2.643499851E0
1.348399688E1,4.181999862E-1,1.027199984E0,-2.476899862E0
1.350399688E1,-2.858999968E-1,1.176800013E0,-1.876000017E-1
1.352399688E1,-3.039999902E-1,9.825999737E-1,2.380999923E-1
1.354399688E1,1.290999949E-1,4.923999906E-1,-2.010999918E0
1.356399844E1,1.289999951E-2,5.949000120E-1,-3.180399895E0
1.359399688E1,-6.832999587E-1,6.545999646E-1,-2.168400049E0
1.361399688E1,-5.845000148E-1,6.122999787E-1,-1.583400011E0
1.363399844E1,-2.443999946E-1,3.827999830E-1,4.514999986E-1
1.366399688E1,-2.242999971E-1,-4.473999739E-1,1.526299953E0
1.368399688E1,-6.751999855E-1,-5.615000129E-1,1.803799987E0
1.370399844E1,-9.972999692E-1,-7.330999970E-1,1.532099962E0
1.373399688E1,-1.362900019E0,1.160999984E-1,6.625999808E-1
1.375399688E1,4.569999874E-2,1.351999938E-1,-8.743000031E-1
1.377399844E1,1.129799962E0,-6.854000092E-1,2.524999857E0
1.380399688E1,-2.676999867E-1,-2.420199871E0,4.918099880E0
1.382399688E1,-9.007999897E-1,-2.187799931E0,5.503000021E-1
1.384399844E1,4.822999835E-1,-1.234699965E0,-2.014600039E0
1.386399844E1,2.450000048E0,-8.897999525E-1,-1.149000004E-1
1.388399844E1,2.057999849E0,-1.240100026E0,1.389599919E0
1.390399844E1,-5.751999617E-1,7.999999798E-4,-2.601000071E-1
1.392399844E1,-3.298999965E-1,-5.697999597E-1,-9.185999632E-1
1.394399844E1,4.407999814E-1,-9.929999709E-2,-9.797999859E-1
1.396399844E1,4.536999762E-1,9.690000117E-2,-1.383299947E0
1.398399844E1,5.709999800E-2,1.441999972E-1,-4.235000014E-1
1.400399844E1,-1.067999974E-1,1.290999949E-1,9.399999678E-2
1.403399688E1,-5.277000070E-1,3.986999989E-1,-1.796199918E0
1.405399688E1,-9.070000052E-2,8.328999877E-1,-2.427999973E0
1.407399688E1,1.244999990E-1,9.253000021E-1,-1.140100002E0
1.409399688E1,-3.558999896E-1,7.879999876E-1,-1.499999911E-1
1.411399688E1,-8.529999852E-1,6.340000033E-1,2.212999910E-1
1.413399688E1,-3.129000068E-1,5.188999772E-1,3.677999973E-1
1.415399688E1,6.051999927E-1,6.105999947E-1,7.609999776E-1
1.417399688E1,4.158999920E-1,8.240999579E-1,3.910000026E-1
1.419399688E1,2.149999887E-2,4.827999771E-1,8.542999625E-1
1.421399688E1,4.790000021E-1,-2.818000019E-1,2.070899963E0
1.423399688E1,1.791999936E-1,-7.030000091E-1,2.073299885E0
1.425399688E1,-5.812000036E-1,-3.531000018E-1,1.273599982E0
1.427399844E1,2.173999995E-1,2.504000068E-1,3.752999902E-1
1.430399688E1,8.364999890E-1,1.219999976E-2,1.120899916E0
1.432399688E1,-3.623999953E-1,-6.071000099E-1,1.118799925E0
1.434399844E1,-9.645999670E-1,-3.224999905E-1,-6.929999590E-2
1.437399688E1,9.327999949E-1,1.039999947E-1,3.529999778E-2
1.439399688E1,1.265200019E0,-1.489999983E-2,6.613000035E-1
1.441399844E1,2.868999839E-1,-6.456999779E-1,1.084999919E0
1.443399844E1,-9.156000018E-1,-9.700999856E-1,8.524999619E-1
1.446399688E1,-5.861999989E-1,-3.391999900E-1,-4.937999845E-1
1.448399688E1,7.499999553E-2,1.338000000E-1,-6.037999988E-1
1.450399688E1,-4.676999748E-1,1.858000010E-1,-4.140000045E-2
1.452400000E1,-7.695999742E-1,8.410000056E-2,-5.227999687E-1
1.455399688E1,-5.095999837E-1,3.982999921E-1,-2.015499830E0
1.457399688E1,7.789999992E-2,8.077999949E-1,-1.790699959E0
1.459399688E1,-2.769999951E-2,8.316999674E-1,-1.289299965E0
1.461399688E1,-1.715999991E-1,3.509999812E-1,-1.943999976E-1
1.463399844E1,-3.951999843E-1,-1.472999901E-1,6.969999522E-2
1.466399688E1,-6.861000061E-1,-2.789999917E-2,-8.226000071E-1
1.468399688E1,-1.159999967E-1,2.029999904E-2,-7.142999768E-1
1.470399844E1,4.175999761E-1,-1.745999902E-1,1.176100016E0
1.473399688E1,-2.401999980E-1,-9.265999794E-1,2.250099897E0
1.475399688E1,-6.161000133E-1,-4.132999778E-1,6.116999984E-1
1.477399844E1,-2.217999995E-1,7.807999849E-1,-1.638799906E0
1.480399688E1,2.667299986E0,9.259999543E-2,-1.565999985E-1
1.482399844E1,1.726699948E0,-9.491999745E-1,3.661599874E0
1.484399844E1,3.437999785E-1,-1.535300016E0,3.247399807E0
1.486399844E1,4.585999846E-1,-9.742999673E-1,3.923999965E-1
1.489399688E1,1.362499952E0,-8.673999906E-1,-5.047999620E-1
1.491399688E1,1.129699945E0,-5.137000084E-1,4.790000021E-1
1.493399688E1,1.310999990E-1,-3.939999938E-1,-7.580000162E-2
1.495399688E1,1.326999962E-1,-4.731999934E-1,9.399999864E-3
1.497399844E1,2.683999836E-1,-1.656999886E-1,5.744999647E-1
1.499399844E1,1.996999979E-1,-1.618999988E-1,3.278000057E-1
1.502399688E1,-1.122999936E-1,9.879999608E-2,-1.697600007E0
1.504399688E1,-2.721999884E-1,2.592999935E-1,-1.617999911E0
1.506399844E1,-4.244999886E-1,4.979999959E-1,-1.314000010E0
1.509399688E1,-4.549999908E-2,7.651999593E-1,-8.506999612E-1
1.511399688E1,-1.228000000E-1,7.150999904E-1,-4.758999944E-1
1.513399844E1,-2.962000072E-1,8.093999624E-1,-3.646000028E-1
1.516399688E1,1.013999954E-1,6.297999620E-1,3.037999868E-1
1.518399688E1,1.867000014E-1,7.109999657E-1,1.273699999E0
1.520399844E1,3.398000002E-1,1.699000001E-1,1.577499986E0
1.523399688E1,-7.880000025E-2,-1.229499936E0,9.329999685E-1
1.525399688E1,-4.822999835E-1,-1.042400002E0,1.600399971E0
1.527399844E1,-3.625999987E-1,-6.516999602E-1,1.304600000E0
1.530399688E1,8.975999951E-1,-4.623999894E-1,1.988199949E0
1.532399688E1,-8.999999613E-2,-4.585999846E-1,1.820899963E0
1.534399844E1,-1.452899933E0,-4.922999740E-1,3.440999985E-1
1.537399688E1,3.892999887E-1,-1.341999918E-1,-7.700999975E-1
1.539399688E1,1.586300015E0,-7.440000027E-2,5.019999743E-1
1.541399688E1,6.705999970E-1,-4.587999880E-1,1.057999969E0
1.543399844E1,-6.959999800E-1,-6.419000030E-1,1.124899983E0
1.546399688E1,-8.093999624E-1,-4.846999943E-1,2.578999996E-1
1.548399688E1,-3.495999873E-1,-1.326999962E-1,-2.045999914E-1
1.550399688E1,-1.423999965E-1,1.287000030E-1,-1.351899981E0
1.552399688E1,-3.879999816E-1,3.244999945E-1,-1.872499943E0
1.554399688E1,-6.119999886E-1,2.881999910E-1,-1.023299932E0
1.556399844E1,-6.984999776E-1,3.985999823E-1,-2.815999985E-1
1.559399688E1,1.973999888E-1,9.204999804E-1,-2.121799946E0
1.561399688E1,6.676999927E-1,1.088599920E0,-2.420300007E0
1.563399844E1,2.153999954E-1,1.025599957E0,-1.487100005E0
1.566399688E1,-6.534999609E-1,5.800999999E-1,-3.326999843E-1
1.568399688E1,-5.503000021E-1,6.682999730E-1,-3.921999931E-1
1.570399844E1,1.555999964E-1,8.290999532E-1,-6.269999743E-1
1.573399688E1,2.336999923E-1,1.228999943E-1,1.051699996E0
1.575399688E1,-4.615999758E-1,-6.381999850E-1,1.926699996E0
1.577399844E1,-6.631999612E-1,-5.583999753E-1,2.644700050E0
1.580399688E1,-4.079999775E-2,5.806999803E-1,5.295999646E-1
1.582399844E1,1.629599929E0,5.080999732E-1,2.281999886E-1
1.584399844E1,1.281099916E0,-6.376000047E-1,3.653899908E0
1.586399844E1,-1.899999916E-3,-1.382900000E0,3.477900028E0
1.589399688E1,2.701999843E-1,-3.831999898E-1,-2.630300045E0
1.591399844E1,1.596699953E0,-4.838999808E-1,-2.864599943E0
1.594399688E1,-5.000000000E-1,-1.438799977E0,1.484899998E0
1.596399688E1,-1.177399993E0,-1.364399910E0,1.964100003E0
1.598399688E1,1.485999972E-1,-8.392999768E-1,7.554999590E-1
1.600399844E1,1.531000018E0,-1.717000008E-1,-4.785999954E-1
1.603399688E1,3.143000007E-1,2.890000045E-1,-6.516000032E-1
1.605399688E1,-7.651999593E-1,1.975999922E-1,-7.297999859E-1
1.607399844E1,-6.942999959E-1,4.578999877E-1,-1.211399913E0
1.610399844E1,6.099999882E-3,1.000299931E0,-1.484300017E0
1.613399688E1,1.719999872E-2,1.203199983E0,-1.055500031E0
1.615399688E1,-6.789999604E-1,1.160799980E0,-7.938999534E-1
1.617399688E1,-1.067199945E0,1.216599941E0,-3.858000040E-1
1.619399844E1,-2.468999922E-1,1.373700023E0,5.519999862E-1
1.621399844E1,6.026999950E-1,1.767499924E0,8.931999803E-1
1.623399844E1,-3.905999959E-1,5.324000120E-1,1.842099905E0
1.625399844E1,-1.341199994E0,-1.121399999E0,2.532699823E0
1.627399844E1,-8.091999888E-1,-1.418900013E0,2.635299921E0
1.630399688E1,6.261000037E-1,-8.204999566E-1,2.128700018E0
1.632399688E1,1.223299980E0,-9.361000061E-1,2.027799845E0
1.634399844E1,4.781000018E-1,-1.151999950E0,2.105099916E0
1.637399688E1,-8.817999959E-1,-8.411999941E-1,3.765999973E-1
1.639399688E1,-3.452999890E-1,-7.967999578E-1,-9.153999686E-1
1.641399688E1,1.133099914E0,-8.093000054E-1,-1.072000027E0
1.643399688E1,1.467199922E0,-8.592000008E-1,3.552999794E-1
1.645399688E1,2.499999944E-3,-1.124499917E0,4.491999745E-1
1.647399688E1,-1.124699950E0,-1.146000028E0,-4.754999876E-1
1.649399688E1,-6.631999612E-1,-7.066000104E-1,-1.174099922E0
1.651399688E1,9.539999813E-2,-2.228999883E-1,-9.207999706E-1
1.653399688E1,-2.107999921E-1,8.049999923E-2,-6.064999700E-1
1.655399688E1,-5.911999941E-1,-6.999999750E-3,-1.171800017E0
1.657399688E1,-8.402000070E-1,1.846999973E-1,-1.296299934E0
1.659399688E1,-7.997999787E-1,4.135999978E-1,-1.746699929E0
1.661399688E1,-4.470999837E-1,6.175999641E-1,-1.795899987E0
1.663399844E1,8.320000023E-2,7.014999986E-1,-1.040300012E0
1.666399688E1,-3.574999869E-1,2.840999961E-1,4.052999914E-1
1.668399688E1,-8.628000021E-1,5.920000002E-2,-5.866000056E-1
1.670399844E1,-3.739999831E-1,-1.022999957E-1,-1.196799994E0
1.673399688E1,5.831999779E-1,-3.838000000E-1,1.187500000E0
1.675399688E1,2.563999891E-1,-9.631999731E-1,2.902499914E0
1.677399844E1,-1.079299927E0,-2.657999992E-1,1.995299935E0
1.680399688E1,4.787999988E-1,4.472999871E-1,-1.153499961E0
1.682399688E1,1.761399984E0,-4.012999833E-1,1.007799983E0
1.684399844E1,3.467999995E-1,-2.038199902E0,3.869299889E0
1.687399844E1,-1.854499936E0,-1.195599914E0,6.715999842E-1
1.689399844E1,6.529999971E-1,-4.542999864E-1,-1.740399957E0
1.691399844E1,2.327399969E0,2.228000015E-1,-9.435999990E-1
1.693399844E1,1.678999901E0,1.189999934E-2,-3.555999994E-1
1.696399844E1,-9.649999440E-2,-7.335000038E-1,1.201099992E0
1.698399844E1,2.109999955E-1,-4.359000027E-1,1.323899984E0
1.700399844E1,1.067799926E0,-1.889999956E-1,4.115999937E-1
1.702399844E1,9.512999654E-1,7.279999554E-2,-9.598000050E-1
1.704399844E1,1.803999990E-1,2.442999929E-1,-1.625699997E0
1.706399844E1,-2.689999938E-1,3.735999763E-1,-1.861199975E0
1.708399844E1,-3.480999768E-1,5.117999911E-1,-1.439000010E0
1.710399844E1,-1.429999918E-1,5.526999831E-1,-1.289799929E0
1.712399844E1,2.140000015E-1,7.619999647E-1,-1.375399947E0
1.714399844E1,4.436999857E-1,8.930000067E-1,-1.226699948E0
1.716399844E1,-3.049999848E-2,7.810999751E-1,-5.008999705E-1
1.718399844E1,-4.866999984E-1,5.216999650E-1,5.167999864E-1
1.720400781E1,-3.754999936E-1,3.027999997E-1,2.191799879E0
1.723399844E1,4.584999979E-1,2.685000002E-1,2.144899845E0
1.726399688E1,6.276999712E-1,-1.111999974E-1,1.474200010E0
1.728399844E1,-1.525000036E-1,-3.642999828E-1,1.633199930E0
1.731399688E1,2.870000005E-1,-4.145999849E-1,1.643799901E0
1.733399688E1,3.783999979E-1,-6.649000049E-1,2.525300026E0
1.735399688E1,1.160999984E-1,-7.634999752E-1,2.397899866E0
1.737399688E1,-8.169999719E-1,-5.406000018E-1,4.307999909E-1
1.739399688E1,-8.391000032E-1,-2.933000028E-1,-6.744999886E-1
1.741399688E1,5.564999580E-1,-3.319000006E-1,-5.194000006E-1
1.743399688E1,1.480199933E0,-1.880999953E-1,1.424999982E-1
1.745399688E1,6.089000106E-1,-3.445000052E-1,3.989999741E-2
1.747399688E1,-6.186999679E-1,-5.503000021E-1,-1.403399944E0
1.749399844E1,-9.826999903E-1,-3.880999982E-1,-2.062700033E0
1.752399688E1,-3.138999939E-1,-4.828999937E-1,-5.394999981E-1
1.754399688E1,-5.426999927E-1,-3.700999916E-1,3.686999977E-1
1.756399844E1,-4.678999782E-1,-2.561999857E-1,-6.710999608E-1
1.759399688E1,2.969999984E-2,3.093000054E-1,-1.286899924E0
1.761399688E1,4.878000021E-1,5.867999792E-1,-7.858999968E-1
1.763399688E1,2.568999827E-1,7.782999873E-1,-6.270999908E-1
1.765399688E1,-7.249999791E-2,6.407999992E-1,-1.025799990E0
1.767399688E1,-3.007999957E-1,3.783999979E-1,-1.374599934E0
1.769399688E1,3.639999777E-2,1.940999925E-1,-1.085799932E0
1.771399688E1,9.569999576E-2,2.072999924E-1,2.192000002E-1
1.773399688E1,-2.259999961E-1,-9.589999914E-2,1.356999993E0
1.775399688E1,-3.075999916E-1,-2.635999918E-1,1.133700013E0
1.777399844E1,-2.642999887E-1,-3.315999806E-1,1.233999968E0
1.780399688E1,-7.159999609E-1,4.706999958E-1,8.235999942E-1
1.782399688E1,1.538999975E-1,2.820999920E-1,2.267999947E-1
1.784399844E1,1.298699975E0,-1.120199919E0,1.701999903E0
1.786400000E1,6.916999817E-1,-2.345399857E0,4.614099979E0
1.789399688E1,-8.930999637E-1,-1.222899914E0,1.833400011E0
1.791399688E1,4.348999858E-1,-3.646000028E-1,-1.162299991E0
1.793399688E1,1.552799940E0,-9.619999677E-2,-1.172099948E0
1.795399688E1,1.217100024E0,-3.539999947E-2,4.614000022E-1
1.797399688E1,4.189999998E-1,-1.699000001E-1,6.943999529E-1
1.799399844E1,4.139999747E-1,-3.041000068E-1,-4.623999894E-1
1.801399844E1,4.215999842E-1,-4.270000011E-2,-8.824999928E-1
1.803399844E1,5.663999915E-1,4.309999943E-2,-9.114999771E-1
1.805399844E1,1.250000000E-1,-9.860000014E-2,-1.029899955E0
1.808399688E1,-3.540000021E-1,-7.580000162E-2,-4.918999970E-1
1.810399844E1,-5.263000131E-1,8.469999582E-2,-1.000499964E0
1.813399844E1,1.425999999E-1,5.080000162E-1,-2.043400049E0
1.816399688E1,5.400999784E-1,9.303999543E-1,-1.745599985E0
1.818399688E1,8.924999833E-1,7.170000076E-1,-3.245999813E-1
1.820399844E1,2.202999890E-1,6.196999550E-1,6.250999570E-1
1.823399688E1,1.722999960E-1,6.642000079E-1,5.949999765E-2
1.825399688E1,9.641000032E-1,9.522999525E-1,-3.489999771E-1
1.827399844E1,8.858000040E-1,8.337000012E-1,8.075999618E-1
1.829399844E1,4.581999779E-1,-2.638999820E-1,2.071199894E0
1.832399688E1,-8.133999705E-1,-5.031999946E-1,1.680799961E0
1.834399844E1,-2.875999808E-1,-5.852999687E-1,3.870999813E-1
1.836400000E1,1.042099953E0,-9.964999557E-1,2.039399862E0
1.839399688E1,-3.594999909E-1,-9.145999551E-1,3.423399925E0
1.841399688E1,-1.485000014E0,-3.057999909E-1,8.169999719E-1
1.843399844E1,-5.318999887E-1,2.299999893E-1,-1.678399920E0
1.846399688E1,2.039599895E0,3.470999897E-1,-7.059999704E-1
1.848399688E1,9.880999923E-1,-2.384999990E-1,5.343999863E-1
1.850399688E1,-8.524999619E-1,-6.712999940E-1,2.062999904E-1
1.852399688E1,-1.322899938E0,-5.092999935E-1,-4.328999817E-1
1.854399688E1,-1.680999994E-1,-2.335999906E-1,-1.316799998E0
1.856399844E1,7.695999742E-1,2.899999917E-2,-1.112299919E0
1.859399688E1,-4.739999771E-1,8.619999886E-2,-1.212099910E0
1.861399688E1,-9.778999686E-1,4.310999811E-1,-9.574999809E-1
1.863399844E1,-4.716999829E-1,5.859000087E-1,-8.884999752E-1
1.866399688E1,1.803999990E-1,7.390999794E-1,-1.082899928E0
1.868399688E1,1.403999925E-1,7.084000111E-1,-5.128999949E-1
1.870399844E1,-3.804000020E-1,6.457999945E-1,2.230999917E-1
1.873399688E1,-3.925999999E-1,5.699999928E-1,-3.628000021E-1
1.875399688E1,-2.029999904E-2,4.648999870E-1,-4.484999776E-1
1.877399688E1,-5.260000005E-2,4.870999753E-1,2.208999991E-1
1.879399688E1,6.089999899E-2,-2.219999954E-2,1.506699920E0
1.881399688E1,-2.162999958E-1,-2.879000008E-1,2.174999952E0
1.883399688E1,-1.250199914E0,2.325999886E-1,8.949999809E-1
1.885399844E1,-4.907999933E-1,3.800999820E-1,-7.457999587E-1
1.888399688E1,1.559399962E0,-1.318400025E0,3.287199974E0
1.890399844E1,-1.201999933E-1,-2.211400032E0,6.065299988E0
1.892399844E1,-1.678699970E0,-1.382799983E0,2.597300053E0
1.895399688E1,4.966999888E-1,-6.159999967E-2,-2.631599903E0
1.897399688E1,1.600199938E0,6.830000132E-2,-9.571999907E-1
1.899399688E1,6.891999841E-1,-2.800999880E-1,1.368399978E0
1.901399688E1,-2.018999904E-1,-7.008999586E-1,1.207199931E0
1.903399688E1,-3.222000003E-1,-5.924000144E-1,2.967999876E-1
1.905399844E1,3.779999912E-2,-2.422999889E-1,-4.059999883E-1
1.907399844E1,6.830000132E-2,9.319999814E-2,-1.061999917E0
1.910399688E1,1.599999964E-1,1.946000010E-1,-1.120899916E0
1.912399688E1,3.019999899E-2,2.046999931E-1,-1.100000024E0
1.914399688E1,-1.384999901E-1,8.020000160E-2,-8.710999489E-1
1.916399688E1,1.528999954E-1,1.669999957E-1,-1.031999946E0
1.918399688E1,5.744999647E-1,2.083999962E-1,-1.917299986E0
1.920399844E1,3.547999859E-1,5.020999908E-1,-1.862399936E0
1.923399688E1,-6.449999660E-2,5.595999956E-1,-3.330000043E-1
1.925399844E1,-2.035999894E-1,3.258000016E-1,7.150999904E-1
1.927399844E1,-2.867999971E-1,8.460000157E-2,8.937999606E-1
1.930399688E1,-1.868999898E-1,2.413999885E-1,3.910999894E-1
1.932399688E1,7.135999799E-1,1.151999980E-1,1.196499944E0
1.934399688E1,4.951999784E-1,2.157000005E-1,1.186100006E0
1.936399844E1,3.206999898E-1,-5.498999953E-1,9.539999813E-2
1.938399844E1,2.330999970E-1,-1.542199969E0,1.654799938E0
1.940400625E1,-1.120999977E-1,-1.631299973E0,4.231800079E0
1.943399688E1,-6.995999813E-1,-4.481000006E-1,6.200999618E-1
1.945399844E1,1.617999971E-1,2.818999887E-1,-2.690999985E0
1.947399844E1,1.307299972E0,4.450999796E-1,-1.422099948E0
1.949399844E1,8.855999708E-1,1.358000040E-1,1.651699901E0
1.952399688E1,-1.148800015E0,-3.489999846E-2,8.806999922E-1
1.954399688E1,-1.238499999E0,1.733999997E-1,-1.025300026E0
1.956399844E1,-3.299999833E-1,5.069999769E-2,-1.540899992E0
1.958399844E1,-8.249999583E-2,1.405999959E-1,-4.149999917E-1
1.961399688E1,-8.233999610E-1,9.559999406E-2,-6.499999762E-2
1.963399844E1,-7.540999651E-1,2.021999955E-1,-1.179499984E0
1.965399844E1,-2.735999823E-1,3.955000043E-1,-1.897899985E0
1.967399844E1,-1.861999929E-1,7.052999735E-1,-2.068699837E0
1.969399844E1,-1.541000009E-1,7.254999876E-1,-1.605799913E0
1.971399844E1,2.499999851E-2,4.441999793E-1,-6.363999844E-1
1.973399844E1,-5.370999575E-1,2.242999971E-1,4.605999887E-1
1.975399844E1,-8.258000016E-1,9.600000083E-2,4.240999818E-1
1.977399844E1,-4.449999705E-2,6.079999730E-2,-1.377999932E-1
1.979399844E1,6.406999826E-1,-4.156999886E-1,2.484999895E-1
1.981399844E1,2.536999881E-1,-7.366999984E-1,1.512099981E0
1.983399844E1,-9.375000000E-1,-1.209999993E-2,1.875099897E0
1.985399844E1,-1.013399959E0,7.766000032E-1,5.389999747E-1
1.987399844E1,7.919999957E-1,-8.329999447E-2,-9.233999848E-1
1.989399844E1,1.553499937E0,-1.153599977E0,1.783599973E0
1.991399844E1,2.769999802E-1,-1.667799950E0,4.895800114E0
1.993399844E1,-1.430400014E0,-1.197299957E0,1.916000009E0
1.995399844E1,-6.119999662E-2,-6.937999725E-1,5.150000006E-2
1.997399844E1,1.740799904E0,-1.206000000E-1,-1.870999932E-1
1.999399844E1,1.311200023E0,-3.729999810E-2,7.825999856E-1
2.001399844E1,-1.811999977E-1,-2.018999904E-1,8.240000010E-1
2.004400938E1,-2.173999995E-1,-4.743999839E-1,-3.150000051E-2
2.007399844E1,3.236999810E-1,-3.199999919E-3,-8.923999667E-1
2.010399688E1,-2.302999943E-1,4.574999809E-1,-1.588699937E0
2.012399688E1,-2.044999897E-1,3.560999930E-1,-1.775499940E0
2.014399844E1,2.125999928E-1,2.664999962E-1,-9.804999828E-1
2.017399688E1,6.953999996E-1,4.384999871E-1,-8.079999685E-1
2.019399688E1,1.372999996E-1,6.776999831E-1,-1.223399997E0
2.021399844E1,1.551000029E-1,8.507999778E-1,-8.288999796E-1
2.024399688E1,2.280000001E-1,9.527999759E-1,1.750000007E-2
2.026399844E1,2.908999920E-1,8.306999803E-1,-9.549999982E-2
2.028399844E1,3.181000054E-1,5.837000012E-1,-1.092999950E-1
2.031399688E1,4.469999969E-1,-1.741999984E-1,1.218999982E0
2.033399688E1,4.487999976E-1,-4.133999944E-1,1.075199962E0
2.035399844E1,5.425999761E-1,-8.859999478E-2,3.720999956E-1
2.038399688E1,1.809799910E0,-8.733999729E-1,1.916099906E0
2.040399688E1,8.328999877E-1,-9.225999713E-1,2.250799894E0
2.042399844E1,-2.139999904E-2,-1.011500001E0,1.699499965E0
2.045399688E1,-1.935999990E-1,-5.511999726E-1,-8.715999722E-1
2.047399688E1,1.112100005E0,1.356000006E-1,-8.962999582E-1
2.049399844E1,1.154699922E0,2.230999917E-1,-7.414999604E-1
2.052399688E1,-6.478999853E-1,-3.051999807E-1,-8.783999681E-1
2.054399688E1,-1.249799967E0,-3.639999926E-1,-6.722999811E-1
2.056399844E1,-6.802999973E-1,-1.960999966E-1,-1.268299937E0
2.059399688E1,-5.023999810E-1,1.556999981E-1,-8.488999605E-1
2.061399688E1,-1.075999975E0,4.377000034E-1,-4.435999990E-1
2.063399844E1,-1.393000007E0,6.991999745E-1,-6.316999793E-1
2.066399688E1,4.588999748E-1,1.197299957E0,-8.549000025E-1
2.068399688E1,8.247999549E-1,1.357900023E0,-8.016999960E-1
2.070399844E1,7.970000058E-2,1.049899936E0,-7.991999984E-1
2.073399688E1,-7.583999634E-1,7.949999571E-1,2.574999928E-1
2.075399688E1,-5.666999817E-1,6.536999941E-1,7.380999923E-1
2.077399844E1,2.944000065E-1,5.146999955E-1,3.113999963E-1
2.080399688E1,1.080699921E0,3.294000030E-1,6.035000086E-1
2.082399844E1,-7.580000162E-2,-1.402999908E-1,1.476999998E0
2.085399844E1,-1.291199923E0,7.098999619E-1,8.773999810E-1
2.088399688E1,1.765699983E0,7.502999902E-1,5.331999660E-1
2.090399844E1,2.363800049E0,-5.859000087E-1,3.977699995E0
2.092399844E1,5.832999945E-1,-1.928699970E0,5.513000011E0
2.095399688E1,-5.138999820E-1,-1.128799915E0,7.192999721E-1
2.097399688E1,1.678200006E0,3.260000050E-2,-1.565499902E0
2.099399844E1,1.814299941E0,3.916999996E-1,-6.902999878E-1
2.102399688E1,-8.999999613E-2,-2.888000011E-1,1.643899918E0
2.104399688E1,4.939999804E-2,-1.132999957E-1,8.930999637E-1
2.106399844E1,6.915000081E-1,4.528999925E-1,-1.109899998E0
2.109399688E1,5.166000128E-1,1.048300028E0,-2.011800051E0
2.111399844E1,-1.968999952E-1,8.120999932E-1,-1.642799973E0
2.113399844E1,-3.175999820E-1,5.616999865E-1,-8.879999518E-1
2.116399688E1,-3.043999970E-1,3.455999792E-1,-1.312500000E0
2.118399688E1,-4.123999774E-1,4.384000003E-1,-2.287600040E0
2.120399844E1,-3.123999834E-1,2.775999904E-1,-2.385200024E0
2.123399688E1,-6.295999885E-1,-1.101999953E-1,5.886999965E-1
2.125399688E1,-1.211300015E0,-3.795000017E-1,1.342399955E0
2.127399844E1,-1.035799980E0,1.036999971E-1,1.692000031E-1
2.130399688E1,6.742999554E-1,4.050000012E-1,4.479999840E-2
2.132399688E1,1.383299947E0,6.439999491E-2,9.850999713E-1
2.134399688E1,-1.289999932E-1,-4.840999842E-1,4.551999867E-1
2.136399688E1,-8.552999496E-1,-6.952999830E-1,6.769999862E-1
2.138399688E1,8.061999679E-1,-1.654399991E0,2.051599979E0
2.140399688E1,1.227299929E0,-1.895900011E0,3.549999952E0
2.142399844E1,-3.987999856E-1,-1.397400022E0,2.542799950E0
2.144399844E1,-1.407599926E0,-9.731999636E-1,3.262999952E-1
2.146399844E1,-5.238000154E-1,-8.952999711E-1,-7.076999545E-1
2.148399844E1,8.696999550E-1,-5.331999660E-1,8.179999888E-2
2.150399844E1,9.473999739E-1,-2.486999929E-1,5.995000005E-1
2.152399844E1,-1.635999978E-1,3.409999982E-2,8.940000087E-2
2.154399844E1,-9.909999967E-1,5.429999903E-2,-1.186299920E0
2.156400000E1,-1.281000018E0,3.813000023E-1,-1.473899961E0
2.159399844E1,-7.105000019E-1,5.938999653E-1,-4.885999858E-1
2.161399844E1,-5.773999691E-1,6.891999841E-1,-8.240999579E-1
2.163399844E1,-6.890999675E-1,9.490999579E-1,-1.628299952E0
2.165399844E1,-3.622999787E-1,1.029099941E0,-1.667799950E0
2.167399844E1,-2.263999879E-1,1.199800014E0,-1.208099961E0
2.169399844E1,-1.481999904E-1,1.192199945E0,-7.094999552E-1
2.171399844E1,1.648000032E-1,8.169999719E-1,-2.584999800E-1
2.173399844E1,-2.628999949E-1,6.269999743E-1,5.065999627E-1
2.175399844E1,-3.911999762E-1,5.568000078E-1,4.878999889E-1
2.177399844E1,-1.545999944E-1,3.570999801E-1,-1.970999986E-1
2.179399844E1,-2.399999881E-3,-3.439999744E-2,4.601999819E-1
2.181399844E1,-3.770000041E-1,-3.364999890E-1,2.499799967E0
2.183399844E1,-1.419899940E0,1.206999943E-1,2.344899893E0
2.185399844E1,-9.297999740E-1,1.141799927E0,1.224999949E-1
2.187399844E1,2.211400032E0,3.267000020E-1,-7.987999916E-1
2.189399844E1,1.788899899E0,-1.010800004E0,3.675599813E0
2.192399844E1,-2.883800030E0,-2.447000027E0,5.498300076E0
2.195399688E1,-2.685999870E-1,-9.855999947E-1,-1.560799956E0
2.197399688E1,2.911700010E0,1.750999987E-1,-2.178299904E0
2.199399844E1,1.540899992E0,1.230999976E-1,-7.189999521E-2
2.201399844E1,-6.610999703E-1,-4.716999829E-1,3.680000007E-1
2.203399844E1,-1.414099932E0,-7.293999791E-1,-1.409999933E-2
2.205399844E1,-3.567999899E-1,-4.420999885E-1,-1.885999888E-1
2.207399844E1,7.931999564E-1,-1.008999944E-1,-7.439000010E-1
2.209399844E1,6.481999755E-1,5.599999800E-2,-1.386799932E0
2.211399844E1,-9.169999510E-2,2.349999920E-2,-1.020699978E0
2.213399844E1,-1.639999896E-1,3.799999878E-2,-4.481000006E-1
2.215399844E1,-1.015999988E-1,2.683999836E-1,-1.137399912E0
2.217399844E1,3.339999914E-2,5.065999627E-1,-2.352299929E0
2.219399844E1,5.073999763E-1,8.276000023E-1,-2.382299900E0
2.221399844E1,1.651999950E-1,7.570999861E-1,-1.183699965E0
2.223399844E1,-4.931999743E-1,5.845000148E-1,7.874999642E-1
2.225399844E1,-2.786000073E-1,5.816999674E-1,4.696999788E-1
2.227401250E1,3.071999848E-1,7.731999755E-1,-8.624999523E-1
2.230399844E1,1.007099986E0,8.181999922E-1,-1.094999984E-1
2.232399844E1,7.773000002E-1,3.753999770E-1,7.904999852E-1
2.234399844E1,3.005000055E-1,-1.477999985E-1,1.559999943E0
2.236399844E1,-5.889999866E-2,-1.225999966E-1,1.074499965E0
2.238399844E1,2.132499933E0,-7.703999877E-1,5.965999961E-1
2.240399844E1,2.775799990E0,-9.043999910E-1,3.252599955E0
2.242399844E1,1.194999963E-1,-9.837999940E-1,2.509999990E0
2.244399844E1,-1.756399989E0,-8.521999717E-1,3.576000035E-1
2.246399844E1,-1.419099927E0,-4.733999968E-1,4.596000016E-1
2.248399844E1,2.584999800E-1,-5.867999792E-1,6.319000125E-1
2.250399844E1,9.246999621E-1,-2.726999819E-1,7.752000093E-1
2.252399844E1,-4.368999898E-1,-1.539999992E-1,2.037999928E-1
2.254399844E1,-1.952699900E0,-1.341999918E-1,-9.930999875E-1
2.256399844E1,-1.815299988E0,-2.679999918E-2,-1.347800016E0
2.258399844E1,-7.340999842E-1,1.607999951E-1,-4.590999782E-1
2.260399844E1,-2.545999885E-1,5.270999670E-1,6.078000069E-1
2.262399844E1,-9.746999741E-1,5.766000152E-1,-7.824999690E-1
2.264399844E1,-1.166199923E0,6.839999557E-1,-2.098999977E0
2.266399844E1,-4.338999987E-1,6.134999990E-1,-2.151799917E0
2.268399844E1,1.798999906E-1,5.202999711E-1,-9.813999534E-1
2.270399844E1,5.472999811E-1,3.991999924E-1,-3.893999755E-1
2.272399844E1,-1.201999933E-1,4.244000018E-1,-5.015000105E-1
2.274399844E1,-8.244000077E-1,4.050999880E-1,-9.858999848E-1
2.277399688E1,-5.852999687E-1,4.010000080E-2,-3.410999775E-1
2.279399688E1,1.894999892E-1,-1.728999913E-1,5.332999825E-1
2.281399688E1,4.743999839E-1,-2.088999897E-1,7.099999785E-1
2.283399688E1,-3.319999874E-1,-2.919999957E-1,1.787099957E0
2.285399844E1,-1.119699955E0,5.501999855E-1,1.593299985E0
2.288399844E1,1.626500010E0,5.090000033E-1,-1.011999965E0
2.291399688E1,1.066499949E0,-1.215699911E0,2.365099907E0
2.293399844E1,-1.482800007E0,-1.110800028E0,2.321599960E0
2.295399844E1,-2.657999992E-1,-9.171999693E-1,-1.016799927E0
2.297399844E1,1.561699986E0,-1.111400008E0,-1.583699942E0
2.299399844E1,9.785999656E-1,-9.512999654E-1,5.450999737E-1
2.301399844E1,-2.144999951E-1,-5.941999555E-1,6.329999566E-1
2.303399844E1,-5.992000103E-1,-3.648999929E-1,-1.172999963E-1
2.305399844E1,-4.639999941E-2,-1.937000006E-1,-2.498999983E-1
2.307399844E1,3.357999921E-1,1.464999914E-1,3.434999883E-1
2.309399844E1,1.640999913E-1,2.002999932E-1,1.252999902E-1
2.311399844E1,-2.421000004E-1,2.375999987E-1,-9.314000010E-1
2.313399844E1,4.360000044E-2,4.208999872E-1,-1.947499990E0
2.315399844E1,8.190000057E-1,4.989999831E-1,-1.799199939E0
2.317399844E1,9.715999961E-1,6.793000102E-1,-1.357100010E0
2.319399844E1,7.806999683E-1,7.525999546E-1,-1.943499923E0
2.321399844E1,1.469999924E-2,7.281999588E-1,-1.747900009E0
2.323399844E1,-3.910000026E-1,5.521999598E-1,-6.628999710E-1
2.325399844E1,-1.065999940E-1,5.126999617E-1,6.768000126E-1
2.327399844E1,8.707000017E-1,5.098999739E-1,1.479900002E0
2.329399844E1,4.616999924E-1,3.528999984E-1,9.627999663E-1
2.331399844E1,2.554999888E-1,-1.550000012E-1,6.297999620E-1
2.333399844E1,3.854999840E-1,-5.399999619E-1,2.056599855E0
2.335399844E1,9.339999408E-2,-7.209999561E-1,3.287400007E0
2.337399844E1,-5.261999965E-1,-3.227999806E-1,1.747399926E0
2.339399844E1,5.726000071E-1,-4.447999895E-1,7.598999739E-1
2.341399844E1,1.581699967E0,-4.342999756E-1,1.762300014E0
2.343399844E1,7.631999850E-1,-1.975999922E-1,1.168799996E0
2.345399844E1,-2.917000055E-1,1.481999904E-1,-1.714199901E0
2.347399844E1,1.931999922E-1,3.849000037E-1,-2.925199986E0
2.349399844E1,1.534199953E0,-2.017999887E-1,-7.360999584E-1
2.351399844E1,7.109999657E-1,-7.935000062E-1,1.467700005E0
2.353399844E1,-1.444899917E0,-1.105099916E0,1.310799956E0
2.355399844E1,-1.634799957E0,-8.756999969E-1,-2.639999986E-2
2.357399844E1,-1.407999992E-1,-6.489999890E-1,-1.175799966E0
2.359399844E1,1.965999901E-1,-2.159999907E-1,1.449999958E-1
2.361399844E1,-8.082999587E-1,-1.087999940E-1,7.601000071E-1
2.363399844E1,-1.409199953E0,2.714999914E-1,2.410000004E-2
2.365399844E1,-1.015799999E0,9.718999863E-1,-9.266999960E-1
2.368399844E1,2.946999967E-1,1.324899912E0,-1.082000017E0
2.370399844E1,2.565999925E-1,1.321299911E0,-5.507000089E-1
2.372399844E1,-5.203999877E-1,1.087599993E0,-7.234999537E-1
2.374399844E1,-7.604999542E-1,8.071999550E-1,-7.989999652E-1
2.377399844E1,-1.729999930E-1,1.983999908E-1,3.403999805E-1
2.379399844E1,3.989999890E-1,-2.899999963E-3,1.352399945E0
2.381399844E1,2.386000007E-1,-2.450999916E-1,2.180299997E0
2.383399844E1,-5.708000064E-1,-2.870000005E-1,1.677500010E0
2.385399844E1,-9.949999452E-1,6.117999554E-1,1.371999979E-1
2.387399844E1,6.116999984E-1,6.345999837E-1,-1.077000022E0
2.389399844E1,1.712399960E0,-8.368999958E-1,2.050899982E0
2.391399844E1,-5.235999823E-1,-2.673499823E0,6.423199654E0
2.393399844E1,-3.277599812E0,-2.261199951E0,5.530699730E0
2.395399844E1,-1.671599984E0,-1.015900016E0,-1.241999984E0
2.397399844E1,1.456900001E0,-4.113999903E-1,-4.422399998E0
2.399399844E1,1.670399904E0,1.269999985E-2,-4.242999852E-1
2.401399844E1,3.965999782E-1,-3.513999879E-1,1.315099955E0
2.404399688E1,2.269999869E-2,-3.298999965E-1,-1.198400021E0
2.406400000E1,6.162999868E-1,-1.640999913E-1,-1.451799989E0
2.409399688E1,4.532999992E-1,1.064999998E-1,-1.123000026E0
2.411399688E1,-2.311999947E-1,7.419999689E-2,-1.371199965E0
2.413399844E1,-3.994999826E-1,2.761999965E-1,-1.306499958E0
2.415399844E1,1.699999906E-2,6.899999976E-1,-1.553699970E0
2.417399844E1,3.551999927E-1,8.495999575E-1,-2.181699991E0
2.419399844E1,1.713999957E-1,1.109200001E0,-1.978699923E0
2.421399844E1,-6.449999660E-2,7.840999961E-1,-7.866999507E-1
2.423399844E1,-4.600000102E-3,7.809000015E-1,9.350999594E-1
2.426399688E1,6.650999784E-1,9.824999571E-1,3.682999909E-1
2.428399688E1,7.369999886E-1,8.449999690E-1,6.653000116E-1
2.430399688E1,3.386999965E-1,7.017999887E-1,9.793999791E-1
2.432399688E1,2.116999924E-1,4.506999850E-1,1.096099973E0
2.434399688E1,2.241999954E-1,-2.547000051E-1,2.035500050E0
2.436399844E1,-4.481000006E-1,-4.508000016E-1,2.436499834E0
2.439400469E1,7.369999588E-2,-1.345999986E-1,9.111999869E-1
2.442399844E1,8.804000020E-1,-2.395000011E-1,1.963599920E0
2.444399844E1,-2.870000005E-1,-1.344999969E-1,7.913999557E-1
2.446399844E1,-8.072999716E-1,-1.534999907E-1,-1.180799961E0
2.448399844E1,-1.380999982E-1,-4.100999832E-1,-9.697999954E-1
2.450399844E1,6.732999682E-1,-7.953000069E-1,8.252999783E-1
2.453399688E1,-1.129799962E0,-1.091499925E0,3.707000017E-1
2.455399688E1,-1.823199987E0,-1.114599943E0,-1.113299966E0
2.457399688E1,-1.281799912E0,-8.736000061E-1,-1.342700005E0
2.459399688E1,-2.849999964E-1,-5.277999640E-1,2.505999804E-1
2.461399688E1,-4.767999947E-1,-2.659999952E-2,2.194999903E-1
2.463399844E1,-1.195599914E0,2.813999951E-1,-1.658999920E0
2.466399688E1,-4.125999808E-1,6.311999559E-1,-2.397699833E0
2.468399688E1,3.316999972E-1,8.509999514E-1,-9.756999612E-1
2.470399844E1,3.518999815E-1,9.909999967E-1,-9.243999720E-1
2.473399688E1,-5.131999850E-1,8.223999739E-1,-1.444599986E0
2.475399688E1,-9.346999526E-1,5.745999813E-1,-1.420499921E0
2.477399688E1,-3.551000059E-1,3.355999887E-1,-5.270000100E-1
2.479399688E1,-1.063999981E-1,3.226999938E-1,7.874999642E-1
2.481399688E1,-6.685000062E-1,8.989999443E-2,5.755000114E-1
2.483399844E1,-6.050999761E-1,-2.928999960E-1,9.718999863E-1
2.485399844E1,-1.262999922E-1,-3.859999776E-2,1.112399936E0
2.488399844E1,9.307000041E-1,4.268999994E-1,-4.281999767E-1
2.491399688E1,5.609999970E-2,-1.742299914E0,3.434000015E0
2.493399688E1,-1.941199899E0,-2.044699907E0,5.822499752E0
2.495399688E1,-1.638599992E0,-1.183099985E0,2.888599873E0
2.497399688E1,2.538999915E-1,-5.529999733E-1,-1.188300014E0
2.499399844E1,1.609300017E0,-1.924999952E-1,-1.082000017E0
2.502399688E1,2.318999916E-1,-4.533999860E-1,1.538999915E0
2.504399688E1,-3.454000056E-1,-5.638999939E-1,9.614999890E-1
2.506399844E1,1.164999977E-1,-3.860999942E-1,-4.373999834E-1
2.509399688E1,2.953000069E-1,1.162000000E-1,-1.220600009E0
2.511399688E1,2.899999917E-2,3.495999873E-1,-1.085699916E0
2.513399844E1,-3.111000061E-1,3.953000009E-1,-1.087100029E0
2.516399688E1,-4.531999826E-1,4.833000004E-1,-1.418599963E0
2.518399688E1,3.340999782E-1,9.077000022E-1,-1.904500008E0
2.520399844E1,6.051999927E-1,9.873999953E-1,-1.851499915E0
2.523399688E1,-3.021999896E-1,9.071999788E-1,-7.723999619E-1
2.525399688E1,-4.460999966E-1,7.795999646E-1,3.641999960E-1
2.527399688E1,-1.997999996E-1,5.767999887E-1,8.152999878E-1
2.529399844E1,3.102999926E-1,6.793000102E-1,1.228999972E0
2.532399688E1,6.171999574E-1,5.665999651E-1,1.117900014E0
2.534399688E1,2.565000057E-1,-3.267000020E-1,1.660399914E0
2.536399844E1,-2.222999930E-1,-5.279999971E-1,2.483700037E0
2.539399688E1,2.500999868E-1,-1.683999896E-1,1.410099983E0
2.541399688E1,1.110899925E0,-8.321999907E-1,2.123499870E0
2.543399844E1,6.916999817E-1,-1.441200018E0,2.829900026E0
2.545399844E1,-8.608999848E-1,-1.415199995E0,2.057100058E0
2.548399844E1,-5.771999955E-1,-7.820999622E-1,-8.989999443E-2
2.550399844E1,1.668099999E0,-6.832000017E-1,-4.427999854E-1
2.553399688E1,1.664000005E-1,-6.525999904E-1,1.253799915E0
2.555399688E1,-1.760100007E0,-2.708999813E-1,6.775000095E-1
2.557399688E1,-2.263499975E0,2.372999936E-1,-1.104599953E0
2.559399688E1,-1.571799994E0,6.166999936E-1,-2.144399881E0
2.561399688E1,-1.060500026E0,6.319999695E-1,-1.119300008E0
2.563399844E1,-1.218699932E0,3.181999922E-1,-3.565999866E-1
2.566399688E1,-1.226699948E0,3.019999899E-2,-1.263999939E0
2.568399688E1,-2.110999972E-1,1.732999980E-1,-1.426100016E0
2.570399688E1,4.059999883E-1,4.478999972E-1,-1.541999936E0
2.572399688E1,4.281999767E-1,8.190000057E-1,-1.876199961E0
2.574399688E1,5.119999871E-2,7.264999747E-1,-1.926499963E0
2.576399688E1,-1.551000029E-1,2.579999864E-1,-7.213999629E-1
2.578399688E1,-1.050999984E-1,-1.169999968E-2,1.439999938E-1
2.580399688E1,2.157999873E-1,-2.160999924E-1,2.689000070E-1
2.582399688E1,4.564999938E-1,-3.407000005E-1,-2.500999868E-1
2.584399688E1,-8.389999717E-2,-6.208999753E-1,-5.663999915E-1
2.586399688E1,6.439999491E-2,-6.825999618E-1,9.018999934E-1
2.588399688E1,-2.343999892E-1,-4.600000009E-2,3.220700026E0
2.590399688E1,-9.579999745E-2,3.734999895E-1,1.020399928E0
2.592399688E1,8.428999782E-1,-4.972999990E-1,-4.712999761E-1
2.594399688E1,7.702999711E-1,-1.462399960E0,1.702699900E0
2.596399688E1,-3.095999956E-1,-1.307199955E0,2.978399992E0
2.598399688E1,-4.769999981E-1,-4.353999794E-1,1.075899959E0
2.600399844E1,8.447999954E-1,-1.929999888E-1,-1.213299990E0
2.603399688E1,1.385599971E0,-2.395000011E-1,-8.941999674E-1
2.605399688E1,5.065999627E-1,-6.444999576E-1,-2.861999869E-1
2.607399844E1,-9.232999682E-1,-7.493999600E-1,-6.839999557E-2
2.610399688E1,-5.956000090E-1,-5.648999810E-1,-6.759999692E-2
2.612399688E1,5.938000083E-1,-2.259999961E-1,-3.838999867E-1
2.614399688E1,5.958999991E-1,1.730999947E-1,-8.269999623E-1
2.616399688E1,-5.303999782E-1,4.147999883E-1,-1.153100014E0
2.618399688E1,-1.026000023E0,5.640999675E-1,-7.056999803E-1
2.620399688E1,-3.985999823E-1,7.655999660E-1,-6.987000108E-1
2.622399688E1,-2.599999867E-2,1.110899925E0,-1.052199960E0
2.624399688E1,2.533999979E-1,1.215099931E0,-1.208199978E0
2.626399844E1,1.753999889E-1,9.914999604E-1,-5.902000070E-1
2.628399844E1,-3.570999801E-1,6.613000035E-1,4.188999832E-1
2.631399688E1,-6.636999846E-1,3.517999947E-1,1.331099987E0
2.633399688E1,-1.155999973E-1,2.796999812E-1,5.198999643E-1
2.635399844E1,7.215999961E-1,8.499999531E-3,1.197600007E0
2.638399688E1,8.282999992E-1,-7.336999774E-1,3.874799967E0
2.640399688E1,-3.949999809E-2,-6.096000075E-1,2.478600025E0
2.642399844E1,2.522000074E-1,-3.382000029E-1,4.353999794E-1
2.645399688E1,1.212899923E0,-1.049399972E0,2.382900000E0
2.647399688E1,3.353999853E-1,-1.387899995E0,3.202399969E0
2.649399844E1,-1.098199964E0,-1.129599929E0,1.352499962E0
2.652399688E1,-1.040999964E-1,-4.377999902E-1,-1.976899981E0
2.654399688E1,1.519500017E0,-2.377999872E-1,-1.590399981E0
2.656399844E1,1.392699957E0,-3.316999972E-1,-1.635999978E-1
2.659399688E1,-6.704999804E-1,-4.163999856E-1,5.199999735E-2
2.661399688E1,-1.313199997E0,-1.771999896E-1,-8.123999834E-1
2.663399844E1,-9.715999961E-1,2.648999989E-1,-1.832499981E0
2.665399844E1,-1.460999995E-1,6.535999775E-1,-1.677899957E0
2.667399844E1,-7.729999721E-2,7.835999727E-1,-9.943999648E-1
2.669399844E1,-6.699000001E-1,8.366999626E-1,-4.377999902E-1
2.671399844E1,-5.376999974E-1,8.734999895E-1,-8.489999771E-1
2.673399844E1,1.369999945E-1,1.033499956E0,-1.608099937E0
2.676399688E1,1.428799987E0,1.159999967E0,-1.268800020E0
2.678399844E1,5.600999594E-1,8.341000080E-1,4.253000021E-1
2.681399688E1,-1.024799943E0,3.850999773E-1,1.053499937E0
2.683399688E1,-3.743999898E-1,3.273999989E-1,-7.629999518E-2
2.685399844E1,8.122999668E-1,3.033999801E-1,-5.174999833E-1
2.688399688E1,6.322000027E-1,-4.018999934E-1,1.190999985E0
2.690399844E1,-1.269299984E0,-4.875999987E-1,2.228499889E0
2.692399844E1,-1.649899960E0,7.026999593E-1,1.124699950E0
2.695399688E1,2.205399990E0,5.055999756E-1,-1.023999929E0
2.697399688E1,1.913100004E0,-4.048999846E-1,2.814899921E0
2.699399844E1,-4.174999893E-1,-1.140999913E0,4.548099995E0
2.702399688E1,-8.345999718E-1,-8.675999641E-1,2.980999947E-1
2.704399688E1,5.691999793E-1,-6.197999716E-1,-1.609699965E0
2.706399844E1,7.730999589E-1,-4.966999888E-1,-1.232999921E0
2.709399688E1,-3.093000054E-1,-5.281000137E-1,-3.735999763E-1
2.711399688E1,-4.253999889E-1,-3.971999884E-1,-5.499999970E-2
2.713399844E1,-9.049999714E-2,-2.372999936E-1,-4.486999810E-1
2.716399688E1,2.915000021E-1,3.177999854E-1,-1.321599960E0
2.718399688E1,5.123999715E-1,6.108999848E-1,-1.558099985E0
2.720399844E1,5.927999616E-1,6.161999702E-1,-1.274799943E0
2.722399844E1,5.878999829E-1,6.218999624E-1,-1.284099936E0
2.725399688E1,4.635999799E-1,7.450000048E-1,-1.905999899E0
2.727399688E1,5.120999813E-1,8.338999748E-1,-1.717499971E0
2.729399688E1,2.178999931E-1,6.866999865E-1,-5.133999586E-1
2.731399688E1,-3.827999830E-1,5.782999992E-1,8.646000028E-1
2.733399688E1,-6.008999944E-1,5.862999558E-1,1.469900012E0
2.735399688E1,-3.552999794E-1,5.656999946E-1,1.204999924E0
2.737399688E1,7.169999927E-2,7.386999726E-1,1.274199963E0
2.739399688E1,2.120999992E-1,6.733999848E-1,1.441599965E0
2.741399688E1,4.629999772E-2,6.451999545E-1,1.199000001E0
2.743399844E1,1.141399980E0,1.629000008E-1,5.174999833E-1
2.746399688E1,4.974999726E-1,-1.508199930E0,3.725899935E0
2.748399688E1,-1.197600007E0,-2.196899891E0,4.655600071E0
2.750399844E1,-1.738999963E0,-1.840599895E0,2.457299948E0
2.752399844E1,-7.224000096E-1,-1.070199966E0,7.868999839E-1
2.754399844E1,5.169000030E-1,-4.805999994E-1,4.986999929E-1
2.756399844E1,6.667000055E-1,-2.725999951E-1,1.026000023E0
2.758399844E1,-1.542999893E-1,2.229999900E-1,4.186999798E-1
2.760399844E1,-1.012899995E0,3.748999834E-1,-1.315899968E0
2.762399844E1,-1.078899980E0,5.985000134E-1,-2.013799906E0
2.764400000E1,-7.655999660E-1,6.164000034E-1,-6.262999773E-1
2.767399844E1,-1.465099931E0,2.676999867E-1,2.717999816E-1
2.769399844E1,-1.543099999E0,1.195999980E-1,-5.404999852E-1
2.771400000E1,-8.546999693E-1,3.398000002E-1,-1.625599980E0
2.774399844E1,6.194999814E-1,6.270999908E-1,-2.746700048E0
2.776399844E1,6.308000088E-1,4.077999890E-1,-4.126999974E-1
2.778400000E1,-3.907999992E-1,2.039999962E-1,2.840999961E-1
2.781399844E1,-6.680999994E-1,7.508999705E-1,-1.621599913E0
2.783399844E1,-1.915999949E-1,8.129999638E-1,-1.238299966E0
2.785400000E1,7.009999752E-1,5.454999804E-1,2.991999984E-1
2.788399844E1,-3.059999831E-2,-4.166999757E-1,2.183199883E0
2.790399844E1,-1.335699916E0,-2.155999988E-1,8.786000013E-1
2.792400000E1,-9.269999862E-1,9.323999882E-1,-1.243600011E0
2.795399844E1,2.530400038E0,-2.581000030E-1,-6.581000090E-1
2.797399844E1,9.508000016E-1,-1.598099947E0,5.010399818E0
2.799400000E1,-1.497099996E0,-1.613299966E0,4.818299770E0
2.802399844E1,3.719999790E-1,-9.460999966E-1,-1.505699992E0
2.804399844E1,2.638599873E0,-2.628999949E-1,-1.352699995E0
2.806399844E1,1.736299992E0,2.319999970E-2,2.764999866E-1
2.808399844E1,1.579999924E-2,-4.219999909E-2,2.678000033E-1
2.810399844E1,-7.027999759E-1,-3.041999936E-1,-3.136999905E-1
2.812399844E1,-1.176999956E-1,-9.910000116E-2,-9.314000010E-1
2.814399844E1,6.613000035E-1,1.359999925E-2,-1.000800014E0
2.817399688E1,5.837000012E-1,3.718000054E-1,-5.051999688E-1
2.819399688E1,1.986999959E-1,3.651999831E-1,-1.329100013E0
2.821399844E1,2.847000062E-1,5.813999772E-1,-2.122299910E0
2.824399688E1,7.694999576E-1,8.016999960E-1,-1.878299952E0
2.826399688E1,6.459999681E-1,9.552999735E-1,-5.083000064E-1
2.828399844E1,-1.439999975E-2,6.417999864E-1,5.302000046E-1
2.830399844E1,-4.521999955E-1,4.608999789E-1,3.660999835E-1
2.833399688E1,9.079999477E-2,5.157999992E-1,7.118999958E-1
2.835399844E1,5.500000119E-1,3.105999827E-1,1.642199993E0
2.838399688E1,6.250000000E-2,-2.400999963E-1,1.556100011E0
2.840399688E1,-5.710999966E-1,1.209999993E-1,5.311999917E-1
2.842399844E1,-1.921999902E-1,-1.885999888E-1,-1.009999961E-1
2.845399688E1,4.981999993E-1,-8.438000083E-1,2.646999836E0
2.847399688E1,6.987999678E-1,-5.839999914E-1,2.811100006E0
2.849399844E1,6.796000004E-1,-2.168999910E-1,4.790000021E-1
2.852399688E1,1.471799970E0,-2.188999951E-1,-2.751699924E0
2.854399688E1,1.211799979E0,-4.415999949E-1,-7.506999969E-1
2.856399844E1,7.270000130E-2,-1.002200007E0,1.971300006E0
2.859399688E1,-1.497299910E0,-1.162799954E0,1.478299975E0
2.861399688E1,-1.398800015E0,-6.706999540E-1,-6.589999795E-1
2.863399688E1,-5.094000101E-1,-2.312999964E-1,-1.631199956E0
2.865399688E1,-4.208000004E-1,3.570999801E-1,-1.726899981E0
2.867399844E1,-5.187999606E-1,5.453000069E-1,-1.176699996E0
2.870399688E1,-5.347999930E-1,5.137999654E-1,-4.493999779E-1
2.872399688E1,-3.009999990E-1,7.802999616E-1,-1.574199915E0
2.874399688E1,3.791999817E-1,1.088699937E0,-3.187899828E0
2.876399688E1,5.232999921E-1,1.082999945E0,-1.095399976E0
2.878399688E1,-5.450999737E-1,6.990000010E-1,2.414899826E0
2.880399688E1,-1.230799913E0,2.588000000E-1,2.302500010E0
2.882399844E1,-4.562999904E-1,2.538999915E-1,1.879999973E-2
2.885399844E1,1.666700006E0,1.492999941E-1,1.982000023E-1
2.887399844E1,2.736999989E-1,3.624999821E-1,1.902199984E0
2.889399844E1,-5.992000103E-1,7.202000022E-1,7.536999583E-1
2.891399844E1,4.029999971E-1,-1.502999961E-1,-9.314000010E-1
2.893399844E1,1.878600001E0,-1.300899982E0,2.320899963E0
2.895399844E1,9.289000034E-1,-1.718799949E0,5.481199741E0
2.897399844E1,-3.292999864E-1,-1.006899953E0,4.197000027E0
2.899399844E1,4.407999814E-1,-4.914999902E-1,1.766999960E-1
2.901399844E1,1.550499916E0,-9.169999510E-2,-2.594499826E0
2.903399844E1,1.651600003E0,1.361999959E-1,-7.112999558E-1
2.905399844E1,7.450000048E-1,1.662999988E-1,1.500000013E-3
2.907399844E1,1.894000024E-1,-1.244999990E-1,-6.541000009E-1
2.909399844E1,-6.639999896E-2,-1.059999969E-2,-1.230099916E0
2.911399844E1,3.218999803E-1,1.300999969E-1,-1.582799911E0
2.913399844E1,2.703999877E-1,4.349999875E-2,-1.770099998E0
2.915399844E1,-1.045999974E-1,9.279999882E-2,-1.408499956E0
2.917399844E1,-7.560999990E-1,8.280000091E-2,-1.890100002E0
2.919399844E1,-1.179999948E0,3.876999915E-1,-2.165799856E0
2.921399844E1,-1.101300001E0,5.611999631E-1,-1.883599997E0
2.923399844E1,2.109999955E-2,5.115000010E-1,2.202999890E-1
2.926399688E1,-4.919999838E-2,7.490999699E-1,-5.401999950E-1
2.928399844E1,-3.467999995E-1,8.193999529E-1,-1.678699970E0
2.931399688E1,-5.680999756E-1,6.787999868E-1,8.804999590E-1
2.933399688E1,-3.610999882E-1,3.014000058E-1,3.588799953E0
2.935399844E1,5.199999735E-2,-1.911999881E-1,4.336299896E0
2.938399844E1,-6.836000085E-1,6.159999967E-2,3.479999900E-1
2.941399688E1,3.419999778E-2,-3.998000026E-1,-6.237999797E-1
2.943399844E1,8.913999796E-1,-1.236099958E0,2.741699934E0
2.946399688E1,-1.990999877E-1,-9.760999680E-1,2.338199854E0
2.948399688E1,-6.451999545E-1,-5.467999578E-1,-1.036999971E-1
2.950399688E1,2.210999876E-1,-6.247000098E-1,-9.623000026E-1
2.952399688E1,1.382099986E0,-7.228999734E-1,5.685999990E-1
2.954399688E1,1.037400007E0,-7.498999834E-1,1.677399993E0
2.956399844E1,-4.122000039E-1,-7.354999781E-1,1.084900022E0
2.958399844E1,-1.197700024E0,-6.396999955E-1,-3.287999928E-1
2.961399844E1,-1.069999933E0,-3.574999869E-1,-6.279999614E-1
2.964399844E1,-5.875999928E-1,8.999999613E-3,-4.278999865E-1
2.966399844E1,-5.539999604E-1,4.527999759E-1,-1.535599947E0
2.968399844E1,-4.158999920E-1,7.578999996E-1,-2.592000008E0
2.971399844E1,2.456000000E-1,7.935999632E-1,-2.647699833E0
2.973399844E1,1.396999955E-1,7.202000022E-1,-1.540199995E0
2.976399688E1,-4.144999981E-1,1.559000015E-1,8.908999562E-1
2.978399844E1,-6.362000108E-1,1.779999956E-2,4.830999970E-1
2.981399688E1,2.414999902E-1,3.898999989E-1,-5.189999938E-1
2.983399844E1,5.033000112E-1,1.775999963E-1,9.506999850E-1
2.985399844E1,-2.417999953E-1,-3.042999804E-1,2.750699997E0
2.987399844E1,-1.544699907E0,-1.999999955E-2,3.251299858E0
2.989399844E1,-1.081399918E0,9.607999921E-1,1.269899964E0
2.991399844E1,1.263800025E0,5.852000117E-1,-4.456000030E-1
2.993399844E1,1.724499941E0,-1.829999983E-1,2.453500032E0
2.996399688E1,-9.449999928E-1,-6.959999800E-1,3.135699987E0
2.998399688E1,-9.361000061E-1,-2.782000005E-1,-3.823999763E-1
3.000399844E1,4.721999764E-1,-1.789999902E-1,-3.125999928E0
3.003399688E1,1.209299922E0,-4.660999775E-1,-1.544399977E0
3.005399688E1,1.840000041E-2,-9.149000049E-1,1.683000028E-1
3.007399844E1,-1.120399952E0,-1.153499961E0,5.040999651E-1
3.010399688E1,-5.116999745E-1,-7.890999913E-1,-4.974999726E-1
3.012399688E1,5.291000009E-1,-3.766999841E-1,-8.298999667E-1
3.014399844E1,1.823000014E-1,4.600000102E-3,-1.193300009E0
3.017399688E1,-6.520000100E-1,3.738999963E-1,-1.775599957E0
3.019399688E1,-6.430000067E-1,4.770999849E-1,-1.455299973E0
3.021399844E1,-6.099999696E-2,6.577999592E-1,-1.024299979E0
3.024399688E1,1.525000036E-1,1.032799959E0,-2.572999895E-1
3.026399688E1,-3.000999987E-1,1.143800020E0,2.734999955E-1
3.028400000E1,-5.950999856E-1,1.100199938E0,6.575999856E-1
3.031399688E1,-8.049999923E-2,1.105999947E0,1.377599955E0
3.033399688E1,2.996000051E-1,1.023699999E0,1.127599955E0
3.035399844E1,7.920999527E-1,6.547999978E-1,1.191100001E0
3.038399688E1,-3.049999848E-2,4.087999761E-1,1.536399961E0
3.040399688E1,-8.899999410E-2,2.273999900E-1,1.144599915E0
3.042399844E1,5.360000134E-1,-2.951000035E-1,1.396799922E0
3.045399688E1,-3.064999878E-1,-7.737999558E-1,2.017299891E0
3.047399688E1,-5.920999646E-1,-3.779000044E-1,-3.621000051E-1
3.049399844E1,4.742999971E-1,-3.010999858E-1,-1.876899958E0
3.052399688E1,7.609999776E-1,-1.115199924E0,5.620999932E-1
3.054399688E1,-1.014799953E0,-1.493799925E0,1.325099945E0
3.056399844E1,-1.607999921E0,-1.546800017E0,5.164999962E-1
3.059399688E1,-1.087999940E-1,-9.129999876E-1,-3.880999982E-1
3.061399688E1,-2.561999857E-1,-3.982999921E-1,-3.910000026E-1
3.063399688E1,-6.996999979E-1,9.659999609E-2,-8.831999898E-1
3.065399844E1,-7.716000080E-1,2.056999952E-1,-1.782999933E-1
3.068399688E1,-1.484999955E-1,-1.239999942E-2,7.152999640E-1
3.070399688E1,3.709999919E-1,3.967999816E-1,-1.539999992E-2
3.072399688E1,2.402999997E-1,5.292999744E-1,-1.223500013E0
3.074399688E1,-2.053999901E-1,4.653999805E-1,-8.635999560E-1
3.076399688E1,-3.050000072E-1,3.606999815E-1,-3.876000047E-1
3.078399844E1,3.334999979E-1,3.177999854E-1,-6.326999664E-1
3.081399688E1,4.141999781E-1,1.200999990E-1,4.867999852E-1
3.083399688E1,-1.643999964E-1,5.020000041E-2,5.720999837E-1
3.085399844E1,-2.460999936E-1,2.351999879E-1,2.581000030E-1
3.087402500E1,-2.417999953E-1,6.811000109E-1,6.660999656E-1
3.090399688E1,5.751000047E-1,1.103099942E0,1.589999907E-2
3.092399844E1,1.419099927E0,-3.097999990E-1,1.356099963E0
3.095399688E1,-2.593999803E-1,-1.226899981E0,3.921299934E0
3.097399688E1,-7.935999632E-1,-7.062000036E-1,1.352599978E0
3.099399844E1,8.506000042E-1,-4.463000000E-1,-1.374499917E0
3.102399688E1,1.981399894E0,-3.707999885E-1,-1.401899934E0
3.104399688E1,8.184999824E-1,-4.869999886E-1,-7.511999607E-1
3.106399688E1,-1.000999957E-1,-6.588999629E-1,-5.490999818E-1
3.108399844E1,-1.666999906E-1,-4.345999956E-1,-1.648000032E-1
3.110399844E1,4.645999968E-1,-3.032000065E-1,-5.730999708E-1
3.112399844E1,4.898999929E-1,-1.202999949E-1,-1.656999886E-1
3.114399844E1,-4.963999987E-1,-1.052000001E-1,-9.095999599E-1
3.116399844E1,-5.550999641E-1,1.310999990E-1,-2.044800043E0
3.118399844E1,-7.889999449E-2,3.244999945E-1,-1.330600023E0
3.120399844E1,2.045999914E-1,5.490999818E-1,-7.152000070E-1
3.122399844E1,1.319999993E-2,8.416999578E-1,-5.482999682E-1
3.125399688E1,-7.983999848E-1,1.022699952E0,-8.077999949E-1
3.127399688E1,-6.789000034E-1,9.512999654E-1,-2.942000031E-1
3.129399844E1,-2.056999952E-1,9.340999722E-1,9.999999404E-2
3.132399688E1,5.633000135E-1,7.281000018E-1,1.768299937E0
3.134399688E1,2.814999819E-1,9.679999948E-2,2.202699900E0
3.136399844E1,5.549999699E-2,-3.675999939E-1,1.475299954E0
3.139399688E1,-8.320000023E-2,-5.729999766E-2,6.667999625E-1
3.141399688E1,5.988999605E-1,-4.172999859E-1,1.737299919E0
3.143399844E1,4.096999764E-1,-5.934000015E-1,2.519199848E0
3.145399844E1,2.825999856E-1,-5.546999574E-1,1.394400001E0
3.147399844E1,4.711999893E-1,-1.684999913E-1,-7.741000056E-1
3.149399844E1,1.099900007E0,-4.542999864E-1,-1.115999937E0
3.151399844E1,1.129299998E0,-9.756999612E-1,3.772999942E-1
3.153399844E1,4.653999805E-1,-1.444299936E0,1.611599922E0
3.156399688E1,-4.217000008E-1,-1.603599906E0,8.382999897E-1
3.158399688E1,-1.616999954E-1,-8.823999763E-1,3.716999888E-1
3.160399688E1,1.155999973E-1,-2.588999867E-1,-5.509999767E-2
3.162399688E1,-2.639999986E-2,5.229999870E-2,-7.154999971E-1
3.164399688E1,-1.511999965E-1,5.151999593E-1,-1.364699960E0
3.166399688E1,-2.463999987E-1,9.371999502E-1,-1.552799940E0
3.168399688E1,-7.038999796E-1,9.483000040E-1,-1.134500027E0
3.170399688E1,-9.476999640E-1,9.243999720E-1,-5.766000152E-1
3.172399688E1,-1.103999987E-1,7.572000027E-1,-7.515999675E-1
3.174399688E1,7.707999945E-1,6.487999558E-1,-1.178900003E0
3.176399688E1,4.107999802E-1,7.024999857E-1,-9.878999591E-1
3.178399844E1,5.480000004E-2,5.313000083E-1,4.393999875E-1
3.181399688E1,-2.489999980E-1,3.739999980E-2,-1.656999886E-1
3.183399688E1,-4.439999908E-2,-4.693000019E-1,-2.041999996E-1
3.185399844E1,4.415999949E-1,-1.912999898E-1,-2.709999979E-1
3.188399688E1,-3.113999963E-1,1.454699993E0,1.498000026E-1
3.190399688E1,1.419000030E-1,-4.396999776E-1,3.867999911E-1
3.192399844E1,3.979999945E-2,-1.080799937E0,1.072399974E0
3.194399844E1,4.199999850E-3,-1.464100003E0,9.083999991E-1
3.196399844E1,1.375999898E-1,-8.107999563E-1,3.421000004E0
3.198399844E1,9.074999690E-1,-1.244599938E0,1.652799964E0
3.200399844E1,1.533999920E0,-1.189100027E0,1.224499941E0
3.202399844E1,1.543999910E-1,-4.864999950E-1,5.605999827E-1
3.204399844E1,-1.544999927E-1,-1.903999895E-1,1.057999954E-1
3.207399844E1,8.218999505E-1,2.631999850E-1,-4.863999784E-1
3.210399688E1,2.888999879E-1,5.299999714E-1,-1.277000010E-1
3.212399688E1,-2.682999969E-1,8.335999846E-1,-1.206799984E0
3.214399844E1,-2.339999937E-2,9.768999815E-1,-2.158699989E0
3.217399688E1,2.340999991E-1,1.035699964E0,-5.658000112E-1
3.219399688E1,5.209999904E-2,9.415999651E-1,1.474999934E-1
3.221400000E1,-2.918999791E-1,7.717999816E-1,-3.718999922E-1
3.224399844E1,3.191999793E-1,5.583999753E-1,-2.891999781E-1
3.226399844E1,-2.759999968E-2,6.582999825E-1,3.106999993E-1
3.228400000E1,-2.850999832E-1,1.067600012E0,6.945999861E-1
3.231399844E1,-1.228999943E-1,5.119999647E-1,9.539999962E-1
3.233399844E1,3.130000085E-2,-1.379999965E-1,2.233000040E0
3.235399844E1,-2.646999955E-1,-4.916999936E-1,2.946399927E0
3.237399844E1,-6.387999654E-1,3.316999972E-1,1.539499998E0
3.239399844E1,-2.659999952E-2,-5.733000040E-1,7.626000047E-1
3.242399844E1,2.459999919E-1,-7.551999688E-1,1.253999949E0
3.245399688E1,-8.066999912E-1,-2.388999909E-1,2.201000005E-1
3.247399844E1,-6.354999542E-1,-3.836999834E-1,-1.564999968E-1
3.249399844E1,5.988999605E-1,-6.086999774E-1,2.819999866E-2
3.252399688E1,1.009099960E0,-9.001999497E-1,5.827999711E-1
3.254399688E1,-2.032999992E-1,-6.683999896E-1,-5.083000064E-1
3.256399688E1,-1.161800027E0,-7.757999897E-1,-1.491699934E0
3.258399688E1,-1.196099997E0,-2.937999964E-1,-7.452999949E-1
3.260399688E1,-8.490999937E-1,3.981999755E-1,-7.902999520E-1
3.262399688E1,0.000000000E0,8.757999539E-1,-9.169999957E-1
3.264399844E1,-8.500000089E-2,9.925999641E-1,-5.573999882E-1
3.266399844E1,-2.226999998E-1,7.762999535E-1,-9.942999482E-1
3.268399844E1,-1.655000001E-1,1.149899960E0,-1.356899977E0
3.270399844E1,-2.072999924E-1,9.225999713E-1,-2.166300058E0
3.272399844E1,-3.790999949E-1,5.034999847E-1,-1.559000015E0
3.274399844E1,-1.612000018E-1,4.287000000E-1,-5.902000070E-1
3.276399844E1,-3.238999844E-1,3.062999845E-1,-2.325999886E-1
3.278399844E1,-6.577999592E-1,9.459999949E-2,3.010999858E-1
3.280399844E1,1.480000019E-1,-4.924999774E-1,6.611999869E-1
3.282399844E1,5.576999784E-1,-4.574999809E-1,1.315400004E0
3.284399844E1,-4.775999784E-1,6.789999604E-1,1.344999909E0
3.286399844E1,-7.592999935E-1,1.258799911E0,2.128999978E-1
3.288399844E1,1.117599964E0,-1.167999953E-1,-3.409999907E-1
3.291399688E1,1.685799956E0,-1.378299952E0,2.466599941E0
3.293399844E1,3.958999813E-1,-1.140799999E0,3.101099968E0
3.296399688E1,6.697999835E-1,-1.183099985E0,2.685999870E-1
3.298399688E1,1.039499998E0,-1.044000030E0,-1.679199934E0
3.300399844E1,9.721999764E-1,-8.805999756E-1,-1.194700003E0
3.303399688E1,4.903999865E-1,-5.900999904E-1,1.319999993E-2
3.305399688E1,5.723999739E-1,-2.698000073E-1,7.899999619E-1
3.307399844E1,3.290999830E-1,2.049999870E-2,8.166999817E-1
3.310399688E1,6.999999750E-4,6.723999977E-1,-8.384000063E-1
3.312399844E1,1.265999973E-1,1.141600013E0,-2.296200037E0
3.314399844E1,6.430000067E-2,1.578699946E0,-2.666800022E0
3.316399844E1,2.999999933E-2,1.337599993E0,-1.570899963E0
3.318400000E1,-8.489999920E-2,1.110000014E0,-1.611000001E-1
3.321399844E1,-7.033999562E-1,7.648999691E-1,2.836000025E-1
3.323399844E1,-3.942999840E-1,5.737000108E-1,5.446999669E-1
3.325399844E1,1.655000001E-1,3.357000053E-1,5.296999812E-1
3.327399844E1,-3.089999966E-2,2.915000021E-1,9.508000016E-1
3.329399844E1,-4.485999942E-1,4.690000042E-2,1.789699912E0
3.331399844E1,-5.209000111E-1,-6.455999613E-1,2.776499987E0
3.333399844E1,4.193999767E-1,-1.671999991E-1,2.352699995E0
3.335399844E1,7.287999988E-1,-3.208000064E-1,1.335299969E0
3.337399844E1,1.497200012E0,-1.018199921E0,9.353999496E-1
3.339399844E1,1.073300004E0,-8.310999870E-1,8.747999668E-1
3.341399844E1,1.371999979E-1,-7.292000055E-1,7.346999645E-1
3.343399844E1,-2.151999921E-1,-5.622999668E-1,2.929999828E-1
3.345399844E1,5.291999578E-1,-1.071499944E0,-5.020000041E-2
3.347402031E1,1.329699993E0,-6.958000064E-1,-3.075999916E-1
3.350399844E1,9.890999794E-1,-5.902999640E-1,1.069999952E-2
3.353399688E1,-6.480000019E-1,-3.801999986E-1,-4.643999934E-1
3.355399688E1,-1.231799960E0,-7.549999654E-2,-8.589999676E-1
3.357399844E1,-7.603999972E-1,1.277000010E-1,-7.430999875E-1
3.360399688E1,4.429999888E-1,6.661999822E-1,-1.420599937E0
3.362399688E1,1.169999987E-1,9.275999665E-1,-2.460500002E0
3.364399844E1,-3.698999882E-1,8.991000056E-1,-1.725199938E0
3.367399844E1,1.891999990E-1,2.102999985E-1,-1.505699992E0
3.370399688E1,5.629999638E-1,6.505999565E-1,-5.314999819E-1
3.372399844E1,3.569999933E-1,1.252000034E-1,-3.127999902E-1
3.375399688E1,-1.322000027E-1,-1.600499988E0,-5.604000092E-1
3.377399688E1,-6.017000079E-1,2.565000057E-1,1.517099977E0
3.379399688E1,-7.283999920E-1,8.427999616E-1,1.618199944E0
3.381399844E1,3.357000053E-1,-1.292099953E0,1.215600014E0
3.383399844E1,6.852999926E-1,-1.661000013E0,1.091099977E0
3.385399844E1,5.954999924E-1,3.664999902E-1,1.521099925E0
3.387399844E1,-4.957999885E-1,2.160599947E0,2.224900007E0
3.389399844E1,1.378000021E0,-8.404999971E-1,2.348799944E0
3.391399844E1,2.124599934E0,-3.659299850E0,1.684700012E0
3.393399844E1,8.782999516E-1,-2.267499924E0,1.210099936E0
3.395399844E1,-2.076999992E-1,-7.529000044E-1,8.727999926E-1
3.397399844E1,-7.317999601E-1,1.582899928E0,9.447999597E-1
3.399399844E1,4.688999951E-1,7.116999626E-1,-5.609999970E-2
3.401399844E1,1.136099935E0,-1.112100005E0,-1.885000020E-1
3.404399688E1,4.756999910E-1,-1.215499997E0,-7.935999632E-1
3.406399844E1,-5.059999824E-1,1.582999974E-1,-9.113999605E-1
3.408399844E1,-5.776000023E-1,1.398000002E0,-2.301100016E0
3.410399844E1,-2.944000065E-1,1.939499974E0,-2.337699890E0
3.412399844E1,2.380999923E-1,5.626999736E-1,-1.481499910E0
3.414399844E1,1.876000017E-1,3.946999907E-1,-1.828799963E0
3.417399688E1,-5.579000115E-1,1.673799992E0,-1.717299938E0
3.419399688E1,3.887999952E-1,8.119999766E-1,-7.231999636E-1
3.421399844E1,4.742999971E-1,5.372999907E-1,-1.960999966E-1
3.424399688E1,-3.348999918E-1,9.348999858E-1,2.266999930E-1
3.426399844E1,4.816999733E-1,6.715999842E-1,5.094000101E-1
3.428399844E1,9.202999473E-1,1.674999893E-1,1.033900023E0
3.431399688E1,-3.464999795E-1,-1.497000009E-1,1.003799915E0
3.433399688E1,-1.223699927E0,-2.495999932E-1,1.926399946E0
3.435399844E1,-8.721999526E-1,-8.700999618E-1,3.146099806E0
3.438399844E1,-4.562999904E-1,-6.952999830E-1,1.327499986E0
3.440399844E1,-1.938999891E-1,-9.383999705E-1,7.179999948E-1
3.442399844E1,2.400000021E-2,-1.401799917E0,2.438799858E0
3.445399688E1,-7.657999992E-1,-1.091699958E0,1.778299928E0
3.447402188E1,-4.163999856E-1,-1.493499994E0,3.109999932E-2
3.450399844E1,-6.380999684E-1,-6.850000024E-1,-8.337999582E-1
3.453399688E1,-3.472999930E-1,1.976999938E-1,-3.155999780E-1
3.455399688E1,3.986999989E-1,4.927999973E-1,-1.875000000E-1
3.457399844E1,3.172999918E-1,5.327999592E-1,-6.714000106E-1
3.460399688E1,5.200000014E-3,1.139799953E0,-1.778199911E0
3.462399688E1,1.740999967E-1,1.514699936E0,-2.526499987E0
3.464399844E1,4.546999931E-1,1.567199945E0,-2.188299894E0
3.467403125E1,4.196999967E-1,1.221999973E-1,1.018299937E0
3.470399844E1,-5.799999926E-3,4.129999876E-1,3.037999868E-1
3.473400000E1,1.700999886E-1,5.884999633E-1,-7.235999703E-1
3.476399688E1,1.819999963E-1,1.318999976E-1,5.497999787E-1
3.478400313E1,3.594999909E-1,-6.980999708E-1,1.636699915E0
3.481399688E1,6.049999967E-2,3.955000043E-1,4.142999947E-1
3.483399844E1,2.439000010E-1,7.445999980E-1,2.265999913E-1
3.485399844E1,6.295999885E-1,2.999999851E-4,1.244099975E0
3.487400156E1,1.194700003E0,-9.063999653E-1,1.976199985E0
3.490399844E1,4.271000028E-1,-7.540999651E-1,6.117999554E-1
3.492400312E1,6.078999639E-1,-6.829999685E-1,-6.164999604E-1
3.495399844E1,5.615000129E-1,-1.035200000E0,-3.605999947E-1
3.497400312E1,-3.287000060E-1,-1.371500015E0,6.997999549E-1
3.500399844E1,-2.795000076E-1,-1.014999986E0,-6.309999526E-2
3.502400312E1,1.533000022E-1,-8.070999980E-1,-1.942999959E-1
3.505399844E1,-1.979999989E-2,7.729999721E-2,-6.079999804E-1
3.507400313E1,-4.364999831E-1,5.649999976E-1,-1.598199964E0
3.510399688E1,-3.024999797E-1,1.083299994E0,-8.482999802E-1
3.512400000E1,5.289999843E-1,7.303999662E-1,-9.487999678E-1
3.515399844E1,7.641999722E-1,9.809999466E-1,-9.194999933E-1
3.518399688E1,-1.080999970E-1,1.217800021E0,-4.189999998E-1
3.520399688E1,-3.053999841E-1,1.183799982E0,-3.687999845E-1
3.522400000E1,-5.350000039E-2,9.512999654E-1,2.703000009E-1
3.525399844E1,2.419999987E-1,7.075999975E-1,9.291999936E-1
3.527400156E1,2.280999869E-1,4.718999863E-1,1.204900026E0
3.530399844E1,-4.999999888E-3,-2.276999950E-1,1.685400009E0
3.532399844E1,1.069999952E-2,-5.200999975E-1,2.450399876E0
3.534399844E1,3.807999790E-1,-1.030900002E0,3.421899796E0
3.536400312E1,6.448999643E-1,-1.612699986E0,2.862699986E0
3.539399844E1,-1.768999994E-1,-7.838999629E-1,1.823000014E-1
3.541399844E1,-2.264999896E-1,-4.370999932E-1,-9.341999888E-1
3.543399844E1,5.681999922E-1,-5.371999741E-1,-7.900999784E-1
3.545399844E1,8.851000071E-1,-9.171999693E-1,2.557999790E-1
3.547399844E1,7.328999639E-1,-1.408900023E0,3.555999994E-1
3.549399844E1,-5.240000039E-2,-1.365099907E0,-1.550000012E-1
3.551400156E1,-8.868999481E-1,-8.471999764E-1,-1.004599929E0
3.554399844E1,-8.601999879E-1,2.699999884E-2,-1.401999950E0
3.556400469E1,-5.453000069E-1,4.439999759E-1,-1.510299921E0
3.559399844E1,2.500999868E-1,5.638999939E-1,-1.514400005E0
3.561399844E1,-8.199999481E-2,6.286000013E-1,-1.123499990E0
3.563399844E1,6.769999862E-2,6.251999736E-1,-1.199999928E0
3.565400156E1,1.369999945E-1,7.436999679E-1,-1.128799915E0
3.568399844E1,1.139999926E-2,5.297999978E-1,-5.127999783E-1
3.570400312E1,-4.799000025E-1,6.119999886E-1,-4.259999990E-1
3.573399688E1,3.046000004E-1,4.678999782E-1,-2.976999879E-1
3.575400156E1,6.663999557E-1,4.371999800E-1,9.868999720E-1
3.578399844E1,6.769999862E-2,2.461999953E-1,1.727299929E0
3.580400469E1,-4.763999879E-1,8.594999909E-1,2.260999978E-1
3.583399688E1,1.342700005E0,2.407999933E-1,1.712999940E-1
3.585399844E1,1.177199960E0,-5.310999751E-1,3.487699986E0
3.588400000E1,3.928000033E-1,-1.011899948E0,3.143999815E0
3.591399844E1,1.042500019E0,-9.769999981E-1,-1.450999975E-1
3.593399844E1,1.048300028E0,-9.188999534E-1,3.044999838E-1
3.595399844E1,4.117999971E-1,-4.484999776E-1,1.250899911E0
3.598399688E1,5.701000094E-1,-3.323999941E-1,-1.243999973E-1
3.600399844E1,-5.509999767E-2,2.710999846E-1,-5.855000019E-1
3.603399688E1,-3.094999790E-1,4.519999921E-1,-8.612999916E-1
3.605399688E1,-2.256999910E-1,7.421999574E-1,-1.636099935E0
3.607399844E1,1.281999946E-1,9.693999887E-1,-2.224099874E0
3.610399688E1,4.702999890E-1,1.220899940E0,-2.056099892E0
3.612399688E1,5.609999895E-1,9.726999998E-1,-1.761199951E0
3.614399844E1,1.986999959E-1,9.277999997E-1,-1.524699926E0
3.617399688E1,-2.866999805E-1,7.573999763E-1,-9.330999851E-1
3.619399688E1,-4.269999862E-1,8.319000006E-1,-5.970000029E-1
3.621399844E1,-2.251999974E-1,4.865999818E-1,3.199999779E-2
3.624399688E1,-1.269999985E-2,3.269999921E-1,8.294000030E-1
3.626399844E1,7.849999517E-2,1.816999912E-1,1.497999907E0
3.628399844E1,4.399999976E-3,-1.671999991E-1,2.254799843E0
3.631399688E1,-3.102000058E-1,-4.457999766E-1,1.288800001E0
3.633399688E1,-2.324999869E-1,-1.169700027E0,2.675400019E0
3.635399844E1,-1.091599941E0,-7.107999921E-1,3.114599943E0
3.638399688E1,-2.657999992E-1,-1.087299943E0,1.205399990E0
3.640399688E1,4.713999927E-1,-8.143999577E-1,-2.299999893E-1
3.642399688E1,6.125000119E-1,-1.305199981E0,1.370999962E-1
3.644399688E1,2.586999834E-1,-1.118000031E0,1.346099973E0
3.646399844E1,7.449999452E-2,-1.349900007E0,1.309499979E0
3.648400156E1,-1.030000020E-2,-1.170199990E0,1.697999984E-1
3.651399688E1,2.649999969E-2,-3.264999986E-1,-7.760999799E-1
3.653399688E1,4.039999843E-2,3.534999788E-1,-4.285999835E-1
3.655399688E1,4.684000015E-1,7.318999767E-1,-1.961999983E-1
3.657399844E1,8.296999931E-1,9.202999473E-1,-6.969999522E-2
3.660399688E1,8.689999580E-1,1.098899961E0,-8.330000043E-1
3.662399688E1,7.846999764E-1,1.141999960E0,-1.379299998E0
3.664399844E1,3.768999875E-1,1.053499937E0,-1.229399920E0
3.667399688E1,2.316999882E-1,7.554999590E-1,-7.727999687E-1
3.669399688E1,1.921999902E-1,5.533999801E-1,-6.973999739E-1
3.671399844E1,3.014000058E-1,5.759999752E-1,-5.037999749E-1
3.673400000E1,5.112999678E-1,2.088999897E-1,1.978999972E-1
3.676399688E1,3.131999969E-1,-3.881999850E-1,1.033800006E0
3.678399844E1,1.909999922E-2,-2.387999892E-1,6.936999559E-1
3.681399688E1,-8.209999651E-2,1.367900014E0,-8.136999607E-1
3.683399688E1,1.224099994E0,7.155999541E-1,-1.507999897E-1
3.685399844E1,1.775999904E0,-5.422999859E-1,2.555399895E0
3.687400000E1,3.899999857E-1,-1.081300020E0,4.285299778E0
3.690399844E1,-1.948999912E-1,-1.590600014E0,5.180999637E-1
3.692399844E1,3.999999899E-4,-8.896999955E-1,-1.205799937E0
3.694399844E1,1.340999961E0,-1.349200010E0,-1.576200008E0
3.696399844E1,1.059999943E0,-1.144899964E0,-1.765999943E-1
3.698399844E1,6.301000118E-1,-7.723000050E-1,-1.777999997E-1
3.700399844E1,4.457999766E-1,-8.016999960E-1,-4.659999907E-1
3.702399844E1,-3.895999789E-1,-2.754999995E-1,-5.857999921E-1
3.704399844E1,-4.739999771E-2,1.199999973E-1,-1.281799912E0
3.706399844E1,4.432999790E-1,3.330000043E-1,-2.396299839E0
3.708400000E1,6.269999743E-1,5.112000108E-1,-2.795799971E0
3.711399844E1,5.408999920E-1,6.847999692E-1,-9.648000002E-1
3.713399844E1,3.634999990E-1,7.411999702E-1,-1.250000000E-1
3.715399844E1,2.545000017E-1,7.099999785E-1,-3.115999997E-1
3.717399844E1,-5.447999835E-1,9.656999707E-1,-4.580000043E-2
3.719399844E1,-6.584999561E-1,9.846999645E-1,4.253000021E-1
3.721399844E1,-4.421999753E-1,1.007599950E0,8.557999730E-1
3.723399844E1,3.480000049E-2,8.992999792E-1,1.490700006E0
3.725399844E1,7.565000057E-1,2.628999949E-1,1.891799927E0
3.727399844E1,1.330000013E-1,5.449999869E-2,2.335500002E0
3.729399844E1,-2.985999882E-1,1.030000020E-2,1.576999903E0
3.732399844E1,-2.368999869E-1,-1.450999975E-1,9.516999722E-1
3.734399844E1,2.009999901E-1,-1.612000018E-1,1.492900014E0
3.736399844E1,5.078999996E-1,-2.891999781E-1,1.844799995E0
3.739399844E1,2.080999911E-1,-3.355999887E-1,-8.999999845E-4
3.741399844E1,1.061999947E-1,-6.735000014E-1,-4.878000021E-1
3.743399844E1,9.089999646E-2,-9.217999578E-1,-1.801999956E-1
3.746399688E1,1.753999889E-1,-1.288399935E0,4.913999736E-1
3.748399844E1,-9.290000051E-2,-1.182699919E0,4.237999916E-1
3.750399844E1,-3.461000025E-1,-8.557999730E-1,8.419999480E-2
3.752399844E1,-4.475999773E-1,-3.339999914E-1,-3.908999860E-1
3.754399844E1,-1.577999890E-1,1.085999981E-1,-1.196099997E0
3.756399844E1,1.572999954E-1,6.082000136E-1,-1.763700008E0
3.758399844E1,3.995999992E-1,7.416999936E-1,-1.958099961E0
3.761399844E1,3.667999804E-1,8.560000062E-1,-1.089299917E0
3.763399844E1,2.728999853E-1,5.469999909E-1,-9.282999635E-1
3.765399844E1,2.056999952E-1,4.021999836E-1,-1.156899929E0
3.767401406E1,2.124999911E-1,5.242999792E-1,-1.656700015E0
3.770399844E1,4.351999760E-1,3.544999957E-1,-1.233099937E0
3.772399844E1,1.326999962E-1,1.269000024E-1,6.960000098E-2
3.774399844E1,-2.840000018E-2,-4.928999841E-1,1.169499993E0
3.776399844E1,-1.784999967E-1,-7.174999714E-1,1.514899969E0
3.778399844E1,-4.162999988E-1,-4.649999738E-1,1.122499943E0
3.780399844E1,-5.422999859E-1,5.572000146E-1,-2.151999921E-1
3.782399844E1,2.645999789E-1,3.430999815E-1,-5.766999722E-1
3.784399844E1,1.214699984E0,-1.226099968E0,1.884599924E0
3.786399844E1,-1.799999969E-3,-1.263700008E0,4.326799870E0
3.788399844E1,-5.056999922E-1,-1.422099948E0,3.700399876E0
3.790399844E1,1.917999983E-1,-1.157199979E0,9.754999876E-1
3.792399844E1,1.106799960E0,-1.134799957E0,-1.094999984E-1
3.794399844E1,1.233199954E0,-8.321999907E-1,2.291999906E-1
3.796399844E1,7.032999992E-1,-7.368999720E-1,9.389999509E-1
3.798399844E1,-2.999999933E-2,-4.026999772E-1,4.219000041E-1
3.800399844E1,6.369999796E-2,-3.050000072E-1,-4.880999923E-1
3.802399844E1,2.987999916E-1,1.436000019E-1,-1.219399929E0
3.804399844E1,8.107999563E-1,1.282999963E-1,-1.643999934E0
3.806399844E1,6.485999823E-1,4.201000035E-1,-1.810699940E0
3.808399844E1,6.177999973E-1,3.913999796E-1,-1.787099957E0
3.810399844E1,8.754000068E-1,3.888999820E-1,-1.842399955E0
3.812399844E1,8.341999650E-1,3.465999961E-1,-1.781999946E0
3.814399844E1,7.937999964E-1,3.524000049E-1,-1.635299921E0
3.816399844E1,6.110999584E-1,4.526999891E-1,-3.195999861E-1
3.818399844E1,1.243999973E-1,5.616999865E-1,8.360999823E-1
3.820399844E1,-6.518999934E-1,5.992000103E-1,-1.589999944E-1
3.822400000E1,-8.839999884E-2,5.151000023E-1,3.810000047E-2
3.825399844E1,1.739999950E-1,4.677999914E-1,1.793599963E0
3.827399844E1,-2.048999965E-1,-8.609999716E-2,2.275300026E0
3.829399844E1,-1.070400000E0,-3.030999899E-1,2.123199940E0
3.831399844E1,-1.078400016E0,-1.386999935E-1,1.666799903E0
3.833399844E1,-3.920999765E-1,-2.624999881E-1,2.409899950E0
3.835399844E1,-1.990000010E-1,2.917999923E-1,3.519699812E0
3.837399844E1,1.017000005E-1,4.711999893E-1,2.848599911E0
3.839399844E1,3.753999770E-1,5.999999866E-2,1.199899912E0
3.841400469E1,3.412999809E-1,4.659999907E-1,-1.228000000E-1
3.844399844E1,2.857999802E-1,2.402999997E-1,1.615999937E-1
3.846400625E1,4.120000005E-1,-1.087999940E-1,5.038999915E-1
3.849399844E1,4.156000018E-1,-7.784999609E-1,1.149799943E0
3.851400625E1,-2.617000043E-1,-3.480999768E-1,2.522000074E-1
3.854399844E1,-2.809999883E-1,1.121999994E-1,-1.539499998E0
3.856400312E1,-2.066999972E-1,7.639999986E-1,-1.884899974E0
3.859399688E1,5.482999682E-1,4.785999954E-1,-1.540499926E0
3.861399688E1,3.242000043E-1,8.689000010E-1,-1.433399916E0
3.863399688E1,5.218999982E-1,5.562999845E-1,-1.379299998E0
3.865400312E1,7.080999613E-1,3.789999783E-1,-1.485199928E0
3.868399688E1,3.163000047E-1,6.301000118E-1,-8.919000030E-1
3.870400156E1,2.039999962E-1,1.993999928E-1,-4.634999931E-1
3.873399688E1,1.289999951E-2,2.789999917E-2,3.254999816E-1
3.875400000E1,6.732999682E-1,-2.897000015E-1,4.043999910E-1
3.878399844E1,4.251999855E-1,-4.305999875E-1,2.976000011E-1
3.880400156E1,-6.529999524E-2,1.513999999E-1,-6.895999908E-1
3.883399688E1,7.800000161E-2,-2.757000029E-1,1.345499992E0
3.885400313E1,-1.855999976E-1,-9.113000035E-1,4.154299736E0
3.888399688E1,-1.473999918E-1,-1.686800003E0,2.136199951E0
3.890399688E1,1.925999969E-1,-1.057699919E0,1.801999956E-1
3.892399844E1,8.057000041E-1,-9.675999880E-1,-1.133299947E0
3.894399844E1,7.281000018E-1,-9.343999624E-1,-3.007999957E-1
3.896399844E1,2.831999958E-1,-1.115399957E0,9.470999837E-1
3.898399844E1,-4.384000003E-1,-1.654899955E0,-1.750899911E0
3.900399844E1,-6.179999709E-1,-2.669000030E-1,-1.286000013E-1
3.902399844E1,-4.165999889E-1,8.139999956E-2,4.931999743E-1
3.904399844E1,1.370000001E-2,1.375000030E-1,1.200999990E-1
3.906400469E1,-2.919999957E-1,7.879999876E-1,-1.192700028E0
3.909399844E1,-1.554999948E-1,1.447099924E0,-1.689700007E0
3.911400469E1,2.861999869E-1,1.039399981E0,-1.179600000E0
3.914399844E1,3.996999860E-1,1.000299931E0,-6.635000110E-1
3.916399844E1,-1.524000019E-1,8.928999901E-1,-7.599999662E-3
3.918399844E1,-3.874999881E-1,7.560999990E-1,-1.442999989E-1
3.920400312E1,-2.184999883E-1,5.891000032E-1,-4.079999924E-1
3.923399844E1,-4.578999877E-1,7.012999654E-1,4.750999808E-1
3.925400469E1,-1.759999990E-1,1.630000025E-1,1.604099989E0
3.928399844E1,-3.064000010E-1,2.239999920E-2,1.583199978E0
3.930399844E1,1.612999886E-1,-5.365999937E-1,8.503999710E-1
3.932399844E1,-5.372999907E-1,-9.182999730E-1,2.364599943E0
3.934399844E1,-6.042999625E-1,-9.275999665E-1,2.806699991E0
3.936399844E1,-1.731999964E-1,-1.199499965E0,1.841899991E0
3.938399844E1,-1.721999943E-1,-8.962999582E-1,1.763999909E-1
3.940400312E1,-5.769999698E-2,-2.908999920E-1,-4.908999801E-1
3.943399844E1,5.816000104E-1,-6.416000128E-1,2.140999883E-1
3.945399844E1,3.328000009E-1,-9.884999990E-1,5.401999950E-1
3.947399844E1,-1.801999956E-1,-1.506999969E0,5.873999596E-1
3.949399844E1,-6.626999974E-1,-7.805999517E-1,-1.128999963E-1
3.951399844E1,-1.363999963E0,1.000999957E-1,-3.485399961E0
3.953399844E1,-3.695999980E-1,8.749999851E-2,-1.153599977E0
3.955399844E1,-4.273999929E-1,8.797999620E-1,-4.556999803E-1
3.957399844E1,2.179999948E-1,8.815000057E-1,-1.011399984E0
3.959400156E1,6.571999788E-1,7.511999607E-1,-2.273299932E0
3.962399844E1,-8.590000123E-2,7.858999968E-1,-1.586300015E0
3.964399844E1,-1.640999913E-1,6.482999921E-1,-4.438000023E-1
3.966403281E1,2.419999987E-1,5.564000010E-1,3.791999817E-1
3.969400469E1,3.580999970E-1,5.015000105E-1,1.042999998E-1
3.972399844E1,1.092999950E-1,2.263000011E-1,-2.195999920E-1
3.974400000E1,3.925999999E-1,-2.107999921E-1,6.776999831E-1
3.977399844E1,4.154999852E-1,-3.263999820E-1,7.234999537E-1
3.979400469E1,-5.029999837E-2,-9.693999887E-1,1.933099985E0
3.982399844E1,-9.519999623E-1,-1.040400028E0,5.276599884E0
3.984400000E1,-3.603999913E-1,-1.234599948E0,2.129699945E0
3.986400000E1,-9.200000018E-2,-1.002599955E0,3.928000033E-1
3.988400469E1,5.968999863E-1,-4.492999911E-1,-7.932999730E-1
3.991399688E1,1.227499962E0,-2.840000018E-2,6.154999733E-1
3.993399844E1,1.648199916E0,-4.833999872E-1,1.384099960E0
3.995399844E1,1.527199984E0,-4.431999922E-1,8.051999807E-1
3.997399844E1,8.639000058E-1,1.942999959E-1,-6.199999712E-3
3.999399844E1,2.960000001E-2,4.357999861E-1,-5.881999731E-1
4.001399844E1,-1.307999939E-1,7.696999907E-1,-1.109899998E0
4.003399844E1,-3.799999831E-3,9.202999473E-1,-1.394999981E0
4.005399844E1,2.424999923E-1,8.671999574E-1,-1.951900005E0
4.007399844E1,2.154999971E-1,9.416999817E-1,-1.854299903E0
4.009399844E1,2.924999893E-1,7.958999872E-1,-1.580500007E0
4.011399844E1,2.755999863E-1,6.816999912E-1,-1.626399994E0
4.013400312E1,4.359999895E-1,6.510999799E-1,-1.592399955E0
4.016399844E1,3.994999826E-1,4.833999872E-1,-3.359999955E-1
4.018400156E1,2.383999974E-1,4.021999836E-1,-1.275999993E-1
4.021399844E1,1.770000011E-1,1.237000003E-1,1.351999938E-1
4.023400000E1,2.228000015E-1,4.326999784E-1,2.421000004E-1
4.026399844E1,5.303999782E-1,2.818999887E-1,5.264999866E-1
4.028399844E1,5.174999833E-1,1.035999954E-1,8.763999939E-1
4.030399844E1,2.570999861E-1,-5.972999930E-1,2.876699924E0
4.032400313E1,2.919999957E-1,-1.231299996E0,2.820400000E0
4.035399688E1,6.929999590E-1,-9.727999568E-1,-1.529999916E-2
4.037399844E1,6.017000079E-1,-7.272999883E-1,-1.149799943E0
4.040399844E1,3.881999850E-1,-9.659000039E-1,8.278999925E-1
4.043399688E1,4.641999900E-1,-1.364899993E0,2.076499939E0
4.045399688E1,-4.600000102E-3,-9.296000004E-1,8.686999679E-1
4.047399688E1,-3.969999850E-1,-5.396999717E-1,-6.047999859E-1
4.049399688E1,-1.402999908E-1,2.232999951E-1,-1.572099924E0
4.051399844E1,1.774999946E-1,6.923999786E-1,-9.617999792E-1
4.053399844E1,1.815999895E-1,1.005900025E0,-2.268999964E-1
4.055399844E1,3.155999780E-1,7.282999754E-1,-7.189999521E-2
4.057399844E1,-5.759999901E-2,9.028999805E-1,-1.277899981E0
4.059399844E1,2.273999900E-1,5.123000145E-1,-1.586599946E0
4.061399844E1,5.889999866E-2,5.597999692E-1,-9.641999602E-1
4.064399844E1,2.181999981E-1,4.143999815E-1,5.016999841E-1
4.066399844E1,1.034999937E-1,5.530999899E-1,2.640999854E-1
4.068399844E1,4.201999903E-1,-8.100000024E-2,-4.332999885E-1
4.071399844E1,9.820000082E-2,-1.491999924E-1,5.830999613E-1
4.073400000E1,4.010999799E-1,-6.148999929E-1,1.278399944E0
4.076399844E1,3.058999777E-1,7.608000040E-1,-4.362999797E-1
4.078399844E1,4.896999896E-1,6.169999838E-1,6.979999691E-2
4.080399844E1,8.679999411E-2,9.229999781E-2,2.233999968E0
4.083399844E1,3.355000019E-1,-9.253000021E-1,2.878099918E0
4.085399844E1,7.031999826E-1,-8.720999956E-1,2.881000042E-1
4.087399844E1,7.067999840E-1,-8.032000065E-1,-1.753000021E-1
4.089399844E1,8.407999873E-1,-1.009999990E0,3.289999813E-2
4.092399688E1,3.416000009E-1,-1.304899931E0,-1.890899897E0
4.094399688E1,-4.633999765E-1,-1.230299950E0,-1.632299900E0
4.096400000E1,-6.176999807E-1,-5.331000090E-1,8.773999810E-1
4.099399688E1,-9.709999710E-2,-3.355000019E-1,8.801999688E-1
4.101400156E1,5.409999937E-2,7.780999541E-1,-1.137799978E0
4.104399844E1,2.374999970E-1,1.305099964E0,-2.624399900E0
4.106400625E1,2.762999833E-1,1.221199989E0,-1.732100010E0
4.109399844E1,3.127000034E-1,1.309299946E0,-1.947099924E0
4.111400625E1,-2.836999893E-1,1.495499969E0,-1.559799910E0
4.114399844E1,-1.184999943E-1,1.024299979E0,2.285999954E-1
4.116400312E1,-1.456999928E-1,8.983999491E-1,1.025200009E0
4.119400000E1,9.409999847E-2,7.642999887E-1,1.897099972E0
4.121400000E1,-9.609999508E-2,5.819000006E-1,1.864099979E0
4.124399844E1,2.067999989E-1,1.465999931E-1,1.998999953E0
4.126402344E1,4.319999814E-1,6.509999931E-2,8.768000007E-1
4.129400000E1,5.499999970E-2,-1.088999957E-1,7.912999988E-1
4.132399844E1,2.226999998E-1,-2.842999995E-1,5.249999836E-2
4.134399844E1,8.734999895E-1,-5.554000139E-1,-7.973999977E-1
4.136399844E1,1.006600022E0,-1.096499920E0,-2.615999877E-1
4.138399844E1,9.122999907E-1,-1.545399904E0,7.994999886E-1
4.140400781E1,6.536999941E-1,-1.826699972E0,1.272300005E0
4.143400000E1,3.665999770E-1,-1.413200021E0,3.910000026E-1
4.145400000E1,1.005999967E-1,-1.928000003E-1,-2.308999896E-1
4.148399844E1,3.330000043E-1,8.027999997E-1,-6.923999786E-1
4.150400625E1,5.819000006E-1,7.412999868E-1,-1.306499958E0
4.153399844E1,6.749999523E-2,4.606999755E-1,-1.372799993E0
4.155399844E1,4.914999902E-1,3.720000014E-2,-1.546100020E0
4.157399844E1,3.892999887E-1,-1.776999980E-1,-8.156999946E-1
4.159399844E1,1.820999980E-1,-4.519999772E-2,-4.593999982E-1
4.161399844E1,3.843999803E-1,-3.048999906E-1,1.428000033E-1
4.163399844E1,-1.502999961E-1,-6.229999661E-2,4.642999768E-1
4.165400312E1,2.737999856E-1,-3.529999852E-1,1.433999985E-1
4.168399844E1,1.449100018E0,6.753000021E-1,1.634999961E-1
4.170399844E1,2.040199995E0,1.815000027E-1,2.526399851E0
4.172399844E1,9.187999964E-1,-6.176999807E-1,4.851799965E0
4.174399844E1,8.630000055E-2,-8.166999817E-1,3.712599993E0
4.176399844E1,5.232999921E-1,-9.840999842E-1,1.956200004E0
4.178399844E1,6.189999580E-1,3.037000000E-1,3.332999945E-1
4.180399844E1,1.264299989E0,6.103000045E-1,-6.972000003E-1
4.182399844E1,1.222700000E0,5.748999715E-1,2.583999932E-1
4.184399844E1,6.674000025E-1,1.542000026E-1,1.122699976E0
4.186402656E1,-3.780999780E-1,-1.242999956E-1,8.981999755E-1
4.189399844E1,-6.379999965E-2,4.699999932E-3,-6.741999984E-1
4.191399844E1,2.689000070E-1,5.196999907E-1,-1.588999987E0
4.193399844E1,1.748999953E-1,1.256299973E0,-1.531599998E0
4.195399844E1,1.260000020E-1,1.246899962E0,-1.219699979E0
4.197399844E1,-1.008000001E-1,9.029999971E-1,-8.601999879E-1
4.199399844E1,2.849999964E-1,3.782999814E-1,-1.146799922E0
4.201399844E1,5.447999835E-1,2.584999800E-1,-1.184999943E0
4.203399844E1,2.006999999E-1,9.149999619E-1,-2.955999970E-1
4.206399688E1,2.656999826E-1,7.114999890E-1,3.298999965E-1
4.208399844E1,5.480999947E-1,-1.202999949E-1,6.337999701E-1
4.211399688E1,-1.823000014E-1,2.309999987E-2,1.477999926E0
4.213399688E1,-9.682999849E-1,8.345999718E-1,1.500699997E0
4.215399844E1,-4.680999815E-1,9.519999474E-2,2.048599958E0
4.218399688E1,7.818999887E-1,-7.426999807E-1,6.413999796E-1
4.220399844E1,1.595999897E-1,-9.100999832E-1,-4.434999824E-1
4.223399688E1,-3.236999810E-1,-1.602399945E0,-1.467499971E0
4.225399688E1,-2.439999878E-1,-9.418999553E-1,-3.251000047E-1
4.227399688E1,-8.003999591E-1,9.955999851E-1,-1.699000001E-1
4.229399844E1,-6.211000085E-1,1.513999939E0,1.138999984E-1
4.232399688E1,2.003999949E-1,-1.153499961E0,-2.087899923E0
4.234399688E1,-5.790000036E-2,-8.039000034E-1,-3.016099930E0
4.236399844E1,6.679999828E-2,-2.081099987E0,2.620000020E-2
4.239399688E1,-9.170999527E-1,1.173900008E0,-1.345499992E0
4.241399844E1,-5.038999915E-1,2.129899979E0,-7.736999989E-1
4.243399844E1,-7.141999602E-1,1.436699986E0,-9.707999825E-1
4.245399844E1,-2.131999880E-1,4.687999785E-1,-1.130499959E0
4.247399844E1,-1.265999973E-1,1.764999926E-1,-1.202399969E0
4.249399844E1,1.437000036E-1,8.233000040E-1,-2.538000047E-1
4.251399844E1,-1.279999912E-1,1.059399962E0,-1.989999972E-2
4.253399844E1,-5.816999674E-1,4.315999746E-1,-7.233999968E-1
4.256399688E1,-6.759999692E-2,-3.319999874E-1,3.310000002E-1
4.258399688E1,-5.169999972E-2,-5.759999752E-1,1.572799921E0
4.260399844E1,-7.828999758E-1,1.380999982E-1,1.523399949E0
4.262399844E1,-1.017599940E0,1.460699916E0,1.484099984E0
4.264399844E1,6.646999717E-1,-2.653000057E-1,2.067999840E0
4.266399844E1,1.074900031E0,-1.679799914E0,2.759599924E0
4.268399844E1,-3.598999977E-1,-9.268999696E-1,1.896600008E0
4.270399844E1,-5.297999978E-1,-3.231999874E-1,-1.810999960E-1
4.272399844E1,8.417999744E-1,-1.110499978E0,-1.621999890E-1
4.274399844E1,1.086899996E0,-7.385999560E-1,-1.288299918E0
4.276399844E1,6.412999630E-1,-5.812000036E-1,-1.565599918E0
4.278399844E1,1.432999969E-1,-5.647999644E-1,-1.333899975E0
4.280399844E1,-4.745999873E-1,2.579999901E-2,-5.235999823E-1
4.282399844E1,-9.705999494E-1,1.843999922E-1,7.840000093E-2
4.284399844E1,-3.950999975E-1,1.601999998E-1,-6.013999581E-1
4.286399844E1,-1.629000008E-1,3.407000005E-1,-2.085099936E0
4.288399844E1,-1.750999987E-1,5.924000144E-1,-3.117499828E0
4.291399688E1,-5.662999749E-1,4.122999907E-1,-1.792299986E0
4.293399844E1,-8.581999540E-1,6.886000037E-1,-1.429000020E0
4.296399688E1,-2.155999988E-1,9.474999905E-1,-7.799999788E-3
4.298399688E1,-2.859999985E-2,9.847999811E-1,1.062199950E0
4.300399844E1,-2.624999881E-1,7.306999564E-1,9.750999808E-1
4.303399688E1,-1.842999905E-1,5.029999614E-1,2.170199871E0
4.305399688E1,-1.815000027E-1,-1.446999907E-1,4.133199692E0
4.307399844E1,-3.975999951E-1,-1.761000007E-1,4.079599857E0
4.310399688E1,1.128799915E0,-5.047999620E-1,3.921000004E0
4.312399688E1,1.470600009E0,-1.093500018E0,3.094799995E0
4.314399844E1,-5.601999760E-1,-4.579999745E-1,2.626999855E0
4.317399688E1,-2.902999818E-1,-6.550999880E-1,2.653999925E-1
4.319399688E1,-3.445000052E-1,-3.468999863E-1,-1.067999974E-1
4.321399688E1,1.103999987E-1,-1.562999934E-1,6.118999720E-1
4.323399688E1,2.911999822E-1,-5.532000065E-1,3.181000054E-1
4.325399688E1,-3.305999935E-1,-2.169999927E-1,-1.442699909E0
4.327400938E1,-7.798999548E-1,3.500000015E-2,-2.233899832E0
4.330399688E1,-9.375999570E-1,-2.096999884E-1,-3.261999846E0
4.332399688E1,-8.350999951E-1,1.045999974E-1,-2.957099915E0
4.334399688E1,-4.210000038E-1,1.460999995E-1,-2.686699867E0
4.336399844E1,-4.921999872E-1,4.345999956E-1,-2.796000004E0
4.339399688E1,-3.610999882E-1,5.507999659E-1,-2.845899820E0
4.341399688E1,-1.810999960E-1,5.527999997E-1,-2.182899952E0
4.343399844E1,2.854000032E-1,6.761999726E-1,-9.032999873E-1
4.346399688E1,6.237999797E-1,6.469999999E-2,1.355899930E0
4.348399688E1,-2.247999907E-1,1.965999901E-1,1.306599975E0
4.350399844E1,-2.924999893E-1,-3.199999919E-3,9.672999978E-1
4.353399688E1,7.209999561E-1,-5.593000054E-1,1.249899983E0
4.355399688E1,2.493999898E-1,-2.316000015E-1,1.547500014E0
4.357399844E1,-1.027199984E0,9.633999467E-1,6.870999932E-1
4.360399688E1,1.009799957E0,2.197999954E-1,1.600899935E0
4.362399688E1,2.428099871E0,-1.093899965E0,2.294600010E0
4.364399844E1,1.111999989E0,-1.258799911E0,2.888900042E0
4.366399844E1,1.990000010E-1,-1.497799993E0,2.402400017E0
4.369399844E1,2.168999910E-1,-1.709100008E0,-2.660000026E-1
4.371399844E1,1.679999977E-1,-8.719999790E-1,-1.626599908E0
4.374399688E1,1.034600019E0,-5.877000093E-1,-4.833000004E-1
4.376399688E1,1.199299932E0,-5.478999615E-1,4.435999990E-1
4.378399688E1,6.696999669E-1,-5.929999799E-2,1.966999918E-1
4.380399844E1,-3.847999871E-1,5.009999871E-1,4.629999772E-2
4.383399844E1,-7.731999755E-1,9.917999506E-1,-6.714000106E-1
4.386399844E1,2.658999860E-1,1.280900002E0,-1.718699932E0
4.389399688E1,5.516999960E-1,1.710999966E0,-1.698399901E0
4.391399688E1,5.009999871E-1,1.283699989E0,-1.032500029E0
4.393399844E1,1.325999945E-1,7.917999625E-1,-3.504000008E-1
4.396399688E1,-1.529999916E-2,9.285999537E-1,4.000999928E-1
4.398399688E1,-1.310999990E-1,6.606999636E-1,1.340799928E0
4.400399688E1,-3.868999779E-1,7.044999599E-1,2.142499924E0
4.402399688E1,2.249999903E-2,8.029999584E-2,2.381299973E0
4.404399688E1,2.743999958E-1,7.769999653E-2,2.477499962E0
4.406399844E1,1.072399974E0,2.645999789E-1,2.281699896E0
4.408399844E1,2.501999855E0,-7.052999735E-1,2.922899961E0
4.410399844E1,2.109799862E0,-1.034699917E0,1.611699939E0
4.412399844E1,4.617999792E-1,-8.281999826E-1,4.799999893E-1
4.414399844E1,-1.990000010E-1,-1.104200006E0,-2.264999896E-1
4.416399844E1,-3.204999864E-1,-1.595199943E0,-7.168999910E-1
4.418399844E1,-2.795000076E-1,-1.469299912E0,-8.133999705E-1
4.420399844E1,4.052000046E-1,-1.454399943E0,-3.944000006E-1
4.422399844E1,5.460999608E-1,-1.429999948E0,-5.001999736E-1
4.424399844E1,-1.116999984E0,-9.404000044E-1,-3.170999885E-1
4.426399844E1,-2.353099823E0,-5.673999786E-1,-7.756999731E-1
4.428399844E1,-2.473599911E0,3.179999813E-2,-1.036800027E0
4.430399844E1,-1.529299974E0,3.107999861E-1,-1.379999995E0
4.432399844E1,-6.038999557E-1,6.094999909E-1,-1.551599979E0
4.434399844E1,-3.050999939E-1,1.138199925E0,-1.408399940E0
4.436399844E1,-3.980000019E-1,1.162099957E0,-1.272199988E0
4.438399844E1,-3.039000034E-1,9.706999660E-1,-1.015699983E0
4.441399688E1,5.191999674E-1,3.401999772E-1,2.384999990E-1
4.443399844E1,3.535999954E-1,4.913999736E-1,6.880999804E-1
4.446399688E1,7.079999894E-2,3.743999898E-1,8.731999993E-1
4.448399688E1,5.755999684E-1,-1.089999974E-1,8.851000071E-1
4.450399844E1,4.314999878E-1,-3.308999836E-1,8.297999501E-1
4.453399688E1,-1.189100027E0,8.974999785E-1,8.076999784E-1
4.455399688E1,-1.899999916E-3,6.729999930E-2,1.279399991E0
4.457399844E1,1.691199899E0,-1.590899944E0,2.056299925E0
4.460400000E1,4.208000004E-1,-1.140999913E0,1.785599947E0
4.463399688E1,-2.359999903E-2,-1.048799992E0,1.031700015E0
4.465399844E1,7.803999782E-1,-1.262799978E0,1.984999925E-1
4.468399688E1,1.234300017E0,-2.228000015E-1,-1.331099987E0
4.470399688E1,1.402599931E0,-3.100999892E-1,-1.671800017E0
4.472399844E1,1.045499921E0,-3.774999976E-1,-1.729699969E0
4.475399688E1,-1.235999987E-1,-9.910000116E-2,-1.443099976E0
4.477399688E1,-5.954999924E-1,1.158999950E-1,-1.395599961E0
4.479399844E1,-6.559999585E-1,3.411999941E-1,-1.394999981E0
4.482399688E1,-1.561999917E-1,3.658999801E-1,-1.166000009E0
4.484399844E1,2.979999967E-2,7.816999555E-1,-1.143599987E0
4.486399844E1,4.389999807E-2,8.398000002E-1,-3.786999881E-1
4.488399844E1,-3.937000036E-1,7.501999736E-1,6.225000024E-1
4.490399844E1,-6.836000085E-1,7.220999599E-1,1.589499950E0
4.492399844E1,-3.946999907E-1,9.523999691E-1,2.092399836E0
4.494399844E1,2.685000002E-1,1.354799986E0,2.267999887E0
4.496399844E1,9.567999840E-1,1.491500020E0,2.158099890E0
4.498399844E1,1.282299995E0,9.739999771E-1,2.797399998E0
4.500399844E1,1.272599936E0,-2.775000036E-1,2.490499973E0
4.502399844E1,-3.499999940E-1,3.289999813E-2,1.895199895E0
4.504399844E1,-1.237999916E0,4.106999934E-1,1.276799917E0
4.506399844E1,-3.370000049E-2,-8.040999770E-1,1.240899920E0
4.508399844E1,4.978999794E-1,-6.462999582E-1,9.826999903E-1
4.510399844E1,2.958999872E-1,4.499999806E-3,2.642999887E-1
4.512399844E1,-3.059999831E-2,1.868999898E-1,-3.170000017E-2
4.514399844E1,4.707999825E-1,-4.178999960E-1,-5.873000026E-1
