"Time (s)","Acceleration x (m/s^2)","Acceleration y (m/s^2)","Acceleration z (m/s^2)"
0.000000000E0,1.090685272E1,-5.536802292E0,1.096439123E0
2.200312500E-2,9.850750923E0,-1.978386402E0,-5.977852345E0
4.399843700E-2,1.013594818E1,-1.366658211E0,-7.819232941E0
6.399843700E-2,9.618878365E0,-3.084890604E0,-6.092984676E0
8.399843700E-2,1.265723419E1,-3.311477900E0,1.714918852E0
1.039984370E-1,1.328152752E1,-2.503415585E0,1.321886635E1
1.239984370E-1,1.381731129E1,7.164121866E-1,1.951129723E1
1.439984370E-1,1.046515179E1,3.450724602E0,1.500283432E1
1.639984370E-1,7.134567738E0,2.704806328E0,8.161900520E0
1.839984370E-1,5.035638332E0,1.639089584E0,4.444442749E0
2.040000000E-1,3.187984943E0,1.247752547E0,2.341749430E0
2.260000000E-1,1.963369846E0,3.633823693E-1,1.265124917E0
2.460000000E-1,1.780251741E0,-6.264189482E-1,8.901641965E-1
2.679984370E-1,2.802920580E0,-1.949540973E0,6.370300055E-1
2.879984370E-1,3.354487419E0,-2.506020546E0,4.261391461E-1
3.079984370E-1,4.151353836E0,-1.775463343E0,1.972439051E0
3.279984370E-1,4.663445473E0,-3.330430388E-1,4.225842953E0
3.479984370E-1,6.209601402E0,1.244218707E0,5.700172901E0
3.699984370E-1,8.832421303E0,3.017335653E0,5.683767796E0
3.899984370E-1,1.253557110E1,3.856158733E0,4.801906586E0
4.099984370E-1,1.879667664E1,2.641925097E0,1.483150482E0
4.299984370E-1,2.232140923E1,3.069012165E0,-4.454996586E0
4.499984370E-1,1.364812756E1,7.051565647E0,-1.173044777E1
4.719984370E-1,9.298170090E0,6.606205940E0,-7.147687912E0
4.919984370E-1,1.212246609E1,4.244843006E0,1.901293039E0
5.119984370E-1,9.770105362E0,1.563854218E0,4.465310574E0
5.319984370E-1,7.856439114E0,2.838852704E-1,4.141317844E0
5.539968750E-1,1.045049858E1,6.503801346E-1,4.730377674E0
5.739984370E-1,1.329453278E1,1.148891211E0,5.500486851E0
5.939984370E-1,1.416461468E1,1.154560685E0,5.693104744E0
6.139984370E-1,1.327962208E1,-7.292929888E-1,1.032819366E1
6.339984370E-1,1.154820251E1,-2.509707451E0,1.137639427E1
6.539984370E-1,7.074482918E0,-1.331501722E0,4.678423405E0
6.739984370E-1,4.729142189E0,-3.602507412E-1,3.138673782E0
6.960000000E-1,2.992234945E0,3.112366199E-1,2.731564045E0
7.160000000E-1,2.685681343E0,6.186521649E-1,2.388216257E0
7.379984370E-1,3.396960497E0,2.934525013E-1,2.469676495E0
7.580000000E-1,4.215786934E0,4.745882154E-1,1.599374652E0
7.799984370E-1,5.118736267E0,-2.122220397E-1,4.396712184E-1
7.999984370E-1,5.571968079E0,-1.696617603E0,1.263535142E0
8.199984370E-1,7.039134979E0,-2.860055923E0,2.131538630E0
8.399984370E-1,8.990169525E0,-2.937876940E0,2.440304518E0
8.599984370E-1,1.161730862E1,-2.654317379E0,2.840375423E0
8.799984370E-1,1.430203247E1,-1.906148434E0,3.512878180E0
8.999984370E-1,1.660563660E1,-2.532098055E0,2.701588392E0
9.200000000E-1,1.521492195E1,-4.562534332E0,1.455961943E0
9.400000000E-1,1.159528160E1,-4.402458191E0,-6.952465057E0
9.600046870E-1,9.673101425E0,-2.482595742E-1,-1.125859928E1
9.819984370E-1,9.855990410E0,-6.750404239E-1,-7.442548275E0
1.001998437E0,9.049880981E0,-2.267472029E0,-6.202428818E0
1.021998437E0,1.191932201E1,-4.078177929E0,-2.162538767E-1
1.041998437E0,1.348431683E1,-4.337670803E0,8.515935898E0
1.063998437E0,1.467670536E1,-2.148221493E0,1.562171555E1
1.085998437E0,1.199012375E1,1.438359737E0,1.552098751E1
1.105998437E0,8.222176552E0,2.356900215E0,9.569911003E0
1.125998437E0,5.512707233E0,1.766001463E0,5.233983517E0
1.145998437E0,3.642059565E0,1.156973958E0,2.977841139E0
1.166000000E0,1.950086951E0,4.252197742E-1,2.408863783E0
1.187998437E0,1.718203664E0,-3.925150037E-1,1.896562099E0
1.207998437E0,2.018082142E0,-9.664338827E-1,1.140722156E0
1.228004687E0,2.785260916E0,-1.225036383E0,8.740751445E-2
1.249998437E0,3.624170065E0,-9.200821519E-1,-2.732262947E-2
1.269998437E0,4.718416214E0,-6.615658104E-2,1.943708777E0
1.289998437E0,6.866809845E0,6.291866302E-1,3.999782085E0
1.309998437E0,9.995983124E0,1.012220621E0,4.651330471E0
1.329998437E0,1.411219978E1,1.327479482E0,4.093308926E0
1.349998437E0,1.890295029E1,2.195396662E0,2.500264883E0
1.369998437E0,1.932510567E1,4.436848640E0,1.268965244E0
1.389998437E0,1.503408337E1,6.532885551E0,-1.327287912E0
1.409998437E0,1.228548241E1,7.628817558E0,-9.160771370E0
1.429998437E0,1.092752934E1,6.092783928E0,-5.952971458E0
1.449998437E0,1.289610004E1,2.374147892E0,2.419034481E0
1.470004687E0,9.546525002E0,3.818847239E-1,3.710246563E0
1.492001562E0,8.838310242E0,-9.740570188E-2,3.916961908E0
1.513996875E0,1.204496098E1,6.218220666E-2,5.247247696E0
1.533998437E0,1.282712650E1,4.304296076E-1,5.938855648E0
1.556001562E0,1.227624035E1,-1.165669799E0,7.695624828E0
1.577998437E0,1.081843090E1,-2.880942822E0,1.002024078E1
1.597998437E0,8.653018951E0,-1.869105339E0,4.592088223E0
1.617998437E0,7.382128239E0,-1.452207923E0,4.827122688E0
1.637998437E0,4.559565544E0,-2.666374445E-1,4.846678257E0
1.657998437E0,2.875216007E0,2.603167593E-1,3.662103891E0
1.679996875E0,2.799338818E0,4.344422519E-1,3.084832907E0
1.699998437E0,3.272663116E0,-5.631833076E-1,2.546549559E0
1.720010937E0,3.695277929E0,-1.597775221E0,1.765388608E0
1.741998437E0,4.162137508E0,-2.326742649E0,1.447496057E0
1.761998437E0,5.489320278E0,-2.620731354E0,1.440189004E0
1.783998437E0,6.868485928E0,-2.667121649E0,1.384566903E0
1.803998437E0,9.354366302E0,-2.553195715E0,2.286146402E0
1.823998437E0,1.316561890E1,-1.064203501E0,3.414505243E0
1.844000000E0,1.758037567E1,3.434051573E-1,5.247142315E0
1.865996875E0,1.882803154E1,-6.978446960E0,-4.080026150E0
1.886000000E0,1.263983440E1,-6.592443943E0,-1.241680813E1
1.908000000E0,9.372207642E0,-7.446349859E-1,-1.194816780E1
1.928004687E0,1.046946049E1,-2.639454126E0,-5.493639469E0
1.949998437E0,8.774796486E0,-3.520606518E0,-4.158096313E0
1.971998437E0,1.068511105E1,-5.440200806E0,1.047989964E0
1.991998437E0,1.332318687E1,-6.281054020E0,9.321220398E0
2.011998437E0,1.357259560E1,-3.241902351E0,1.559709358E1
2.031998437E0,1.303382301E1,8.826081157E-1,1.785171318E1
2.053998437E0,9.854169846E0,3.119893789E0,9.812042236E0
2.073998437E0,6.307112694E0,2.555283785E0,5.388141155E0
2.093998437E0,3.894666910E0,1.551117063E0,2.869872093E0
2.113998437E0,1.868051887E0,7.147745490E-1,1.928491235E0
2.133998437E0,1.304868698E0,-3.115239441E-1,1.489586115E0
2.153998437E0,1.537652135E0,-1.134688854E0,8.826368451E-1
2.173998437E0,1.961933374E0,-1.676879764E0,6.601293385E-2
2.196000000E0,3.039352894E0,-2.104886532E0,-9.592129290E-2
2.218006250E0,4.330057621E0,-1.024574757E0,1.861281157E0
2.240006250E0,5.662152767E0,1.753848553E0,3.917211056E0
2.261998437E0,9.191598892E0,3.500725031E0,4.365415096E0
2.283998437E0,1.506635761E1,4.174156666E0,2.828644037E0
2.305998437E0,2.110340500E1,4.436024666E0,-2.674265862E0
2.325998437E0,2.106176376E1,5.936815739E0,-8.358291626E0
2.345998437E0,1.304330444E1,7.751246929E0,-8.554980278E0
2.365998437E0,8.431794167E0,6.391110897E0,-4.874881744E0
2.385998437E0,9.576931953E0,3.516440630E0,1.566047311E0
2.405998437E0,1.141608047E1,-4.164282978E-1,2.575998306E0
2.425998437E0,8.174139977E0,-3.706703186E-1,3.030427217E0
2.445998437E0,9.582265854E0,-2.814432085E-1,4.228371143E0
2.465998437E0,1.354501343E1,1.222517729E0,5.240284920E0
2.485998437E0,1.597104836E1,1.670702696E0,3.032457590E0
2.505998437E0,1.656817245E1,-1.819478393E0,1.001548195E1
2.525998437E0,1.477983761E1,-4.230277061E0,1.496761036E1
2.545998437E0,8.588241577E0,-2.310711145E0,6.334876060E0
2.565998437E0,4.651129246E0,-8.517420888E-1,3.177392960E0
2.585998437E0,2.820091724E0,6.611827016E-2,2.902940989E0
2.605998437E0,2.913666725E0,8.767088056E-1,3.016751766E0
2.625998437E0,4.346999168E0,1.874372721E0,3.075198889E0
2.645998437E0,3.218563795E0,1.156274915E0,7.727237940E-1
2.665998437E0,2.657199860E0,6.836403608E-1,-2.548483908E-1
2.685998437E0,2.625510216E0,1.690306515E-2,8.421269655E-1
2.705998437E0,2.878864765E0,-4.660744667E-1,2.221589327E0
2.726004687E0,5.193339348E0,-9.888148904E-1,2.310146093E0
2.748004687E0,9.266192436E0,-1.772427440E0,2.679791689E0
2.768015625E0,1.333662319E1,-1.999742508E0,3.905364275E0
2.789998437E0,1.922294998E1,-2.584100008E0,4.741314411E0
2.809998437E0,2.048300743E1,-8.735781670E0,2.330085039E0
2.830006250E0,1.216549397E1,-9.457786560E0,-5.135169983E0
2.851998437E0,8.474669456E0,-4.463366508E0,-1.117812634E1
2.873996875E0,9.811065674E0,-2.962872505E0,-8.693586349E0
2.893998437E0,9.415992737E0,-3.775062323E0,-6.035092831E0
2.913998437E0,1.263416386E1,-4.408472061E0,7.104458809E-1
2.933998437E0,1.479520893E1,-5.007626057E0,6.135927200E0
2.953998437E0,1.546533585E1,-2.152138472E0,1.396442127E1
2.975998437E0,1.281763649E1,2.813512802E0,1.712591553E1
2.996010937E0,8.987373352E0,3.693611622E0,1.299458694E1
3.017998437E0,5.414544582E0,1.367884040E0,5.173419952E0
3.037998437E0,3.527243376E0,2.746245265E-1,2.576065302E0
3.058004687E0,2.141804934E0,-3.041402400E-1,2.095165968E0
3.079998437E0,1.808790684E0,-8.481315970E-1,1.549958229E0
3.099998437E0,2.178148985E0,-1.586905599E0,8.366969228E-1
3.119998437E0,2.369598866E0,-2.103450060E0,3.238397241E-1
3.139998437E0,1.933394551E0,-2.059233665E0,-4.141011462E-2
3.159998437E0,2.470193624E0,-9.158492088E-1,2.571659982E-1
3.179998437E0,4.341156960E0,3.872669041E-1,1.973425508E0
3.199998437E0,7.451550961E0,1.696330190E0,3.909530163E0
3.219998437E0,1.210475826E1,2.887637138E0,5.114149094E0
3.240000000E0,1.931816292E1,3.691772938E0,4.986777306E0
3.261998437E0,2.309992790E1,5.246691704E0,1.335820913E0
3.281998437E0,1.602158546E1,6.828186512E0,-5.240284920E0
3.301998437E0,9.759714127E0,7.725725174E0,-9.169150352E0
3.321998437E0,1.181575871E1,5.615868092E0,-2.572560072E0
3.341998437E0,1.269453621E1,1.553109050E0,3.458108425E0
3.361998437E0,9.398687363E0,-4.001572728E-1,3.756875992E0
3.381998437E0,8.459021568E0,3.669257760E-1,3.725033045E0
3.401998437E0,1.181613255E1,1.423467755E0,4.785664558E0
3.421998437E0,1.505493164E1,2.174701214E0,4.640020370E0
3.441998437E0,1.507857704E1,2.469475418E-1,5.132574558E0
3.461998437E0,1.404450226E1,-2.704461336E0,9.589820862E0
3.481998437E0,1.060126686E1,-3.663358450E0,8.752713203E0
3.501998437E0,5.870390892E0,-1.808062911E0,4.833624840E0
3.521998437E0,3.395092964E0,-2.973694205E-1,3.517532587E0
3.541998437E0,1.998890281E0,3.299305737E-1,3.056629419E0
3.561998437E0,2.279911995E0,6.814855933E-1,3.266122103E0
3.582003125E0,3.542087317E0,4.228447676E-1,2.994925976E0
3.603998437E0,4.083626747E0,-8.007168174E-1,8.810088038E-1
3.623998437E0,4.391339302E0,-1.471332788E0,7.122271061E-1
3.643998437E0,4.945300102E0,-1.239056826E0,1.697958231E0
3.663998437E0,6.519286633E0,-1.537728786E0,2.425661564E0
3.683998437E0,9.872883797E0,-2.073618174E0,3.451959848E0
3.704000000E0,1.453901005E1,-2.355195284E0,4.876903057E0
3.725998437E0,1.880244064E1,-4.244661331E0,2.762027502E0
3.746000000E0,1.710251999E1,-6.953786850E0,1.131614566E0
3.767998437E0,1.664028549E1,-4.867938995E0,-3.220392704E0
3.787998437E0,1.337342644E1,-2.913523197E0,-6.862710953E0
3.807998437E0,8.411998749E0,-2.755314350E0,-7.361212254E0
3.828000000E0,9.054487228E0,-5.354833126E0,-1.410510421E0
3.849998437E0,1.171558571E1,-4.570655823E0,3.687750578E0
3.869998437E0,1.337475777E1,-1.387803793E0,6.698372841E0
3.889998437E0,1.254930401E1,4.226963043E0,1.154603767E1
3.909998437E0,8.792801857E0,7.235066891E0,1.306352997E1
3.929998437E0,5.048624516E0,4.453674793E0,7.166717052E0
3.949998437E0,2.897549152E0,1.777235150E0,3.040310621E0
3.969998437E0,1.258718014E0,5.407927036E-1,1.213285685E0
3.989998437E0,5.337250233E-1,-2.039668262E-1,3.452439010E-1
4.009998437E0,4.327471554E-1,-5.828827620E-1,1.357895434E-1
4.029998437E0,1.967583776E0,-1.266714573E0,6.691315025E-2
4.049998437E0,4.482893467E0,-1.763683796E0,7.703009248E-1
4.069998437E0,8.071084023E0,-1.811108232E0,2.508002996E0
4.089998437E0,9.386822701E0,-1.541482806E-1,4.421133041E0
4.109998437E0,1.014282513E1,2.091153383E0,4.716002941E0
4.129998437E0,1.246444416E1,2.214952707E0,2.932619333E0
4.149998437E0,1.526894474E1,1.578094959E0,8.404701352E-1
4.169998437E0,1.837640762E1,2.057452440E0,-1.696445227E0
4.190000000E0,1.777423859E1,4.284385681E0,-3.896965504E0
4.211996875E0,1.255965614E1,7.074645996E0,-6.138579845E0
4.231998437E0,9.161126137E0,7.130708694E0,-4.552459240E0
4.251998437E0,1.157745934E1,3.458951235E0,2.317175627E0
4.273998437E0,8.287614822E0,3.813676238E-1,2.851484537E0
4.293998437E0,7.846268177E0,-3.873339593E-1,3.011838675E0
4.316010937E0,1.177461720E1,2.589089572E-1,4.368326187E0
4.338000000E0,1.357561207E1,1.077122569E0,3.986518383E0
4.359998437E0,1.371943665E1,-1.239047274E-1,2.130877972E0
4.379998437E0,1.275265789E1,-2.386530876E0,8.060510635E0
4.401998437E0,9.653267860E0,-3.754951000E0,1.070147896E1
4.421998437E0,5.168535709E0,-1.813943028E0,6.068161488E0
4.443996875E0,2.631773472E0,-1.036574483E0,4.726977348E0
4.463998437E0,2.095960617E0,-8.227434754E-1,4.382921219E0
4.483998437E0,2.346633673E0,-1.794597805E-1,4.256957531E0
4.503998437E0,2.798457861E0,-1.859432757E-1,2.222374439E0
4.525998437E0,3.959664822E0,-1.131930709E0,2.869019806E-1
4.545998437E0,4.714949131E0,-1.729159594E0,-2.890567482E-1
4.565998437E0,5.676374435E0,-2.345647335E0,7.038186789E-1
4.585998437E0,7.892093182E0,-3.075744629E0,1.349735975E0
4.605998437E0,1.183015251E1,-3.493341208E0,2.333494425E0
4.625998437E0,1.562867832E1,-2.274884224E0,4.248682976E0
4.645998437E0,1.828010368E1,-2.787310600E0,2.276914597E0
4.665998437E0,1.590608025E1,-6.209410191E0,3.135446459E-2
4.686000000E0,1.104153156E1,-6.872488976E0,-5.033234596E0
4.707996875E0,9.209928513E0,-3.498838425E0,-1.277066231E1
4.727998437E0,1.211353970E1,-2.014098167E-1,-8.338123322E0
4.747998437E0,9.653411865E0,-1.747508645E0,-4.031653881E0
4.767998437E0,9.214899063E0,-3.340935946E0,-1.355501175E0
4.787998437E0,1.332285118E1,-4.208451271E0,4.888203144E0
4.807998437E0,1.409638023E1,-2.906752348E0,1.146248913E1
4.828012500E0,1.310809135E1,5.284386277E-1,1.581936264E1
4.849998437E0,9.950791359E0,3.836660385E0,1.333618259E1
4.869998437E0,6.860403061E0,2.993451118E0,6.245907307E0
4.889998437E0,5.354259014E0,1.451278925E0,3.089295864E0
4.909998437E0,2.827207565E0,8.093742728E-1,1.896207809E0
4.929998437E0,1.941113353E0,1.033337507E-2,1.226990104E0
4.949998437E0,1.807430744E0,-7.731739283E-1,1.126021862E0
4.971998437E0,2.835117817E0,-1.798198700E0,4.703265727E-1
4.992003125E0,3.915209293E0,-2.427902699E0,4.515464604E-1
5.013996875E0,5.322319984E0,-1.946725368E0,2.253001213E0
5.033996875E0,5.649971008E0,1.058715954E-1,3.792290926E0
5.053996875E0,7.512095451E0,1.754988194E0,3.779352665E0
5.073996875E0,1.045566082E1,2.638123035E0,3.418546677E0
5.093998437E0,1.484719181E1,2.292275667E0,2.555676222E0
5.113998437E0,2.163309860E1,1.530517340E0,-1.154570222E0
5.133998437E0,2.117607307E1,4.077057362E0,-7.465341091E0
5.153998437E0,1.139793301E1,8.098042488E0,-9.013537407E0
5.173998437E0,1.084875011E1,8.413827896E0,-2.450791121E0
5.193998437E0,1.359134674E1,3.913983345E0,4.173658848E0
5.213998437E0,9.824501038E0,9.405382276E-1,4.060776711E0
5.235998437E0,8.056306839E0,-6.510313600E-2,4.150109291E0
5.257998437E0,9.988848686E0,5.365023017E-1,4.125324249E0
5.277998437E0,1.185374069E1,8.908441067E-1,2.329941511E0
5.299998437E0,1.342720985E1,-8.224753141E-1,2.167164326E0
5.321998437E0,1.369924927E1,-3.072488546E0,8.035448074E0
5.343998437E0,1.041631889E1,-3.209341288E0,8.832957268E0
5.363998437E0,6.363232613E0,-1.583228111E0,4.496540546E0
5.383998437E0,4.226081848E0,-4.747223258E-1,3.295417547E0
5.403998437E0,3.519821405E0,1.023195624E0,3.818196297E0
5.423998437E0,3.124126673E0,1.904463053E0,2.901312828E0
5.445998437E0,3.854693413E0,4.738316536E-1,7.350486517E-1
5.465998437E0,4.339337349E0,-2.930119932E-1,7.310455441E-1
5.485998437E0,4.264915943E0,-2.071176022E-1,1.231050611E0
5.505998437E0,4.872736931E0,-6.587598324E-1,1.394794941E0
5.525998437E0,7.214524269E0,-2.051648855E0,1.815829635E0
5.545998437E0,1.036096478E1,-2.980704546E0,2.805104256E0
5.565998437E0,1.397025299E1,-2.748160362E0,4.576468945E0
5.585998437E0,1.669158936E1,-2.801168203E0,3.624505281E0
5.605998437E0,1.611811066E1,-5.940856934E0,-6.216496825E-1
5.625998437E0,1.193222237E1,-7.079635143E0,-7.527369857E-1
5.645998437E0,9.750644684E0,-6.244997501E0,-8.469133377E0
5.665998437E0,1.005689240E1,-2.897079885E-1,-1.072711563E1
5.685998437E0,9.431239128E0,-1.036651015E0,-6.804713726E0
5.705998437E0,9.770755768E0,-3.458070040E0,-6.121303082E0
5.725998437E0,1.396901798E1,-4.513645172E0,4.971636295E0
5.745998437E0,1.554425907E1,-2.347141266E0,1.313230133E1
5.765998437E0,1.381416130E1,1.682721615E0,1.630410194E1
5.785998437E0,1.017871857E1,3.765265226E0,1.324117088E1
5.805998437E0,7.380107403E0,2.663980484E0,6.802195549E0
5.825998437E0,5.975256920E0,1.596683621E0,3.789638281E0
5.845998437E0,3.447047234E0,1.258698821E0,2.559516668E0
5.865998437E0,2.549441576E0,5.665735006E-1,2.142801046E0
5.885998437E0,2.145923138E0,-2.660819888E-1,1.613490820E0
5.905998437E0,3.464362144E0,-1.321733356E0,1.147157788E0
5.925998437E0,4.432270527E0,-2.290484905E0,6.321266890E-1
5.945998437E0,5.587070942E0,-2.477912664E0,8.046720624E-1
5.965998437E0,5.176350117E0,-4.391157627E-1,1.971816659E0
5.985998437E0,5.689935207E0,1.425335288E0,3.528440475E0
6.005998437E0,7.654176712E0,2.282814026E0,3.631620884E0
6.025998437E0,1.012083721E1,2.693649530E0,2.986852884E0
6.045998437E0,1.422337818E1,2.329787970E0,1.042665243E0
6.065998437E0,2.007506371E1,2.434807301E0,-4.684792042E0
6.085998437E0,1.999912071E1,4.673318863E0,-8.750462532E0
6.105998437E0,1.236949921E1,7.574985981E0,-6.847455025E0
6.125998437E0,8.497241974E0,7.703564644E0,-2.181797504E0
6.145998437E0,1.246548748E1,3.631965637E0,3.363537312E0
6.165998437E0,1.060788345E1,6.705967188E-1,3.109723091E0
6.186000000E0,8.527476311E0,1.742978767E-2,2.946984529E0
6.206000000E0,1.040323734E1,4.627512991E-1,4.498341084E0
6.226004687E0,1.331648254E1,5.822315812E-1,4.254716873E0
6.247998437E0,1.331727695E1,-2.181309313E-1,2.440562963E0
6.267998437E0,1.408322048E1,-2.547880650E0,5.500410080E0
6.287998437E0,1.366144943E1,-3.953009129E0,9.932422638E0
6.307998437E0,9.477217674E0,-3.395859241E0,6.285459518E0
6.327998437E0,5.676987171E0,-2.112030745E0,2.858054399E0
6.347998437E0,4.441703796E0,-6.500545144E-1,2.948076487E0
6.367998437E0,3.426571846E0,1.331233621E0,4.041306973E0
6.387998437E0,2.291605473E0,2.391615868E0,2.989438534E0
6.407998437E0,3.087093353E0,1.757612228E0,1.324980021E0
6.427998437E0,3.500974178E0,9.808757305E-1,1.451882243E0
6.447998437E0,3.460119486E0,9.897246957E-1,2.839954138E0
6.469998437E0,4.121455669E0,9.258856773E-1,3.209283590E0
6.489998437E0,6.458703518E0,-1.819401681E-1,2.861655235E0
6.509998437E0,9.994777679E0,-1.539500356E0,3.073101521E0
6.529998437E0,1.455768490E1,-2.837694168E0,3.599136591E0
6.549998437E0,1.778593254E1,-4.743038177E0,2.166321516E0
6.571996875E0,1.631345749E1,-8.528443336E0,-1.232218981E0
6.592001562E0,1.151224136E1,-9.052697182E0,-5.182690144E0
6.613996875E0,9.346810341E0,-4.405714512E0,-1.205337906E1
6.633998437E0,1.157718182E1,-1.316561937E0,-7.599406719E0
6.653998437E0,9.147928238E0,-3.127995968E0,-6.049343109E0
6.673998437E0,1.072210598E1,-5.288293362E0,1.696962237E0
6.695998437E0,1.467574787E1,-6.194297791E0,7.957876682E0
6.716004687E0,1.564720058E1,-3.275804281E0,1.333661366E1
6.737998437E0,1.361632347E1,1.743132114E0,1.514451408E1
6.757998437E0,9.305802345E0,4.079221725E0,1.289159870E1
6.777998437E0,6.237738132E0,2.918943644E0,5.911465645E0
6.797998437E0,4.246940613E0,1.510492325E0,3.153345585E0
6.817998437E0,2.390820980E0,5.391741991E-1,1.487823963E0
6.837998437E0,1.961330056E0,-1.327249557E-1,1.228685141E0
6.857998437E0,2.084813595E0,-6.831710935E-1,9.262304902E-1
6.877998437E0,3.014625549E0,-1.231749773E0,4.568902850E-1
6.897998437E0,4.027114391E0,-1.724869132E0,5.472474694E-1
6.918000000E0,5.025879383E0,-1.294927955E0,2.293329000E0
6.939998437E0,5.178792477E0,5.733059645E-1,4.343186855E0
6.959998437E0,6.579199314E0,1.675203681E0,4.442134857E0
6.979998437E0,8.998990059E0,2.123819828E0,4.219081402E0
6.999998437E0,1.265232086E1,2.376302719E0,3.332182884E0
7.019998437E0,1.683600807E1,2.729418755E0,4.939429760E-1
7.039998437E0,1.991547585E1,4.377692223E0,-5.099333286E0
7.059998437E0,1.544421005E1,7.648574352E0,-1.067798615E1
7.079998437E0,1.086339378E1,7.919501781E0,-1.072546768E1
7.099998437E0,8.628128052E0,6.722592831E0,-3.399967432E0
7.119998437E0,1.453044796E1,2.644290447E0,4.264484882E0
7.139998437E0,1.005137634E1,3.087849617E-1,3.685155392E0
7.160000000E0,8.396715164E0,-4.668022990E-1,3.719085932E0
7.181998437E0,1.295151043E1,-8.538202047E-1,5.290505886E0
7.201998437E0,1.416856003E1,9.822931141E-2,4.246174335E0
7.221998437E0,1.418317413E1,-7.584735155E-1,1.675864577E0
7.243996875E0,1.412100220E1,-2.403759241E0,3.916904211E0
7.263998437E0,1.276152611E1,-3.479886055E0,1.040258598E1
7.283998437E0,8.193254471E0,-2.644376755E0,7.429753780E0
7.303998437E0,4.409420490E0,-1.151381254E0,3.388685942E0
7.323998437E0,2.253345966E0,-7.677821517E-1,1.909394979E0
7.343998437E0,3.003430128E0,-1.426273733E-1,3.019672632E0
7.363998437E0,3.316687584E0,1.066042185E0,2.842472792E0
7.383998437E0,3.343904734E0,1.531628251E0,3.715379715E0
7.403998437E0,2.849186182E0,1.175418973E0,3.136768103E0
7.423998437E0,3.732608318E0,7.491074204E-1,3.607860804E0
7.444000000E0,5.589972496E0,3.937503994E-1,2.870207310E0
7.466006250E0,8.915691376E0,-6.036069989E-1,2.371581316E0
7.487998437E0,1.221629047E1,-1.977601051E0,2.168093204E0
7.509998437E0,1.542417526E1,-4.406221867E0,1.751377702E0
7.529998437E0,1.672886086E1,-7.774308205E0,-1.883997321E0
7.549998437E0,1.347629070E1,-9.514892578E0,-1.998076320E0
7.569998437E0,1.218856430E1,-8.062598228E0,-7.193963528E0
7.589998437E0,1.418298244E1,-2.621995687E0,-8.083294868E0
7.609998437E0,1.067703819E1,-3.506614685E0,-6.178697109E0
7.629998437E0,1.083097553E1,-5.254908562E0,1.604172587E0
7.649998437E0,1.417327118E1,-4.964338779E0,8.135487556E0
7.669998437E0,1.445073986E1,-2.692385197E0,8.963077545E0
7.689998437E0,1.315437603E1,3.982132077E-1,1.293848610E1
7.709998437E0,9.506225586E0,5.023246288E0,1.672629547E1
7.729998437E0,6.637905121E0,4.831594944E0,8.997027397E0
7.749998437E0,4.789399624E0,2.223773003E0,4.043701649E0
7.769998437E0,3.157262564E0,8.540213108E-1,2.042972326E0
7.789998437E0,2.319799662E0,-1.106121242E-1,1.076308608E0
7.809998437E0,2.197388649E0,-7.088273168E-1,8.865824342E-1
7.829998437E0,3.399584532E0,-1.700793028E0,7.449414730E-1
7.849998437E0,4.136740208E0,-2.622330904E0,7.631470561E-1
7.869998437E0,5.356106758E0,-2.667581320E0,1.775118709E0
7.889998437E0,4.964961529E0,-3.502142429E-1,3.316821814E0
7.909998437E0,5.219072342E0,1.832943320E0,3.946697712E0
7.929998437E0,7.168556213E0,2.492584229E0,4.120775223E0
7.949998437E0,9.745942116E0,2.672082186E0,3.295312166E0
7.969998437E0,1.365131664E1,2.467588902E0,1.223226309E0
7.992000000E0,1.861135483E1,3.086940050E0,-4.076616764E0
8.013998437E0,1.887809753E1,5.831853867E0,-8.611905098E0
8.033998437E0,1.225690556E1,7.962502003E0,-7.142670155E0
8.055998437E0,1.145771122E1,7.550948143E0,-8.725907803E-1
8.076000000E0,1.451129532E1,4.103297710E0,4.190235615E0
8.096004687E0,1.157668400E1,8.289205432E-1,2.713406324E0
8.117998437E0,8.252487183E0,-8.314583451E-2,2.861875534E0
8.137998437E0,9.692686081E0,1.785499901E-1,4.524313450E0
8.157998437E0,1.164707279E1,8.210483789E-1,3.550907373E0
8.177998437E0,1.244763660E1,6.519506574E-1,1.422931552E0
8.197998437E0,1.357912731E1,-7.446159124E-1,3.443618536E0
8.218004687E0,1.357240391E1,-3.309849739E0,9.782851219E0
8.240000000E0,9.942947388E0,-3.319570303E0,9.182903290E0
8.261998437E0,5.553245544E0,-1.673575640E0,4.091623783E0
8.281998437E0,4.447478294E0,-2.200654447E-1,3.846457481E0
8.303998437E0,3.430958033E0,1.451345921E0,3.331024170E0
8.323998437E0,2.592460632E0,9.211834669E-1,1.343290806E0
8.343998437E0,3.528823376E0,-3.472837508E-1,3.651061654E-1
8.363998437E0,3.995635271E0,-6.080697775E-1,9.455181360E-1
8.385998437E0,4.334644318E0,-2.595218718E-1,1.098555565E0
8.406000000E0,5.444271088E0,-1.641464680E-1,1.524369001E0
8.428000000E0,7.851200104E0,-9.256175756E-1,1.895001054E0
8.449998437E0,1.091242695E1,-1.657084465E0,3.083578587E0
8.469998437E0,1.350815296E1,-2.205576897E0,4.227279186E0
8.491998437E0,1.597315598E1,-4.809913158E0,2.609699011E0
8.511998437E0,1.513693810E1,-6.993281364E0,3.300454855E0
8.531998437E0,1.285616398E1,-6.413970470E0,-1.205183744E0
8.551998437E0,1.485227776E1,-3.598111629E0,-1.087341976E1
8.573998437E0,1.236709595E1,-5.123400092E-1,-7.308492184E0
8.596003125E0,9.344291687E0,-2.849502087E0,-3.299018383E0
8.617998437E0,1.108064365E1,-4.162635803E0,4.178973675E0
8.637998437E0,1.336984444E1,-2.919259787E0,6.843701363E0
8.657998437E0,1.462849617E1,2.147886157E-1,9.387598038E0
8.677998437E0,1.310340786E1,3.545257330E0,1.207388306E1
8.697998437E0,8.534352303E0,5.236741543E0,1.142550373E1
8.718003125E0,5.127652168E0,3.267663956E0,5.904226303E0
8.739998437E0,3.150673628E0,1.398654342E0,2.874890327E0
8.759998437E0,2.238865852E0,2.560646534E-1,1.855334044E0
8.779998437E0,1.905372858E0,-3.792990148E-1,1.679542065E0
8.799998437E0,2.006063461E0,-9.459011555E-1,1.821163893E0
8.819998437E0,3.179490328E0,-1.287889004E0,2.188597202E0
8.839998437E0,4.680712223E0,-1.807765961E0,2.513701200E0
8.859998437E0,6.495593548E0,-1.960037112E0,3.343368769E0
8.879998437E0,6.869596481E0,-3.950433061E-2,3.860870600E0
8.899998437E0,7.780427933E0,1.918904781E0,4.072814465E0
8.919998437E0,9.208176613E0,2.924929142E0,3.416410923E0
8.939998437E0,1.191536713E1,2.853399992E0,1.387315392E0
8.959998437E0,1.609194565E1,3.081366301E0,-5.401711941E0
8.979998437E0,1.895820808E1,4.275881290E0,-9.858680725E0
8.999998437E0,1.343887424E1,6.474055767E0,-5.887983322E0
9.019998437E0,1.001914024E1,7.379705429E0,-1.126931667E0
9.039998437E0,1.377352619E1,6.181464672E0,3.365194082E0
9.059998437E0,1.449405670E1,2.019327164E0,2.131452322E0
9.079998437E0,1.131551456E1,2.831287086E-1,2.267509937E0
9.099998437E0,9.791853905E0,2.741456628E-1,3.710773230E0
9.120003125E0,1.030076599E1,3.775081336E-1,4.861330509E0
9.141996875E0,1.209979820E1,1.773241609E-1,3.612036467E0
9.161998437E0,1.352245140E1,-9.179943800E-1,2.239258528E0
9.181998437E0,1.395442295E1,-2.928137541E0,7.311911106E0
9.201998437E0,1.221069717E1,-4.070688725E0,1.061745071E1
9.221998437E0,7.093799114E0,-2.953640461E0,5.844897270E0
9.243996875E0,4.689551830E0,-2.192466259E0,2.155183792E0
9.263996875E0,3.592269659E0,-4.871721566E-1,2.422156572E0
9.283998437E0,2.418536425E0,1.426024795E0,3.530068398E0
9.303998437E0,1.879055619E0,2.120486975E0,2.567130089E0
9.323998437E0,3.000154972E0,1.241355181E0,2.281061172E0
9.345998437E0,4.671853542E0,-5.330833793E-1,3.390381098E0
9.365998437E0,6.105214119E0,-1.128732085E0,3.489386320E0
9.386000000E0,6.510542870E0,-2.362502515E-1,1.177889824E0
9.407998437E0,8.062637329E0,-8.392825723E-1,8.520197868E-1
9.429998437E0,1.057891369E1,-1.396825194E0,7.124282122E-1
9.449998437E0,1.321046734E1,-1.711997867E0,9.322638512E-1
9.469998437E0,1.559199905E1,-3.547584534E0,-2.408854216E-1
9.489998437E0,1.584891605E1,-6.590739250E0,-6.968946457E-1
9.509998437E0,1.241433811E1,-7.519670486E0,-2.011895657E0
9.529998437E0,1.308192730E1,-5.150837898E0,-1.057797527E1
9.549998437E0,1.466224384E1,-8.651112914E-1,-7.084940910E0
9.571996875E0,1.263348484E1,-1.723767877E0,-1.880971074E0
9.591998437E0,1.055307579E1,-3.625654459E0,3.542844057E-1
9.611998437E0,1.211544609E1,-3.979335785E0,5.190734863E0
9.631998437E0,1.324301910E1,-2.735768080E0,7.459873199E0
9.651998437E0,1.390415382E1,3.035847563E-3,1.044961834E1
9.673996875E0,1.103912830E1,3.872314692E0,1.446030807E1
9.693996875E0,7.622611523E0,3.611107349E0,1.034187889E1
9.713998437E0,5.292469025E0,1.444268703E0,4.344527721E0
9.734007812E0,3.724286079E0,5.590748191E-1,2.469226360E0
9.756012500E0,3.415769339E0,2.590813637E-1,1.954779506E0
9.777998437E0,2.794081211E0,5.268201604E-2,1.564265966E0
9.797998437E0,4.025390148E0,-7.946547270E-1,1.154196739E0
9.817998437E0,4.849513054E0,-1.730931282E0,4.444883466E-1
9.837998437E0,5.973475456E0,-2.264617920E0,7.417141199E-1
9.857998437E0,5.872143745E0,-6.883713007E-1,2.299831867E0
9.877998437E0,6.028695583E0,1.239956975E0,3.473536730E0
9.897998437E0,7.094795227E0,2.296585321E0,3.418680668E0
9.919996875E0,9.117282867E0,2.412943602E0,2.459094286E0
9.939998437E0,1.200016022E1,2.369512796E0,4.277480841E-1
9.959998437E0,1.670495987E1,3.095089912E0,-4.564315796E0
9.979998437E0,1.823130989E1,5.019261837E0,-7.554769516E0
9.999998437E0,1.250660038E1,7.159936905E0,-5.305436134E0
1.001999844E1,1.077260590E1,6.269197941E0,-1.403777957E0
1.003999844E1,1.508186150E1,3.887130022E0,2.013245821E0
1.005999844E1,1.326388645E1,1.630480051E0,2.343454123E0
1.007999844E1,9.629612923E0,-2.681505866E-3,2.072334766E0
1.009999844E1,9.236600876E0,5.844724923E-2,3.234642982E0
1.011999844E1,1.136133957E1,7.751467079E-2,4.527205467E0
1.013999844E1,1.409380341E1,-9.842563272E-1,3.937322378E0
1.015999844E1,1.533985138E1,-3.179672003E0,4.146958351E0
1.017999844E1,1.397663116E1,-4.430221081E0,9.076341629E0
1.019999844E1,9.738367081E0,-4.604136467E0,9.895934105E0
1.021999844E1,4.577684879E0,-2.074154377E0,5.172280312E0
1.023999844E1,2.385850906E0,-1.271550894E0,2.149916410E0
1.026199844E1,2.468986988E0,4.557315111E-1,3.627206087E0
1.028399844E1,2.402236462E0,2.196613073E0,3.443043947E0
1.030600469E1,3.031605244E0,2.491952181E0,3.060057878E0
1.032799844E1,4.195484161E0,1.769305468E0,2.753887415E0
1.034799844E1,5.084479809E0,1.049426556E0,1.541703105E0
1.036799844E1,6.507660866E0,-5.712565184E-1,1.373984456E0
1.038799844E1,8.772240639E0,-2.232535601E0,1.172028780E0
1.040799844E1,1.093654060E1,-3.075342417E0,6.072652936E-1
1.042999844E1,1.307188225E1,-3.226541042E0,7.704924345E-1
1.044999844E1,1.495067883E1,-3.087677479E0,1.396068573E0
1.047199844E1,1.633996773E1,-6.689160347E0,-3.641848803E0
1.049199844E1,1.189711380E1,-8.389014244E0,-2.410491943E0
1.051199844E1,9.928371429E0,-6.951536179E0,-6.713035107E0
1.053199844E1,1.322241879E1,-2.535957575E0,-7.468453407E0
1.055199844E1,1.212690926E1,-2.572703838E0,-3.803352356E0
1.057399844E1,1.069027328E1,-3.041948318E0,-1.231136799E0
1.059399844E1,1.380887413E1,-2.958677769E0,5.871061325E0
1.061399844E1,1.596295738E1,-2.499249697E0,1.040400410E1
1.063400000E1,1.438440228E1,-1.643322587E0,1.539604759E1
1.065599844E1,9.597837448E0,-1.289421171E-1,1.270363426E1
1.067600469E1,5.832447529E0,-2.226799130E-1,6.873274326E0
1.069799844E1,3.358212709E0,-6.322799921E-1,5.259879589E0
1.071799844E1,2.748208284E0,-9.799754620E-1,3.900805950E0
1.073799844E1,2.439049721E0,-8.531690240E-1,3.201699018E0
1.075799844E1,3.566795349E0,-2.783881724E-1,2.739617825E0
1.077800000E1,5.119588375E0,4.781699926E-2,2.029832840E0
1.080000000E1,5.095378399E0,8.675916791E-1,1.238309860E0
1.082200000E1,4.797080040E0,1.904865265E0,1.585880876E0
1.084399844E1,5.690577030E0,2.475269318E0,2.218582392E0
1.086399844E1,7.156919956E0,2.650208950E0,2.395494699E0
1.088399844E1,9.850760460E0,2.961426258E0,1.749960303E0
1.090399844E1,1.326608944E1,3.692481518E0,-9.810289145E-1
1.092399844E1,1.566590309E1,5.174454212E0,-4.062040806E0
1.094399844E1,1.623112679E1,6.084605217E0,-4.838719845E0
1.096399844E1,1.363723946E1,6.035590649E0,-5.817029476E0
1.098399844E1,1.234444618E1,3.853228331E0,-5.567304134E0
1.100399844E1,1.479794788E1,3.651291847E0,8.921753168E-1
1.102399844E1,1.443683529E1,1.885117769E0,4.155414581E0
1.104399844E1,8.664855003E0,1.020810962E0,4.061964512E0
1.106399844E1,8.833100319E0,5.691017509E-1,5.664116383E0
1.108599688E1,1.191983032E1,8.099105358E-1,5.652240753E0
1.110600000E1,1.216711235E1,1.470518708E-1,3.685624599E0
1.112601094E1,1.309072876E1,-1.995921493E0,6.025611877E0
1.114799688E1,1.259782028E1,-3.841094494E0,1.099456596E1
1.116799688E1,8.754120827E0,-3.163774729E0,7.824806690E0
1.118800000E1,5.160271168E0,-1.765379071E0,4.653657913E0
1.120999844E1,3.716662884E0,-1.350023270E0,4.468834877E0
1.123000000E1,3.904511929E0,-3.336368203E-1,4.560647964E0
1.125199844E1,5.085246086E0,9.391878843E-1,3.537691593E0
1.127199844E1,4.687626362E0,-8.922519684E-1,-3.779678345E-1
1.129199844E1,4.680310249E0,-1.377997160E0,-2.538600922E0
1.131199844E1,4.685539246E0,-7.177529335E-1,-2.449201345E0
1.133199844E1,5.546398163E0,-6.779708862E-1,-9.582840204E-1
1.135199844E1,7.381611347E0,-3.927640021E-1,-1.380784065E-1
1.137199844E1,9.524843216E0,3.655658662E-1,1.719841361E0
1.139199844E1,1.266657257E1,2.285658121E0,5.420185566E0
1.141200625E1,1.685960388E1,-7.241119146E-1,-2.671268225E0
1.143399844E1,1.374448967E1,-5.551013947E0,-3.382049322E0
1.145399844E1,9.779432297E0,-7.533125877E0,-7.490853786E0
1.147399844E1,1.388638878E1,-3.607918262E0,-5.992255688E0
1.149400000E1,1.253061008E1,-2.298788071E0,-5.177269459E0
1.151599844E1,1.437032413E1,-1.645994544E0,3.291357040E0
1.153600156E1,1.821414757E1,6.501023769E-1,1.007625675E1
1.155600625E1,1.647160912E1,3.155107737E0,1.344513798E1
1.157799844E1,1.157057285E1,7.389348984E0,1.669003677E1
1.159799844E1,8.187432289E0,5.494874954E0,1.137889385E1
1.161800313E1,6.538689613E0,1.926183105E0,5.048787117E0
1.164000000E1,4.864797592E0,-1.604785472E-1,3.560781240E0
1.166000000E1,3.817985535E0,-1.285399079E0,2.965936899E0
1.168199844E1,4.009780407E0,-2.694338799E0,3.236558676E0
1.170199844E1,4.164752007E0,-2.875426769E0,3.550514936E0
1.172199844E1,4.696916103E0,-3.369063139E0,3.412388563E0
1.174199844E1,3.705927134E0,-2.823213816E0,2.847184658E0
1.176199844E1,1.571659327E0,-9.758191705E-1,1.414954066E0
1.178199844E1,2.578363717E-1,1.615415812E0,-4.895520210E0
1.180199844E1,2.390629530E0,2.408921242E0,-8.896939278E0
1.182202188E1,6.746343136E0,2.474005222E0,-5.681488514E0
1.184399844E1,1.308850670E1,2.038844824E0,-1.795584202E0
1.186399844E1,1.736385155E1,1.866280317E0,9.512546659E-1
1.188599844E1,1.939095497E1,3.423746824E0,1.185024500E0
1.190600469E1,1.809856606E1,6.230910301E0,3.042168617E-1
1.192799844E1,1.331677055E1,5.617094040E0,-1.072975874E0
1.194799844E1,9.937870979E0,5.484177589E0,8.703880906E-1
1.196999688E1,9.007628441E0,3.015602350E0,3.034870863E0
1.198999688E1,1.202290535E1,2.462110758E0,5.320011616E0
1.200999844E1,1.674211502E1,2.489002466E0,6.084557056E0
1.202999844E1,1.858803558E1,1.633736253E0,4.910449982E0
1.205199688E1,1.656027222E1,8.034940809E-2,3.799885511E0
1.207199688E1,1.402283859E1,-9.621051550E-1,4.046804428E0
1.209200000E1,1.223281956E1,-2.067584753E0,6.491351128E0
1.211200625E1,8.099536896E0,-2.226310730E0,5.566863537E0
1.213399844E1,4.057606697E0,-1.253268838E0,2.670272112E0
1.215601250E1,1.270076156E0,-3.950049877E-1,8.271200657E-1
1.217799688E1,6.318777055E-2,1.982111633E-1,9.863440394E-1
1.219800000E1,-1.429913044E-1,4.102129638E-1,1.704920650E0
1.222000000E1,1.851196736E-1,7.261613607E-1,1.722455740E0
1.224000000E1,8.331151605E-1,1.380640388E0,1.817764163E0
1.226199844E1,3.221120596E0,1.579292059E0,1.996754646E0
1.228199844E1,6.730809689E0,1.197857380E0,2.825129509E0
1.230199844E1,1.077105331E1,1.140597701E0,3.356699467E0
1.232199844E1,1.334296322E1,2.726229429E-1,4.225909710E0
1.234399688E1,1.651457977E1,-2.541502714E0,3.861071587E0
1.236399844E1,1.469361782E1,-5.604356766E0,-1.901503682E0
1.238399844E1,1.308420658E1,-8.127347946E0,-7.743987560E0
1.240399844E1,1.675975609E1,-6.450228691E0,-1.302848911E1
1.242399844E1,1.330960655E1,-2.556854248E0,-6.786862850E0
1.244599844E1,8.868554115E0,-2.213841915E0,-1.985952020E0
1.246599844E1,1.268680763E1,-2.374243736E0,2.155959368E0
1.248599844E1,1.666620064E1,-1.185120225E0,5.954896927E0
1.250599844E1,1.805695534E1,1.907958508E0,1.235212708E1
1.252600000E1,1.495300579E1,3.927582502E0,1.681838608E1
1.254799844E1,7.722564220E0,2.194151878E0,8.987335205E0
1.256799844E1,4.170441151E0,5.803449154E-1,3.590182066E0
1.258799844E1,2.261783123E0,-2.618682086E-1,1.304772973E0
1.260799844E1,1.359475613E0,-8.703976274E-1,7.724269629E-1
1.262800313E1,1.194495916E0,-1.839379072E0,1.172823668E0
1.264999844E1,2.282105207E0,-2.626525402E0,2.093605042E0
1.266999844E1,4.876261234E0,-2.972276926E0,2.121425629E0
1.269200000E1,7.172683716E0,-2.625596523E0,1.715445518E0
1.271399844E1,6.170346260E0,1.778221428E-1,2.024996758E0
1.273399844E1,6.269944668E0,2.208497763E0,2.423334122E0
1.275399844E1,7.524707794E0,3.204830647E0,2.302130461E0
1.277399844E1,9.976762772E0,3.009540319E0,1.738123417E0
1.279399844E1,1.497870064E1,3.186931372E0,-2.833624125E0
1.281600000E1,1.936933899E1,3.552842140E0,-4.956476688E0
1.283799844E1,1.656763649E1,5.708121777E0,-3.213976383E0
1.285799844E1,1.206612492E1,7.301941872E0,-1.997051537E-1
1.287799844E1,1.385179806E1,5.335124016E0,1.521074653E0
1.289799844E1,1.082454014E1,1.758196354E0,1.901379228E0
1.291799844E1,1.095331001E1,1.258200854E-1,3.253279448E0
1.293799844E1,1.127957249E1,1.113083482E0,5.718857288E0
1.295799844E1,1.241601372E1,3.513538837E-1,6.663762093E0
1.297799844E1,1.522905731E1,-2.153134346E0,6.162694454E0
1.299799844E1,1.623077202E1,-3.859012604E0,6.919348240E0
1.301804688E1,1.553654003E1,-6.489042759E0,9.726789474E0
1.303999844E1,8.621912956E0,-4.036796570E0,5.461844444E0
1.305999844E1,3.937772274E0,-1.948219419E0,3.782321453E0
1.307999844E1,1.962613225E0,-6.326917410E-1,2.922534943E0
1.309999844E1,1.199590802E0,4.008851200E-2,2.158190966E0
1.311999844E1,1.252866626E0,5.267243385E-1,2.152492762E0
1.313999844E1,1.816796899E0,8.139902949E-1,1.549153805E0
1.315999844E1,2.718261719E0,8.122090101E-1,2.926231623E0
1.318199844E1,3.963227510E0,-4.874594510E-2,3.957442999E0
1.320399844E1,5.826653957E0,-7.915422320E-1,3.038414240E0
1.322399844E1,7.754138947E0,-1.260336518E0,2.170947313E0
1.324399844E1,1.024969196E1,-1.536349654E0,2.292285442E0
1.326600313E1,1.390344524E1,-1.864202023E0,2.211064339E0
1.328799844E1,1.650959206E1,-2.847127199E0,7.169963717E-1
1.330799844E1,1.532983398E1,-6.584974289E0,-5.847598076E0
1.332799844E1,1.158784962E1,-7.344635487E0,-1.366771221E1
1.334799844E1,1.364393234E1,-2.991880655E0,-1.295665359E1
1.336799844E1,1.406337833E1,-1.365240812E0,-4.354104996E0
1.338800156E1,8.632246017E0,-1.652659893E0,-1.950316668E0
1.340999844E1,8.559760094E0,-3.082908154E0,1.211992741E0
1.342999844E1,1.458474922E1,-5.140140057E0,5.607852459E0
1.344999844E1,1.643879890E1,-3.849560261E0,9.650883675E0
1.346999844E1,1.440866947E1,-3.959626555E-1,1.462450218E1
1.348999844E1,9.639333725E0,2.408710480E0,1.452746105E1
1.350999844E1,7.246060848E0,1.227593422E0,5.642462730E0
1.352999844E1,4.309276104E0,2.192226797E-1,2.244544983E0
1.354999844E1,2.580192804E0,-6.271276474E-1,1.175850034E0
1.356999844E1,2.262319565E0,-1.506585002E0,3.224031925E-1
1.358999844E1,3.257033587E0,-2.597699165E0,-5.687665343E-1
1.361199844E1,5.228409767E0,-3.908208847E0,-1.536253929E0
1.363399844E1,5.578078270E0,-3.288254261E0,3.498407602E-1
1.365399844E1,4.167864799E0,-1.286768436E0,3.007778168E0
1.367599844E1,4.699760437E0,5.810536146E-1,4.919212818E0
1.369600000E1,7.014081955E0,1.999225497E0,4.566221714E0
1.371600312E1,9.348620415E0,2.656251907E0,3.435382605E0
1.373604219E1,1.225288296E1,2.972477913E0,2.416180372E0
1.375799844E1,1.514184189E1,4.079988003E0,1.249849796E0
1.377799844E1,1.664691353E1,5.852098942E0,-1.113868833E0
1.379799844E1,1.512920952E1,7.647798538E0,-4.680980682E0
1.381799844E1,1.120393467E1,8.429294586E0,-6.328306198E0
1.383799844E1,1.401536942E1,5.276734352E0,-2.767505348E-1
1.385799844E1,1.176018429E1,1.559065819E0,1.580374241E0
1.387799844E1,1.091061592E1,-4.729697704E-1,2.219242811E0
1.389799844E1,1.568308353E1,-1.635910153E0,5.255253315E0
1.391799844E1,1.613087654E1,-2.764393091E0,6.577609539E0
1.393799844E1,1.635223389E1,-4.780473709E0,4.928244114E0
1.395799844E1,1.433777237E1,-6.000894070E0,6.784478188E0
1.397799844E1,1.001527119E1,-7.072854996E0,9.902178764E0
1.399799844E1,4.252763271E0,-4.556577682E0,7.029347420E0
1.401999844E1,1.945087790E0,-2.263219833E0,3.412876844E0
1.403999844E1,2.018254519E0,-1.084267020E0,2.322768211E0
1.405999844E1,9.421949983E-1,-2.779859602E-1,2.167317629E0
1.407999844E1,1.516209602E0,-6.863696873E-2,2.272250652E0
1.409999844E1,2.339901209E0,3.553090990E-1,3.126262426E0
1.411999844E1,3.932466745E0,2.143480778E-1,3.072354555E0
1.413999844E1,5.114914894E0,3.140330911E-1,2.261725903E0
1.415999844E1,6.668886185E0,-2.736955583E-1,1.783479095E0
1.417999844E1,9.031991959E0,-1.086172700E0,2.528660059E0
1.419999844E1,1.215026760E1,-1.223235965E0,3.111897230E0
1.421999844E1,1.655318642E1,-5.394328237E-1,4.678605556E0
1.423999844E1,1.824438286E1,-3.454325438E0,6.356413960E-1
1.425999844E1,1.367725086E1,-9.246617317E0,-7.485988617E0
1.427999844E1,8.476048470E0,-1.011035919E1,-1.246168518E1
1.429999844E1,8.773342133E0,-9.209229469E0,-1.036824417E1
1.432000156E1,1.428479385E1,-4.482261658E0,-2.251861572E0
1.434199844E1,1.160041523E1,-1.600073695E0,-9.114246964E-1
1.436399844E1,1.097884178E1,-3.239795446E0,3.557400405E-1
1.438599844E1,1.603571129E1,-5.474313259E0,4.202063560E0
1.440599844E1,1.623722649E1,-4.684494972E0,9.016276360E0
1.442599844E1,1.300147247E1,-6.401999593E-1,1.790367699E1
1.444600000E1,9.133553505E0,3.322778463E0,1.612753487E1
1.446799844E1,6.611502171E0,1.980263472E0,5.066944599E0
1.448799844E1,4.285889149E0,1.082437754E0,2.146871090E0
1.450799844E1,2.769258261E0,6.585012078E-1,1.260087490E0
1.452799844E1,1.668969274E0,2.647604048E-1,2.604891360E-2
1.454799844E1,2.000623703E0,-1.023569107E0,-8.759043217E-1
1.456799844E1,3.355665207E0,-2.513001919E0,-8.136838675E-1
1.458799844E1,4.661730766E0,-2.959932327E0,5.176455975E-1
1.460799844E1,4.925964832E0,-1.807248831E0,3.518988132E0
1.462799844E1,5.123352051E0,1.982111633E-1,6.290611744E0
1.464799844E1,6.827401161E0,1.917506576E0,6.114906311E0
1.466799844E1,8.622995377E0,2.927802324E0,4.366937637E0
1.468799844E1,1.199723911E1,3.326762438E0,2.340935469E0
1.470799844E1,1.716574669E1,4.034813881E0,-3.974930286E0
1.472799844E1,1.820011711E1,5.462945938E0,-9.900867462E0
1.474799844E1,1.171988583E1,6.937352657E0,-9.305667877E0
1.476799844E1,1.429286766E1,4.523528099E0,-1.583850622E0
1.478799844E1,1.623926735E1,1.770579219E0,2.190139055E0
1.480799844E1,1.085175800E1,-2.798247039E-1,2.113907814E0
1.482799844E1,9.230462074E0,-6.084527969E-1,3.625846148E0
1.484799844E1,1.275918961E1,3.567264676E-1,6.616175175E0
1.486799844E1,1.433533001E1,4.532127976E-1,7.580348969E0
1.488799844E1,1.353522682E1,-1.354189157E0,5.557382584E0
1.490799844E1,1.323075104E1,-2.878069878E0,7.919454098E0
1.492799844E1,1.080785751E1,-3.754979849E0,8.902637482E0
1.494799844E1,6.141069889E0,-2.048095942E0,4.675636768E0
1.496799844E1,3.228571415E0,-7.111641169E-1,3.179882765E0
1.498799844E1,2.176635742E0,1.226789039E-2,3.338177919E0
1.500799844E1,2.246632576E0,2.998115122E-1,2.773759365E0
1.502799844E1,3.758705139E0,4.405044019E-1,2.871586323E0
1.504799844E1,4.383955479E0,-2.580662370E-1,8.601217866E-1
1.506799844E1,4.968494892E0,-1.439298391E0,-1.036153078E0
1.508799844E1,5.382471561E0,-1.703608632E0,-1.609468579E0
1.510799844E1,6.759109020E0,-1.908762932E0,-7.210378051E-1
1.512799844E1,9.153023720E0,-1.529454350E0,7.248781323E-1
1.514799844E1,1.209574604E1,-4.972948730E-1,1.486435294E0
1.516799844E1,1.461683083E1,-3.484904170E-1,1.810753942E0
1.518799844E1,1.584288311E1,-4.172337055E0,-2.987130642E0
1.520799844E1,1.156629276E1,-6.815305710E0,-7.394577980E0
1.522799844E1,1.317902756E1,-6.133753300E0,-7.217225075E0
1.524799844E1,1.539488029E1,-2.266648293E0,-4.867306709E0
1.526799844E1,1.070023346E1,-9.710977674E-1,-3.499633312E0
1.528799844E1,1.142871189E1,-8.834125400E-1,-4.396807671E0
1.530799844E1,1.709458923E1,-2.037005901E0,3.355243921E0
1.532799844E1,1.725366211E1,-6.108949780E-1,9.806602478E0
1.534799844E1,1.383464527E1,1.952902436E0,1.443037987E1
1.536799844E1,9.020749092E0,3.004406929E0,1.287460899E1
1.538799844E1,6.912539005E0,1.983663082E0,5.691917419E0
1.540799844E1,5.021972179E0,1.665176868E0,3.148643255E0
1.542799844E1,4.356910706E0,5.715054870E-1,1.656155467E0
1.544799844E1,3.677532196E0,-1.243069582E-2,8.884307742E-1
1.546799844E1,3.148404121E0,-7.419343591E-1,3.530777395E-1
1.548799844E1,3.854693413E0,-1.980972052E0,-4.912902042E-2
1.550799844E1,4.477865696E0,-2.723864079E0,-5.080495775E-2
1.552799844E1,4.477875710E0,-2.196775913E0,1.337927699E0
1.554799844E1,4.699310780E0,-9.367553592E-1,3.265585661E0
1.556799844E1,6.198837280E0,-7.861600816E-2,3.976500988E0
1.558999844E1,8.263606071E0,5.896631479E-1,2.846916437E0
1.560999844E1,1.210039139E1,1.076298952E0,3.330143094E-1
1.562999844E1,1.796691322E1,2.007260323E0,-3.336205006E0
1.564999844E1,1.955989075E1,4.413433075E0,-5.772104263E0
1.566999844E1,1.298866940E1,7.177740097E0,-5.631756306E0
1.568999844E1,1.034196472E1,5.428728104E0,-3.613080263E0
1.570999844E1,1.267341900E1,2.215795517E0,1.692777276E0
1.572999844E1,8.427484512E0,5.365023017E-1,4.137563705E0
1.574999844E1,8.445700645E0,5.870582461E-1,7.017414570E0
1.576999844E1,1.379296684E1,1.077869654E0,9.213271141E0
1.579200000E1,1.718996620E1,5.927947164E-1,7.834431171E0
1.581200000E1,1.479453850E1,-7.077547312E-1,9.219984055E0
1.583399844E1,1.163141537E1,-2.167154789E0,9.472534180E0
1.585400000E1,8.437320709E0,-2.099973440E0,6.431668282E0
1.587600469E1,5.395113468E0,-7.611454725E-1,4.164522648E0
1.589799844E1,3.087419033E0,3.561806083E-1,3.987734318E0
1.591799844E1,2.659958124E0,6.143713593E-1,3.316112995E0
1.593799844E1,4.475710869E0,1.063025475E0,5.048116684E0
1.595799844E1,4.714757919E0,-6.898556948E-1,1.266044259E0
1.597799844E1,4.320231438E0,-1.803523421E0,-2.223389864E0
1.599799844E1,4.632176876E0,-2.413489580E0,-3.933386087E0
1.601800312E1,5.264217377E0,-2.587021351E0,-2.254840136E0
1.603999844E1,7.741871357E0,-2.611949444E0,-5.175498128E-1
1.605999844E1,1.066474152E1,-2.494518757E0,-6.255570054E-2
1.607999844E1,1.420607185E1,-1.768558502E0,-4.575606585E-1
1.609999844E1,1.701818657E1,-4.206210136E0,-2.776230097E0
1.611999844E1,1.528439236E1,-6.507986546E0,-4.974854469E0
1.613999844E1,1.068615532E1,-3.758820057E0,-3.737377644E0
1.615999844E1,1.136489296E1,-3.669928312E-1,-2.975963831E0
1.617999844E1,1.329365158E1,1.778508782E0,-3.684446573E0
1.619999844E1,1.070000362E1,-3.686783314E-1,-3.598351002E0
1.621999844E1,9.980277061E0,-1.429213881E0,-4.142237186E0
1.624000625E1,1.537706661E1,-1.863005042E0,7.710689545E0
1.626199844E1,1.929124260E1,2.311362326E-1,1.529285812E1
1.628199844E1,1.404169655E1,4.229146481E0,1.826606369E1
1.630199844E1,8.473155975E0,3.676555157E0,1.002910900E1
1.632199844E1,6.847455025E0,1.337630868E0,4.118103504E0
1.634199844E1,5.828205109E0,3.955795765E-1,1.700314164E0
1.636399844E1,4.400398731E0,3.321236372E-2,8.546438217E-1
1.638599844E1,3.023522377E0,-6.606847644E-1,1.066808343E0
1.640599844E1,3.571440220E0,-2.008572340E0,1.237802267E0
1.642600156E1,4.502650738E0,-3.286664248E0,1.519523144E0
1.644799844E1,4.396711826E0,-2.879410744E0,2.046094418E0
1.646799844E1,2.926643372E0,-8.335844278E-1,1.760571361E0
1.648799844E1,3.014328718E0,6.696390510E-1,1.322307944E0
1.650799844E1,4.934152603E0,1.630374789E0,1.981182694E0
1.652799844E1,8.178238869E0,1.989859343E0,2.076127291E0
1.654799844E1,1.281496525E1,1.575413465E0,-1.004894301E-1
1.656799844E1,1.951087761E1,1.520547986E0,-1.541904211E0
1.658799844E1,2.112102509E1,3.297581673E0,-1.972324252E0
1.660799844E1,1.224820900E1,7.369726658E0,-1.954578400E0
1.662800000E1,7.565303802E0,7.989211559E0,-2.482021093E0
1.664999844E1,1.377070141E1,5.983991146E0,1.697910428E0
1.666999844E1,1.493505859E1,2.070457697E0,4.855010033E0
1.669200000E1,1.041009426E1,-6.870304942E-1,3.812498093E0
1.671399844E1,9.244970322E0,-4.690720141E-2,4.385190964E0
1.673399844E1,1.177015400E1,2.162059993E-1,5.494913101E0
1.675399844E1,1.263852119E1,1.482393891E-1,5.321400166E0
1.677399844E1,1.307326031E1,-7.591726184E-1,7.109840393E0
1.679399844E1,1.235865784E1,-2.209043741E0,9.607950211E0
1.681599844E1,8.251568794E0,-1.818147182E0,6.900913239E0
1.683600625E1,4.690222263E0,-5.544013381E-1,4.244057655E0
1.685799844E1,2.829697609E0,6.565188766E-1,3.527894497E0
1.687799844E1,3.621680260E0,1.375382662E0,3.817736626E0
1.689799844E1,4.988749981E0,6.982066631E-1,2.508778572E0
1.691799844E1,5.773425579E0,-6.276926398E-1,8.718724847E-1
1.693799844E1,5.624238491E0,-1.235963464E0,5.777017474E-1
1.695799844E1,5.286531448E0,-9.560909271E-1,8.044517599E-4
1.697799844E1,5.818398476E0,-1.340647578E0,7.817451954E-1
1.699799844E1,7.093914032E0,-2.462963104E0,1.404611111E0
1.701799844E1,9.253713608E0,-3.543638706E0,2.514323473E0
1.703799844E1,1.188232708E1,-3.688104868E0,4.149841309E0
1.705799844E1,1.391623020E1,-4.042370319E0,1.848860025E0
1.707799844E1,1.490737247E1,-7.301721096E0,-5.983646393E0
1.709799844E1,1.167800617E1,-6.918122768E0,-5.838691711E0
1.711800781E1,9.233383179E0,-2.680615187E0,-7.361490250E0
1.714000469E1,1.217585659E1,2.034401149E-1,-6.994660378E0
1.716199844E1,1.023447418E1,-1.852154374E0,-6.024864674E0
1.718199844E1,1.140032578E1,-4.336263180E0,-3.250176668E0
1.720199844E1,1.718884659E1,-4.777687073E0,7.279340267E0
1.722199844E1,1.879575729E1,-2.984075546E0,1.546180248E1
1.724202656E1,1.390473843E1,3.116877079E0,2.157812500E1
1.726399688E1,8.772125244E0,4.347468376E0,1.294756508E1
1.728399844E1,6.610065460E0,1.578123689E0,5.324053288E0
1.730399844E1,5.229941845E0,2.501270473E-1,3.238837719E0
1.732399844E1,3.757029295E0,-2.619831264E-1,2.361563921E0
1.734599844E1,2.757507324E0,-4.848258495E-1,1.768912792E0
1.736599844E1,3.027745962E0,-1.050278783E0,1.330438733E0
1.738599844E1,3.584388256E0,-1.951264739E0,5.845970511E-1
1.740600000E1,2.961100817E0,-2.080312252E0,7.264965773E-2
1.742799844E1,3.063946009E0,-1.309800625E0,5.914731622E-1
1.744999844E1,3.841027260E0,-2.610637434E-2,2.031729221E0
1.747199844E1,5.992303848E0,7.256442308E-1,3.783671856E0
1.749199844E1,8.587532043E0,1.308718562E0,3.760869503E0
1.751199844E1,1.167928028E1,1.983605742E0,3.053038120E0
1.753199844E1,1.676397133E1,2.848046541E0,1.796149254E0
1.755199844E1,1.964742279E1,5.262790680E0,-1.593379498E0
1.757399844E1,1.274901867E1,9.120327950E0,-7.617506981E0
1.759399844E1,9.351311684E0,8.456770897E0,-8.355715752E0
1.761399844E1,1.499057484E1,7.120451450E0,9.943885207E-1
1.763399844E1,1.216440201E1,2.762065887E0,4.891641617E0
1.765399844E1,1.107294369E1,1.541770101E-1,4.521842957E0
1.767599844E1,1.127092457E1,8.836136460E-1,3.965889931E0
1.769600312E1,1.324971294E1,5.247324109E-1,3.288196564E0
1.771800313E1,1.546193695E1,-1.446318150E0,1.832589030E0
1.773999844E1,1.436601448E1,-3.509056807E0,5.287469864E0
1.775999844E1,1.170504093E1,-4.615839005E0,9.382388115E0
1.777999844E1,6.800452232E0,-3.817621469E0,7.196022034E0
1.779999844E1,4.202283859E0,-2.050040007E0,4.379933357E0
1.782000156E1,3.013380527E0,-3.417770565E-1,4.676641941E0
1.784199844E1,2.176348448E0,1.044465661E0,4.016752243E0
1.786399844E1,3.413978577E0,1.092311382E0,2.864279270E0
1.788599844E1,4.829066277E0,9.331353307E-1,1.745516777E0
1.790600312E1,5.030476570E0,5.008191466E-1,1.506201863E0
1.792600469E1,4.998929977E0,-2.286845744E-1,1.402169108E0
1.794799688E1,5.853756428E0,-1.150825739E0,1.265843153E0
1.796799844E1,7.738337517E0,-1.810140967E0,1.575106978E0
1.798799844E1,1.023363209E1,-2.073685169E0,1.733737230E0
1.800799844E1,1.248898888E1,-2.434778452E0,2.473947763E0
1.802799844E1,1.478624535E1,-3.486101389E0,1.983921766E0
1.804799844E1,1.505404091E1,-5.981759548E0,-7.515686750E-1
1.806799844E1,1.223707104E1,-6.919702530E0,-3.285811901E0
1.808799844E1,1.221464252E1,-4.722993851E0,-1.009280491E1
1.810799844E1,1.513438129E1,-8.503246307E-1,-8.930248260E0
1.812799844E1,1.200378036E1,-1.551337361E0,-5.425596237E0
1.814799844E1,1.049314499E1,-3.625099182E0,-2.805477858E0
1.816799844E1,1.322629738E1,-4.617993832E0,5.856399536E0
1.818999844E1,1.574309254E1,-2.524149418E0,1.105454731E1
1.820999844E1,1.481618118E1,5.911954641E-1,1.308656216E1
1.822999844E1,1.196412277E1,3.338130236E0,1.513473511E1
1.824999844E1,7.355974197E0,3.458845615E0,8.925315857E0
1.826999844E1,4.489913464E0,2.009309769E0,4.495879650E0
1.828999844E1,3.289815187E0,5.201355815E-1,2.306755781E0
1.830999844E1,2.514409781E0,-5.145235062E-1,1.607945800E0
1.832999844E1,2.758197069E0,-1.398242593E0,1.637701035E0
1.834999844E1,4.000730038E0,-2.243309498E0,1.870551467E0
1.836999844E1,5.927621841E0,-2.829400539E0,1.533649087E0
1.839199844E1,6.766157627E0,-2.849032879E0,1.849472880E0
1.841199844E1,5.179443359E0,-5.736411810E-1,2.802010775E0
1.843199844E1,4.648266315E0,1.335926294E0,3.442862034E0
1.845199844E1,5.744762897E0,2.232688904E0,3.325373888E0
1.847199844E1,7.855768681E0,2.378285170E0,3.013303995E0
1.849200156E1,1.071636009E1,2.555120945E0,1.679781437E0
1.851399844E1,1.619215775E1,3.035139084E0,-4.874795914E0
1.853601875E1,1.804377747E1,4.648275375E0,-8.298025131E0
1.855799844E1,1.268257523E1,7.143263817E0,-4.920544147E0
1.857799844E1,1.437053490E1,7.634400368E0,1.075954199E0
1.859799844E1,1.481307888E1,4.033138275E0,3.437891483E0
1.861800312E1,1.076706028E1,7.988014817E-1,2.601530075E0
1.863999844E1,8.967444420E0,-2.135627903E-3,3.218276262E0
1.865999844E1,1.125619507E1,-8.246587962E-2,5.059082031E0
1.867999844E1,1.311596394E1,-8.339387774E-1,4.174721718E0
1.869999844E1,1.465857601E1,-2.180131435E0,2.647575140E0
1.871999844E1,1.470001602E1,-4.163650990E0,6.555506229E0
1.873999844E1,1.271067238E1,-5.347248554E0,1.296170998E1
1.876000000E1,6.504643440E0,-3.370413542E0,7.004868984E0
1.878199844E1,4.257542133E0,-2.192973852E0,2.604048491E0
1.880199844E1,3.092992783E0,-6.988770962E-1,2.663175821E0
1.882202031E1,1.908303261E0,5.300953984E-1,2.807287693E0
1.884399844E1,3.200750828E0,6.242353916E-1,1.938633084E0
1.886399844E1,4.598763466E0,3.727580607E-1,2.825292110E0
1.888399844E1,4.324522018E0,5.869433880E-1,9.669222832E-1
1.890399844E1,4.496521473E0,3.286568522E-1,7.396646738E-1
1.892399844E1,5.864539623E0,-2.510655522E-1,9.798892736E-1
1.894399844E1,7.505535126E0,-6.676566601E-1,1.468392611E0
1.896600625E1,1.013791180E1,-6.857951283E-1,2.282392502E0
1.898799844E1,1.320279694E1,-9.294673800E-1,3.453932762E0
1.900799844E1,1.527198029E1,-2.062394142E0,3.608981371E0
1.902800000E1,1.450959015E1,-5.728309631E0,1.155154467E0
1.904999844E1,1.159927559E1,-8.371708870E0,-5.294010639E0
1.907000000E1,1.185282135E1,-5.492461205E0,-1.360434246E1
1.909000000E1,1.247976685E1,-1.535104632E0,-7.743442059E0
1.911199844E1,9.765881538E0,-2.943910360E0,-5.094114304E0
1.913199844E1,1.076286507E1,-4.021780014E0,2.107778549E0
1.915199844E1,1.505241299E1,-5.159609795E0,4.870725632E0
1.917399844E1,1.723771667E1,-4.063094139E0,6.669326782E0
1.919600312E1,1.513192940E1,-6.004370451E-1,1.472715664E1
1.921600312E1,9.622573853E0,3.922985554E0,1.569393444E1
1.923601094E1,5.866771221E0,2.495342255E0,7.602739811E0
1.925799844E1,4.053134441E0,1.772666872E-1,2.867908955E0
1.927803906E1,2.645430088E0,-2.236759067E-1,1.925053120E0
1.929999844E1,2.202148438E0,-4.888959825E-1,1.162557244E0
1.931999844E1,3.459180832E0,-1.847050071E0,3.872286081E-1
1.934000000E1,4.658598900E0,-2.690977335E0,-2.225649916E-2
1.936199688E1,5.340104103E0,-2.463011026E0,1.383570790E0
1.938199844E1,3.940425158E0,-5.944802761E-1,3.220258713E0
1.940201562E1,4.115421772E0,1.083117723E0,4.325556278E0
1.942399844E1,6.154649734E0,1.845575213E0,4.192792892E0
1.944600000E1,8.580665588E0,2.199419022E0,3.857125998E0
1.946799844E1,1.224463654E1,2.512360334E0,2.320996523E0
1.948799844E1,1.725366974E1,2.714028835E0,-6.594972610E-1
1.950799844E1,1.852536583E1,5.319533348E0,-7.289472580E0
1.952799844E1,1.258047676E1,8.425436020E0,-1.063999557E1
1.954799844E1,1.159540653E1,8.819874763E0,-4.368929863E0
1.956799844E1,1.457556438E1,4.128992081E0,3.915362597E0
1.958799844E1,1.186775112E1,6.087592840E-1,4.303548813E0
1.960799844E1,1.023836327E1,6.763140857E-2,4.256670475E0
1.962799844E1,1.082851505E1,-2.704490349E-2,4.837820053E0
1.964799844E1,1.357363033E1,-3.171934187E-1,3.873981237E0
1.966799844E1,1.551481056E1,-1.612791777E0,2.138577700E0
1.968799844E1,1.560792542E1,-3.229279995E0,5.533038616E0
1.970799844E1,1.312442017E1,-4.464592457E0,1.159909248E1
1.972799844E1,7.345410824E0,-3.204026222E0,7.502738953E0
1.974799844E1,3.943891764E0,-2.332287550E0,1.788009048E0
1.976799844E1,3.388446569E0,-1.487335563E0,1.454343557E0
1.978799844E1,2.574666977E0,8.339291811E-1,2.796983242E0
1.980799844E1,1.742107272E0,2.583640575E0,3.854252815E0
1.982799844E1,2.511335611E0,2.637902498E0,2.641963482E0
1.984799844E1,3.838997126E0,1.310787082E0,2.114807844E0
1.986799844E1,4.820581436E0,-1.427710354E-1,2.634206057E0
1.988799844E1,5.604491234E0,-7.318117023E-1,2.702095985E0
1.990799844E1,6.890186787E0,-1.468383074E0,2.125687361E0
1.992799844E1,8.900281906E0,-1.646109462E0,1.951647878E0
1.994999844E1,1.217198753E1,-1.907345533E0,1.947711825E0
1.996999844E1,1.527640533E1,-2.583008528E0,1.812219143E0
1.998999844E1,1.565792561E1,-4.952913761E0,-2.831833124E0
2.000999844E1,1.307020569E1,-6.700738430E0,-4.627857685E0
2.002999844E1,1.016742802E1,-6.602787018E0,-1.161043262E1
2.004999844E1,1.341736507E1,-3.619554281E0,-7.560716629E0
2.007199844E1,1.208566189E1,-2.691389084E0,-4.103039265E0
2.009199844E1,9.624958992E0,-4.510992050E0,-4.254084587E0
2.011199844E1,1.257875252E1,-6.655229568E0,3.154695988E0
2.013199844E1,1.661874771E1,-6.656311512E0,8.384523392E0
2.015199844E1,1.691310883E1,-4.331484318E0,9.846911430E0
2.017399844E1,1.202150726E1,1.116377950E0,1.967108536E1
2.019399844E1,8.633568764E0,3.961953640E0,1.329786491E1
2.021399844E1,6.803986073E0,1.740010023E0,4.409468174E0
2.023399844E1,5.101574898E0,6.220710278E-1,2.003477573E0
2.025399844E1,3.655697107E0,2.234173268E-1,7.317446470E-1
2.027605312E1,3.471966028E0,-2.178436220E-1,1.066090167E-1
2.029799844E1,4.470281124E0,-1.372748971E0,-9.511014223E-1
2.031800469E1,3.493044376E0,-1.613701582E0,-1.238118291E0
2.033999844E1,2.634656191E0,-1.239152551E0,-2.617054284E-1
2.035999844E1,2.306755781E0,-4.756608307E-1,8.272062540E-1
2.037999844E1,3.061628342E0,2.004138380E-1,3.282029152E0
2.039999844E1,5.199076176E0,1.025235415E0,5.652432442E0
2.041999844E1,8.580924034E0,8.249174356E-1,5.424456596E0
2.043999844E1,1.256343937E1,5.651177764E-1,4.072364807E0
2.045999844E1,1.659469223E1,1.379922152E0,2.748553276E0
2.048199844E1,1.931712914E1,3.730252504E0,1.738142610E0
2.050399844E1,1.655286980E1,6.938224316E0,-1.389891624E0
2.052399844E1,1.125923157E1,9.359221458E0,-9.154009819E0
2.054399844E1,1.263706589E1,7.615046024E0,-4.916158199E0
2.056399844E1,1.271441841E1,2.509985447E0,2.389461279E0
2.058399844E1,9.337731361E0,6.459364891E-1,3.301269054E0
2.060399844E1,8.535118103E0,7.187010646E-1,3.768894672E0
2.062600000E1,1.313095093E1,4.963180125E-1,3.645679712E0
2.064601094E1,1.556749249E1,-1.258756399E0,2.968369722E0
2.066799844E1,1.718153954E1,-3.509401560E0,4.158364296E0
2.068799844E1,1.659157753E1,-6.385757446E0,8.945321083E0
2.070799844E1,9.694352150E0,-5.540317059E0,7.551791191E0
2.072999844E1,3.696360111E0,-2.760983944E0,3.637175560E0
2.075199844E1,2.202425957E0,-1.922448277E0,2.148575783E0
2.077199844E1,2.143002033E0,-4.906294048E-1,3.044859648E0
2.079200312E1,1.123005152E0,5.595920086E-1,2.394278288E0
2.081399844E1,1.175476432E0,1.474770784E0,3.025073767E0
2.083399844E1,1.610167742E0,1.693868995E0,4.761272430E0
2.085399844E1,2.856205940E0,1.084448814E0,5.306757927E0
2.087399844E1,5.377137661E0,-9.911995381E-3,4.230372429E0
2.089599844E1,7.628185272E0,-1.404534578E0,2.722418070E0
2.091601094E1,1.051061249E1,-2.633382559E0,2.738114595E0
2.093799844E1,1.369644260E1,-2.823568344E0,3.689503193E0
2.095799844E1,1.579835033E1,-1.801052570E0,4.607564449E0
2.097999688E1,1.521909809E1,-6.661377907E0,-1.049632454E1
2.099999844E1,1.048775291E1,-8.538077354E0,-1.578685856E1
2.101999844E1,9.186762810E0,-5.337259769E0,-1.229441738E1
2.103999844E1,1.299653149E1,-1.973904371E0,-4.824843407E0
2.105999844E1,1.105416298E1,-2.643543482E0,-3.337402344E0
2.107999844E1,1.181140137E1,-3.919624329E0,-7.517218590E-1
2.109999844E1,1.482958031E1,-5.300341129E0,6.890483856E0
2.112200781E1,1.606596565E1,-3.090828180E0,1.462679100E1
2.114399844E1,1.318909168E1,1.481579900E0,1.928528595E1
2.116399844E1,9.787171364E0,3.195761204E0,1.163546562E1
2.118399844E1,6.718321323E0,2.792280674E0,5.520387650E0
2.120601250E1,4.599702358E0,2.002902985E0,2.913504124E0
2.122799844E1,3.635097265E0,5.509440899E-1,1.260422707E0
2.124799844E1,3.441109419E0,-2.645497024E-1,4.605103433E-1
2.126800000E1,3.487633467E0,-1.315249920E0,-3.153355122E-1
2.128999844E1,4.690087795E0,-2.318382025E0,-5.906399488E-1
2.130999844E1,4.248846054E0,-1.976384759E0,2.575203404E-2
2.132999844E1,4.055107594E0,-9.581595659E-1,1.503903389E0
2.134999844E1,4.357523918E0,-3.175669163E-2,2.993077755E0
2.136999844E1,5.687895298E0,5.371630788E-1,3.772744656E0
2.138999844E1,7.949353218E0,8.939278722E-1,3.436005116E0
2.140999844E1,1.082040310E1,1.266513586E0,3.120477915E0
2.142999844E1,1.473405170E1,1.138347149E0,2.412139177E0
2.144999844E1,1.951684189E1,1.596396208E0,8.645271063E-1
2.146999844E1,1.608959007E1,5.558091164E0,-4.163057327E0
2.148999844E1,9.577151299E0,9.219639778E0,-1.055622673E1
2.150999844E1,1.038338470E1,8.799533844E0,-4.322309494E0
2.152999844E1,1.304099655E1,3.663434982E0,3.370097399E0
2.154999844E1,1.190006351E1,4.260338247E-1,5.605525494E0
2.156999844E1,1.178070831E1,-6.050626189E-2,5.201115608E0
2.158999844E1,1.423360538E1,-1.990635097E-1,4.255636215E0
2.160999844E1,1.572640896E1,-9.382588863E-1,2.327882290E0
2.162999844E1,1.507585716E1,-2.223092794E0,1.504334331E0
2.164999844E1,1.473195457E1,-3.892703772E0,6.518558979E0
2.166999844E1,1.074148083E1,-4.671116352E0,1.032854748E1
2.168999844E1,4.515119553E0,-2.376120567E0,6.501703739E0
2.171200469E1,2.235935211E0,-1.456718564E0,3.313431501E0
2.173399688E1,1.885136962E0,5.390593410E-1,4.135887623E0
2.175399844E1,9.756467938E-1,1.464916229E0,2.892731905E0
2.177399844E1,1.500963330E0,1.492191076E0,2.644740582E0
2.179399844E1,2.553761005E0,9.689238071E-1,3.829726696E0
2.181399844E1,3.382834673E0,5.938769579E-1,3.417943001E0
2.183399844E1,4.552440643E0,1.159942821E-1,2.143777847E0
2.185399844E1,6.631335258E0,-1.034036636E0,2.469350815E0
2.187399844E1,9.362678528E0,-2.094409466E0,2.386080503E0
2.189599844E1,1.289574528E1,-3.026395559E0,2.379501104E0
2.191600000E1,1.550059795E1,-3.860314846E0,2.620740891E0
2.193799844E1,1.584344864E1,-6.986146450E0,-4.138425589E-1
2.195799844E1,1.242362785E1,-9.601782799E0,-3.749310255E0
2.197799844E1,8.930132866E0,-9.489562035E0,-8.508810997E0
2.199799844E1,1.272690582E1,-3.841036797E0,-9.323931694E0
2.201799844E1,1.143308926E1,-2.168696642E0,-5.698860645E0
2.203799844E1,1.049964714E1,-3.213650703E0,-4.278323650E0
2.205799844E1,1.487969494E1,-4.714297771E0,2.982514381E0
2.207799844E1,1.895149422E1,-5.630789280E0,8.043014526E0
2.209799844E1,1.676115417E1,-3.319263697E0,1.620529747E1
2.211799844E1,1.066909885E1,2.323170424E0,2.118150139E1
2.213799844E1,7.232519627E0,2.704863787E0,1.061558437E1
2.215799844E1,5.083752155E0,1.002911925E0,4.882888317E0
2.217799844E1,3.434702635E0,1.812506467E-1,2.742385626E0
2.219799844E1,2.271455765E0,-4.872966707E-1,1.872725487E0
2.221799844E1,2.481523037E0,-5.650315881E-1,1.590104222E0
2.223799844E1,3.773434401E0,-1.756300211E0,5.712565407E-2
2.225799844E1,4.134269238E0,-2.703982592E0,-1.163965106E0
2.227799844E1,3.745537043E0,-1.903907418E0,-3.720972538E-1
2.229799844E1,3.279577494E0,-1.871595234E-1,2.019250631E0
2.231801250E1,4.815180302E0,1.138213038E0,4.868159294E0
2.233999844E1,7.350112915E0,2.392132998E0,5.268546581E0
2.235999844E1,9.777469635E0,3.244612455E0,3.770724058E0
2.237999844E1,1.405482578E1,3.843938828E0,4.647336900E-1
2.240001406E1,1.872553825E1,5.539004803E0,-5.783289909E0
2.242199844E1,1.635995483E1,7.856917381E0,-6.885139942E0
2.244199844E1,9.231313705E0,9.352575302E0,-6.878867149E0
2.246399688E1,1.172000027E1,8.919042587E0,1.113907099E0
2.248399844E1,1.480465126E1,3.613932610E0,3.681975842E0
2.250399844E1,1.285332870E1,3.332633078E-1,3.150261879E0
2.252599844E1,1.132283115E1,-4.921329319E-1,3.878999472E0
2.254600156E1,1.304146576E1,-5.968840122E-1,2.233608246E0
2.256799688E1,1.511570644E1,-7.834785581E-1,9.941012859E-1
2.258799688E1,1.576167202E1,-4.281703949E0,9.147536278E0
2.260799688E1,1.473461628E1,-7.747215271E0,1.642669487E1
2.262799688E1,7.993291378E0,-5.633403301E0,9.216479301E0
2.264799688E1,4.145148277E0,-3.038720608E0,3.747050047E0
2.266799688E1,2.483045578E0,-1.781515837E0,2.450982571E0
2.268799688E1,3.223936319E0,-9.061095715E-1,2.608329535E0
2.270799844E1,3.597278595E0,6.305657029E-1,2.761635065E0
2.272999688E1,2.918790579E0,2.845269144E-1,2.868828177E-1
2.274999688E1,2.074633360E0,-3.543418716E-4,-1.997463346E0
2.276999844E1,2.600840569E0,3.538438678E-1,-3.215575695E0
2.278999844E1,3.729562998E0,4.304296076E-1,-1.429213881E0
2.280999844E1,5.623625278E0,1.784829497E-1,3.574830294E-1
2.282999844E1,7.674087048E0,7.230489701E-2,2.375871658E0
2.285199844E1,1.088538170E1,8.750136495E-1,4.688651562E0
2.287199844E1,1.526689529E1,5.088827610E-1,6.406624794E0
2.289200000E1,1.823264122E1,-4.427894115E0,3.379233599E0
2.291200469E1,1.469531345E1,-8.512019157E0,2.981805801E0
2.293399844E1,1.074684334E1,-9.437005043E0,-7.435203075E0
2.295399844E1,1.497569370E1,-4.812067986E0,-1.223451424E1
2.297399844E1,1.041529465E1,-2.940807581E0,-7.040638447E0
2.299399844E1,1.104130173E1,-2.070227861E0,1.218054891E0
2.301399844E1,1.491296482E1,-2.208900213E0,1.552793145E0
2.303399844E1,1.727724838E1,-3.081394911E0,4.850757599E0
2.305399844E1,1.647398376E1,-2.051859617E0,1.034125614E1
2.307399844E1,1.242718029E1,2.295972347E0,1.576055050E1
2.309399844E1,7.172358036E0,4.199171543E0,1.256275940E1
2.311399844E1,4.842416286E0,1.824515700E0,5.024318218E0
2.313399844E1,3.183522224E0,3.743286431E-1,1.882781029E0
2.315399844E1,1.781678677E0,-5.000625253E-1,8.865633011E-1
2.317399844E1,1.748179078E0,-1.558089018E0,8.319947124E-1
2.319399844E1,2.971864939E0,-2.627377748E0,5.750777125E-1
2.321399844E1,3.413250446E0,-3.074585915E0,3.007021546E-1
2.323399844E1,3.993260145E0,-3.238809109E0,1.654718995E0
2.325399844E1,3.896237612E0,-1.720310569E0,3.800393105E0
2.327601250E1,4.949944973E0,3.652402759E-1,4.697625160E0
2.329799844E1,7.036185265E0,2.124719858E0,4.117634296E0
2.331799844E1,9.694974899E0,3.314015627E0,3.260643959E0
2.333800156E1,1.493048191E1,3.665992260E0,5.543630123E-1
2.335999844E1,2.140190315E1,4.670503616E0,-6.704722881E0
2.337999844E1,1.724731255E1,6.669297695E0,-8.600278854E0
2.339999844E1,1.097092152E1,6.594234943E0,-6.650594234E0
2.341999844E1,1.373904037E1,5.176350117E0,-1.561680317E0
2.343999844E1,1.503470612E1,2.381206036E0,2.902347088E0
2.345999844E1,1.017515659E1,2.522147894E-1,3.474800825E0
2.348199844E1,6.732418537E0,5.999869481E-2,4.335133076E0
2.350399844E1,7.700356007E0,1.526543021E0,6.172730923E0
2.352600313E1,1.122611523E1,1.336548686E0,5.968840599E0
2.354799844E1,1.544075298E1,-1.356334448E0,5.179644585E0
2.356799844E1,1.590136814E1,-3.894666910E0,1.012105656E1
2.358799844E1,1.295241070E1,-4.755037785E0,9.722230911E0
2.360799844E1,7.490863323E0,-2.604364634E0,3.354516029E0
2.362799844E1,5.345055103E0,-1.522501588E0,2.389873028E0
2.364799844E1,3.912000895E0,6.904877722E-2,2.945097923E0
2.366799844E1,3.677493811E0,2.365538359E0,3.929785252E0
2.368799844E1,3.384615898E0,2.430976629E0,2.070055485E0
2.370799844E1,3.159972668E0,6.861590743E-1,-5.714768171E-1
2.372799844E1,3.425719500E0,9.340259433E-2,-4.658063054E-1
2.374799844E1,3.779946566E0,-2.307148576E-1,6.413587928E-1
2.376799844E1,4.638756275E0,-8.655518293E-2,1.398980021E0
2.378799844E1,6.810862541E0,-1.325717270E-1,1.299113035E0
2.380799844E1,1.030811977E1,-7.181168795E-1,1.875473976E0
2.382800000E1,1.459421062E1,-1.574953794E0,4.546704292E0
2.384800000E1,1.791455650E1,-4.512112141E0,3.377519608E0
2.386999844E1,1.519710922E1,-8.060424805E0,1.911147594E0
2.388999844E1,1.109223175E1,-9.240316391E0,-5.908439636E0
2.390999844E1,9.672210693E0,-5.264303684E0,-1.147917271E1
2.392999844E1,1.236575508E1,4.992006123E-1,-9.112034798E0
2.394999844E1,1.006579876E1,-1.854969978E0,-8.166612625E0
2.396999844E1,1.259630680E1,-5.198281288E0,-2.191297770E0
2.398999844E1,1.639876747E1,-6.211057186E0,9.452729225E0
2.400999844E1,1.618137550E1,-2.829735756E0,1.636233711E1
2.402999844E1,1.298455048E1,1.884954929E0,1.921410179E1
2.405000000E1,1.001731110E1,4.233503819E0,1.410724068E1
2.407199688E1,6.736775875E0,2.097837925E0,6.077173233E0
2.409199844E1,3.952501535E0,6.048902869E-1,3.009272099E0
2.411199844E1,2.789407730E0,-4.915870726E-1,1.344899654E0
2.413199844E1,1.528381705E0,-7.827890515E-1,1.396911383E0
2.415399844E1,1.101734996E0,-7.079367042E-1,1.320948124E0
2.417599844E1,2.934371710E0,-1.693198562E0,9.540510774E-1
2.419600000E1,4.205721855E0,-2.295847893E0,6.738240719E-1
2.421600469E1,4.313853741E0,-8.736824989E-1,2.471199274E0
2.423799844E1,4.620273113E0,1.279174089E0,4.679457664E0
2.425799844E1,5.877717495E0,2.829410076E0,5.194019318E0
2.427799844E1,8.054295540E0,3.789053917E0,4.556567669E0
2.429799844E1,1.177874374E1,4.119348526E0,2.747154951E0
2.431800000E1,1.649075317E1,4.529264450E0,-9.298696518E-1
2.433999844E1,1.928506470E1,6.608417988E0,-8.565113068E0
2.435999844E1,1.429995441E1,8.706935883E0,-8.545250893E0
2.437999844E1,1.085421848E1,8.569259644E0,-2.780261993E0
2.439999844E1,1.525861168E1,6.696247101E0,5.185151577E0
2.442000000E1,1.187392902E1,1.852077842E0,4.189805031E0
2.444199844E1,9.513542175E0,4.946133494E-1,3.678221703E0
2.446199844E1,1.095680523E1,1.368516088E0,4.704539299E0
2.448199844E1,1.410312176E1,9.636086822E-1,2.804769039E0
2.450199844E1,1.527110958E1,1.202377677E0,6.561549306E-1
2.452199844E1,1.377623653E1,5.341942906E-1,4.826317787E0
2.454199844E1,1.222112560E1,-1.697287798E0,1.066871548E1
2.456199844E1,9.266661644E0,-1.528036952E0,1.027855682E1
2.458199844E1,4.922066689E0,6.530903578E-1,4.763561249E0
2.460199844E1,3.502611876E0,1.729408503E0,4.957826614E0
2.462199844E1,4.087237358E0,1.888613224E0,6.527158737E0
2.464199844E1,4.416536331E0,-8.756074309E-2,4.592040539E0
2.466199844E1,4.793833733E0,-1.450225472E0,2.878979683E0
2.468199844E1,4.528901100E0,-8.719969988E-1,9.396570921E-1
2.470199844E1,3.262866020E0,-6.425079703E-1,-1.244582653E0
2.472199844E1,3.011570454E0,-1.544968724E0,-1.222795367E0
2.474199844E1,3.478209972E0,-1.876402974E0,-6.580128074E-1
2.476199844E1,4.465320110E0,-1.708933353E0,2.913647890E-1
2.478200000E1,8.602270126E0,-7.457746863E-1,2.689167559E-1
2.480399844E1,1.557919502E1,-7.661157846E-1,1.116464138E-1
2.482599844E1,2.055608940E1,-5.433593392E-1,5.709041119E0
2.484599844E1,1.688484955E1,1.001781821E0,5.504422665E0
2.486599844E1,1.138495636E1,1.064653516E0,4.124060273E-1
2.488599844E1,1.147519779E1,1.657745242E-1,-3.204016387E-1
2.490599844E1,1.183984470E1,-2.999034405E0,-7.156077027E-1
2.492599844E1,1.205581188E1,-2.901715040E0,7.439484119E0
2.494599844E1,1.110621262E1,-1.305826306E0,2.192937469E1
2.496599844E1,7.558676720E0,9.095667601E-1,2.353947449E1
2.498600781E1,7.761561394E0,1.823175073E0,1.175206375E1
2.500799844E1,8.579430580E0,3.207272768E0,7.586708069E0
2.502799844E1,9.507948875E0,2.863149166E0,7.176198006E0
2.504799844E1,8.650489807E0,2.193883657E0,5.509000301E0
2.506799844E1,7.267264366E0,1.958227158E0,2.305415154E0
2.508799844E1,5.424839973E0,1.515127420E0,4.517762661E-1
2.510799844E1,3.739561081E0,7.927584648E-1,-1.038700461E0
2.512799844E1,2.415174723E0,-9.227253497E-2,-4.756799936E-1
2.514799844E1,1.460999370E0,3.182660341E-1,6.133178473E-1
2.516799844E1,7.743806243E-1,1.681246758E0,6.546609402E-1
2.518799844E1,9.161365032E-1,3.779352665E0,1.684914708E0
2.520799844E1,2.505694866E0,5.784525394E0,1.393320084E0
2.522799844E1,6.442969322E0,5.990848064E0,-6.107608676E-1
2.524799844E1,9.548871040E0,6.122184753E0,-1.070246458E0
2.526799844E1,1.227393246E1,7.009120941E0,2.477529526E0
2.528800000E1,1.497932339E1,8.404539108E0,5.867077827E0
2.530999844E1,1.503411198E1,8.365034103E0,2.934237719E0
2.532999844E1,1.349551201E1,4.959339619E0,-2.111216545E0
2.534999844E1,1.281835461E1,6.337949753E0,1.933164716E0
2.536999844E1,9.349061012E0,5.604874134E0,7.972433090E0
2.538999844E1,6.839066029E0,4.029881954E0,9.141521454E0
2.541199844E1,8.803134918E0,5.863170147E0,9.857713699E0
2.543399844E1,1.182652378E1,6.275461197E0,8.154449463E0
2.545399844E1,1.385128975E1,4.221379757E0,7.680130005E0
2.547399844E1,1.279833031E1,1.388273120E0,1.029360294E1
2.549399844E1,1.138597107E1,1.207443774E-1,8.597693443E0
2.551399844E1,8.215195656E0,1.447955728E0,4.986968517E0
2.553399844E1,5.592491150E0,2.673346519E0,3.407399178E0
2.555399844E1,4.259189129E0,2.581303596E0,2.871548176E0
2.557399844E1,4.773511410E0,1.221378088E0,1.593025088E0
2.559600313E1,4.140800953E0,-7.814674638E-3,8.198991418E-1
2.561600781E1,2.993738413E0,-7.070843577E-1,2.993805408E-1
2.563799844E1,2.370221376E0,-1.048181534E0,-9.582553059E-2
2.565799844E1,9.393985868E-1,-7.405744791E-1,3.772782981E-1
2.567799844E1,5.057607293E-1,-3.730357587E-1,1.666029215E0
2.569799844E1,2.322279692E0,4.137468040E-1,3.197896957E0
2.571999844E1,4.963160992E0,2.437651634E0,5.126483917E0
2.573999844E1,6.659979343E0,5.500889301E0,6.306595325E0
2.575999844E1,1.139991474E1,5.845960617E0,9.929070473E0
2.577999844E1,2.124867439E1,6.703668833E-1,1.463306332E1
2.579999844E1,2.748666191E1,-7.067290306E0,7.539839268E0
2.581999844E1,1.911213684E1,-4.474284172E0,-6.643775940E0
2.583999844E1,1.166889858E1,-3.544663668E0,-4.984938622E0
2.586199688E1,1.128664970E1,-5.296567917E0,-1.524847865E0
2.588199844E1,1.278991222E1,-2.705160618E0,7.556244373E0
2.590199844E1,9.755577087E0,-6.957550347E-2,1.990923309E1
2.592199844E1,6.770802021E0,3.848774910E0,2.455010605E1
2.594199844E1,5.858687878E0,5.799446106E0,1.421632957E1
2.596399688E1,6.703583241E0,5.457563400E0,8.142469406E0
2.598399688E1,6.215538979E0,4.161189556E0,5.972297668E0
2.600399844E1,4.897665024E0,2.321542501E0,3.105202913E0
2.602600156E1,3.637453079E0,4.515751600E-1,1.191862345E0
2.604799844E1,3.636629581E0,-4.416344464E-1,8.308071494E-1
2.606799844E1,2.617944479E0,-6.164208055E-1,4.714566469E-1
2.608799844E1,1.447677970E0,7.339664549E-2,1.843535155E-2
2.610799844E1,1.914729238E0,1.404477000E0,-1.295234323E0
2.612799844E1,2.764402866E0,2.728010893E0,-7.036079764E-1
2.614799844E1,4.282240391E0,3.876547813E0,1.696828246E0
2.616999844E1,7.487846851E0,5.096843719E0,3.673634291E0
2.619199844E1,1.132182503E1,6.464076519E0,3.962183475E0
2.621200156E1,1.398127651E1,7.735694408E0,3.462350845E0
2.623399688E1,1.412688160E1,8.465666771E0,2.514974833E0
2.625399688E1,1.290178776E1,8.309689522E0,6.254420877E-1
2.627399688E1,1.201890278E1,5.206976891E0,-1.774486542E0
2.629399844E1,1.362243271E1,4.808428764E0,-8.561090827E-1
2.631599688E1,1.214177227E1,5.473336220E0,5.221428394E0
2.633600312E1,9.381688118E0,3.880579472E0,5.649788857E0
2.635799844E1,7.108097553E0,2.570194483E0,2.971108675E0
2.637999688E1,7.453886986E0,1.491482258E0,2.826039076E0
2.639999688E1,9.318434715E0,-4.369418025E-1,7.713342190E0
2.642000000E1,1.222789669E1,-3.009971142E0,1.249296379E1
2.644199688E1,1.352896404E1,-3.701043129E0,1.112269497E1
2.646199688E1,1.192703247E1,-3.199994087E0,7.796669960E0
2.648199688E1,8.564816475E0,-2.099906445E0,5.666395664E0
2.650199688E1,5.232728958E0,-2.241260111E-1,4.413298607E0
2.652199688E1,3.825168133E0,5.128954649E-1,3.485813856E0
2.654199688E1,3.930474758E0,-2.794320583E-1,1.235867739E0
2.656199688E1,4.629821301E0,-1.294200063E0,3.946506381E-1
2.658199688E1,4.646101475E0,-8.426727653E-1,-1.171339229E-1
2.660199688E1,4.303194523E0,1.435084492E-1,1.090511009E-1
2.662202188E1,4.008324623E0,1.046026707E0,8.600068092E-1
2.664399844E1,4.841803551E0,1.226195216E0,1.871403813E0
2.666399844E1,8.973209381E0,1.752488613E0,3.272902250E0
2.668399844E1,1.056005764E1,3.357389212E0,6.499913216E0
2.670599844E1,9.586258888E0,3.067498922E0,9.468023300E0
2.672599844E1,1.474544716E1,-4.399900913E0,1.032216907E0
2.674599844E1,1.613076210E1,-9.573301315E0,-2.975044727E0
2.676600000E1,1.298060513E1,-1.038242722E1,-5.885091305E0
2.678799844E1,1.163553333E1,-6.489550591E0,-9.638883591E0
2.680799844E1,1.362888813E1,-1.696157813E0,-5.367666245E0
2.682799844E1,1.367920399E1,-1.947520256E0,-2.677397490E0
2.684799844E1,1.642815018E1,-1.698322177E0,-1.023348808E0
2.686799844E1,1.738598442E1,-1.078032494E0,8.062330484E-1
2.688799844E1,1.088958549E1,-2.025398910E-1,3.324272394E0
2.690799844E1,6.934020042E0,2.650094032E-1,1.254692841E1
2.692799844E1,8.191445351E0,4.955039918E-1,1.977125931E1
2.694799844E1,8.023908615E0,3.663607538E-1,1.383865833E1
2.696799844E1,7.033542156E0,-8.774270862E-2,6.522408485E0
2.698799844E1,5.484780788E0,-6.572849751E-1,5.328688622E0
2.700799844E1,4.202590466E0,-1.289727807E0,3.455254316E0
2.702799844E1,2.996123075E0,-1.453826308E0,1.662773013E0
2.704799844E1,1.762592196E0,9.279447198E-1,1.530890822E0
2.706799844E1,1.508509874E0,2.971769333E0,1.942320108E0
2.708799844E1,1.513528109E0,4.110336781E0,2.451873302E0
2.710799844E1,2.419034481E0,4.655046463E0,1.781544685E0
2.712799844E1,4.570454597E0,3.926318407E0,7.083389163E-1
2.714799844E1,6.468730927E0,2.795680761E0,3.127402067E-1
2.716799844E1,7.627888203E0,2.143682241E0,1.070859432E0
2.718799844E1,9.816724777E0,1.864977837E0,1.902040005E0
2.720799844E1,1.335928154E1,1.896313071E0,2.601759672E0
2.722799844E1,1.714631462E1,2.655217648E0,2.752565861E0
2.724799844E1,1.660865402E1,4.360100269E0,1.417645097E0
2.726799844E1,1.538447952E1,5.173908234E0,-1.493119955E0
2.728799844E1,1.711284447E1,6.606234550E0,-3.533487320E0
2.730799844E1,1.576464939E1,5.661549568E0,2.717897594E-1
2.732799844E1,9.722451210E0,2.967909813E0,3.609508038E0
2.734799844E1,7.929423809E0,1.966166258E0,-5.495938063E-1
2.736799844E1,9.588308334E0,1.203048110E0,-2.538275242E0
2.738799844E1,1.041974831E1,9.382780790E-1,-2.165076733E0
2.740799844E1,1.147198009E1,5.823081732E-1,-3.367875814E-1
2.742799844E1,1.333458328E1,-3.767324090E-1,9.391590953E-1
2.744799844E1,1.162078476E1,-3.756789863E-1,1.829285026E0
2.746799844E1,9.482820511E0,1.084477603E-1,4.802079201E0
2.748799844E1,7.991797447E0,4.325748086E-1,6.522686481E0
2.750799844E1,6.480557919E0,1.664094687E0,4.382222176E0
2.752799844E1,4.814308643E0,2.271139622E0,2.995893240E0
2.754799844E1,3.331579685E0,1.394909739E0,2.692346811E0
2.756799844E1,2.593121529E0,3.623289168E-1,2.816606045E0
2.758799844E1,3.002616167E0,-1.933844537E-1,3.481791735E0
2.760799844E1,3.148968935E0,-4.130476713E-2,4.304487228E0
2.762799844E1,2.764374018E0,3.005297780E-1,4.551090240E0
2.764799844E1,4.105117321E0,6.846938133E-1,4.540670395E0
2.766799844E1,7.585338593E0,1.828585982E0,5.660074711E0
2.768799844E1,1.099742126E1,1.648024797E0,6.958459854E0
2.770799844E1,1.500304508E1,-3.665704727E0,5.759453297E0
2.772799844E1,1.756588554E1,-7.369707108E0,3.494251251E0
2.774799844E1,1.673242378E1,-7.296636105E0,-6.163450718E0
2.776799844E1,1.755262184E1,-2.340580940E0,-9.664529800E0
2.778799844E1,1.593730068E1,-6.064129472E-1,-5.082162380E0
2.780799844E1,1.261050034E1,-1.783335447E0,-3.053507328E0
2.782799844E1,1.163952637E1,-1.100748658E0,1.924028277E0
2.784799844E1,1.043423748E1,2.667619586E-1,9.024809837E0
2.786799844E1,1.139633274E1,2.977524996E0,1.379297638E1
2.788799844E1,1.140245247E1,4.623289585E0,1.469884682E1
2.790799844E1,8.836308479E0,5.605659008E0,1.099637699E1
2.792799844E1,5.849724293E0,4.467043877E0,6.549348354E0
2.794799844E1,4.332116127E0,2.331368208E0,3.658234835E0
2.796799844E1,3.347026825E0,1.126280427E0,1.935951591E0
2.798799844E1,2.890720606E0,3.495247066E-1,9.099785686E-1
2.800799844E1,3.390199184E0,4.988558590E-2,1.817754507E0
2.802799844E1,4.541178226E0,-9.701305628E-2,2.856138945E0
2.804799844E1,5.897761822E0,-1.030406952E0,2.819134235E0
2.806799844E1,7.082355022E0,-1.708349109E0,2.501222372E0
2.808799844E1,7.971877575E0,-1.770320654E0,2.044715405E0
2.810799844E1,7.673234463E0,-3.241749108E-1,1.937426329E0
2.812799844E1,7.527600288E0,1.367817044E0,-2.435037136E0
2.814799844E1,9.109429359E0,2.196641922E0,-7.323077679E0
2.816999844E1,1.155899525E1,2.007873297E0,-5.229405880E0
2.818999844E1,1.523507118E1,1.885481715E0,1.928960383E-1
2.820999844E1,1.666236877E1,3.188981056E0,1.495504498E0
2.822999844E1,1.285596275E1,3.735194206E0,-1.266925335E0
2.824999844E1,1.424798012E1,3.301029444E0,-5.571690798E-1
2.826999844E1,1.420256710E1,2.548704386E0,8.143445849E-1
2.828999844E1,9.987728119E0,1.915131450E0,2.472214460E0
2.830999844E1,8.916572571E0,8.281065226E-1,4.273755550E0
2.832999844E1,9.827336311E0,1.174499631E0,6.117376804E0
2.834999844E1,1.241935635E1,1.216177821E0,6.466710091E0
2.836999844E1,1.447585106E1,5.908411145E-1,6.486869335E0
2.838999844E1,1.387173653E1,-9.279925376E-2,8.930391312E0
2.841199844E1,1.076318169E1,-5.574371815E-1,7.529563427E0
2.843400000E1,7.743844032E0,5.532712936E-1,3.958946466E0
2.845599844E1,6.241865635E0,1.283981681E0,3.201459408E0
2.847599844E1,5.979289055E0,1.897184610E0,3.247935772E0
2.849600469E1,6.494310379E0,2.370556593E0,3.132401228E0
2.851601094E1,5.881184101E0,1.703761816E0,3.323822320E-1
2.853799844E1,5.316430092E0,5.229128003E-1,-1.455693841E0
2.855799844E1,5.356968880E0,-9.260676503E-1,1.744415313E-1
2.857999688E1,6.068362713E0,-2.177335024E0,2.588141680E0
2.859999844E1,6.073716164E0,-9.531125426E-1,4.656636238E0
2.861999844E1,6.451416016E0,5.846928358E-1,4.193683624E0
2.863999844E1,7.635176182E0,2.166340828E0,2.314465046E0
2.865999844E1,1.025649261E1,1.861012936E0,1.172191501E0
2.868199688E1,1.393701172E1,-6.011553407E-1,2.259513378E0
2.870199844E1,1.430033684E1,-3.008228302E0,2.424139023E0
2.872399844E1,1.258317661E1,-3.069232464E0,-2.608741283E0
2.874600312E1,1.415884018E1,2.031623870E-1,-6.330757618E0
2.876601406E1,1.545801926E1,2.149418443E-1,-9.180825233E0
2.878799688E1,1.169250584E1,-2.519274652E-1,-4.239000797E0
2.880799688E1,1.190310001E1,-1.470173955E0,-6.161047220E-1
2.882799688E1,1.182810307E1,-1.671727419E0,4.395036221E0
2.884799844E1,1.088033485E1,7.872518301E-1,5.724670410E0
2.886799844E1,1.120105267E1,2.698265314E0,8.463263512E0
2.888800000E1,9.262581825E0,3.623691320E0,9.788262367E0
2.890999688E1,6.776356697E0,2.029085875E0,8.011152267E0
2.892999844E1,5.805153847E0,9.854630232E-1,4.943001747E0
2.894999844E1,4.933271885E0,9.450871348E-1,2.774142265E0
2.896999844E1,4.582894325E0,7.002465129E-1,2.180619955E0
2.899199844E1,4.445917606E0,5.710650086E-1,2.273629665E0
2.901399844E1,5.720935345E0,4.131242931E-1,3.010086298E0
2.903399844E1,6.839506149E0,9.592129290E-2,3.083990574E0
2.905399844E1,7.905653954E0,-4.195120335E-1,2.882360458E0
2.907399844E1,9.160953522E0,-4.594472945E-1,3.083272219E0
2.909399844E1,1.062854099E1,-8.120174706E-2,3.026558399E0
2.911399844E1,1.164520550E1,3.358394504E-1,2.651214361E0
2.913399844E1,1.216402912E1,6.680493355E-1,1.495447159E0
2.915399844E1,1.161771107E1,1.370345354E0,-1.816049814E-1
2.917600312E1,1.065627575E1,2.534032822E0,-4.827084064E0
2.919799844E1,9.788119316E0,2.751100540E0,-5.534206867E0
2.921800625E1,9.541275978E0,2.531121254E0,-3.045999289E0
2.923999844E1,9.157697678E0,2.329500675E0,5.451405644E-1
2.926199844E1,8.154067039E0,1.985942364E0,1.596099377E0
2.928399688E1,8.382435799E0,1.800631285E0,1.763090044E-1
2.930399688E1,9.885840416E0,2.229116678E0,-1.754949838E-1
2.932399688E1,1.113801765E1,2.864537954E0,-8.552950621E-1
2.934399688E1,1.200463295E1,2.594136715E0,-6.698497534E-1
2.936399688E1,1.372751999E1,2.156332970E0,2.597297192E0
2.938399688E1,1.379095650E1,8.875018358E-1,4.282729149E0
2.940399688E1,1.351886940E1,1.788947433E-1,4.583603382E0
2.942399688E1,1.285994720E1,5.524476767E-1,3.943403244E0
2.944399688E1,9.480655670E0,5.607316494E-1,2.046410322E0
2.946399844E1,7.117281914E0,-1.990539283E-1,1.449957252E0
2.948599688E1,6.825160027E0,-1.700496078E0,1.936564445E0
2.950599844E1,8.078639984E0,-3.110843658E0,3.282239676E0
2.952599844E1,9.162830353E0,-3.579944372E0,4.654710770E0
2.954600781E1,8.829595566E0,-2.473248720E0,4.777122021E0
2.956799844E1,7.989412785E0,-1.154551148E0,3.759720325E0
2.958999688E1,7.806361675E0,-1.325621605E0,1.336778522E0
2.960999688E1,8.387663841E0,-1.031469941E0,9.511109591E-1
2.962999688E1,9.099708557E0,-4.366162121E-1,1.608961105E0
2.964999688E1,9.175155640E0,-1.075858474E-1,1.026643276E0
2.966999844E1,9.386572838E0,-7.592588663E-1,1.225639731E-1
2.969199844E1,8.639543533E0,-1.891112924E0,-4.275373816E-1
2.971399688E1,7.967567921E0,-2.930014372E0,-6.609337330E-1
2.973399688E1,7.668426991E0,-3.323017836E0,-5.766291022E-1
2.975399688E1,7.802253246E0,-3.290801525E0,6.313031167E-2
2.977399688E1,7.808334351E0,-2.949369192E0,2.849482894E-1
2.979399688E1,8.097295761E0,-2.608272076E0,1.846791357E-1
2.981399688E1,9.013815880E0,-1.864958644E0,3.545717001E-1
2.983399688E1,1.012787533E1,2.192226797E-1,1.275084853E0
2.985399688E1,1.142222881E1,1.641981840E0,-1.935376823E-1
2.987399688E1,1.264814663E1,-3.509899601E-2,-2.032198384E-2
2.989399688E1,1.310841656E1,-1.861501336E0,-2.733316422E0
2.991399688E1,1.307797241E1,-3.406575441E0,-8.050177574E0
2.993399688E1,1.264002514E1,-4.140465260E0,-7.423672199E0
2.995399844E1,1.152223969E1,-4.760918140E0,-3.450475693E0
2.997399844E1,1.075652504E1,-6.813993454E0,3.126348734E0
2.999399844E1,9.176822662E0,-4.978618145E0,8.998961449E0
3.001399844E1,7.612086296E0,-2.060976744E0,7.742465496E0
3.003600156E1,7.066017151E0,-6.232968569E-1,4.139785767E0
3.005600156E1,8.155780792E0,1.990443617E-1,6.482013702E0
3.007799844E1,8.666808128E0,8.080239296E-1,9.329648018E0
3.009799844E1,8.406501770E0,7.897896767E-1,7.223134041E0
3.011799844E1,7.690003395E0,7.884776592E-1,4.976079941E0
3.013799844E1,8.331764221E0,7.674182653E-1,4.122652531E0
3.015799844E1,8.952724457E0,1.127573252E0,3.273725986E0
3.017799844E1,9.263721466E0,1.282372713E0,2.188118458E0
3.019799844E1,9.170912743E0,1.159272432E0,1.202291489E0
3.021800469E1,8.750270844E0,1.142043829E0,3.173083365E-1
3.023999844E1,8.746162415E0,1.120084286E0,-8.717192411E-1
3.026199844E1,9.015280724E0,1.035961509E0,-1.081671596E0
3.028399844E1,8.666953087E0,5.445468426E-1,4.931193590E-1
3.030399844E1,8.497060776E0,5.238513276E-2,1.276377678E0
3.032399844E1,8.530128479E0,1.152089890E-2,1.220726848E0
3.034600000E1,8.819032669E0,-4.529829603E-3,1.018560410E0
3.036600469E1,9.415274620E0,-6.798575073E-2,8.212303519E-1
3.038799844E1,1.006357670E1,-2.550016344E-1,7.020565867E-1
3.040999688E1,1.038062668E1,-6.121398807E-1,2.080178261E-1
3.042999844E1,1.021852970E1,-8.996835351E-1,-3.232938647E-1
3.044999844E1,1.047399998E1,-1.429309726E0,-2.676334679E-1
3.046999844E1,1.074950600E1,-1.732195258E0,1.801397279E-2
3.048999844E1,1.231838799E1,-1.741714716E0,9.068470001E-1
3.051199844E1,1.313786602E1,-1.215047717E0,1.772820234E0
3.053199844E1,1.198620701E1,-8.729833961E-1,2.196536303E0
3.055199844E1,9.901604652E0,-1.934227645E-1,2.641015053E0
3.057199844E1,7.931118488E0,-5.311297253E-2,2.928233147E0
3.059200156E1,6.869146347E0,-2.882427275E-1,3.045596838E0
3.061399844E1,8.842361450E0,-5.541810989E-1,3.435861349E0
3.063399844E1,1.129350662E1,-8.511769772E-1,3.873837471E0
3.065399844E1,1.197226238E1,-1.168878078E0,4.982237816E0
3.067599844E1,1.038687992E1,-1.093862891E0,3.726268530E0
3.069599844E1,1.015996742E1,-1.182659030E0,1.859317899E0
3.071599844E1,9.543700218E0,-9.839307070E-1,4.293282330E-1
3.073600000E1,8.481947899E0,-9.660795331E-1,3.827562332E-1
3.075600313E1,7.737686634E0,-1.453826308E0,6.797426343E-1
3.077799844E1,7.239548683E0,-2.076040983E0,9.865834713E-1
3.079999844E1,7.184290409E0,-2.159904957E0,1.580594540E0
3.081999844E1,7.860269547E0,-1.948717356E0,1.915514708E0
3.083999844E1,8.577408791E0,-1.644308925E0,2.368593216E0
3.085999844E1,8.839248657E0,-1.350004196E0,2.624313116E0
3.087999844E1,8.901986122E0,-1.012555838E0,2.674418926E0
3.089999844E1,9.192977905E0,-7.022193670E-1,2.459831476E0
3.091999844E1,9.854113579E0,-4.506078959E-1,2.062346220E0
3.093999844E1,1.017280960E1,-4.459057152E-1,1.564658642E0
3.095999844E1,1.023133373E1,-1.265172839E0,2.414504588E-1
3.097999844E1,1.019551659E1,-2.954128981E0,-1.723365426E0
3.099999844E1,9.477773666E0,-4.443676949E0,-6.863218546E-1
3.101999844E1,9.379352570E0,-5.366947651E0,1.385936260E0
3.103999844E1,9.722019196E0,-5.929920197E0,1.830156446E0
3.105999844E1,1.174618340E1,-4.138540745E0,1.701702774E-1
3.107999844E1,1.214677143E1,-2.389422894E0,-7.961199433E-2
3.109999844E1,1.240076733E1,-2.144821584E-1,1.355597019E0
3.111999844E1,1.258719921E1,1.829782963E0,3.152703762E0
3.113999844E1,1.110802364E1,3.006322622E0,2.712228298E0
3.115999844E1,8.888627052E0,3.035732985E0,1.218993425E0
3.117999844E1,8.067923546E0,1.990012527E0,1.021462202E0
3.119999844E1,7.838137627E0,4.424197376E-1,1.568652272E0
3.122202656E1,7.703851700E0,-9.304251075E-1,2.466956854E0
3.124399688E1,7.411691666E0,-4.891928732E-1,4.463222980E0
3.126399844E1,7.465494633E0,2.289718837E-1,5.005414009E0
3.128399844E1,8.031196594E0,7.891863585E-1,5.438965321E0
3.130399844E1,9.185670853E0,1.069365382E0,5.201834202E0
3.132599844E1,9.897667885E0,1.032389402E0,3.773242712E0
3.134599844E1,1.018082523E1,9.248513579E-1,2.940357447E0
3.136599844E1,1.046355152E1,7.410628796E-1,1.844780326E0
3.138599844E1,1.033476257E1,7.977480441E-2,8.704455495E-1
3.140599844E1,1.016633606E1,-5.787934661E-1,5.828923583E-1
3.142600312E1,9.294454575E0,-4.587386250E-1,6.211324930E-1
3.144799844E1,8.105301857E0,2.864422798E-1,3.781114817E-1
3.146799844E1,8.639543533E0,1.388282537E0,3.782646954E-1
3.148799844E1,1.026362705E1,2.322605371E0,1.258210421E0
3.150799844E1,9.879319191E0,2.502074957E0,1.880482674E0
3.152799844E1,8.960644722E0,1.751703382E0,1.111273527E0
3.154799844E1,8.456798553E0,1.212634444E0,3.874680102E-1
3.156799844E1,8.549071312E0,4.147715271E-1,6.002455354E-1
3.158799844E1,8.852378845E0,9.604579210E-2,1.227459311E0
3.160799844E1,8.989662170E0,4.003871381E-1,2.087648153E0
3.162800313E1,9.276229858E0,1.344372869E0,1.497822165E0
3.164999844E1,9.778322220E0,2.034209490E0,8.972510695E-2
3.166999844E1,1.004986191E1,2.581753969E0,-1.437210560E0
3.169199844E1,1.076859283E1,2.770982027E0,-3.158497810E0
3.171399844E1,1.038556862E1,2.630394459E0,-3.232018948E0
3.173599688E1,1.023697472E1,2.160815001E0,-1.611757398E0
3.175599844E1,9.822873116E0,1.837683797E0,-1.330582380E0
3.177799844E1,9.378623962E0,1.267135978E0,-2.350904942E0
3.179999844E1,9.457192421E0,8.371182680E-1,-2.837263107E0
3.181999844E1,1.001369095E1,5.402659774E-1,-2.815102339E0
3.183999844E1,9.691660881E0,6.144096255E-1,-2.658617496E0
3.185999844E1,9.444857597E0,6.263327599E-1,-1.535133481E0
3.187999844E1,1.107089329E1,8.039059043E-1,6.510888338E-1
3.189999844E1,1.267579460E1,1.372844815E0,2.386837244E0
3.191999844E1,1.227566624E1,1.554325342E0,3.139449596E0
3.193999844E1,1.128548145E1,1.404888749E0,3.240954399E0
3.195999844E1,1.096782780E1,6.909857988E-1,3.051917791E0
3.197999844E1,9.268481255E0,-4.407055080E-1,2.408940315E0
3.199999844E1,7.057024479E0,-2.377212286E0,2.385572910E0
3.202000000E1,5.689887047E0,-4.250780582E0,3.751714230E0
3.204000000E1,6.079041004E0,-5.457381725E0,5.318355083E0
3.206199844E1,7.993894577E0,-6.011246681E0,6.309162140E0
3.208199844E1,9.606772423E0,-4.780330181E0,5.339577198E0
3.210199844E1,9.717824936E0,-2.931096792E0,3.799732208E0
3.212199844E1,9.716379166E0,-1.497391224E0,2.262683392E0
3.214199844E1,9.301292419E0,-6.919147372E-1,1.233023405E0
3.216199844E1,8.982374191E0,-8.858354688E-1,1.250683069E0
3.218399688E1,8.621797562E0,-1.384643435E0,1.960420251E0
3.220399844E1,8.021485329E0,-2.095836163E0,2.520174980E0
3.222399844E1,7.538469791E0,-2.924555779E0,3.136605263E0
3.224599844E1,6.837600708E0,-3.554881811E0,3.639866352E0
3.226601406E1,6.697099209E0,-3.538476706E0,3.330861330E0
3.228799844E1,6.769193172E0,-3.420413971E0,3.110891581E0
3.230999844E1,7.576029778E0,-3.299573898E0,2.735662937E0
3.232999844E1,8.780552864E0,-3.254380941E0,2.753149986E0
3.235199844E1,1.029087257E1,-3.187170982E0,2.943239927E0
3.237199844E1,1.120232582E1,-2.975724697E0,2.493695021E0
3.239199844E1,1.267593861E1,-3.397726536E0,2.017900229E0
3.241199844E1,1.328282070E1,-3.849483728E0,3.778921843E0
3.243199844E1,1.271176434E1,-3.655179977E0,6.673023105E-1
3.245199844E1,1.223643970E1,-4.392258644E0,-4.963294983E0
3.247199844E1,1.269396210E1,-4.814289570E0,-8.124675751E0
3.249200156E1,1.036612701E1,-4.192908287E0,-5.401261806E0
3.251399844E1,7.274494648E0,-3.513242006E0,-1.303068280E0
3.253599844E1,6.539694786E0,-3.594644785E0,-3.702489436E-1
3.255599844E1,9.223777771E0,-5.453666210E0,8.935160935E-2
3.257599844E1,1.290432644E1,-7.129578114E0,3.183723211E0
3.259600469E1,1.370165253E1,-5.942954540E0,5.904522896E0
3.261799844E1,1.057867527E1,-3.377854824E0,8.262840271E0
3.263799844E1,7.614930630E0,-6.198971272E-1,1.094956589E1
3.265799844E1,5.924662590E0,1.115190387E0,1.074344349E1
3.267799844E1,5.678979397E0,4.597346187E-1,4.772046566E0
3.269999688E1,5.304238796E0,1.490342766E-1,2.226071358E0
3.271999844E1,5.226111412E0,2.452237159E-1,1.971826196E0
3.273999844E1,5.705267429E0,3.528095782E-2,1.150251150E0
3.275999844E1,5.223132610E0,2.069356441E-1,1.102797985E0
3.277999844E1,4.587711811E0,8.177635670E-1,1.965448141E0
3.279999844E1,4.242286205E0,1.360299230E0,2.823826790E0
3.281999844E1,4.984603405E0,1.557878256E0,3.061025143E0
3.283999844E1,7.194039822E0,1.209138870E0,2.686236858E0
3.285999844E1,1.069291687E1,4.705372751E-1,2.416209221E0
3.287999844E1,1.477309608E1,-4.893939793E-1,1.926135302E0
3.289999844E1,1.883226395E1,-8.148617744E-1,7.401148081E-1
3.291999844E1,1.750624084E1,2.464332819E0,-2.909903049E0
3.293999844E1,1.255961800E1,5.824757099E0,-4.568127632E0
3.295999844E1,1.360823059E1,2.744616985E0,3.427826464E-1
3.297999844E1,1.336399269E1,-1.109453917E0,2.478879929E0
3.299999844E1,1.154653645E1,-2.022114038E0,3.747548103E0
3.301999844E1,1.095899868E1,-1.911798835E0,5.710305214E0
3.303999844E1,1.115569592E1,-1.813818455E0,6.155214787E0
3.305999844E1,1.118558598E1,-2.651731730E0,5.967547894E0
3.307999844E1,1.091489792E1,-4.497478962E0,8.117378235E0
3.309999844E1,8.677333832E0,-4.418020725E0,8.178392410E0
3.311999844E1,5.432137012E0,-3.702709436E0,5.218440533E0
3.313999844E1,3.661730528E0,-2.479550362E0,4.388485432E0
3.315999844E1,2.505714178E0,-9.657922387E-1,4.174366951E0
3.317999844E1,3.113544464E0,1.713003367E-1,4.000452518E0
3.320199844E1,2.937675953E0,-8.989844322E-1,8.158098459E-1
3.322199844E1,3.415012598E0,-1.711653113E0,-1.212337494E0
3.324399688E1,4.222021580E0,-1.797403812E0,-1.350933075E0
3.326399844E1,5.197955608E0,-2.135101080E0,-1.213783741E0
3.328600625E1,7.200245380E0,-3.145291567E0,-1.051025748E0
3.330799844E1,1.009436607E1,-4.230391502E0,-7.537234426E-1
3.332799844E1,1.380814648E1,-3.400656939E0,1.666421890E0
3.334799844E1,1.696099472E1,-3.284605265E0,-7.446829081E-1
3.336799844E1,1.793098068E1,-8.879587173E0,-7.748527527E0
3.338799844E1,1.300785065E1,-9.505133629E0,-6.761206627E0
3.340799844E1,1.105531216E1,-8.780074120E0,-3.429914236E0
3.342799844E1,1.309700203E1,-4.247122288E0,-3.578335524E0
3.344799844E1,1.175059891E1,-2.161791801E0,-2.307119846E0
3.346799844E1,1.072978687E1,-2.950298071E0,-1.455243707E0
3.348799844E1,1.143970585E1,-4.591580868E0,2.527127862E-1
3.350799844E1,1.184000778E1,-6.317666054E0,3.100970030E0
3.353000000E1,1.176316261E1,-6.468539238E0,9.186140060E0
3.355199844E1,8.456377983E0,-2.185120821E0,1.838377190E1
3.357199844E1,6.319581509E0,2.159732580E0,1.756744576E1
3.359199844E1,6.832802773E0,1.558405042E0,5.927574158E0
3.361199844E1,5.251020432E0,1.172172308E0,3.516928911E0
3.363199844E1,3.789207220E0,1.108304739E0,2.968829393E0
3.365199844E1,3.536427498E0,-8.906430448E-4,1.646243572E0
3.367399844E1,3.749243259E0,-6.599664688E-1,9.616359472E-1
3.369399844E1,3.742357492E0,-5.726930685E-3,7.543842196E-1
3.371399844E1,3.264829159E0,1.323035836E0,9.120759368E-1
3.373399844E1,4.729123116E0,2.536254406E0,3.461594343E0
3.375599844E1,6.453110695E0,3.874881268E0,5.758016586E0
3.377600156E1,8.104525566E0,4.619152546E0,4.722093582E0
3.379799844E1,1.112947559E1,4.619228840E0,1.249169946E0
3.381799844E1,1.372227192E1,3.391463280E0,-3.569477081E0
3.383799844E1,1.756835556E1,2.097196341E0,-8.946059227E0
3.385799844E1,1.608182335E1,2.869479418E0,-5.390851498E0
3.387799844E1,1.259510040E1,4.633402824E0,1.073224902E0
3.389799844E1,1.153625965E1,5.225651741E0,1.767016649E0
3.391799844E1,1.462333393E1,3.575165510E0,9.086665511E-1
3.393799844E1,1.097597885E1,7.668532133E-1,2.514304399E0
3.395799844E1,8.355198860E0,-8.920795321E-1,6.122710705E0
3.397799844E1,8.604789734E0,-9.929233789E-2,9.497702599E0
3.399799844E1,1.093445301E1,-7.398370504E-1,9.928707123E0
3.401799844E1,1.305277538E1,-2.933002472E0,8.984519958E0
3.403799844E1,1.230204010E1,-5.111639500E0,9.165550232E0
3.405799844E1,1.113842010E1,-4.858486176E0,7.272684574E0
3.407799844E1,8.208251953E0,-2.100442648E0,5.367809772E0
3.409799844E1,5.475127220E0,2.604891546E-3,4.598284721E0
3.411800469E1,5.354047775E0,1.785930753E0,4.571958065E0
3.413999844E1,5.958382607E0,3.031222105E0,4.644109726E0
3.415999844E1,5.465052605E0,1.790317059E0,2.314570665E0
3.417999844E1,4.308165073E0,4.689953923E-1,6.267445683E-1
3.419999844E1,3.240848780E0,7.889564633E-1,-2.224586964E0
3.422199844E1,1.900019288E0,1.007049084E0,-2.614994764E0
3.424199844E1,1.194103241E0,5.891651511E-1,-4.087285399E-1
3.426199844E1,1.505914569E0,1.367376447E-1,1.175074220E0
3.428199844E1,4.012145519E0,6.111439466E-1,1.516401172E0
3.430199844E1,8.002111435E0,2.969078302E0,4.375489712E0
3.432400313E1,1.605299759E1,1.876747727E0,7.174359322E0
3.434600156E1,2.488760185E1,-7.170001984E0,9.472093582E0
3.436601562E1,2.202189636E1,-1.081161118E1,5.620139599E0
3.438799844E1,1.352597523E1,-5.178265572E0,-7.437070370E0
3.440799844E1,1.204227924E1,-2.929928303E0,-7.372848034E0
3.442799844E1,1.241214466E1,-4.616374969E0,-2.664918900E0
3.444799844E1,1.424157333E1,-5.015555859E0,4.280851364E0
3.446799844E1,1.378161907E1,-5.900998592E0,9.665095329E0
3.448799844E1,1.121708393E1,-4.092092991E0,1.483529663E1
3.450799844E1,1.041832161E1,-1.127123117E0,1.593100834E1
3.452799844E1,8.907675743E0,8.670841157E-2,1.184673977E1
3.454799844E1,8.017251968E0,-1.226262212E0,7.131139278E0
3.456799844E1,5.866684437E0,-2.323237658E0,4.216227531E0
3.458799844E1,4.071876049E0,-2.447017908E0,2.867640734E0
3.460799844E1,1.576878667E0,-1.373793006E0,3.214388132E0
3.462800000E1,2.519274652E-1,-6.342815161E-1,3.772438288E0
3.464999844E1,-7.787188888E-1,9.864110500E-3,3.336252928E0
3.466999844E1,-1.175648808E0,1.347849369E0,3.584005117E0
3.468999844E1,1.749969870E-1,2.037034750E0,2.602669716E0
3.470999844E1,1.305232525E0,2.310289860E0,1.792318583E0
3.472999844E1,2.091680050E0,3.704414368E0,1.947798014E0
3.474999844E1,3.149888515E0,6.060347080E0,2.059176207E0
3.476999844E1,5.121609211E0,7.354087353E0,2.426418066E0
3.478999844E1,1.025541019E1,7.678654671E0,3.819603920E0
3.480999844E1,1.523397064E1,9.649274826E0,4.602258682E0
3.482999844E1,1.782795334E1,1.147846413E1,2.767783403E0
3.484999844E1,1.725641060E1,1.069894981E1,-2.283206463E0
3.486999844E1,1.542772865E1,7.473165512E0,-9.172895432E0
3.488999844E1,1.820453262E1,4.400523663E0,-4.673108578E0
3.490999844E1,1.722560120E1,3.678758144E0,1.159722567E0
3.492999844E1,8.929099083E0,3.709135532E0,3.068227053E0
3.494999844E1,8.314191818E0,2.594950676E0,3.228964090E0
3.496999844E1,8.805557251E0,1.877772331E0,2.545783520E0
3.498999844E1,7.014283180E0,1.960161567E0,2.660436928E-1
3.500999844E1,7.826999664E0,-5.362820625E-1,4.285180569E0
3.502999844E1,1.028139114E1,-5.087774277E0,1.182559490E1
3.504999844E1,1.240494347E1,-6.581622124E0,1.335356426E1
3.506999844E1,7.935619831E0,-3.826480150E0,5.155032158E0
3.508999844E1,4.813628674E0,-1.139850736E0,3.251096010E0
3.510999844E1,3.948249340E0,-4.038252234E-1,2.647469997E0
3.512999844E1,3.739522696E0,-8.401445150E-1,4.146853089E-1
3.514999844E1,3.349718094E0,-1.001207232E0,-1.040663719E0
3.516999844E1,3.120669365E0,-3.686208725E-1,-3.774602711E-1
3.518999844E1,2.922793388E0,2.927629650E-1,1.071089268E0
3.520999844E1,2.966913700E0,9.718639255E-1,1.451566219E0
3.522999844E1,3.863417864E0,1.512934327E0,1.709402561E0
3.524999844E1,7.233304501E0,1.887627006E0,3.491110086E0
3.526999844E1,1.299895382E1,2.776546240E0,1.011063671E1
3.529200156E1,2.310936165E1,-5.003757000E0,5.416967869E0
3.531200469E1,2.352938080E1,-1.198587227E1,-1.602180719E0
3.533399844E1,1.431696224E1,-8.560506821E0,-1.124768162E1
3.535599844E1,1.276765537E1,-4.443590164E0,-7.543813705E0
3.537599844E1,9.232990265E0,-5.040570259E0,-3.380334854E0
3.539600469E1,9.044987679E0,-5.569267750E0,5.909560204E0
3.541800313E1,9.994106293E0,-6.665514946E0,1.166075802E1
3.544000156E1,1.048246574E1,-5.416957855E0,1.400660610E1
3.546199844E1,8.220060349E0,-1.086019397E0,1.723903656E1
3.548199844E1,7.662747860E0,2.176252604E0,1.415660858E1
3.550199844E1,7.146787643E0,1.619514704E0,6.464851856E0
3.552199844E1,5.477799416E0,9.587532878E-1,2.297648430E0
3.554399688E1,4.334816933E0,3.967096508E-1,7.381898165E-1
3.556399844E1,3.497200966E0,1.773337275E-1,-1.013130397E-1
3.558399844E1,2.782004833E0,2.443043292E-1,-8.954601288E-1
3.560599844E1,2.472348452E0,-1.833096594E-1,-3.752192855E-1
3.562600000E1,2.499824286E0,5.296644568E-1,1.035951853E0
3.564799844E1,3.761300564E0,1.696809053E0,2.973110199E0
3.566799844E1,5.614728451E0,2.925273895E0,3.534339666E0
3.568799844E1,7.397422314E0,4.006677628E0,3.145712852E0
3.570799844E1,9.467975616E0,5.047465801E0,2.412311554E0
3.572799844E1,1.274614525E1,5.266649723E0,1.300348401E0
3.574799844E1,1.652127457E1,5.429982185E0,5.790424943E-1
3.576799844E1,1.938269234E1,6.025688648E0,-9.973095059E-1
3.578799844E1,1.577752113E1,6.228161812E0,-3.072364092E0
3.580799844E1,1.418953323E1,6.021934509E0,-9.660891294E-1
3.582799844E1,1.230188656E1,2.618854523E0,2.981968641E0
3.584799844E1,8.373826027E0,-6.852779984E-1,4.714259624E0
3.586799844E1,8.987727165E0,-5.244163871E-1,7.250715256E0
3.588799844E1,1.125541019E1,2.709853351E-1,8.505745888E0
3.590799844E1,1.302839375E1,-1.661250353E0,9.131351471E0
3.592799844E1,1.363316917E1,-3.842148066E0,7.834163189E0
3.594799844E1,1.231728745E1,-4.417665958E0,6.886614799E0
3.596799844E1,8.568589211E0,-2.619965315E0,4.484454632E0
3.598799844E1,7.085889339E0,-8.809512854E-1,3.857078075E0
3.600799844E1,4.786900043E0,1.071453094E0,3.481858969E0
3.602799844E1,3.335199356E0,1.576256275E0,3.102081060E0
3.604799844E1,2.806483269E0,6.806332469E-1,9.409787059E-1
3.606799844E1,2.652708530E0,-3.246537223E-2,-9.174580574E-1
3.608799844E1,2.945021152E0,-2.266447097E-1,-1.947548985E0
3.610799844E1,3.699472666E0,-3.433763981E-1,-1.391050339E0
3.612799844E1,4.608799934E0,-1.414877474E-1,5.772324800E-1
3.614799844E1,5.690107346E0,3.213210106E-1,2.342879534E0
3.616999844E1,7.399596214E0,6.528508663E-1,3.516038418E0
3.618999844E1,1.041060162E1,8.701678514E-1,5.488649845E0
3.621199844E1,1.444577980E1,4.500620365E-1,8.849256516E0
3.623199844E1,1.726629257E1,-6.030668259E0,2.070974827E0
3.625399688E1,1.429714775E1,-1.004530334E1,-5.534120560E0
3.627399688E1,1.215795708E1,-8.894143105E0,-1.016687202E1
3.629399844E1,1.245252991E1,-2.174117088E0,-1.096795273E1
3.631399844E1,9.623867035E0,-1.875186682E0,-7.936385632E0
3.633399844E1,1.205264187E1,-2.226645947E0,6.510409117E-1
3.635600156E1,1.861072350E1,-3.202014923E0,5.355082035E0
3.637600313E1,1.894801903E1,-2.089793205E0,1.083442402E1
3.639601719E1,1.538330173E1,1.145012617E0,1.493759632E1
3.641799844E1,1.011794472E1,2.540018082E0,1.324338245E1
3.643799844E1,6.129443645E0,6.775399446E-1,7.071782112E0
3.645799844E1,4.769862652E0,-7.819749713E-1,4.346136570E0
3.647799844E1,3.388667107E0,-1.295167327E0,3.182938099E0
3.649799844E1,2.852691412E0,-1.043900609E0,2.898621559E0
3.651799844E1,1.845766783E0,-4.846343100E-1,2.318755627E0
3.653799844E1,8.624968529E-1,-2.738679647E-1,1.384461522E0
3.655799844E1,9.064735174E-1,-1.152089890E-2,7.096413374E-1
3.657799844E1,2.166082382E0,3.736774325E-1,1.237122297E0
3.659799844E1,4.505877972E0,1.150241613E0,2.068781853E0
3.661999844E1,7.763131618E0,2.777590036E0,7.824155092E-1
3.663999844E1,1.176326847E1,3.908390522E0,-5.877171516E0
3.666000000E1,1.563561249E1,4.058124065E0,-6.312437534E0
3.668000000E1,2.130997467E1,3.789005995E0,-2.261773586E0
3.670199844E1,1.709402466E1,6.367024899E0,-4.868676186E0
3.672399844E1,1.380827141E1,6.899352074E0,8.988503218E-1
3.674399844E1,1.507603931E1,3.957213163E0,3.941765785E0
3.676399844E1,1.281892967E1,1.321216345E0,3.311803579E0
3.678399844E1,1.185635471E1,-3.944878280E-1,3.847348213E0
3.680399844E1,1.333334732E1,-1.102501154E0,4.343235493E0
3.682600156E1,1.429778004E1,-7.242076993E-1,4.234193325E0
3.684799844E1,1.298008823E1,-1.979583383E0,6.396215439E0
3.686799844E1,1.114782429E1,-3.362244368E0,8.270492554E0
3.688799844E1,7.776367188E0,-2.480814457E0,5.647663116E0
3.690799844E1,5.938539505E0,-6.931501627E-1,3.670952797E0
3.692799844E1,4.721624374E0,1.046859860E0,3.506672382E0
3.694799844E1,7.524985313E0,1.135014415E0,3.733948946E0
3.696799844E1,1.190927601E1,1.508529067E0,4.239336491E0
3.698800000E1,1.102537537E1,1.383637905E0,3.382192850E0
3.700999844E1,3.136883020E0,9.901460409E-1,4.652700126E-1
3.702999844E1,7.629650235E-1,-5.121389031E-1,-3.113343239E0
3.704999844E1,7.631470561E-1,-1.178770900E0,-3.150846004E0
3.706999844E1,1.299400210E0,-1.645936966E0,-1.334844112E0
3.708999844E1,1.142848253E0,-1.708645940E0,3.788776100E-1
3.710999844E1,2.753322363E0,-1.020523667E0,1.123311520E0
3.712999844E1,6.205454826E0,8.885840178E-1,1.738295794E0
3.715000000E1,1.159044552E1,2.671143770E0,5.365798950E0
3.717199844E1,1.966461372E1,-4.242525436E-3,1.165988636E1
3.719199844E1,1.966276360E1,-2.825378180E0,5.733615398E0
3.721199844E1,1.895623589E1,-5.098662853E0,3.272203505E-1
3.723199844E1,1.633383751E1,-6.642051697E0,-3.712928057E0
3.725399688E1,1.200981331E1,-4.431993008E0,-1.059893966E0
3.727399844E1,1.086235905E1,-4.081318855E0,6.037611961E0
3.729399844E1,1.225979710E1,-3.297160387E0,9.653727531E0
3.731599844E1,1.246281528E1,-1.145587206E0,1.137936306E1
3.733599844E1,1.032190132E1,9.651027322E-1,1.073586845E1
3.735599844E1,7.962214947E0,1.231357098E0,5.576469421E0
3.737600938E1,5.778673649E0,1.300147176E-1,3.274348736E0
3.739799844E1,3.489108324E0,-7.809311748E-1,9.749189615E-1
3.741799844E1,3.610561609E0,-1.746225357E0,1.024067163E0
3.743799844E1,4.287000179E0,-2.591320992E0,7.287375331E-1
3.745799844E1,4.348760605E0,-2.928434372E0,7.514537573E-1
3.747799844E1,3.839246035E0,-1.633784056E0,1.249169946E0
3.749799844E1,3.055844307E0,5.297315121E-1,1.578343987E0
3.751799844E1,3.780214548E0,2.395599842E0,2.042665958E0
3.753799844E1,5.667209625E0,3.874469519E0,2.104685307E0
3.755799844E1,9.233220100E0,4.199295998E0,5.175880790E-1
3.757799844E1,1.355704308E1,3.940003633E0,-1.568719268E0
3.759999844E1,1.745105934E1,3.065085649E0,-3.247121572E0
3.761999844E1,1.782241821E1,3.545334101E0,-4.196700096E0
3.763999844E1,1.539419079E1,3.814949751E0,-4.312627316E0
3.765999844E1,1.347462463E1,4.264762878E0,3.936355114E-1
3.768000000E1,1.385275459E1,2.917727470E0,4.912327290E0
3.770199844E1,1.029906082E1,3.510665894E-1,3.850086927E0
3.772199844E1,8.635818481E0,-6.811982393E-1,3.946602106E0
3.774199844E1,1.117190075E1,-7.235277444E-2,5.281656742E0
3.776199844E1,1.391827011E1,1.748341769E-1,6.737255096E0
3.778199844E1,1.597410488E1,-1.457934856E0,7.555324554E0
3.780199844E1,1.396506214E1,-2.959242821E0,7.326774597E0
3.782199844E1,1.107447529E1,-3.059866428E0,7.218039036E0
3.784199844E1,6.931510925E0,-1.762649655E0,5.464018345E0
3.786399844E1,3.567207336E0,3.351403475E-1,4.552459240E0
3.788399844E1,3.099073648E0,1.407206416E0,4.900384903E0
3.790399844E1,3.677991629E0,2.164837122E-1,1.560780048E0
3.792599688E1,4.076511383E0,-9.669797421E-1,-1.227861524E0
3.794600469E1,4.298616886E0,-1.256362200E0,-2.144103289E0
3.796799844E1,4.899819851E0,-1.704355597E0,-7.433038354E-1
3.798799844E1,5.604002476E0,-2.498186827E0,9.985066056E-1
3.800799844E1,6.687867165E0,-3.249755383E0,1.450646877E0
3.802999844E1,8.227128029E0,-3.689148664E0,1.172909737E0
3.805000000E1,9.898817062E0,-3.786765099E0,1.315795779E0
3.807199844E1,1.278479767E1,-4.278390408E0,2.098699808E0
3.809199844E1,1.501105118E1,-4.643180847E0,3.511048853E-1
3.811399688E1,1.556462860E1,-2.122383356E0,-2.506298304E0
3.813399844E1,1.040604305E1,-1.162566900E0,-1.039609241E1
3.815399844E1,8.300591469E0,-1.863435864E0,-1.325951958E1
3.817399844E1,1.101570320E1,-3.010162830E0,-6.349125862E0
3.819399844E1,1.105307102E1,-4.175373077E0,-1.195300460E0
3.821399844E1,1.143951511E1,-5.989555359E0,2.606462240E0
3.823399844E1,1.277829456E1,-8.087134361E0,6.353608131E0
3.825399844E1,1.149110508E1,-9.041175842E0,9.773227692E0
3.827399844E1,9.118221283E0,-7.225356102E0,1.238953400E1
3.829399844E1,9.311825752E0,-5.045473576E0,9.060866356E0
3.831399844E1,9.557040215E0,-2.149140835E0,5.270346642E0
3.833399844E1,8.025172234E0,-2.680260837E-1,2.805535078E0
3.835399844E1,6.413501263E0,8.993292451E-1,1.442449093E0
3.837399844E1,5.569794655E0,1.045768142E0,2.820848525E-1
3.839599844E1,6.305704594E0,-3.404075801E-1,-1.214185953E0
3.841600000E1,5.265979290E0,-7.051211596E-1,-1.159588456E0
3.843600469E1,4.091700077E0,-2.599528432E-1,1.769449115E0
3.845799844E1,3.911484003E0,1.531417608E0,6.053844452E0
3.847799844E1,4.464899063E0,3.576324463E0,6.940273285E0
3.849799844E1,6.434167862E0,3.719871044E0,4.696801186E0
3.851799844E1,9.482216835E0,3.553589106E0,2.686198473E0
3.853800156E1,1.418212128E1,4.218046665E0,-1.263803363E0
3.855999844E1,2.063383484E1,5.005777836E0,-1.161957836E1
3.857999844E1,1.707854843E1,3.859156132E0,-1.189968109E1
3.859999844E1,1.119778728E1,2.192705631E0,-4.616978645E0
3.861999844E1,1.331672287E1,5.965584517E-1,1.228723526E0
3.864000938E1,1.174881744E1,1.426178068E-1,2.837799311E0
3.866199844E1,9.361663818E0,3.388369977E-1,4.009157658E0
3.868199844E1,1.093509483E1,5.805556178E-1,5.869893074E0
3.870199844E1,1.209994984E1,4.998039603E-1,6.107225418E0
3.872199844E1,1.200191307E1,2.192130983E-1,3.942627668E0
3.874199844E1,1.237314796E1,-5.204420090E-1,3.882600307E0
3.876200000E1,1.184254456E1,-9.595002532E-1,5.867517948E0
3.878399844E1,9.120461464E0,-1.446528792E0,4.627091885E0
3.880399844E1,6.860537052E0,2.874957398E-2,2.552113771E0
3.882399844E1,5.247055531E0,1.632242203E0,3.206113815E0
3.884399844E1,5.438860416E0,1.164463162E0,1.374712229E0
3.886399844E1,5.240303993E0,1.794597805E-1,-2.834706068E0
3.888399844E1,4.519716263E0,4.335228801E-1,-3.771327496E0
3.890399844E1,4.124395370E0,7.148990631E-1,-2.007250786E0
3.892399844E1,4.414448261E0,4.458003640E-1,4.067174196E-1
3.894399844E1,5.640633583E0,-2.720291913E-1,3.338187456E0
3.896399844E1,7.480788708E0,-6.697635651E-1,3.941286802E0
3.898399844E1,9.866783142E0,-1.481464982E0,2.731085062E0
3.900399844E1,1.212828827E1,-2.651808023E0,2.126309633E0
3.902399844E1,1.396736145E1,-5.213288307E0,2.021855414E-1
3.904399844E1,1.434097195E1,-7.250063896E0,-3.473095894E0
3.906600469E1,1.638922119E1,-3.779697418E0,-8.865556717E0
3.908799844E1,1.282478142E1,-1.754921198E0,-9.760988235E0
3.910799844E1,1.314933872E1,-1.944417357E0,-3.557783604E0
3.912799844E1,1.674948120E1,-2.051926553E-1,8.245027542E0
3.914800000E1,1.585686493E1,3.578220606E0,9.679077148E0
3.916999844E1,1.293161011E1,7.600383759E0,1.175997353E1
3.918999844E1,9.836128235E0,8.019502640E0,1.081757832E1
3.920999844E1,6.975995064E0,4.466785431E0,5.373316288E0
3.922999844E1,4.200330257E0,2.029210567E0,2.549345970E0
3.924999844E1,2.472741127E0,7.186052799E-1,1.662811399E0
3.926999844E1,1.494125485E0,-1.060822904E-1,1.015639544E0
3.928999844E1,1.724170089E0,-1.239104748E0,1.139151573E0
3.930999844E1,3.002280951E0,-2.343061447E0,1.773002028E0
3.932999844E1,4.803276539E0,-2.934908152E0,1.892472744E0
3.934999844E1,6.194584846E0,-2.476964474E0,2.079527140E0
3.936999844E1,6.922968388E0,-1.086105704E0,2.072507143E0
3.938999844E1,7.808554649E0,1.034975052E0,9.079004526E-1
3.941200000E1,1.068426895E1,3.013754129E0,-3.594510794E0
3.943399844E1,1.625812340E1,2.707458973E0,-1.012218666E1
3.945399844E1,1.984937859E1,4.062299728E0,-6.700039387E0
3.947600000E1,1.646781731E1,5.878100395E0,-7.519804835E-1
3.949799844E1,1.065483856E1,6.886336803E0,2.382805347E-1
3.951800625E1,1.420853329E1,5.793776512E0,2.944983006E0
3.953999844E1,1.214331436E1,2.643026352E0,1.757114291E0
3.955999844E1,9.854428291E0,5.868954659E-1,2.288876057E0
3.958199844E1,1.081126690E1,1.102290396E-2,4.834554195E0
3.960199844E1,1.147081184E1,6.679248214E-1,6.365645885E0
3.962199844E1,1.187659073E1,5.528881550E-1,6.133619308E0
3.964199844E1,1.186077976E1,-7.645930648E-1,7.080803871E0
3.966199844E1,1.062349415E1,-2.035272598E0,8.108443260E0
3.968199844E1,6.739706516E0,-8.716905713E-1,5.435900688E0
3.970199844E1,3.786171436E0,1.590037197E-1,4.520425320E0
3.972199844E1,2.777207136E0,3.725952506E-1,4.758686543E0
3.974199844E1,4.625827789E0,1.289823532E0,6.137833118E0
3.976199844E1,5.482951641E0,2.982026041E-1,1.297753096E0
3.978199844E1,5.395984650E0,-7.487052083E-1,-1.729954362E0
3.980399844E1,4.167529106E0,-1.040797710E0,-1.824448705E0
3.982399844E1,4.174242496E0,-1.589481831E0,5.284960866E-1
3.984399844E1,6.347765923E0,-3.280429840E0,3.268659830E0
3.986399844E1,8.759972572E0,-4.754693031E0,5.287910461E0
3.988399844E1,1.101868153E1,-5.273018360E0,4.092159748E0
3.990399844E1,1.368442345E1,-5.452258110E0,1.350933075E0
3.992599688E1,1.701571655E1,-5.239231586E0,-2.206640005E0
3.994599844E1,1.780362892E1,-4.259476662E0,-3.438207865E0
3.996601563E1,1.379214382E1,-1.713913202E0,-6.238274574E0
3.998799844E1,1.367628288E1,7.259219289E-1,-9.483069420E0
4.000799844E1,1.344261932E1,-6.938683987E-1,-7.323977947E0
4.002799844E1,9.611167908E0,-3.837503195E0,-7.847733498E0
4.004799844E1,9.817184448E0,-7.452211380E0,5.994200230E0
4.006799844E1,9.932833672E0,-5.719163418E0,1.699484825E1
4.008799844E1,1.022106743E1,-3.100203872E-1,2.334023857E1
4.010799844E1,8.893942833E0,2.645344019E0,1.465342426E1
4.012801094E1,7.370444775E0,2.781008959E0,7.396991730E0
4.014999844E1,5.815956593E0,2.752450943E0,5.778789043E0
4.016999844E1,4.249909401E0,2.312846661E0,3.836755991E0
4.019199844E1,3.113486767E0,1.265498400E0,1.542478800E0
4.021199844E1,2.870628595E0,1.060918644E-1,6.642377377E-1
4.023199844E1,4.171982288E0,-1.404026866E0,3.548973203E-1
4.025199844E1,5.011389732E0,-2.164549828E0,-6.549674273E-1
4.027199844E1,3.962288857E0,-9.312391281E-1,-3.843938708E-1
4.029200000E1,3.579436779E0,9.546543956E-1,6.303837299E-1
4.031399844E1,5.257446766E0,2.889858961E0,1.597085834E0
4.033399844E1,8.914791107E0,3.603388309E0,1.796580195E0
4.035399844E1,1.476511860E1,2.993700266E0,-9.922529757E-2
4.037399844E1,1.957884407E1,3.519342422E0,-5.593564034E0
4.039399844E1,1.826853561E1,7.290516376E0,-8.009505272E0
4.041399844E1,1.308451366E1,7.810173512E0,-3.911991358E0
4.043399844E1,7.946537495E0,7.652136803E0,-2.100481033E0
4.045399844E1,9.573943138E0,4.754731655E0,9.854534268E-1
4.047601250E1,1.072840786E1,1.465663195E0,4.284423828E0
4.049799844E1,1.198346806E1,5.147342086E-1,4.794695377E0
4.051799844E1,1.261127567E1,1.070495486E0,4.164598942E0
4.053799844E1,1.370590401E1,-6.156928837E-2,2.501394987E0
4.055799844E1,1.434528160E1,-1.118168831E0,2.855765343E0
4.057799844E1,1.358186531E1,-3.724755287E0,8.787974358E0
4.059799844E1,1.061773872E1,-4.513922215E0,1.059017658E1
4.061799844E1,6.197132111E0,-3.367770195E0,7.053547859E0
4.063799844E1,3.222097397E0,-1.534319282E0,4.834908009E0
4.065799844E1,2.058668613E0,-7.940992713E-1,4.619410992E0
4.067799844E1,2.671689749E0,-1.693179458E-1,3.965343952E0
4.069999688E1,2.523804665E0,-1.087925285E-1,1.064854741E0
4.072000156E1,2.803054571E0,-6.762087345E-1,5.349604487E-1
4.074199688E1,3.485622644E0,-5.429953337E-1,1.461152554E0
4.076199844E1,4.215461254E0,-2.529905140E-1,2.032150507E0
4.078199844E1,5.216161251E0,-1.112987757E0,1.943938613E0
4.080199844E1,8.076552391E0,-2.761941433E0,1.416055441E0
4.082199844E1,1.353292847E1,-4.680347919E0,6.426324248E-1
4.084199844E1,1.887285042E1,-6.264256477E0,1.506747842E0
4.086199844E1,2.131700325E1,-9.444713593E0,-5.175124645E0
4.088199844E1,1.565161514E1,-8.076944351E0,-6.756456375E0
4.090199844E1,7.438775063E0,-2.093365431E0,-1.276280975E1
4.092199844E1,8.936223984E0,1.900593877E0,-1.083048725E1
4.094399844E1,1.006471634E1,-2.020964861E0,-8.635013580E0
4.096399844E1,1.008738518E1,-5.817852497E0,-6.374610066E-1
4.098399844E1,1.197307682E1,-7.227338314E0,7.251462460E0
4.100399844E1,1.289106178E1,-6.862615108E0,1.407728291E1
4.102399844E1,1.074032211E1,-3.838709831E0,2.203458595E1
4.104599844E1,9.221909523E0,-1.542277694E0,1.326974773E1
4.106599844E1,7.866868019E0,-4.349977076E-1,7.531928539E0
4.108600469E1,6.276974201E0,7.626681328E-1,4.197361469E0
4.110799844E1,5.006122589E0,7.597472668E-1,1.891907692E0
4.112800156E1,4.278122425E0,2.450609058E-1,6.010404229E-1
4.114999844E1,5.989832878E0,-1.579282522E0,-1.619332671E0
4.116999844E1,4.919289589E0,-2.395628691E0,-3.276139498E0
4.118999844E1,3.221283436E0,-1.308737636E0,-1.801837921E0
4.120999844E1,2.885061026E0,-9.662902355E-1,6.113354564E-1
4.122999844E1,2.964184523E0,-3.239163458E-1,3.527722120E0
4.124999844E1,5.306920528E0,7.697837353E-1,5.308692455E0
4.127199844E1,9.577228546E0,2.584253311E0,5.294001579E0
4.129200000E1,1.496571350E1,4.125688553E0,1.927543044E0
4.131399844E1,2.440792847E1,5.230411053E0,-6.731556416E0
4.133399844E1,1.550141239E1,9.005694389E0,-1.173352242E1
4.135601406E1,1.317507172E1,7.816570282E0,-1.537623405E0
4.137799844E1,1.598514652E1,4.502755642E0,4.543696880E0
4.139799844E1,1.082768154E1,2.144256592E0,3.761626005E0
4.141799844E1,7.182346821E0,5.379770994E-1,4.340266228E0
4.143799844E1,9.343372345E0,-3.391721845E-1,3.086690903E0
4.145799844E1,1.296691036E1,-1.236796737E0,1.985444427E0
4.147799844E1,1.569181824E1,-3.204638958E0,2.706683397E0
4.149799844E1,1.446451187E1,-4.439300060E0,6.623558998E0
4.151800000E1,9.515773773E0,-3.011005640E0,7.061276436E0
4.153999844E1,4.788317204E0,-3.864337504E-1,5.437404156E0
4.155999844E1,3.061724424E0,9.377034903E-1,5.262062550E0
4.157999844E1,3.204524279E0,2.412493378E-1,2.527654648E0
4.159999844E1,3.341606379E0,-9.419747442E-2,1.329519391E0
4.161999844E1,3.359476805E0,2.007107288E-1,1.741733849E-1
4.163999844E1,3.099562168E0,6.525635719E-1,-1.050001085E-1
4.165999844E1,3.273314238E0,1.910860240E-1,7.865527272E-1
4.167999844E1,4.409238338E0,-1.043575048E0,1.579789996E0
4.169999844E1,6.677313328E0,-2.284681320E0,1.860735178E0
4.172000156E1,9.668341637E0,-3.191432714E0,1.987991810E0
4.174199844E1,1.477402496E1,-4.154323101E0,3.038672924E0
4.176199844E1,1.942783546E1,-7.510112762E0,-3.742280960E0
4.178199844E1,1.709755898E1,-9.600566864E0,-7.309181690E0
4.180399844E1,9.208291054E0,-3.871289968E0,-1.000918102E1
4.182399844E1,7.331476688E0,1.477069259E0,-1.299744129E1
4.184399844E1,1.206514835E1,-4.141490161E-1,-9.330596924E0
4.186399844E1,1.116894150E1,-4.060297966E0,-7.341666698E0
4.188399844E1,1.335773087E1,-7.881213665E0,4.697232246E0
4.190600469E1,1.509115124E1,-7.203492165E0,1.734562683E1
4.192800625E1,1.183158016E1,-2.161379814E0,2.246376991E1
4.194999844E1,8.164428711E0,-4.637856185E-1,1.039139080E1
4.196999844E1,5.688584805E0,-4.942781627E-1,6.153749466E0
4.199199844E1,4.612420082E0,2.986527085E-1,4.188570023E0
4.201399844E1,2.976155519E0,3.742616251E-2,2.472558975E0
4.203600781E1,4.363719940E0,-1.745104909E0,1.485037088E0
4.205799844E1,7.443955898E0,-4.514698029E0,-6.674459577E-1
4.207799844E1,4.144985676E0,-2.815590858E0,-1.285274506E0
4.209799844E1,8.889287710E-1,-1.419282705E-2,6.583480239E-1
4.211799844E1,6.068822742E-1,1.831937790E0,3.513270855E0
4.213799844E1,1.767629504E0,3.459085226E0,4.475903034E0
4.215799844E1,4.525816917E0,4.065248966E0,4.250953197E0
4.217799844E1,1.071773052E1,4.629715919E0,4.106046200E0
4.219799844E1,1.911169624E1,5.123371601E0,1.322537899E0
4.221799844E1,2.327855492E1,5.942169666E0,-9.520772934E0
4.223799844E1,1.824346352E1,6.758792877E0,-1.550335598E1
4.225799844E1,1.213277054E1,5.954236031E0,-5.231617928E0
4.227799844E1,1.526324654E1,5.152954102E0,5.837408543E0
4.229799844E1,1.351245308E1,1.165066361E0,4.509134293E0
4.231800469E1,9.369362831E0,-7.667382956E-1,2.518738508E0
4.233999844E1,9.685743332E0,2.627875656E-2,3.933108330E0
4.235999844E1,1.166292286E1,1.591358900E0,4.181300640E0
4.237999844E1,1.250283718E1,1.557859182E0,2.923186302E0
4.239999844E1,1.311095524E1,-1.157826424E0,6.441389084E0
4.241999844E1,1.216132832E1,-3.674084425E0,1.101358604E1
4.243999844E1,7.575780869E0,-2.823098898E0,7.559040546E0
4.245999844E1,3.280458450E0,-2.517646849E-1,4.151009083E0
4.247999844E1,2.141938925E0,1.087092042E0,5.822248459E0
4.249999844E1,3.432624578E0,2.238377333E0,7.359833717E0
4.251999844E1,3.514956236E0,8.437454104E-1,2.194889069E0
4.253999844E1,3.089353323E0,5.500917882E-2,-4.973331690E-1
4.255999844E1,2.641637802E0,-1.466975212E-1,-1.278149366E0
4.257999844E1,2.143231869E0,-1.134506822E0,3.746159673E-1
4.259999844E1,3.389605522E0,-2.842626333E0,1.576993704E0
4.261999844E1,5.574860573E0,-4.427798271E0,1.808005333E0
4.263999844E1,1.087886047E1,-6.463186264E0,2.544423580E0
4.265999844E1,1.555127811E1,-8.282741547E0,1.275707245E0
4.267999844E1,1.908648109E1,-9.998798370E0,-3.428544760E0
4.269999844E1,1.966591644E1,-9.860356331E0,-5.067174911E0
