"Time (s)","Gyroscope x (rad/s)","Gyroscope y (rad/s)","Gyroscope z (rad/s)"
8.510000000E-4,2.350434780E0,-3.426954031E0,1.064371586E0
2.285412500E-2,1.064441442E0,-5.018554688E0,-1.364672929E-1
4.484943700E-2,-8.347036839E-1,-2.059767723E0,-8.758934736E-1
6.484943700E-2,-2.847574472E0,1.764719844E0,-1.255415320E0
8.484943700E-2,-4.272670746E0,5.165598392E0,-1.577079535E0
1.048494370E-1,-4.013070583E0,4.362572670E0,-2.168606520E0
1.248494370E-1,-3.156305790E0,8.070576787E-1,-2.542700291E0
1.448494370E-1,-1.939165473E0,-1.708694816E0,-2.140838385E0
1.648494370E-1,-1.042659640E0,-1.809662104E0,-1.325455427E0
1.848494370E-1,-5.982639790E-1,-1.396664858E0,-9.972636700E-1
2.048510000E-1,-3.786142766E-1,-6.304478049E-1,-7.806333899E-1
2.268510000E-1,-4.232074320E-1,1.428202987E-1,-5.965709686E-1
2.468510000E-1,-8.322951794E-1,4.258952439E-1,-5.377708673E-1
2.688494370E-1,-1.545314550E0,2.600366175E-1,-7.470532656E-1
2.888494370E-1,-2.381606579E0,-2.291442752E-1,-8.874126673E-1
3.088494370E-1,-2.765561342E0,-8.318239450E-2,-7.477164865E-1
3.288494370E-1,-2.368184805E0,1.873087287E-1,-3.716329634E-1
3.488494370E-1,-1.539170980E0,-1.884955564E-3,8.672541380E-2
3.708494370E-1,-5.440540314E-1,-4.408876300E-1,5.921029449E-1
3.908494370E-1,4.660028964E-2,-1.155914068E0,9.680817723E-1
4.108494370E-1,-2.539454103E-1,-2.564063311E0,5.357462764E-1
4.308494370E-1,-1.532311797E0,-4.048919678E0,-8.943765163E-1
4.508494370E-1,-2.012102842E0,-1.458432078E0,-1.038785100E0
4.728494370E-1,-1.818458557E0,5.098979473E-1,-4.420395494E-1
4.928494370E-1,-1.113031387E0,-3.123266697E-1,-1.336224079E-1
5.128494370E-1,-6.393141299E-2,-1.210891962E0,6.698573381E-2
5.328494370E-1,1.248451471E0,-1.038226604E0,2.069262415E-1
5.548478750E-1,3.058654547E0,6.388777494E-1,5.281017423E-1
5.748494370E-1,4.420569897E0,2.337257624E0,1.097375751E0
5.948494370E-1,4.693347454E0,3.799128056E0,1.864936709E0
6.148494370E-1,3.600422144E0,3.271706820E0,2.142827988E0
6.348494370E-1,2.310030460E0,2.360906899E-1,1.357429862E0
6.548494370E-1,1.444521785E0,-7.680321336E-1,7.592706084E-1
6.748494370E-1,1.180575609E0,-2.720619142E-1,6.077759862E-1
6.968510000E-1,1.267859578E0,-8.901178837E-3,7.403686643E-1
7.168510000E-1,1.499621749E0,-1.372177899E-1,1.028819203E0
7.388494370E-1,1.921031594E0,-5.070181489E-1,1.301282525E0
7.588510000E-1,1.913299680E0,-8.311606646E-1,1.309136510E0
7.808494370E-1,1.449670434E0,-3.670078218E-1,8.992459774E-1
8.008494370E-1,1.107760429E0,9.964084625E-2,3.614926040E-1
8.208494370E-1,1.011086702E0,2.557780147E-1,-3.304431736E-1
8.408494370E-1,1.007386565E0,2.278527319E-1,-9.089848995E-1
8.608494370E-1,9.783617854E-1,-1.185078546E-2,-1.140136361E0
8.808494370E-1,1.231975555E0,-6.054372787E-1,-5.776690841E-1
9.008494370E-1,1.809662104E0,-1.209059358E0,8.515461683E-1
9.208510000E-1,2.545789480E0,-2.780763388E0,1.237543106E0
9.408510000E-1,2.756206512E0,-3.976784945E0,7.395134568E-1
9.608556870E-1,1.996901035E0,-2.993065119E0,3.188018501E-1
9.828494370E-1,6.512521505E-1,-7.453428507E-1,2.004685104E-1
1.002849437E0,-1.705710292E0,2.006727219E0,-5.586798862E-2
1.022849437E0,-4.348802090E0,4.830390453E0,-6.901729703E-1
1.042849437E0,-5.068505764E0,4.697553635E0,-1.824445009E0
1.064849437E0,-4.603305817E0,2.109282732E0,-2.324045420E0
1.086849437E0,-3.110281467E0,-6.859318614E-1,-2.208015919E0
1.106849437E0,-1.759065032E0,-1.477316499E0,-1.583188176E0
1.126849437E0,-8.846201301E-1,-9.480279684E-1,-1.034002900E0
1.146849437E0,-5.546132922E-1,-1.806066632E-1,-7.492523789E-1
1.166851000E0,-4.106585085E-1,5.095489025E-1,-4.614824951E-1
1.188849437E0,-6.130468845E-1,6.047216654E-1,-4.289670289E-1
1.208849437E0,-1.051717997E0,4.170289636E-1,-5.966233611E-1
1.228855687E0,-1.645199656E0,2.397733331E-1,-7.155849934E-1
1.250849437E0,-2.274303675E0,4.094018936E-1,-4.981867671E-1
1.270849437E0,-2.147714853E0,9.497383833E-1,-8.878489584E-2
1.290849437E0,-1.582385302E0,9.351648688E-1,4.457745552E-1
1.310849437E0,-9.653241634E-1,3.322932422E-1,8.004952669E-1
1.330849437E0,-5.227261186E-1,-3.868871331E-1,7.181680799E-1
1.350849437E0,-6.681295037E-1,-1.176421762E0,6.927211583E-2
1.370849437E0,-1.235413909E0,-2.009362698E0,-7.375586629E-1
1.390849437E0,-1.685499310E0,-2.614311218E0,-9.855699539E-1
1.410849437E0,-1.829454064E0,-1.316885829E0,-7.605621219E-1
1.430849437E0,-1.765191078E0,-3.703239560E-1,-2.084621191E-1
1.450849437E0,-8.670795560E-1,-7.774743438E-1,-1.556659192E-1
1.470855687E0,8.466592431E-2,-1.665323377E0,-1.279151738E-1
1.492852562E0,1.830536246E0,-4.885525703E-1,2.600016892E-1
1.514847875E0,4.110145569E0,2.329124451E0,7.671594620E-1
1.534849437E0,5.087408066E0,3.896133423E0,1.511594772E0
1.556852562E0,3.852343082E0,3.251810074E0,2.008926392E0
1.578849437E0,1.658638716E0,-5.984385014E-1,1.215639234E0
1.598849437E0,6.240948439E-1,-1.270826578E0,6.292958856E-1
1.618849437E0,4.325274825E-1,-2.027548999E-1,4.954989851E-1
1.638849437E0,8.870810270E-1,-1.117185280E-1,5.712985992E-1
1.658849437E0,1.374970436E0,-3.901858032E-1,9.875596762E-1
1.680847875E0,2.059610605E0,-7.593578696E-1,1.451660156E0
1.700849437E0,2.418939114E0,-1.090638757E0,1.748540640E0
1.720861937E0,2.369930267E0,-1.039727569E0,1.527040958E0
1.742849437E0,1.848460793E0,-6.436948776E-1,9.014276266E-1
1.762849437E0,1.282049060E0,-2.535265386E-1,1.562767774E-1
1.784849437E0,7.261616588E-1,3.126408160E-1,-4.857425690E-1
1.804849437E0,4.671897292E-1,3.797836304E-1,-1.003267646E0
1.824849437E0,7.275579572E-1,-5.144532323E-1,-9.857096076E-1
1.844851000E0,1.970319629E0,-2.617487669E0,8.922297359E-1
1.866847875E0,3.166690588E0,-3.560087681E0,1.426649570E0
1.886851000E0,3.243868828E0,-2.908154964E0,3.420321643E-1
1.908851000E0,1.971331954E0,-7.815759182E-1,9.353219718E-2
1.928855687E0,5.481730103E-1,3.501130342E-1,-2.068215162E-1
1.950849437E0,-1.979028821E0,1.999047756E0,-7.535458803E-1
1.972849437E0,-4.912473679E0,4.535883904E0,-1.083308458E0
1.992849437E0,-5.627151012E0,4.270524025E0,-2.178659678E0
2.012849437E0,-4.958026409E0,2.465277672E0,-2.698313951E0
2.032849437E0,-3.427303076E0,-4.118627906E-1,-2.476325512E0
2.054849437E0,-2.042506456E0,-1.752293110E0,-1.607919455E0
2.074849437E0,-1.149438977E0,-1.300811291E0,-1.070550084E0
2.094849437E0,-8.503767848E-1,-8.933816552E-1,-8.591208458E-1
2.114849437E0,-8.302705884E-1,-2.958682179E-1,-6.219829917E-1
2.134849437E0,-1.102367401E0,-7.602654397E-2,-5.238780379E-1
2.154849437E0,-1.594812036E0,-7.571238279E-2,-5.782450438E-1
2.174849437E0,-2.213810444E0,-6.874851882E-2,-7.564256787E-1
2.196851000E0,-2.909795523E0,-1.653873920E-1,-6.639755964E-1
2.218857250E0,-2.738543749E0,3.185923994E-1,-6.255783439E-1
2.240857250E0,-1.765016556E0,5.504768491E-1,-9.597565234E-2
2.262849437E0,-7.842113376E-1,-5.934119597E-2,5.621531010E-1
2.284849437E0,-1.132020578E-1,-9.231569767E-1,8.753349781E-1
2.306849437E0,-3.319616318E-1,-1.919024467E0,3.541622162E-1
2.326849437E0,-8.051552773E-1,-6.568197608E-1,-5.166348815E-1
2.346849437E0,-1.098213553E0,1.175304770E0,-8.002858162E-1
2.366849437E0,-1.332872987E0,6.721088290E-1,-7.881383300E-1
2.386849437E0,-1.140171289E0,-1.681869030E0,-4.612730742E-1
2.406849437E0,-4.314628541E-1,-2.867768049E0,-5.793794990E-1
2.426849437E0,7.411191463E-1,-2.540379047E0,-3.776019812E-1
2.446849437E0,2.800520420E0,-4.510803521E-1,2.144486010E-1
2.466849437E0,5.098892212E0,2.233044147E0,1.107498646E0
2.486849437E0,5.821825027E0,5.502866268E0,2.544061661E0
2.506849437E0,3.934076786E0,5.762361526E0,2.882254124E0
2.526849437E0,1.475187182E0,7.989419103E-1,1.537093997E0
2.546849437E0,4.122293293E-1,-1.268767118E0,4.641179442E-1
2.566849437E0,3.973242044E-1,-6.055768728E-1,3.742684126E-1
2.586849437E0,7.033502460E-1,-4.575031698E-1,7.221997976E-1
2.606849437E0,1.382510185E0,-8.422260880E-1,1.059886098E0
2.626849437E0,2.383997679E0,-1.472028136E0,1.283445358E0
2.646849437E0,2.980533600E0,-9.669821858E-1,1.440263152E0
2.666849437E0,2.860856533E0,1.470090896E-1,1.367552757E0
2.686849437E0,2.177525043E0,9.048659205E-1,1.038104415E0
2.706849437E0,1.519640684E0,1.027475357E0,4.330510795E-1
2.726855687E0,9.917833209E-1,6.045820713E-1,-1.569400132E-1
2.748855687E0,6.651275158E-1,2.802649736E-1,-8.851262927E-1
2.768866625E0,8.106181622E-1,-5.700245500E-1,-9.872455001E-1
2.790849437E0,1.794250846E0,-1.991246104E0,1.339749694E0
2.810849437E0,2.617522717E0,-2.806925774E0,2.153334856E0
2.830857250E0,2.952957392E0,-3.428018570E0,1.186527133E0
2.852849437E0,2.519120932E0,-3.047868490E0,1.304982603E-1
2.874847875E0,8.214217424E-1,-6.494544744E-1,-1.854586899E-1
2.894849437E0,-1.945361376E0,1.774563551E0,-6.610260010E-1
2.914849437E0,-4.137075901E0,3.471425056E0,-1.411185980E0
2.934849437E0,-4.861824036E0,4.064784527E0,-2.496309519E0
2.954849437E0,-4.520123482E0,2.981703043E0,-3.121957779E0
2.976849437E0,-3.634822607E0,3.469539881E-1,-2.675764322E0
2.996861937E0,-2.156528711E0,-1.229514599E0,-1.646020055E0
3.018849437E0,-1.225465536E0,-1.098719716E0,-1.142335415E0
3.038849437E0,-1.219199777E0,-4.611858130E-1,-1.033147693E0
3.058855687E0,-1.297303200E0,2.331061810E-1,-8.628209829E-1
3.080849437E0,-1.554006219E0,4.545535445E-1,-6.967877746E-1
3.100849437E0,-1.865913987E0,4.196644127E-1,-6.201503873E-1
3.120849437E0,-2.256780624E0,1.470789015E-1,-6.643246412E-1
3.140849437E0,-2.649479628E0,-2.159844935E-1,-5.732010603E-1
3.160849437E0,-2.613456011E0,1.489813030E-1,-2.450442314E-1
3.180849437E0,-1.974857450E0,8.436747193E-1,8.834856749E-2
3.200849437E0,-9.836675525E-1,9.264032841E-1,5.129522681E-1
3.220849437E0,-2.398605943E-1,2.637890577E-1,1.036516190E0
3.240851000E0,-6.459463388E-2,-1.154098988E0,8.455421925E-1
3.262849437E0,-5.183104277E-1,-2.484301567E0,-2.528632879E-1
3.282849437E0,-1.244925857E0,-2.283885479E0,-8.688423634E-1
3.302849437E0,-1.832613111E0,-4.504694641E-1,-5.849121809E-1
3.322849437E0,-1.823328018E0,9.777334332E-2,-4.096462131E-1
3.342849437E0,-1.069851875E0,-1.233075142E0,-4.220031500E-1
3.362849437E0,-1.435009688E-1,-2.415169239E0,-4.683940113E-1
3.382849437E0,1.277511239E0,-1.999728441E0,-1.598372459E-1
3.402849437E0,3.275913239E0,-9.660397470E-2,5.807583332E-1
3.422849437E0,5.014400959E0,2.745961428E0,1.474715948E0
3.442849437E0,4.903554916E0,4.467292309E0,2.346542835E0
3.462849437E0,3.169116497E0,2.678574324E0,2.146074295E0
3.482849437E0,1.668552160E0,-2.565459311E-1,1.123677850E0
3.502849437E0,1.124986887E0,-8.307243586E-1,5.464800596E-1
3.522849437E0,1.235466242E0,-1.776919663E-1,5.353971720E-1
3.542849437E0,1.469689369E0,9.189158678E-2,8.556650877E-1
3.562849437E0,1.869038224E0,-2.666339576E-1,1.262815475E0
3.582854125E0,2.462886572E0,-8.397127986E-1,1.541998386E0
3.604849437E0,2.524967909E0,-6.521422863E-1,1.373766065E0
3.624849437E0,2.050849199E0,1.198168546E-1,7.638608217E-1
3.644849437E0,1.606488347E0,4.807334840E-1,6.667157635E-3
3.664849437E0,1.362526178E0,5.472305417E-1,-5.351005197E-1
3.684849437E0,1.125877023E0,-7.778932154E-2,-7.874401808E-1
3.704851000E0,1.205289483E0,-1.414676666E0,-4.471707940E-1
3.726849437E0,1.999798298E0,-2.467598915E0,1.019411922E0
3.746851000E0,2.443705320E0,-2.403143883E0,1.489725828E0
3.768849437E0,2.761023521E0,-2.579142809E0,1.722954154E0
3.788849437E0,1.953180552E0,-1.217890739E0,1.078229547E0
3.808849437E0,-4.723733664E-1,8.500800729E-1,3.221877813E-1
3.828851000E0,-3.410146475E0,2.675275564E0,-1.008363962E0
3.850849437E0,-4.103147030E0,2.768580914E0,-2.831971169E0
3.870849437E0,-4.069008350E0,2.835287333E0,-3.672818422E0
3.890849437E0,-3.643078089E0,1.670699000E0,-3.331362247E0
3.910849437E0,-2.389722347E0,-1.874658167E-1,-1.994125962E0
3.930849437E0,-1.057407737E0,-1.345701218E0,-9.445547462E-1
3.950849437E0,-4.934743941E-1,-1.195812345E0,-6.638534069E-1
3.970849437E0,-3.256435394E-1,-4.036771953E-1,-5.700768828E-1
3.990849437E0,-5.851914287E-1,2.316401005E-1,-5.198637843E-1
4.010849437E0,-1.002586961E0,6.499257088E-1,-5.301088691E-1
4.030849437E0,-1.500843525E0,8.341626525E-1,-5.825908780E-1
4.050849437E0,-1.938589573E0,8.344070315E-1,-5.459738970E-1
4.070849437E0,-1.962046742E0,6.927909851E-1,-5.805139542E-1
4.090849437E0,-1.527983427E0,2.204350829E-1,-2.652027905E-1
4.110849437E0,-9.450609088E-1,-7.957828641E-1,4.817806780E-1
4.130849437E0,-4.950626493E-1,-1.482063770E0,1.009987116E0
4.150849437E0,-4.578173161E-1,-1.949305892E0,9.395980239E-1
4.170849437E0,-1.060252666E0,-2.462240696E0,3.050137460E-1
4.190851000E0,-1.621044397E0,-1.950684667E0,-3.553839326E-1
4.212847875E0,-1.515329719E0,2.772106528E-1,-2.994984984E-1
4.232849437E0,-1.356103420E0,1.454627156E0,-5.258677155E-2
4.252849437E0,-9.594423771E-1,-1.583537161E-1,-1.522799730E-1
4.274849437E0,-1.182460561E-1,-2.037287951E0,-2.316401005E-1
4.294849437E0,1.194276452E0,-1.928047776E0,-1.645670980E-1
4.316861937E0,3.423323631E0,1.912880838E-1,7.485716790E-2
4.338851000E0,5.189928532E0,2.388325930E0,9.902998209E-1
4.360849437E0,4.729493141E0,4.570685863E0,2.250462532E0
4.380849437E0,2.523676157E0,4.317124367E0,2.341969967E0
4.402849437E0,7.518180013E-1,4.534714520E-1,1.144848704E0
4.422849437E0,1.430646330E-1,-7.160562277E-1,7.827452421E-1
4.444847875E0,3.154158890E-1,-4.944692254E-1,1.100290418E0
4.464849437E0,8.047538400E-1,-8.358381987E-1,1.430454373E0
4.484849437E0,1.458432078E0,-1.544598937E0,1.664782286E0
4.504849437E0,2.057900190E0,-1.991385818E0,1.704366326E0
4.526849437E0,2.174226522E0,-1.259621620E0,1.311265826E0
4.546849437E0,1.901274443E0,-1.943598688E-1,6.710790992E-1
4.566849437E0,1.555995941E0,4.247084260E-1,-7.438593358E-2
4.586849437E0,1.226826787E0,6.051056385E-1,-7.728492618E-1
4.606849437E0,1.010789990E0,3.311762214E-1,-1.423909426E0
4.626849437E0,1.278628230E0,-6.901555657E-1,-1.320638299E0
4.646849437E0,2.173929691E0,-1.796223044E0,5.333202481E-1
4.666849437E0,2.456550837E0,-1.898080468E0,1.281891942E0
4.686851000E0,2.573121548E0,-2.805878639E0,9.613273740E-1
4.708847875E0,1.820884585E0,-2.317640066E0,-9.721484035E-2
4.728849437E0,4.980122447E-1,-3.851941526E-1,-1.906772256E-1
4.748849437E0,-1.324652553E0,9.688846469E-1,-4.476769567E-1
4.768849437E0,-3.606426239E0,2.783957243E0,-7.298443317E-1
4.788849437E0,-4.518168926E0,3.232402086E0,-1.659651041E0
4.808849437E0,-4.297786236E0,2.802387953E0,-2.353140116E0
4.828863500E0,-3.090925694E0,1.059903502E0,-2.438992977E0
4.850849437E0,-1.452742219E0,-9.901252985E-1,-1.670978189E0
4.870849437E0,-6.040061116E-1,-1.393051982E0,-9.644689560E-1
4.890849437E0,-3.838153481E-1,-7.968125939E-1,-7.637560964E-1
4.910849437E0,-4.178143740E-1,-1.563815027E-2,-6.209881306E-1
4.930849437E0,-6.545857191E-1,5.189387202E-1,-5.206142664E-1
4.950849437E0,-1.141968966E0,5.890835524E-1,-5.414011478E-1
4.972849437E0,-1.846610665E0,4.895648658E-1,-8.027467132E-1
4.992854125E0,-2.655640602E0,2.757620253E-2,-8.652993441E-1
5.014847875E0,-2.837957621E0,-1.000597253E-1,-8.101469278E-1
5.034847875E0,-2.165220499E0,9.838420898E-2,-3.059562147E-1
5.054847875E0,-1.309852123E0,1.605702913E-3,3.625223339E-1
5.074847875E0,-4.771032035E-1,-1.644100100E-1,9.362295270E-1
5.094849437E0,1.811651699E-2,-7.088829279E-1,1.124690175E0
5.114849437E0,-5.498310924E-1,-2.509504318E0,2.747322619E-1
5.134849437E0,-1.650522947E0,-2.545213699E0,-1.091232181E0
5.154849437E0,-1.969010592E0,-2.510132492E-1,-1.018120408E0
5.174849437E0,-1.666649818E0,5.849645734E-1,-4.698775411E-1
5.194849437E0,-7.426899672E-1,-9.108000398E-1,-2.788512409E-1
5.214849437E0,3.633426428E-1,-2.017199278E0,-3.034254909E-1
5.236849437E0,1.987633348E0,-1.492448449E0,-2.755002081E-1
5.258849437E0,3.950378180E0,4.592135847E-1,2.553940415E-1
5.278849437E0,4.685493469E0,2.205118895E0,1.431239843E0
5.300849437E0,4.117475986E0,4.405403137E0,2.347328186E0
5.322849437E0,2.441506147E0,3.588344574E0,1.946356297E0
5.344849437E0,1.008817792E0,1.465029418E-1,8.692438006E-1
5.364849437E0,7.262140512E-1,-7.819424272E-1,5.876349211E-1
5.384849437E0,9.966004491E-1,-6.330832839E-1,8.449138999E-1
5.404849437E0,1.815177321E0,-8.309861422E-1,1.093413830E0
5.424849437E0,2.642568111E0,-1.358093023E0,1.582577348E0
5.446849437E0,2.823070049E0,-1.343379974E0,1.668866396E0
5.466849437E0,2.457598209E0,-3.914424479E-1,1.156228304E0
5.486849437E0,1.947927117E0,1.498016119E-1,4.014431834E-1
5.506849437E0,1.467560053E0,7.770903707E-1,-1.550375968E-1
5.526849437E0,1.037737846E0,1.060165286E0,-6.276727319E-1
5.546849437E0,7.214841843E-1,8.641648889E-1,-1.162773252E0
5.566849437E0,9.115505815E-1,-4.135732055E-1,-1.226547599E0
5.586849437E0,1.880347967E0,-1.910524607E0,1.727875918E-1
5.606849437E0,2.455346584E0,-1.700037956E0,1.305750608E0
5.626849437E0,2.924770355E0,-2.780396700E0,1.416107774E0
5.646849437E0,2.867733002E0,-3.109722853E0,2.225120217E-1
5.666849437E0,1.645653486E0,-1.070235848E0,-3.067590594E-1
5.686849437E0,-3.916518688E-1,7.850316167E-1,-4.474849701E-1
5.706849437E0,-3.603511572E0,3.479889870E0,-6.442359090E-1
5.726849437E0,-4.997139454E0,4.394686699E0,-1.478084445E0
5.746849437E0,-4.577789307E0,2.906043053E0,-2.192168474E0
5.766849437E0,-3.411176205E0,4.038517475E-1,-2.284915209E0
5.786849437E0,-2.123594522E0,-1.597866416E0,-1.765226007E0
5.806849437E0,-1.187818766E0,-1.757755995E0,-1.168288469E0
5.826849437E0,-8.130616546E-1,-9.475916028E-1,-9.509950280E-1
5.846849437E0,-7.724827528E-1,-2.475575060E-1,-7.926238179E-1
5.866849437E0,-8.277049661E-1,2.829527855E-1,-6.258052588E-1
5.886849437E0,-1.139839649E0,3.772180080E-1,-5.941100717E-1
5.906849437E0,-1.648393631E0,2.794097662E-1,-7.300886512E-1
5.926849437E0,-2.438940525E0,-2.944719493E-1,-8.551938534E-1
5.946849437E0,-3.050364256E0,-7.894822359E-1,-8.790176511E-1
5.966849437E0,-2.725174427E0,-1.871865690E-1,-5.906543136E-1
5.986849437E0,-1.823834181E0,2.675065994E-1,1.566258520E-1
6.006849437E0,-8.550717235E-1,1.120326817E-1,7.836703062E-1
6.026849437E0,-1.086816490E-1,-2.634923458E-1,1.156193376E0
6.046849437E0,1.100255549E-1,-8.927533627E-1,1.131043196E0
6.066849437E0,-8.466417789E-1,-1.986970067E0,2.368586361E-1
6.086849437E0,-1.865913987E0,-1.008311629E0,-9.537002444E-1
6.106849437E0,-1.916633368E0,7.760955691E-1,-1.087008476E0
6.126849437E0,-1.673910379E0,4.655840397E-1,-5.846154690E-1
6.146849437E0,-6.601358652E-1,-8.903797269E-1,-1.839402467E-1
6.166849437E0,3.026750088E-1,-1.899948001E0,-2.407158166E-1
6.186851000E0,1.309503078E0,-1.721697450E0,-1.149299294E-1
6.206851000E0,3.113911629E0,1.068490595E-1,2.925171852E-1
6.226855687E0,4.689717293E0,1.886404157E0,9.172403216E-1
6.248849437E0,4.703714848E0,3.556771517E0,1.993986249E0
6.268849437E0,3.112620115E0,3.682924032E0,2.193320274E0
6.288849437E0,1.197976589E0,8.072322011E-1,1.454155922E0
6.308849437E0,2.381327152E-1,-1.312400341E0,5.494819880E-1
6.328849437E0,1.123293936E-1,-1.117237568E0,4.083721340E-1
6.348849437E0,5.530075431E-1,-5.722061992E-1,4.686907232E-1
6.368849437E0,1.654589534E0,-6.040759087E-1,6.494544744E-1
6.388849437E0,2.773834229E0,-7.180110216E-1,1.185427666E0
6.408849437E0,3.343527317E0,-1.557880938E-1,1.606470823E0
6.428849437E0,3.150022507E0,8.350353241E-1,1.444225073E0
6.448849437E0,2.768563509E0,1.051176906E0,8.002508879E-1
6.470849437E0,2.254476786E0,1.010789990E0,1.652128696E-1
6.490849437E0,1.585369825E0,4.914323688E-1,-2.147802114E-1
6.510849437E0,1.107306719E0,-4.072900414E-1,-5.103342533E-1
6.530849437E0,1.189337134E0,-1.563884854E0,-3.859620988E-1
6.550849437E0,2.137714148E0,-2.618203402E0,9.845227599E-1
6.572847875E0,2.557169199E0,-2.228314161E0,1.591024637E0
6.592852562E0,2.752244711E0,-2.767271996E0,1.170749426E0
6.614847875E0,1.927471757E0,-1.868619323E0,6.429792941E-2
6.634849437E0,3.643723726E-1,-2.447824329E-1,1.037423685E-1
6.654849437E0,-2.699500799E0,1.683544636E0,-1.341983676E-1
6.674849437E0,-5.165040016E0,3.556858778E0,-5.951223373E-1
6.696849437E0,-5.299395561E0,3.162327051E0,-1.733897328E0
6.716855687E0,-4.125783920E0,2.103086948E0,-2.628518105E0
6.738849437E0,-2.867558479E0,3.562740684E-1,-2.685573101E0
6.758849437E0,-1.703895092E0,-1.275957823E0,-1.854621768E0
6.778849437E0,-8.571311831E-1,-1.259167790E0,-1.025572896E0
6.798849437E0,-4.547978938E-1,-5.376312137E-1,-7.409795523E-1
6.818849437E0,-5.146277547E-1,3.067416251E-1,-5.386086106E-1
6.838849437E0,-8.102865815E-1,8.441284895E-1,-5.759761333E-1
6.858849437E0,-1.192984939E0,9.276773930E-1,-7.204719186E-1
6.878849437E0,-1.783517003E0,8.041430116E-1,-8.970119953E-1
6.898849437E0,-2.540623426E0,4.099080265E-1,-9.953263402E-1
6.918851000E0,-2.838778019E0,2.368411720E-1,-8.741830587E-1
6.940849437E0,-2.283379316E0,1.790533215E-1,-3.292738199E-1
6.960849437E0,-1.511018753E0,-2.391973734E-1,3.691022396E-1
6.980849437E0,-7.478561401E-1,-9.180606604E-1,7.846302390E-1
7.000849437E0,-1.555611938E-1,-1.650156498E0,8.396080732E-1
7.020849437E0,-2.434036136E-1,-2.599126816E0,5.062851310E-1
7.040849437E0,-9.300684929E-1,-2.722748518E0,-3.253119290E-1
7.060849437E0,-1.274369597E0,-8.319984376E-2,-6.420367956E-1
7.080849437E0,-1.595126152E0,1.994317889E0,-5.482079387E-1
7.100849437E0,-2.065684319E0,1.885653734E-1,-5.010665655E-1
7.120849437E0,-9.517280459E-1,-1.970808387E0,-3.788586259E-1
7.140849437E0,3.692942262E-1,-3.036279440E0,-6.036046743E-1
7.160851000E0,1.814671159E0,-2.167733908E0,-4.905771315E-1
7.182849437E0,3.979368210E0,-1.748470813E-1,-1.979552358E-1
7.202849437E0,5.243003845E0,1.265189171E0,5.883504748E-1
7.222849437E0,5.233142853E0,2.965454102E0,1.709462762E0
7.244847875E0,3.382814646E0,4.609152794E0,2.188642979E0
7.264849437E0,1.414833665E0,1.952168226E0,1.452881932E0
7.284849437E0,5.045921206E-1,-7.253064513E-1,6.733480096E-1
7.304849437E0,5.067214370E-1,-6.442708373E-1,4.614999592E-1
7.324849437E0,5.397430658E-1,-3.815289736E-1,7.265282273E-1
7.344849437E0,1.112996459E0,-5.266181827E-1,9.336987734E-1
7.364849437E0,2.225556612E0,6.904522330E-2,1.249167085E0
7.384849437E0,3.306596041E0,9.187587500E-1,1.475955129E0
7.404849437E0,3.514552116E0,1.328038454E0,1.321231723E0
7.424849437E0,3.119688749E0,1.193595767E0,7.995353341E-1
7.444851000E0,2.498944998E0,5.963091850E-1,1.805368513E-1
7.466857250E0,2.018019438E0,-1.735729873E-1,-3.173357546E-1
7.488849437E0,1.849787235E0,-1.133800745E0,-3.406533599E-1
7.510849437E0,2.270167112E0,-2.202186584E0,5.190609097E-1
7.530849437E0,2.228488684E0,-1.719062090E0,1.350047112E0
7.550849437E0,2.226341963E0,-1.933650255E0,1.543569207E0
7.570849437E0,2.146283627E0,-2.558059216E0,8.565901518E-1
7.590849437E0,9.191078544E-1,-9.132609963E-1,4.816061556E-1
7.610849437E0,-1.930526137E0,1.115247965E0,1.338842064E-1
7.630849437E0,-4.722372055E0,2.947075605E0,-4.549200535E-1
7.650849437E0,-4.670675755E0,2.086942434E0,-1.555908680E0
7.670849437E0,-3.685559511E0,1.810883760E0,-2.664210081E0
7.690849437E0,-2.888170719E0,1.979674578E0,-3.114452839E0
7.710849437E0,-1.810744166E0,-5.944591388E-2,-2.429690361E0
7.730849437E0,-8.674809933E-1,-1.374778390E0,-1.327375293E0
7.750849437E0,-4.019318819E-1,-5.583657026E-1,-8.040382862E-1
7.770849437E0,-4.705407619E-1,4.468042776E-2,-6.817081571E-1
7.790849437E0,-9.727767110E-1,5.615247488E-1,-6.545159221E-1
7.810849437E0,-1.473337173E0,8.710240126E-1,-7.953465581E-1
7.830849437E0,-2.052821398E0,7.532317638E-1,-9.910503030E-1
7.850849437E0,-2.684717894E0,3.127979040E-1,-1.166176677E0
7.870849437E0,-3.114871740E0,-2.628814876E-1,-1.200699210E0
7.890849437E0,-2.610942841E0,-2.209063172E-1,-8.691565394E-1
7.910849437E0,-1.613242745E0,-1.968207806E-1,-8.597491682E-2
7.930849437E0,-7.060555220E-1,-6.733480096E-1,5.600935817E-1
7.950849437E0,-2.743657492E-2,-1.354218364E0,9.072919488E-1
7.970849437E0,1.263443828E-1,-1.962273717E0,8.753349781E-1
7.992851000E0,-7.264409661E-1,-2.753396511E0,1.549677849E-1
8.014849437E0,-1.530095220E0,-1.177835464E0,-7.169114351E-1
8.034849437E0,-1.532137275E0,9.808750153E-1,-6.376385689E-1
8.056849437E0,-1.243512154E0,6.962118149E-1,-4.276056588E-1
8.076851000E0,-3.657512069E-1,-1.321039677E0,-4.306949079E-1
8.096855687E0,5.887693763E-1,-2.123891115E0,-6.733654737E-1
8.118849437E0,1.621096730E0,-1.844638467E0,-7.187440395E-1
8.138849437E0,3.217304945E0,-4.741012454E-1,-2.808060348E-1
8.158849437E0,4.508970737E0,1.156263113E0,5.911604762E-1
8.178849437E0,4.630707741E0,3.519037485E0,1.798125505E0
8.198849437E0,3.397527695E0,5.116973877E0,2.447597265E0
8.218855687E0,1.774266839E0,3.261706114E0,1.902967334E0
8.240851000E0,6.252816319E-1,-4.947310388E-1,7.271041870E-1
8.262849437E0,6.904173493E-1,-9.698096514E-1,6.070255041E-1
8.282849437E0,1.550253749E0,-8.419293761E-1,7.583106756E-1
8.304849437E0,2.824954987E0,-9.617113471E-1,1.142370343E0
8.324849437E0,3.373058319E0,-8.436747193E-1,1.607936978E0
8.344849437E0,2.995875120E0,-1.463982165E-1,1.635809779E0
8.364849437E0,2.487984180E0,2.968106866E-1,8.907462358E-1
8.386849437E0,1.737056375E0,7.021459341E-1,9.770353138E-2
8.406851000E0,1.239777207E0,9.488307834E-1,-4.136255682E-1
8.428851000E0,6.941523552E-1,7.776837945E-1,-7.669674754E-1
8.450849437E0,3.546509147E-1,2.452711165E-1,-9.214465618E-1
8.470849437E0,6.966481805E-1,-6.142511964E-1,-3.921056688E-1
8.492849437E0,1.425427794E0,-7.770729661E-1,9.880657792E-1
8.512849437E0,2.213618517E0,-1.291892767E0,1.473965406E0
8.532849437E0,3.329948664E0,-3.221406460E0,1.041385651E0
8.552849437E0,2.739189625E0,-1.897644162E0,5.136504173E-1
8.574849437E0,3.676361442E-1,5.932199359E-1,6.825459003E-1
8.596854125E0,-2.889898777E0,1.577917218E0,3.109478652E-1
8.618849437E0,-4.657952309E0,1.326677084E0,-1.160626531E0
8.638849437E0,-4.360198975E0,1.427871346E0,-2.158082247E0
8.658849437E0,-3.431090355E0,1.247770786E0,-2.554114819E0
8.678849437E0,-2.608324766E0,3.147526681E-1,-2.321462393E0
8.698849437E0,-1.457978249E0,-9.348856211E-1,-1.535872340E0
8.718854125E0,-6.155601740E-1,-1.154360771E0,-8.280714750E-1
8.740849437E0,-3.048042953E-1,-4.137302935E-1,-6.080029011E-1
8.760849437E0,-6.051754355E-1,4.200134873E-1,-5.614549518E-1
8.780849437E0,-1.016392469E0,8.973261118E-1,-6.369753480E-1
8.800849437E0,-1.577760220E0,1.020092607E0,-6.740286946E-1
8.820849437E0,-2.079315424E0,9.444674850E-1,-7.291287184E-1
8.840849437E0,-2.502540350E0,5.398652554E-1,-6.416354179E-1
8.860849437E0,-2.556436062E0,-1.994911395E-2,-5.837951899E-1
8.880849437E0,-2.099648476E0,-3.753330410E-1,-3.447199762E-1
8.900849437E0,-1.331302285E0,-7.893425822E-1,1.405862719E-1
8.920849437E0,-4.749564528E-1,-1.298123479E0,5.912652016E-1
8.940849437E0,1.630312055E-1,-1.568509936E0,8.175646067E-1
8.960849437E0,-1.308473349E-1,-1.542137980E0,5.718571544E-1
8.980849437E0,-1.046412110E0,-6.813765317E-2,-2.092824280E-1
9.000849437E0,-1.363206863E0,1.234785557E0,-6.900508404E-1
9.020849437E0,-8.235510588E-1,9.054942727E-1,-6.847974062E-1
9.040849437E0,-1.871167421E-1,-1.398863912E0,-4.923050106E-1
9.060849437E0,2.409427017E-1,-2.524549007E0,-5.173504949E-1
9.080849437E0,7.903897762E-1,-2.414087057E0,-7.498807311E-1
9.100849437E0,1.914050221E0,-1.297826886E0,-6.378305554E-1
9.120854125E0,3.390284538E0,1.224697530E-1,-1.130973361E-2
9.142847875E0,4.391911507E0,1.558212519E0,1.001347780E0
9.162849437E0,4.184706211E0,3.627911091E0,1.963582635E0
9.182849437E0,2.580085278E0,3.751951694E0,2.047585249E0
9.202849437E0,1.014228225E0,7.817329764E-1,1.268784523E0
9.222849437E0,4.482005537E-1,-8.676729798E-1,6.483200192E-1
9.244847875E0,2.588672340E-1,-9.541016817E-1,4.782900214E-1
9.264847875E0,7.798480392E-1,-3.896098435E-1,3.026750088E-1
9.284849437E0,1.832054615E0,-1.682497412E-1,4.750960767E-1
9.304849437E0,2.950252295E0,2.833891213E-1,1.109680295E0
9.324849437E0,3.470447540E0,1.030372620E0,1.812908411E0
9.346849437E0,3.138643026E0,9.936857820E-1,1.670838594E0
9.366849437E0,2.381292343E0,3.072826564E-1,6.699097157E-1
9.386851000E0,1.642808557E0,-7.892379165E-2,-5.211552978E-2
9.408849437E0,1.245048046E0,-2.650980651E-1,-5.595700145E-1
9.430849437E0,1.072766662E0,-6.320360899E-1,-8.696975708E-1
9.450849437E0,1.132683754E0,-1.033217430E0,-6.348634958E-1
9.470849437E0,1.246165037E0,-9.475741386E-1,3.677059710E-1
9.490849437E0,1.357307673E0,-5.892580748E-1,1.157205701E0
9.510849437E0,2.091515303E0,-1.764405727E0,1.223214030E0
9.530849437E0,1.986359239E0,-2.337659121E0,6.518979073E-1
9.550849437E0,7.292509079E-1,-5.260771513E-1,5.894500613E-1
9.572847875E0,-1.396507740E0,3.717725873E-1,7.458140850E-1
9.592849437E0,-3.808552742E0,1.301544428E0,1.809906363E-1
9.612849437E0,-4.786530495E0,1.042328119E0,-1.053620338E0
9.632849437E0,-4.454097748E0,1.374324560E0,-2.157994986E0
9.652849437E0,-3.452208996E0,1.601304650E0,-2.647123337E0
9.674847875E0,-2.058249235E0,7.871086001E-1,-2.026658773E0
9.694847875E0,-1.014437675E0,-7.102442980E-1,-9.840689898E-1
9.714849437E0,-5.442460179E-1,-5.244365335E-1,-5.828527212E-1
9.734858812E0,-5.234940648E-1,1.303935498E-1,-4.619711936E-1
9.756863500E0,-7.137000561E-1,5.745100379E-1,-5.505466461E-1
9.778849437E0,-9.987123013E-1,8.010362983E-1,-6.111968756E-1
9.798849437E0,-1.604812741E0,5.589940548E-1,-7.565827966E-1
9.818849437E0,-2.443618059E0,-1.958259381E-2,-9.058957100E-1
9.838849437E0,-3.143913984E0,-5.260771513E-1,-8.968548775E-1
9.858849437E0,-3.039089441E0,-4.411319792E-1,-6.674313545E-1
9.878849437E0,-2.273221493E0,-3.728197813E-1,-1.133765876E-1
9.898849437E0,-1.209565520E0,-4.110948443E-1,4.509057999E-1
9.920847875E0,-2.050412744E-1,-5.576676130E-1,8.017519116E-1
9.940849437E0,1.963495463E-1,-7.526034117E-1,8.760505319E-1
9.960849437E0,-2.924822867E-1,-9.233489633E-1,4.171162248E-1
9.980849437E0,-9.098575711E-1,2.269277126E-1,-3.858748376E-1
1.000084944E1,-9.686751962E-1,1.437121511E0,-5.534788370E-1
1.002084944E1,-8.805011511E-1,4.768588543E-1,-5.609662533E-1
1.004084944E1,-5.850518346E-1,-1.359419465E0,-5.646489263E-1
1.006084944E1,-3.258529678E-2,-1.962919474E0,-4.638735950E-1
1.008084944E1,5.427799225E-1,-1.828424335E0,-4.893205166E-1
1.010084944E1,1.599908471E0,-6.003932357E-1,-2.728822231E-1
1.012084944E1,2.883423567E0,8.365362883E-1,4.732111096E-1
1.014084944E1,3.434999943E0,1.963669896E0,1.446511388E0
1.016084944E1,3.011408567E0,3.377351761E0,1.944977403E0
1.018084944E1,1.671868324E0,2.543817282E0,1.768280268E0
1.020084944E1,7.426027060E-1,-1.461015046E-1,1.007054925E0
1.022084944E1,7.378030419E-1,-1.018155217E0,7.540520430E-1
1.024084944E1,8.960345984E-1,-7.528826594E-1,8.622798920E-1
1.026284944E1,1.828162551E0,-1.807812005E-1,8.683012724E-1
1.028484944E1,3.048444510E0,1.669930965E-1,1.235047340E0
1.030685569E1,3.899606705E0,3.340909183E-1,1.756150246E0
1.032884944E1,3.920131683E0,4.662996233E-1,1.632074833E0
1.034884944E1,3.143215895E0,3.270048797E-1,1.099260688E0
1.036884944E1,2.032575607E0,2.416931987E-1,5.954539776E-1
1.038884944E1,1.258085728E0,-7.848745584E-2,-1.502902955E-1
1.040884944E1,6.750060916E-1,-5.254313946E-1,-9.954310656E-1
1.043084944E1,4.608018398E-1,-1.175252318E0,-1.532119870E0
1.045084944E1,1.035399079E0,-2.017618179E0,-7.619060278E-1
1.047284944E1,1.484332681E0,-1.343519568E0,9.085311294E-1
1.049284944E1,1.707909346E0,-1.416631341E0,1.254315734E0
1.051284944E1,1.974002242E0,-2.737339497E0,6.625095010E-1
1.053284944E1,1.033025503E0,-1.238468170E0,7.831292599E-2
1.055284944E1,-1.030582070E0,2.998824716E-1,-1.752136052E-1
1.057484944E1,-4.001551151E0,2.333993912E0,-6.642897725E-1
1.059484944E1,-5.354425907E0,2.218313456E0,-1.408690095E0
1.061484944E1,-5.671586990E0,1.924208045E0,-1.933789849E0
1.063485100E1,-4.721953392E0,8.691041470E-1,-1.958922625E0
1.065684944E1,-2.926096916E0,-5.729916096E-1,-1.651692390E0
1.067685569E1,-1.854412317E0,-2.360557765E-1,-1.146820903E0
1.069884944E1,-1.410802007E0,3.197094202E-1,-5.939355493E-1
1.071884944E1,-1.413332701E0,5.345768929E-1,-4.467868209E-1
1.073884944E1,-1.538612485E0,6.334323287E-1,-5.663593411E-1
1.075884944E1,-1.587813258E0,6.147398949E-1,-8.128696680E-1
1.077885100E1,-1.726479650E0,4.072900414E-1,-1.171936274E0
1.080085100E1,-2.287254095E0,-9.327039123E-2,-1.181378484E0
1.082285100E1,-2.584465981E0,-4.080928862E-1,-5.941973329E-1
1.084484944E1,-2.045299053E0,-2.774200737E-1,7.237880677E-2
1.086484944E1,-1.356906176E0,-5.274210572E-1,4.708898365E-1
1.088484944E1,-7.295476198E-1,-9.319708943E-1,6.373593211E-1
1.090484944E1,-2.165080905E-1,-9.585348368E-1,5.098804832E-1
1.092484944E1,-6.770132482E-2,-2.695660889E-1,1.372876018E-1
1.094484944E1,-1.952499896E-1,3.019070625E-1,-3.209311366E-1
1.096484944E1,-3.636917174E-1,1.503426582E-1,-6.586523652E-1
1.098484944E1,-7.653792500E-1,-1.200105786E0,-8.264657855E-1
1.100484944E1,-5.771279931E-1,-2.112686157E0,-6.791774035E-1
1.102484944E1,3.472158015E-1,-2.287009716E0,-9.734573960E-1
1.104484944E1,1.491907477E0,-1.701486588E0,-7.455697656E-1
1.106484944E1,3.248598814E0,1.083849464E-2,-2.884505689E-1
1.108684788E1,4.893379688E0,1.869300008E0,5.592907667E-1
1.110685100E1,4.641912460E0,3.153391123E0,1.766133547E0
1.112686194E1,2.752576113E0,3.572008371E0,2.237110615E0
1.114884788E1,7.238578796E-1,1.235064745E0,1.544389486E0
1.116884788E1,9.166469425E-2,-3.770434856E-1,8.175820112E-1
1.118885100E1,3.249977529E-1,2.205921561E-1,7.299315929E-1
1.121084944E1,9.944536686E-1,2.091777027E-1,9.998816848E-1
1.123085100E1,2.034530401E0,-5.580864549E-1,1.386314988E0
1.125284944E1,3.569530010E0,-2.099892855E0,1.799399495E0
1.127284944E1,3.891508341E0,-2.093697071E0,1.528384805E0
1.129284944E1,3.486347437E0,-7.800050974E-1,7.724303603E-1
1.131284944E1,2.675677061E0,9.223890305E-1,2.638937905E-2
1.133284944E1,1.863383293E0,1.729062796E0,-6.272538900E-1
1.135284944E1,1.217157722E0,1.968469620E0,-1.149875283E0
1.137284944E1,8.537626863E-1,1.326607347E0,-1.478328824E0
1.139284944E1,1.339575052E0,-1.221800327E0,-5.345943570E-1
1.141285725E1,2.395604134E0,-2.744093895E0,1.865687132E0
1.143484944E1,2.910423756E0,-2.173057079E0,2.030777931E0
1.145484944E1,2.730585098E0,-1.658673644E0,1.012605071E0
1.147484944E1,1.997895837E0,-6.566801071E-1,-8.616690338E-2
1.149485100E1,-2.265437394E-1,1.389386773E0,-5.694834590E-1
1.151684944E1,-2.707825899E0,3.463309288E0,-3.651752472E-1
1.153685256E1,-2.506013632E0,1.639649510E0,-1.517965198E0
1.155685725E1,-2.002346516E0,1.052991986E0,-2.626668215E0
1.157884944E1,-1.010999441E0,-2.858325839E-1,-2.115443707E0
1.159884944E1,-4.381125569E-1,-1.382178545E0,-1.130955935E0
1.161885412E1,-6.449689865E-1,-6.430839896E-1,-9.141685367E-1
1.164085100E1,-1.444958091E0,4.194724262E-1,-9.370672703E-1
1.166085100E1,-2.160176516E0,8.256279826E-1,-1.067582965E0
1.168284944E1,-2.735995531E0,1.167590380E0,-1.230736375E0
1.170284944E1,-2.928016663E0,1.174658895E0,-1.188569188E0
1.172284944E1,-2.986171007E0,1.774650812E-1,-1.014804244E0
1.174284944E1,-2.996625662E0,-1.669948459E0,-9.154426455E-1
1.176284944E1,-2.285561085E0,-3.237044811E0,-7.515213490E-1
1.178284944E1,-9.372417927E-1,-2.635097980E0,-2.270673402E-2
1.180284944E1,1.949183643E-1,4.857425690E-1,7.478561401E-1
1.182287288E1,6.503794789E-1,2.155446768E0,1.035207152E0
1.184484944E1,2.732312977E-1,1.247177362E0,7.411715388E-1
1.186484944E1,-9.084438682E-1,-8.245459199E-1,-1.030442417E-1
1.188684944E1,-1.875949740E0,-1.981245399E0,-7.025299072E-1
1.190685569E1,-1.993776917E0,-1.627676606E0,-3.297799528E-1
1.192884944E1,-2.225102901E0,-1.624517560E0,-5.335994959E-1
1.194884944E1,-2.277305603E0,-2.029940128E0,-3.536735177E-1
1.197084788E1,-1.543918252E0,-2.054496765E0,-3.532546386E-2
1.199084788E1,-1.773254573E-2,-1.540549755E0,4.825486243E-1
1.201084944E1,2.050220728E0,-1.648987085E-1,7.467390895E-1
1.203084944E1,3.419082642E0,1.019115210E0,1.092157245E0
1.205284788E1,3.619516134E0,1.838861465E0,1.480510473E0
1.207284788E1,3.004828691E0,1.989535689E0,1.625721812E0
1.209285100E1,2.180265188E0,8.600807786E-1,1.341774225E0
1.211285725E1,1.694226027E0,-3.788760602E-1,9.073966742E-1
1.213484944E1,1.346032858E0,-8.179834485E-1,6.893352270E-1
1.215686350E1,1.059449792E0,-5.891533494E-1,7.859566808E-1
1.217884788E1,1.089469433E0,-1.403768361E-1,9.468061924E-1
1.219885100E1,1.499080777E0,8.831365965E-3,9.277821183E-1
1.222085100E1,2.153352261E0,4.047593176E-1,6.950773597E-1
1.224085100E1,2.565145254E0,9.483595490E-1,3.865031600E-1
1.226284944E1,2.638204813E0,1.472307444E0,4.597197101E-2
1.228284944E1,2.269608736E0,1.481034040E0,-2.226167470E-1
1.230284944E1,1.722709775E0,1.001539707E0,-5.594652891E-1
1.232284944E1,1.266829729E0,-1.584060788E-1,-4.103268981E-1
1.234484788E1,1.352455616E0,-2.229536057E0,2.271022350E-1
1.236484944E1,1.883925796E0,-3.555549860E0,9.898285866E-1
1.238484944E1,2.881102324E0,-4.491692066E0,1.288977981E0
1.240484944E1,3.248057842E0,-2.873126030E0,6.097133160E-1
1.242484944E1,1.699461937E0,-2.454805523E-1,8.028514567E-4
1.244684944E1,-7.794291377E-1,1.666300774E0,-3.944793046E-1
1.246684944E1,-2.350208044E0,2.273518324E0,-1.015205622E0
1.248684944E1,-3.431195021E0,2.502749681E0,-1.883105516E0
1.250684944E1,-3.663655519E0,1.895654440E0,-2.106420517E0
1.252685100E1,-2.562614679E0,5.036845803E-1,-1.699793577E0
1.254884944E1,-1.662007213E0,-9.106953740E-1,-1.069572687E0
1.256884944E1,-1.570674181E0,-5.671447515E-1,-8.635889292E-1
1.258884944E1,-1.799259901E0,4.405385554E-1,-7.319911122E-1
1.260884944E1,-2.093400240E0,1.304668546E0,-5.908114314E-1
1.262885412E1,-2.484825134E0,1.762241483E0,-4.963192642E-1
1.265084944E1,-2.791165352E0,1.655217886E0,-4.368210137E-1
1.267084944E1,-2.831220627E0,1.130013466E0,-4.415159523E-1
1.269285100E1,-2.867959976E0,2.283065170E-1,-5.974785686E-1
1.271484944E1,-2.538197517E0,-4.975584745E-1,-4.669279456E-1
1.273484944E1,-1.713878393E0,-5.616644025E-1,1.733461022E-1
1.275484944E1,-7.161260247E-1,-5.477715731E-1,7.839146256E-1
1.277484944E1,1.178097259E-2,-8.022231460E-1,1.118738651E0
1.279484944E1,2.713986933E-1,-7.968125939E-1,8.833111525E-1
1.281685100E1,-3.273015916E-1,-7.809999585E-1,8.237954229E-3
1.283884944E1,-8.047364354E-1,-5.674763322E-1,-8.366061449E-1
1.285884944E1,-5.250124931E-1,-3.517885506E-1,-8.812516332E-1
1.287884944E1,-6.235363483E-1,-1.458781123E0,-7.488509417E-1
1.289884944E1,-4.922352135E-1,-1.722831964E0,-2.350434959E-1
1.291884944E1,7.131938934E-1,-4.140968025E-1,-2.622706294E-1
1.293884944E1,2.653214693E0,1.704087138E0,-1.151219159E-1
1.295884944E1,3.657407284E0,1.867554665E0,8.491899371E-1
1.297884944E1,3.668751955E0,1.448326588E0,1.582332969E0
1.299884944E1,2.368603706E0,1.201100707E0,1.949236035E0
1.301889788E1,8.551764488E-1,-6.075839996E-1,1.188394666E0
1.304084944E1,3.334451616E-1,-1.201711535E0,2.193355262E-1
1.306084944E1,3.456101120E-1,-1.011173964E0,1.490685642E-1
1.308084944E1,7.878066897E-1,-7.878241539E-1,2.921855748E-1
1.310084944E1,1.319643497E0,-5.279446244E-1,5.032656789E-1
1.312084944E1,1.956199884E0,-2.206968814E-1,7.089003921E-1
1.314084944E1,2.509870768E0,3.776019812E-1,8.617911935E-1
1.316084944E1,2.795319319E0,8.963487148E-1,9.888686538E-1
1.318284944E1,2.715243578E0,4.372922480E-1,8.230274320E-1
1.320484944E1,2.312770605E0,7.815584540E-2,4.330860078E-1
1.322484944E1,1.974700451E0,8.525933325E-2,3.921754658E-2
1.324484944E1,1.577480912E0,-3.101799190E-1,-3.502352238E-1
1.326685412E1,1.327846527E0,-1.579051733E0,-5.466720462E-1
1.328884944E1,1.604359031E0,-2.957722187E0,1.547932476E-1
1.330884944E1,2.230007172E0,-3.490588665E0,9.324770570E-1
1.332884944E1,2.552770853E0,-3.259018421E0,5.888741016E-1
1.334884944E1,1.812925816E0,-8.955982327E-1,3.055897057E-1
1.336884944E1,4.725129902E-1,4.903851449E-1,2.917667031E-1
1.338885256E1,-1.638061285E0,1.014245749E0,5.398303270E-2
1.341084944E1,-3.879360676E0,1.812070608E0,-3.133389652E-1
1.343084944E1,-4.961709023E0,2.004126549E0,-1.148426652E0
1.345084944E1,-4.780334473E0,2.326331854E0,-2.105827093E0
1.347084944E1,-3.345534325E0,2.242783070E0,-2.389791965E0
1.349084944E1,-2.037113428E0,-7.197737694E-2,-1.611445069E0
1.351084944E1,-1.485536933E0,-7.274532318E-1,-1.020965219E0
1.353084944E1,-1.291020036E0,-5.700245500E-2,-7.039436698E-1
1.355084944E1,-1.394186497E0,5.260771513E-1,-5.630432367E-1
1.357084944E1,-1.681101084E0,7.754672170E-1,-5.957157612E-1
1.359084944E1,-2.312456608E0,7.686953545E-1,-8.249124289E-1
1.361284944E1,-3.522109270E0,3.731164932E-1,-1.082453251E0
1.363484944E1,-4.135034084E0,4.691619575E-1,-1.093728065E0
1.365484944E1,-3.563892603E0,9.501223564E-1,-5.498834252E-1
1.367684944E1,-2.157523632E0,9.079203010E-1,2.200162113E-1
1.369685100E1,-8.332201838E-1,4.795641303E-1,6.229952574E-1
1.371685413E1,-3.221877664E-2,-1.389456540E-1,8.680569530E-1
1.373689319E1,1.856332123E-1,-8.203745484E-1,9.108873606E-1
1.375884944E1,2.166826278E-1,-1.269447803E0,3.981619477E-1
1.377884944E1,3.236538470E-1,-8.668177724E-1,-1.637817025E-1
1.379884944E1,2.665466964E-1,4.597546160E-1,-5.788035393E-1
1.381884944E1,-4.859171212E-1,9.544158578E-1,-7.064743638E-1
1.383884944E1,-1.378251553E0,-9.131562710E-1,-8.239175677E-1
1.385884944E1,-1.532957554E0,-2.224648952E0,-6.410419941E-1
1.387884944E1,-8.418944478E-1,-2.362704515E0,-1.880068630E-1
1.389884944E1,1.400399804E0,-5.433209985E-2,1.012290921E-2
1.391884944E1,3.358711720E0,1.537320852E0,8.548448086E-1
1.393884944E1,3.529596806E0,2.314463615E0,1.831461191E0
1.395884944E1,1.871551514E0,2.669428825E0,2.152252674E0
1.397884944E1,2.104343474E-1,5.140169263E-1,1.312016368E0
1.399884944E1,-3.311413229E-1,-1.127377987E0,6.344097257E-1
1.402084944E1,-4.780456796E-2,-1.485746384E0,6.287897825E-1
1.404084944E1,6.747966409E-1,-9.133133292E-1,6.963514686E-1
1.406084944E1,1.592386007E0,-8.183848858E-2,8.733278513E-1
1.408084944E1,2.361273289E0,6.890385151E-1,1.014839172E0
1.410084944E1,2.739381552E0,8.502545953E-1,1.071195841E0
1.412084944E1,2.696830273E0,6.549348235E-1,8.061501384E-1
1.414084944E1,2.399391413E0,4.523544312E-1,3.249803185E-1
1.416084944E1,2.036572218E0,6.289643049E-1,-5.588544160E-2
1.418084944E1,1.605126977E0,4.780456722E-1,-4.501727819E-1
1.420084944E1,1.213352919E0,-3.253991902E-1,-8.049284220E-1
1.422084944E1,1.359681249E0,-2.287655354E0,-4.570144713E-1
1.424084944E1,2.676584482E0,-5.047300339E0,1.737195969E0
1.426084944E1,2.725366592E0,-3.807313681E0,1.964333177E0
1.428084944E1,1.934575319E0,-2.131047010E0,1.135598421E0
1.430084944E1,3.718598485E-1,2.176425606E-2,5.941100791E-2
1.432085256E1,-1.008730531E0,4.349185824E-1,-3.657512069E-1
1.434284944E1,-2.596351862E0,6.691592187E-2,-8.377580345E-2
1.436484944E1,-4.332552910E0,1.297215939E0,-1.393470913E-1
1.438684944E1,-4.949823380E0,2.571794987E0,-1.181448221E0
1.440684944E1,-4.432124138E0,3.805376291E0,-2.195798635E0
1.442684944E1,-2.724912643E0,2.883981943E0,-2.421836376E0
1.444685100E1,-1.256916285E0,-4.314802885E-1,-1.508906960E0
1.446884944E1,-9.214116931E-1,-1.243372560E0,-8.997521400E-1
1.448884944E1,-1.038558125E0,-6.242344379E-1,-7.813839316E-1
1.450884944E1,-1.204957843E0,-2.503849268E-1,-8.059756160E-1
1.452884944E1,-1.390660882E0,1.558579039E-2,-7.328463197E-1
1.454884944E1,-1.929583669E0,4.673817158E-1,-5.817531347E-1
1.456884944E1,-2.844206095E0,6.051580310E-1,-7.314674854E-1
1.458884944E1,-3.677304029E0,4.766668677E-1,-9.284104109E-1
1.460884944E1,-3.615554333E0,6.347064376E-1,-8.156272769E-1
1.462884944E1,-2.620821238E0,4.110948443E-1,-3.745476604E-1
1.464884944E1,-1.276219606E0,-2.056870461E-1,7.853981853E-2
1.466884944E1,-1.933475733E-1,-6.944316030E-1,4.269599020E-1
1.468884944E1,3.638487756E-1,-1.182111502E0,7.122862935E-1
1.470884944E1,-1.668534726E-1,-1.789503574E0,4.010592103E-1
1.472884944E1,-1.028016329E0,-4.206941724E-1,-4.206767082E-1
1.474884944E1,-1.301125526E0,1.366348505E0,-7.087258697E-1
1.476884944E1,-1.155320644E0,-1.371828746E-2,-7.680670619E-1
1.478884944E1,-1.150206923E0,-2.061809778E0,-9.145001769E-1
1.480884944E1,-6.905918717E-1,-2.593087912E0,-7.267725468E-1
1.482884944E1,7.050781250E-1,-1.555716634E0,-3.027797043E-1
1.484884944E1,3.059579611E0,6.558248997E-1,2.869321406E-1
1.486884944E1,5.011503696E0,2.235312939E0,1.069433093E0
1.488884944E1,4.944290638E0,2.724755764E0,2.038474798E0
1.490884944E1,3.145118237E0,2.140314817E0,2.118358374E0
1.492884944E1,1.433735609E0,-2.286381321E-3,1.262658477E0
1.494884944E1,9.097005129E-1,-5.827654600E-1,5.100026727E-1
1.496884944E1,9.801769257E-1,8.098327555E-3,4.319340885E-1
1.498884944E1,1.411081195E0,-6.075491011E-2,6.461557746E-1
1.500884944E1,1.859578490E0,-5.315575004E-1,9.006248116E-1
1.502884944E1,2.430144072E0,-1.092750669E0,1.088334918E0
1.504884944E1,2.787570000E0,-1.478782535E0,1.054877043E0
1.506884944E1,2.531704903E0,-7.651523352E-1,6.077411175E-1
1.508884944E1,1.996569395E0,2.588323355E-1,6.653194875E-2
1.510884944E1,1.402616382E0,8.977450132E-1,-4.155279994E-1
1.512884944E1,9.860411882E-1,7.925016284E-1,-8.754397035E-1
1.514884944E1,6.752504110E-1,1.009498462E-1,-1.005414367E0
1.516884944E1,7.036294937E-1,-1.295697570E0,-2.433163524E-1
1.518884944E1,1.207855105E0,-1.873366594E0,8.812341690E-1
1.520884944E1,1.583833933E0,-1.597098470E0,1.029674411E0
1.522884944E1,1.698414803E0,-1.806921959E0,7.286574841E-1
1.524884944E1,1.493164062E0,-1.248922706E0,2.452885658E-1
1.526884944E1,-2.523746155E-2,-6.358932853E-1,1.986184716E-1
1.528884944E1,-2.646861553E0,1.499237776E0,1.580046564E-1
1.530884944E1,-4.376901627E0,2.457161665E0,-6.080552340E-1
1.532884944E1,-4.461916924E0,1.984526634E0,-1.642651558E0
1.534884944E1,-3.284447908E0,1.077758312E0,-1.844638467E0
1.536884944E1,-1.696442604E0,-7.170336246E-1,-1.358616590E0
1.538884944E1,-9.756390452E-1,-9.605419636E-1,-9.092642069E-1
1.540884944E1,-7.398450971E-1,-2.020218670E-1,-5.863084793E-1
1.542884944E1,-8.090124726E-1,3.991393447E-1,-4.238008559E-1
1.544884944E1,-1.202723861E0,6.840817928E-1,-4.639434218E-1
1.546884944E1,-1.676318884E0,7.953814268E-1,-4.864407182E-1
1.548884944E1,-2.207003832E0,8.342499137E-1,-5.121843219E-1
1.550884944E1,-2.748038292E0,7.645763755E-1,-6.448118687E-1
1.552884944E1,-2.974023581E0,6.362946630E-1,-4.901582599E-1
1.554884944E1,-2.446532726E0,6.730512977E-1,-9.738937020E-2
1.556884944E1,-1.519047260E0,4.405385554E-1,2.860594690E-1
1.559084944E1,-5.792224407E-1,9.169960022E-2,5.492725372E-1
1.561084944E1,-1.621061862E-1,-4.329114556E-1,5.671447515E-1
1.563084944E1,-3.896971047E-1,-9.046390653E-1,-7.845254987E-2
1.565084944E1,-8.474969864E-1,-6.952344775E-1,-1.036132216E0
1.567084944E1,-1.112490296E0,-3.584731817E-1,-1.316920757E0
1.569084944E1,-1.728731155E0,-1.441659451E0,-1.053515673E0
1.571084944E1,-1.697070837E0,-1.784354806E0,-8.749684691E-1
1.573084944E1,-7.166671157E-1,-1.712761402E0,-3.487516940E-1
1.575084944E1,1.349156976E0,-5.305801034E-1,2.435257882E-1
1.577084944E1,3.716765881E0,8.841838241E-1,9.500699639E-1
1.579285100E1,4.987749577E0,2.650317430E0,1.849909425E0
1.581285100E1,3.991794825E0,2.753605843E0,2.286608219E0
1.583484944E1,1.955222487E0,5.191481709E-1,1.757563949E0
1.585485100E1,1.162912846E0,-4.710119963E-1,8.696277738E-1
1.587685569E1,1.248067498E0,2.081828713E-1,4.288623035E-1
1.589884944E1,1.608861923E0,5.054473281E-1,6.319139004E-1
1.591884944E1,1.963285923E0,-1.113869101E-1,1.185741782E0
1.593884944E1,2.872427940E0,-1.442811370E0,1.761752844E0
1.595884944E1,3.591451168E0,-2.373176575E0,1.613103151E0
1.597884944E1,3.222750425E0,-1.774144650E0,9.833359718E-1
1.599884944E1,2.237878561E0,-2.600540593E-2,2.225818336E-1
1.601885412E1,1.338126421E0,1.186247945E0,-5.130046010E-1
1.604084944E1,7.927285433E-1,1.195236325E0,-1.193333983E0
1.606084944E1,4.843463302E-1,5.601809025E-1,-1.499534488E0
1.608084944E1,2.435781509E-1,-3.463954926E-1,-8.909905553E-1
1.610084944E1,3.120125234E-1,-7.851538062E-1,2.810329199E-1
1.612084944E1,2.750813365E-1,-2.613630593E-1,5.381199121E-1
1.614084944E1,3.754552305E-1,-9.595122337E-1,4.797910154E-1
1.616084944E1,9.439613223E-1,-2.221908808E0,9.702285379E-2
1.618084944E1,1.324041724E0,-1.678203940E0,2.236464918E-1
1.620084944E1,3.345970809E-1,-2.200162113E-1,1.688431501E-1
1.622084944E1,-2.092056274E0,2.575442791E0,1.137431040E-1
1.624085725E1,-3.502125263E0,3.025598049E0,-6.736097932E-1
1.626284944E1,-3.173095942E0,1.515870810E0,-1.843486547E0
1.628284944E1,-1.775488496E0,7.766715437E-2,-1.865896583E0
1.630284944E1,-7.997971177E-1,-1.222690344E0,-1.070113778E0
1.632284944E1,-6.769259572E-1,-6.942046881E-1,-8.094837070E-1
1.634284944E1,-1.153540492E0,-8.466592431E-2,-8.426100612E-1
1.636484944E1,-2.089071751E0,3.958057761E-1,-9.827076197E-1
1.638684944E1,-2.677055836E0,7.450112700E-1,-9.888861179E-1
1.640684944E1,-3.079476357E0,8.097454906E-1,-1.069886804E0
1.642685256E1,-3.518461704E0,1.204626262E-1,-1.141340613E0
1.644884944E1,-3.600736380E0,-6.295577288E-1,-9.229824543E-1
1.646884944E1,-2.858290911E0,-4.783598483E-1,-4.040786326E-1
1.648884944E1,-1.689513564E0,2.661452591E-1,3.339687586E-1
1.650884944E1,-5.475795865E-1,6.570292115E-1,9.260193110E-1
1.652884944E1,3.259402514E-1,4.902280867E-1,1.334356546E0
1.654884944E1,6.535559893E-1,1.178620830E-1,1.420226812E0
1.656884944E1,-4.932300374E-2,-1.063271999E0,5.574756265E-1
1.658884944E1,-1.162144899E0,-2.373106718E0,-9.747140408E-1
1.660884944E1,-1.251575589E0,-1.536971807E0,-1.222603083E0
1.662885100E1,-9.083042741E-1,-1.213352904E-1,-4.963367283E-1
1.665084944E1,-6.714456081E-1,-3.752457909E-3,-1.186998412E-1
1.667084944E1,-1.373574138E-1,-6.191206574E-1,-3.347541392E-2
1.669285100E1,6.384065151E-1,-9.974556565E-1,-2.233323306E-1
1.671484944E1,1.955222487E0,2.604554892E-1,-3.103195317E-2
1.673484944E1,3.010885000E0,1.431361914E0,7.891331911E-1
1.675484944E1,3.243310452E0,2.417577744E0,1.613330007E0
1.677484944E1,2.539087534E0,2.584640741E0,2.039888382E0
1.679484944E1,1.727614164E0,8.693485260E-1,1.531718373E0
1.681684944E1,1.585265160E0,-5.735675693E-1,7.336491346E-1
1.683685725E1,1.989518285E0,-3.113492727E-1,6.690719724E-1
1.685884944E1,2.550693989E0,-1.098161191E-1,1.023199320E0
1.687884944E1,3.166097164E0,-4.384267032E-1,1.418621063E0
1.689884944E1,3.550139427E0,-8.589987159E-1,1.719271421E0
1.691884944E1,3.239139080E0,-5.767091513E-1,1.392580748E0
1.693884944E1,2.609598875E0,-1.235344037E-1,6.414434314E-1
1.695884944E1,1.840833664E0,2.769837379E-1,5.372123420E-2
1.697884944E1,9.949249625E-1,3.194301724E-1,-2.815216184E-1
1.699884944E1,2.804045975E-1,1.213178337E-1,-6.014928222E-1
1.701884944E1,-1.719149351E-1,-3.129724264E-1,-8.699942827E-1
1.703884944E1,1.519832760E-1,-1.596749425E0,-8.886169195E-1
1.705884944E1,1.099784374E0,-3.041742325E0,2.278352827E-1
1.707884944E1,1.581390500E0,-1.739988565E0,1.158182979E0
1.709884944E1,2.147383213E0,-1.145407200E0,1.118703723E0
1.711885881E1,2.431819677E0,-1.818336368E0,5.879665017E-1
1.714085569E1,1.486147881E0,-1.203648806E0,4.771032035E-1
1.716284944E1,-1.049763203E0,7.597243786E-1,9.562659264E-2
1.718284944E1,-4.283229828E0,3.639273167E0,-4.344997108E-1
1.720284944E1,-5.100008965E0,3.906378508E0,-1.660802960E0
1.722284944E1,-4.369327068E0,3.370527506E0,-2.833437204E0
1.724287756E1,-2.812441111E0,6.825633645E-1,-2.709030151E0
1.726484788E1,-1.369385362E0,-1.831094742E0,-1.387379646E0
1.728484944E1,-8.632747531E-1,-1.029691935E0,-6.379876733E-1
1.730484944E1,-9.224937558E-1,-8.754571527E-2,-4.642924964E-1
1.732484944E1,-1.271210551E0,3.997851312E-1,-5.523443222E-1
1.734684944E1,-1.649021983E0,5.894500613E-1,-5.901481509E-1
1.736684944E1,-1.855023146E0,6.381796598E-1,-6.805038452E-1
1.738684944E1,-2.271964788E0,1.857204884E-1,-7.844556570E-1
1.740685100E1,-2.841937065E0,-3.945840299E-1,-6.609562039E-1
1.742884944E1,-2.880020142E0,-8.712683618E-2,-3.452261388E-1
1.745084944E1,-2.205956459E0,5.757142901E-1,1.006007791E-1
1.747284944E1,-1.278610706E0,3.919136822E-1,4.624075294E-1
1.749284944E1,-5.410346389E-1,-3.387334943E-1,5.072973967E-1
1.751284944E1,-1.632580906E-1,-1.143277884E0,3.759264648E-1
1.753284944E1,-4.029267132E-1,-2.414191723E0,-1.535889804E-1
1.755284944E1,-7.006275058E-1,-2.698994637E0,-8.883202076E-1
1.757484944E1,-9.285675287E-1,-8.497484326E-1,-6.453180313E-1
1.759484944E1,-1.485816240E0,7.743502259E-1,-1.876752526E-1
1.761484944E1,-1.531369328E0,1.711120754E-1,-5.579468608E-1
1.763484944E1,-5.528679490E-1,-1.281525493E0,-6.425254941E-1
1.765484944E1,8.056614399E-1,-1.834253788E0,-5.592209697E-1
1.767684944E1,2.982331276E0,-1.341460049E-1,-8.819148690E-2
1.769685412E1,4.179260731E0,1.127779365E0,8.935562372E-1
1.771885412E1,3.940482140E0,2.642219067E0,1.807462931E0
1.774084944E1,2.357084513E0,3.301534653E0,1.991595149E0
1.776084944E1,8.610931039E-1,1.086659431E0,1.327375293E0
1.778084944E1,3.411071599E-1,-6.761056185E-1,6.411292553E-1
1.780084944E1,4.813618064E-1,-6.483374834E-1,5.579991937E-1
1.782085256E1,1.343345046E0,-7.105235010E-2,6.924594045E-1
1.784284944E1,2.642917156E0,-9.234537184E-2,1.110046864E0
1.786484944E1,3.545025587E0,-1.188045591E-1,1.534126997E0
1.788684944E1,3.616706133E0,-3.679154068E-2,1.374883056E0
1.790685413E1,3.013188839E0,1.582664549E-1,9.360898733E-1
1.792685569E1,2.304026604E0,2.617121339E-1,4.159817696E-1
1.794884788E1,1.624447703E0,5.054822564E-1,-1.496794373E-1
1.796884944E1,1.140677333E0,2.882760167E-1,-6.592457891E-1
1.798884944E1,7.572808862E-1,-1.495223492E-1,-1.021977544E0
1.800884944E1,6.223844290E-1,-8.950572014E-1,-8.774293661E-1
1.802884944E1,1.001853943E0,-1.496864200E0,1.230108067E-1
1.804884944E1,1.580360770E0,-1.691642880E0,1.177695870E0
1.806884944E1,2.377260685E0,-2.144206762E0,1.277441382E0
1.808884944E1,2.725261688E0,-2.658293486E0,7.835481167E-1
1.810884944E1,1.768978477E0,-8.697673678E-1,5.867273211E-1
1.812884944E1,-5.172981620E-1,5.354670286E-1,5.418549180E-1
1.814884944E1,-3.809512615E0,2.634504795E0,1.771334708E-1
1.816884944E1,-5.154009819E0,2.356875181E0,-1.095927119E0
1.819084944E1,-4.538379669E0,1.438151240E0,-2.234248400E0
1.821084944E1,-3.636410952E0,9.152331948E-1,-2.512977362E0
1.823084944E1,-2.321392536E0,-3.122917712E-1,-2.052192926E0
1.825084944E1,-1.020773292E0,-8.130616546E-1,-1.268784523E0
1.827084944E1,-4.733681977E-1,-3.037222028E-1,-7.020238042E-1
1.829084944E1,-4.404687285E-1,4.764399827E-1,-4.138873816E-1
1.831084944E1,-8.645662665E-1,1.072120905E0,-3.092723489E-1
1.833084944E1,-1.444067955E0,1.205743313E0,-4.273264110E-1
1.835084944E1,-2.146859646E0,1.006112456E0,-6.421066523E-1
1.837084944E1,-2.828794718E0,5.241922140E-1,-8.759458661E-1
1.839284944E1,-3.382692337E0,-3.213674724E-1,-9.931098223E-1
1.841284944E1,-3.064990044E0,-3.794345856E-1,-7.149392366E-1
1.843284944E1,-2.208365202E0,-3.823841810E-1,-8.271115273E-2
1.845284944E1,-1.163890243E0,-4.521973431E-1,4.694237411E-1
1.847284944E1,-2.337519526E-1,-7.450810671E-1,7.572285533E-1
1.849285256E1,3.697479963E-1,-1.136802793E0,8.309163451E-1
1.851484944E1,-6.784094870E-2,-1.402616382E0,3.862413764E-1
1.853686975E1,-1.089609027E0,-4.277976453E-1,-5.822418332E-1
1.855884944E1,-1.250319004E0,7.696378231E-1,-8.670970201E-1
1.857884944E1,-1.025904536E0,-1.714611501E-1,-8.746717572E-1
1.859884944E1,-6.725975275E-1,-2.011806011E0,-7.122339606E-1
1.861885413E1,-9.162978269E-3,-2.437579155E0,-6.092944145E-1
1.864084944E1,1.277668238E0,-1.264717937E0,-3.310016990E-1
1.866084944E1,3.067189217E0,7.882255912E-1,1.280548126E-1
1.868084944E1,3.920306206E0,1.808963895E0,1.039011955E0
1.870084944E1,3.694373369E0,3.405468941E0,1.930857778E0
1.872084944E1,2.243725538E0,4.155576706E0,2.171695709E0
1.874084944E1,9.009563923E-1,1.320446253E0,1.460753322E0
1.876085100E1,4.300491214E-1,-1.278890014E0,9.099448323E-1
1.878284944E1,4.663519859E-1,-1.265049577E0,7.502821088E-1
1.880284944E1,1.237141728E0,-5.370377898E-1,6.762627363E-1
1.882287131E1,2.296748638E0,-1.387362182E-1,8.035845160E-1
1.884484944E1,2.758667469E0,2.814866900E-1,1.169388056E0
1.886484944E1,2.889340162E0,-3.104940802E-2,9.208706021E-1
1.888484944E1,2.622514248E0,-5.024803057E-2,5.518905520E-1
1.890484944E1,2.121028900E0,3.741113245E-1,1.758070141E-1
1.892484944E1,1.647294044E0,6.399773359E-1,-2.559001744E-1
1.894484944E1,1.208710313E0,5.719618201E-1,-6.376909614E-1
1.896685725E1,7.421838045E-1,-3.733259439E-2,-8.642521501E-1
1.898884944E1,6.953915358E-1,-1.175025463E0,-5.301961303E-1
1.900884944E1,1.442916036E0,-2.374031782E0,8.693833947E-1
1.902885100E1,2.475260735E0,-3.373075724E0,1.838110924E0
1.905084944E1,3.376723289E0,-3.749298811E0,1.449478507E0
1.907085100E1,2.832564592E0,-2.225992918E0,1.341809183E-1
1.909085100E1,1.078002572E0,-6.422811747E-2,2.672622800E-1
1.911284944E1,-2.110347509E0,1.407154202E0,3.621732593E-1
1.913284944E1,-4.335659504E0,2.122983694E0,-1.041612476E-1
1.915284944E1,-5.055468559E0,1.798841000E0,-1.042293191E0
1.917484944E1,-4.802744865E0,2.651643753E0,-2.102214098E0
1.919685412E1,-3.725160837E0,2.549960852E0,-2.669341564E0
1.921685412E1,-2.254895687E0,1.041088924E-1,-1.892966628E0
1.923686194E1,-1.184973836E0,-1.206319213E0,-8.605869412E-1
1.925884944E1,-8.204792738E-1,-4.019667804E-1,-5.626243353E-1
1.927889006E1,-8.980067968E-1,3.593807518E-1,-5.838999152E-1
1.930084944E1,-1.047546625E0,6.308317780E-1,-6.307619810E-1
1.932084944E1,-1.634396076E0,8.246855140E-1,-6.618114114E-1
1.934085100E1,-2.630682468E0,6.368706226E-1,-9.573654532E-1
1.936284788E1,-3.432347059E0,1.729621291E-1,-1.071806669E0
1.938284944E1,-3.197024345E0,1.792278588E-1,-7.369652987E-1
1.940286662E1,-2.389006615E0,1.085245758E-1,-3.988077492E-2
1.942484944E1,-1.281525493E0,-1.281944364E-1,5.286602378E-1
1.944685100E1,-3.716329634E-1,-6.499606371E-1,7.809475660E-1
1.946884944E1,1.660680771E-1,-1.121286750E0,7.834608555E-1
1.948884944E1,-3.292738199E-1,-2.152863741E0,4.909611121E-2
1.950884944E1,-1.205708385E0,-1.723809361E0,-1.011104107E0
1.952884944E1,-1.774196982E0,4.048640132E-1,-1.164588451E0
1.954884944E1,-2.015314341E0,5.349783301E-1,-9.409593344E-1
1.956884944E1,-1.419144630E0,-1.397467732E0,-7.175746560E-1
1.958884944E1,-4.178143740E-1,-2.866738081E0,-8.312130570E-1
1.960884944E1,1.344130397E0,-1.891099095E0,-7.146773934E-1
1.962884944E1,3.476119995E0,9.618509561E-2,-2.021091245E-2
1.964884944E1,4.716124058E0,1.505905032E0,1.008538485E0
1.966884944E1,4.629957199E0,3.265580893E0,2.056835651E0
1.968884944E1,3.072233200E0,4.329813004E0,2.336925983E0
1.970884944E1,1.255450249E0,1.445900559E0,1.563727736E0
1.972884944E1,5.206665993E-1,-1.227018833E0,6.549522281E-1
1.974884944E1,1.276882887E-1,-1.556344986E0,4.337317646E-1
1.976884944E1,2.544515431E-1,-1.027353168E0,2.740865052E-1
1.978884944E1,1.263094783E0,-1.834864616E-1,1.940457076E-1
1.980884944E1,2.620280266E0,2.853089571E-1,7.456918955E-1
1.982884944E1,3.569233179E0,5.166872740E-1,1.507946968E0
1.984884944E1,3.583719492E0,9.685180783E-1,1.664607763E0
1.986884944E1,2.792439461E0,9.016370773E-1,1.094234228E0
1.988884944E1,1.872267008E0,4.227361977E-1,2.797413766E-1
1.990884944E1,1.383278131E0,2.039940804E-1,-3.570245504E-1
1.992884944E1,1.122124553E0,-3.456799090E-1,-8.543212414E-1
1.995084944E1,9.850812554E-1,-1.296064019E0,-9.378526807E-1
1.997084944E1,1.422565460E0,-2.296225071E0,-1.403768361E-1
1.999084944E1,2.186897516E0,-2.421434879E0,1.135057449E0
2.001084944E1,2.913390875E0,-2.194646835E0,1.595841765E0
2.003084944E1,3.034062862E0,-2.200441360E0,1.212375522E0
2.005084944E1,1.828092813E0,-8.124158382E-1,9.507855773E-1
2.007284944E1,-5.127602816E-1,-3.540051281E-1,8.850739002E-1
2.009284944E1,-4.016997337E0,1.444713712E0,5.176472068E-1
2.011284944E1,-5.819747925E0,2.073887587E0,-5.596223474E-1
2.013284944E1,-5.553340912E0,2.451192856E0,-1.788927555E0
2.015284944E1,-4.279913902E0,3.697410107E0,-2.791392326E0
2.017484944E1,-2.398763180E0,2.379232883E0,-2.687422991E0
2.019484944E1,-1.454016328E0,-1.148810625E0,-1.245432019E0
2.021484944E1,-8.797506690E-1,-8.685107231E-1,-6.410245299E-1
2.023484944E1,-6.765419841E-1,-1.893333197E-1,-5.550845265E-1
2.025484944E1,-9.275203347E-1,6.508332491E-2,-6.147224307E-1
2.027690412E1,-1.393942118E0,5.323254038E-3,-7.394436598E-1
2.029884944E1,-2.211070299E0,-3.772005439E-1,-1.040739775E0
2.031885569E1,-3.076317310E0,-7.198261619E-1,-1.202880859E0
2.034084944E1,-3.440061331E0,-3.487865925E-1,-9.210975170E-1
2.036084944E1,-3.020501614E0,8.425053358E-1,-4.191233516E-1
2.038084944E1,-2.161084175E0,1.885304689E0,2.996730208E-1
2.040084944E1,-1.041315794E0,1.836121321E0,8.410741687E-1
2.042084944E1,-2.944719493E-1,8.716174364E-1,1.217559099E0
2.044084944E1,-1.708677411E-2,-6.534512341E-2,1.162598729E0
2.046084944E1,-1.450019479E-1,-6.993883252E-1,5.251695514E-1
2.048284944E1,-5.784021020E-1,-1.280251384E0,-6.798406243E-1
2.050484944E1,-1.252640247E0,-1.894153476E0,-1.429616690E0
2.052484944E1,-2.321095943E0,-1.479026914E0,-1.186579585E0
2.054484944E1,-2.516695023E0,-3.375466764E-1,-6.954089999E-1
2.056484944E1,-1.272397399E0,-8.634318113E-1,-7.762176991E-1
2.058484944E1,1.032711342E-1,-1.858269453E0,-7.359879017E-1
2.060484944E1,2.224073172E0,-5.043303370E-1,-1.768193096E-1
2.062685100E1,4.185421467E0,1.274736166E0,8.744273782E-1
2.064686194E1,4.481778622E0,2.219011545E0,1.892443061E0
2.066884944E1,3.260449648E0,2.800886869E0,2.569089651E0
2.068884944E1,1.441048503E0,1.663333654E0,1.976463199E0
2.070884944E1,2.375567704E-1,-4.661076367E-1,7.420790792E-1
2.073084944E1,-1.617920250E-1,-1.355056167E0,4.316548407E-1
2.075284944E1,-1.094321460E-1,-1.495310783E0,5.441412926E-1
2.077284944E1,8.816007376E-1,-8.816007376E-1,4.490732253E-1
2.079285412E1,1.983392119E0,-1.590518504E-1,5.513145924E-1
2.081484944E1,2.878623962E0,1.107079744E0,8.927882910E-1
2.083484944E1,3.234758377E0,1.523166299E0,1.049710870E0
2.085484944E1,2.956709862E0,1.026864409E0,9.509426355E-1
2.087484944E1,2.221297979E0,4.095065892E-1,5.181009769E-1
2.089684944E1,1.343851209E0,6.435029209E-2,-3.930481523E-2
2.091686194E1,8.307592869E-1,-3.680550456E-1,-6.653195024E-1
2.093884944E1,8.935736418E-1,-2.015680790E0,-1.120640993E0
2.095884944E1,2.103017092E0,-4.830076694E0,2.797762863E-2
2.098084788E1,3.026208878E0,-4.315256596E0,1.259586692E0
2.100084944E1,2.750656366E0,-1.728923202E0,1.128721833E0
2.102084944E1,1.710056186E0,-2.119876891E-1,4.837180078E-1
2.104084944E1,3.649832606E-1,6.409023404E-1,2.635272741E-1
2.106084944E1,-1.762084365E0,1.302731156E0,1.410400569E-1
2.108084944E1,-4.363480091E0,3.435488701E0,4.398229532E-3
2.110084944E1,-5.343028545E0,3.446239948E0,-1.049309373E0
2.112285881E1,-4.491116047E0,2.471456051E0,-2.216236591E0
2.114484944E1,-2.736170053E0,3.887022734E-1,-2.275333405E0
2.116484944E1,-1.383609772E0,-1.103327394E0,-1.472377181E0
2.118484944E1,-4.542917609E-1,-4.383219779E-1,-8.827700615E-1
2.120686350E1,-1.738696992E-1,1.649685204E-1,-4.114788175E-1
2.122884944E1,-5.178042650E-1,4.145680666E-1,-3.174928427E-1
2.124884944E1,-1.011348486E0,5.003335476E-1,-4.132590592E-1
2.126885100E1,-1.664782286E0,4.577474892E-1,-5.455549955E-1
2.129084944E1,-2.512104750E0,2.897421122E-1,-7.902501822E-1
2.131084944E1,-3.005805969E0,2.811550796E-1,-7.886793613E-1
2.133084944E1,-2.883702755E0,5.717349648E-1,-4.840147197E-1
2.135084944E1,-2.269853115E0,6.962990761E-1,-3.752457909E-3
2.137084944E1,-1.481295824E0,4.290019274E-1,4.563861489E-1
2.139084944E1,-8.030434251E-1,2.645919099E-2,8.224864006E-1
2.141084944E1,-2.939134538E-1,-2.938785255E-1,9.652369022E-1
2.143084944E1,-2.274862081E-1,-1.069380641E0,5.992937088E-1
2.145084944E1,-8.633096814E-1,-2.578828573E0,-7.012732625E-1
2.147084944E1,-1.500197768E0,-3.102427483E0,-1.680001616E0
2.149084944E1,-1.846244216E0,-9.770702124E-1,-1.163645864E0
2.151084944E1,-1.648079515E0,6.261892319E-1,-3.495196402E-1
2.153084944E1,-6.790203452E-1,3.337069601E-2,-1.225570217E-1
2.155084944E1,5.856451988E-1,-1.250022292E0,-2.018822283E-1
2.157084944E1,2.458872318E0,-7.707374096E-1,-3.898890913E-1
2.159084944E1,3.907687426E0,1.344078034E-1,1.105666086E-1
2.161084944E1,4.352728844E0,1.325071454E0,1.079189420E0
2.163084944E1,3.646306992E0,3.200375319E0,2.098304749E0
2.165084944E1,1.871691108E0,3.451179028E0,2.103156567E0
2.167084944E1,5.638984442E-1,8.737467527E-1,1.026951671E0
2.169084944E1,4.217413664E-1,-6.275331378E-1,3.802897930E-1
2.171285569E1,7.016572356E-1,-9.647656679E-1,5.609662533E-1
2.173484788E1,1.987214446E0,-7.031757236E-1,7.228106260E-1
2.175484944E1,3.213238478E0,-1.661728024E-1,1.166665316E0
2.177484944E1,3.722106695E0,6.176894903E-1,1.602718353E0
2.179484944E1,3.750834703E0,7.749959826E-1,1.539118648E0
2.181484944E1,3.464373827E0,4.424235225E-1,9.841911793E-1
2.183484944E1,2.896356344E0,5.200732350E-1,5.320810676E-1
2.185484944E1,2.341446400E0,3.378957510E-1,1.080358773E-2
2.187484944E1,1.838582158E0,-3.332008123E-1,-5.623276234E-1
2.189684944E1,1.453754544E0,-1.250319004E0,-9.370498061E-1
2.191685100E1,1.625896335E0,-2.087553501E0,-2.983116806E-1
2.193884944E1,2.005610228E0,-2.074323893E0,1.137937188E0
2.195884944E1,2.230653048E0,-1.842352152E0,1.447000146E0
2.197884944E1,2.273291349E0,-2.589492559E0,9.822014570E-1
2.199884944E1,1.302102923E0,-1.865530014E0,3.648785353E-1
2.201884944E1,-7.406129837E-1,-3.651577830E-1,4.967556000E-1
2.203884944E1,-3.752126217E0,1.806694984E0,2.997428477E-1
2.205884944E1,-5.494942188E0,2.280761242E0,-6.058037877E-1
2.207884944E1,-5.692967415E0,3.028163671E0,-1.999518991E0
2.209884944E1,-4.571523666E0,3.426954031E0,-3.030031204E0
2.211884944E1,-2.804325104E0,4.906294942E-1,-2.473236322E0
2.213884944E1,-1.549067020E0,-1.312348008E0,-1.324059129E0
2.215884944E1,-1.028941393E0,-3.645818233E-1,-8.389972448E-1
2.217884944E1,-9.222669005E-1,4.188441038E-1,-7.549596429E-1
2.219884944E1,-1.259097934E0,7.323750854E-1,-8.010188341E-1
2.221884944E1,-1.461713195E0,5.209633112E-1,-9.731432199E-1
2.223884944E1,-2.030323982E0,1.050862744E-1,-1.222987056E0
2.225884944E1,-3.200026274E0,-6.522120833E-1,-1.436946988E0
2.227884944E1,-3.896988630E0,-4.052829146E-1,-1.157554746E0
2.229884944E1,-3.555427551E0,5.095314384E-1,-4.804018736E-1
2.231886350E1,-2.541827679E0,5.353971720E-1,1.777617782E-1
2.234084944E1,-1.338946819E0,-5.382246375E-1,5.402666926E-1
2.236084944E1,-5.330410004E-1,-1.536291122E0,6.721960902E-1
2.238084944E1,-3.729768693E-1,-2.686637640E0,4.438023269E-1
2.240086506E1,-8.264483213E-1,-2.544323444E0,-2.197718620E-1
2.242284944E1,-8.813912868E-1,-4.031535983E-1,-1.107865214E0
2.244284944E1,-9.546078444E-1,8.265879154E-1,-1.168707371E0
2.246484788E1,-1.014245749E0,-4.491779208E-1,-8.577769399E-1
2.248484944E1,-2.666513920E-1,-2.212518930E0,-1.091755748E0
2.250484944E1,7.998145819E-1,-2.493482113E0,-1.126487851E0
2.252684944E1,3.090786219E0,-4.428423941E-1,-4.758465588E-1
2.254685256E1,4.698094845E0,1.886107445E0,8.585623503E-1
2.256884788E1,4.374632835E0,5.145300388E0,2.860123396E0
2.258884788E1,2.214543581E0,6.014770985E0,3.331973076E0
2.260884788E1,2.573488057E-1,1.666824341E0,1.883070588E0
2.262884788E1,-8.086110651E-2,-1.095717669E0,4.930031598E-1
2.264884788E1,2.755002081E-1,-1.025101662E0,3.898541927E-1
2.266884788E1,6.846228242E-1,-1.262972593E0,7.830419540E-1
2.268884788E1,1.338492990E0,-2.004405975E0,1.082627773E0
2.270884944E1,2.380803585E0,-2.878065348E0,1.069014192E0
2.273084788E1,3.106424332E0,-2.908468962E0,1.000318050E0
2.275084788E1,3.125605345E0,-1.914504051E0,7.348359823E-1
2.277084944E1,2.582144737E0,1.810081005E-1,3.974114656E-1
2.279084944E1,1.984823346E0,2.042750835E0,-6.914994121E-2
2.281084944E1,1.699270010E0,2.986572504E0,-6.523168087E-1
2.283084944E1,1.661064744E0,3.072687149E0,-1.194032073E0
2.285284944E1,1.683980942E0,1.610328078E0,-1.263112187E0
2.287284944E1,1.896300197E0,-8.878141046E-1,-4.888667166E-2
2.289285100E1,2.136981010E0,-1.871132612E0,1.654973507E0
2.291285569E1,2.641189337E0,-2.942433119E0,1.497492552E0
2.293484944E1,2.783119440E0,-3.856863499E0,4.992863238E-1
2.295484944E1,1.466111422E0,-1.157991052E0,1.119279638E-1
2.297484944E1,-1.102978230E0,1.296500325E0,4.038691819E-1
2.299484944E1,-3.101676941E0,1.654659390E0,1.573065221E-1
2.301484944E1,-4.162261009E0,9.501572251E-1,-6.647086143E-1
2.303484944E1,-5.074963570E0,1.809504986E0,-1.741664052E0
2.305484944E1,-4.807683945E0,2.240479231E0,-2.542229176E0
2.307484944E1,-3.308847427E0,1.047127724E0,-2.430126667E0
2.309484944E1,-1.712726474E0,-9.846449494E-1,-1.477770329E0
2.311484944E1,-9.861983061E-1,-1.343135595E0,-7.910006642E-1
2.313484944E1,-9.331402779E-1,-5.262516737E-1,-6.149144173E-1
2.315484944E1,-1.242360234E0,2.508037984E-1,-4.667184949E-1
2.317484944E1,-1.714559078E0,7.397752404E-1,-4.663694203E-1
2.319484944E1,-2.320083618E0,7.837924361E-1,-7.240498662E-1
2.321484944E1,-3.168243885E0,4.842067063E-1,-8.128522038E-1
2.323484944E1,-3.689625978E0,2.670179307E-1,-6.193301082E-1
2.325484944E1,-3.197827101E0,2.554289401E-1,-3.104591668E-1
2.327686350E1,-1.962291121E0,1.372876018E-1,1.071981192E-1
2.329884944E1,-7.674038410E-1,-3.272317946E-1,3.996454775E-1
2.331884944E1,7.627088577E-3,-9.833359718E-1,6.861413121E-1
2.333885256E1,1.652128696E-1,-1.944785476E0,6.948155761E-1
2.336084944E1,-5.056044459E-1,-1.636368394E0,-1.080009714E-1
2.338084944E1,-1.054946780E0,1.769414842E-1,-8.050156832E-1
2.340084944E1,-1.384831548E0,6.172007918E-1,-8.651073575E-1
2.342084944E1,-1.588598728E0,-8.993157744E-1,-6.710093021E-1
2.344084944E1,-9.703332186E-1,-1.586888313E0,-8.038637638E-1
2.346084944E1,-6.159266829E-2,-1.652599931E0,-7.958003283E-1
2.348284944E1,1.532433987E0,-5.777039528E-1,-6.107605100E-1
2.350484944E1,3.567732334E0,1.221503615E0,1.983915716E-1
2.352685412E1,4.762637138E0,2.471281528E0,1.566782117E0
2.354884944E1,4.160899639E0,3.542128325E0,2.538110256E0
2.356884944E1,2.584169388E0,2.415273905E0,2.251614332E0
2.358884944E1,1.404361725E0,-1.522450745E-1,1.278156996E0
2.360884944E1,8.257327080E-1,-7.716798782E-1,8.044047952E-1
2.362884944E1,7.285527587E-1,-5.832540989E-1,6.800152063E-1
2.364884944E1,1.330883384E0,-6.114761233E-1,5.829225183E-1
2.366884944E1,2.529016972E0,-9.842086434E-1,9.164898396E-1
2.368884944E1,3.800890684E0,-1.340325594E0,1.464907169E0
2.370884944E1,4.043212414E0,-2.527934909E-1,1.485536933E0
2.372884944E1,3.455839157E0,9.448863268E-1,9.415702224E-1
2.374884944E1,2.559525251E0,1.393540740E0,1.384395212E-1
2.376884944E1,1.763899565E0,1.144866228E0,-5.489758849E-1
2.378884944E1,1.184869170E0,8.467465043E-1,-9.161931276E-1
2.380884944E1,6.540621519E-1,3.670951128E-1,-1.046935797E0
2.382885100E1,7.511897087E-1,-7.219030857E-1,-4.211828411E-1
2.384885100E1,1.550218940E0,-1.823764324E0,1.187661648E0
2.387084944E1,2.207754135E0,-2.593524456E0,1.771596432E0
2.389084944E1,2.741371155E0,-3.479121923E0,1.383574843E0
2.391084944E1,2.279731512E0,-2.575076342E0,1.801354289E-1
2.393084944E1,1.368076324E0,-1.045783877E0,3.096214123E-2
2.395084944E1,-1.428482175E0,1.335246682E0,-1.161691174E-1
2.397084944E1,-4.769653320E0,4.595329762E0,-4.157723188E-1
2.399084944E1,-5.488798618E0,4.641668320E0,-1.688815475E0
2.401084944E1,-4.479597092E0,2.702328205E0,-2.883528233E0
2.403084944E1,-3.316073179E0,1.877974346E-2,-2.945435047E0
2.405085100E1,-2.120470285E0,-2.070606232E0,-2.058388948E0
2.407284788E1,-1.270896435E0,-1.273095489E0,-1.227647185E0
2.409284944E1,-1.064546108E0,-4.500855207E-1,-8.711810708E-1
2.411284944E1,-1.344043136E0,4.162959456E-1,-7.944913507E-1
2.413284944E1,-1.820448160E0,8.103563786E-1,-9.078853726E-1
2.415484944E1,-2.095599413E0,8.858942389E-1,-9.870185852E-1
2.417684944E1,-2.357259035E0,6.744650602E-1,-1.112891793E0
2.419685100E1,-2.831500053E0,1.404466480E-1,-1.243669271E0
2.421685569E1,-2.880578756E0,-3.143338114E-2,-1.052957177E0
2.423884944E1,-2.110155344E0,-1.940806210E-2,-3.435156941E-1
2.425884944E1,-1.091319442E0,-3.290643692E-1,2.010793835E-1
2.427884944E1,-3.338465691E-1,-1.097759724E0,7.005751729E-1
2.429884944E1,1.832595654E-2,-1.867624521E0,8.782322407E-1
2.431885100E1,-4.280419946E-1,-3.038199425E0,4.831769466E-1
2.434084944E1,-1.422827363E0,-2.252818584E0,-2.356543541E-1
2.436084944E1,-1.641010880E0,1.663996875E-1,-6.189984679E-1
2.438084944E1,-1.408812284E0,1.164745450E0,-4.963890910E-1
2.440084944E1,-8.711810708E-1,-9.932843447E-1,-9.064367414E-1
2.442085100E1,-1.182111502E-1,-3.120404243E0,-1.048209786E0
2.444284944E1,1.499621749E0,-2.472101688E0,-1.022309184E0
2.446284944E1,3.684617043E0,-3.707428277E-1,-4.383743405E-1
2.448284944E1,4.975567341E0,1.496933937E0,5.502848625E-1
2.450284944E1,4.936908245E0,4.201181889E0,1.518942595E0
2.452284944E1,3.681178570E0,6.111724377E0,2.324935675E0
2.454284944E1,2.177664757E0,4.402697563E0,1.937140942E0
2.456284944E1,1.247788191E0,1.095071912E0,6.445500851E-1
2.458284944E1,1.308822393E0,6.821095943E-1,8.920377493E-2
2.460284944E1,2.232363462E0,1.396123767E0,3.193079829E-1
2.462284944E1,3.661526203E0,1.363416314E0,8.987224102E-1
2.464284944E1,4.249579906E0,8.130616546E-1,1.134847999E0
2.466284944E1,3.602813244E0,3.147177696E-1,6.377956867E-1
2.468284944E1,2.689692020E0,1.606051922E-1,-1.741140485E-1
2.470284944E1,1.688309312E0,4.497888088E-1,-5.441412926E-1
2.472284944E1,9.595296383E-1,9.510822892E-1,-7.176968455E-1
2.474284944E1,7.635641098E-1,1.199721813E0,-7.942121029E-1
2.476284944E1,8.707098365E-1,7.957305312E-1,-4.582361877E-1
2.478285100E1,8.508654833E-1,5.212425590E-1,3.813195229E-1
2.480484944E1,-6.728244573E-2,6.743079424E-1,1.527739048E0
2.482684944E1,-1.498190612E-1,4.127529263E-1,1.604900002E0
2.484684944E1,1.306518555E0,-2.226952791E0,1.015764117E0
2.486684944E1,1.471975803E0,-2.731841803E0,7.839495540E-1
2.488684944E1,1.750390679E-1,-1.913509130E0,4.665439725E-1
2.490684944E1,-2.659620047E0,6.873106211E-2,-6.579018831E-1
2.492684944E1,-4.447936535E0,2.330224037E0,-1.694435477E0
2.494684944E1,-3.181612968E0,2.263726950E0,-1.855476975E0
2.496684944E1,-1.125231266E0,-1.392964721E0,-1.615302205E0
2.498685881E1,-4.894775748E-1,-2.305352926E0,-1.189546585E0
2.500884944E1,-2.218138874E-1,-4.571715295E-1,-8.671144843E-1
2.502884944E1,-1.365720183E-1,4.064871743E-2,-8.268322945E-1
2.504884944E1,-1.975189149E-1,-2.161415666E-1,-1.305244446E0
2.506884944E1,-8.014377356E-1,-3.571816385E-1,-2.037060976E0
2.508884944E1,-1.752345443E0,-4.339761138E-1,-2.565459490E0
2.510884944E1,-2.601291180E0,-4.567352235E-1,-2.931437492E0
2.512884944E1,-3.049945354E0,-3.560122550E-1,-2.879025221E0
2.514884944E1,-2.648292780E0,-4.225267470E-1,-2.462275505E0
2.516884944E1,-1.911310077E0,2.560397983E-2,-1.600676417E0
2.518884944E1,-1.078159690E0,3.587000668E-1,-6.612179875E-1
2.520884944E1,-5.269323587E-1,-3.312285841E-1,1.545663625E-1
2.522884944E1,-5.667956471E-1,-5.781577826E-1,6.458590627E-1
2.524884944E1,-9.307841063E-1,-2.050238252E-1,6.308841705E-1
2.526884944E1,-1.106660962E0,2.219709754E-1,2.752733231E-1
2.528885100E1,-7.279767990E-1,-8.045967668E-3,-2.029468864E-1
2.531084944E1,-1.143016145E-1,-6.668903232E-1,-3.713187873E-1
2.533084944E1,-4.046720266E-1,-1.692515612E0,-6.413037777E-1
2.535084944E1,-6.619335413E-1,-9.499827027E-1,-1.042694569E0
2.537084944E1,1.108284108E-2,-7.759733796E-1,-6.770132184E-1
2.539084944E1,1.315105557E0,-8.130267262E-1,1.691224054E-2
2.541284944E1,2.616859436E0,-3.701668680E-1,7.153406739E-1
2.543484944E1,2.570224285E0,5.429370403E-1,1.865250826E0
2.545484944E1,1.262134790E0,2.009414911E0,2.448592186E0
2.547484944E1,4.179190993E-1,1.886020184E0,2.022208214E0
2.549484944E1,2.326349318E-1,7.361274958E-1,1.260948062E0
2.551484944E1,7.073121071E-1,5.918236971E-1,8.939576149E-1
2.553484944E1,1.390957594E0,6.266779304E-1,1.165984631E0
2.555484944E1,2.247285843E0,2.904925942E-1,1.673770785E0
2.557484944E1,2.716989040E0,2.377836555E-1,1.700840831E0
2.559685412E1,2.386353731E0,2.661801577E-1,1.165670514E0
2.561685881E1,1.623714685E0,4.860742018E-2,6.814637780E-1
2.563884944E1,7.516609430E-1,-3.494149074E-2,1.851794310E-2
2.565884944E1,1.450194120E-1,-1.505171955E-1,-1.891936958E-1
2.567884944E1,4.352851212E-2,-5.621705577E-2,-1.643227488E-1
2.569884944E1,5.622926950E-1,7.826231122E-1,-1.434137076E-1
2.572084944E1,1.452375770E0,2.383630991E0,-2.731265724E-1
2.574084944E1,1.612143159E0,3.573457003E0,4.938060045E-1
2.576084944E1,1.014542460E0,3.638487816E0,2.806943178E0
2.578084944E1,1.839769006E0,1.016689181E0,4.549218178E0
2.580084944E1,3.396655083E0,-3.143355370E0,3.389045477E0
2.582084944E1,1.857030272E0,-3.903376579E0,1.667033792E0
2.584084944E1,-1.294248939E0,-2.617976427E0,7.471754551E-1
2.586284788E1,-3.800227642E0,-4.552691281E-1,-9.287943840E-1
2.588284944E1,-3.544257641E0,2.709204674E0,-2.258909941E0
2.590284944E1,-1.783360004E0,2.654209375E0,-3.074345112E0
2.592284944E1,-5.558524728E-1,-9.076235890E-1,-2.694247246E0
2.594284944E1,3.012438305E-2,-2.082614183E0,-1.688885331E0
2.596484788E1,-1.142318025E-1,-4.996702969E-1,-1.050112247E0
2.598484788E1,-3.158696890E-1,-5.911429971E-2,-1.127325654E0
2.600484944E1,-8.279667497E-1,-1.152964532E-1,-1.311824322E0
2.602685256E1,-1.484838843E0,-1.581268311E-1,-1.603695750E0
2.604884944E1,-1.864552736E0,-3.222401440E-1,-1.836941600E0
2.606884944E1,-1.963285923E0,-5.596049428E-1,-1.749378443E0
2.608884944E1,-1.964647293E0,-1.251453400E0,-1.221014857E0
2.610884944E1,-1.929897785E0,-1.277563572E0,-6.844134331E-1
2.612884944E1,-1.803884983E0,-4.610810876E-1,-2.748719156E-1
2.614884944E1,-1.469078541E0,1.479864717E-1,4.277801886E-2
2.617084944E1,-9.891129732E-1,3.316125646E-2,2.355670929E-1
2.619284944E1,-5.824512839E-1,-3.966435194E-1,9.246754646E-2
2.621285256E1,-6.110048890E-1,-8.732754588E-1,-2.607172728E-1
2.623484788E1,-6.760882139E-1,-1.133731008E0,-5.992762446E-1
2.625484788E1,-6.316346526E-1,-8.253836632E-1,-4.712563455E-1
2.627484788E1,-8.700466156E-1,-1.197854400E0,-3.645643592E-1
2.629484944E1,-9.458637238E-1,-1.358023286E0,-5.470210910E-1
2.631684788E1,-1.700823307E-1,-8.111941218E-1,-3.838328123E-1
2.633685413E1,7.933219671E-1,-6.775367856E-1,4.042182490E-2
2.635884944E1,1.297425389E0,2.570520937E-1,9.385159016E-1
2.638084788E1,7.270343304E-1,1.936791897E0,2.133280993E0
2.640084788E1,-4.465075731E-1,2.127678633E0,2.941699982E0
2.642085100E1,-1.196667552E0,3.828030527E-1,2.744966507E0
2.644284788E1,-1.161254764E0,-1.226024032E0,2.012661219E0
2.646284788E1,-6.738192439E-1,-1.085507512E0,1.634814978E0
2.648284788E1,-5.909684673E-2,-1.022134662E0,1.426632166E0
2.650284788E1,7.019888759E-1,-1.495816946E0,1.606104374E0
2.652284788E1,1.685656428E0,-2.164068699E0,1.969778538E0
2.654284788E1,2.111499310E0,-2.443862438E0,1.963198662E0
2.656284788E1,2.219203472E0,-1.768734097E0,1.508156419E0
2.658284788E1,2.220896482E0,-3.942524195E-1,7.420092821E-1
2.660284788E1,1.836575031E0,8.011934161E-1,9.780824929E-2
2.662287288E1,1.500319958E0,1.801092505E0,-4.275009334E-1
2.664484944E1,1.109872341E0,2.153212786E0,-7.497934699E-1
2.666484944E1,1.182478070E0,2.509608984E0,-1.312225819E0
2.668484944E1,2.221734285E0,3.089826107E0,-1.766657114E0
2.670684944E1,3.069370985E0,-1.059938431E0,1.183106303E0
2.672684944E1,2.859739304E0,-3.078743219E0,2.887908936E0
2.674684944E1,1.839472294E0,-3.119601488E0,1.957090020E0
2.676685100E1,6.485294700E-1,-3.619812965E0,7.360053658E-1
2.678884944E1,-9.099448323E-1,-3.862431049E0,-1.767843962E-1
2.680884944E1,-1.899005532E0,-3.099408150E0,-6.880088151E-2
2.682884944E1,-2.576420069E0,-2.109317541E0,2.387610450E-2
2.684884944E1,-2.999767303E0,-6.250023842E-2,-5.929058194E-1
2.686884944E1,-2.582947731E0,3.281672716E0,-1.517493963E0
2.688884944E1,-2.184401751E0,7.085669994E0,-1.735398293E0
2.690884944E1,-1.678378463E0,7.666219234E0,-1.719114423E0
2.692884944E1,-1.813554168E0,2.657490730E0,-1.727736354E0
2.694884944E1,-1.365091801E0,-1.152074337E0,-1.876874685E0
2.696884944E1,-1.263915062E0,-7.769682407E-1,-1.892059088E0
2.698884944E1,-1.065209389E0,-3.445628881E-1,-1.818475962E0
2.700884944E1,-1.161603928E0,-9.490751624E-1,-1.730773211E0
2.702884944E1,-1.454068661E0,-1.683527112E0,-1.578981876E0
2.704884944E1,-1.646491289E0,-2.246866941E0,-1.249341607E0
2.706884944E1,-1.403698444E0,-1.977405667E0,-7.366161942E-1
2.708884944E1,-6.949726343E-1,-1.034910440E0,-4.954989627E-2
2.710884944E1,-1.382649839E-1,-1.807812005E-1,7.729713917E-1
2.712884944E1,-2.415012121E-1,1.355248094E-1,1.408445835E0
2.714884944E1,-6.624397039E-1,1.502902955E-1,1.667958856E0
2.716884944E1,-9.630377889E-1,5.930628628E-2,1.805019498E0
2.718884944E1,-1.127220869E0,-2.936516404E-1,1.777041912E0
2.720884944E1,-9.803165197E-1,-3.394316435E-1,1.323762417E0
2.722884944E1,-7.032455206E-1,-1.666789502E-2,3.619114757E-1
2.724884944E1,-9.935810566E-1,-4.361228645E-1,-5.789605975E-1
2.726884944E1,-2.182726145E0,-1.950405478E0,-1.037109494E0
2.728884944E1,-3.093386650E0,-2.775056124E0,-1.217471838E0
2.730884944E1,-2.235208273E0,-2.439411879E0,-1.498557091E0
2.732884944E1,1.618443877E-1,-3.050434113E0,-1.680804372E0
2.734884944E1,1.459775925E0,-2.925189257E0,-1.232289672E0
2.736884944E1,2.213443995E0,-1.224854589E0,-5.728519559E-1
2.738884944E1,2.709100008E0,6.854954958E-1,3.069510460E-1
2.740884944E1,3.133476973E0,2.176303387E0,1.072452426E0
2.742884944E1,3.481530428E0,3.509769917E0,1.461817980E0
2.744884944E1,3.280608177E0,4.238566875E0,1.664572835E0
2.746884944E1,2.500131845E0,3.566388369E0,1.633872509E0
2.748884944E1,1.805752516E0,1.561231971E0,1.061928153E0
2.750884944E1,1.548560858E0,1.738696992E-1,3.893131316E-1
2.752884944E1,1.571773648E0,-4.115486518E-2,2.151292861E-1
2.754884944E1,1.705692768E0,3.682819307E-1,3.640058637E-1
2.756884944E1,1.826818705E0,9.065240026E-1,4.671722651E-1
2.758884944E1,1.769641638E0,1.295697570E0,3.502526879E-1
2.760884944E1,1.626786470E0,1.656491995E0,5.195845291E-2
2.762884944E1,1.579627633E0,1.722343206E0,-2.291617356E-2
2.764884944E1,1.871673584E0,1.900541425E0,1.782679260E-1
2.766884944E1,2.443443537E0,2.199044943E0,4.665439725E-1
2.768884944E1,2.496641159E0,1.538734674E0,1.639667034E0
2.770884944E1,2.357381344E0,-5.321683288E-1,3.000535250E0
2.772884944E1,2.534218073E0,-3.235770702E0,2.871468067E0
2.774884944E1,2.305667162E0,-5.660573959E0,1.906632543E0
2.776884944E1,1.459095240E0,-3.875259161E0,1.207610726E0
2.778884944E1,6.502398849E-1,-1.393715262E0,8.031132817E-1
2.780884944E1,-6.807482243E-1,6.065891981E-1,1.936617345E-1
2.782884944E1,-1.929862857E0,2.387226343E0,-9.674360156E-1
2.784884944E1,-2.122948647E0,2.220442772E0,-1.877450705E0
2.786884944E1,-1.749832153E0,6.045820713E-1,-2.158413887E0
2.788884944E1,-9.661619067E-1,-7.581884861E-1,-1.897329926E0
2.790884944E1,-3.762929887E-2,-1.200716734E0,-1.373731256E0
2.792884944E1,4.465075731E-1,-9.588664174E-1,-7.949276567E-1
2.794884944E1,5.101248026E-1,-4.587947130E-1,-5.663070083E-1
2.796884944E1,1.934871972E-1,7.885397226E-2,-5.141914487E-1
2.798884944E1,-3.789982498E-1,7.137349248E-1,-4.381299913E-1
2.800884944E1,-1.004279852E0,1.291299343E0,-4.106934369E-1
2.802884944E1,-1.124707580E0,1.553377986E0,-2.912256420E-1
2.804884944E1,-9.606990218E-1,1.560359240E0,-1.777094305E-1
2.806884944E1,-9.288118482E-1,6.802769899E-1,-4.571017250E-2
2.808884944E1,-1.008660674E0,-9.883624911E-1,2.696533687E-2
2.810884944E1,-7.378728390E-1,-2.546592474E0,1.374970376E-1
2.812884944E1,-3.094468825E-2,-2.585024595E0,3.289596438E-1
2.814884944E1,5.871636868E-1,-2.347118706E-1,5.485569835E-1
2.817084944E1,8.254883885E-1,1.968696475E0,6.581811309E-1
2.819084944E1,5.904274583E-1,7.586771846E-1,4.175525606E-1
2.821084944E1,1.989675313E-1,-1.173157930E0,-1.410575062E-1
2.823084944E1,-1.107411385E-1,-1.361793160E0,-1.829803139E-1
2.825084944E1,-5.920331478E-1,-1.453038931E0,-4.106236100E-1
2.827084944E1,-1.035538793E0,-1.813065529E0,-7.871086001E-1
2.829084944E1,-9.105731845E-1,-1.493652821E0,-6.950424910E-1
2.831084944E1,5.344198272E-2,-4.022983909E-1,-4.332954288E-1
2.833084944E1,1.402040482E0,5.776341558E-1,-4.276056774E-3
2.835084944E1,2.457353830E0,1.121304274E0,6.974684596E-1
2.837084944E1,2.719484806E0,1.932027102E0,1.202671528E0
2.839084944E1,2.170439005E0,1.308071852E0,1.213021278E0
2.841284944E1,1.376663327E0,-4.554436803E-1,8.680569530E-1
2.843485100E1,1.067775011E0,-5.899212956E-1,5.590463877E-1
2.845684944E1,1.191675901E0,-2.424087822E-1,5.844758749E-1
2.847684944E1,1.592822433E0,-5.426054001E-1,7.961843014E-1
2.849685569E1,2.359143972E0,-1.343187928E0,1.029953718E0
2.851686194E1,2.724040031E0,-1.376680851E0,1.103816032E0
2.853884944E1,2.269835472E0,6.230825558E-2,9.125803113E-1
2.855884944E1,1.277825356E0,1.092314363E0,4.673817158E-1
2.858084788E1,1.242848933E-1,1.275940418E0,-2.243969738E-1
2.860084944E1,-2.960078418E-2,7.151137590E-1,-7.816107869E-1
2.862084944E1,6.026098132E-1,1.251750141E-1,-1.122072220E0
2.864084944E1,1.103100419E0,-2.949606394E-3,-1.004105330E0
2.866084944E1,1.083971620E0,2.942799628E-1,-2.203478217E-1
2.868284788E1,1.051456094E0,1.910786480E-1,5.484347939E-1
2.870284944E1,1.512833953E0,-9.844180346E-1,8.013504744E-1
2.872484944E1,2.597748041E0,-2.377923727E0,8.665210605E-1
2.874685413E1,3.799581766E0,-3.209468603E0,6.726847887E-1
2.876686506E1,3.200130939E0,-1.173489571E0,4.282863438E-1
2.878884788E1,1.354846716E0,7.277848125E-1,2.070309520E-1
2.880884788E1,-8.805186152E-1,1.460718393E0,2.120575123E-2
2.882884788E1,-2.057638407E0,1.022605896E0,-8.964011073E-1
2.884884944E1,-1.995208025E0,8.645837307E-1,-1.472499371E0
2.886884944E1,-1.210141540E0,1.036219478E0,-1.468083739E0
2.888885100E1,-1.891936958E-1,1.040076613E0,-1.091877937E0
2.891084788E1,1.810081005E-1,4.379903674E-1,-5.835334063E-1
2.893084944E1,2.740166895E-2,-1.316152811E-1,-6.792995930E-1
2.895084944E1,-1.577079445E-1,1.112298295E-1,-6.849719286E-1
2.897084944E1,-2.944719493E-1,5.035274625E-1,-6.098355055E-1
2.899284944E1,-3.810228407E-1,7.752403617E-1,-4.747470021E-1
2.901484944E1,-4.150393009E-1,8.624370098E-1,-2.894977629E-1
2.903484944E1,-4.684638083E-1,7.792894840E-1,-1.246339604E-1
2.905484944E1,-5.782625079E-1,5.411219001E-1,-2.691297606E-2
2.907484944E1,-5.500230789E-1,2.367713600E-1,3.141592606E-4
2.909484944E1,-4.206767082E-1,-2.087937444E-1,5.982988700E-2
2.911484944E1,-2.700024247E-1,-7.525859475E-1,1.095194072E-1
2.913484944E1,-2.968106866E-1,-1.460351944E0,1.284736842E-1
2.915484944E1,-4.801749885E-1,-2.054566622E0,1.072853878E-1
2.917685413E1,-6.821968555E-1,-1.224802256E0,2.400351316E-1
2.919884944E1,-8.148418665E-1,1.065244198E0,3.521550894E-1
2.921885725E1,-8.246331811E-1,2.093801737E0,3.413864076E-1
2.924084944E1,-7.468787432E-1,1.344933271E0,2.615201473E-1
2.926284944E1,-6.209008694E-1,-4.334699810E-1,7.429866493E-2
2.928484788E1,-4.681671262E-1,-6.838898063E-1,-6.056292448E-3
2.930484788E1,-4.432612658E-1,-1.917767823E-1,-1.561197042E-1
2.932484788E1,-7.762002945E-1,-6.270968169E-2,-3.897494674E-1
2.934484788E1,-1.554337859E0,-4.856378734E-1,-3.804468811E-1
2.936484788E1,-1.615494251E0,-7.030186057E-1,-6.593853980E-2
2.938484788E1,-9.393013120E-1,-9.783093929E-1,2.275734842E-1
2.940484788E1,2.096140385E-2,-7.534062862E-1,2.180963457E-1
2.942484788E1,9.613971710E-1,-1.696809083E-1,4.977678880E-2
2.944484788E1,1.129769087E0,3.275808394E-1,1.678308547E-1
2.946484944E1,8.488583565E-1,7.336316705E-1,4.768239558E-1
2.948684788E1,3.321361542E-1,9.804910421E-1,7.828674316E-1
2.950684944E1,-1.420698017E-1,7.841240764E-1,9.450783134E-1
2.952684944E1,-1.543394625E-1,2.433163524E-1,1.031943321E0
2.954685881E1,4.077961743E-1,-3.968704045E-1,1.199163318E0
2.956884944E1,1.300916076E0,-9.556725025E-1,1.493129134E0
2.959084788E1,1.515451908E0,-9.786584973E-1,1.511664510E0
2.961084788E1,1.057896376E0,-7.439116836E-1,1.304214716E0
2.963084788E1,5.736896992E-1,-9.011483788E-1,1.078281879E0
2.965084788E1,3.752981424E-1,-1.161656260E0,9.301208854E-1
2.967084944E1,2.346246094E-1,-9.989915490E-1,6.716550589E-1
2.969284944E1,-1.258382387E-2,-5.421341658E-1,2.316051871E-1
2.971484788E1,-3.214547336E-1,-4.199262336E-2,-2.419200838E-1
2.973484788E1,-5.601110458E-1,4.100301862E-1,-6.301511526E-1
2.975484788E1,-7.049733996E-1,7.084640265E-1,-9.446769357E-1
2.977484788E1,-7.733204961E-1,7.928158045E-1,-1.161010504E0
2.979484788E1,-8.014028072E-1,8.782671094E-1,-1.224104166E0
2.981484788E1,-7.777361870E-1,9.441009760E-1,-1.107184529E0
2.983484788E1,-4.749215543E-1,3.681073785E-1,-7.604748607E-1
2.985484788E1,8.494517207E-2,-5.268450975E-1,-4.504694790E-2
2.987484788E1,1.012029171E0,-1.632179499E0,7.571238279E-1
2.989484788E1,2.494668961E0,-3.518740892E0,1.106765628E0
2.991484788E1,2.434507370E0,-2.379739046E0,9.047961235E-1
2.993484788E1,6.574655175E-1,3.229906261E-1,5.723981857E-1
2.995484944E1,-2.023063421E0,2.870874643E0,4.543615580E-1
2.997484944E1,-3.733852625E0,3.746192217E0,-7.433357090E-2
2.999484944E1,-3.190165043E0,2.549350023E0,-6.932273507E-1
3.001484944E1,-1.660750628E0,3.989298940E-1,-7.787309885E-1
3.003685256E1,-1.212811828E0,8.907811642E-1,-6.452482343E-1
3.005685256E1,-9.488657117E-1,1.686319709E0,-4.861963689E-1
3.007884944E1,-5.354321003E-1,1.201938391E0,-4.876973629E-1
3.009884944E1,-4.415857494E-1,7.225663215E-2,-4.980646074E-1
3.011884944E1,-2.766870558E-1,-1.833817512E-1,-4.162261188E-1
3.013884944E1,-3.867649660E-2,-2.268579006E-1,-4.098556638E-1
3.015884944E1,4.014257342E-3,-4.606447518E-1,-4.668057561E-1
3.017884944E1,-1.066221669E-1,-8.644092083E-1,-4.384092391E-1
3.019884944E1,-2.395115346E-1,-1.152685285E0,-4.169242382E-1
3.021885569E1,-3.345272541E-1,-1.301265121E0,-3.451563120E-1
3.024084944E1,-2.920284867E-1,-9.706473947E-1,-1.756499410E-1
3.026284944E1,-5.050982907E-2,-1.077391729E-1,2.181661548E-3
3.028484944E1,2.961998284E-1,3.052755296E-1,1.878323406E-1
3.030484944E1,5.698325634E-1,2.102947235E-1,3.058864176E-1
3.032484944E1,7.817679048E-1,1.182111502E-1,4.124911129E-1
3.034685100E1,9.127897620E-1,1.088387296E-1,5.173854232E-1
3.036685569E1,9.304524660E-1,1.368512660E-1,5.446474552E-1
3.038884944E1,8.534136415E-1,1.115265395E-2,4.972442985E-1
3.041084788E1,7.144680023E-1,-1.142667085E-1,3.388207555E-1
3.043084944E1,5.501452088E-1,-1.632406414E-1,2.476098537E-1
3.045084944E1,4.084244967E-1,-2.458470762E-1,2.183406949E-1
3.047084944E1,3.092199862E-1,-3.415958285E-1,2.075545490E-1
3.049084944E1,1.730493903E-1,-5.156051517E-1,1.768542081E-1
3.051284944E1,6.195918843E-2,-7.093890905E-1,1.370781660E-1
3.053284944E1,2.025978118E-1,-5.187467337E-1,3.193952516E-2
3.055284944E1,4.868770540E-1,-1.384046078E-1,3.291691095E-2
3.057284944E1,7.717322111E-1,7.131415606E-2,1.559626162E-1
3.059285256E1,9.486737251E-1,3.750712425E-2,2.981894910E-1
3.061484944E1,1.096153975E0,-3.850196302E-2,2.741737664E-1
3.063484944E1,1.188272476E0,-3.665191471E-4,2.809980214E-1
3.065484944E1,1.542312503E0,-7.101744413E-2,4.090004563E-1
3.067684944E1,2.174924612E0,-3.140370846E-1,8.288044930E-1
3.069684944E1,2.588253498E0,-3.854036033E-1,1.124672771E0
3.071684944E1,2.468139887E0,-1.463109553E-1,1.100639582E0
3.073685100E1,2.050674677E0,-4.995132238E-2,9.182875156E-1
3.075685412E1,1.614883304E0,-9.238027781E-2,7.370874286E-1
3.077884944E1,1.289274693E0,-7.522369176E-2,4.547455311E-1
3.080084944E1,1.201694131E0,2.394591644E-2,1.828232408E-1
3.082084944E1,1.222847462E0,2.390926480E-1,-7.241371274E-2
3.084084944E1,1.207366467E0,4.185823202E-1,-3.362027705E-1
3.086084944E1,1.122438669E0,4.342204630E-1,-5.627290606E-1
3.088084944E1,1.032257557E0,2.720444798E-1,-6.872059107E-1
3.090084944E1,9.537526369E-1,3.495894372E-2,-7.166147232E-1
3.092084944E1,8.707447648E-1,-2.126683742E-1,-6.637487411E-1
3.094084944E1,8.032528758E-1,-4.075692892E-1,-5.845980048E-1
3.096084944E1,7.075739503E-1,-5.136504173E-1,-4.541346729E-1
3.098084944E1,5.492725372E-1,2.293886244E-1,-3.527484834E-1
3.100084944E1,4.398404360E-1,9.584475756E-1,-1.293463558E-1
3.102084944E1,7.178713679E-1,7.990815639E-1,3.968878835E-2
3.104084944E1,1.343955874E0,-1.833817512E-1,1.850398034E-1
3.106084944E1,1.772312045E0,-6.521597505E-1,7.394959778E-2
3.108084944E1,1.623522758E0,-4.690048695E-1,-7.705628872E-2
3.110084944E1,1.281595230E0,-2.502104044E-1,-1.134638563E-1
3.112084944E1,1.225849390E0,-5.168617964E-1,-1.062556431E-1
3.114084944E1,1.364271522E0,-7.859392166E-1,-1.164309159E-1
3.116084944E1,1.267527938E0,-4.580093026E-1,-9.382890165E-2
3.118084944E1,8.389797807E-1,4.930555075E-2,-4.337143153E-2
3.120084944E1,1.727526933E-1,3.726976216E-1,-1.481609941E-1
3.122287756E1,-7.002260685E-1,7.268947363E-1,-4.674166143E-1
3.124484788E1,-1.107463717E0,3.887197375E-1,-8.808851242E-1
3.126484944E1,-9.088103771E-1,2.331061810E-1,-9.823585749E-1
3.128484944E1,-4.875053763E-1,2.647838891E-1,-8.185594082E-1
3.130484944E1,-6.110397726E-2,4.000294581E-2,-4.892157912E-1
3.132684944E1,2.732138336E-1,-8.906415105E-2,-1.763480604E-1
3.134684944E1,5.269498229E-1,-1.488765776E-1,-7.089527696E-2
3.136684944E1,6.619335413E-1,-1.163436472E-1,-4.756022245E-2
3.138684944E1,4.664217830E-1,-1.628217697E-1,-5.853834376E-2
3.140684944E1,1.073726565E-1,-3.861017227E-1,-2.007303238E-1
3.142685413E1,-1.851619780E-1,-7.400544882E-1,-4.866501391E-1
3.144884944E1,-3.407929838E-1,-9.900380373E-1,-7.128622532E-1
3.146884944E1,-2.903529704E-1,-7.124957442E-1,-6.348460317E-1
3.148884944E1,-6.946410239E-2,-1.787915230E-1,-3.759439290E-1
3.150884944E1,1.215447262E-1,-7.489208132E-2,-2.335774153E-1
3.152884944E1,6.077236310E-2,-2.129999846E-1,-3.257656991E-1
3.154884944E1,-2.659183741E-1,-3.142639697E-1,-3.832917511E-1
3.156884944E1,-5.969898701E-1,-2.021440268E-1,-3.767467737E-1
3.158884944E1,-7.841938734E-1,4.195771366E-2,-3.799581826E-1
3.160884944E1,-7.493920326E-1,7.033676654E-2,-4.574508071E-1
3.162885413E1,-6.634694338E-1,-1.981297731E-1,-4.264712036E-1
3.165084944E1,-8.199033141E-1,-6.552838683E-1,-3.295181692E-1
3.167084944E1,-1.019429326E0,-6.388428807E-1,-2.278003693E-1
3.169284944E1,-1.397729516E0,-4.032583237E-1,-2.498089820E-1
3.171484944E1,-1.652320623E0,9.634217247E-3,-2.464230359E-1
3.173684788E1,-1.409999132E0,2.377836555E-1,-1.935919225E-1
3.175684944E1,-9.811717272E-1,1.579697430E-1,-1.377064735E-1
3.177884944E1,-5.878617764E-1,2.825513482E-1,-1.419650763E-1
3.180084944E1,-5.385562181E-1,2.442937344E-1,-1.572018117E-1
3.182084944E1,-7.453079224E-1,-7.756242901E-2,-2.090904415E-1
3.184084944E1,-9.652019739E-1,-3.216641843E-1,-2.558303475E-1
3.186084944E1,-1.018853426E0,-3.572165370E-1,-1.372177899E-1
3.188084944E1,-7.130019069E-1,-3.314903975E-1,-5.640904233E-2
3.190084944E1,-1.630137563E-1,-2.720270157E-1,5.134758726E-2
3.192084944E1,4.145331383E-1,1.617745608E-1,1.640958488E-1
3.194084944E1,9.465269446E-1,1.013704658E0,4.622155428E-1
3.196084944E1,1.081982017E0,1.843381882E0,8.093440533E-1
3.198084944E1,4.148298502E-1,2.410160065E0,1.158235431E0
3.200084944E1,-6.471680999E-1,2.585286379E0,1.262937665E0
3.202085100E1,-1.539677143E0,2.396337032E0,1.231870890E0
3.204085100E1,-1.836191058E0,1.663403511E0,1.162790656E0
3.206284944E1,-1.537722349E0,7.183949947E-1,1.373626471E0
3.208284944E1,-8.693833947E-1,2.495297194E-1,1.417853117E0
3.210284944E1,-3.308969736E-1,-3.717551380E-2,1.415758729E0
3.212284944E1,-2.153038085E-1,-2.772979140E-1,1.337620378E0
3.214284944E1,-4.556182027E-1,-2.375044078E-1,1.248346686E0
3.216284944E1,-8.476017118E-1,-1.750565320E-2,1.090551496E0
3.218484788E1,-1.172058344E0,1.694191098E-1,7.716100812E-1
3.220484944E1,-1.397450209E0,4.394913614E-1,4.885002077E-1
3.222484944E1,-1.564966917E0,5.748590827E-1,9.957103431E-2
3.224684944E1,-1.630067706E0,5.134060383E-1,-3.726801574E-1
3.226686506E1,-1.524213433E0,3.892956972E-1,-6.740636230E-1
3.228884944E1,-1.301893473E0,3.408104479E-1,-8.535706997E-1
3.231084944E1,-1.078962564E0,2.761285305E-1,-1.134516358E0
3.233084944E1,-9.852907062E-1,1.791405976E-1,-1.184205890E0
3.235284944E1,-8.338484764E-1,-9.239772707E-2,-1.021837950E0
3.237284944E1,-6.455972791E-1,-4.336445034E-1,-5.059011579E-1
3.239284944E1,-4.616744816E-1,-6.811321974E-1,3.242821693E-1
3.241284944E1,2.194227874E-1,-2.177018881E0,7.331081033E-1
3.243284944E1,9.304001331E-1,-3.987379313E0,6.084566712E-1
3.245284944E1,8.696451783E-1,-4.076076984E0,1.337620318E-1
3.247284944E1,5.005604401E-2,-1.819575548E0,-7.457792014E-2
3.249285256E1,-1.228799105E0,1.398183256E-1,3.132866025E-1
3.251484944E1,-2.547028780E0,5.261294842E-1,8.990190923E-2
3.253684944E1,-3.686851025E0,6.875026226E-1,-4.949753881E-1
3.255684944E1,-4.642977238E0,1.404850364E0,-9.185144305E-1
3.257684944E1,-5.027455807E0,2.399618387E0,-1.417888045E0
3.259685569E1,-4.337945938E0,3.255423069E0,-1.946548223E0
3.261884944E1,-3.225543022E0,3.875451326E0,-2.385411263E0
3.263884944E1,-2.143927574E0,2.851641178E0,-2.179270506E0
3.265884944E1,-1.358302474E0,4.512199759E-1,-1.566677332E0
3.267884944E1,-1.083814502E0,-4.684812725E-1,-1.060165286E0
3.270084788E1,-1.130938411E0,1.132020578E-1,-1.053323627E0
3.272084944E1,-1.299624562E0,4.787787199E-1,-1.207418799E0
3.274084944E1,-1.723390460E0,4.792150557E-1,-1.434625745E0
3.276084944E1,-2.270917654E0,2.975786328E-1,-1.472935677E0
3.278084944E1,-2.342039824E0,3.540574908E-1,-1.154709816E0
3.280084944E1,-1.945047259E0,5.753303170E-1,-5.980370641E-1
3.282084944E1,-1.472621560E0,5.112593174E-1,6.981316954E-2
3.284084944E1,-1.187242746E0,2.642253935E-1,5.177868009E-1
3.286084944E1,-1.270337939E0,-4.324576855E-1,7.071375847E-1
3.288084944E1,-1.686127663E0,-1.641743898E0,5.691693425E-1
3.290084944E1,-1.849979162E0,-2.315999508E0,-1.731366664E-1
3.292084944E1,-1.524475336E0,-1.595579982E0,-1.011208892E0
3.294084944E1,-1.237455845E0,-2.988876402E-1,-7.666358948E-1
3.296084944E1,-1.052503347E0,-6.797010303E-1,-3.176848292E-1
3.298084944E1,-6.456322074E-1,-1.869142890E0,-1.558579057E-1
3.300084944E1,6.719517708E-1,-1.119576335E0,-5.710717291E-2
3.302084944E1,2.345425844E0,3.325899541E-1,3.560646176E-1
3.304084944E1,3.243973732E0,1.235361457E0,9.643990993E-1
3.306084944E1,2.747410059E0,1.575491309E0,1.700055361E0
3.308084944E1,1.605999589E0,7.480829954E-1,1.844254494E0
3.310084944E1,8.990889192E-1,-3.713537157E-1,1.507458329E0
3.312084944E1,3.581241071E-1,-7.424979806E-1,1.388898134E0
3.314084944E1,3.055198789E-1,-9.347285032E-1,1.333256960E0
3.316084944E1,8.872555494E-1,-1.470038414E0,1.530828238E0
3.318084944E1,1.906702399E0,-2.399321556E0,1.665480375E0
3.320284944E1,2.664367199E0,-2.663686514E0,1.446110010E0
3.322284944E1,2.630089045E0,-1.461311817E0,1.022239327E0
3.324484788E1,2.157628298E0,4.694935866E-3,3.093247116E-1
3.326484944E1,1.587534070E0,7.238927484E-1,-3.538131416E-1
3.328685725E1,9.930050969E-1,1.086467505E0,-1.038662910E0
3.330884944E1,5.610361099E-1,9.852383733E-1,-1.640644431E0
3.332884944E1,7.523416281E-1,-4.208337963E-1,-1.550393462E0
3.334884944E1,1.799975514E0,-2.871223688E0,1.777443290E-1
3.336884944E1,1.657888293E0,-1.426160932E0,1.038977027E0
3.338884944E1,7.115707397E-1,-1.736602560E-2,1.031890988E0
3.340884944E1,1.581268311E-1,-4.101000130E-1,3.881437778E-1
3.342884944E1,-3.817733228E-1,-7.606668472E-1,-9.543460608E-2
3.344884944E1,-1.303464293E0,-6.726498902E-2,7.311183959E-2
3.346884944E1,-2.457685471E0,7.266678214E-1,-4.201007634E-2
3.348884944E1,-3.858731031E0,2.433983803E0,-5.671447515E-1
3.350884944E1,-4.646188736E0,3.862483501E0,-1.659197211E0
3.353085100E1,-4.378001213E0,4.960382938E0,-2.856301069E0
3.355284944E1,-2.527760267E0,3.652834415E0,-3.158452511E0
3.357284944E1,-1.225779653E0,-3.110351264E-1,-2.047655106E0
3.359284944E1,-9.809797406E-1,-1.226058841E0,-1.173105597E0
3.361284944E1,-9.590235353E-1,-3.248930275E-1,-9.595471025E-1
3.363284944E1,-1.058158159E0,3.344050795E-2,-8.966978192E-1
3.365284944E1,-1.459775925E0,-2.656565607E-1,-9.564578533E-1
3.367484944E1,-2.049592495E0,-9.906314015E-1,-1.277842760E0
3.369484944E1,-2.243655682E0,-9.791297317E-1,-1.529973030E0
3.371484944E1,-2.188904762E0,-2.559001744E-1,-1.322977066E0
3.373484944E1,-1.428412318E0,1.006793141E0,-8.462926745E-1
3.375684944E1,2.356194425E-3,1.900663495E0,-2.602286041E-1
3.377685256E1,7.304900885E-1,1.379473329E0,2.250427604E-1
3.379884944E1,7.838099003E-1,5.411044359E-1,3.858748376E-1
3.381884944E1,-3.454181254E-1,-1.103170276E0,2.296853215E-1
3.383884944E1,-2.339631319E0,-3.097662687E0,-4.730540514E-1
3.385884944E1,-1.432461500E0,4.457919896E-1,-7.113787532E-1
3.387884944E1,-3.360631466E-1,9.587093592E-1,-6.046169400E-1
3.389884944E1,2.309070528E-2,-4.745375812E-1,-6.813416481E-1
3.391884944E1,-2.010270208E-1,-8.819672465E-1,-7.596371174E-1
3.393884944E1,-3.061307371E-1,-5.032133460E-1,-6.163804531E-1
3.395884944E1,5.382246375E-1,1.747598201E-1,-2.896722853E-1
3.397884944E1,1.942202330E0,9.928305149E-1,4.724606276E-1
3.399884944E1,2.401782513E0,1.349226832E0,1.599384785E0
3.401884944E1,1.449408650E0,1.348964930E0,2.225609064E0
3.403884944E1,-3.415609151E-2,3.333404362E-1,1.903176785E0
3.405884944E1,-4.623377025E-1,-1.725083441E-1,1.057111025E0
3.407884944E1,7.560766488E-2,1.277406514E-1,5.805314183E-1
3.409884944E1,1.234785557E0,8.318762779E-1,5.858546495E-1
3.411885569E1,2.572981834E0,1.279623032E0,8.469384909E-1
3.414084944E1,3.815917969E0,7.658155560E-1,9.693907499E-1
3.416084944E1,3.986960411E0,1.359611452E-1,8.603251576E-1
3.418084944E1,2.976484537E0,-4.375016689E-1,2.653424144E-1
3.420084944E1,1.747702837E0,-4.706629515E-1,-3.352952003E-1
3.422284944E1,6.931924224E-1,3.591364026E-1,-5.754175782E-1
3.424284944E1,1.269552559E-1,7.352024913E-1,-4.714308679E-1
3.426284944E1,-7.871434838E-2,3.524692357E-1,-3.287851214E-1
3.428284944E1,-9.196139872E-2,1.747423708E-1,-1.065698043E-1
3.430284944E1,4.086688459E-1,7.330382615E-2,1.034526467E0
3.432485412E1,1.923352838E0,-5.400572419E-1,3.912295103E0
3.434685256E1,2.950287104E0,-1.780235767E-1,4.303458214E0
3.436686662E1,3.449538469E0,-2.418275833E0,2.149582386E0
3.438884944E1,1.543499351E0,-3.496208668E0,2.353751063E-1
3.440884944E1,-1.302521706E0,-1.193665624E0,8.883725852E-3
3.442884944E1,-3.733398914E0,9.126850367E-1,-7.816980481E-1
3.444884944E1,-3.984447002E0,2.341673374E0,-1.875757694E0
3.446884944E1,-3.273871183E0,3.130614519E0,-3.075095654E0
3.448884944E1,-2.428782701E0,2.505193233E0,-3.612133503E0
3.450884944E1,-1.793727279E0,6.585127115E-1,-3.394595623E0
3.452884944E1,-1.389491558E0,-2.187944800E-1,-2.831308126E0
3.454884944E1,-1.222166777E0,-1.966986060E-1,-2.528842449E0
3.456884944E1,-1.571319938E0,-3.097610474E-1,-2.838097334E0
3.458884944E1,-2.542997122E0,-8.869763017E-1,-3.232244968E0
3.460884944E1,-3.118467093E0,-9.454797506E-1,-3.306020021E0
3.462885100E1,-2.988893747E0,-1.014856577E0,-3.020274878E0
3.465084944E1,-2.293572187E0,-9.197361469E-1,-2.394940853E0
3.467084944E1,-1.674049973E0,-1.093728065E0,-1.634483337E0
3.469084944E1,-1.359454393E0,-1.502676129E0,-8.825955391E-1
3.471084944E1,-1.236513376E0,-1.609874249E0,-4.805414975E-1
3.473084944E1,-1.294807434E0,-1.824392676E0,-7.642796636E-2
3.475084944E1,-1.299432516E0,-1.910227895E0,6.594203115E-1
3.477084944E1,-1.227036238E0,-1.802558541E0,1.591513395E0
3.479084944E1,-8.009141088E-1,-1.707525373E0,2.000147343E0
3.481084944E1,1.846034676E-1,-1.300863743E0,1.865442753E0
3.483084944E1,8.859989643E-1,-1.120885372E0,1.836592555E0
3.485084944E1,6.362772584E-1,-1.332785726E0,1.516254783E0
3.487084944E1,-1.360170007E0,-2.102859974E0,7.049908638E-1
3.489084944E1,-2.953655481E0,-2.761651993E0,-9.534035325E-1
3.491084944E1,-1.694348216E0,-1.359908223E0,-2.616126299E0
3.493084944E1,5.939704776E-1,-1.071806699E-1,-2.242032528E0
3.495084944E1,2.320275545E0,5.216265321E-1,-3.592760265E-1
3.497084944E1,3.716416836E0,2.197456837E0,1.378705382E0
3.499084944E1,3.617823124E0,4.522497177E0,3.438996792E0
3.501084944E1,2.263377905E0,6.058561325E0,4.737975597E0
3.503084944E1,7.118674517E-1,4.115905285E0,4.259580612E0
3.505084944E1,-1.366592795E-1,-3.540923893E-1,2.411434174E0
3.507084944E1,-2.330014557E-1,-2.381484270E0,1.356976032E0
3.509084944E1,2.931105793E-1,-2.983256340E0,1.482482672E0
3.511084944E1,1.268330812E0,-3.691388845E0,1.640609503E0
3.513084944E1,2.161101580E0,-2.959903955E0,1.174397111E0
3.515084944E1,2.366195202E0,-9.521992803E-1,5.040336251E-1
3.517084944E1,2.191365480E0,9.685879350E-1,-1.963495463E-1
3.519084944E1,1.903525829E0,1.886421680E0,-8.472700715E-1
3.521084944E1,1.651762128E0,2.363315344E0,-1.169772029E0
3.523084944E1,1.353031635E0,2.720933437E0,-1.100726843E0
3.525084944E1,1.296343327E0,2.506414890E0,-6.810798049E-1
3.527084944E1,2.441191912E0,-3.609341010E-2,1.397223353E0
3.529285256E1,3.739664555E0,-2.435973406E0,3.818972349E0
3.531285569E1,3.654701948E0,-3.980485201E0,2.498299122E0
3.533484944E1,1.286813855E0,-3.809006453E0,6.617066860E-1
3.535684944E1,-1.544319630E0,-7.000340819E-1,-2.078512609E-1
3.537684944E1,-4.098801136E0,2.270778179E0,-1.138059378E0
3.539685569E1,-4.221288204E0,3.508408546E0,-1.601758480E0
3.541885412E1,-2.670458555E0,3.551954508E0,-1.774930000E0
3.544085256E1,-1.268313289E0,3.415434837E0,-2.661714315E0
3.546284944E1,-8.822115660E-1,1.859229445E0,-2.675973654E0
3.548284944E1,-7.929205298E-1,-6.188762784E-1,-1.548525929E0
3.550284944E1,-7.383266091E-1,-1.370135784E0,-1.037284136E0
3.552284944E1,-1.081004620E0,-1.233371854E0,-1.125894427E0
3.554484788E1,-1.608181238E0,-9.328959584E-1,-1.335665584E0
3.556484944E1,-2.226062775E0,-1.237735152E0,-1.606785059E0
3.558484944E1,-2.938139677E0,-1.568667054E0,-1.714454412E0
3.560684944E1,-3.239104271E0,-1.011051774E0,-1.516656160E0
3.562685100E1,-2.860158205E0,-1.655095667E-1,-1.042799354E0
3.564884944E1,-1.910821319E0,4.151090980E-1,-4.234168828E-1
3.566884944E1,-9.494242072E-1,5.282238722E-1,-2.359685116E-2
3.568884944E1,-1.389631182E-1,5.770233274E-1,3.871140182E-1
3.570884944E1,3.786666393E-1,6.837850809E-1,8.467290401E-1
3.572884944E1,4.512723386E-1,8.037590384E-1,1.177695870E0
3.574884944E1,2.274163961E-1,9.818175435E-1,8.914269209E-1
3.576884944E1,-9.642943740E-2,7.047814131E-1,-8.869763464E-2
3.578884944E1,-7.443654537E-1,-1.103728771E0,-7.270343304E-1
3.580884944E1,-4.550771415E-1,-9.861110449E-1,-6.598740816E-1
3.582884944E1,2.328618318E-1,-4.890587032E-1,-7.789404690E-2
3.584884944E1,9.336813092E-1,-4.920257628E-1,1.567480266E-1
3.586884944E1,2.070641279E0,-9.377653897E-2,3.237934709E-1
3.588884944E1,2.687108994E0,3.303908408E-1,9.163851142E-1
3.590884944E1,2.076103926E0,8.691739291E-3,1.656055689E0
3.592884944E1,4.585677981E-1,-8.007047176E-1,1.781527400E0
3.594884944E1,-7.381520867E-1,-1.338178873E0,1.239655018E0
3.596884944E1,-7.750134468E-1,-1.371130705E0,8.097629547E-1
3.598884944E1,-6.771877408E-2,-1.162720919E0,7.590262294E-1
3.600884944E1,9.800023437E-1,-1.401499391E0,1.090691209E0
3.602884944E1,2.104064226E0,-2.059785128E0,1.511001348E0
3.604884944E1,2.879967690E0,-2.356177092E0,1.725118279E0
3.606884944E1,3.046000957E0,-1.685761213E0,1.570569396E0
3.608884944E1,2.641119480E0,-5.262691379E-1,1.166595578E0
3.610884944E1,1.890139222E0,8.317890167E-1,5.516636968E-1
3.612884944E1,1.350273967E0,1.763550520E0,-2.067517042E-1
3.614884944E1,1.102315068E0,2.161154032E0,-8.531169295E-1
3.617084944E1,1.014874101E0,2.125043154E0,-1.127290726E0
3.619084944E1,1.144010901E0,1.247107506E0,-9.250245094E-1
3.621284944E1,2.654698133E0,-1.739272952E0,9.487435222E-1
3.623284944E1,3.747483730E0,-3.099687338E0,2.308948517E0
3.625484788E1,3.570647001E0,-3.241983891E0,1.740773916E0
3.627484788E1,2.687807083E0,-2.987532377E0,6.989868879E-1
3.629484944E1,1.146978021E0,-1.373818517E0,2.696708143E-1
3.631484944E1,-1.367098927E0,1.255170941E0,1.283340603E-1
3.633484944E1,-3.173549652E0,2.493639231E0,-3.304431736E-1
3.635685256E1,-3.593144178E0,2.454945326E0,-1.307024717E0
3.637685412E1,-3.407493591E0,2.601797104E0,-2.415431023E0
3.639686819E1,-2.921279669E0,1.350308895E0,-2.602111340E0
3.641884944E1,-2.069192648E0,-6.512172222E-1,-1.760932446E0
3.643884944E1,-1.643262386E0,-1.125615239E0,-8.890358210E-1
3.645884944E1,-1.705308795E0,-7.131240964E-1,-6.056815982E-1
3.647884944E1,-1.971297026E0,-3.344399929E-1,-5.763949752E-1
3.649884944E1,-2.085284472E0,-1.961051971E-1,-7.041530609E-1
3.651884944E1,-1.979761839E0,-2.559874356E-1,-8.166919351E-1
3.653884944E1,-1.771631360E0,-2.339613885E-1,-7.967602611E-1
3.655884944E1,-1.617798090E0,-2.260724902E-1,-5.181184411E-1
3.657884944E1,-1.506376266E0,-3.593807518E-1,-7.394959778E-2
3.659884944E1,-1.108964801E0,-6.137450337E-1,2.815739810E-1
3.662084944E1,-2.126509100E-1,-5.417676568E-1,8.035146594E-1
3.664084944E1,8.395732045E-1,1.609385610E0,1.254193544E0
3.666085100E1,1.325001597E0,4.010662079E0,1.311649799E0
3.668085100E1,2.488664985E-1,1.165775180E0,3.701843321E-1
3.670284944E1,-1.073831320E0,-1.653681993E0,-5.557302833E-1
3.672484944E1,-6.600660682E-1,-1.495153785E0,-5.933595896E-1
3.674484944E1,1.820727438E-1,-2.007704496E0,-5.250474215E-1
3.676484944E1,9.550092816E-1,-1.965729475E0,-5.578944683E-1
3.678484944E1,1.846122026E0,-1.372963309E0,-5.034053326E-1
3.680484944E1,2.854294062E0,-2.324778587E-2,-2.261423171E-1
3.682685256E1,3.078272104E0,1.851218343E0,7.253239155E-1
3.684884944E1,2.261423111E0,2.429166794E0,1.347184777E0
3.686884944E1,1.467594981E0,1.099138498E0,1.099505067E0
3.688884944E1,1.068438172E0,-2.951002717E-1,6.711140275E-1
3.690884944E1,1.376698256E0,-3.682470322E-1,5.671796203E-1
3.692884944E1,2.420125961E0,3.258529678E-2,4.994259775E-1
3.694884944E1,3.843302250E0,6.936985850E-1,3.868347704E-1
3.696884944E1,5.693473339E0,3.156742096E0,-4.765272439E-1
3.698885100E1,6.007894516E0,4.326566696E0,-1.533463717E0
3.701084944E1,3.480745077E0,1.563989520E0,-9.290736914E-1
3.703084944E1,1.271507263E0,-2.300692946E-1,-3.422241509E-1
3.705084944E1,-8.964011073E-2,-2.356543541E-1,-5.951572582E-2
3.707084944E1,-5.130220652E-1,5.506688356E-1,-5.042256042E-2
3.709084944E1,-2.225992978E-1,1.035817981E0,-2.045525797E-2
3.711084944E1,3.689102530E-1,1.087689161E0,3.196919560E-1
3.713084944E1,8.377929330E-1,1.396420479E0,1.191361785E0
3.715085100E1,8.431860209E-1,1.217978001E0,2.979469061E0
3.717284944E1,1.442793846E0,-1.912601590E0,4.226751328E0
3.719284944E1,2.459326029E0,-4.872278690E0,3.811886311E0
3.721284944E1,1.784511924E0,-4.588679790E0,2.687911749E0
3.723284944E1,-5.691344142E-1,-3.071133614E0,6.736796498E-1
3.725484788E1,-3.434179544E0,7.189883590E-1,-7.585200667E-1
3.727484944E1,-3.718947649E0,1.423822165E0,-1.460683465E0
3.729484944E1,-2.820539236E0,1.259429574E0,-1.900366783E0
3.731684944E1,-1.943214655E0,8.798902631E-1,-2.118236303E0
3.733684944E1,-1.415514350E0,-3.310016990E-1,-1.707612634E0
3.735684944E1,-1.216721416E0,-8.399745822E-1,-1.013477802E0
3.737686038E1,-1.003354907E0,-4.206418097E-1,-7.081673145E-1
3.739884944E1,-1.295575380E0,2.690424919E-1,-6.621604562E-1
3.741884944E1,-2.000653505E0,3.507937193E-1,-8.030259609E-1
3.743884944E1,-2.712398767E0,-2.885203660E-1,-1.149770498E0
3.745884944E1,-3.304414511E0,-1.119331956E0,-1.220630884E0
3.747884944E1,-3.199066401E0,-1.098178625E0,-9.701761603E-1
3.749884944E1,-2.476500034E0,-3.485946059E-1,-4.948880970E-1
3.751884944E1,-1.559242249E0,1.921607554E-1,6.614797562E-2
3.753884944E1,-6.529451013E-1,2.968281507E-1,5.238431096E-1
3.755884944E1,-6.935938448E-2,3.087138236E-1,8.791921735E-1
3.757884944E1,4.328416660E-2,6.059259772E-1,9.039234519E-1
3.760084944E1,-4.045498669E-1,6.132214069E-1,4.785343707E-1
3.762084944E1,-9.826727509E-1,5.562713146E-1,-2.196845859E-1
3.764084944E1,-1.487736106E0,2.008524835E-1,-6.430141926E-1
3.766084944E1,-1.426859021E0,-4.344822764E-1,-6.742032170E-1
3.768085100E1,-8.629082441E-1,-1.616715908E0,-2.692519426E-1
3.770284944E1,-1.423839629E-1,-1.857972741E0,2.269626111E-1
3.772284944E1,8.243364692E-1,-1.203526735E0,2.966361642E-1
3.774284944E1,2.029660940E0,2.599318922E-1,3.703414202E-1
3.776284944E1,2.844066381E0,1.417381883E0,9.480977654E-1
3.778284944E1,2.692257643E0,1.815124989E0,1.508051753E0
3.780284944E1,2.001334190E0,1.432862997E0,1.464732647E0
3.782284944E1,1.183106303E0,3.782477677E-1,1.144394875E0
3.784284944E1,1.037580729E0,-6.096609831E-1,8.417199254E-1
3.786484944E1,1.707054138E0,-1.198151112E0,1.006164908E0
3.788484944E1,2.911907196E0,-2.002485991E0,1.631184697E0
3.790484944E1,3.663777590E0,-2.610960245E0,1.932568192E0
3.792684788E1,3.366949558E0,-2.051390171E0,1.587900519E0
3.794685569E1,2.501074314E0,-8.901179433E-1,9.846798778E-1
3.796884944E1,1.562191844E0,2.491108477E-1,2.864085436E-1
3.798884944E1,1.055836916E0,6.630156636E-1,-2.155132592E-1
3.800884944E1,8.312305212E-1,6.455449462E-1,-7.581884861E-1
3.803084944E1,6.380400062E-1,4.718846679E-1,-1.362543583E0
3.805085100E1,4.086513817E-1,2.092998773E-1,-1.641098142E0
3.807284944E1,3.891211450E-1,-4.008497596E-1,-1.210420728E0
3.809284944E1,6.913248897E-1,-1.218885541E0,-4.275183976E-1
3.811484788E1,1.923492432E0,-2.375096321E0,-2.094395168E-4
3.813484944E1,2.882062197E0,-3.511532545E0,-5.818927661E-2
3.815484944E1,1.671205163E0,-1.080655456E0,-1.856157631E-1
3.817484944E1,-2.587101460E-1,1.073761463E0,-1.036900133E-1
3.819484944E1,-2.621222734E0,2.210564137E0,-5.119050667E-2
3.821484944E1,-4.854231834E0,2.485697985E0,-3.092897832E-1
3.823484944E1,-6.218660355E0,2.093470097E0,-9.190205932E-1
3.825484944E1,-6.087114811E0,2.295596600E0,-1.498417497E0
3.827484944E1,-4.276772022E0,1.577219129E0,-1.413699269E0
3.829484944E1,-2.697546005E0,3.373721614E-2,-9.611353874E-1
3.831484944E1,-1.866193295E0,-5.673542023E-1,-8.276002407E-1
3.833484944E1,-1.326083660E0,-4.712912440E-1,-9.497732520E-1
3.835484944E1,-1.017631650E0,2.481509149E-1,-1.107219458E0
3.837484944E1,-1.434363961E0,2.610314488E-1,-1.205359340E0
3.839684944E1,-2.807589054E0,-7.730412483E-1,-1.468118548E0
3.841685100E1,-4.014483929E0,-1.204556465E0,-1.513060808E0
3.843685569E1,-3.770836115E0,1.130973324E-1,-1.051211834E0
3.845884944E1,-2.356403828E0,9.979966879E-1,-4.103967249E-1
3.847884944E1,-1.036585927E0,2.425309569E-1,2.892010510E-1
3.849884944E1,-2.039591819E-1,-7.227582932E-1,7.811919451E-1
3.851884944E1,2.724109888E-1,-1.292800307E0,1.027911663E0
3.853885256E1,5.311735272E-1,-8.488234282E-1,9.805608988E-1
3.856084944E1,4.799655452E-2,1.456721544E0,3.593807518E-1
3.858084944E1,-1.241557360E0,2.354239702E0,-3.930132389E-1
3.860084944E1,-1.982362390E0,-3.105289936E-1,-6.938207150E-1
3.862084944E1,-1.805874705E0,-2.546016455E0,-5.953143239E-1
3.864086038E1,-1.325088859E0,-3.737587690E0,-6.501700282E-1
3.866284944E1,2.760238349E-1,-2.705050945E0,-4.609414637E-1
3.868284944E1,2.462956190E0,-7.419045568E-1,-3.691371381E-1
3.870284944E1,4.326234818E0,6.759310961E-1,1.642703861E-1
3.872284944E1,4.929961681E0,1.967684150E0,9.189158678E-1
3.874284944E1,4.185648441E0,2.635377407E0,1.470108271E0
3.876285100E1,2.804883718E0,1.527616858E0,1.381096482E0
3.878484944E1,1.780427814E0,-1.925796270E-1,1.017718911E0
3.880484944E1,1.499080777E0,-7.234913111E-1,8.228529096E-1
3.882484944E1,1.988314033E0,-1.500058174E0,1.171150804E0
3.884484944E1,3.199659824E0,-2.916148424E0,1.518453956E0
3.886484944E1,3.390040159E0,-2.259258986E0,1.328719139E0
3.888484944E1,2.903599501E0,-4.747295678E-1,8.573929667E-1
3.890484944E1,2.306662083E0,1.423525453E0,4.050909281E-1
3.892484944E1,1.761665583E0,2.467982769E0,2.160717547E-2
3.894484944E1,1.421553254E0,2.241892815E0,-4.188790321E-1
3.896484944E1,1.090027928E0,7.645589113E-1,-7.434753776E-1
3.898484944E1,7.844207883E-1,-5.200208426E-1,-6.688101888E-1
3.900484944E1,7.823264003E-1,-1.408934474E0,-5.134758726E-2
3.902484944E1,1.590902567E0,-2.447684526E0,1.243686676E0
3.904484944E1,3.061830997E0,-2.650963068E0,1.617204666E0
3.906685569E1,4.228531361E0,-2.336856127E0,8.376882076E-1
3.908884944E1,1.880836606E0,1.242552280E0,-5.443681777E-2
3.910884944E1,-1.618792892E0,4.233994007E0,-1.807986498E-1
3.912884944E1,-2.397157431E0,2.868553400E0,-1.248259425E0
3.914885100E1,-2.103802443E0,1.430960536E0,-2.330119371E0
3.917084944E1,-1.534371257E0,4.930555224E-1,-2.249659538E0
3.919084944E1,-6.905395389E-1,-6.452133060E-1,-1.457280159E0
3.921084944E1,-2.250602096E-1,-8.110893965E-1,-9.652194381E-1
3.923084944E1,-2.547307909E-1,1.104793418E-2,-7.845429778E-1
3.925084944E1,-4.860916436E-1,6.404834986E-1,-7.047116160E-1
3.927084944E1,-8.029038310E-1,1.109017134E0,-5.485220551E-1
3.929084944E1,-1.109243989E0,1.217297316E0,-2.636494339E-1
3.931084944E1,-1.273462057E0,8.107926846E-1,-5.099852011E-2
3.933084944E1,-1.305139780E0,-4.537856206E-3,6.565928459E-2
3.935084944E1,-9.961466789E-1,-6.669251919E-1,9.402088821E-2
3.937084944E1,-4.328765571E-1,-1.171866417E0,9.436995536E-2
3.939084944E1,9.269443899E-2,-1.632231951E0,2.456725389E-1
3.941285100E1,3.820002079E-1,-1.203317285E0,6.602755189E-1
3.943484944E1,-3.092723340E-2,7.464947701E-1,9.268221855E-1
3.945484944E1,-1.093745470E0,8.026943803E-1,3.058864176E-1
3.947685100E1,-9.230348468E-1,-8.995427191E-2,-3.524692357E-1
3.949884944E1,2.047096640E-1,-2.564237714E-1,-1.721941829E-1
3.951885725E1,1.107167006E0,-1.046569228E0,-1.325054020E-1
3.954084944E1,1.692341089E0,-1.221154571E0,-7.524114102E-2
3.956084944E1,2.215014696E0,-6.372545958E-1,1.259604096E-1
3.958284944E1,3.473414660E0,5.424308777E-1,8.349654824E-2
3.960284944E1,4.529042244E0,1.405949950E0,5.321159959E-1
3.962284944E1,4.617094040E0,1.845772982E0,1.348720670E0
3.964284944E1,3.549127102E0,1.905428290E0,1.744421721E0
3.966284944E1,2.161031723E0,6.515139341E-1,1.161010504E0
3.968284944E1,1.326485157E0,1.820901930E-1,5.800776482E-1
3.970284944E1,1.321353912E0,6.100274920E-1,7.007496953E-1
3.972284944E1,1.651587605E0,1.468345523E-1,1.369088650E0
3.974284944E1,3.058130980E0,-1.807305932E0,2.196025610E0
3.976284944E1,4.089812756E0,-2.402550459E0,2.612024784E0
3.978284944E1,3.752737045E0,-1.050216913E0,2.212169886E0
3.980484944E1,2.522262573E0,7.778932452E-1,1.449024677E0
3.982484944E1,1.495991468E0,1.553063750E0,8.344942927E-1
3.984484944E1,5.794318318E-1,1.340395451E0,3.529928327E-1
3.986484944E1,3.310889602E-1,-7.119198143E-2,-1.887399107E-1
3.988484944E1,9.112364054E-1,-1.283340573E0,-4.833689332E-1
3.990484944E1,1.654013634E0,-1.566293359E0,-6.238679290E-1
3.992684788E1,2.120033979E0,-1.327078581E0,-3.493974507E-1
3.994684944E1,2.367033005E0,-1.189581513E0,4.769810438E-1
3.996686662E1,3.060068369E0,-2.729241133E0,6.996501088E-1
3.998884944E1,2.153841019E0,-1.829785705E0,7.062125802E-1
4.000884944E1,3.011565506E-1,-1.230108067E-1,3.348414302E-1
4.002884944E1,-3.938789129E0,3.506471157E0,-3.641105890E-1
4.004884944E1,-5.898602009E0,5.336012363E0,-1.977841973E0
4.006884944E1,-4.490243435E0,4.255810738E0,-3.047606707E0
4.008884944E1,-1.755993247E0,1.153313592E-1,-2.864905596E0
4.010884944E1,-3.514045775E-1,-2.456341505E0,-2.319437742E0
4.012886194E1,-3.246312495E-3,-1.350884795E0,-1.633261681E0
4.015084944E1,3.228161037E-1,-3.933623135E-1,-1.108650565E0
4.017084944E1,3.440567553E-1,-5.105087906E-2,-7.525859475E-1
4.019284944E1,-3.071081340E-1,1.524894089E-1,-5.698674321E-1
4.021284944E1,-1.123974562E0,1.555088311E-1,-6.639755964E-1
4.023284944E1,-1.815281987E0,-3.520154655E-1,-1.052503347E0
4.025284944E1,-2.842879534E0,-1.922270775E0,-1.511943817E0
4.027284944E1,-3.135065079E0,-2.189934492E0,-1.546414018E0
4.029285100E1,-2.342249393E0,-1.110675216E0,-9.368054867E-1
4.031484944E1,-8.372169733E-1,3.537433445E-1,1.491558403E-1
4.033484944E1,1.443736404E-1,3.576528728E-1,8.832064271E-1
4.035484944E1,1.461713314E-1,-1.189494252E0,8.819497824E-1
4.037484944E1,-9.389348030E-1,-2.906758547E0,2.187421173E-1
4.039484944E1,-1.279221654E0,-1.434416294E0,-8.943066746E-2
4.041484944E1,-3.752807081E-1,9.300859571E-1,-8.084364980E-2
4.043484944E1,2.023709267E-1,1.347743273E0,1.402022988E-1
4.045484944E1,1.292765439E-1,-3.140545487E-1,4.199611247E-1
4.047686350E1,1.129245520E0,-1.324757218E0,6.906268001E-1
4.049884944E1,3.213570118E0,6.314601004E-2,2.885029316E-1
4.051884944E1,4.792988300E0,1.772294641E0,1.124341115E-1
4.053884944E1,4.473278999E0,1.909372687E0,1.179388762E0
4.055884944E1,3.337540865E0,3.330210447E0,2.091655016E0
4.057884944E1,1.797916055E0,3.392379045E0,2.035385609E0
4.059884944E1,3.790156841E-1,8.217359185E-1,1.211171269E0
4.061884944E1,-2.065073550E-1,-1.127761960E0,6.036744714E-1
4.063884944E1,2.214822769E-1,-1.193962336E0,6.953566074E-1
4.065884944E1,1.200420022E0,-1.357080698E0,1.166124225E0
4.067884944E1,2.307901144E0,-1.954838514E0,1.584008455E0
4.070084788E1,2.888537407E0,-1.701416731E0,1.823223233E0
4.072085256E1,2.560380459E0,-1.005676150E0,1.694976449E0
4.074284788E1,2.069628954E0,-4.445179105E-1,1.050775528E0
4.076284944E1,1.922811747E0,1.151742786E-1,3.324852288E-1
4.078284944E1,2.097379684E0,4.971046746E-1,-2.282890677E-1
4.080284944E1,2.008193254E0,2.857802212E-1,-6.676931381E-1
4.082284944E1,1.739150763E0,-3.460813463E-1,-9.639977217E-1
4.084284944E1,1.821512818E0,-1.467839360E0,-1.901710778E-1
4.086284944E1,2.185361624E0,-2.144555807E0,1.246444345E0
4.088284944E1,2.464300156E0,-3.208892584E0,1.591216683E0
4.090284944E1,2.109265327E0,-4.048971653E0,5.514018536E-1
4.092284944E1,1.075803518E0,-2.323417187E0,3.881612420E-2
4.094484944E1,-2.079559803E0,1.616227269E0,-3.684040904E-1
4.096484944E1,-5.445671558E0,4.445650101E0,-1.151987076E0
4.098484944E1,-6.217281818E0,4.528308868E0,-2.396581411E0
4.100484944E1,-5.311647892E0,4.439803600E0,-2.971859455E0
4.102484944E1,-3.227951527E0,2.069908142E0,-2.468837976E0
4.104684944E1,-1.558753490E0,-7.866373658E-1,-1.258190393E0
4.106684944E1,-7.044672370E-1,-7.903723717E-1,-9.117599726E-1
4.108685569E1,-1.579872072E-1,-5.730439425E-1,-8.019264340E-1
4.110884944E1,4.572762642E-3,-2.975786291E-2,-7.004006505E-1
4.112885256E1,-1.345648915E-1,3.911108375E-1,-7.511897087E-1
4.115084944E1,-1.224313617E0,-5.068959594E-1,-1.145110488E0
4.117084944E1,-3.098186255E0,-1.847937107E0,-1.490406513E0
4.119084944E1,-4.054853439E0,-1.590082169E0,-1.180226564E0
4.121084944E1,-3.681073904E0,1.727875904E-3,-6.190682650E-1
4.123084944E1,-2.649392366E0,7.855028510E-1,-2.635447122E-2
4.125084944E1,-1.354043841E0,5.470210910E-1,4.630009532E-1
4.127284944E1,9.820967913E-2,-2.956936955E-1,5.283460617E-1
4.129285100E1,9.418669343E-1,-8.997521400E-1,5.515065789E-1
4.131484944E1,2.054077983E-1,-1.341861486E0,-3.156253397E-1
4.133484944E1,-1.208570719E0,-6.026621908E-2,-5.656961203E-1
4.135686506E1,-1.191693306E0,1.402616382E0,-1.691223979E-1
