"Time (s)","Linear Acceleration x (m/s^2)","Linear Acceleration y (m/s^2)","Linear Acceleration z (m/s^2)"
4.000000000E-3,2.120800018E0,-4.177000046E0,-5.001299858E0
3.399843700E-2,1.234899998E0,2.360000014E-1,-1.167780018E1
5.400000000E-2,2.476999909E-1,-1.383799911E0,-9.339599609E0
8.399843700E-2,3.282500029E0,-2.365099907E0,-1.040400028E0
1.039984370E-1,4.097000122E0,-1.561900020E0,9.863900185E0
1.239984370E-1,4.805200100E0,1.528800011E0,1.570429993E1
1.439984370E-1,1.391299963E0,4.020999908E0,1.129220009E1
1.639984370E-1,-2.103600025E0,3.005100012E0,4.841599941E0
1.839984370E-1,-4.324599743E0,1.720699906E0,1.472599983E0
2.040000000E-1,-6.243399620E0,1.125299931E0,-3.876000047E-1
2.339984370E-1,-7.718099594E0,-3.844999969E-1,-1.638799906E0
2.539984370E-1,-7.299899578E0,-1.639799953E0,-1.904699922E0
2.740000000E-1,-6.502999783E0,-2.716300011E0,-2.192199945E0
3.039968750E-1,-5.349299908E0,-2.688499928E0,-1.397699952E0
3.240031250E-1,-4.884399891E0,-1.198899984E0,9.970999956E-1
3.539984370E-1,-2.520699978E0,1.244899988E0,2.878299952E0
3.839968750E-1,1.816699982E0,3.528999805E0,2.437500000E0
4.039984370E-1,7.276399612E0,2.919399977E0,6.659999490E-2
4.240062500E-1,1.320759964E1,2.214499950E0,-3.566599846E0
4.539984370E-1,2.315799952E0,6.964499950E0,-1.307929993E1
4.739984370E-1,-7.859999686E-2,6.157499790E0,-7.326699734E0
4.939984370E-1,2.436800003E0,3.442899942E0,1.329399943E0
5.240000000E-1,-1.474999905E0,1.491999924E-1,3.367499828E0
5.539968750E-1,6.672999859E-1,1.950999945E-1,4.092700005E0
5.739984370E-1,3.520900011E0,7.356999516E-1,4.707799911E0
5.939984370E-1,4.448800087E0,8.934999704E-1,4.352399826E0
6.139984370E-1,3.693699837E0,-7.515999675E-1,8.196199417E0
6.339984370E-1,2.073099852E0,-2.337899923E0,8.784599304E0
6.539984370E-1,-2.402999878E0,-1.080899954E0,2.108999968E0
6.739984370E-1,-4.775099754E0,-5.469999835E-2,6.827999949E-1
7.040000000E-1,-6.645299911E0,8.039000034E-1,1.410999894E-1
7.339984370E-1,-6.273699760E0,8.496999741E-1,6.409999728E-2
7.539984370E-1,-5.439399719E0,1.217899919E0,-5.403999686E-1
7.739984370E-1,-4.600899696E0,7.813000083E-1,-1.825500011E0
8.039968750E-1,-3.763700008E0,-1.090099931E0,-7.512999773E-1
8.239984370E-1,-2.164299965E0,-2.041699886E0,-1.574999988E-1
8.439984370E-1,1.819999889E-2,-2.287199974E0,7.079999894E-2
8.639984370E-1,2.673199892E0,-2.110899925E0,5.629999638E-1
8.839984370E-1,5.266900063E0,-1.633099914E0,1.090700030E0
9.039984370E-1,7.389999866E0,-3.011600018E0,5.121999979E-1
9.240000000E-1,4.692299843E0,-4.501399994E0,-2.520699978E0
9.539984370E-1,5.590000004E-2,-1.158699989E0,-1.226200008E1
9.739984370E-1,6.128000021E-1,6.582999825E-1,-8.840099335E0
9.939984370E-1,-9.473999739E-1,-1.272300005E0,-6.542500019E0
1.013998437E0,3.835999966E-1,-2.743099928E0,-5.514699936E0
1.033998437E0,3.627799988E0,-4.249099731E0,3.750999928E0
1.053998437E0,4.450599670E0,-2.914899826E0,1.118989944E1
1.073998437E0,4.490200043E0,-3.504000008E-1,1.446309948E1
1.093998437E0,1.010599971E0,2.000599861E0,1.101340008E1
1.113998437E0,-2.551399946E0,1.815899968E0,5.261799812E0
1.133998437E0,-4.610699654E0,9.320999980E-1,2.063899994E0
1.163998437E0,-7.561199665E0,-2.264999896E-1,4.887000024E-1
1.183998437E0,-7.833599567E0,-1.067000031E0,-1.068999991E-1
1.203998437E0,-7.659999847E0,-1.680599928E0,-8.642999530E-1
1.223998437E0,-6.823799610E0,-2.105700016E0,-2.082499981E0
1.243998437E0,-6.237199783E0,-1.998399973E0,-2.702299833E0
1.273998437E0,-4.372299671E0,-7.768999934E-1,-2.421999872E-1
1.293998437E0,-1.791199923E0,-4.969999939E-2,1.361799955E0
1.314039062E0,1.455399990E0,5.159999728E-1,1.578799963E0
1.343998437E0,8.389200211E0,1.529699922E0,-3.280000016E-2
1.373996875E0,9.327199936E0,4.638000011E0,-1.642300010E0
1.393998437E0,4.695600033E0,6.600499630E0,-5.296299934E0
1.413998437E0,1.917299986E0,7.027799606E0,-1.150769997E1
1.433998437E0,2.083099842E0,4.812699795E0,-5.782000065E0
1.453998437E0,2.699300051E0,1.249599934E0,1.639699936E0
1.483998437E0,-1.197700024E0,-5.342000127E-1,2.518699884E0
1.503998437E0,7.045999765E-1,-5.981999636E-1,3.479699850E0
1.533998437E0,3.155999899E0,-5.570000038E-2,4.316899776E0
1.563998437E0,2.804699898E0,-2.437500000E0,6.977599621E0
1.583998437E0,4.894999862E-1,-2.652400017E0,5.580399990E0
1.603998437E0,-1.198099971E0,-1.793099999E0,1.550699949E0
1.633998437E0,-4.391200066E0,-3.177999854E-1,2.759299994E0
1.663996875E0,-6.505300045E0,5.825999975E-1,1.202099919E0
1.683996875E0,-6.717199802E0,7.567999959E-1,6.588000059E-1
1.703998437E0,-6.218999863E0,-2.716000080E-1,2.779999971E-1
1.723998437E0,-5.807099819E0,-9.029999971E-1,-3.877999783E-1
1.743998437E0,-5.373899937E0,-1.411899924E0,-4.002999961E-1
1.773998437E0,-3.466699839E0,-1.553099990E0,-4.957000017E-1
1.793998437E0,-1.561699986E0,-1.809599996E0,-1.749999970E-1
1.813998437E0,1.510100007E0,-1.302899957E0,1.034099936E0
1.844000000E0,7.939699650E0,8.057000041E-1,3.412699938E0
1.873996875E0,6.878200054E0,-6.874699593E0,-7.680999756E0
1.893998437E0,4.784999788E-1,-3.367199898E0,-1.591549969E1
1.913998437E0,7.867999673E-1,-7.050000131E-2,-9.364099503E0
1.933998437E0,2.209999971E-2,-2.254899979E0,-4.482899666E0
1.953998437E0,-1.003399968E0,-2.961699963E0,-4.789700031E0
1.973998437E0,1.406499982E0,-4.980999947E0,1.421599984E0
1.993998437E0,3.721299887E0,-5.568199635E0,8.391499519E0
2.023996875E0,4.167399883E0,-5.778999925E-1,1.560949993E1
2.043998437E0,1.753099918E0,2.659299850E0,1.122099972E1
2.063998437E0,-1.570500016E0,2.672099829E0,5.073100090E0
2.083998437E0,-4.480099678E0,1.491799951E0,2.043699980E0
2.103998437E0,-7.133399963E0,4.996999800E-1,5.266000032E-1
2.133998437E0,-8.341199875E0,-1.107399940E0,-1.556999981E-1
2.153998437E0,-8.098299980E0,-1.987800002E0,-7.791999578E-1
2.173998437E0,-7.667399883E0,-2.581099987E0,-1.627499938E0
2.203998437E0,-5.848000050E0,-3.091699839E0,-1.359399915E0
2.233996875E0,-4.518799782E0,4.299999680E-3,1.518499970E0
2.253998437E0,-1.949199915E0,1.956200004E0,2.328299999E0
2.273998437E0,2.437500000E0,3.214299917E0,1.827099919E0
2.303996875E0,1.100999928E1,3.744400024E0,-3.466199875E0
2.323998437E0,1.186749935E1,5.223599911E0,-9.480400085E0
2.343998437E0,3.930899858E0,7.152199745E0,-1.005109978E1
2.363998437E0,-7.206000090E-1,5.878799915E0,-7.142999649E0
2.393998437E0,1.758999944E0,7.845000029E-1,9.878000021E-1
2.414000000E0,1.711999923E-1,-1.776099920E0,1.542899966E0
2.443998437E0,-5.062000155E-1,-1.439499974E0,3.843400002E0
2.463998437E0,3.431099892E0,3.399999812E-3,5.128699780E0
2.483998437E0,6.055399895E0,9.623000026E-1,2.562899828E0
2.503998437E0,6.929899693E0,-1.838599920E0,7.127899647E0
2.523998437E0,5.680500031E0,-4.213399887E0,1.259480000E1
2.543998437E0,-1.567000002E-1,-2.491799831E0,4.472499847E0
2.563998437E0,-4.480099678E0,-7.609999776E-1,9.215999842E-1
2.583998437E0,-6.592899799E0,2.216999978E-1,5.306000113E-1
2.603998437E0,-6.698099613E0,1.086699963E0,6.919999719E-1
2.633998437E0,-5.624099731E0,2.316799879E0,-2.252999991E-1
2.663996875E0,-6.865099907E0,1.542299986E0,-2.008599997E0
2.683998437E0,-7.008899689E0,9.993999600E-1,-1.214900017E0
2.703998437E0,-6.706799984E0,6.344000101E-1,-1.819999889E-2
2.723998437E0,-4.660099983E0,1.136999950E-1,6.650000066E-2
2.743998437E0,-9.817999601E-1,-6.319999695E-1,-9.969999641E-2
2.763998437E0,2.939999819E0,-1.333699942E0,1.080500007E0
2.783998437E0,7.762300014E0,-8.453999758E-1,2.961499929E0
2.813998437E0,9.582399368E0,-8.578299522E0,-7.698000073E-1
2.833998437E0,9.907999635E-1,-7.856899738E0,-7.608599663E0
2.853998437E0,-1.118600011E0,-2.801599979E0,-1.209509945E1
2.883996875E0,-1.152999997E-1,-1.934099913E0,-7.240699768E0
2.903998437E0,1.017400026E0,-2.960899830E0,-3.395699978E0
2.924007812E0,4.245800018E0,-4.196300030E0,1.904899955E0
2.953998437E0,5.874499798E0,-1.728099942E0,1.190229988E1
2.983998437E0,1.823399901E0,3.593899965E0,1.408939934E1
3.003998437E0,-1.956799984E0,2.484299898E0,6.882499695E0
3.033998437E0,-5.528399944E0,-2.089999914E-1,8.016999960E-1
3.053998437E0,-7.343099594E0,-9.242999554E-1,1.709000021E-1
3.073998437E0,-7.619799614E0,-1.598899961E0,-4.009999931E-1
3.103998437E0,-7.142099857E0,-2.695799828E0,-1.571499944E0
3.133998437E0,-7.398799896E0,-3.126099825E0,-2.398699999E0
3.153998437E0,-7.484099865E0,-2.265399933E0,-2.440700054E0
3.173998437E0,-5.833600044E0,-8.640999794E-1,-1.149199963E0
3.193998437E0,-2.869299889E0,5.631999969E-1,7.005000114E-1
3.213998437E0,1.136999965E0,1.966299891E0,1.974199891E0
3.233998437E0,7.731499672E0,3.065699816E0,2.425999880E0
3.253998437E0,1.341659927E1,4.439399719E0,1.818999946E-1
3.273998437E0,1.026709938E1,5.843400002E0,-4.358799934E0
3.293998437E0,2.114399910E0,7.348899841E0,-1.022459984E1
3.313998437E0,4.186999798E-1,6.490900040E0,-7.959299564E0
3.333998437E0,3.552599907E0,2.869899988E0,6.049000025E-1
3.353998437E0,6.344999671E-1,-5.070999861E-1,2.233299971E0
3.373998437E0,-1.147799969E0,-6.807999611E-1,2.456500053E0
3.393998437E0,3.543999791E-1,4.738999903E-1,3.845199823E0
3.414000000E0,4.395100117E0,1.376399994E0,4.284800053E0
3.443998437E0,5.340300083E0,-3.551999927E-1,4.163799763E0
3.463998437E0,4.262099743E0,-2.874699831E0,7.788499832E0
3.483998437E0,6.265000105E-1,-3.286999941E0,5.942100048E0
3.503998437E0,-4.072700024E0,-1.175499916E0,2.347899914E0
3.523998437E0,-6.342499733E0,1.959999949E-1,1.313399911E0
3.543998437E0,-7.622200012E0,8.456999660E-1,9.017999768E-1
3.564000000E0,-7.138799667E0,1.287699938E0,1.081900001E0
3.593998437E0,-5.585299969E0,7.292999625E-1,-2.536999881E-1
3.613998437E0,-5.302399635E0,-1.864999980E-1,-1.516999960E0
3.634000000E0,-4.889100075E0,-2.569999993E-1,-8.588999510E-1
3.663998437E0,-2.986500025E0,-4.928999841E-1,2.132999897E-1
3.683998437E0,3.682000041E-1,-1.197700024E0,1.114699960E0
3.704000000E0,5.014499664E0,-1.698399901E0,2.605599880E0
3.733998437E0,9.181499481E0,-5.101999760E0,-2.703999877E-1
3.753998437E0,6.251999855E0,-5.723399639E0,-7.326999903E-1
3.773998437E0,6.953599930E0,-3.001099825E0,-5.887300014E0
3.793998437E0,1.549399972E0,-1.238399982E0,-7.566199780E0
3.813998437E0,-1.513700008E0,-2.026299953E0,-7.313399792E0
3.833998437E0,9.839999676E-2,-4.203799725E0,-7.270000130E-2
3.853998437E0,2.589299917E0,-2.869400024E0,2.799499989E0
3.873998437E0,3.831899881E0,2.309999913E-1,6.055299759E0
3.893998437E0,2.477499962E0,5.238699913E0,9.937299728E0
3.913998437E0,-1.720899940E0,6.867499828E0,9.962800026E0
3.933998437E0,-4.817299843E0,3.148499966E0,3.833699942E0
3.963998437E0,-7.983599663E0,2.084999979E-1,-2.392999977E-1
3.993998437E0,-9.163000107E0,-1.077000022E0,-1.561100006E0
4.023996875E0,-8.199699402E0,-1.995499969E0,-1.934699893E0
4.043998437E0,-5.929100037E0,-2.524099827E0,-1.804199934E0
4.064000000E0,-2.301499844E0,-2.886600018E0,-3.603999913E-1
4.093998437E0,6.430000067E-2,-5.514999628E-1,2.145200014E0
4.113998437E0,1.194899917E0,1.422599912E0,1.889400005E0
4.133998437E0,3.497599840E0,1.344599962E0,1.979999989E-1
4.153998437E0,6.393499851E0,1.080699921E0,-1.651099920E0
4.173998437E0,9.109299660E0,1.945499897E0,-3.809199810E0
4.193998437E0,7.074800014E0,4.750999928E0,-5.752299786E0
4.213998437E0,2.378299952E0,6.799499989E0,-7.195799828E0
4.233998437E0,-5.236999989E-1,6.700299740E0,-5.181699753E0
4.253998437E0,1.784699917E0,2.552199841E0,1.327299953E0
4.273998437E0,-1.453299999E0,7.299999706E-3,1.676899910E0
4.293998437E0,-1.930999994E0,-7.872999907E-1,2.213099957E0
4.323998437E0,3.079999924E0,6.610000134E-2,4.179699898E0
4.343998437E0,3.856099844E0,6.133999825E-1,2.755599976E0
4.363998437E0,3.784699917E0,-6.169999838E-1,1.169700027E0
4.393998437E0,2.001199961E0,-3.475299835E0,8.695199966E0
4.413998437E0,-2.862099886E0,-2.036099911E0,4.538199902E0
4.433998437E0,-5.830199718E0,-4.640999734E-1,2.387300014E0
4.453998437E0,-7.187999725E0,1.099999994E-2,2.071799994E0
4.473998437E0,-7.593400002E0,3.999999762E-1,1.454800010E0
4.493998437E0,-6.834099770E0,1.236299992E0,1.274699926E0
4.513998437E0,-6.148999691E0,9.802999496E-1,-8.072999716E-1
4.543998437E0,-4.859099865E0,1.152999997E-1,-2.038199902E0
4.563998437E0,-3.969399929E0,-4.165999889E-1,-1.179799914E0
4.583998437E0,-1.938599944E0,-1.251699924E0,-6.535999775E-1
4.613998437E0,4.142899990E0,-1.926499963E0,7.925999761E-1
4.633998437E0,7.164599895E0,-5.015000105E-1,2.608899832E0
4.663996875E0,6.742399693E0,-5.050199986E0,-1.569499969E0
4.683998437E0,1.779500008E0,-5.722300053E0,-5.780200005E0
4.703998437E0,-8.789999485E-1,-3.507799864E0,-1.254759979E1
4.723998437E0,2.255599976E0,1.017799973E0,-1.026019955E1
4.743998437E0,4.233999848E-1,-3.211999834E-1,-4.908999920E0
4.773998437E0,7.981999516E-1,-2.636099815E0,3.073999882E-1
4.793998437E0,4.181099892E0,-3.169799805E0,5.396499634E0
4.823996875E0,4.012799740E0,1.694999933E-1,1.309200001E1
4.844000000E0,1.339699984E0,3.444299936E0,1.241919994E1
4.873998437E0,-3.088799953E0,2.467399836E0,3.468899965E0
4.893998437E0,-4.881199837E0,9.326999784E-1,9.948999882E-1
4.913998437E0,-7.125199795E0,2.339999974E-1,5.579999834E-2
4.933998437E0,-7.787099838E0,-6.035999656E-1,-5.512999892E-1
4.953998437E0,-7.610999584E0,-1.582199931E0,-7.917999625E-1
4.973998437E0,-6.691699982E0,-2.539499998E0,-1.601799965E0
4.993998437E0,-5.397799969E0,-3.219399929E0,-1.493999958E0
5.023996875E0,-4.179299831E0,-1.719999909E0,1.100099921E0
5.043996875E0,-3.148999929E0,2.210999876E-1,1.687399983E0
5.063996875E0,-7.669000030E-1,1.531700015E0,1.341899991E0
5.083996875E0,2.876399994E0,2.152999878E0,9.435999990E-1
5.103998437E0,8.474299431E0,1.565199971E0,-7.524999976E-1
5.133998437E0,1.146519947E1,3.868699789E0,-8.830800056E0
5.153998437E0,1.651399970E0,7.724699974E0,-1.004850006E1
5.173998437E0,1.103199959E0,7.912099838E0,-3.535300016E0
5.193998437E0,3.859499931E0,3.360699892E0,2.997499943E0
5.213998437E0,5.799999833E-2,3.407999873E-1,3.173099995E0
5.243996875E0,-1.077999949E0,-6.852999926E-1,4.086400032E0
5.263996875E0,6.664999723E-1,8.689999580E-2,3.263899803E0
5.283996875E0,2.556799889E0,6.260000169E-2,1.427299976E0
5.303996875E0,3.854499817E0,-1.523699999E0,1.856299996E0
5.323996875E0,4.014699936E0,-3.061300039E0,6.543099880E0
5.343998437E0,9.018999934E-1,-2.898299932E0,6.423899651E0
5.363998437E0,-3.149600029E0,-1.167400002E0,2.110699892E0
5.383998437E0,-5.318999767E0,4.889999703E-2,1.054399967E0
5.403998437E0,-6.041599751E0,1.628600001E0,1.674600005E0
5.423998437E0,-6.455800056E0,2.654899836E0,9.027999640E-1
5.453996875E0,-5.567199707E0,1.122300029E0,-1.356199980E0
5.473998437E0,-5.311899662E0,9.610999823E-1,-4.714999795E-1
5.493998437E0,-5.285799980E0,1.166899920E0,-4.725999832E-1
5.513998437E0,-3.969299793E0,8.940000087E-2,-1.605999917E-1
5.533998437E0,-1.092100024E0,-1.393399954E0,3.439999744E-2
5.553998437E0,2.197000027E0,-2.167599916E0,1.198400021E0
5.573998437E0,5.653399944E0,-1.762799978E0,2.959100008E0
5.593998437E0,7.674199581E0,-3.555099964E0,-6.669999957E-1
5.613998437E0,4.756199837E0,-5.912299633E0,-1.794399977E0
5.633998437E0,1.334599972E0,-6.520799637E0,-4.950500011E0
5.653998437E0,-2.579999864E-1,-2.746599913E0,-1.242280006E1
5.673998437E0,4.427999854E-1,8.253999949E-1,-9.254899979E0
5.703998437E0,-1.468999982E-1,-2.415799856E0,-6.946199894E0
5.733998437E0,5.135900021E0,-3.423199892E0,7.127199650E0
5.763996875E0,4.608299732E0,1.554899931E0,1.385349941E1
5.783998437E0,9.860999584E-1,3.713099957E0,1.122559929E1
5.803998437E0,-1.974399924E0,2.595299959E0,5.422599792E0
5.823998437E0,-3.598299980E0,1.224399924E0,2.180799961E0
5.843998437E0,-6.018799782E0,6.930999756E-1,1.030599952E0
5.863998437E0,-7.082799911E0,-2.789999917E-2,5.888999701E-1
5.893998437E0,-7.151199818E0,-1.511399984E0,-2.407999933E-1
5.913998437E0,-5.771499634E0,-2.599699974E0,-9.400999546E-1
5.933998437E0,-4.661099911E0,-3.606699944E0,-1.327299953E0
5.953998437E0,-4.019000053E0,-2.851599932E0,-5.602999926E-1
5.973998437E0,-4.479099751E0,-6.352999806E-1,9.009000063E-1
5.993998437E0,-3.283099890E0,8.405999541E-1,1.861999989E0
6.013998437E0,-9.831999540E-1,1.628099918E0,1.579599977E0
6.033998437E0,1.956900001E0,1.981099963E0,5.037999749E-1
6.063998437E0,9.743899345E0,1.988399982E0,-5.515299797E0
6.083998437E0,1.078559971E1,3.997200012E0,-9.854199409E0
6.103998437E0,3.382399797E0,6.965499878E0,-8.370200157E0
6.123998437E0,-1.137599945E0,7.152699947E0,-4.323899746E0
6.143998437E0,2.572299957E0,3.343199968E0,1.747699976E0
6.163998437E0,1.241500020E0,1.693999916E-1,2.080600023E0
6.183998437E0,-1.106899977E0,-7.364999652E-1,2.048699856E0
6.204000000E0,2.590000033E-1,-3.434999883E-1,3.857899904E0
6.233998437E0,3.565099955E0,-5.079999939E-2,3.036499977E0
6.253998437E0,3.887799978E0,-1.339599967E0,1.311499953E0
6.274000000E0,4.491300106E0,-3.197899818E0,5.418600082E0
6.304039062E0,1.086400032E0,-3.569700003E0,5.265599728E0
6.333998437E0,-4.316599846E0,-1.393700004E0,7.355999947E-1
6.353998437E0,-5.433700085E0,3.720999956E-1,1.711599946E0
6.373998437E0,-6.516900063E0,2.203299999E0,2.189599991E0
6.393998437E0,-7.206599712E0,2.944000006E0,9.660999775E-1
6.413998437E0,-6.464999676E0,2.169899940E0,-5.979999900E-1
6.433998437E0,-6.099599838E0,1.898799896E0,2.814999819E-1
6.453998437E0,-6.075599670E0,2.119699955E0,1.115299940E0
6.473998437E0,-5.055900097E0,1.863699913E0,9.993000031E-1
6.493998437E0,-2.401200056E0,5.551999807E-1,4.553999901E-1
6.513998437E0,1.452299953E0,-1.019199967E0,6.721000075E-1
6.533998437E0,5.693799973E0,-2.298199892E0,1.615099907E0
6.563998437E0,8.331899643E0,-7.048499584E0,-2.749500036E0
6.583998437E0,3.592599869E0,-8.205800056E0,-4.678800106E0
6.603998437E0,9.899999946E-2,-6.722599983E0,-1.017719936E1
6.633998437E0,1.830500007E0,-1.358999908E-1,-7.910499573E0
6.653998437E0,-5.898999572E-1,-1.938599944E0,-6.373300076E0
6.673998437E0,1.001199961E0,-4.106599808E0,9.497999549E-1
6.703998437E0,5.486799717E0,-4.334499836E0,8.808899879E0
6.723998437E0,5.825099945E0,-8.136000037E-1,1.193260002E1
6.753996875E0,6.913999915E-1,4.097499847E0,1.199429989E1
6.773998437E0,-3.042799950E0,3.173300028E0,4.928999901E0
6.793998437E0,-4.822400093E0,1.437999964E0,2.000799894E0
6.813998437E0,-7.098000050E0,3.533999920E-1,1.252999902E-1
6.833998437E0,-7.668799877E0,-5.281999707E-1,-3.967999816E-1
6.853998437E0,-7.702399731E0,-1.074499965E0,-7.744999528E-1
6.883996875E0,-6.286999702E0,-2.089599848E0,-1.697299957E0
6.903998437E0,-5.133800030E0,-2.590899944E0,-1.372799993E0
6.923998437E0,-4.380399704E0,-1.655699968E0,6.791999936E-1
6.953998437E0,-3.488899946E0,6.216999888E-1,2.064800024E0
6.973998437E0,-1.200199962E0,1.308599949E0,1.877999902E0
6.993998437E0,1.975999951E0,1.804499984E0,1.446299911E0
7.013998437E0,5.939199924E0,2.137799978E0,-4.136999846E-1
7.033998437E0,9.713399887E0,3.412799835E0,-4.397399902E0
7.063998437E0,4.378499985E0,7.671199799E0,-1.187699986E1
7.083998437E0,5.559999943E-1,7.317399979E0,-1.118419933E1
7.103998437E0,-4.249999821E-1,5.550199986E0,-2.371199846E0
7.133998437E0,2.507599831E0,8.669999987E-2,3.361999989E0
7.163998437E0,-8.459999561E-1,-1.239799976E0,3.848899841E0
7.183998437E0,3.443499804E0,-1.566499949E0,5.361899853E0
7.203998437E0,4.315299988E0,-6.212999821E-1,4.098899841E0
7.223998437E0,4.411499977E0,-1.449699998E0,1.246399999E0
7.253998437E0,3.981799841E0,-3.190799952E0,6.803599834E0
7.273998437E0,1.310599923E0,-3.291399956E0,8.366499901E0
7.293998437E0,-3.332899809E0,-1.359899998E0,3.207899809E0
7.323998437E0,-7.417999744E0,-3.082999885E-1,2.985000014E-1
7.343998437E0,-6.678199768E0,4.773999751E-1,1.491099954E0
7.363998437E0,-6.364399910E0,1.799399972E0,1.375299931E0
7.383998437E0,-6.303099632E0,2.444399834E0,2.135999918E0
7.403998437E0,-6.721799850E0,2.271499872E0,1.271700025E0
7.423998437E0,-5.775599957E0,1.934499979E0,1.442199945E0
7.444000000E0,-3.836099863E0,1.559499979E0,3.748999834E-1
7.473998437E0,6.383000016E-1,-3.579999879E-2,-3.274999857E-1
7.493998437E0,3.687899828E0,-1.680999994E0,-1.776999980E-1
7.513998437E0,6.403199673E0,-4.312099934E0,-1.399599910E0
7.533998437E0,6.765699863E0,-7.458399773E0,-3.722199917E0
7.553998437E0,3.040799856E0,-8.588099480E0,-3.994399786E0
7.573998437E0,3.056999922E0,-5.516599655E0,-9.221899986E0
7.593998437E0,4.100699902E0,-9.960999489E-1,-8.369400024E0
7.613998437E0,3.928999901E-1,-2.639699936E0,-6.719099998E0
7.633998437E0,1.784399986E0,-3.886899948E0,2.679299831E0
7.663996875E0,4.901499748E0,-2.225499868E0,7.385999680E0
7.683998437E0,4.327699661E0,3.390000015E-2,9.021100044E0
7.703998437E0,1.111899972E0,4.223799706E0,1.442389965E1
7.723998437E0,-2.427799940E0,5.513000011E0,9.747200012E0
7.743998437E0,-4.325299740E0,2.665400028E0,2.875999928E0
7.763998437E0,-5.906599998E0,8.678999543E-1,7.911999822E-1
7.783998437E0,-7.233999729E0,-3.552999794E-1,-6.782000065E-1
7.813996875E0,-7.316899776E0,-1.473500013E0,-1.235199928E0
7.833998437E0,-5.902199745E0,-2.563400030E0,-1.503899932E0
7.853998437E0,-5.083499908E0,-3.516499996E0,-1.593699932E0
7.873998437E0,-4.015500069E0,-3.225299835E0,-2.462999970E-1
7.893998437E0,-4.588599682E0,-7.967000008E-1,1.029699922E0
7.924004687E0,-2.944799900E0,1.495800018E0,1.638399959E0
7.953998437E0,8.065999746E-1,2.030900002E0,7.518000007E-1
7.983998437E0,7.393299580E0,2.071399927E0,-3.187999964E0
8.003998437E0,1.040089989E1,3.991799831E0,-8.464499474E0
8.033998437E0,2.493099928E0,7.467399597E0,-8.005800247E0
8.063998437E0,3.482299805E0,6.001899719E0,1.152499914E0
8.083998437E0,4.022399902E0,1.832199931E0,2.672600031E0
8.103998437E0,3.307999969E-1,-5.277999640E-1,1.692099929E0
8.123998437E0,-1.589999914E0,-9.897999763E-1,3.065599918E0
8.143998437E0,5.751999617E-1,-6.784999967E-1,4.623300076E0
8.173996875E0,2.466399908E0,-1.502999961E-1,1.550899982E0
8.193998437E0,3.657699823E0,-9.109999537E-1,1.780099988E0
8.213998437E0,3.988799810E0,-3.125799894E0,7.027199745E0
8.233998437E0,2.132699966E0,-3.773699999E0,8.416199684E0
8.253998437E0,-3.303799868E0,-1.822099924E0,2.566799879E0
8.273998437E0,-4.756299973E0,-5.877999663E-1,1.803900003E0
8.293998437E0,-5.736499786E0,1.193899989E0,1.977299929E0
8.313998437E0,-6.909499645E0,1.811899900E0,6.858999729E-1
8.333998437E0,-6.726299763E0,9.323999882E-1,-1.385399938E0
8.353998437E0,-5.671099663E0,1.743000001E-1,-8.029999733E-1
8.383996875E0,-5.404599667E0,6.898999810E-1,-7.606999874E-1
8.403998437E0,-4.297800064E0,8.683999777E-1,-4.742999971E-1
8.423998437E0,-2.211799860E0,8.739999682E-2,-3.202999830E-1
8.443998437E0,4.627999961E-1,-8.428999782E-1,2.588000000E-1
8.463998437E0,3.249500036E0,-1.562799931E0,1.635299921E0
8.493998437E0,6.520799637E0,-4.802899837E0,2.628000081E-1
8.513998437E0,5.379199982E0,-6.413099766E0,1.439199924E0
8.533998437E0,3.279599905E0,-5.574999809E0,-4.209000111E0
8.553998437E0,5.246999741E0,-2.297799826E0,-1.241069984E1
8.573998437E0,2.639299870E0,3.314999938E-1,-8.334099770E0
8.603998437E0,1.612000018E-1,-2.746500015E0,-1.295499921E0
8.623998437E0,2.097899914E0,-3.034499884E0,3.235199928E0
8.643998437E0,4.400499821E0,-1.128700018E0,6.424299717E0
8.673996875E0,3.961999893E0,3.324499846E0,9.681900024E0
8.693996875E0,1.162999943E-1,5.258800030E0,1.018699932E1
8.713998437E0,-4.009200096E0,3.515499830E0,5.001399994E0
8.733998437E0,-6.114999771E0,1.522099972E0,1.885499954E0
8.753998437E0,-7.292599678E0,6.769999862E-2,4.515999854E-1
8.773998437E0,-7.618399620E0,-7.773999572E-1,1.278999895E-1
8.793998437E0,-7.943399906E0,-1.402699947E0,-1.345999986E-1
8.823998437E0,-6.144199848E0,-2.090800047E0,4.120000079E-2
8.844000000E0,-4.415599823E0,-2.700000048E0,3.903999925E-1
8.873996875E0,-2.744400024E0,-1.530299902E0,1.290399909E0
8.893998437E0,-2.138200045E0,6.689999700E-1,1.738799930E0
8.913998437E0,-9.018999934E-1,2.100399971E0,1.539799929E0
8.933998437E0,1.426599979E0,2.443599939E0,1.947999895E-1
8.953998437E0,4.923899651E0,2.507400036E0,-4.613800049E0
8.983996875E0,8.795899391E0,4.373899937E0,-1.081239986E1
9.003998437E0,2.482100010E0,6.427499771E0,-6.581599712E0
9.023998437E0,6.161000133E-1,7.146800041E0,-1.384599924E0
9.043998437E0,4.817800045E0,4.786999702E0,1.507499933E0
9.063998437E0,4.281799793E0,9.459999800E-1,7.389000058E-1
9.083998437E0,9.808999896E-1,-5.307999849E-1,1.621699929E0
9.103998437E0,9.589999914E-2,-5.753999949E-1,3.665499926E0
9.123998437E0,7.766000032E-1,-5.600000024E-1,4.575500011E0
9.143998437E0,2.488699913E0,-8.388999701E-1,3.166599989E0
9.163998437E0,3.860099792E0,-1.787199974E0,1.681899905E0
9.183998437E0,4.214099884E0,-3.436599970E0,6.494799614E0
9.203998437E0,2.260699987E0,-4.153199673E0,8.486899376E0
9.223998437E0,-2.856199980E0,-2.693599939E0,3.300299883E0
9.253998437E0,-5.376699924E0,-1.266999960E0,4.395999908E-1
9.273998437E0,-6.696599960E0,7.989000082E-1,1.541099906E0
9.293998437E0,-7.533099651E0,2.317199945E0,1.722399950E0
9.313998437E0,-7.424399853E0,2.213899851E0,5.036000013E-1
9.333998437E0,-5.798999786E0,1.108299971E0,1.016899943E0
9.353998437E0,-4.211599827E0,-1.801999956E-1,1.498799920E0
9.373998437E0,-3.326900005E0,4.176999927E-1,4.132999778E-1
9.393998437E0,-2.579599857E0,4.612999856E-1,-1.206099987E0
9.413998437E0,-8.851999640E-1,-2.440999895E-1,-1.403699994E0
9.433998437E0,1.524399996E0,-8.977999687E-1,-1.355499983E0
9.453998437E0,4.161900043E0,-1.596199989E0,-1.146600008E0
9.483996875E0,6.611000061E0,-5.434499741E0,-2.476899862E0
9.503998437E0,3.851300001E0,-7.082399845E0,-2.855299950E0
9.523998437E0,2.526399851E0,-5.873300076E0,-9.393400192E0
9.543998437E0,4.748600006E0,-9.049999714E-1,-9.735599518E0
9.563998437E0,4.205800056E0,-3.219999745E-2,-4.018799782E0
9.583998437E0,8.705999851E-1,-1.983999968E0,-2.564199924E0
9.603998437E0,1.689299941E0,-2.844499826E0,3.302999973E0
9.623998437E0,3.165099859E0,-2.548699856E0,5.197299957E0
9.643998437E0,4.160099983E0,-3.152999878E-1,7.976799965E0
9.663998437E0,3.103099823E0,2.646299839E0,1.160059929E1
9.683998437E0,-3.978999853E-1,4.435800076E0,1.224889946E1
9.703998437E0,-3.132599831E0,2.170500040E0,4.991799831E0
9.723998437E0,-5.320300102E0,6.865999699E-1,1.741899967E0
9.753996875E0,-6.299999714E0,-1.925999969E-1,3.863999844E-1
9.773998437E0,-6.846399784E0,-3.174999952E-1,-3.009999916E-2
9.793998437E0,-5.886799812E0,-1.250699997E0,-6.212999821E-1
9.813998437E0,-4.886399746E0,-2.246399879E0,-1.458400011E0
9.833998437E0,-3.806999922E0,-3.027099848E0,-1.433699965E0
9.853998437E0,-3.597100019E0,-1.871899962E0,6.219999865E-2
9.883996875E0,-3.266700029E0,8.792999983E-1,1.679499984E0
9.903998437E0,-2.104699850E0,1.637199998E0,1.416199923E0
9.923998437E0,-9.259999543E-2,1.863599896E0,4.397999942E-1
9.953998437E0,5.768199921E0,2.548300028E0,-4.634799957E0
9.973998437E0,8.871099472E0,4.089900017E0,-8.718500137E0
9.993998437E0,4.599599838E0,6.690000057E0,-7.613899708E0
1.001399844E1,7.960999608E-1,6.463500023E0,-4.530799866E0
1.003399844E1,4.908699989E0,4.007400036E0,-5.054000020E-1
1.006399844E1,2.804600000E0,6.911000013E-1,9.158999920E-1
1.009399844E1,-8.149999976E-1,-7.354999781E-1,1.854200006E0
1.011399844E1,8.841999769E-1,-6.333000064E-1,3.668999910E0
1.013399844E1,3.467999935E0,-1.205500007E0,3.435099840E0
1.016399688E1,5.522199631E0,-3.913899899E0,3.452499866E0
1.018399844E1,3.940599918E0,-4.693200111E0,7.876999855E0
1.020399844E1,-1.124599934E0,-3.891299963E0,6.692199707E0
1.022399844E1,-5.602799892E0,-1.554999948E0,2.140199900E0
1.024399844E1,-7.306399822E0,-6.412999630E-1,2.145999968E-1
1.026399844E1,-7.218999863E0,1.130599976E0,1.855999947E0
1.028399844E1,-7.210199833E0,2.824199915E0,1.549499989E0
1.031399844E1,-6.154299736E0,3.102799892E0,8.496999741E-1
1.033399844E1,-4.973099709E0,2.565399885E0,3.599999845E-1
1.035399844E1,-4.143899918E0,1.858699918E0,-1.109599948E0
1.038399844E1,-1.142599940E0,-7.936999798E-1,-1.180799961E0
1.040399844E1,1.115199924E0,-1.886500001E0,-1.840799928E0
1.042399844E1,3.083299875E0,-2.493399858E0,-1.804099917E0
1.045399844E1,5.832900047E0,-2.996699810E0,-1.192399979E0
1.047399844E1,6.350299835E0,-6.834300041E0,-5.396699905E0
1.049399844E1,1.716199994E0,-7.823899746E0,-3.868099928E0
1.051399844E1,4.826999903E-1,-5.833399773E0,-8.447699547E0
1.053399844E1,3.618199825E0,-1.644299984E0,-7.541800022E0
1.056399844E1,9.930999875E-1,-1.984999895E0,-3.855099916E0
1.058399844E1,2.099799871E0,-2.470299959E0,2.218400002E0
1.060399844E1,5.611499786E0,-2.241999865E0,6.656300068E0
1.062399844E1,5.921499729E0,-1.783899903E0,1.164690018E1
1.064399844E1,2.567999840E0,-5.737999678E-1,1.348839951E1
1.067399688E1,-3.424899817E0,-3.612000048E-1,5.591599941E0
1.069399688E1,-6.033299923E0,-8.456999660E-1,3.825199842E0
1.071399688E1,-6.780200005E0,-1.342100024E0,2.279599905E0
1.073399844E1,-7.227900028E0,-1.346699953E0,1.392399907E0
1.075399844E1,-6.364199638E0,-8.574999571E-1,7.964999676E-1
1.077400000E1,-4.564499855E0,-5.812000036E-1,1.649999991E-2
1.080399844E1,-4.620599747E0,3.007999957E-1,-1.087599993E0
1.082399844E1,-4.666199684E0,1.095399976E0,-6.358999610E-1
1.084399844E1,-3.824299812E0,1.647399902E0,-3.539999947E-2
1.086399844E1,-2.379499912E0,1.942299962E0,1.810999960E-1
1.088399844E1,2.775000036E-1,2.393599987E0,-3.838999867E-1
1.090399844E1,3.653299809E0,3.262199879E0,-2.903899908E0
1.092399844E1,6.008999825E0,4.851900101E0,-5.819399834E0
1.094399844E1,6.575099945E0,5.769399643E0,-6.580299854E0
1.096399844E1,3.986899853E0,5.667200089E0,-7.598299980E0
1.098399844E1,2.695199966E0,3.348599911E0,-7.336499691E0
1.100399844E1,5.120500088E0,3.039199829E0,-6.441999674E-1
1.102399844E1,4.706199646E0,1.120899916E0,3.071300030E0
1.104399844E1,-1.091199994E0,6.430000067E-2,3.431799889E0
1.106399844E1,-9.149999619E-1,-5.167999864E-1,5.303499699E0
1.109399688E1,2.388700008E0,-3.378999829E-1,4.533599854E0
1.111399688E1,2.831199884E0,-1.420400023E0,2.388999939E0
1.113399844E1,3.527099848E0,-3.310299873E0,7.003299713E0
1.116399688E1,1.527999938E-1,-3.708699942E0,7.197299957E0
1.118399688E1,-3.792500019E0,-1.947299957E0,2.919299841E0
1.120399844E1,-5.343999863E0,-1.283499956E0,2.404899836E0
1.122399844E1,-6.036699772E0,-5.292999744E-1,2.377500057E0
1.125399688E1,-4.584599972E0,1.365800023E0,1.213299990E0
1.127399844E1,-5.001199722E0,-2.490999997E-1,-2.138499975E0
1.129404063E1,-5.003799915E0,-3.824999928E-1,-3.785099983E0
1.132399844E1,-4.653500080E0,2.949000001E-1,-2.717499971E0
1.134399844E1,-3.030599833E0,2.377999872E-1,-2.089799881E0
1.136399844E1,-9.605999589E-1,4.435999990E-1,-1.410599947E0
1.138399844E1,1.666099906E0,1.562699914E0,1.307699919E0
1.141399844E1,7.317699909E0,-1.345799923E0,-5.147900105E0
1.143399844E1,4.049399853E0,-5.165400028E0,-4.836599827E0
1.145399844E1,5.529999733E-2,-6.884199619E0,-8.599900246E0
1.147399844E1,4.142899990E0,-2.874899864E0,-6.827399731E0
1.149400000E1,2.772599936E0,-1.640299916E0,-5.987199783E0
1.152399844E1,6.758899689E0,2.556999922E-1,6.963500023E0
1.154399844E1,8.328700066E0,1.741599917E0,8.707900047E0
1.156399844E1,5.407799721E0,5.065700054E0,1.315579987E1
1.158399844E1,5.054999590E-1,7.400799751E0,1.379959965E1
1.160399844E1,-1.815799952E0,3.518299818E0,6.794600010E0
1.162399844E1,-3.592700005E0,5.572000146E-1,2.224400043E0
1.164399844E1,-4.945300102E0,-1.271399975E0,1.484499931E0
1.166399844E1,-5.831500053E0,-2.424599886E0,8.995999694E-1
1.168399844E1,-5.472399712E0,-3.791299820E0,1.016600013E0
1.170399844E1,-5.130099773E0,-4.057600021E0,1.036700010E0
1.172399844E1,-4.672499657E0,-4.596600056E0,5.575999618E-1
1.174399844E1,-5.809799671E0,-3.863799810E0,4.259999841E-2
1.176399844E1,-8.100899696E0,-1.956299901E0,-1.398000002E0
1.178399844E1,-9.280399323E0,5.062999725E-1,-7.209799767E0
1.180399844E1,-6.884399891E0,1.213400006E0,-1.034700012E1
1.182399844E1,-2.227499962E0,1.404500008E0,-7.015299797E0
1.184399844E1,3.552599907E0,1.162199974E0,-3.974399805E0
1.186399844E1,7.861499786E0,1.081499934E0,-1.381299973E0
1.189399844E1,9.275400162E0,4.134099960E0,-8.612999916E-1
1.191399844E1,7.678799629E0,5.210899830E0,-1.981899977E0
1.193399844E1,1.075600028E0,4.921499729E0,-2.045599937E0
1.195399844E1,2.987999916E-1,3.616199970E0,3.883000016E-1
1.198399688E1,9.430999756E-1,1.652799964E0,4.264100075E0
1.200399688E1,5.869499683E0,1.751099944E0,5.852900028E0
1.202399688E1,8.396699905E0,1.395900011E0,5.332099915E0
1.204399688E1,8.016099930E0,5.460000038E-2,3.798499823E0
1.206399688E1,5.157199860E0,-7.986999750E-1,3.057199955E0
1.208399688E1,3.394099951E0,-1.534199953E0,4.592999935E0
1.210399688E1,3.331999779E-1,-2.038699865E0,5.359699726E0
1.212399688E1,-4.008699894E0,-1.268599987E0,2.802099943E0
1.214399688E1,-7.108899593E0,-3.168999851E-1,5.690999627E-1
1.216399688E1,-9.035599709E0,5.778999925E-1,-1.920999885E-1
1.218399688E1,-9.823399544E0,1.040699959E0,3.702999949E-1
1.220400000E1,-9.807199478E0,1.451299906E0,8.974999785E-1
1.223399688E1,-9.125299454E0,2.270599842E0,7.667999864E-1
1.225399844E1,-7.421299934E0,2.977099895E0,6.152999997E-1
1.227399844E1,-4.707499981E0,2.363600016E0,8.474999666E-1
1.229399844E1,-7.849999517E-2,2.138099909E0,1.256500006E0
1.231399844E1,2.535799980E0,1.601699948E0,1.709499955E0
1.234399688E1,6.943199635E0,-1.888599992E0,1.770900011E0
1.236399844E1,5.047199726E0,-4.939300060E0,-3.549199820E0
1.238399844E1,3.341300011E0,-7.272799969E0,-8.610799789E0
1.240399844E1,6.998999596E0,-5.399899960E0,-1.310699940E1
1.242399844E1,3.560199976E0,-1.408299923E0,-6.512300014E0
1.245399688E1,-3.703999817E-1,-1.115199924E0,4.470000044E-2
1.247399844E1,5.081899643E0,-1.396099925E0,2.897199869E0
1.249399844E1,7.571699619E0,9.171999693E-1,7.500599861E0
1.252399688E1,6.027599812E0,3.852099895E0,1.549079990E1
1.254399844E1,-9.498999715E-1,2.668999910E0,9.398200035E0
1.256399844E1,-5.047399998E0,5.493000150E-1,3.155799866E0
1.258399844E1,-7.201200008E0,-4.874999821E-1,4.643999934E-1
1.261399844E1,-8.532599449E0,-1.644599915E0,-4.666999876E-1
1.263399844E1,-8.317500114E0,-2.663599968E0,-1.797999889E-1
1.266399844E1,-5.367799759E0,-3.353299856E0,-5.999999703E-4
1.268399844E1,-3.142799854E0,-3.384199858E0,-7.190999985E-1
1.270399844E1,-2.435299873E0,-1.713299990E0,-5.507000089E-1
1.272399844E1,-3.488299847E0,9.513999820E-1,-3.763999939E-1
1.275399844E1,-2.009599924E0,2.959699869E0,-4.079999775E-2
1.277399844E1,4.124999940E-1,2.959199905E0,-4.979999959E-1
1.279399844E1,5.388199806E0,3.342599869E0,-4.883999825E0
1.282399844E1,1.021169949E1,4.363699913E0,-6.705599785E0
1.285399844E1,2.722800016E0,7.355799675E0,-2.527299881E0
1.288399688E1,3.824100018E0,3.860899925E0,-7.279999554E-2
1.290399844E1,7.016999722E-1,8.416000009E-1,1.202700019E0
1.292399844E1,1.434499979E0,1.262999922E-1,3.033900023E0
1.295399844E1,2.141900063E0,4.163999856E-1,5.309099674E0
1.298399688E1,5.911599636E0,-2.839499950E0,4.112400055E0
1.300399844E1,6.843400002E0,-4.652499676E0,6.432199955E0
1.302399844E1,3.974499941E0,-6.078799725E0,6.709399700E0
1.304399844E1,-2.443699837E0,-3.065399885E0,2.965099812E0
1.306399844E1,-6.315399647E0,-1.124099970E0,2.089599848E0
1.308399844E1,-7.923099995E0,7.899999619E-3,1.258799911E0
1.311399844E1,-8.626599312E0,9.830999970E-1,8.631999493E-1
1.313399844E1,-8.113599777E0,1.441599965E0,3.619000018E-1
1.315399844E1,-7.229499817E0,1.650599957E0,1.103699923E0
1.318399844E1,-5.497099876E0,7.415999770E-1,2.228199959E0
1.320399844E1,-3.784699917E0,1.692999899E-1,1.269999981E0
1.322399844E1,-1.843400002E0,-3.070999980E-1,3.382999897E-1
1.324399844E1,6.480000019E-1,-6.618999839E-1,4.282999933E-1
1.327399688E1,5.443299770E0,-1.526799917E0,1.748999953E-1
1.329399844E1,6.931499958E0,-3.068099976E0,-2.319999933E0
1.331399844E1,4.185800076E0,-6.541800022E0,-7.779399872E0
1.333399844E1,1.466399908E0,-5.664799690E0,-1.585659981E1
1.335399844E1,4.818799973E0,-1.158699989E0,-9.453199387E0
1.337399844E1,2.735399961E0,-4.434999824E-1,-2.866699934E0
1.339399844E1,-2.140799999E0,-9.415999651E-1,-1.373199940E0
1.342399844E1,3.113699913E0,-3.757999897E0,4.309099674E0
1.344399844E1,6.633399963E0,-4.149499893E0,7.765799999E0
1.346399844E1,5.726099968E0,-1.062899947E0,1.227849960E1
1.349399844E1,-5.902000070E-1,2.260699987E0,1.130609989E1
1.351399844E1,-3.109699965E0,6.931999922E-1,3.666399956E0
1.353399844E1,-5.896800041E0,-5.358999968E-1,7.820999622E-1
1.355399844E1,-7.324899673E0,-1.382300019E0,-1.048000008E-1
1.357399844E1,-7.341699600E0,-2.350600004E0,-1.074299932E0
1.360399688E1,-5.139400005E0,-4.343100071E0,-2.907099962E0
1.362399844E1,-3.889599800E0,-4.722799778E0,-2.342700005E0
1.364399844E1,-4.806900024E0,-3.248499870E0,-1.381999999E-1
1.366399844E1,-5.490900040E0,-1.318599939E0,2.099900007E0
1.368399844E1,-3.957899809E0,3.869999945E-1,2.766499996E0
1.370399844E1,-1.608399987E0,1.666700006E0,1.753600001E0
1.372399844E1,9.971999526E-1,2.144199848E0,4.736000001E-1
1.374399844E1,4.040599823E0,2.882299900E0,-2.872999907E-1
1.376399844E1,5.932799816E0,4.306900024E0,-1.263399959E0
1.378399844E1,7.387699604E0,6.096799850E0,-3.885599852E0
1.380399844E1,4.018499851E0,7.671299934E0,-7.580699921E0
1.382399844E1,1.839899898E0,7.927799702E0,-6.644199848E0
1.385399844E1,3.262899876E0,1.514099956E0,-5.877999663E-1
1.388399688E1,2.542700052E0,-1.438399911E0,1.524799943E0
1.390399688E1,6.607299805E0,-2.692699909E0,5.154399872E0
1.392400000E1,6.624399662E0,-3.994799852E0,5.121299744E0
1.395400000E1,5.286099911E0,-5.960099697E0,3.899799824E0
1.398399844E1,-1.579699993E0,-6.453399658E0,7.011299610E0
1.400399844E1,-6.296499729E0,-3.527899981E0,3.659299850E0
1.403399844E1,-7.705599785E0,-9.781999588E-1,6.301999688E-1
1.405399844E1,-8.501199722E0,1.444000006E-1,5.993999839E-1
1.407399844E1,-8.435599327E0,5.866999626E-1,7.257999778E-1
1.410399688E1,-7.095699787E0,1.223699927E0,1.295099974E0
1.412399844E1,-5.346499920E0,1.142699957E0,9.853999615E-1
1.414399844E1,-4.215300083E0,1.225299954E0,-1.141999960E-1
1.417399688E1,-1.157500029E0,-9.979999810E-2,-1.709000021E-1
1.419399688E1,1.676100016E0,-6.275999546E-1,4.166999757E-1
1.421399844E1,5.589399815E0,-3.938999772E-1,1.350199938E0
1.424399688E1,7.974499702E0,-4.428400040E0,-2.796599865E0
1.426399844E1,2.695899963E0,-8.902199745E0,-8.440699577E0
1.428400000E1,-2.087399960E0,-9.098199844E0,-1.370510006E1
1.431399844E1,3.396299839E0,-4.714200020E0,-4.281099796E0
1.434399688E1,1.230499983E0,-6.324999928E-1,-1.173499942E0
1.436399844E1,1.220000029E0,-2.217700005E0,3.285999894E-1
1.439399844E1,6.806499958E0,-4.594399929E0,5.306600094E0
1.441399844E1,5.447899818E0,-2.594599962E0,1.169229984E1
1.443399844E1,1.660499930E0,1.452499986E0,1.738339996E1
1.445399844E1,-1.332299948E0,3.002300024E0,9.372099876E0
1.447399844E1,-3.873199940E0,1.371799946E0,2.077499866E0
1.449399844E1,-5.916100025E0,4.398999810E-1,2.545999885E-1
1.452399688E1,-7.869999886E0,-1.687999964E-1,-1.063899994E0
1.454399844E1,-7.790899754E0,-1.433599949E0,-2.228399992E0
1.456399844E1,-6.628599644E0,-2.964499950E0,-2.494999886E0
1.458399844E1,-5.247499943E0,-3.791899920E0,-1.655900002E0
1.460399844E1,-4.665400028E0,-2.943899870E0,1.012499928E0
1.462399844E1,-4.593599796E0,-1.053799987E0,3.745399952E0
1.464399844E1,-3.092399836E0,8.068000078E-1,4.248099804E0
1.467399844E1,-8.240000159E-2,2.410300016E0,1.681199908E0
1.469399844E1,4.049699783E0,2.706099987E0,-5.385999680E-1
1.471399844E1,8.552199364E0,3.850699902E0,-7.623600006E0
1.473399844E1,6.826599598E0,5.962100029E0,-1.213169956E1
1.475399844E1,9.529999495E-1,5.835999966E0,-9.109299660E0
1.477399844E1,6.782599926E0,2.926999807E0,-1.531099916E0
1.479399844E1,5.222499847E0,1.482999921E-1,7.307999730E-1
1.482399844E1,-7.436000109E-1,-1.706599951E0,2.325599909E0
1.484399844E1,2.255499840E0,-7.946999669E-1,5.599199772E0
1.486399844E1,4.757999897E0,-5.153999925E-1,7.168599606E0
1.489399844E1,3.740099907E0,-2.655499935E0,4.428800106E0
1.491399844E1,3.242899895E0,-3.620499849E0,7.190799713E0
1.493399844E1,-1.870999932E-1,-3.693300009E0,6.037199974E0
1.495399844E1,-4.648299694E0,-1.616899967E0,2.152199984E0
1.497399844E1,-6.891999722E0,-3.969999850E-1,1.745999932E0
1.499399844E1,-7.743099689E0,1.490999907E-1,1.471099973E0
1.501402813E1,-7.093999863E0,5.324000120E-1,1.006399989E0
1.504399844E1,-5.412499905E0,3.851999938E-1,9.300000034E-3
1.506399844E1,-4.839399815E0,-7.276999950E-1,-1.935299993E0
1.508399844E1,-4.503799915E0,-1.082299948E0,-2.647399902E0
1.511399844E1,-2.369400024E0,-1.391099930E0,-1.348699927E0
1.513399844E1,2.556000054E-1,-9.774000049E-1,-4.858999848E-1
1.515399844E1,3.166299820E0,-4.690000042E-2,3.561999798E-1
1.518399688E1,6.332999706E0,-3.167199850E0,-3.209999800E0
1.520399688E1,2.780599833E0,-6.492499828E0,-7.517499924E0
1.522399844E1,2.056799889E0,-6.370499611E0,-8.392000198E0
1.524399844E1,6.296000004E0,-2.787799835E0,-5.624199867E0
1.526399844E1,1.678299904E0,-6.635999680E-1,-3.295699835E0
1.528399844E1,7.793999910E-1,-1.537999958E-1,-4.746299744E0
1.531399844E1,8.049599648E0,-1.385599971E0,5.393499851E0
1.533399844E1,6.698099613E0,4.939999878E-1,1.056969929E1
1.535399844E1,2.523099899E0,2.553900003E0,1.396689987E1
1.537399844E1,-1.795399904E0,2.487099886E0,9.548500061E0
1.539399844E1,-3.376999855E0,1.450599909E0,3.697899818E0
1.541400469E1,-5.103699684E0,8.139999509E-1,1.865199924E0
1.544399688E1,-5.940399647E0,-5.913999677E-1,1.502999961E-1
1.546399844E1,-6.609099865E0,-1.261699915E0,-5.378999710E-1
1.548399844E1,-6.064499855E0,-2.534499884E0,-1.171499968E0
1.550399844E1,-5.112799644E0,-3.570899963E0,-1.526099920E0
1.552399844E1,-5.210400105E0,-3.265699863E0,-5.634999871E-1
1.555399844E1,-4.555699825E0,-1.474999905E0,1.858099937E0
1.557399844E1,-2.899799824E0,-6.523999572E-1,1.777599931E0
1.559399844E1,-7.963999510E-1,7.229999453E-2,4.807999730E-1
1.561399844E1,3.596099854E0,6.782000065E-1,-2.495100021E0
1.563399844E1,9.381199837E0,1.988499999E0,-5.806399822E0
1.565399844E1,9.014599800E0,4.639199734E0,-7.692599773E0
1.568399844E1,4.550999999E-1,5.308300018E0,-6.196099758E0
1.570399844E1,2.818199873E0,2.237400055E0,-1.003600001E0
1.572399844E1,-1.397999972E-1,-3.296999931E-1,2.388999939E0
1.575399844E1,-4.768999815E-1,-4.122000039E-1,7.130799770E0
1.577399844E1,5.141699791E0,-8.389999717E-2,8.442899704E0
1.579399844E1,7.424699783E0,-3.953000009E-1,6.888899803E0
1.581399844E1,4.812099934E0,-1.384899974E0,8.010299683E0
1.583399844E1,1.973599911E0,-2.425499916E0,7.722699642E0
1.585400000E1,-1.215799928E0,-2.131799936E0,4.675600052E0
1.588399844E1,-5.433300018E0,-2.588000000E-1,2.127300024E0
1.590399844E1,-7.082699776E0,4.957999885E-1,1.893499970E0
1.592399844E1,-6.461499691E0,1.077600002E0,1.698799968E0
1.595399844E1,-4.758599758E0,2.691999972E-1,5.701999664E-1
1.597399844E1,-5.409800053E0,-8.525999784E-1,-2.772500038E0
1.599399844E1,-5.144199848E0,-1.381299973E0,-4.727699757E0
1.601399844E1,-4.659100056E0,-1.675199986E0,-3.705499887E0
1.604399844E1,-1.484200001E0,-2.032599926E0,-1.713899970E0
1.606399844E1,1.685999990E0,-1.925199986E0,-1.545199990E0
1.608399844E1,5.265199661E0,-1.720299959E0,-2.223999977E0
1.610399844E1,7.460299969E0,-4.905600071E0,-5.042099953E0
1.612399844E1,4.503799915E0,-6.094399929E0,-6.063999653E0
1.614399844E1,6.013000011E-1,-2.855099916E0,-4.788599968E0
1.617399688E1,3.322700024E0,1.704899907E0,-4.284999847E0
1.619399844E1,1.922799945E0,5.138999820E-1,-3.749300003E0
1.621399844E1,-4.210000038E-1,-7.472999692E-1,-4.877599716E0
1.623399844E1,3.892399788E0,-1.512899995E0,3.272399902E0
1.625399844E1,8.954400063E0,-5.422999859E-1,1.175780010E1
1.627399844E1,7.079499722E0,2.806900024E0,1.655179977E1
1.629399844E1,4.754999876E-1,4.455599785E0,1.259829998E1
1.632399844E1,-3.011199951E0,6.656000018E-1,2.308099985E0
1.635400000E1,-4.341899872E0,-7.063999772E-1,-5.270999670E-1
1.638399688E1,-6.618799686E0,-1.475799918E0,-4.417999983E-1
1.640399844E1,-6.113999844E0,-2.875599861E0,-4.764999747E-1
1.642399844E1,-5.088500023E0,-4.311399937E0,-4.111999869E-1
1.645399844E1,-5.509099960E0,-3.552599907E0,1.046999991E-1
1.647399844E1,-6.872699738E0,-1.478599906E0,-4.370999932E-1
1.649399844E1,-6.150099754E0,-1.141999960E-1,-5.830000043E-1
1.651399844E1,-3.719099998E0,8.554999828E-1,-1.480000000E-2
1.654399688E1,2.033299923E0,1.136799932E0,-1.839499950E0
1.656399844E1,8.702699661E0,9.062999487E-1,-3.622900009E0
1.658399844E1,1.218260002E1,2.406199932E0,-3.970199823E0
1.661399844E1,3.853999972E-1,7.281699657E0,-3.562099934E0
1.663399844E1,-1.397199988E0,7.342000008E0,-3.246699810E0
1.665399844E1,4.520899773E0,4.689799786E0,1.124300003E0
1.668399844E1,2.065799952E0,-8.301999569E-1,2.967999935E0
1.670399844E1,-6.308999658E-1,-1.204999924E0,2.655699968E0
1.672399844E1,7.310000062E-1,-6.876999736E-1,4.113699913E0
1.675399844E1,2.939800024E0,-5.411999822E-1,3.966899872E0
1.677399844E1,3.434199810E0,-1.207000017E0,5.346199989E0
1.679399844E1,2.799899817E0,-2.322000027E0,7.361099720E0
1.682399844E1,-3.057600021E0,-1.151099920E0,3.181900024E0
1.685400000E1,-6.602200031E0,5.972999930E-1,1.356899977E0
1.688399844E1,-5.644799709E0,1.646099925E0,1.543799996E0
1.690399844E1,-4.292200089E0,7.269999981E-1,-2.429999970E-2
1.692399844E1,-3.735099792E0,-2.678999901E-1,-1.290599942E0
1.694399844E1,-4.202499866E0,-4.194999933E-1,-1.527999997E0
1.697399844E1,-3.895599842E0,-5.530999899E-1,-1.340600014E0
1.699399844E1,-2.729699850E0,-1.540499926E0,-6.861999631E-1
1.701399844E1,-7.892000079E-1,-2.920099974E0,1.530999988E-1
1.703399844E1,1.766600013E0,-3.459800005E0,1.897599936E0
1.706399844E1,4.831199646E0,-4.836499691E0,-2.932699919E0
1.708399844E1,4.322000027E0,-7.515499592E0,-6.883999825E0
1.711399844E1,-7.335000038E-1,-3.282699823E0,-7.744199753E0
1.713399844E1,1.642799973E0,8.941999674E-1,-7.670199871E0
1.715399844E1,1.714100003E0,-4.346999824E-1,-5.987999916E0
1.718399844E1,2.161700010E0,-3.743399858E0,-2.292099953E0
1.720399844E1,7.896999836E0,-4.103300095E0,7.123199940E0
1.722399844E1,9.023499489E0,-2.194299936E0,1.455519962E1
1.724399844E1,3.768100023E0,3.553799868E0,1.927719879E1
1.727399688E1,-1.851099968E0,2.394299984E0,6.182099819E0
1.729399844E1,-4.027299881E0,1.682000011E-1,2.264499903E0
1.731399844E1,-4.882800102E0,-8.198999763E-1,1.096799970E0
1.733399844E1,-6.551899910E0,-1.017899990E0,3.619000018E-1
1.735399844E1,-6.916599751E0,-1.367100000E0,-2.060000002E-1
1.737399844E1,-6.149999619E0,-2.279399872E0,-9.308999777E-1
1.739399844E1,-6.119199753E0,-2.971099854E0,-1.814099908E0
1.742399844E1,-6.531199932E0,-2.362699986E0,-1.658299923E0
1.745399844E1,-5.364099979E0,-6.399999857E-1,2.597000003E-1
1.747399844E1,-3.308099985E0,1.149000004E-1,1.523599982E0
1.749399844E1,-7.103999853E-1,8.436999917E-1,1.336300015E0
1.751399844E1,2.667099953E0,1.620599985E0,6.758999825E-1
1.754399844E1,9.608099937E0,3.559000015E0,-1.607399940E0
1.756399844E1,6.918699741E0,7.338099957E0,-6.020699978E0
1.758399844E1,8.479999751E-2,8.335700035E0,-1.011730003E1
1.761399844E1,5.266599655E0,6.446899891E0,-1.564999968E-1
1.763399844E1,2.445199966E0,2.007799864E0,3.774299860E0
1.765399844E1,1.327399969E0,-7.148999572E-1,3.693699837E0
1.768399844E1,1.855799913E0,3.029999882E-2,3.299599886E0
1.771399844E1,5.498199940E0,-1.769499898E0,1.344999909E0
1.773399844E1,4.975899696E0,-3.690999985E0,2.465999842E0
1.775399844E1,3.016499996E0,-4.577199936E0,7.026799679E0
1.778399844E1,-3.590600014E0,-3.337499857E0,4.460199833E0
1.780399844E1,-5.811500072E0,-1.571200013E0,2.426300049E0
1.782399844E1,-6.942199707E0,1.856999993E-1,3.067099810E0
1.784399844E1,-7.437500000E0,1.464200020E0,2.193899870E0
1.786399844E1,-6.244799614E0,1.566900015E0,1.162099957E0
1.789399844E1,-4.710299969E0,1.562099934E0,-2.944000065E-1
1.791399844E1,-4.679199696E0,1.061200023E0,-3.373000026E-1
1.793399844E1,-4.359499931E0,2.849999964E-1,-6.068999767E-1
1.795399844E1,-3.279799938E0,-5.871999860E-1,-7.231000066E-1
1.797399844E1,-1.149799943E0,-1.217199922E0,-4.736999869E-1
1.799399844E1,1.353299975E0,-1.797599912E0,-2.300999910E-1
1.801399844E1,3.689899921E0,-2.309599876E0,4.772000015E-1
1.803399844E1,5.537899971E0,-3.930899858E0,-3.586999774E-1
1.805399844E1,4.674099922E0,-6.471199989E0,-3.765799999E0
1.807399844E1,1.575999975E0,-5.994799614E0,-5.719099998E0
1.810399844E1,5.122600079E0,-6.419999599E-1,-1.043569946E1
1.812399844E1,3.015300035E0,-4.217999876E-1,-5.990900040E0
1.814399844E1,3.621000051E-1,-2.292899847E0,-5.270599842E0
1.816399844E1,2.878199816E0,-3.627599955E0,3.797499895E0
1.818399844E1,5.569099903E0,-2.620599985E0,8.952499390E0
1.820399844E1,5.807199955E0,7.409999520E-2,1.057059956E1
1.822399844E1,3.230799913E0,2.740999937E0,1.331589985E1
1.825399844E1,-3.077999830E0,2.828299999E0,6.116999626E0
1.828399844E1,-6.197099686E0,4.192999899E-1,1.434599996E0
1.830399844E1,-7.044199944E0,-8.481999636E-1,1.925999969E-1
1.832399844E1,-7.077799797E0,-1.787499905E0,-2.279999852E-2
1.835399844E1,-5.125999928E0,-2.993700027E0,-1.909999996E-1
1.837399844E1,-3.281800032E0,-3.677599907E0,-7.111999989E-1
1.839399844E1,-2.806699991E0,-3.484999895E0,-3.768999875E-1
1.841399844E1,-4.475899696E0,-1.135999918E0,6.107000113E-1
1.843399844E1,-4.809499741E0,7.249000072E-1,1.199100018E0
1.845399844E1,-3.641199827E0,1.598599911E0,1.098999977E0
1.847399844E1,-1.495999932E0,1.902999997E0,8.554999828E-1
1.849399844E1,1.634899974E0,2.181499958E0,-7.647999525E-1
1.851399844E1,6.518300056E0,2.805299997E0,-6.534299850E0
1.854399844E1,6.649600029E0,5.370500088E0,-8.903999329E0
1.856399844E1,2.426199913E0,7.128999710E0,-4.902499676E0
1.858399844E1,5.569099903E0,6.584799767E0,1.106400013E0
1.861399844E1,1.954499960E0,5.529999733E-1,1.613999963E0
1.863399844E1,-1.282699943E0,-7.030999660E-1,2.132200003E0
1.865399844E1,1.161499977E0,-8.899999857E-1,4.388199806E0
1.868399844E1,3.853499889E0,-1.968799949E0,3.257099867E0
1.870399844E1,4.980299950E0,-2.978899956E0,1.661099911E0
1.872399844E1,4.980899811E0,-4.850299835E0,6.591699600E0
1.875399844E1,-1.653899908E0,-3.709599972E0,7.414799690E0
1.877399844E1,-4.622399807E0,-2.395400047E0,1.115999937E0
1.879399844E1,-6.178999901E0,-8.242999911E-1,5.376999974E-1
1.881399844E1,-7.362099648E0,6.703000069E-1,1.340199947E0
1.883399844E1,-7.712699890E0,1.359599948E0,6.830000132E-2
1.885399844E1,-5.466799736E0,1.150499940E0,5.313000083E-1
1.887399844E1,-4.984799862E0,1.330899954E0,-1.175999939E-1
1.889399844E1,-5.371099949E0,1.348899961E0,-1.286800027E0
1.891399844E1,-4.502199650E0,8.226999640E-1,-1.191100001E0
1.893399844E1,-2.844499826E0,1.807999909E-1,-9.041999578E-1
1.895399844E1,-9.760999680E-1,-1.409000009E-1,-6.854999661E-1
1.898399844E1,3.133599997E0,-5.013999939E-1,9.236999750E-1
1.900399844E1,5.269399643E0,-1.546100020E0,1.766899943E0
1.902399844E1,5.321799755E0,-4.698800087E0,2.164999992E-1
1.904399844E1,2.538499832E0,-7.618899822E0,-4.865600109E0
1.906399844E1,1.681499958E0,-6.715299606E0,-1.261749935E1
1.908399844E1,3.062599897E0,-1.065599918E0,-9.693599701E0
1.910399844E1,7.721999884E-1,-1.689499974E0,-5.209699631E0
1.912399844E1,1.595000029E-1,-2.734699965E0,-1.167799950E0
1.914399844E1,3.368099928E0,-4.014699936E0,3.432799816E0
1.917399844E1,7.475999832E0,-3.381999969E0,5.788499832E0
1.920399688E1,3.502799988E0,1.602199912E0,1.482450008E1
1.922399844E1,-2.020499945E0,3.917999983E0,1.141729927E1
1.924399844E1,-4.383699894E0,9.290999770E-1,3.411000013E0
1.927399844E1,-6.844899654E0,-7.258999944E-1,4.105999768E-1
1.929399844E1,-7.515199661E0,-8.429999948E-1,2.229999937E-2
1.932399844E1,-5.759599686E0,-2.873699903E0,-1.513899922E0
1.934399844E1,-4.751699924E0,-3.518699884E0,-1.961199999E0
1.936399844E1,-4.324100018E0,-3.158599854E0,-4.901999831E-1
1.938399844E1,-5.659899712E0,-1.305599928E0,1.134599924E0
1.940399844E1,-5.282000065E0,3.246999979E-1,2.048500061E0
1.942399844E1,-3.358899832E0,1.097399950E0,1.849900007E0
1.945399844E1,1.067999974E-1,1.824499965E0,1.292899966E0
1.947399844E1,4.140299797E0,2.235299826E0,-3.964999914E-1
1.949399844E1,8.933300018E0,2.999500036E0,-4.485799789E0
1.951399844E1,7.408999920E0,6.169099808E0,-1.023610020E1
1.953399844E1,1.500999928E0,8.173899651E0,-1.123530006E1
1.955399844E1,3.283299923E0,7.218099594E0,-2.214900017E0
1.957399844E1,4.871099949E0,1.767399907E0,3.142999887E0
1.960399844E1,5.435000062E-1,-8.795999885E-1,3.367100000E0
1.962399844E1,7.360000014E-1,-1.173900008E0,4.658699989E0
1.964399844E1,3.226599932E0,-1.259899974E0,3.923099995E0
1.967399688E1,6.037699699E0,-2.856899977E0,1.416099906E0
1.969399688E1,5.586099625E0,-4.079400063E0,6.493199825E0
1.971399844E1,2.122999907E0,-4.635499954E0,9.639999390E0
1.973399844E1,-3.601199865E0,-2.745100021E0,3.129799843E0
1.975399844E1,-6.273999691E0,-2.015199900E0,-2.992999852E-1
1.978399844E1,-7.045300007E0,5.313999653E-1,1.319499969E0
1.980399844E1,-7.941499710E0,2.531899929E0,2.319900036E0
1.982399844E1,-7.518099785E0,3.102299929E0,1.644099951E0
1.984399844E1,-6.032700062E0,2.095999956E0,5.849999785E-1
1.986399844E1,-5.012799740E0,7.270999551E-1,8.021000028E-1
1.989399688E1,-3.741099834E0,-1.191999987E-1,4.016999900E-1
1.991399844E1,-2.141700029E0,-8.700000048E-1,-1.209999993E-2
1.993399844E1,5.289999768E-2,-1.208799958E0,-2.757999897E-1
1.995399844E1,3.274499893E0,-1.698399901E0,5.649999902E-2
1.997399844E1,5.959199905E0,-2.710099936E0,-2.358999997E-1
1.999399844E1,5.628499985E0,-5.383599758E0,-5.246399879E0
2.001399844E1,2.606299877E0,-6.298399925E0,-5.775099754E0
2.004399844E1,2.600399971E0,-3.697499990E0,-9.867199898E0
2.006399844E1,3.578099966E0,-1.739499927E0,-4.317500114E0
2.008399844E1,2.434999943E-1,-2.319499969E0,-4.935400009E0
2.010399844E1,1.353600025E0,-4.565599918E0,1.355000019E0
2.012399844E1,5.490499973E0,-6.135399818E0,5.808300018E0
2.014399844E1,7.580199718E0,-4.393599987E0,8.077199936E0
2.016399844E1,4.933599949E0,-1.275200009E0,1.449529934E1
2.018399844E1,3.270999789E-1,3.628199816E0,1.718680000E1
2.021399844E1,-2.869299889E0,1.476199985E0,2.763299942E0
2.023399844E1,-4.595900059E0,2.574000061E-1,5.049999952E-1
2.025399844E1,-6.035899639E0,-2.236000001E-1,-7.566999793E-1
2.028399844E1,-5.857500076E0,-1.177899957E0,-1.866400003E0
2.031399688E1,-5.860099792E0,-2.408499956E0,-2.730099916E0
2.033399844E1,-6.977900028E0,-2.306999922E0,-1.984699965E0
2.035399844E1,-7.292699814E0,-1.751899958E0,-9.692999721E-1
2.037399844E1,-7.015299797E0,-9.926999807E-1,8.007999659E-1
2.040400000E1,-3.788499832E0,3.087999821E-1,3.634899855E0
2.043399844E1,1.850899935E0,1.112999991E-1,2.031699896E0
2.045399844E1,5.925299644E0,8.348000050E-1,5.924000144E-1
2.047399844E1,9.066999435E0,2.625999928E0,-4.533999860E-1
2.049399844E1,9.110099792E0,5.299699783E0,-1.366999984E0
2.051399844E1,4.140599728E0,7.861299992E0,-7.136399746E0
2.054399844E1,2.957799911E0,7.024600029E0,-6.406399727E0
2.056399844E1,3.024999857E0,1.839599967E0,9.217000008E-1
2.058399844E1,-3.579999804E-1,-1.315999925E-1,2.018300056E0
2.060399844E1,-1.187299967E0,-1.940999925E-1,2.817099810E0
2.063399844E1,4.382899761E0,-9.189999700E-1,2.285599947E0
2.065399844E1,6.563899994E0,-2.941799879E0,1.939000010E0
2.067399844E1,7.697599888E0,-4.645299911E0,3.273299932E0
2.069399844E1,5.578599930E0,-6.676099777E0,7.192100048E0
2.071400000E1,-2.016200066E0,-4.312900066E0,4.333600044E0
2.074399688E1,-7.114999771E0,-1.882599950E0,3.348999918E-1
2.076399688E1,-7.113399982E0,-5.794000030E-1,1.180799961E0
2.078399844E1,-8.304599762E0,7.820000052E-1,1.436100006E0
2.080399844E1,-8.580900192E0,1.716199994E0,1.027199984E0
2.082399844E1,-8.329799652E0,2.332799911E0,2.292199850E0
2.084399844E1,-7.554399967E0,2.195999861E0,3.416699886E0
2.086399844E1,-5.443799973E0,1.333999991E0,2.641099930E0
2.089399688E1,-2.087699890E0,-4.416999817E-1,3.989000022E-1
2.091399844E1,7.357999682E-1,-1.831299901E0,2.730999887E-1
2.093399844E1,3.632799864E0,-2.356400013E0,1.141600013E0
2.095399844E1,5.895400047E0,-1.609699965E0,3.102699995E0
2.097399844E1,6.457999706E0,-4.856699944E0,-9.090999603E0
2.099399844E1,2.190099955E0,-7.918200016E0,-1.393099976E1
2.101399844E1,-1.798200011E0,-5.850299835E0,-1.466889954E1
2.104399844E1,3.204399824E0,-1.203199983E0,-3.554199934E0
2.107399844E1,1.169999957E0,-2.664399862E0,-3.944799900E0
2.109399844E1,4.283499718E0,-4.077300072E0,4.006700039E0
2.111399844E1,6.205399990E0,-3.654799938E0,1.061199951E1
2.113399844E1,5.577499866E0,-2.029999942E-1,1.640359879E1
2.115399844E1,1.618199944E0,3.264099836E0,1.465499973E1
2.117399844E1,-1.253299952E0,2.833299875E0,6.191400051E0
2.119399844E1,-4.479099751E0,2.509899855E0,2.559499979E0
2.121400000E1,-5.445699692E0,1.067299962E0,4.791999757E-1
2.124399844E1,-6.130899906E0,-4.641999900E-1,-1.110100031E0
2.126399844E1,-6.278899670E0,-1.436499953E0,-1.929999948E0
2.128399844E1,-5.217999935E0,-2.558899879E0,-2.511899948E0
2.130399844E1,-5.315199852E0,-2.664099932E0,-2.246500015E0
2.132399844E1,-5.424599648E0,-1.831499934E0,-1.029899955E0
2.134399844E1,-5.451600075E0,-7.401999831E-1,3.689999878E-1
2.136399844E1,-4.311800003E0,-2.159999870E-2,1.305899978E0
2.139399688E1,-9.975999594E-1,8.090999722E-1,8.676999807E-1
2.141399688E1,1.937599897E0,1.295199990E0,6.444000006E-1
2.143399844E1,6.297499657E0,1.412400007E0,-3.007999957E-1
2.145399844E1,9.951600075E0,2.304899931E0,-1.572699904E0
2.147399844E1,4.926499844E0,6.682600021E0,-7.350800037E0
2.149400156E1,-9.991999865E-1,9.225799561E0,-1.147769928E1
2.152399844E1,3.697899818E0,4.702499866E0,4.154999852E-1
2.154399844E1,2.101500034E0,7.858999968E-1,4.323100090E0
2.157399844E1,2.487999916E0,-5.594999790E-1,4.351200104E0
2.160399688E1,5.751699924E0,-1.110499978E0,2.413599968E0
2.162399844E1,5.309899807E0,-2.097100019E0,5.439999700E-1
2.164399844E1,5.379999638E0,-3.414099932E0,2.933300018E0
2.166399844E1,3.009099960E0,-4.493099689E0,8.082099915E0
2.168399844E1,-3.449699879E0,-2.634899855E0,5.624099731E0
2.171399844E1,-7.302499771E0,-8.034999967E-1,1.252399921E0
2.174399688E1,-8.370100021E0,1.764400005E0,2.154799938E0
2.176399844E1,-8.437299728E0,2.345000029E0,6.707999706E-1
2.178399844E1,-7.526499748E0,2.099699974E0,1.263299942E0
2.180399844E1,-6.553599834E0,1.793099999E0,1.615000010E0
2.182399844E1,-5.636399746E0,1.576799989E0,2.383999974E-1
2.184399844E1,-3.902599812E0,5.807999969E-1,-2.391999960E-1
2.186399844E1,-1.471699953E0,-5.981999636E-1,-2.069999874E-1
2.189399688E1,3.178099871E0,-2.284999847E0,-2.976000011E-1
2.191399844E1,5.828899860E0,-3.305899858E0,2.726999819E-1
2.193399844E1,6.461199760E0,-5.951799870E0,-1.899299979E0
2.195399844E1,3.668599844E0,-8.838099480E0,-4.892799854E0
2.197399844E1,-4.591999948E-1,-9.127499580E0,-8.593699455E0
2.199399844E1,2.366699934E0,-4.118299961E0,-1.070849991E1
2.201399844E1,2.342200041E0,-1.179099917E0,-6.622900009E0
2.203399844E1,3.971999884E-1,-2.033499956E0,-5.543099880E0
2.205399844E1,3.979699850E0,-3.212699890E0,1.604999900E0
2.207399844E1,8.955599785E0,-4.688999653E0,6.091700077E0
2.209399844E1,7.946499825E0,-3.377899885E0,1.269199944E1
2.211399844E1,2.131199837E0,1.556399941E0,1.950729942E1
2.213399844E1,-2.023599863E0,3.252699852E0,1.120279980E1
2.215399844E1,-4.094299793E0,9.293999672E-1,3.400799990E0
2.217399844E1,-5.857299805E0,4.939999804E-2,1.320199966E0
2.219399844E1,-7.207599640E0,-8.745999932E-1,-7.539999485E-2
2.221399844E1,-7.219199657E0,-1.058300018E0,-3.240999877E-1
2.223399844E1,-6.165400028E0,-2.131899834E0,-1.870999932E0
2.225399844E1,-5.222199917E0,-3.460199833E0,-3.238399982E0
2.227399844E1,-5.677700043E0,-3.091300011E0,-2.818300009E0
2.229399844E1,-6.328000069E0,-1.468299985E0,-8.176999688E-1
2.232399844E1,-3.986099958E0,6.585999727E-1,2.884599924E0
2.234399844E1,-1.735499978E0,1.850299954E0,2.542299986E0
2.236399844E1,1.000499964E0,2.854599953E0,1.034799933E0
2.239399844E1,7.665199757E0,4.723700047E0,-5.824800014E0
2.242399844E1,5.985499859E0,7.617899895E0,-7.928599834E0
2.244399844E1,-9.386000037E-1,8.752399445E0,-7.635999680E0
2.247399844E1,5.247499943E0,5.912299633E0,2.545699835E0
2.249399844E1,4.290899754E0,1.275999993E-1,2.247400045E0
2.251399844E1,2.417700052E0,-1.696999907E0,3.311499834E0
2.254399688E1,3.208899975E0,-2.043900013E0,2.524199963E0
2.256399688E1,4.961800098E0,-1.880800009E0,4.957999885E-1
2.258399688E1,5.949800014E0,-4.212899685E0,5.438600063E0
2.260399688E1,5.897899628E0,-7.530299664E0,1.380629921E1
2.262399688E1,8.769999444E-2,-6.396599770E0,8.388799667E0
2.264399844E1,-4.934700012E0,-3.162899971E0,1.815099955E0
2.267399688E1,-7.188099861E0,-1.287400007E0,2.134999931E-1
2.269399688E1,-6.020799637E0,5.099999905E-2,1.097499967E0
2.271399844E1,-6.197700024E0,1.579100013E0,6.552000046E-1
2.274399688E1,-7.475699902E0,8.327999711E-1,-1.858999968E0
2.276399844E1,-7.507799625E0,1.246299982E0,-3.304999828E0
2.278399844E1,-6.389499664E0,1.522599936E0,-2.555799961E0
2.280399844E1,-4.759699821E0,1.295499921E0,-8.901999593E-1
2.283399844E1,-1.528499961E0,9.074999690E-1,9.975000024E-1
2.285399844E1,1.679899931E0,1.327499986E0,2.665499926E0
2.288399844E1,7.830399990E0,-1.849900007E0,2.142499924E0
2.290399844E1,7.622099876E0,-7.381700039E0,1.630399942E0
2.292399844E1,1.561100006E0,-8.390399933E0,-1.620099902E0
2.294399844E1,3.408399820E0,-7.010099888E0,-1.194530010E1
2.297399844E1,6.258000135E-1,-2.287699938E0,-7.386899948E0
2.299399844E1,1.275599957E0,-1.314899921E0,5.669000149E-1
2.301399844E1,5.167900085E0,-1.410300016E0,7.001000047E-1
2.303399844E1,7.538399696E0,-2.378700018E0,3.844499826E0
2.305399844E1,6.758299828E0,-1.616899967E0,8.997900009E0
2.307399844E1,2.757299900E0,2.337800026E0,1.404839993E1
2.309399844E1,-2.479500055E0,3.919999838E0,1.076349926E1
2.311399844E1,-4.838500023E0,1.339599967E0,3.470399857E0
2.313399844E1,-6.516599655E0,-1.944999993E-1,5.036999583E-1
2.315399844E1,-7.920399666E0,-1.151199937E0,-4.434999824E-1
2.317399844E1,-7.942399979E0,-2.260099888E0,-5.992000103E-1
2.319399844E1,-6.685199738E0,-3.373799801E0,-1.024199963E0
2.321399844E1,-6.207799911E0,-3.889699936E0,-1.475199938E0
2.323399844E1,-5.600899696E0,-4.082600117E0,-2.678000033E-1
2.325399844E1,-5.681799889E0,-2.517599821E0,1.780999899E0
2.328399844E1,-3.938199997E0,3.874000013E-1,2.463599920E0
2.330399844E1,-1.896199942E0,1.955500007E0,1.721399903E0
2.332399844E1,1.300499916E0,2.974400043E0,8.306999803E-1
2.335399844E1,1.026789951E1,4.131499767E0,-6.399600029E0
2.337399844E1,1.024409962E1,5.984899998E0,-1.018330002E1
2.340399844E1,7.236999869E-1,5.954099655E0,-7.324800014E0
2.342399844E1,5.053999901E0,4.052599907E0,-1.735000014E0
2.344399844E1,4.568099976E0,1.199100018E0,2.279299974E0
2.347399844E1,-2.344199896E0,-8.810999990E-1,3.289000034E0
2.349399844E1,-3.214099884E0,-2.983999848E-1,4.801099777E0
2.351399844E1,-3.797000051E-1,7.637999654E-1,6.002199650E0
2.354399844E1,5.004399776E0,-1.456799984E0,3.713799953E0
2.356399844E1,6.428400040E0,-3.876299858E0,7.486399651E0
2.358399844E1,4.566199780E0,-4.944299698E0,8.698100090E0
2.361399844E1,-3.168299913E0,-2.094099998E0,6.039999723E-1
2.364399844E1,-5.377199650E0,8.100000210E-3,9.983999729E-1
2.366399844E1,-6.033499718E0,2.310199976E0,1.959100008E0
2.368399844E1,-6.163599968E0,3.257200003E0,1.268299937E0
2.371399844E1,-6.433599949E0,1.265799999E0,-2.206300020E0
2.373399844E1,-6.192499638E0,9.156000018E-1,-1.688499928E0
2.375399844E1,-5.651000023E0,6.432999969E-1,-8.594999909E-1
2.378399844E1,-3.303699970E0,5.913999677E-1,-9.344999790E-1
2.380399844E1,3.639999777E-2,-7.419999689E-2,-7.386999726E-1
2.382399844E1,4.271199703E0,-1.132799983E0,1.451499939E0
2.384399844E1,7.907399654E0,-3.501299858E0,1.884199977E0
2.386399844E1,6.953499794E0,-7.308699608E0,1.879999973E-2
2.388399844E1,2.446199894E0,-8.514399529E0,-4.436199665E0
2.390399844E1,-4.399999976E-3,-6.771399975E0,-1.120819950E1
2.392399844E1,1.990899920E0,8.075000048E-1,-9.931399345E0
2.394399844E1,8.463999629E-1,-4.036999941E-1,-8.162199974E0
2.396399844E1,1.252900004E0,-3.543499947E0,-6.652499676E0
2.398399844E1,5.980099678E0,-5.644700050E0,5.075599670E0
2.400399844E1,7.081699848E0,-3.475299835E0,1.311179924E1
2.402399844E1,4.278199673E0,7.804999948E-1,1.627159882E1
2.404399844E1,1.426100016E0,3.923699856E0,1.460939980E1
2.407399844E1,-3.208400011E0,1.321799994E0,3.659199953E0
2.410399844E1,-6.399799824E0,-8.183000088E-1,2.489999868E-2
2.412399844E1,-7.674099922E0,-1.600099921E0,-5.109999776E-1
2.414399844E1,-8.418199539E0,-1.634199977E0,-6.880999804E-1
2.417399688E1,-6.649699688E0,-2.701900005E0,-1.324100018E0
2.419399844E1,-5.324399948E0,-3.486399889E0,-1.900099993E0
2.421399844E1,-4.924999714E0,-2.428099871E0,-3.923999965E-1
2.424399844E1,-4.377399921E0,4.702999890E-1,2.290899992E0
2.426399844E1,-2.981599808E0,2.039099932E0,2.443599939E0
2.428400000E1,-4.470999837E-1,2.804999828E0,1.497999907E0
2.431399688E1,6.086799622E0,3.515999794E0,-1.788299918E0
2.433399844E1,9.155799866E0,5.267399788E0,-8.822199821E0
2.435399844E1,6.775699615E0,7.469499588E0,-1.026099968E1
2.438399844E1,1.802199960E0,7.500799656E0,-2.106099844E0
2.440399844E1,5.044699669E0,5.001299858E0,4.151499748E0
2.442399844E1,1.484599948E0,1.048000008E-1,2.944599867E0
2.444399844E1,-1.656000018E-1,-8.344999552E-1,3.494799852E0
2.447399688E1,3.016799927E0,-2.712000012E-1,4.078199863E0
2.449399844E1,5.667699814E0,-5.345000029E-1,1.273499966E0
2.451399844E1,4.474599838E0,1.642999947E-1,1.524999976E0
2.454399688E1,2.525699854E0,-2.549000025E0,8.876799583E0
2.456399844E1,-8.364999890E-1,-1.773699999E0,6.791399956E0
2.458399844E1,-4.707499981E0,2.516999841E-1,1.789099932E0
2.461399844E1,-5.639100075E0,1.587399960E0,2.986799955E0
2.463399844E1,-4.895299911E0,1.274999976E-1,2.269099951E0
2.465399844E1,-4.380899906E0,-1.872599959E0,9.669999778E-2
2.468399844E1,-4.765500069E0,-1.742199898E0,-2.765899897E0
2.471399844E1,-6.039399624E0,-2.444299936E0,-4.776499748E0
2.473399844E1,-5.791800022E0,-3.359699965E0,-4.468800068E0
2.475399844E1,-4.955499649E0,-3.548199892E0,-3.759199858E0
2.478399844E1,1.659999937E-1,-2.599799871E0,-3.706499815E0
2.480399844E1,6.776299953E0,-2.563499928E0,-3.863299847E0
2.483399844E1,1.161009979E1,-1.068599939E0,3.625699997E0
2.485399844E1,4.964099884E0,-2.289000005E-1,-1.432699919E0
2.487399844E1,2.576499939E0,-2.753999829E-1,-3.213599920E0
2.490399844E1,2.117799997E0,-3.683899879E0,-3.695099831E0
2.492399844E1,2.805399895E0,-4.008699894E0,3.457099915E0
2.494399844E1,2.333999872E0,-2.554699898E0,1.707869911E1
2.497399844E1,-2.088999987E0,4.349999875E-2,1.424459934E1
2.499399844E1,-6.694999933E-1,8.919999599E-1,5.783199787E0
2.501399844E1,-3.883000016E-1,1.687799931E0,4.085299969E0
2.503399844E1,3.086999953E-1,9.083999991E-1,3.595399857E0
2.505399844E1,-5.084999800E-1,2.397999913E-1,1.276600003E0
2.507399844E1,-2.487900019E0,-4.062999785E-1,-1.616099954E0
2.509399844E1,-3.861799955E0,-1.172799945E0,-3.240299940E0
2.511399844E1,-5.651899815E0,-2.369600058E0,-4.396399975E0
2.513399844E1,-6.469199657E0,-3.333799839E0,-3.302799940E0
2.515399844E1,-7.386699677E0,-2.844099998E0,-2.932199955E0
2.518399844E1,-7.421099663E0,-2.983999848E-1,-2.193500042E0
2.521399844E1,-4.874000072E0,2.385200024E0,-3.081300020E0
2.523399844E1,-8.723999858E-1,2.397599936E0,-4.712599754E0
2.525399844E1,2.118299961E0,2.932299852E0,-4.053400040E0
2.527399844E1,4.592000008E0,4.146199703E0,-1.944999993E-1
2.529399844E1,7.199399948E0,5.737699986E0,2.404899836E0
2.531399844E1,6.227599621E0,4.354599953E0,-2.189199924E0
2.533399844E1,4.879600048E0,1.599599957E0,-6.225299835E0
2.535399844E1,3.758799791E0,3.168499947E0,1.030000001E-1
2.537399844E1,1.684999913E-1,1.611099958E0,5.158599854E0
2.540399844E1,-6.941999793E-1,1.283299923E0,6.489599705E0
2.542399844E1,1.549399972E0,2.850399971E0,6.491600037E0
2.544399844E1,3.909399986E0,2.047800064E0,4.324500084E0
2.546399844E1,4.858699799E0,-6.226999760E-1,6.493000031E0
2.549399844E1,2.547899961E0,-2.673399925E0,5.339499950E0
2.551399844E1,-6.488999724E-1,-1.132399917E0,1.614899993E0
2.553399844E1,-3.272099972E0,1.937000006E-1,-2.599999867E-2
2.555399844E1,-4.629799843E0,2.135999948E-1,-5.864999890E-1
2.557399844E1,-4.172899723E0,-9.959999919E-1,-1.783499956E0
2.560399688E1,-5.462599754E0,-2.347100019E0,-2.714900017E0
2.562399844E1,-5.743999958E0,-2.983599901E0,-3.249399900E0
2.564399844E1,-7.237400055E0,-2.986999989E0,-3.346099854E0
2.567399688E1,-8.552999496E0,-2.591899872E0,-1.728699923E0
2.569399844E1,-7.271899700E0,-1.927399993E0,-2.736999989E-1
2.571399844E1,-4.758500099E0,-5.827999711E-1,1.285499930E0
2.574399688E1,-1.634599924E0,3.530200005E0,2.971799850E0
2.576399844E1,4.291999817E0,3.037099838E0,6.225100040E0
2.578399844E1,1.498159981E1,-2.891700029E0,9.616499901E0
2.580399844E1,1.843280029E1,-8.644599915E0,-5.515999794E-1
2.583399844E1,3.873600006E0,-4.145599842E0,-1.021269989E1
2.585399844E1,1.088599920E0,-5.824899673E0,-5.354300022E0
2.587399844E1,3.669499874E0,-4.732800007E0,6.199999712E-3
2.590399844E1,4.417999983E-1,-8.703999519E-1,1.701099968E1
2.592399844E1,-2.209399939E0,2.750599861E0,2.006369972E1
2.594399844E1,-3.012599945E0,3.793799877E0,9.538899422E0
2.597399844E1,-2.262099981E0,2.665899992E0,3.745499849E0
2.599399844E1,-3.427899837E0,7.150999904E-1,1.092599988E0
2.601399844E1,-4.390699863E0,-1.177799940E0,-1.404500008E0
2.604399844E1,-5.019099712E0,-3.242499828E0,-2.603699923E0
2.607399844E1,-6.354300022E0,-3.662899971E0,-3.057499886E0
2.609399844E1,-7.148699760E0,-2.808099985E0,-3.943199873E0
2.611399844E1,-6.499799728E0,-1.519500017E0,-4.737999916E0
2.614399844E1,-4.732199669E0,3.991999924E-1,-2.250299931E0
2.616399844E1,-2.293799877E0,1.733799934E0,-2.868999839E-1
2.618399844E1,1.491899967E0,2.904799938E0,4.436999857E-1
2.621399844E1,5.496999741E0,4.893799782E0,-1.427000016E-1
2.624399844E1,4.508299828E0,5.570499897E0,-1.541000009E0
2.626404063E1,3.291899920E0,3.806799889E0,-3.947599888E0
2.629399844E1,4.783599854E0,1.751699924E0,-3.828899860E0
2.632399688E1,2.194999933E0,1.736599922E0,3.345399857E0
2.634399688E1,-7.357999682E-1,2.707999945E-1,2.176599979E0
2.636399688E1,-1.859099984E0,-9.266999960E-1,-7.509999722E-2
2.638399688E1,-1.318599939E0,-1.677799940E0,7.462999821E-1
2.640399688E1,8.050999641E-1,-3.521999836E0,6.009099960E0
2.642399844E1,3.846999884E0,-5.220900059E0,9.616600037E0
2.644399844E1,4.256799698E0,-4.888599873E0,7.471899986E0
2.647399688E1,8.101999760E-1,-3.278800011E0,3.469299793E0
2.649399688E1,-3.142799854E0,-1.410200000E0,1.902699947E0
2.651399844E1,-5.345799923E0,1.938999891E-1,1.539199948E0
2.654399688E1,-5.590399742E0,-2.329999954E-1,-9.289999604E-1
2.656399688E1,-5.016099930E0,-7.829999924E-1,-1.089200020E0
2.658399688E1,-5.143300056E0,-6.239999831E-2,-1.390999913E0
2.660399688E1,-5.401599884E0,9.730999470E-1,-1.072199941E0
2.662399688E1,-5.690099716E0,1.729799986E0,-6.161999702E-1
2.664399844E1,-4.763799667E0,1.727299929E0,-8.249999583E-2
2.666399844E1,-5.469999909E-1,2.025399923E0,8.904999495E-1
2.668399844E1,1.184099913E0,3.267400026E0,3.592000008E0
2.671399844E1,2.311899900E0,-3.840000033E-1,2.412600040E0
2.673399844E1,6.539299965E0,-7.134999752E0,-3.263599873E0
2.676399844E1,3.834499836E0,-1.014149952E1,-7.247299671E0
2.678399844E1,1.676399946E0,-7.452899933E0,-1.065530014E1
2.680399844E1,3.473899841E0,-1.889400005E0,-6.651199818E0
2.683399844E1,4.362299919E0,-1.751999974E0,-1.768700004E0
2.685399844E1,7.539799690E0,-1.119099975E0,3.644999862E-1
2.687399844E1,5.957999706E0,-6.890000105E-1,1.423699975E0
2.690399844E1,-2.264999866E0,-2.723000050E-1,8.788299561E0
2.692399844E1,-1.623499990E0,-2.039999962E-1,1.639179993E1
2.694399844E1,-9.365999699E-1,-4.748999774E-1,1.344489956E1
2.697399844E1,-2.671200037E0,-1.545699954E0,2.616099834E0
2.700399844E1,-4.668499947E0,-2.928099871E0,7.530999780E-1
2.703399844E1,-6.530799866E0,-3.011699915E0,-1.423699975E0
2.705399844E1,-7.628099918E0,-4.666999876E-1,-1.059199929E0
2.707399844E1,-7.676799774E0,9.557999969E-1,-7.589999586E-2
2.710399844E1,-7.169899940E0,2.292000055E0,-7.549999654E-2
2.713399688E1,-4.196000099E0,1.524199963E0,-1.463400006E0
2.715399844E1,-2.639799833E0,7.665999532E-1,-1.590600014E0
2.717399844E1,-1.291100025E0,5.968999863E-1,-7.190999985E-1
2.719399844E1,1.204699993E0,8.793999553E-1,1.669999957E-2
2.721399844E1,5.051199913E0,1.378799915E0,7.306999564E-1
2.723399844E1,7.857899666E0,2.724299908E0,4.508000016E-1
2.726399844E1,5.851699829E0,4.511300087E0,-2.706300020E0
2.728399844E1,6.976399899E0,5.736899853E0,-5.015500069E0
2.730399844E1,7.013000011E0,5.446700096E0,-2.224900007E0
2.732399844E1,1.379099965E0,2.275699854E0,3.274600029E0
2.734399844E1,-2.047299862E0,9.483999610E-1,1.767999977E-1
2.736399844E1,-2.572999895E-1,-3.910000026E-1,-1.800199986E0
2.739399844E1,9.653999805E-1,-7.825999856E-1,-7.439000010E-1
2.741399844E1,2.464400053E0,-1.094799995E0,6.681999564E-1
2.743399844E1,3.457199812E0,-1.621599913E0,1.342899919E0
2.745399844E1,1.001099944E0,-1.061100006E0,2.090600014E0
2.748399844E1,-1.433899999E0,-1.196999997E-1,4.999499798E0
2.750399844E1,-2.809099913E0,1.054799914E0,3.178799868E0
2.752399844E1,-4.490499973E0,2.006700039E0,1.254499912E0
2.754399844E1,-6.119799614E0,1.287299991E0,7.541999817E-1
2.756399844E1,-6.930399895E0,2.658999860E-1,9.396999478E-1
2.758399844E1,-6.685400009E0,-4.039999843E-1,1.186800003E0
2.761399844E1,-6.375999928E0,-3.129000068E-1,2.079099894E0
2.763399844E1,-6.536099911E0,-3.999999724E-3,1.686299920E0
2.765399844E1,-4.251299858E0,4.284999967E-1,1.825199962E0
2.768399844E1,1.364799976E0,1.398299932E0,3.133699894E0
2.771399844E1,7.204299927E0,-5.489599705E0,1.216699958E0
2.773399844E1,8.801899910E0,-7.845399857E0,-1.098999977E0
2.776399844E1,7.591199875E0,-2.753899813E0,-1.170329952E1
2.778399844E1,7.053999901E0,1.944999993E-1,-7.426099777E0
2.780399844E1,3.258399963E0,-8.553999662E-1,-4.337100029E0
2.783399844E1,1.210600019E0,2.111999989E-1,2.733399868E0
2.785400000E1,1.142899990E0,1.552999973E0,9.046299934E0
2.788399688E1,1.994099975E0,4.473400116E0,1.281979942E1
2.790399844E1,-3.139999881E-2,5.330899715E0,9.909399986E0
2.793399844E1,-4.395699978E0,3.142899990E0,3.983500004E0
2.795399844E1,-5.684899807E0,1.056699991E0,1.390200019E0
2.797399844E1,-6.563399792E0,5.339999869E-2,1.140000001E-1
2.799399844E1,-6.705599785E0,-8.252999783E-1,-6.387999654E-1
2.801399844E1,-6.050699711E0,-8.057999611E-1,4.862999916E-1
2.803399844E1,-4.255899906E0,-1.470299959E0,8.988999724E-1
2.805399844E1,-3.277199984E0,-2.253999949E0,2.685999870E-1
2.807399844E1,-1.999499917E0,-2.862699986E0,-3.274999857E-1
2.809399844E1,-1.412599921E0,-2.355900049E0,-5.393999815E-1
2.811399844E1,-1.998399973E0,-7.407000065E-1,-8.485999703E-1
2.813399844E1,-1.788599968E0,8.472999930E-1,-6.083999634E0
2.815399844E1,1.436000019E-1,1.526199937E0,-8.971599579E0
2.818399844E1,4.216099739E0,1.228600025E0,-2.959599972E0
2.821399844E1,6.290799618E0,3.007099867E0,-1.013299942E0
2.823399844E1,3.032099962E0,2.976899862E0,-3.105999947E0
2.826399844E1,5.127699852E0,2.131899834E0,-7.716999650E-1
2.828399844E1,1.303799987E0,1.332599998E0,9.596999884E-1
2.830399844E1,-7.982999682E-1,1.573999971E-1,3.032999992E0
2.833399844E1,5.902000070E-1,2.597999871E-1,5.851599693E0
2.835400000E1,3.203599930E0,7.050000131E-2,5.553199768E0
2.838400000E1,4.653199673E0,-6.340999603E-1,7.186999798E0
2.841399844E1,7.209999561E-1,-9.899999499E-1,5.699399948E0
2.843400000E1,-1.986999989E0,1.542999893E-1,2.745599985E0
2.846399688E1,-3.711999893E0,1.310699940E0,2.065999985E0
2.848399844E1,-3.694199800E0,1.908199906E0,2.367899895E0
2.850399844E1,-3.429799795E0,2.253999949E0,1.299000025E0
2.852399844E1,-4.191499710E0,1.485099912E0,-9.885999560E-1
2.854399844E1,-4.505700111E0,4.389999807E-1,-1.709699988E0
2.857399844E1,-3.946099997E0,-1.471499920E0,1.092899919E0
2.860399688E1,-3.675299883E0,-2.240999937E-1,3.727999926E0
2.862399844E1,-3.121599913E0,1.150099993E0,2.757799864E0
2.864400000E1,-1.828499913E0,2.313999891E0,7.834999561E-1
2.867399688E1,2.966099977E0,2.321999967E-1,5.586000085E-1
2.869399688E1,4.940899849E0,-2.303299904E0,1.744699955E0
2.871399688E1,3.399299860E0,-3.494099855E0,-1.461599946E0
2.873399688E1,3.286799908E0,-1.705799937E0,-4.511699677E0
2.875399688E1,4.974499702E0,7.795999646E-1,-8.832099915E0
2.877399688E1,4.148499966E0,4.231999815E-1,-7.185599804E0
2.879399688E1,1.737100005E0,-1.561999917E-1,-2.852900028E0
2.881399688E1,2.480200052E0,-1.570599914E0,1.185799956E0
2.883399844E1,1.547500014E0,-6.064000130E-1,4.624000072E0
2.885399844E1,1.135399938E0,1.532400012E0,6.062200069E0
2.887399844E1,1.185699940E0,2.861199856E0,8.616600037E0
2.889399844E1,-1.500899911E0,3.031699896E0,8.739899635E0
2.891399844E1,-3.240399837E0,1.039499998E0,6.425799847E0
2.893399844E1,-4.133100033E0,2.577999830E-1,3.318399906E0
2.895399844E1,-4.928299904E0,4.360000044E-2,1.611899972E0
2.897399844E1,-5.204499722E0,-3.134999871E-1,1.164099932E0
2.900399844E1,-4.605799675E0,-6.822999716E-1,1.453699946E0
2.902399844E1,-3.369299889E0,-8.540999889E-1,1.699999928E0
2.904399844E1,-2.252799988E0,-1.372799993E0,1.425099969E0
2.906399844E1,-1.074699998E0,-1.668599963E0,1.237200022E0
2.908399844E1,2.300999910E-1,-1.436299920E0,1.364099979E0
2.911399844E1,2.039299965E0,-7.871999741E-1,9.286999702E-1
2.913399844E1,2.541499853E0,-4.372999966E-1,-7.580000162E-2
2.915399844E1,1.939299941E0,3.044999838E-1,-1.394599915E0
2.918399688E1,7.143999934E-1,1.738899946E0,-6.627599716E0
2.920399688E1,-3.500000015E-2,1.744499922E0,-5.647500038E0
2.922399688E1,-2.651999891E-1,1.613099933E0,-3.157500029E0
2.924399688E1,-6.466999650E-1,1.487499952E0,-3.392999768E-1
2.926399688E1,-1.524199963E0,1.251999974E0,-1.886999905E-1
2.928399688E1,-1.289399981E0,1.113099933E0,-1.351899981E0
2.930399688E1,1.930999905E-1,1.540799975E0,-1.569999933E0
2.932399688E1,1.448099971E0,2.149299860E0,-2.230999947E0
2.934399688E1,2.312299967E0,1.827399969E0,-2.028300047E0
2.936399688E1,4.027999878E0,1.371699929E0,1.307099938E0
2.938399688E1,4.078999996E0,1.323999912E-1,3.111199856E0
2.940399688E1,3.770699978E0,-5.094999671E-1,3.579199791E0
2.942399688E1,3.098299980E0,-1.026999950E-1,3.079999924E0
2.944399688E1,-2.856000066E-1,-1.037999988E-1,1.202799916E0
2.946399844E1,-2.634999990E0,-8.082000017E-1,5.350999832E-1
2.949399688E1,-2.519999981E0,-2.725800037E0,1.212199926E0
2.951399688E1,-9.838999510E-1,-3.737200022E0,2.580899954E0
2.953399688E1,-4.467999935E-1,-3.380299807E0,3.492899895E0
2.955399688E1,-1.314199924E0,-1.784099936E0,3.261899948E0
2.957399688E1,-1.865099907E0,-7.805999517E-1,1.749699950E0
2.959399844E1,-1.815599918E0,-6.852999926E-1,3.109999932E-2
2.962399688E1,-8.047999740E-1,4.255999923E-1,5.945000052E-1
2.964399844E1,-5.205000043E-1,1.060500026E0,5.572000146E-1
2.967399688E1,-3.946000040E-1,5.221999884E-1,-3.763999939E-1
2.969399688E1,-1.110999942E0,-4.394999743E-1,-6.775000095E-1
2.971399688E1,-1.727999926E0,-1.355599999E0,-7.992999554E-1
2.973399688E1,-2.032299995E0,-1.812199950E0,-7.141000032E-1
2.975399688E1,-1.922999978E0,-1.918099999E0,-1.805000007E-1
2.977399688E1,-1.932599902E0,-1.748699903E0,-6.859999895E-2
2.979399688E1,-1.658699989E0,-1.663499951E0,-3.219999969E-1
2.981399688E1,-7.559999824E-1,-1.154299974E0,-3.188000023E-1
2.983399688E1,3.616999984E-1,7.233999968E-1,4.465999901E-1
2.985399688E1,1.651899934E0,2.036999941E0,-1.015299916E0
2.987399688E1,2.868399858E0,4.174999893E-1,-7.028999925E-1
2.989399688E1,3.307899952E0,-1.275499940E0,-3.059199810E0
2.991399688E1,3.309499979E0,-2.562399864E0,-7.628399849E0
2.993399688E1,2.897699833E0,-3.137399912E0,-6.740499973E0
2.995399844E1,1.782699943E0,-3.653599977E0,-2.915400028E0
2.997399844E1,1.009599924E0,-5.652699947E0,3.065399885E0
2.999399844E1,-5.496000051E-1,-3.833599806E0,8.318900108E0
3.001399844E1,-2.105799913E0,-1.006299973E0,6.801300049E0
3.004399844E1,-2.180399895E0,5.758000016E-1,3.634599924E0
3.006399844E1,-1.265499949E0,1.200299978E0,6.516399860E0
3.008399844E1,-9.809999466E-1,1.541499972E0,7.627599716E0
3.010399844E1,-1.508000016E0,1.383299947E0,4.615900040E0
3.012399844E1,-1.908299923E0,1.335399985E0,2.960899830E0
3.014399844E1,-1.115000010E0,1.312500000E0,2.265499830E0
3.016399844E1,-6.108999848E-1,1.602199912E0,1.373199940E0
3.019399844E1,-4.726999998E-1,1.445899963E0,3.029999882E-2
3.021399844E1,-9.362999797E-1,1.348299980E0,-6.408999562E-1
3.023399844E1,-1.089800000E0,1.269699931E0,-1.410599947E0
3.026399844E1,-8.021999598E-1,1.099200010E0,-1.563799977E0
3.028399844E1,-1.134299994E0,6.394000053E-1,-1.796000004E-1
3.030399844E1,-1.286599994E0,1.859000027E-1,5.460999608E-1
3.032399844E1,-1.253600001E0,1.957999915E-1,4.614000022E-1
3.035399688E1,-7.859999537E-1,3.190999925E-1,1.050999984E-1
3.037399844E1,-1.523000002E-1,3.506999910E-1,2.259999886E-2
3.039399844E1,4.321999848E-1,1.630000025E-1,-2.250999957E-1
3.041399844E1,5.925999880E-1,-7.249999791E-2,-7.516999841E-1
3.043400000E1,4.757999778E-1,-4.092999995E-1,-1.221199989E0
3.046399844E1,7.401999831E-1,-1.003700018E0,-9.000999928E-1
3.048399844E1,1.992899895E0,-1.081300020E0,-1.239999980E-1
3.050399844E1,3.469799995E0,-6.425999999E-1,9.025999904E-1
3.052399844E1,2.787499905E0,-2.836000025E-1,1.505399942E0
3.054399844E1,1.047299981E0,3.343999982E-1,2.074899912E0
3.056399844E1,-1.120999932E0,7.371000051E-1,2.496500015E0
3.058399844E1,-2.834399939E0,6.527000070E-1,2.639899969E0
3.061399844E1,-9.243999720E-1,3.234999776E-1,3.017299891E0
3.063399844E1,1.531399965E0,6.969999522E-2,3.445299864E0
3.065399844E1,2.214099884E0,-2.122999877E-1,4.528500080E0
3.068399688E1,4.727999866E-1,-3.019999899E-2,2.670599937E0
3.070399844E1,3.860999942E-1,1.303000003E-1,5.773999691E-1
3.072399844E1,-4.350999892E-1,5.523999929E-1,-1.054999977E-1
3.075399688E1,-1.862100005E0,3.296000063E-1,1.218999997E-1
3.077399844E1,-2.321899891E0,-1.851999909E-1,3.073000014E-1
3.079399844E1,-2.489599943E0,-2.398999929E-1,8.148999810E-1
3.082399688E1,-1.539899945E0,4.899999872E-2,1.285099983E0
3.084399844E1,-9.537999630E-1,2.733999789E-1,1.614699960E0
3.086399844E1,-7.465999722E-1,5.004999638E-1,1.685499907E0
3.088399844E1,-7.002999783E-1,6.753000021E-1,1.586699963E0
3.090399844E1,-3.574999869E-1,8.060999513E-1,1.282899976E0
3.092399844E1,2.687999904E-1,8.937000036E-1,7.684999704E-1
3.094399844E1,4.188999832E-1,5.956000090E-1,3.228999972E-1
3.096399844E1,6.662999988E-1,-4.318999946E-1,-1.115000010E0
3.099399688E1,-9.109999985E-2,-3.138099909E0,-2.208199978E0
3.101399844E1,-2.879999876E-1,-4.257100105E0,-3.240000010E-1
3.104399844E1,7.838000059E-1,-4.930999756E0,2.719999850E-1
3.107399844E1,2.451499939E0,-2.123699903E0,-1.495999932E0
3.110399688E1,2.797299862E0,8.914999962E-1,5.472999811E-1
3.112399844E1,2.720700026E0,2.876899958E0,2.106099844E0
3.114399844E1,8.883000016E-1,3.672999859E0,1.331099987E0
3.116399844E1,-1.166100025E0,3.525699854E0,1.237999946E-1
3.119399844E1,-1.816699982E0,1.402699947E0,5.647000074E-1
3.121399844E1,-2.075500011E0,1.260000002E-2,9.055999517E-1
3.123399844E1,-2.114599943E0,-4.660999775E-1,2.676699877E0
3.125404063E1,-2.306699991E0,2.061999887E-1,3.642400026E0
3.128399844E1,-1.703599930E0,8.260999918E-1,4.164999962E0
3.130399844E1,-5.410000086E-1,9.763000011E-1,3.900099993E0
3.133399844E1,2.345999926E-1,7.602999806E-1,2.079900026E0
3.136399844E1,7.304999828E-1,5.475999713E-1,7.277999520E-1
3.138399844E1,6.010999680E-1,-1.230999976E-1,-3.118000031E-1
3.140399844E1,4.784999788E-1,-8.075999618E-1,-6.287999749E-1
3.142399844E1,-3.140999973E-1,-8.274999857E-1,-4.776999950E-1
3.144399844E1,-1.485199928E0,-3.513000011E-1,-5.018000007E-1
3.147399844E1,-5.626999736E-1,1.064399958E0,-1.377999932E-1
3.150399844E1,3.225999773E-1,1.816299915E0,1.271499991E0
3.152399844E1,-6.549999714E-1,1.050899982E0,6.595999599E-1
3.154399844E1,-1.269099951E0,4.777999818E-1,-8.079999685E-2
3.156399844E1,-1.265100002E0,-4.187999964E-1,1.109999977E-2
3.158399844E1,-9.258999825E-1,-9.185999632E-1,5.726000071E-1
3.161399688E1,-7.358999848E-1,-4.343999922E-1,1.571999907E0
3.163399844E1,-3.130999804E-1,3.488999903E-1,6.951999664E-1
3.165399844E1,9.420000017E-2,8.798999786E-1,-6.507999897E-1
3.168399688E1,7.931999564E-1,1.366599917E0,-2.882200003E0
3.170399844E1,8.664000034E-1,1.323400021E0,-3.801599979E0
3.172399844E1,6.672999859E-1,9.680999517E-1,-2.770299911E0
3.175399688E1,1.683000028E-1,4.136999846E-1,-1.654399991E0
3.177399688E1,-2.766000032E-1,-1.472999901E-1,-2.627300024E0
3.179399688E1,-3.669999838E-1,-5.539000034E-1,-3.369400024E0
3.181399688E1,2.577999830E-1,-9.502999783E-1,-3.435400009E0
3.183399844E1,2.841999829E-1,-1.123499990E0,-3.373399973E0
3.186399844E1,-6.359999627E-2,-1.012300014E0,-1.677099943E0
3.188399844E1,1.916999936E0,-7.482999563E-1,5.752999783E-1
3.190399844E1,3.169600010E0,-1.709000021E-1,2.088299990E0
3.192399844E1,2.332599878E0,-6.889999658E-2,2.728899956E0
3.194399844E1,1.710999966E0,-3.249000013E-1,2.730700016E0
3.197399844E1,1.967999935E-1,-1.350099921E0,1.527799964E0
3.199399844E1,-1.903499961E0,-3.004499912E0,9.231999516E-1
3.201399844E1,-3.763199806E0,-4.659800053E0,1.337399960E0
3.203399844E1,-3.620800018E0,-5.762399673E0,2.529399872E0
3.205399844E1,-2.572700024E0,-6.132899761E0,3.132299900E0
3.207399844E1,9.699999355E-3,-5.506599903E0,2.995399952E0
3.209399844E1,3.091999888E-1,-3.291999817E0,1.418599963E0
3.212399844E1,3.481999934E-1,-5.249999762E-1,-8.251999617E-1
3.214399844E1,-5.629999936E-2,4.199999869E-1,-1.718199968E0
3.216399844E1,-3.304999769E-1,3.944999874E-1,-1.539600015E0
3.219399844E1,-9.888999462E-1,1.649999991E-2,-5.976999998E-1
3.221399844E1,-1.457999945E0,-6.987000108E-1,-4.600000102E-3
3.223399844E1,-1.967199922E0,-1.318799973E0,5.281000137E-1
3.226399844E1,-2.413399935E0,-1.537099957E0,4.531999826E-1
3.228399844E1,-2.681799889E0,-1.447299957E0,1.156999990E-1
3.230399844E1,-1.879199982E0,-1.490000010E0,-1.314000040E-1
3.232399844E1,-9.114999771E-1,-1.459699988E0,-3.601999879E-1
3.235399688E1,1.160599947E0,-1.620099902E0,-2.989999950E-2
3.237399844E1,2.107699871E0,-1.568899989E0,-5.157999992E-1
3.240399844E1,3.948399782E0,-2.207799911E0,7.184999585E-1
3.243399844E1,3.112499952E0,-2.049599886E0,-2.062500000E0
3.245399844E1,2.723199844E0,-2.793900013E0,-6.849699974E0
3.247399844E1,2.911799908E0,-3.109299898E0,-8.614500046E0
3.249399844E1,4.523999989E-1,-2.434299946E0,-5.317100048E0
3.251399844E1,-2.364399910E0,-1.726499915E0,-1.806100011E0
3.254399844E1,-2.432600021E0,-2.265399933E0,-9.200999737E-1
3.256399844E1,1.270900011E0,-4.756799698E0,6.370999813E-1
3.258399844E1,3.945699930E0,-5.349799633E0,3.677599907E0
3.261399688E1,1.720299959E0,-2.849599838E0,5.974599838E0
3.263399844E1,-1.581499934E0,-2.933000028E-1,8.334799767E0
3.265399844E1,-3.160399914E0,1.346899986E0,8.703700066E0
3.267400469E1,-3.745800018E0,9.190999866E-1,2.905400038E0
3.270399688E1,-4.292599678E0,2.010999918E-1,-5.927000046E-1
3.272399844E1,-3.999199867E0,6.989999861E-2,-9.494999647E-1
3.274399844E1,-3.696199894E0,-2.478999943E-1,-1.849099994E0
3.276399844E1,-4.238599777E0,-1.199999973E-1,-1.758599997E0
3.279399844E1,-4.986399651E0,6.621999741E-1,-4.864999950E-1
3.281399844E1,-4.653999805E0,9.748999476E-1,-1.397999972E-1
3.283399844E1,-2.771600008E0,8.769999743E-1,-5.995999575E-1
3.286399844E1,2.327999830E0,8.269999921E-2,-1.063199997E0
3.288399844E1,6.455499649E0,-6.370999813E-1,-1.410899997E0
3.290399844E1,9.861100197E0,-4.011999965E-1,-2.475299835E0
3.292399844E1,6.786699772E0,3.747299910E0,-6.270799637E0
3.294399844E1,2.445699930E0,5.867300034E0,-6.167199612E0
3.297399844E1,4.071599960E0,-2.146999985E-1,7.349999994E-2
3.300399844E1,1.581099987E0,-1.988099933E0,2.577800035E0
3.302399844E1,1.260200024E0,-1.976499915E0,4.361799717E0
3.304399844E1,1.358699918E0,-1.805899978E0,4.137399673E0
3.306399844E1,1.617699981E0,-2.916399956E0,4.290999889E0
3.308399844E1,1.148299932E0,-4.289299965E0,6.314399719E0
3.311399688E1,-3.454399824E0,-3.151799917E0,3.665099859E0
3.313399844E1,-5.243999958E0,-1.900399923E0,2.394999981E0
3.315399844E1,-7.073999882E0,-1.017000005E-1,2.286000013E0
3.318399844E1,-6.302399635E0,1.715799928E0,2.215800047E0
3.321399844E1,-6.378699780E0,5.776000023E-1,-1.450599909E0
3.323400000E1,-5.777599812E0,4.160999954E-1,-2.108199835E0
3.326399844E1,-4.326799870E0,1.315999925E-1,-1.968299985E0
3.329399844E1,-1.440400004E0,-1.602499962E0,-2.078500032E0
3.331399844E1,1.541799903E0,-2.543099880E0,-1.739799976E0
3.333399844E1,5.277199745E0,-1.306100011E0,9.970999956E-1
3.335399844E1,8.228599548E0,-3.930099964E0,-5.775799751E0
3.337399844E1,6.924299717E0,-8.047599792E0,-8.684499741E0
3.339399844E1,2.115200043E0,-7.836799622E0,-6.223099709E0
3.341399844E1,2.166300058E0,-6.006499767E0,-3.273399830E0
3.343399844E1,3.489499807E0,-1.536799908E0,-3.827499866E0
3.345399844E1,1.631899953E0,-4.733999968E-1,-2.029599905E0
3.347399844E1,1.096300006E0,-1.725699902E0,-2.055199862E0
3.350399844E1,2.146399975E0,-4.430200100E0,1.759899974E0
3.353399688E1,1.945400000E0,-4.787699699E0,8.957799911E0
3.355399844E1,-1.403699994E0,-7.261999846E-1,1.641939926E1
3.357399844E1,-3.059700012E0,2.628099918E0,1.344460011E1
3.360399688E1,-3.515799999E0,1.209999919E0,1.131699920E0
3.362399844E1,-5.217400074E0,1.145299911E0,5.607999563E-1
3.364399844E1,-6.087800026E0,3.125000000E-1,-4.998999834E-1
3.366399844E1,-5.524899960E0,-9.256999493E-1,-1.528299928E0
3.369399844E1,-5.761699677E0,-5.020999908E-1,-1.681899905E0
3.371399844E1,-6.256799698E0,6.019999981E-1,-1.371899962E0
3.373399844E1,-4.775499821E0,1.682099938E0,1.136699915E0
3.376399844E1,-2.201699972E0,3.309999943E0,2.881799936E0
3.379399844E1,1.247499943E0,3.630299807E0,-1.124499917E0
3.381399844E1,3.652099848E0,2.862699986E0,-5.951099873E0
3.383399844E1,8.517499924E0,9.437999725E-1,-1.173089981E1
3.385399844E1,7.158099651E0,1.956099987E0,-9.336299896E0
3.387399844E1,3.964499950E0,3.436800003E0,-2.269199848E0
3.389399844E1,2.287199974E0,4.034899712E0,-1.060899973E0
3.391399844E1,4.754499912E0,3.166100025E0,-1.640100002E0
3.393399844E1,2.565099955E0,-2.389999852E-2,-6.107999682E-1
3.395399844E1,-6.611999869E-1,-2.210899830E0,2.750499964E0
3.397399844E1,-1.155300021E0,-1.662799954E0,6.457200050E0
3.399399844E1,9.830999970E-1,-1.837999940E0,7.264699936E0
3.401399844E1,3.563499928E0,-3.661000013E0,6.184299946E0
3.403399844E1,3.109499931E0,-5.611799717E0,6.055799961E0
3.405399844E1,2.157799959E0,-5.832499981E0,4.607599735E0
3.407399844E1,-4.423999786E-1,-3.025599957E0,2.494899988E0
3.409399844E1,-3.504899979E0,-6.513999701E-1,1.541899920E0
3.412400156E1,-3.615399837E0,1.960500002E0,1.256999969E0
3.415399844E1,-3.464200020E0,1.928900003E0,-5.586999655E-1
3.417399844E1,-4.423399925E0,1.384000033E-1,-2.530699968E0
3.419399844E1,-5.597399712E0,-1.191999987E-1,-4.898900032E0
3.421399844E1,-6.664299965E0,1.634999961E-1,-6.208999634E0
3.423399844E1,-7.736099720E0,-2.389999926E-1,-4.756599903E0
3.425399844E1,-7.888599873E0,-7.926999927E-1,-2.848700047E0
3.428399688E1,-4.700799942E0,-4.479999840E-1,-2.057699919E0
3.430399844E1,-5.306000113E-1,2.090600014E0,1.465799928E0
3.432400313E1,6.962899685E0,1.006799936E0,3.566099882E0
3.435399688E1,1.615329933E1,-9.390199661E0,6.043900013E0
3.437399844E1,9.349199295E0,-9.543899536E0,-2.531800032E0
3.439399844E1,2.998699903E0,-3.092200041E0,-1.167079926E1
3.442399844E1,2.514799833E0,-4.091099739E0,-6.114899635E0
3.444399844E1,4.362299919E0,-4.373300076E0,6.715999842E-1
3.446399844E1,4.781699657E0,-5.625999928E0,5.914199829E0
3.448399844E1,2.351199865E0,-4.755099773E0,1.079469967E1
3.450399844E1,1.344900012E0,-2.251999855E0,1.233269978E1
3.452399844E1,4.925999939E-1,-1.098500013E0,9.111899376E0
3.455399844E1,-1.120199919E0,-3.367899895E0,2.275199890E0
3.457399844E1,-3.475899935E0,-4.581599712E0,-2.157000005E-1
3.459399844E1,-5.518699646E0,-4.435199738E0,-1.066900015E0
3.461399844E1,-7.414899826E0,-3.974499941E0,-2.922999859E-1
3.463399844E1,-8.673799515E0,-3.557399988E0,-2.069999874E-1
3.465399844E1,-9.270099640E0,-3.095399857E0,-5.394999981E-1
3.467399844E1,-9.460899353E0,-1.882599950E0,-3.443000019E-1
3.469399844E1,-7.874099731E0,-1.570999980E0,-1.322099924E0
3.471399844E1,-6.948799610E0,-1.102299929E0,-1.777899981E0
3.473399844E1,-6.198299885E0,5.863999724E-1,-1.411799908E0
3.476399844E1,-4.498399734E0,3.820400000E0,-7.872999907E-1
3.479399844E1,2.423799992E0,5.066099644E0,1.521899939E0
3.481399844E1,6.675899982E0,7.823899746E0,2.197999954E0
3.483399844E1,8.858300209E0,9.359899521E0,-8.100000024E-2
3.485399844E1,7.135900021E0,8.351799965E0,-5.912899971E0
3.487399844E1,6.422599792E0,5.080800056E0,-1.079729939E1
3.489399844E1,8.913800240E0,2.605299950E0,-4.480499744E0
3.491399844E1,5.980299950E0,1.839999914E0,1.213799953E0
3.493399844E1,-1.357399940E0,1.263999939E0,2.355399847E0
3.496399844E1,1.102999970E-1,-9.695999622E-1,2.380199909E0
3.498399844E1,-2.297299862E0,-2.850999832E-1,-2.021999955E-1
3.500399844E1,-2.027299881E0,-1.358399987E0,7.850999832E-1
3.502399844E1,-3.390000015E-2,-4.785199642E0,6.723799706E0
3.504399844E1,3.284299850E0,-7.086899757E0,1.124459934E1
3.506399844E1,4.807999730E-1,-4.872399807E0,3.782699823E0
3.508399844E1,-4.048599720E0,-1.416800022E0,5.655999780E-1
3.510399844E1,-5.528399944E0,4.181999862E-1,6.032999754E-1
3.512399844E1,-5.719999790E0,1.943999976E-1,-5.094000101E-1
3.514399844E1,-6.267699718E0,5.570000038E-2,-1.857800007E0
3.516399844E1,-6.561699867E0,6.189000010E-1,-1.741599917E0
3.519399844E1,-6.772899628E0,1.365499973E0,-1.788999885E-1
3.521399844E1,-6.544699669E0,1.805400014E0,-4.387999773E-1
3.523399844E1,-5.252599716E0,2.008399963E0,-4.199999869E-1
3.526399844E1,1.315299988E0,2.980999947E0,5.025399685E0
3.528399844E1,1.039419937E1,-1.244799972E0,4.152299881E0
3.530399844E1,1.606780052E1,-9.312399864E0,6.424999833E-1
3.533399844E1,4.693900108E0,-7.473499775E0,-1.290229988E1
3.536399844E1,1.687600017E0,-3.326799870E0,-7.049999714E0
3.538399844E1,-7.871999741E-1,-4.019799709E0,-4.856999815E-1
3.541399844E1,9.089999646E-2,-5.770299911E0,8.684999466E0
3.543399844E1,1.391600013E0,-5.475100040E0,1.069749928E1
3.545399844E1,-2.282999903E-1,-3.074499846E0,1.293199921E1
3.547399844E1,-1.734399915E0,1.459699988E0,1.293989944E1
3.550399844E1,-2.102400064E0,9.743999839E-1,2.440899849E0
3.553399844E1,-4.668200016E0,-1.190999970E-1,-1.971599936E0
3.555399844E1,-5.259599686E0,-6.798999906E-1,-2.733999968E0
3.557399844E1,-6.157899857E0,-9.149000049E-1,-3.329799891E0
3.559399844E1,-6.906599998E0,-1.276600003E0,-3.702600002E0
3.561399844E1,-6.974499702E0,-1.386600018E0,-2.346499920E0
3.563399844E1,-6.629199982E0,-5.131999850E-1,-7.813999653E-1
3.565399844E1,-5.060800076E0,5.704999566E-1,6.556999683E-1
3.568399844E1,-2.268800020E0,2.391000032E0,4.228999913E-1
3.571399688E1,9.055999517E-1,4.045099735E0,-9.411000013E-1
3.573399844E1,4.629399776E0,4.093100071E0,-2.147899866E0
3.575399844E1,8.386899948E0,4.661799908E0,-2.828299999E0
3.577399844E1,9.707399368E0,5.387199879E0,-5.066499710E0
3.579399844E1,5.687599659E0,5.361999989E0,-6.516699791E0
3.581399844E1,4.792900085E0,4.431900024E0,-2.495699883E0
3.583399844E1,1.914799929E0,1.875000000E-1,2.522999942E-1
3.586399844E1,-1.050499916E0,-1.868600011E0,3.870699883E0
3.589399688E1,2.779399872E0,-1.236699939E0,5.942399979E0
3.591399844E1,3.859999895E0,-3.471899986E0,5.964399815E0
3.593399844E1,4.321799755E0,-5.122499943E0,4.631499767E0
3.595399844E1,1.597700000E0,-4.383299828E0,3.654299974E0
3.597399844E1,-1.546000004E0,-2.378900051E0,1.914799929E0
3.600399844E1,-4.381299973E0,7.504999638E-1,1.636600018E0
3.602399844E1,-6.137099743E0,1.771299958E0,1.636500001E0
3.605399844E1,-7.008999825E0,8.680999875E-1,-8.170999885E-1
3.607400000E1,-7.112999916E0,6.663999557E-1,-1.892499924E0
3.610399844E1,-6.210099697E0,7.367999554E-1,-2.181699991E0
3.612399844E1,-5.272299767E0,9.700999856E-1,-6.374999881E-1
3.614399844E1,-4.194099903E0,1.310500026E0,8.500999808E-1
3.616399844E1,-2.882599831E0,1.528199911E0,1.642300010E0
3.619399844E1,1.434799910E0,1.492499948E0,4.017399788E0
3.621401094E1,5.264899731E0,4.359000027E-1,6.122399807E0
3.624404063E1,6.671700001E0,-8.421400070E0,-4.495500088E0
3.627399688E1,2.431900024E0,-7.733599663E0,-1.078919983E1
3.629399844E1,2.716899872E0,-9.440000057E-1,-1.117710018E1
3.631399844E1,-1.130999997E-1,-5.927999616E-1,-8.005700111E0
3.633399844E1,2.328299999E0,-9.273999929E-1,2.588999867E-1
3.636399844E1,9.604199409E0,-2.072200060E0,6.771100044E0
3.638399844E1,8.156099319E0,6.539999694E-2,1.135919952E1
3.640399844E1,3.612399817E0,2.569499969E0,1.284219933E1
3.642399844E1,-1.101400018E0,2.208600044E0,9.423699379E0
3.644399844E1,-3.981099844E0,-6.289999932E-2,4.584399700E0
3.647399844E1,-6.170599937E0,-1.484599948E0,1.990099907E0
3.649399844E1,-6.753999710E0,-1.439599991E0,1.687299967E0
3.651399844E1,-7.666899681E0,-9.290999770E-1,1.317299962E0
3.653399844E1,-8.715099335E0,-8.841999769E-1,4.079999924E-1
3.655399844E1,-8.898399353E0,-6.003999710E-1,-3.506999910E-1
3.657399844E1,-8.005000114E0,-4.050000012E-1,-1.199999973E-1
3.659399844E1,-5.727999687E0,3.057999909E-1,8.877999783E-1
3.662399844E1,-1.379999995E0,2.575000048E0,-6.854999661E-1
3.664399844E1,2.802500010E0,3.672899961E0,-7.463500023E0
3.666399844E1,6.950299740E0,3.931099892E0,-6.618799686E0
3.668399844E1,1.202559948E1,4.048900127E0,-4.812699795E0
3.671399688E1,4.196799755E0,7.067999840E0,-4.712899685E0
3.673399844E1,4.604799747E0,5.817499638E0,1.940599918E0
3.676399844E1,3.054299831E0,1.116099954E0,2.288899899E0
3.678399844E1,2.067600012E0,-6.929000020E-1,3.159199953E0
3.680399844E1,3.538800001E0,-1.523299932E0,3.912699938E0
3.683400625E1,4.245199680E0,-1.405699968E0,4.048999786E0
3.686399844E1,1.922699928E0,-3.401099920E0,7.109599590E0
3.688399844E1,-1.077299953E0,-2.848099947E0,4.935100079E0
3.690399844E1,-3.495399952E0,-8.942999840E-1,2.380599976E0
3.692399844E1,-4.395899773E0,1.030200005E0,2.270299911E0
3.694399844E1,-3.390399933E0,1.349499941E0,2.250799894E0
3.697399844E1,3.172899961E0,1.386199951E0,2.384899855E0
3.700399844E1,-4.713299751E0,8.233000040E-1,-1.317699909E0
3.702399844E1,-8.049099922E0,-1.422199965E0,-5.526999950E0
3.704399844E1,-8.712699890E0,-2.137099981E0,-6.746299744E0
3.706399844E1,-7.924099922E0,-2.840299845E0,-5.046499729E0
3.708399844E1,-8.062999725E0,-2.966300011E0,-3.263000011E0
3.710399844E1,-7.143699646E0,-2.648900032E0,-2.323799849E0
3.712400312E1,-4.096499920E0,-1.037099957E0,-2.365299940E0
3.715400000E1,4.137300014E0,1.649500012E0,2.595999956E0
3.718399688E1,1.131489944E1,-1.890699983E0,5.992699623E0
3.720399844E1,9.858499527E0,-3.632900000E0,-1.392300010E0
3.722399844E1,8.185500145E0,-5.355199814E0,-3.842399836E0
3.724399844E1,4.250599861E0,-4.460099697E0,-7.092199802E0
3.726399844E1,1.374199986E0,-2.858099937E0,1.642099977E0
3.729399844E1,2.634199858E0,-2.353999853E0,8.012299538E0
3.732399688E1,2.328599930E0,2.504999936E-1,9.764599800E0
3.734399844E1,-2.874000072E-1,1.545199990E0,6.448999882E0
3.736399844E1,-2.597499847E0,7.731999755E-1,2.737599850E0
3.738399844E1,-4.842799664E0,-3.495000005E-1,6.250000000E-1
3.740399844E1,-6.440199852E0,-1.348399997E0,-8.432999849E-1
3.743399844E1,-5.346600056E0,-2.781599998E0,-8.725999594E-1
3.745399844E1,-5.268099785E0,-3.425199986E0,-1.030099988E0
3.748399844E1,-6.145400047E0,-1.559499979E0,-1.103999987E-1
3.750399844E1,-6.685799599E0,4.007000029E-1,2.721999884E-1
3.752399844E1,-5.399600029E0,2.200299978E0,8.123999834E-1
3.754399844E1,-3.120599985E0,3.515399933E0,2.743999958E-1
3.757399844E1,2.902599812E0,3.631500006E0,-2.810699940E0
3.759399844E1,6.927399635E0,3.183499813E0,-4.364799976E0
3.761399844E1,8.631699562E0,3.131999969E0,-5.776499748E0
3.764399844E1,5.011199951E0,3.840799809E0,-5.901000023E0
3.766399844E1,4.100800037E0,4.027499676E0,-1.372999996E-1
3.769399844E1,2.027299881E0,9.591999650E-1,2.529799938E0
3.771399844E1,-9.095999599E-1,-6.144999862E-1,2.801499844E0
3.773399844E1,-4.199999943E-2,-5.665999651E-1,3.535199881E0
3.775399844E1,3.398900032E0,1.699999906E-3,5.473299980E0
3.777399844E1,5.441199780E0,-6.121000051E-1,5.983599663E0
3.779399844E1,5.476799965E0,-2.313199997E0,6.058199883E0
3.781399844E1,2.683499813E0,-2.805999994E0,5.485699654E0
3.783399844E1,-1.010299921E0,-1.867699981E0,4.300099850E0
3.785399844E1,-4.802400112E0,2.187999934E-1,2.745100021E0
3.787399844E1,-6.818999767E0,1.964100003E0,3.003099918E0
3.790399844E1,-5.982399940E0,1.366799951E0,3.213000000E-1
3.793399844E1,-5.621200085E0,4.966000021E-1,-2.382299900E0
3.795399844E1,-5.191199780E0,4.849999845E-1,-2.300199986E0
3.798399844E1,-4.149199963E0,-4.614999890E-1,1.577999890E-1
3.800399844E1,-3.158999920E0,-1.273299932E0,7.278999686E-1
3.802399844E1,-1.879999995E0,-1.910399914E0,3.565999866E-1
3.804399844E1,-2.933999896E-1,-2.311899900E0,1.421999931E-1
3.806399844E1,1.912699938E0,-2.950299978E0,8.459999561E-1
3.808399844E1,4.542200089E0,-3.769099951E0,6.899999976E-1
3.810399844E1,6.513899803E0,-2.967799902E0,-2.853099823E0
3.812399844E1,3.760099888E0,-2.461999953E-1,-5.494299889E0
3.814399844E1,-1.945799947E0,-7.951999903E-1,-1.418929958E1
3.816399844E1,4.767999947E-1,-1.722499967E0,-8.884399414E0
3.819399844E1,1.258099914E0,-3.531699896E0,-9.633999467E-1
3.821399844E1,1.648899913E0,-5.379299641E0,2.377300024E0
3.823399844E1,2.995699883E0,-7.522899628E0,5.747499943E0
3.825399844E1,1.723299980E0,-8.589300156E0,8.816499710E0
3.827399844E1,-6.004999876E-1,-6.944299698E0,1.103709984E1
3.829399844E1,-3.756999969E-1,-4.898600101E0,7.500000000E0
3.831399844E1,-1.471000016E-1,-2.109499931E0,3.752099991E0
3.833399844E1,-1.691299915E0,-3.222999871E-1,1.376799941E0
3.835399844E1,-3.304399967E0,6.384999752E-1,6.719999760E-2
3.837399844E1,-4.130899906E0,6.046000123E-1,-1.160799980E0
3.840399844E1,-3.154999971E0,-1.559399962E0,-2.947299957E0
3.842399844E1,-5.280699730E0,-1.478599906E0,-1.578999996E0
3.844399844E1,-5.695799828E0,-8.944000006E-1,2.082700014E0
3.846399844E1,-5.616899967E0,1.078199983E0,5.379600048E0
3.848399844E1,-4.788399696E0,2.700399876E0,4.752199650E0
3.850399844E1,-2.525099993E0,2.566599846E0,2.545199871E0
3.852399844E1,1.010900021E0,2.934299946E0,4.008999765E-1
3.855399844E1,9.507100105E0,4.417200089E0,-9.943499565E0
3.857399844E1,9.344200134E0,3.940699816E0,-1.432899952E1
3.859399844E1,2.638499975E0,2.080699921E0,-8.828700066E0
3.861399844E1,2.566400051E0,8.242999911E-1,-1.840599895E0
3.863399844E1,3.468799829E0,-8.252999783E-1,1.269500017E0
3.865399844E1,-6.692999601E-1,-7.909999788E-2,2.848099947E0
3.867399844E1,5.108000040E-1,-4.249999821E-1,4.997099876E0
3.869399844E1,2.165699959E0,-2.439999878E-1,6.701599598E0
3.871399844E1,2.319399834E0,-4.377999902E-1,4.825699806E0
3.873399844E1,2.385900021E0,-7.971999645E-1,3.322999954E0
3.875399844E1,2.850800037E0,-1.240899920E0,4.592700005E0
3.877399844E1,4.354999959E-1,-1.393499970E0,4.833899975E0
3.879399844E1,-1.821099997E0,-1.175400019E0,2.720999956E0
3.881399844E1,-3.958599806E0,1.079599977E0,1.634799957E0
3.883399844E1,-4.382599831E0,1.923599958E0,3.250200033E0
3.886399844E1,-4.539799690E0,9.074999690E-1,-2.627199888E0
3.888399844E1,-5.241099834E0,1.424799919E0,-3.255499840E0
3.890399844E1,-5.618299961E0,1.865899920E0,-1.549699903E0
3.892399844E1,-5.324699879E0,1.671599984E0,4.255999923E-1
3.894399844E1,-4.084199905E0,9.386000037E-1,2.712199926E0
3.896399844E1,-2.229500055E0,4.600999951E-1,3.044199944E0
3.898399844E1,1.442999989E-1,-5.367000103E-1,1.732199907E0
3.900399844E1,2.386100054E0,-1.826499939E0,1.255900025E0
3.902399844E1,4.200299740E0,-4.362899780E0,-3.570999801E-1
3.904399844E1,4.584399700E0,-6.136099815E0,-3.559799910E0
3.907400000E1,5.712499619E0,-1.374300003E0,-1.077180004E1
3.910399844E1,2.562099934E0,-2.979999781E-1,-6.073400021E0
3.912399844E1,6.649499893E0,6.416000128E-1,6.425399780E0
3.914399844E1,6.702099800E0,4.068599701E0,8.639999390E0
3.916399844E1,4.152299881E0,7.604599953E0,9.828399658E0
3.919399844E1,-5.870999694E-1,7.664099693E0,8.477299690E0
3.922399844E1,-4.786600113E0,2.622699976E0,1.909099936E0
3.924399844E1,-6.895799637E0,9.847999811E-1,8.422999978E-1
3.926399844E1,-8.027099609E0,-1.815000027E-1,-5.269999802E-2
3.928399844E1,-8.225500107E0,-1.135100007E0,-3.023000062E-1
3.930399844E1,-7.124099731E0,-2.366699934E0,-4.069999978E-2
3.933399844E1,-4.434299946E0,-3.208799839E0,9.169999510E-2
3.935399844E1,-3.260699987E0,-2.522199869E0,3.294000030E-1
3.937399844E1,-2.594199896E0,-8.619999886E-1,3.192999959E-1
3.940399844E1,-3.231999874E-1,2.296700001E0,-2.704200029E0
3.942399844E1,3.551800013E0,3.141000032E0,-8.624400139E0
3.944399844E1,9.385499954E0,3.071499825E0,-1.079559994E1
3.946399844E1,1.022629929E1,5.165999889E0,-4.376499653E0
3.948399844E1,3.588199854E0,6.629600048E0,-1.564499974E0
3.950399844E1,1.209999919E0,7.141099930E0,5.859999731E-2
3.952399844E1,4.777999878E0,4.959000111E0,1.728899956E0
3.955399844E1,2.155999988E-1,1.248899937E0,1.232699990E0
3.957399844E1,5.716999769E-1,9.899999946E-3,3.479199886E0
3.959399844E1,1.488399982E0,5.005999804E-1,5.302700043E0
3.962399844E1,2.112200022E0,6.250999570E-1,5.073599815E0
3.964399844E1,2.121500015E0,-6.466999650E-1,6.006199837E0
3.966399844E1,6.865999699E-1,-1.483500004E0,6.171299934E0
3.969399688E1,-4.833899975E0,5.745999813E-1,2.898499966E0
3.971399844E1,-6.700799942E0,1.206200004E0,2.244699955E0
3.973399844E1,-5.514299870E0,2.056499958E0,4.249399662E0
3.976399844E1,-4.052199841E0,1.534299970E0,-7.761999965E-1
3.978399844E1,-4.260699749E0,9.409999847E-1,-3.244199991E0
3.980399844E1,-5.320899963E0,1.022400022E0,-3.266000032E0
3.982399844E1,-5.232899666E0,6.439999938E-1,-1.223199964E0
3.984399844E1,-2.971499920E0,-9.620999694E-1,1.203999996E0
3.986399844E1,-4.967999756E-1,-2.420699835E0,2.982800007E0
3.988399844E1,1.741099954E0,-3.002599955E0,1.825199962E0
3.990399844E1,4.316499710E0,-3.322700024E0,-7.012999654E-1
3.993399844E1,8.271499634E0,-3.157099962E0,-4.780299664E0
3.996399844E1,4.751999855E0,-8.819999546E-2,-6.861599922E0
3.998399844E1,3.121299982E0,2.429100037E0,-1.104019928E1
4.000399844E1,4.801399708E0,1.727899909E0,-7.802399635E0
4.002399844E1,2.532999814E-1,-8.975999951E-1,-9.352799416E0
4.004399844E1,3.585999906E-1,-5.239399910E0,1.679099917E0
4.006399844E1,5.830999613E-1,-4.724299908E0,1.254029942E1
4.008399844E1,9.351999760E-1,3.558999896E-1,2.068569946E1
4.011399688E1,-1.018800020E0,3.612999916E0,9.073900223E0
4.013399844E1,-2.635699987E0,3.289700031E0,4.698400021E0
4.015399844E1,-4.131899834E0,2.902799845E0,3.499099970E0
4.017399844E1,-5.612799644E0,2.195999861E0,1.537400007E0
4.020399844E1,-6.930799961E0,4.681999981E-1,-1.015699983E0
4.022399844E1,-6.047699928E0,-1.032099962E0,-1.439099908E0
4.025399688E1,-4.615200043E0,-2.598099947E0,-2.504999876E0
4.027399844E1,-5.869599819E0,-1.356099963E0,-1.674600005E0
4.029399844E1,-6.099899769E0,2.470999956E-1,-3.646000028E-1
4.031399844E1,-4.463599682E0,1.931800008E0,5.911999941E-1
4.033399844E1,-8.028999567E-1,2.731699944E0,6.965000033E-1
4.035399844E1,5.026299953E0,2.310999870E0,-1.178200006E0
4.037399844E1,9.810899734E0,2.981899977E0,-6.346600056E0
4.039399844E1,8.468699455E0,6.787600040E0,-8.232199669E0
4.041399844E1,3.279599905E0,7.284699917E0,-4.018399715E0
4.043399844E1,-1.852899909E0,7.127899647E0,-2.439199924E0
4.045399844E1,-2.162999958E-1,4.257199764E0,4.002999961E-1
4.048399844E1,8.628000021E-1,4.906999767E-1,4.198699951E0
4.050399844E1,3.151799917E0,5.271999836E-1,4.897099972E0
4.052399844E1,2.697000027E0,4.998999834E-1,3.347399950E0
4.054399844E1,4.665199757E0,-4.818999767E-1,1.611499906E0
4.056399844E1,4.382100105E0,-1.804299951E0,2.856699944E0
4.058399844E1,3.375299931E0,-3.680399895E0,8.313899994E0
4.060399844E1,-9.359999746E-2,-3.709699869E0,7.512300014E0
4.062399844E1,-4.427099705E0,-1.807399988E0,3.797799826E0
4.064399844E1,-6.857800007E0,-2.129999995E-1,2.805199862E0
4.066399844E1,-7.544199944E0,4.726999998E-1,2.661700010E0
4.069399844E1,-7.147799969E0,1.505800009E0,2.026000023E-1
4.071401875E1,-6.925499916E0,1.213199973E0,-6.521999836E-1
4.074399688E1,-5.960999966E0,1.615999937E0,4.981999993E-1
4.076399844E1,-5.217899799E0,1.965699911E0,1.065899968E0
4.078399844E1,-4.136899948E0,9.775999784E-1,6.833999753E-1
4.080399844E1,-1.012799978E0,-8.362999558E-1,1.899999916E-3
4.082399844E1,4.538099766E0,-2.954299927E0,-8.939999938E-1
4.084399844E1,9.869699478E0,-4.869299889E0,5.609999970E-2
4.086399844E1,1.142799950E1,-7.912299633E0,-6.802099705E0
4.088399844E1,5.447199821E0,-5.721699715E0,-7.989499569E0
4.091399844E1,-2.670899868E0,3.394399881E0,-1.117309952E1
4.093399844E1,1.033800006E0,2.114500046E0,-9.545999527E0
4.095399844E1,5.009999871E-2,-1.671499968E0,-5.514400005E0
4.098399844E1,2.321300030E0,-5.446599960E0,7.022099972E0
4.100399844E1,3.213099957E0,-5.474699974E0,1.322480011E1
4.102399844E1,1.085500002E0,-2.897199869E0,2.050129890E1
4.105399844E1,-7.109000087E-1,-8.300999999E-1,8.591699600E0
4.107399844E1,-2.499799967E0,4.518999755E-1,4.590899944E0
4.109399844E1,-4.119499683E0,9.907999635E-1,1.769899964E0
4.112399844E1,-5.353499889E0,3.382999897E-1,-4.553999901E-1
4.115399844E1,-3.742799997E0,-2.153599977E0,-3.602099895E0
4.117399844E1,-5.339499950E0,-2.745499849E0,-4.333399773E0
4.119399844E1,-6.666599751E0,-1.842799902E0,-2.201900005E0
4.121399844E1,-6.890799999E0,-1.697799921E0,4.848999977E-1
4.123404219E1,-6.603499889E0,-9.860999584E-1,3.033399820E0
4.126399844E1,-1.640699983E0,1.199699998E0,4.491899967E0
4.128399844E1,2.486599922E0,2.925099850E0,2.963199854E0
4.130399844E1,1.085949993E1,4.257400036E0,-3.301899910E0
4.132399844E1,1.216639996E1,6.546700001E0,-1.147999954E1
4.134399844E1,2.035899878E0,8.345999718E0,-9.031700134E0
4.136399844E1,6.039999962E0,6.322999954E0,1.053300023E0
4.138399844E1,5.097799778E0,2.697799921E0,3.142699957E0
4.141399844E1,-2.246799946E0,-1.694999933E-1,4.036399841E0
4.143399844E1,-1.091699958E0,-1.257900000E0,3.414099932E0
4.145399844E1,2.443799973E0,-1.864699960E0,2.191499949E0
4.148399844E1,5.973700047E0,-4.093299866E0,3.217900038E0
4.150399844E1,3.515799999E0,-4.062699795E0,5.887000084E0
4.152399844E1,-1.662899971E0,-1.923299909E0,5.051199913E0
4.155399844E1,-6.436599731E0,1.170599937E0,4.170700073E0
4.157399844E1,-6.409199715E0,1.287599921E0,2.291499853E0
4.159399844E1,-6.467099667E0,9.785999656E-1,8.746999502E-1
4.161399844E1,-6.270099640E0,1.402199984E0,-3.529999778E-2
4.163399844E1,-6.451699734E0,2.122999907E0,-7.139999866E-1
4.165399844E1,-6.597300053E0,2.185899973E0,-1.999999949E-4
4.167399844E1,-5.731899738E0,1.113999963E0,7.633000016E-1
4.169399844E1,-3.662499905E0,-2.847999930E-1,1.076399922E0
4.171399844E1,-1.042799950E0,-1.462399960E0,1.059399962E0
4.173399844E1,2.987599850E0,-2.364199877E0,1.746099949E0
4.176399844E1,9.984099388E0,-6.848399639E0,-5.359999657E0
4.178399844E1,6.851799965E0,-7.957299709E0,-6.949699879E0
4.180399844E1,-4.831999838E-1,-2.371299982E0,-9.550999641E0
4.182399844E1,-2.322099924E0,2.980799913E0,-1.209289932E1
4.184399844E1,2.413599968E0,1.073499918E0,-8.283100128E0
4.186399844E1,1.479699969E0,-2.673199892E0,-6.581999779E0
4.188399844E1,3.614099979E0,-6.667799950E0,4.583199978E0
4.191399688E1,4.768899918E0,-4.645800114E0,1.994009972E1
4.193399844E1,8.912999630E-1,-6.074999571E-1,1.796500015E1
4.195399844E1,-2.147599936E0,-4.017999768E-1,7.186399937E0
4.198399844E1,-4.624399662E0,-1.384000033E-1,3.496899843E0
4.200399844E1,-6.092400074E0,0.000000000E0,1.633899927E0
4.202399844E1,-6.668200016E0,-8.483999968E-1,2.100999951E-1
4.205399844E1,-2.409999847E0,-4.635999680E0,-2.213899851E0
4.207399844E1,-4.440099716E0,-4.241899967E0,-3.071199894E0
4.209399844E1,-8.407099724E0,-1.455199957E0,-1.404099941E0
4.212399844E1,-8.758799553E0,1.167999983E0,2.507799864E0
4.215399844E1,-5.909800053E0,2.834599972E0,2.621799946E0
4.217399844E1,-5.439999700E-1,3.580899954E0,2.647199869E0
4.219399844E1,7.868599892E0,4.353699684E0,1.047799945E0
4.222399844E1,1.378479958E1,5.463099957E0,-1.313989925E1
4.224399844E1,5.689199924E0,6.171499729E0,-1.346089935E1
4.226399844E1,2.670500040E0,5.506000042E0,-1.860399961E0
4.228399844E1,5.435800076E0,3.701799870E0,5.754699707E0
4.230399844E1,2.496799946E0,-4.756999910E-1,2.769500017E0
4.232399844E1,-9.944999814E-1,-1.496099949E0,2.350800037E0
4.234399844E1,4.456000030E-1,-6.021999717E-1,4.333699703E0
4.236399844E1,2.011999846E0,8.824999928E-1,3.932599783E0
4.238399844E1,2.816299915E0,5.198999643E-1,2.388599873E0
4.241399844E1,3.314399958E0,-3.084599972E0,8.553199768E0
4.243399844E1,-4.244999886E-1,-3.221599817E0,6.690999985E0
4.245399844E1,-5.366199970E0,-2.017000020E-1,2.260699987E0
4.248399844E1,-7.476799965E0,2.333499908E0,4.230599880E0
4.250399844E1,-5.868299961E0,3.327600002E0,4.611599922E0
4.252400469E1,-6.187699795E0,2.071500063E0,-9.070000052E-2
4.255399688E1,-6.505399704E0,2.191200018E0,-2.461799860E0
4.257399844E1,-7.357699871E0,1.747399926E0,-1.198099971E0
4.259399844E1,-6.405699730E0,2.027999908E-1,1.143999994E-1
4.261399844E1,-4.612999916E0,-1.288299918E0,5.766000152E-1
4.263399844E1,-1.600999981E-1,-3.201599836E0,9.262999892E-1
4.265399844E1,4.711999893E0,-5.381000042E0,1.040300012E0
4.268399688E1,1.005200005E1,-8.235099792E0,-5.111199856E0
4.270399844E1,9.422699928E0,-7.078499794E0,-4.721499920E0
4.272399844E1,3.245199919E0,-2.489399910E0,-6.720699787E0
4.274399844E1,-2.049900055E0,1.492100000E0,-1.073639965E1
4.276399844E1,1.184899926E0,1.838499904E0,-8.873499870E0
4.279399844E1,-1.728999913E-1,-3.482199907E0,-6.284499645E0
4.281399844E1,1.645999908E0,-6.151899815E0,6.169099808E0
4.283399844E1,3.439999819E0,-4.058499813E0,1.625880051E1
4.285399844E1,1.557999969E0,7.924999595E-1,2.046870041E1
4.287399844E1,-6.782000065E-1,2.417700052E0,1.072209930E1
4.289399844E1,-3.334100008E0,1.782699943E0,4.704599857E0
4.291399844E1,-5.526599884E0,1.419899940E0,2.615099907E0
4.293399844E1,-6.236199856E0,3.288999796E-1,5.331000090E-1
4.295399844E1,-6.745199680E0,-4.362999797E-1,-5.521000028E-1
4.298399844E1,-4.761899948E0,-2.818599939E0,-2.262300014E0
4.300399844E1,-5.109099865E0,-3.907699823E0,-3.065999985E0
4.302399844E1,-7.940099716E0,-2.107899904E0,-2.335799932E0
4.304399844E1,-8.552399635E0,-5.916000009E-1,2.239999920E-1
4.306399844E1,-7.304899693E0,9.156999588E-1,3.391999960E0
4.308400000E1,-3.827799797E0,1.588199973E0,3.275399923E0
4.311399844E1,7.582699776E0,2.270200014E0,3.076999903E0
4.313399844E1,1.780349922E1,3.141899824E0,-2.171999931E0
4.315399844E1,1.263849926E1,7.474899769E0,-7.113999844E0
4.317399844E1,2.745599985E0,8.333299637E0,-9.770500183E0
4.319399844E1,-6.354999542E-1,7.224899769E0,-6.883399963E0
4.322399844E1,5.161299706E0,2.396199942E0,2.604199886E0
4.324399844E1,-8.652999997E-1,-5.751000047E-1,3.293299913E0
4.326399844E1,-1.259899974E0,-1.300599933E0,3.784499884E0
4.329399844E1,1.103600025E0,-3.437999785E-1,3.011600018E0
4.331399844E1,2.724400043E0,-9.724999666E-1,2.547099829E0
4.334399844E1,2.784399986E0,-3.064800024E0,7.316299915E0
4.336399844E1,-5.738999844E-1,-3.049700022E0,4.912799835E0
4.338399844E1,-4.701499939E0,-1.230199933E0,1.516299963E0
4.341399844E1,-6.515799999E0,3.109000027E-1,2.533299923E0
4.343399844E1,-7.038799763E0,1.884400010E0,3.978499889E0
4.345399844E1,-6.463799953E0,2.573499918E0,2.941399813E0
4.347399844E1,-6.240200043E0,2.085500002E0,1.276499987E0
4.349399844E1,-5.677700043E0,1.951299906E0,7.340999842E-1
4.351399844E1,-4.839900017E0,1.740899920E0,1.248499990E0
4.353399844E1,-3.901299953E0,8.033999801E-1,1.310400009E0
4.356399844E1,-6.236000061E-1,-1.023900032E0,1.215799928E0
4.358399844E1,2.726599932E0,-2.692699909E0,2.021999955E-1
4.361399844E1,9.024999619E0,-5.986599922E0,-4.183499813E0
4.363399844E1,8.671899796E0,-8.215799332E0,-5.688600063E0
4.365399844E1,2.939800024E0,-3.641699791E0,-6.972099781E0
4.367399844E1,3.998000026E-1,1.476499915E0,-1.062129974E1
4.369399844E1,2.516000032E0,6.827999949E-1,-7.782099724E0
4.371399844E1,3.572999835E-1,-2.212800026E0,-5.970299721E0
4.373399844E1,1.298099995E0,-5.622799873E0,3.772899866E0
4.375399844E1,9.972999692E-1,-5.606899738E0,7.430799961E0
4.377399844E1,3.607999980E-1,-3.720299959E0,1.132329941E1
4.379399844E1,-3.179999888E-1,-4.974999726E-1,1.318359947E1
4.381399844E1,-2.153499842E0,2.465399981E0,1.170659924E1
4.384399844E1,-3.645099878E0,2.480799913E0,3.779299974E0
4.386399844E1,-5.216499805E0,1.652300000E0,1.517599940E0
4.388399844E1,-5.980700016E0,6.419999599E-1,-2.991999984E-1
4.391399688E1,-4.796199799E0,-1.134500027E0,-2.269500017E0
4.393399844E1,-5.434999943E0,-1.914099932E0,-3.532699823E0
4.395399844E1,-6.884500027E0,-1.158100009E0,-2.475199938E0
4.397399844E1,-6.453899860E0,-4.814999998E-1,-9.194999933E-1
4.399399844E1,-5.545399666E0,2.407999933E-1,1.749199986E0
4.401399844E1,-2.625799894E0,9.541999698E-1,3.798399925E0
4.403399844E1,1.923499942E0,1.026899934E0,4.028599739E0
4.405399844E1,7.504299641E0,6.039999798E-2,1.926699996E0
4.407399844E1,1.297039986E1,-4.086000025E-1,-3.569099903E0
4.409399844E1,8.670999527E0,3.483199835E0,-6.789999962E0
4.412400000E1,1.202399969E0,5.934000015E0,-6.197899818E0
4.415399844E1,1.476799965E0,3.583299875E0,-1.152799964E0
4.417399844E1,-2.272999883E-1,-3.814999759E-1,1.587599993E0
4.419399844E1,-1.869499922E0,-2.007799864E0,2.562199831E0
4.422399844E1,1.688399911E0,-1.551699996E0,2.828899860E0
4.424399844E1,2.029599905E0,-1.201300025E0,1.562600017E0
4.426399844E1,2.718999863E0,-2.170599937E0,3.887199879E0
4.428399844E1,1.886999965E0,-3.638099909E0,8.230699539E0
4.430399844E1,-1.351300001E0,-2.660599947E0,5.330800056E0
4.432399844E1,-3.863499880E0,-9.797999859E-1,1.898499966E0
4.434399844E1,-4.944900036E0,1.613999903E-1,3.712499857E0
4.436399844E1,-5.160599709E0,1.283699989E0,2.320799828E0
4.438399844E1,-5.994899750E0,1.189100027E0,7.379999757E-1
4.441399688E1,-6.589999676E0,1.062199950E0,-4.043999910E-1
4.443399844E1,-6.092899799E0,1.009099960E0,-9.355999827E-1
4.445399844E1,-5.204699993E0,1.034999937E-1,-5.120999813E-1
4.448399844E1,-2.477699995E0,-1.169799924E0,6.459999830E-2
4.451399844E1,1.172199965E0,-1.228299975E0,-2.483999878E-1
4.453399844E1,4.600899696E0,-1.849299908E0,-1.812999994E-1
4.455399844E1,7.660299778E0,-3.315399885E0,-2.146800041E0
4.458399844E1,6.136399746E0,-5.703099728E0,-6.357100010E0
4.460399844E1,8.840000033E-1,-2.402499914E0,-7.079999924E0
4.462399844E1,3.676999807E-1,7.993999720E-1,-9.520599365E0
4.464399844E1,2.242799997E0,-7.400999665E-1,-3.533999920E0
4.466399844E1,-1.278000027E-1,-2.198699951E0,-1.883099914E0
4.469399844E1,1.070799947E0,-4.914199829E0,4.815399647E0
4.472399844E1,1.777099967E0,-2.895599842E0,1.609420013E1
4.474399844E1,-3.106999993E-1,7.390999794E-1,1.526209927E1
4.476399844E1,-1.304199934E0,4.365999997E-1,5.529599667E0
4.479399844E1,-3.737799883E0,4.856999815E-1,2.257499933E0
4.481399844E1,-5.032399654E0,3.576999903E-1,1.035099983E0
4.484399844E1,-5.790299892E0,-4.902999997E-1,-6.430000067E-1
4.486399844E1,-5.130300045E0,-1.708899975E0,-1.426699996E0
4.489399688E1,-5.842899799E0,-2.821699858E0,-2.328500032E0
4.491399844E1,-6.207200050E0,-1.865999937E0,-1.419600010E0
4.493399844E1,-5.388899803E0,-4.742999971E-1,6.632999778E-1
4.495399844E1,-3.286199808E0,6.825000048E-1,2.583199978E0
4.498399844E1,2.239699841E0,1.525599957E0,2.754099846E0
4.500399844E1,6.031300068E0,1.520399928E0,7.425999641E-1
4.502399844E1,9.054200172E0,2.067999840E0,-5.464399815E0
4.505399844E1,3.711299896E0,5.794899940E0,-9.370299339E0
4.508399844E1,2.317999840E0,6.521199703E0,-3.059099913E0
4.510399844E1,5.144700050E0,3.860099792E0,4.005599976E0
4.512399844E1,7.854999900E-1,-5.593000054E-1,2.535699844E0
4.515399844E1,9.853000045E-1,-2.682699919E0,3.979799986E0
4.518399844E1,7.096999884E-1,-6.962999701E-1,4.001399994E0
4.520399844E1,1.979900002E0,-1.150399923E0,1.354499936E0
4.522399844E1,2.776700020E0,-2.673799992E0,1.918899894E0
4.524399844E1,1.680899978E0,-3.255100012E0,5.989799976E0
4.526399844E1,-6.604999900E-1,-3.442099810E0,5.838299751E0
4.529399844E1,-5.212699890E0,-7.170000076E-1,3.115999937E0
4.531399844E1,-5.955299854E0,5.033000112E-1,2.387300014E0
4.534399844E1,-6.059799671E0,1.968999952E-1,-1.049999986E-2
4.536399844E1,-5.938799858E0,4.537999928E-1,-1.114499927E0
4.538399844E1,-5.488999844E0,1.102399945E0,-8.982999921E-1
4.541399688E1,-3.883899927E0,3.325999975E-1,-4.012999833E-1
4.543399844E1,-2.307299852E0,-5.590999722E-1,-5.705999732E-1
4.545399844E1,-2.324000001E-1,-1.425199986E0,-1.530999988E-1
4.548399844E1,4.409299850E0,-8.658999801E-1,3.378299952E0
4.551399844E1,6.551399708E0,-4.662499905E0,-3.636799812E0
4.553399844E1,3.102999926E0,-7.158899784E0,-4.832599640E0
4.555399844E1,1.306399941E0,-5.218999863E0,-8.242599487E0
4.558399844E1,2.059200048E0,-1.835999936E-1,-7.750599861E0
4.560399844E1,3.219999745E-2,-2.144399881E0,-5.959300041E0
4.562399844E1,3.045599937E0,-4.588699818E0,4.341399670E0
4.565399844E1,5.127799988E0,-3.524299860E0,1.026099968E1
4.567399844E1,2.304600000E0,-4.522999823E-1,1.110629940E1
4.569399844E1,-6.854000092E-1,2.376199961E0,1.177339935E1
4.571399844E1,-3.072099924E0,2.215499878E0,6.367499828E0
4.573399844E1,-4.857299805E0,8.636999726E-1,2.000799894E0
4.575399844E1,-6.314399719E0,-4.044999778E-1,4.504999816E-1
4.577399844E1,-6.936399937E0,-9.969999790E-1,5.941999555E-1
4.579399844E1,-6.972699642E0,-1.390999913E0,2.515999973E-1
4.581399844E1,-5.665899754E0,-2.662699938E0,-8.054999709E-1
4.583399844E1,-4.991099834E0,-3.745599985E0,-1.861799955E0
4.585399844E1,-5.699500084E0,-2.461899996E0,-9.995999932E-1
4.587399844E1,-5.889100075E0,-2.639999986E-1,1.604599953E0
4.590399688E1,-3.644099951E0,2.122900009E0,3.156499863E0
4.592399844E1,1.264999956E-1,2.263700008E0,2.963599920E0
4.594399844E1,5.073400021E0,2.557099819E0,1.576499939E0
4.596399844E1,1.069180012E1,2.756299973E0,-2.653100014E0
4.598399844E1,1.192490005E1,4.695600033E0,-1.069579983E1
4.601399844E1,9.003999829E-1,7.349299908E0,-1.182789993E1
4.603399844E1,1.192999959E0,6.123899937E0,-2.241400003E0
