"Time (s)","Gyroscope x (rad/s)","Gyroscope y (rad/s)","Gyroscope z (rad/s)"
1.508541250E-1,-1.231661439E0,3.069824696E0,3.860144615E-1
1.728525620E-1,-9.824981689E-1,3.064640999E0,6.533290744E-1
1.928619370E-1,-9.673487544E-1,1.184537530E0,1.502030343E-1
2.148619370E-1,-8.341626525E-1,-1.781283021E-1,-7.498458028E-1
2.368463120E-1,-5.553986430E-1,-2.159949780E0,-8.188386559E-1
2.588494370E-1,-3.794694841E-1,-4.627914906E0,-9.219876528E-1
2.808463120E-1,-3.777590692E-1,-6.012170792E0,-1.099749446E0
3.008525620E-1,2.552893162E-1,-4.961377621E0,-1.144901037E0
3.228463120E-1,7.695156932E-1,-2.683286667E0,-1.221904993E0
3.428541250E-1,7.043450475E-1,-1.121112227E0,-1.208832502E0
3.648463120E-1,6.643944979E-1,-5.259374976E-1,-8.626115322E-1
3.848463120E-1,4.022634923E-1,-1.195114255E0,-8.045444489E-1
4.048666250E-1,4.312708601E-2,-1.959917426E0,-1.120361805E0
4.268447500E-1,8.019787818E-2,-2.123332739E0,-1.543097973E0
4.468463120E-1,-1.490511186E-2,-1.733862400E0,-1.512240529E0
4.668510000E-1,-6.473426521E-2,-1.239393234E0,-9.647830725E-1
4.888447500E-1,2.294409871E-1,-1.060741305E0,-5.441238284E-1
5.088494370E-1,3.839899004E-1,-1.299973607E0,-2.928836942E-1
5.308447500E-1,1.715309620E-1,-1.469602108E0,3.239331022E-2
5.508463120E-1,4.075343907E-2,-1.714628935E0,4.450589716E-1
5.708463120E-1,-2.304881811E-1,-1.605667949E0,7.298792601E-1
5.928463120E-1,-8.403062224E-1,-1.294091821E0,5.737769604E-1
6.128463120E-1,-1.103658915E0,-7.129146457E-1,3.715806082E-2
6.328463120E-1,-6.215990186E-1,-5.788558722E-1,-2.550100684E-1
6.528463120E-1,-6.998769939E-2,3.087312877E-1,2.858849242E-2
6.728463120E-1,2.504372895E-1,4.051432908E-1,5.729392171E-1
6.928463120E-1,2.967932522E-1,6.389126778E-1,7.571238279E-1
7.128588120E-1,1.104444340E-1,1.514509439E0,4.956735075E-1
7.348463120E-1,-2.206794322E-1,1.775226712E0,1.375144869E-1
7.548463120E-1,-6.813067198E-1,1.614656448E0,-2.229309082E-1
7.748463120E-1,-1.274230003E0,2.532176018E0,-4.199960232E-1
7.968463120E-1,-2.462485075E0,3.387212753E0,-2.768441141E-1
8.188463120E-1,-2.422237635E0,-9.138718247E-1,1.658062823E-2
8.388463120E-1,-1.089678884E0,-1.175514102E0,3.783699274E-1
8.588525620E-1,3.779684901E-1,-7.474547029E-1,2.940007150E-1
8.808447500E-1,1.343955874E0,-9.892700911E-1,-3.202155530E-1
9.008463120E-1,1.541771531E0,-2.779070377E0,-1.083482981E0
9.208463120E-1,1.099347949E0,-3.424231291E0,-1.375092506E0
9.428603750E-1,3.027448058E-1,-2.677858591E0,-6.947283149E-1
9.648463120E-1,7.553785294E-2,-1.871289611E0,6.335545331E-3
9.848463120E-1,3.249279559E-1,-3.924721777E-1,6.343050003E-1
1.004866625E0,8.137422800E-1,8.498706222E-1,1.350431085E0
1.026846312E0,1.427888751E0,1.529257536E0,1.644047737E0
1.046846312E0,1.840379834E0,1.488626242E0,1.508767366E0
1.066847875E0,1.749744892E0,1.292922497E0,1.120902777E0
1.088846312E0,1.191640973E0,5.605648756E-1,7.835131884E-1
1.108846312E0,8.015424609E-1,2.731440216E-2,4.787438214E-1
1.128846312E0,7.148345113E-1,9.430013597E-2,2.683618367E-1
1.148846312E0,7.379077673E-1,1.043689489E0,6.007598042E-1
1.170844750E0,5.198637843E-1,1.249393940E0,1.085839152E0
1.190844750E0,3.771482110E-1,1.174484372E0,9.095957875E-1
1.210846312E0,2.952747941E-1,7.456220984E-1,1.302015632E-1
1.230846312E0,1.827534288E-1,3.365867436E-1,-7.064394951E-1
1.250846312E0,8.143706620E-2,5.619960427E-1,-6.739239693E-1
1.272852562E0,-4.656713009E-1,1.953547001E-1,-5.951572657E-1
1.294846312E0,-1.547408938E0,-7.421140075E-1,-1.007107377E0
1.314846312E0,-1.762799978E0,-1.042607307E0,-1.675516129E0
1.334861937E0,-1.032030582E0,-4.516737461E-1,-1.906074047E0
1.356846312E0,-3.159394860E-1,4.575031698E-1,-1.373085380E0
1.376846312E0,-4.070282280E-1,4.068711400E-1,-5.202652216E-1
1.396852562E0,-9.879959822E-1,-1.431519091E-1,1.239358261E-1
1.418844750E0,-1.291648388E0,-4.736300111E-1,2.624102533E-1
1.438849437E0,-1.096939445E0,-3.204250038E-1,1.521927118E-1
1.460846312E0,-7.984357476E-1,-3.577925032E-3,-1.228711754E-2
1.482846312E0,-4.370827973E-1,1.439547539E-1,-1.500110477E-1
1.502846312E0,-1.005135104E-1,3.513871431E-1,-1.731541157E-1
1.522847875E0,1.739918739E-1,6.844483018E-1,-3.450515866E-2
1.544868187E0,4.968428910E-1,1.492884874E0,3.100577295E-1
1.566844750E0,7.919780612E-1,1.137640476E0,5.909160972E-1
1.586855687E0,1.010964513E0,8.598364592E-1,5.249077678E-1
1.608846312E0,9.677850604E-1,7.597243786E-1,3.202330172E-1
1.628849437E0,7.146773934E-1,2.110103071E-1,2.353401929E-1
1.648896312E0,6.660525203E-1,-8.499229550E-1,6.848672032E-2
1.670854125E0,7.215540409E-1,-6.893352270E-1,-1.708677262E-1
1.692847875E0,6.035697460E-1,-3.827506900E-1,-4.376762211E-1
1.712868187E0,5.547878146E-1,-4.294731617E-1,-4.855505824E-1
1.734849437E0,7.353944778E-1,-5.571265221E-1,-5.935166478E-1
1.756844750E0,6.351078749E-1,-4.238881171E-1,-5.131442547E-1
1.776846312E0,3.096563220E-1,-2.055474222E-1,-1.748645306E-1
1.796846312E0,9.510298818E-2,1.067443341E-1,2.206096239E-2
1.818852562E0,-1.104793418E-2,4.128052592E-1,-7.136651129E-2
1.840844750E0,-1.905201375E-1,5.050459504E-1,-2.469117343E-1
1.860846312E0,-3.349635899E-1,-2.905973196E-1,-4.976980984E-1
1.882846312E0,1.030791476E-1,-1.140468001E0,-6.040409803E-1
1.902847875E0,5.036671162E-1,-1.360693574E0,-4.708549380E-1
1.924846312E0,2.776469886E-1,-1.102123022E0,-4.670501128E-2
1.944847875E0,-1.387362182E-1,-5.411044359E-1,2.365793735E-1
1.966844750E0,-2.184803188E-1,2.206096202E-1,2.836509049E-1
1.986847875E0,-8.026769012E-2,5.689598918E-1,3.749316335E-1
2.008846312E0,1.397659630E-1,4.357214570E-1,6.780604124E-1
2.028849437E0,4.890063405E-1,-2.412045002E-2,1.020476580E0
2.050844750E0,7.701090574E-1,-2.366666496E-1,8.910952806E-1
2.070846312E0,7.575601339E-1,-3.915995359E-1,4.173256755E-1
2.092846312E0,4.812745452E-1,-3.257482648E-1,9.110618383E-3
2.112860375E0,2.493028343E-1,-3.218910694E-1,-1.755277663E-1
2.134847875E0,3.342480063E-1,-4.684812725E-1,2.003114372E-1
2.156847875E0,6.944839358E-1,-6.894224882E-1,7.720987797E-1
2.176847875E0,9.860063195E-1,-8.021009564E-1,9.022654295E-1
2.198846312E0,1.126906753E0,-9.316916466E-1,6.864030957E-1
2.218846312E0,1.141619802E0,-1.147379398E0,4.663868845E-1
2.240844750E0,1.011121631E0,-1.051648140E0,3.021863103E-1
2.260846312E0,6.677280664E-1,-5.225864649E-1,1.718800217E-1
2.280846312E0,2.841570675E-1,-4.712388851E-3,4.544837400E-2
2.302846312E0,-1.049466506E-1,1.352979243E-1,-1.327846497E-1
2.322846312E0,-4.738568962E-1,8.689994365E-2,-3.646341860E-1
2.342846312E0,-7.882779241E-1,2.051459998E-1,-4.652000666E-1
2.362846312E0,-8.211076260E-1,6.128723621E-1,-2.530378401E-1
2.382846312E0,-6.019465923E-1,8.687725663E-1,1.736253500E-1
2.402849437E0,-3.631506562E-1,7.284306288E-1,4.833863974E-1
2.424846312E0,-2.584832609E-1,1.840100586E-1,4.528082311E-1
2.444849437E0,-1.218588874E-1,-2.635272741E-1,1.741489470E-1
2.464849437E0,1.160120368E-1,-3.189240098E-1,-7.202973962E-2
2.486851000E0,1.473057866E-1,-2.481334656E-1,-3.160442114E-1
2.508849437E0,-3.281218931E-3,-5.792747810E-2,-3.701668680E-1
2.530844750E0,-6.215117499E-2,3.854734302E-1,-3.117856085E-1
2.550847875E0,-1.239009202E-1,5.415407419E-1,-1.644623727E-1
2.572852562E0,-2.146754880E-3,4.074470997E-1,-7.353071868E-2
2.592869750E0,4.143062532E-1,9.904743731E-2,-1.536762416E-1
2.614846312E0,9.085136652E-1,-1.706408411E-1,-1.568876505E-1
2.634846312E0,1.049344301E0,-1.350710243E-1,-1.285958588E-1
2.654846312E0,9.013927579E-1,2.975786291E-2,-2.588323317E-2
2.674846312E0,8.044047952E-1,8.580038697E-2,5.866051465E-2
2.694847875E0,8.130441904E-1,2.428800166E-1,2.682571113E-2
2.714861937E0,9.260367751E-1,3.921231329E-1,2.258630544E-1
2.736846312E0,1.155338168E0,3.918962181E-1,4.690572321E-1
2.756846312E0,1.233616114E0,5.520650744E-1,5.454328656E-1
2.778846312E0,8.771151900E-1,1.014769316E0,6.158394217E-1
2.798846312E0,2.138202786E-1,1.102472067E0,5.123239756E-1
2.818846312E0,-2.666863203E-1,9.466316700E-1,2.911907434E-1
2.838846312E0,-4.219507873E-1,7.221997976E-1,2.318844497E-1
2.858846312E0,-3.513871431E-1,5.717524290E-1,3.858574033E-1
2.878846312E0,-2.219011635E-1,2.412568629E-1,5.595176220E-1
2.898846312E0,-1.560847908E-1,-3.282440603E-1,6.066415310E-1
2.918846312E0,-1.034107581E-1,-7.468787432E-1,4.721813798E-1
2.938846312E0,-1.274963021E-1,-9.022479653E-1,2.450093180E-1
2.958846312E0,-2.301740199E-1,-7.718020678E-1,5.522221699E-2
2.978852562E0,-2.775422633E-1,-3.140545487E-1,4.665265232E-2
3.000846312E0,-2.595828176E-1,2.486395985E-1,2.410125136E-1
3.022846312E0,-2.542071939E-1,6.618637443E-1,4.078485370E-1
3.042861937E0,-2.260550410E-1,7.661122680E-1,5.550495982E-1
3.064846312E0,-1.356993467E-1,6.360328794E-1,6.030112505E-1
3.086846312E0,-3.846705705E-2,4.950626493E-1,5.412789583E-1
3.108847875E0,-3.295181692E-2,2.382548898E-1,4.212177694E-1
3.130846312E0,-6.682865322E-2,-2.239082903E-1,2.466673851E-1
3.150846312E0,-5.469861999E-2,-5.227609873E-1,8.211774379E-2
3.172846312E0,-1.277930140E-1,-5.752779841E-1,6.841690838E-2
3.192852562E0,-3.479313850E-1,-6.114761233E-1,1.587202400E-1
3.214860375E0,-6.084915996E-1,-7.471754551E-1,5.220279843E-2
3.236846312E0,-8.676031828E-1,-6.286675930E-1,-2.219186127E-1
3.258846312E0,-1.039413333E0,-1.519134641E-1,-2.770012021E-1
3.280846312E0,-1.171918750E0,6.560867429E-1,-2.091428041E-1
3.302846312E0,-1.537006736E0,1.130449772E0,-2.269102484E-1
3.322847875E0,-1.750477910E0,9.493544102E-1,-3.302511871E-1
3.344846312E0,-1.503636003E0,5.241572857E-1,-1.968731433E-1
3.364846312E0,-1.113973856E0,4.162261188E-1,-2.122145891E-1
3.384846312E0,-7.545058131E-1,8.929628134E-1,-2.087413706E-2
3.404866625E0,-5.452932119E-1,2.106577396E0,4.089306295E-1
3.426844750E0,-6.707649231E-1,2.586001873E0,2.120575011E-1
3.446846312E0,-9.736493826E-1,1.368320704E0,-3.071081340E-1
3.468846312E0,-7.225663066E-1,4.947310388E-1,-5.261993408E-1
3.490846312E0,-4.132415950E-1,3.319616243E-2,-7.076960802E-1
3.510846312E0,1.880592257E-1,1.200611964E-1,-4.210432172E-1
3.532846312E0,6.355616450E-1,-2.136806548E-1,4.790928960E-2
3.552849437E0,7.725700140E-1,-8.677427769E-1,3.025353849E-1
3.574846312E0,7.995702624E-1,-1.236286521E0,2.367539108E-1
3.594846312E0,8.385085464E-1,-1.329452157E0,-4.733332992E-2
3.616844750E0,9.788330197E-1,-1.302888274E0,-2.476971298E-1
3.636844750E0,7.793593407E-1,-5.839173794E-1,-2.452362180E-1
3.656846312E0,5.967629552E-1,-2.957460284E-1,-3.991568089E-2
3.678846312E0,5.198113918E-1,-8.366934061E-1,4.283038154E-2
3.698846312E0,6.794392467E-1,-8.378976583E-1,1.759291887E-1
3.718846312E0,8.063421249E-1,-6.357710958E-1,3.136182129E-1
3.740846312E0,7.596371174E-1,-6.642723083E-1,1.853190660E-1
3.760846312E0,7.888364792E-1,-8.773071766E-1,2.772106528E-1
3.780846312E0,9.404357672E-1,-1.229968429E0,4.714483321E-1
3.800846312E0,1.130571961E0,-1.125964284E0,5.094965100E-1
3.820846312E0,1.211275935E0,-7.997447848E-1,4.353200197E-1
3.842847875E0,9.006771445E-1,-5.172283053E-1,3.947585821E-1
3.864846312E0,4.301363826E-1,2.035053968E-1,4.674515426E-1
3.884846312E0,1.816538721E-1,5.417501926E-1,6.256830692E-1
3.904874437E0,-1.322959550E-2,6.288770437E-1,7.970918417E-1
3.926846312E0,-1.978679746E-1,9.820967913E-2,9.026494026E-1
3.946846312E0,-3.174579442E-1,-2.095267773E-1,8.048934937E-1
3.968846312E0,-8.929104358E-2,-3.314554691E-1,4.280943573E-1
3.988846312E0,4.759512842E-2,-1.354375482E-2,3.075270057E-1
4.008846312E0,5.815437064E-2,5.731835961E-1,2.442588210E-1
4.028846312E0,9.798278660E-2,1.193648100E0,3.574957848E-1
4.048846312E0,1.310044080E-1,1.420889974E0,4.998448491E-1
4.070846312E0,1.719323844E-1,8.746193647E-1,5.687329769E-1
4.092846312E0,3.625921607E-1,3.865904212E-1,5.699372888E-1
4.112846312E0,5.078384280E-1,2.417455465E-1,5.203698874E-1
4.132852562E0,3.518583775E-1,3.725230694E-1,3.811450005E-1
4.152857250E0,1.838006228E-1,6.788458228E-1,2.559874356E-1
4.174846312E0,2.527760267E-1,4.646939039E-1,1.014385372E-1
4.194847875E0,3.261147738E-1,-9.225810319E-2,-4.002039880E-2
4.214861937E0,4.272566140E-1,-4.289146662E-1,-6.300638616E-2
4.236847875E0,7.339982390E-1,-9.168738127E-1,-1.867502369E-2
4.258846312E0,6.623349786E-1,-1.524894118E0,-2.054601610E-1
4.278846312E0,1.536587924E-1,-1.563431025E0,-3.981445134E-1
4.298846312E0,-2.209237814E-1,-8.582656384E-1,-3.879343271E-1
4.318846312E0,-2.938785255E-1,-3.143861592E-1,-3.423463404E-1
4.338846312E0,-4.921130240E-1,-1.819156706E-1,-3.692767620E-1
4.358846312E0,-6.194871664E-1,-3.416831195E-1,-3.894004226E-1
4.378846312E0,-4.265410006E-1,-3.510904312E-1,-2.816961408E-1
4.398846312E0,-1.523148865E-1,-1.042136103E-1,-1.123119369E-1
4.418846312E0,-2.473131567E-2,6.335545331E-3,-4.956734832E-3
4.438846312E0,-3.204424679E-2,-3.054675162E-1,5.797983706E-2
4.458846312E0,-1.231329814E-1,-5.793271661E-1,7.534586638E-2
4.478846312E0,-3.144559562E-1,-4.841368794E-1,1.007927656E-1
4.500846312E0,-5.745275021E-1,9.019861370E-2,1.654397547E-1
4.520846312E0,-6.404311061E-1,6.703460813E-1,2.579073012E-1
4.540846312E0,-5.065469146E-1,8.799775243E-1,2.813121676E-1
4.560846312E0,-2.890265286E-1,5.648583770E-1,1.784599125E-1
4.582852562E0,1.213003788E-2,-1.233947743E-2,8.576548100E-2
4.604866625E0,1.033234894E-1,-4.166275561E-1,-6.698573381E-2
4.626846312E0,2.235766686E-2,-4.820948541E-1,-1.929112375E-1
4.646846312E0,-3.944443911E-2,-4.353025556E-1,-2.031388730E-1
4.666846312E0,-1.285085976E-1,-5.347863436E-1,-2.714335918E-1
4.688846312E0,-2.606125772E-1,-4.337492287E-1,-2.595653534E-1
4.708846312E0,-3.414387703E-1,-3.511951566E-1,-2.297900468E-1
4.728846312E0,-2.288126573E-2,-3.493450880E-1,-1.781457514E-1
4.748846312E0,2.948559225E-1,-7.225663215E-2,-2.621484548E-2
4.768846312E0,4.422489703E-1,3.489087820E-1,7.431612164E-2
4.790846312E0,3.001442850E-1,2.387610376E-1,3.227113932E-2
4.810846312E0,-2.082003206E-1,-1.803099662E-1,-1.083849445E-1
4.832847875E0,-4.847477376E-1,-1.185427606E-1,-3.726626933E-1
4.854844750E0,-3.845483959E-1,3.849149048E-1,-4.779933095E-1
4.874846312E0,-3.432888091E-1,8.909556866E-1,-2.996032238E-1
4.894846312E0,-2.277829200E-1,9.569465518E-1,-1.276010275E-1
4.914846312E0,-1.367116421E-1,7.238054872E-1,-1.566083878E-1
4.934846312E0,-3.519456387E-1,-2.748893574E-2,-2.120226026E-1
4.954849437E0,-5.559397340E-1,-5.245237947E-1,-3.233745992E-1
4.976844750E0,-1.201519608E0,-1.142667085E-1,-3.359758854E-1
4.996846312E0,-1.776588082E0,1.854063272E-1,-1.891413331E-1
5.016846312E0,-2.294235229E0,2.523222566E-1,2.061757445E-1
5.036846312E0,-2.586508036E0,1.722814441E-1,2.991494238E-1
5.056846312E0,-2.622793436E0,-8.967850804E-1,1.918116771E-2
5.076846312E0,-2.459046841E0,-1.578161597E0,-1.632057428E-1
5.098844750E0,-2.118201494E0,-2.018682718E0,-3.017325103E-1
5.118846312E0,-1.898586631E0,-2.179445028E0,-3.833266497E-1
5.138846312E0,-1.758105040E0,-1.872860432E0,-4.030139744E-1
5.158846312E0,-1.588842988E0,-1.499988317E0,-4.574682415E-1
5.178846312E0,-1.423211336E0,-1.601810813E0,-4.539426863E-1
5.198846312E0,-1.393017054E0,-1.846924901E0,-3.590316772E-1
5.220846312E0,-1.747109532E0,-1.850118756E0,-4.386535883E-1
5.242847875E0,-2.129703045E0,-1.585038185E0,-5.144706964E-1
5.264846312E0,-2.120732069E0,-1.628025651E0,-4.748342633E-1
5.284846312E0,-1.846488476E0,-2.053100586E0,-4.362101257E-1
5.304866625E0,-1.587272286E0,-2.677980900E0,-3.730815649E-1
5.326844750E0,-1.618897557E0,-3.459993124E0,-3.608991802E-1
5.346846312E0,-2.044565916E0,-4.075064659E0,-3.400250375E-1
5.366846312E0,-2.809770584E0,-4.395960808E0,-6.407103688E-2
5.386846312E0,-3.785322428E0,-4.568329334E0,3.396934271E-1
5.406846312E0,-4.681077957E0,-4.791068554E0,6.283359528E-1
5.426846312E0,-4.952371597E0,-4.635419846E0,8.699418902E-1
5.446846312E0,-4.376203537E0,-3.945753098E0,1.080428600E0
5.468846312E0,-3.033452034E0,-3.177703619E0,1.188237548E0
5.488846312E0,-1.714454412E0,-2.380088091E0,1.007194638E0
5.508846312E0,-9.767211676E-1,-1.739203095E0,6.980968118E-1
5.530844750E0,-1.003215194E0,-9.386729598E-1,4.296127856E-1
5.550844750E0,-1.131636620E0,-2.110452056E-1,3.792251348E-1
5.570846312E0,-9.687449932E-1,1.232900545E-1,4.583234489E-1
5.590846312E0,-5.692391396E-1,5.778785050E-2,4.971046746E-1
5.610846312E0,-2.152165473E-1,-1.332907975E-1,4.460363388E-1
5.632851000E0,2.731440216E-2,-4.715705216E-1,1.973094642E-1
5.654844750E0,1.218065247E-1,-8.320682645E-1,6.270968169E-2
5.674846312E0,1.143539697E-1,-1.037877440E0,6.475171447E-2
5.694846312E0,1.954768784E-3,-1.148374319E0,1.702045053E-1
5.714860375E0,-9.943141043E-2,-1.280059338E0,2.358288914E-1
5.736846312E0,-2.611012571E-2,-1.359541655E0,2.250776589E-1
5.756846312E0,1.628217697E-1,-1.363503575E0,1.962622702E-1
5.778846312E0,4.046545923E-1,-1.313499928E0,1.842020452E-1
5.798846312E0,6.143733263E-1,-1.339470387E0,1.871691048E-1
5.818846312E0,6.132040024E-1,-1.346137524E0,1.806415766E-1
5.838846312E0,3.968355060E-1,-1.225657463E0,6.009168550E-2
5.860846312E0,1.119803265E-1,-8.379325867E-1,-3.342829049E-1
5.880846312E0,-1.317723561E-2,-3.144210577E-1,-8.062548637E-1
5.900846312E0,6.934192777E-2,2.385341525E-1,-1.122770309E0
5.920846312E0,3.549999595E-1,7.691665888E-1,-1.219147444E0
5.942846312E0,8.993157744E-1,9.300336242E-1,-1.116260171E0
5.962858812E0,1.468869090E0,6.471157074E-1,-1.048977733E0
5.984846312E0,1.952342749E0,3.618067503E-2,-1.010336161E0
6.004866625E0,2.379634142E0,-6.320186257E-1,-1.091389298E0
6.026846312E0,2.743029356E0,-9.168214798E-1,-1.290688396E0
6.048846312E0,2.950897932E0,-3.179989755E-1,-1.542766333E0
6.068846312E0,3.085218430E0,5.469861627E-1,-1.753375173E0
6.090846312E0,3.270869255E0,1.354253292E0,-2.001334190E0
6.110846312E0,3.452139139E0,1.737422943E0,-2.241683483E0
6.130846312E0,3.537206411E0,1.956863165E0,-2.459151506E0
6.150846312E0,3.386916161E0,2.365601778E0,-2.634207964E0
6.170846312E0,3.077923059E0,3.082443476E0,-2.721666336E0
6.190846312E0,2.718263149E0,3.733835220E0,-2.727338791E0
6.210846312E0,2.404662371E0,4.218984604E0,-2.683705568E0
6.232846312E0,2.151153088E0,4.451654434E0,-2.486396074E0
6.252846312E0,1.900192261E0,4.464778900E0,-2.183773518E0
6.272847875E0,1.622178793E0,4.522060871E0,-1.916127205E0
6.292854125E0,1.389386773E0,4.721953392E0,-1.631289482E0
6.314846312E0,1.261070251E0,5.002654552E0,-1.238380909E0
6.334858812E0,1.228799105E0,5.052536011E0,-9.299463034E-1
6.356846312E0,1.195847273E0,4.529164314E0,-4.824264646E-1
6.376846312E0,1.080899835E0,3.817122221E0,-1.331337094E-1
6.398846312E0,9.246754050E-1,3.135518789E0,5.515240598E-3
6.420846312E0,8.556127548E-1,2.501074314E0,-1.913578957E-1
6.440846312E0,9.187936783E-1,1.679443121E0,-4.322831333E-1
6.462846312E0,8.549669981E-1,8.589987159E-1,-4.793197811E-1
6.484846312E0,6.040933728E-1,6.409896016E-1,-3.891211450E-1
6.504866625E0,4.679402113E-1,6.941872835E-1,-4.003436267E-1
6.526846312E0,4.751135409E-1,4.607494771E-1,-6.602755189E-1
6.548846312E0,4.248829484E-1,9.782570601E-2,-8.402014971E-1
6.570846312E0,2.203129083E-1,-3.775146976E-2,-6.677978635E-1
6.590846312E0,1.447925121E-1,-4.567526653E-2,-3.747745454E-1
6.610846312E0,3.442138433E-1,-2.070135027E-1,-1.573763341E-1
6.632846312E0,8.653516769E-1,-4.242371917E-1,-5.537929758E-2
6.652846312E0,1.386629224E0,-3.872362077E-1,-5.764822662E-2
6.672849437E0,1.622231126E0,-1.521752626E-1,-1.914626174E-2
6.694847875E0,1.465046763E0,2.528283894E-1,1.942551509E-2
6.714860375E0,1.072242975E0,4.789532423E-1,-8.953539282E-2
6.736846312E0,6.292958856E-1,5.103691816E-1,-2.442413718E-1
6.756846312E0,2.143089771E-1,3.670601845E-1,-3.270048797E-1
6.776846312E0,-1.763306111E-1,2.076418251E-1,-2.778040469E-1
6.796846312E0,-4.188266695E-1,9.128072113E-2,-1.704139411E-1
6.818846312E0,-3.984586596E-1,5.886995420E-2,-8.498007804E-2
6.838846312E0,-1.507789940E-1,4.145156965E-2,-2.988003753E-2
6.858846312E0,8.243189752E-2,6.288421154E-2,4.555309191E-3
6.878846312E0,2.492330223E-2,2.790781483E-2,-1.715658605E-2
6.898846312E0,-4.345171750E-1,-2.006081492E-1,-2.718524933E-1
6.918846312E0,-1.026742339E0,-2.729694843E-1,-5.222548842E-1
6.938846312E0,-1.277912617E0,-1.271472424E-1,-5.135631561E-1
6.958846312E0,-1.254350662E0,-1.637991518E-1,-3.516314924E-1
6.978846312E0,-1.368303180E0,-4.703836739E-1,-1.765051484E-1
6.998846312E0,-1.980791569E0,-5.597969294E-1,-5.781577826E-1
7.018846312E0,-2.623386860E0,-3.358536959E-1,-1.045783877E0
7.038846312E0,-2.718996048E0,-7.718194723E-1,-1.119279623E0
7.058846312E0,-2.454753160E0,-2.299977541E0,-7.438418865E-1
7.078846312E0,-2.005662441E0,-4.360652924E0,-2.956413329E-1
7.098846312E0,-1.655898571E0,-5.880660057E0,-4.253367335E-2
7.118846312E0,-1.749116659E0,-6.195692062E0,2.966012657E-1
7.138846312E0,-2.230548143E0,-5.659648895E0,9.616589546E-1
7.158846312E0,-2.863369703E0,-4.789602280E0,1.918134332E0
7.178846312E0,-3.339094162E0,-4.154040813E0,2.566122770E0
7.198846312E0,-3.521690369E0,-4.051712036E0,2.687004089E0
7.218846312E0,-3.533942699E0,-4.303266525E0,2.675240755E0
7.238846312E0,-3.320942640E0,-4.846011162E0,2.701001644E0
7.258846312E0,-2.977200031E0,-5.284455299E0,2.821446896E0
7.278846312E0,-2.770326138E0,-5.289464474E0,2.646320581E0
7.298846312E0,-3.090454578E0,-4.514608383E0,1.929478884E0
7.318846312E0,-3.754499912E0,-3.131347656E0,1.247247219E0
7.338846312E0,-3.906797409E0,-1.745364189E0,9.298067093E-1
7.358852562E0,-3.381784916E0,-3.654893935E-1,8.430289030E-1
7.380846312E0,-2.523379564E0,9.987297654E-1,8.573231697E-1
7.402846312E0,-1.738068700E0,1.686511636E0,9.198234081E-1
7.422846312E0,-1.240178585E0,1.537425637E0,1.085682034E0
7.444844750E0,-1.104304671E0,8.543386459E-1,1.083273530E0
7.464846312E0,-1.404204607E0,3.408628106E-1,7.768809795E-1
7.484846312E0,-1.893228412E0,-3.925245628E-2,5.221326947E-1
7.504866625E0,-2.365619183E0,-3.338814974E-1,5.100375414E-1
7.526846312E0,-2.578252792E0,-3.636218905E-1,4.489336014E-1
7.546846312E0,-2.369458914E0,-3.959454000E-1,3.919136822E-1
7.568844750E0,-1.829122543E0,-3.483851850E-1,3.042283356E-1
7.588851000E0,-1.278331518E0,-5.293583497E-2,3.120648675E-2
7.610846312E0,-6.378130913E-1,7.405781150E-1,-3.538480401E-1
7.632846312E0,1.240580007E-1,1.229793906E0,-6.199409366E-1
7.652852562E0,7.299665213E-1,1.166386127E0,-7.107155323E-1
7.672877562E0,1.052957177E0,9.517978430E-1,-7.580662966E-1
7.694846312E0,1.206301808E0,7.545058131E-1,-7.706850171E-1
7.714860375E0,1.255240798E0,5.323603153E-1,-7.575252652E-1
7.736846312E0,1.222358823E0,3.181560636E-1,-6.091722846E-1
7.756846312E0,1.114061117E0,4.202752933E-2,-4.206767082E-1
7.776846312E0,9.639278650E-1,-2.416582853E-1,-2.768441141E-1
7.796846312E0,8.885121942E-1,-4.723210037E-1,-1.366418302E-1
7.816846312E0,8.746193647E-1,-5.664815307E-1,-9.382890165E-2
7.836846312E0,9.209404588E-1,-4.176398218E-1,-1.920385808E-1
7.858844750E0,1.007718205E0,-2.191086262E-1,-3.468667269E-1
7.878846312E0,1.054684997E0,-1.546187252E-1,-4.291764498E-1
7.898846312E0,1.045050740E0,-1.137431040E-1,-4.076041877E-1
7.918846312E0,1.096642733E0,1.004087925E-1,-3.550523221E-1
7.938846312E0,1.187975764E0,5.386958718E-1,-4.444480836E-1
7.958846312E0,1.338981748E0,1.023042202E0,-5.797460079E-1
7.978846312E0,1.632039905E0,1.454155922E0,-7.539473176E-1
8.000871312E0,2.137696743E0,1.541998386E0,-8.053821921E-1
8.022846312E0,2.607574224E0,1.337026954E0,-9.073094130E-1
8.042869750E0,2.778983116E0,1.247002840E0,-1.107289195E0
8.064846312E0,2.669672966E0,1.515905738E0,-1.408533096E0
8.086846312E0,2.454508781E0,2.063258410E0,-1.531683445E0
8.108846312E0,2.280150414E0,2.771512985E0,-1.355213284E0
8.128846312E0,2.180003405E0,3.371452570E0,-1.050758004E0
8.148846312E0,2.003184080E0,3.704077244E0,-6.099576354E-1
8.168846312E0,1.835789680E0,3.674598694E0,-8.719664812E-2
8.188846312E0,1.840519547E0,3.570960999E0,3.285582364E-1
8.208846312E0,2.048999071E0,3.540103674E0,5.227435827E-1
8.228846312E0,2.367451906E0,3.531132698E0,4.925842583E-1
8.248846312E0,2.671296120E0,3.256644726E0,3.623478115E-1
8.268846312E0,2.906409502E0,2.955680132E0,2.047794759E-1
8.290846312E0,3.060207844E0,2.659480333E0,-4.253367335E-2
8.310846312E0,2.992157459E0,2.431348324E0,-2.753256857E-1
8.330846312E0,2.771687508E0,1.938153267E0,-4.738917947E-1
8.350846312E0,2.513623238E0,1.558404446E0,-5.964313745E-1
8.370846312E0,2.289505482E0,1.460927844E0,-6.257528663E-1
8.392851000E0,2.059610605E0,1.586923122E0,-6.182829142E-1
8.414846312E0,1.454068661E0,1.845458746E0,-3.294483423E-1
8.434846312E0,6.463128924E-1,2.053868532E0,2.434734255E-2
8.454846312E0,-1.027126238E-1,2.029905081E0,1.689653248E-1
8.474846312E0,-6.291213632E-1,1.899494171E0,8.168140799E-2
8.494846312E0,-6.673790216E-1,1.394273758E0,-3.658210114E-2
8.514846312E0,-4.485496283E-1,6.079505086E-1,-1.828930527E-1
8.534846312E0,1.684242673E-2,-2.012364566E-2,-4.187393785E-1
8.554846312E0,5.712811947E-1,1.988279074E-1,-2.758841813E-1
8.574846312E0,7.171732187E-1,1.017352417E-1,-1.316676438E-1
8.594846312E0,4.016700685E-1,-3.900287151E-1,-8.162904531E-2
8.616844750E0,9.635962546E-2,-7.093541622E-1,1.046150327E-1
8.636846312E0,1.281071603E-1,-6.055070758E-1,3.955788612E-1
8.656846312E0,2.121796757E-1,-8.970992267E-2,5.198812485E-1
8.678846312E0,5.197590590E-2,5.045746565E-1,5.111021996E-1
8.698846312E0,1.256637042E-3,8.367632031E-1,3.830648661E-1
8.720846312E0,1.575508714E-1,7.105060816E-1,2.855533063E-1
8.742852562E0,3.628714085E-1,3.126233816E-1,2.068913281E-1
8.764846312E0,4.188266695E-1,2.149372995E-1,-3.323106840E-2
8.784846312E0,5.022359490E-1,1.585806161E-1,-3.481233716E-1
8.804866625E0,6.901729703E-1,1.538856775E-1,-5.956459641E-1
8.826844750E0,8.359429240E-1,1.883035749E-1,-7.688873410E-1
8.846846312E0,5.616818666E-1,3.906570375E-1,-7.066488862E-1
8.866846312E0,2.934945524E-1,5.590638518E-1,-6.357536316E-1
8.888846312E0,1.858251989E-1,8.178961873E-1,-6.631203890E-1
8.908846312E0,1.150346473E-1,1.039849758E0,-6.591933966E-1
8.930846312E0,6.942919642E-2,8.737118244E-1,-5.834286809E-1
8.950846312E0,4.612905160E-2,3.289247453E-1,-5.759237409E-1
8.970846312E0,2.232974172E-1,-1.104269847E-1,-5.475097895E-1
8.990846312E0,4.076041877E-1,1.392947286E-1,-3.551919460E-1
9.010846312E0,5.167745352E-1,3.751585186E-1,-1.031489596E-1
9.030846312E0,6.710441709E-1,1.569574624E-1,9.470156580E-2
9.050846312E0,9.471203685E-1,-2.194227874E-1,5.171410739E-2
9.070846312E0,1.165862441E0,-5.475621223E-1,-8.478809148E-2
9.092846312E0,1.293672919E0,-6.654067636E-1,-8.866272867E-2
9.112852562E0,1.107812881E0,-8.389273882E-1,-1.907121241E-1
9.134846312E0,5.893628001E-1,-1.128145933E0,-3.861017227E-1
9.154846312E0,-3.267256171E-2,-1.294929624E0,-5.042605400E-1
9.174846312E0,-3.692243993E-1,-8.084015846E-1,-3.328517377E-1
9.194847875E0,-2.715557814E-1,-6.033603102E-2,4.262094200E-2
9.214861937E0,-3.623303398E-2,4.823915362E-1,4.356865287E-1
9.236846312E0,1.392598152E-1,5.805139542E-1,6.235537529E-1
9.256847875E0,3.938684464E-1,1.673945338E-1,6.130468845E-1
9.278846312E0,7.270169258E-1,-2.369109988E-1,4.811523557E-1
9.298846312E0,8.988969326E-1,-2.920110226E-1,3.920009434E-1
9.320844750E0,9.815731645E-1,-9.382890165E-2,3.021514118E-1
9.340844750E0,1.079555988E0,7.129669935E-2,2.184628546E-1
9.360846312E0,1.032816052E0,-2.026327327E-2,5.614724010E-2
9.382852562E0,7.426725030E-1,-1.500634104E-1,-1.189267337E-1
9.404866625E0,4.263490140E-1,-7.234390080E-2,-9.644689411E-2
9.426844750E0,1.936617345E-1,2.933898382E-2,1.304633617E-1
9.446846312E0,-1.731890142E-1,-5.893976986E-2,1.988453567E-1
9.466846312E0,-6.887069345E-1,-9.166469425E-2,9.217083454E-2
9.486846312E0,-9.807004929E-1,3.047693968E-1,-4.539601505E-2
9.506846312E0,-1.194660425E0,4.373446107E-1,-1.748470813E-1
9.526846312E0,-1.203718662E0,-2.244318873E-1,-3.719122112E-1
9.548846312E0,-8.307766914E-1,-8.819323182E-1,-5.869542360E-1
9.568846312E0,-2.606998384E-1,-5.167745352E-1,-5.481380820E-1
9.588846312E0,1.355946362E-1,3.264289200E-1,-1.419301778E-1
9.608846312E0,1.099557430E-1,7.555181384E-1,3.067939878E-1
9.628846312E0,-7.253587991E-2,8.456818461E-1,5.411567688E-1
9.648846312E0,-1.846209317E-1,5.963091850E-1,5.057440400E-1
9.668846312E0,-1.824916303E-1,1.793325841E-1,3.232873380E-1
9.688846312E0,3.012438305E-2,2.730916739E-1,2.848028243E-1
9.708846312E0,4.328416586E-1,6.311459541E-1,3.417005539E-1
9.728846312E0,7.709642649E-1,7.191978097E-1,3.216990829E-1
9.748846312E0,9.441707730E-1,5.287125707E-1,1.553343087E-1
9.768846312E0,9.616066217E-1,3.316125572E-1,3.274237737E-2
9.790846312E0,8.575500846E-1,2.884680033E-1,-4.297000542E-2
9.810846312E0,6.734178066E-1,2.492679209E-1,5.166174471E-2
9.832846312E0,5.671796203E-1,8.759807795E-2,3.474252522E-1
9.852846312E0,4.811174572E-1,-1.959655732E-1,6.837152839E-1
9.872852562E0,4.228932858E-1,-3.629935682E-1,9.257749915E-1
9.894846312E0,3.638138771E-1,-3.987379074E-1,1.153767347E0
9.914846312E0,3.700272441E-1,-6.965783834E-1,1.230718970E0
9.936846312E0,5.328839421E-1,-1.262483954E0,7.903025150E-1
9.956846312E0,7.079927921E-1,-1.521717668E0,9.897761792E-2
9.978846312E0,7.226012349E-1,-7.714006305E-1,-4.153534472E-1
9.998846312E0,3.961897492E-1,2.818706632E-1,-6.825459003E-1
1.001884631E1,-2.959729433E-1,7.456395626E-1,-9.282358885E-1
1.003884631E1,-1.060741305E0,5.681570172E-1,-1.067670226E0
1.005888381E1,-1.470998406E0,3.227113783E-1,-1.114200711E0
1.008084631E1,-1.541649342E0,8.077907562E-1,-1.007369161E0
1.010084631E1,-1.585195303E0,1.827865839E0,-6.230651140E-1
1.012084631E1,-1.801563740E0,2.480200052E0,-1.415636539E-1
1.014084631E1,-2.036013842E0,2.253813505E0,-2.343278974E-1
1.016084631E1,-2.152741432E0,1.314581990E0,-1.071108580E0
1.018084631E1,-1.912845969E0,1.810255498E-1,-1.347987533E0
1.020084631E1,-1.696268082E0,-8.411090970E-1,-9.656034112E-1
1.022084631E1,-1.822245955E0,-1.009376287E0,-5.281540751E-1
1.024284944E1,-1.708677292E0,-9.930574298E-1,-4.165577292E-1
1.026484631E1,-1.191798091E0,-1.801301956E0,-1.071544886E0
1.028484631E1,-8.107926846E-1,-2.473358393E0,-1.193787694E0
1.030486662E1,-9.506808519E-1,-2.818409920E0,-9.849765301E-1
1.032684475E1,-1.313709378E0,-2.923583508E0,-7.674736381E-1
1.034684631E1,-1.401010752E0,-3.159220457E0,-8.145800829E-1
1.036684631E1,-1.653402805E0,-3.662747860E0,-1.161691189E0
1.038884631E1,-2.155010462E0,-4.135679722E0,-1.088876009E0
1.040884631E1,-2.409339666E0,-4.441164970E0,-5.721887350E-1
1.043084631E1,-2.260218859E0,-4.551591873E0,2.458470762E-1
1.045284631E1,-2.212710857E0,-4.927448273E0,6.921103001E-1
1.047284944E1,-2.675973654E0,-5.675671101E0,6.954264641E-1
1.049285725E1,-3.542843819E0,-5.727315426E0,7.924842238E-1
1.051285881E1,-4.384581089E0,-4.895456314E0,1.024106860E0
1.053289631E1,-5.167413712E0,-4.330755234E0,1.386297584E0
1.055484631E1,-5.419823170E0,-4.348993778E0,2.000740767E0
1.057484631E1,-4.781364441E0,-4.409958363E0,2.405814171E0
1.059484631E1,-3.811066151E0,-4.328224659E0,2.456358910E0
1.061484631E1,-3.148573875E0,-4.229578495E0,2.384049892E0
1.063484631E1,-2.925014734E0,-3.481565237E0,2.007407904E0
1.065484631E1,-2.835200071E0,-2.024564505E0,1.604987264E0
1.067484631E1,-2.332004309E0,-5.319414735E-1,1.384342790E0
1.069484631E1,-1.698205352E0,5.525887012E-1,1.396455407E0
1.071486038E1,-1.367256045E0,7.585549951E-1,1.442235351E0
1.073684788E1,-1.504421473E0,2.631956525E-2,1.164989829E0
1.075884788E1,-1.908308148E0,-4.246909618E-1,6.643944979E-1
1.078084631E1,-2.194193125E0,-3.614402413E-1,2.200511098E-1
1.080285256E1,-2.265507221E0,-9.786061198E-2,8.349654824E-2
1.082484631E1,-2.052419901E0,-1.020494029E-1,9.272934496E-2
1.084487131E1,-1.681170940E0,-3.751061559E-1,1.506044567E-1
1.086684631E1,-1.227891445E0,-5.098281503E-1,1.706932038E-1
1.088884475E1,-6.529974937E-1,-2.512750626E-1,1.905550510E-1
1.090884631E1,-2.434734255E-1,2.309419662E-1,6.822492182E-2
1.093084631E1,1.030965969E-1,4.092099071E-1,-6.016149744E-2
1.095084631E1,4.657760262E-1,4.333128929E-1,2.206096239E-2
1.097084631E1,9.646260142E-1,3.060260415E-1,-1.070235893E-1
1.099284631E1,1.699496865E0,7.464773208E-2,-3.486469686E-1
1.101284631E1,2.345495701E0,-1.724559814E-1,-5.857499242E-1
1.103285100E1,2.833070755E0,-5.410520826E-4,-8.139691949E-1
1.105484631E1,3.228911400E0,1.361182332E-1,-8.980765939E-1
1.107484631E1,3.559284925E0,-5.044001620E-3,-1.054213762E0
1.109484631E1,3.862099409E0,-4.950102866E-1,-1.498941064E0
1.111484631E1,3.952524900E0,-1.258033276E0,-2.247879267E0
1.113484631E1,3.918229342E0,-1.627519488E0,-2.896827698E0
1.115484631E1,4.121996403E0,-1.341669440E0,-3.265493631E0
1.117484631E1,4.424234867E0,-7.587819099E-1,-3.405713320E0
1.119484631E1,4.573478222E0,-2.129999846E-1,-3.317451954E0
1.121486194E1,4.537541866E0,2.734931000E-2,-3.015911579E0
1.123684631E1,4.410516739E0,-1.713913381E-1,-2.755892277E0
1.125884788E1,4.336480141E0,-4.872260988E-1,-2.612653255E0
1.128084631E1,4.294958591E0,-7.799876332E-1,-2.620367527E0
1.130284944E1,4.190692425E0,-1.060200214E0,-2.698837519E0
1.132484631E1,3.925629377E0,-1.235466242E0,-2.693549156E0
1.134484631E1,3.510241032E0,-1.296308398E0,-2.596142292E0
1.136484631E1,2.991145372E0,-1.213230729E0,-2.356438875E0
1.138484631E1,2.506188154E0,-1.042973876E0,-2.082875967E0
1.140486662E1,2.103278875E0,-8.422260880E-1,-1.865739465E0
1.142684475E1,1.734961987E0,-7.110297084E-1,-1.606645346E0
1.144684631E1,1.517022729E0,-6.815161705E-1,-1.382684708E0
1.146684631E1,1.282956600E0,-5.105960965E-1,-1.153872013E0
1.148684631E1,9.898285866E-1,-3.498687148E-1,-8.456993103E-1
1.150684788E1,6.785316467E-1,-1.110902056E-1,-3.633251786E-1
1.152884475E1,3.732910156E-1,-8.272860199E-3,3.773925304E-1
1.154884631E1,8.936085552E-2,1.460840553E-2,9.970716834E-1
1.157084631E1,-2.296329737E-1,2.857627571E-1,1.599960804E0
1.159284631E1,-4.901582599E-1,4.096113145E-1,2.204682350E0
1.161284631E1,-7.404733896E-1,4.261919558E-1,2.589126110E0
1.163484631E1,-1.070724607E0,4.448669851E-1,2.617714643E0
1.165484631E1,-1.389683485E0,5.263214707E-1,2.526643276E0
1.167484631E1,-1.700404525E0,5.970596671E-1,2.754408836E0
1.169484631E1,-1.864709735E0,6.112666726E-1,3.402379751E0
1.171486194E1,-2.011718750E0,6.333625317E-1,3.972456694E0
1.173684788E1,-2.249973774E0,5.450314283E-1,4.048622608E0
1.175884631E1,-2.379354954E0,3.960151970E-1,3.791849852E0
1.177884631E1,-2.433146000E0,3.797661960E-1,3.672643900E0
1.179884631E1,-2.593855858E0,3.612482548E-1,3.831294298E0
1.182084475E1,-2.998405933E0,1.691573113E-1,3.956102848E0
1.184084631E1,-3.291045189E0,8.152432740E-2,3.806737661E0
1.186084631E1,-3.364994764E0,2.090904489E-2,3.696938992E0
1.188284631E1,-3.149586201E0,-1.072679386E-1,3.654754400E0
1.190285256E1,-2.808514118E0,-3.742509484E-1,3.520364046E0
1.192484631E1,-2.610995054E0,-5.030388236E-1,3.116180658E0
1.194484631E1,-2.636162758E0,-4.941376150E-1,2.670231581E0
1.196484631E1,-2.832459927E0,-5.821196437E-1,2.238245249E0
1.198484631E1,-2.909725666E0,-3.282440603E-1,1.748052001E0
1.200486819E1,-2.551182747E0,5.680697560E-1,7.714354992E-1
1.202684788E1,-1.610520005E0,1.556659102E0,-4.479038417E-1
1.204884631E1,-4.869119525E-1,1.635862231E0,-8.745495677E-1
1.206884631E1,3.428350091E-1,1.022972345E0,-6.481280327E-1
1.208884631E1,1.057599664E0,2.172934860E-1,-3.890164495E-1
1.210884631E1,1.638968825E0,-5.448394418E-1,-3.867300451E-1
1.212884631E1,2.148849249E0,-1.032641530E0,-6.181432605E-1
1.214884631E1,2.527463675E0,-1.392057180E0,-1.166246414E0
1.216884631E1,2.681349277E0,-1.570813775E0,-1.975363612E0
1.218884631E1,2.869722605E0,-1.346748352E0,-2.844485283E0
1.221084631E1,3.385799170E0,-8.273907900E-1,-3.574189901E0
1.223084631E1,3.912312508E0,-5.217312574E-1,-3.919590712E0
1.225284631E1,4.196417332E0,-4.146378636E-1,-4.088381290E0
1.227285100E1,4.081574440E0,-4.952720702E-1,-4.216820240E0
1.229484631E1,3.686327457E0,-5.262866020E-1,-4.415421009E0
1.231484631E1,3.256121159E0,-4.299793243E-1,-4.511745930E0
1.233485881E1,2.813418388E0,-1.596627235E-1,-4.491674423E0
1.235684631E1,2.380454540E0,1.833119243E-1,-4.320929050E0
1.237684631E1,2.103348732E0,4.760909081E-1,-4.036458015E0
1.239684631E1,1.884135246E0,6.982713342E-1,-3.688770771E0
1.241684631E1,1.720894694E0,7.386757135E-1,-3.262578964E0
1.243684788E1,1.597918749E0,6.217386127E-1,-2.725157022E0
1.245884631E1,1.513008475E0,3.944967687E-1,-2.079018831E0
1.247884631E1,1.468956351E0,9.215338528E-2,-1.467385530E0
1.249884631E1,1.358983159E0,-1.099906489E-1,-9.280788302E-1
1.251884788E1,1.154378176E0,-1.614080518E-1,-4.476943910E-1
1.253884788E1,9.288991094E-1,-9.039060026E-2,4.480260238E-2
1.256084475E1,6.489134431E-1,1.466076542E-2,6.389824748E-1
1.258084631E1,2.864608765E-1,1.700299680E-1,1.103571653E0
1.260284631E1,-2.066120803E-1,1.684068143E-1,1.614132881E0
1.262284631E1,-5.921902061E-1,-3.387684003E-2,1.995661855E0
1.264284631E1,-8.598539233E-1,-1.716182232E-1,2.174994469E0
1.266285100E1,-1.079381466E0,2.897246508E-3,2.102441072E0
1.268484631E1,-1.320690632E0,2.725506127E-1,2.247792006E0
1.270486819E1,-1.450194120E0,4.046894908E-1,2.723307133E0
1.272684631E1,-1.569923639E0,5.445252657E-1,3.349147081E0
1.274684631E1,-1.701050282E0,6.239028573E-1,3.553054094E0
1.276684631E1,-1.787339330E0,6.314601302E-1,3.397510290E0
1.278884475E1,-1.761438608E0,6.845006943E-1,3.097819805E0
1.280884631E1,-1.611759186E0,8.194844127E-1,2.967897415E0
1.282884631E1,-1.424275875E0,9.428617358E-1,2.903721809E0
1.284884631E1,-1.407189131E0,9.510298967E-1,2.698174238E0
1.286884631E1,-1.615057826E0,8.267624378E-1,2.435170650E0
1.289084475E1,-1.840362430E0,7.539124489E-1,2.196584225E0
1.291084475E1,-1.825963497E0,7.716624141E-1,2.195048332E0
1.293084631E1,-1.680211067E0,7.492349148E-1,2.387296200E0
1.295084631E1,-1.424101353E0,5.416454673E-1,2.469885111E0
1.297084631E1,-1.237525702E0,3.136705756E-1,2.396424294E0
1.299284631E1,-1.323413372E0,7.054620981E-2,2.300378799E0
1.301484475E1,-1.652355552E0,-9.332275391E-2,2.094691753E0
1.303484631E1,-2.021824360E0,-1.546361744E-1,1.812419653E0
1.305484631E1,-2.322038412E0,-5.331980810E-2,1.451817274E0
1.307485256E1,-2.386632919E0,-1.059414819E-2,9.826378226E-1
1.309684631E1,-1.918710232E0,1.809906401E-2,4.188266695E-1
1.311684631E1,-1.027911663E0,5.352924764E-2,-6.951646507E-2
1.313684631E1,9.740682691E-2,-1.064301804E-1,-5.734628439E-1
1.315684631E1,9.835104942E-1,-5.811597109E-1,-1.187225342E0
1.317884631E1,1.349715471E0,-8.172678947E-1,-1.970790863E0
1.319884631E1,1.437156439E0,-5.698150992E-1,-2.591202974E0
1.321884631E1,1.579994202E0,6.522295624E-2,-2.982261419E0
1.323884631E1,1.912025690E0,9.175719619E-1,-3.150441408E0
1.325884631E1,2.289662600E0,1.478834867E0,-3.239662647E0
1.327884631E1,2.552823305E0,1.608652472E0,-3.314641953E0
1.329884631E1,2.751651287E0,1.309904456E0,-3.400355101E0
1.331884631E1,2.828602791E0,8.084015846E-1,-3.488110304E0
1.333884631E1,2.780449152E0,3.504795730E-1,-3.567051649E0
1.335884631E1,2.656461000E0,-2.371902391E-2,-3.644003153E0
1.337884631E1,2.483725786E0,-3.644770980E-1,-3.667774439E0
1.339884631E1,2.254686117E0,-5.723632574E-1,-3.568709612E0
1.341884631E1,2.085668564E0,-6.876772046E-1,-3.375571489E0
1.343884631E1,1.920577765E0,-6.215466261E-1,-3.097208977E0
1.345884631E1,1.771666288E0,-3.202330172E-1,-2.741894722E0
1.347884631E1,1.651500344E0,-3.522074595E-2,-2.328461170E0
1.349884631E1,1.520897388E0,1.904154196E-2,-1.800342083E0
1.351884788E1,1.262902737E0,-1.213003788E-2,-1.229514599E0
1.354084631E1,8.174074888E-1,7.173303515E-2,-4.927064478E-1
1.356284631E1,1.753881425E-1,8.218057156E-1,2.765299678E-1
1.358284944E1,-5.678079724E-1,1.916895151E0,8.828747869E-1
1.360486819E1,-1.548351407E0,2.862968206E0,1.213125944E0
1.362684631E1,-2.311601400E0,2.957931757E0,1.431868076E0
1.364884631E1,-2.455905199E0,2.184995174E0,1.670524478E0
1.366884631E1,-2.110766172E0,1.227926373E0,1.725065947E0
1.368884631E1,-1.684452176E0,5.711415410E-1,1.559835672E0
1.370884631E1,-1.352071643E0,1.529432088E-1,1.451398373E0
1.372884631E1,-1.159265161E0,-3.857177682E-3,1.482430339E0
1.375084475E1,-1.202776194E0,5.232496932E-2,1.490598440E0
1.377084475E1,-1.446685910E0,2.491108477E-1,1.406438708E0
1.379084631E1,-1.660035014E0,4.301713109E-1,1.307565808E0
1.381084631E1,-1.658795834E0,5.491852760E-1,1.299834013E0
1.383285256E1,-1.498626947E0,5.370727181E-1,1.431396842E0
1.385484631E1,-1.355544925E0,5.452582836E-1,1.626629353E0
1.387484631E1,-1.464715242E0,5.853659511E-1,1.655950904E0
1.389484631E1,-1.727212787E0,6.868568659E-1,1.555716634E0
1.391484631E1,-2.074218988E0,7.598639727E-1,1.527913570E0
1.393484944E1,-2.432709694E0,9.262462258E-1,1.551911831E0
1.395684631E1,-2.760342836E0,1.073010921E0,1.530618787E0
1.397884631E1,-2.796331644E0,9.672265649E-1,1.337428331E0
1.400084631E1,-2.700914383E0,6.643246412E-1,1.045958400E0
1.402284631E1,-2.611815453E0,1.904328763E-1,8.143531680E-1
1.404284631E1,-2.584553242E0,-1.592961997E-1,5.743529201E-1
1.406284631E1,-2.627331495E0,-3.566056788E-1,3.123266697E-1
1.408285100E1,-2.690721750E0,-1.370956153E-1,-5.197590590E-2
1.410486663E1,-2.470775366E0,5.295329094E-1,-5.005429983E-1
1.412684631E1,-1.836348176E0,1.151690364E0,-7.718020678E-1
1.414684631E1,-9.764767885E-1,1.251732707E0,-7.235611677E-1
1.416684631E1,-6.639232486E-2,6.174276471E-1,-4.611858130E-1
1.418884631E1,6.646737456E-1,-3.805515766E-1,-2.509434521E-1
1.420884631E1,1.062155008E0,-9.604547024E-1,-2.741737664E-1
1.422884631E1,1.375459075E0,-1.073621869E0,-4.988500178E-1
1.425084475E1,1.625966191E0,-2.173982114E-1,-9.697747231E-1
1.427084631E1,1.740477204E0,1.242499948E0,-1.369629622E0
1.429084631E1,1.932323813E0,2.467249870E0,-1.540724277E0
1.431284631E1,2.303625107E0,2.996677876E0,-1.443718910E0
1.433285412E1,2.747898817E0,2.848063231E0,-1.240335703E0
1.435484631E1,3.308131933E0,2.093714476E0,-1.166857362E0
1.437684631E1,3.706957102E0,1.154936671E0,-1.385791421E0
1.439684631E1,3.645783424E0,6.211277843E-1,-1.643018007E0
1.441884631E1,3.188978434E0,3.704461455E-1,-1.605947256E0
1.443884631E1,2.561061144E0,2.434036136E-1,-1.276970148E0
1.445884631E1,2.013795853E0,3.138101846E-2,-8.431510925E-1
1.447884631E1,1.691625476E0,-3.199886680E-1,-5.493423939E-1
1.449884631E1,1.505014896E0,-4.993212521E-1,-4.175176620E-1
1.451884631E1,1.332995176E0,-6.375687569E-2,-4.384267032E-1
1.453884631E1,9.739635587E-1,1.487264872E0,-6.335021853E-1
1.455884631E1,2.726029754E-1,2.312124968E0,-3.804119527E-1
1.457884631E1,-7.759384513E-1,1.481086373E0,4.473627806E-1
1.459884631E1,-1.714349627E0,-2.992716134E-1,1.104426861E0
1.461884631E1,-2.387697697E0,-2.095442295E0,1.025188923E0
1.463884631E1,-3.001844168E0,-2.722486734E0,5.618738532E-1
1.465884631E1,-3.416272640E0,-1.978819370E0,8.779006451E-2
1.467884631E1,-3.155729771E0,-6.725277305E-1,-1.039867178E-1
1.469884631E1,-2.187299013E0,-4.092797264E-2,9.908234328E-2
1.471884631E1,-1.077531338E0,-2.619215548E-1,4.390724897E-1
1.473884631E1,-2.871241271E-1,-5.229529738E-1,7.515213490E-1
1.475884788E1,-8.513715863E-2,-4.676435292E-1,7.721685767E-1
1.478084631E1,-4.497015476E-1,-5.389576778E-2,6.535385251E-1
1.480084631E1,-8.750557303E-1,4.789008796E-1,5.671796203E-1
1.482284631E1,-1.154919267E0,8.859465718E-1,5.791525841E-1
1.484284788E1,-1.170051217E0,9.656557441E-1,6.145129800E-1
1.486484631E1,-1.044998407E0,8.509527445E-1,7.213620543E-1
1.488484631E1,-9.715026021E-1,6.468888521E-1,8.350178599E-1
1.490486819E1,-1.015746713E0,3.178244531E-1,1.050967455E0
1.492684631E1,-1.169475317E0,-4.166100919E-2,1.377291679E0
1.494684631E1,-1.385965943E0,-3.810926378E-1,1.642668962E0
1.496884631E1,-1.689810276E0,-7.847000360E-1,1.921450377E0
1.499084475E1,-1.912130356E0,-1.284771800E0,2.192552328E0
1.501084631E1,-1.932358742E0,-1.860154510E0,2.321863890E0
1.503285412E1,-1.853941083E0,-2.447440386E0,2.346682549E0
1.505484631E1,-1.873383999E0,-2.831185818E0,2.331271172E0
1.507484631E1,-2.068511963E0,-2.896059752E0,2.247722387E0
1.509684631E1,-2.279766560E0,-2.683670521E0,1.862458348E0
1.511684631E1,-2.106821775E0,-2.520988464E0,1.138792396E0
1.513684631E1,-1.489045143E0,-2.114274502E0,1.261174977E-1
1.515684631E1,-4.344299138E-1,-1.291753054E0,-9.724450707E-1
1.517684631E1,8.221373558E-1,-3.739542365E-1,-1.701905489E0
1.519684631E1,1.509552717E0,1.445132587E-2,-2.214857817E0
1.521884475E1,1.543516874E0,-8.595746756E-2,-2.589963913E0
1.523884475E1,1.511210799E0,-1.112996489E-1,-2.809945107E0
1.525884788E1,1.924277902E0,4.769985005E-2,-2.920843363E0
1.528084788E1,2.693479300E0,2.438748628E-1,-2.925782681E0
1.530286038E1,3.218648911E0,3.474426866E-1,-2.962015629E0
1.532484631E1,3.480622768E0,1.675341576E-1,-3.016766787E0
1.534484631E1,3.656063318E0,-1.402022988E-1,-3.021705866E0
1.536484631E1,3.711233139E0,-5.051680803E-1,-2.926672697E0
1.538484631E1,3.555375338E0,-9.751154780E-1,-2.729049206E0
1.540486819E1,3.189414740E0,-1.332820654E0,-2.528179169E0
1.542684475E1,2.650055647E0,-1.560987592E0,-2.408798695E0
1.544684631E1,2.030079603E0,-1.644536495E0,-2.285421371E0
1.546884631E1,1.311073899E0,-1.704942346E0,-2.020113945E0
1.549084475E1,6.696130037E-1,-1.618810296E0,-1.779398084E0
1.551084631E1,2.726029754E-1,-1.233441591E0,-1.648864865E0
1.553284631E1,-3.197443113E-2,-8.080001473E-1,-1.504962444E0
1.555484631E1,-1.411971301E-1,-4.208861589E-1,-1.285574675E0
1.557484631E1,-4.586725309E-2,-1.298699528E-1,-1.056081295E0
1.559484631E1,1.246165112E-2,1.092576142E-2,-6.982364058E-1
1.561484631E1,-5.035274848E-2,1.919862116E-3,-2.074149251E-1
1.563484631E1,-1.850921661E-1,-2.098234892E-1,3.718598485E-1
1.565684631E1,-3.754203320E-1,-1.669232845E-1,8.485965133E-1
1.567684631E1,-6.707823873E-1,1.766273193E-2,1.137465954E0
1.569684631E1,-9.774891138E-1,2.011491954E-1,1.499743938E0
1.571684631E1,-1.162144899E0,3.289945722E-1,1.780794382E0
1.573684631E1,-1.128931284E0,4.682718217E-1,1.809539914E0
1.575684944E1,-1.015903831E0,4.655491114E-1,1.766988754E0
1.577884631E1,-8.337961435E-1,3.167597950E-1,1.749779820E0
1.579884631E1,-7.074866891E-1,1.824043542E-1,1.735520482E0
1.581884631E1,-5.897467732E-1,2.187072039E-1,1.867048502E0
1.583884631E1,-4.228583574E-1,4.511501491E-1,2.013743401E0
1.585884631E1,-3.588745892E-1,7.349057794E-1,2.094988585E0
1.587884631E1,-3.792251348E-1,9.705950618E-1,2.130069733E0
1.589884631E1,-3.110176623E-1,1.042013884E0,2.232031822E0
1.591884631E1,-1.727526933E-1,9.960419536E-1,2.457615614E0
1.593884631E1,-2.082177848E-1,9.079203010E-1,2.578601837E0
1.595884631E1,-5.674065351E-1,7.483971715E-1,2.494058132E0
1.597884631E1,-1.114776731E0,6.350031495E-1,2.376143694E0
1.599884631E1,-1.591652989E0,6.544286609E-1,2.340643644E0
1.601884631E1,-1.769624233E0,6.129072905E-1,2.318303347E0
1.603884631E1,-1.753846407E0,3.645818233E-1,2.153998137E0
1.605884631E1,-1.676894903E0,1.170766875E-1,1.914591312E0
1.608084631E1,-1.598861217E0,-1.455255598E-1,1.784162879E0
1.610084631E1,-1.609996438E0,-3.096737564E-1,1.699531794E0
1.612084631E1,-1.825649261E0,-2.361779511E-1,1.433142185E0
1.614084631E1,-2.090887070E0,-1.420698036E-2,1.008538485E0
1.616284631E1,-2.164539814E0,1.361007690E-1,4.867548645E-1
1.618284944E1,-1.849385738E0,3.470238149E-1,1.181587856E-2
1.620486819E1,-1.112682343E0,4.585328996E-1,-4.272915125E-1
1.622684631E1,-1.618618369E-1,3.082425892E-1,-7.131589651E-1
1.624684631E1,6.602057219E-1,-4.869468510E-2,-9.225112200E-1
1.626884631E1,1.257719159E0,-5.786988139E-1,-1.260668755E0
1.629084631E1,1.552784562E0,-1.055086493E0,-1.688623548E0
1.631285725E1,1.721732378E0,-1.278401256E0,-2.053048134E0
1.633485881E1,1.923125982E0,-1.021331787E0,-2.360679865E0
1.635684788E1,2.067429781E0,-4.986405671E-1,-2.530814648E0
1.637884631E1,2.179392576E0,2.736676298E-2,-2.658310890E0
1.639884631E1,2.237564564E0,3.100228310E-1,-2.777342319E0
1.641884631E1,2.252120495E0,4.608018398E-1,-2.879356861E0
1.643884631E1,2.244179249E0,4.630882144E-1,-2.937423944E0
1.646084631E1,2.178624630E0,3.810228407E-1,-2.933025837E0
1.648284631E1,2.039801121E0,1.452462971E-1,-2.876581907E0
1.650284631E1,1.814130068E0,-1.254193634E-1,-2.748649120E0
1.652284631E1,1.488102674E0,-3.124837577E-1,-2.576629639E0
1.654285100E1,1.238345981E0,-2.616772056E-1,-2.326035261E0
1.656285256E1,9.897238612E-1,-1.507266313E-1,-2.033133984E0
1.658484631E1,5.106135011E-1,-4.216715321E-2,-1.812297583E0
1.660486662E1,-4.750786349E-2,3.450515866E-2,-1.560446501E0
1.662684631E1,-5.993984342E-1,-1.466076588E-3,-1.149979949E0
1.664684631E1,-9.401215911E-1,5.375614017E-2,-6.920230389E-1
1.666685256E1,-1.121670723E0,7.709119469E-2,-2.302438319E-1
1.668884631E1,-1.199512482E0,8.412486874E-3,2.738072574E-1
1.671084631E1,-1.215726495E0,-1.223999411E-1,8.486663699E-1
1.673285256E1,-1.104444385E0,-3.866951466E-1,1.597552180E0
1.675285881E1,-7.932695746E-1,-7.781550288E-1,2.277480125E0
1.677484631E1,-3.363423944E-1,-1.211764693E0,2.499328852E0
1.679484631E1,7.360053062E-2,-1.352752328E0,2.280028343E0
1.681484631E1,4.354596436E-1,-1.200926185E0,1.897138000E0
1.683484631E1,5.922425985E-1,-7.871958613E-1,1.618269324E0
1.685484631E1,3.562740684E-1,-2.732836604E-1,1.631655931E0
1.687484631E1,-1.439896673E-1,3.153635561E-1,1.836086392E0
1.689484631E1,-7.980692387E-1,9.267174602E-1,2.044496059E0
1.691484631E1,-1.341076136E0,1.413367629E0,2.045735359E0
1.693484631E1,-1.573728442E0,1.743950486E0,1.921729684E0
1.695484631E1,-1.554512382E0,1.964402914E0,1.834253788E0
1.697484631E1,-1.418778181E0,1.935989022E0,1.818790197E0
1.699484631E1,-1.231329799E0,1.636699915E0,1.919600368E0
1.701484631E1,-9.800896645E-1,1.120134830E0,2.101673126E0
1.703484631E1,-6.603627801E-1,4.922003150E-1,2.290901661E0
1.705484631E1,-2.711019814E-1,-3.565009534E-1,2.310170174E0
1.707484631E1,1.189965457E-1,-1.381148815E0,1.894223332E0
1.709484631E1,2.661452591E-1,-2.098496675E0,1.422600389E0
1.711684631E1,-5.351179466E-2,-2.172847748E0,1.523899317E0
1.713684631E1,-5.534439087E-1,-1.773132324E0,1.977161288E0
1.715684631E1,-1.187591791E0,-9.974207282E-1,2.307988405E0
1.717884631E1,-1.949759603E0,1.271472424E-1,2.029451370E0
1.719884631E1,-2.521354914E0,1.040530443E0,1.186003566E0
1.721884631E1,-2.691768885E0,1.958050013E0,-1.879719645E-2
1.723884631E1,-2.187735319E0,2.831744432E0,-1.051717997E0
1.725884631E1,-1.282869339E0,2.769942284E0,-1.414763927E0
1.727884631E1,-4.819028676E-1,1.657137752E0,-1.355230689E0
1.729884631E1,6.010913849E-2,3.068288863E-1,-1.334216952E0
1.731884631E1,5.390100479E-1,-8.521744609E-1,-1.603224516E0
1.733884631E1,1.028801799E0,-1.557706356E0,-2.099229574E0
1.735884631E1,1.539397836E0,-1.673142433E0,-2.508648872E0
1.737884631E1,2.017268896E0,-1.322453380E0,-2.835165262E0
1.739884631E1,2.365130663E0,-6.940301657E-1,-2.961265326E0
1.741884631E1,2.523414373E0,-7.375761122E-2,-2.872183561E0
1.744084631E1,2.542194128E0,2.775247991E-1,-2.687580109E0
1.746284631E1,2.585635424E0,2.019345909E-1,-2.632323027E0
1.748284631E1,2.512855291E0,-3.102148175E-1,-2.735786200E0
1.750284631E1,2.239257336E0,-8.888438344E-1,-2.877454519E0
1.752284631E1,1.732658148E0,-1.242150784E0,-2.913163900E0
1.754284631E1,1.236077070E0,-1.278750420E0,-2.799839735E0
1.756284631E1,9.062970877E-1,-1.122421265E0,-2.640892506E0
1.758284631E1,6.454227567E-1,-7.575775981E-1,-2.488717318E0
1.760284631E1,2.959903777E-1,-1.999100149E-1,-2.278649569E0
1.762284631E1,-5.047492310E-2,2.826735377E-1,-1.959044814E0
1.764284631E1,-3.532197475E-1,5.526061654E-1,-1.537547827E0
1.766284788E1,-5.737071633E-1,6.780080795E-1,-1.053009510E0
1.768484631E1,-6.558598280E-1,5.512098670E-1,-5.177693963E-1
1.770486819E1,-5.441936851E-1,3.226590157E-1,-1.505171955E-1
1.772684631E1,-3.510380685E-1,2.043780535E-1,1.445656270E-1
1.774684631E1,-1.740442365E-1,-4.803146049E-2,5.773549080E-1
1.776684631E1,-2.542246580E-1,-2.661801577E-1,9.146049023E-1
1.778684631E1,-4.756895006E-1,-3.021688461E-1,9.817302227E-1
1.780684788E1,-5.112418532E-1,-2.350783944E-1,1.007596016E0
1.782884631E1,-1.555088311E-1,-4.717624933E-2,1.013582468E0
1.784884631E1,1.136209369E-1,1.629264802E-1,1.021401525E0
1.786884631E1,1.685987972E-2,2.288475633E-1,1.079521060E0
1.789084475E1,-4.220031500E-1,3.650879860E-1,1.330447078E0
1.791084631E1,-9.384111762E-1,5.349259377E-1,1.597220659E0
1.793084631E1,-1.319032550E0,6.765943170E-1,1.784511924E0
1.795084631E1,-1.461695790E0,8.360650539E-1,1.888760448E0
1.797084631E1,-1.452724814E0,9.567720294E-1,1.956514120E0
1.799084631E1,-1.478416085E0,8.725075722E-1,2.138447285E0
1.801084631E1,-1.424520254E0,6.558423638E-1,2.430248737E0
1.803084631E1,-1.228484869E0,3.745476604E-1,2.717879057E0
1.805084631E1,-8.482649326E-1,3.459242731E-2,2.985385656E0
1.807084788E1,-3.790855110E-1,-3.440916538E-1,3.203132868E0
1.809084788E1,1.250877529E-1,-6.126629114E-1,3.289561749E0
1.811284944E1,3.786491752E-1,-6.438345313E-1,3.237044811E0
1.813484788E1,3.330088034E-2,-3.425383270E-1,2.943026543E0
1.815484788E1,-7.493745685E-1,9.231046587E-2,2.421626806E0
1.817484788E1,-1.856943011E0,5.387308002E-1,1.783220291E0
1.819484788E1,-2.924665689E0,1.117726326E0,1.155791879E0
1.821486350E1,-3.483677149E0,1.516952872E0,5.256757140E-1
1.823684944E1,-3.383809328E0,1.909076095E0,-1.955990493E-1
1.825884788E1,-2.481701136E0,1.698903441E0,-7.683463097E-1
1.827884788E1,-1.179388762E0,7.998843789E-1,-1.022169471E0
1.829884788E1,-4.958480224E-2,-4.424584210E-1,-1.102576852E0
1.831884788E1,6.617241502E-1,-1.494455576E0,-1.176474094E0
1.833884788E1,1.201467156E0,-2.102859974E0,-1.304354310E0
1.836084788E1,1.677540660E0,-2.097030640E0,-1.610677123E0
1.838284788E1,1.858042598E0,-1.434957385E0,-1.930054903E0
1.840284788E1,1.868863702E0,-5.962568521E-1,-2.195030689E0
1.842284788E1,1.903351307E0,7.679448463E-3,-2.338444471E0
1.844284788E1,2.026170254E0,3.252246380E-1,-2.360645056E0
1.846285100E1,2.243585825E0,3.980397880E-1,-2.348427773E0
1.848484788E1,2.470304012E0,1.324704885E-1,-2.434350252E0
1.850486819E1,2.565983057E0,-3.725056350E-1,-2.635307550E0
1.852684788E1,2.443967104E0,-1.045138001E0,-2.982959747E0
1.854684788E1,2.087535858E0,-1.459200025E0,-3.220516443E0
1.856684788E1,1.615127683E0,-1.551911831E0,-3.183812141E0
1.858684788E1,1.196423173E0,-1.417591333E0,-2.942712307E0
1.860684788E1,8.172852993E-1,-1.080044627E0,-2.626685619E0
1.862684788E1,4.350058734E-1,-6.104463339E-1,-2.294828653E0
1.864684788E1,4.518657550E-2,-1.607099175E-1,-1.897329926E0
1.866684788E1,-3.424161375E-1,2.013760954E-1,-1.474489093E0
1.868684788E1,-6.675535440E-1,4.638212323E-1,-1.006670952E0
1.870684788E1,-8.133757710E-1,4.546059072E-1,-5.267054439E-1
1.872684788E1,-8.445647955E-1,3.598868847E-1,-1.842718571E-1
1.874684788E1,-8.455771208E-1,3.661002517E-1,1.069188714E-1
1.876884788E1,-7.176619172E-1,2.773153782E-1,5.650852323E-1
1.878884788E1,-5.568124056E-1,2.694264650E-1,9.735621214E-1
1.880884788E1,-3.566754758E-1,2.735978067E-1,1.197976589E0
1.882884788E1,-5.995205790E-2,2.993414104E-1,1.260441899E0
1.884884788E1,2.520779073E-1,4.099254906E-1,1.358162880E0
1.886884788E1,4.447796941E-1,5.050110221E-1,1.588581204E0
1.889084631E1,4.896870255E-1,5.301612020E-1,1.994178295E0
1.891084631E1,4.166449904E-1,5.661848187E-1,2.213897705E0
1.893084631E1,3.271096051E-1,5.675112605E-1,2.219849348E0
1.895084631E1,2.809630930E-1,5.564633012E-1,2.100556135E0
1.897084631E1,1.807113886E-1,6.182479858E-1,1.951539874E0
1.899284475E1,-5.471607298E-2,7.153580785E-1,1.914521456E0
1.901284631E1,-3.002140820E-1,7.872481942E-1,2.043658257E0
1.903284788E1,-4.665614069E-1,7.701090574E-1,2.266292572E0
1.905484631E1,-4.581663907E-1,6.961594820E-1,2.575285673E0
1.907484631E1,-2.217964381E-1,4.998273849E-1,2.876215219E0
1.909484631E1,2.384294271E-1,2.225818336E-1,3.180024862E0
1.911484631E1,8.225736618E-1,-6.077236310E-2,3.351224184E0
1.913484631E1,1.301160455E0,-2.188817412E-1,3.298829317E0
1.915484631E1,1.406787753E0,-3.044726849E-1,3.072390318E0
1.917484631E1,1.115754128E0,-3.439345956E-1,2.713149309E0
1.919484631E1,5.268101692E-1,-2.227389216E-1,2.238454580E0
1.921486194E1,-1.802750528E-1,-5.386086181E-2,1.544982910E0
1.923684788E1,-8.647408485E-1,2.955366075E-1,6.165550351E-1
1.925884788E1,-1.131846070E0,7.188313007E-1,-2.299994826E-1
1.928084631E1,-8.339706659E-1,7.360402346E-1,-7.038214803E-1
1.930084631E1,-2.954493463E-1,8.253662288E-2,-7.710689902E-1
1.932084631E1,5.886995420E-2,-1.098248482E0,-9.754121304E-1
1.934084631E1,-1.830850355E-2,-2.066783905E0,-1.437505484E0
1.936084788E1,-2.660754323E-1,-2.432273388E0,-1.951731920E0
1.938284788E1,-2.351307571E-1,-2.263168335E0,-2.267409563E0
1.940285725E1,1.439547539E-1,-1.896457314E0,-2.472800016E0
1.942484788E1,7.108202577E-1,-1.265014648E0,-2.630403042E0
1.944484788E1,1.122962236E0,-7.636513710E-1,-2.693182707E0
1.946484788E1,1.301963210E0,-3.524343371E-1,-2.729799747E0
1.948484788E1,1.331668735E0,-9.316567332E-2,-2.653214693E0
1.950486819E1,1.318264604E0,-8.913396299E-2,-2.552544117E0
1.952684631E1,1.263583422E0,-2.275036722E-1,-2.477494955E0
1.954684631E1,1.173367381E0,-3.858923018E-1,-2.490881443E0
1.956684788E1,1.029220700E0,-5.426228642E-1,-2.519138336E0
1.958884631E1,8.539896011E-1,-6.166597009E-1,-2.473690033E0
1.960884788E1,6.866648793E-1,-6.240599155E-1,-2.364432335E0
1.963084631E1,3.608468175E-1,-6.425080299E-1,-2.187072039E0
1.965084631E1,-6.846926361E-2,-6.841341853E-1,-1.892512918E0
1.967084631E1,-4.908913076E-1,-7.210129499E-1,-1.442235351E0
1.969084631E1,-7.358482480E-1,-6.950075626E-1,-8.996299505E-1
1.971084631E1,-6.373069882E-1,-5.932374001E-1,-2.305405438E-1
1.973084631E1,-2.556209266E-1,-4.901757240E-1,5.055345893E-1
1.975284631E1,1.423839629E-1,-2.154608965E-1,1.105125070E0
1.977285413E1,2.541199327E-1,-1.617920212E-2,1.513514638E0
1.979285412E1,1.340412796E-1,2.131046951E-1,1.905096650E0
1.981484631E1,-2.455678210E-2,4.154058099E-1,2.399653196E0
1.983484631E1,-8.230973035E-2,6.028541923E-1,2.654436350E0
1.985485413E1,-9.391617030E-2,8.488932252E-1,2.744128704E0
1.987684631E1,-1.427330226E-1,1.376052499E0,2.773729563E0
1.989684631E1,-2.486919612E-1,1.810150743E0,2.730585098E0
1.991684631E1,-3.857526779E-1,1.960807562E0,2.522681475E0
1.993884631E1,-5.061804056E-1,2.032453299E0,2.117922068E0
1.995884631E1,-5.327617526E-1,2.029940128E0,1.717054963E0
1.997884631E1,-5.015029311E-1,1.981245399E0,1.446808100E0
1.999884631E1,-4.121420383E-1,1.963355780E0,1.417067766E0
2.001884631E1,-2.826909721E-1,2.002660513E0,1.534650564E0
2.003885100E1,-1.894729435E-1,1.825195551E0,1.592508197E0
2.006084475E1,-2.097013146E-1,1.593520522E0,1.607867122E0
2.008084631E1,-3.953519762E-1,1.322243929E0,1.663281322E0
2.010285412E1,-7.204893827E-1,1.043637037E0,1.907487750E0
2.012484631E1,-1.023583293E0,6.189286709E-1,2.263325453E0
2.014484944E1,-1.047581553E0,-7.812093943E-2,2.484319210E0
2.016684631E1,-6.132912636E-1,-9.102066755E-1,2.674472809E0
2.018684631E1,6.534512341E-2,-1.428202868E0,2.634696722E0
2.020684631E1,6.672044396E-1,-1.482517600E0,2.243324041E0
2.022684631E1,7.962366343E-1,-1.243058443E0,1.644239783E0
2.024684631E1,4.083372355E-1,-6.669950485E-1,9.989566207E-1
2.026684631E1,-2.813470662E-1,1.982693933E-2,3.958232105E-1
2.028684631E1,-8.664337993E-1,6.521248221E-1,-2.334726900E-1
2.030684631E1,-9.898983836E-1,9.876294732E-1,-6.797358990E-1
2.032684631E1,-7.306646109E-1,7.154977322E-1,-9.572607279E-1
2.034684631E1,-5.033354759E-1,-3.508111695E-3,-1.409859538E0
2.036684631E1,-7.106108069E-1,-5.697103739E-1,-2.044269323E0
2.038684631E1,-1.053463221E0,-8.210552335E-1,-2.510080099E0
2.040684631E1,-1.202758789E0,-1.157484889E0,-2.607766151E0
2.042684631E1,-1.018225074E0,-1.526063561E0,-2.588375568E0
2.044684631E1,-6.036570072E-1,-1.494647622E0,-2.650509357E0
2.046685256E1,-1.978854239E-1,-9.262811542E-1,-2.763763666E0
2.048884631E1,1.721069217E-1,2.025803626E-1,-2.952748060E0
2.051084631E1,5.932548642E-1,1.449635506E0,-3.242332935E0
2.053284631E1,1.082034349E0,2.345495701E0,-3.796649694E0
2.055484631E1,1.458100438E0,2.730061531E0,-4.387845039E0
2.057484631E1,1.477525949E0,2.686829567E0,-4.823217392E0
2.059484631E1,1.207348943E0,2.464527130E0,-5.133973122E0
2.061484631E1,8.195193410E-1,2.286625624E0,-5.314545155E0
2.063484631E1,4.829151630E-1,2.449063540E0,-5.199772358E0
2.065484631E1,3.160267770E-1,3.056909323E0,-4.817422867E0
2.067484631E1,4.359483421E-1,3.938126087E0,-4.209577084E0
2.069484631E1,9.303128719E-1,4.632505417E0,-3.444843531E0
2.071486194E1,1.448954940E0,4.907970428E0,-2.809910297E0
2.073684631E1,1.747493505E0,4.743072033E0,-2.432255983E0
2.075684631E1,1.864430547E0,4.164547443E0,-2.429690361E0
2.077684631E1,1.846802711E0,3.490483999E0,-2.359126568E0
2.079684631E1,1.652285695E0,2.898171663E0,-2.139058113E0
2.081684631E1,1.329783797E0,2.511406660E0,-1.890366077E0
2.083684631E1,1.011994243E0,2.020358324E0,-1.707193851E0
2.085684631E1,8.271988034E-1,1.442025900E0,-1.607570410E0
2.087684631E1,8.330456614E-1,1.178585887E0,-1.640138268E0
2.089684631E1,9.281835556E-1,1.356941104E0,-1.670559287E0
2.091684631E1,9.496161938E-1,1.279343843E0,-1.546710730E0
2.093884475E1,7.345741987E-1,8.140913844E-1,-1.330534339E0
2.095884631E1,3.628015816E-1,4.583060145E-1,-1.074058175E0
2.097884631E1,9.730210900E-2,3.992091715E-1,-8.394684792E-1
2.099884631E1,8.696975559E-2,8.159937859E-1,-6.786189079E-1
2.101884631E1,4.749041051E-2,1.082034349E0,-8.024674654E-1
2.104084475E1,-1.630137488E-2,8.664512634E-1,-1.054562807E0
2.106084631E1,-5.724680051E-2,4.961098433E-1,-1.050304174E0
2.108084631E1,-2.142217159E-1,3.295181692E-1,-7.942644358E-1
2.110284631E1,-5.230751634E-1,5.567949414E-1,-5.275606513E-1
2.112484631E1,-6.010739207E-1,6.524564028E-1,-3.454879224E-1
2.114484631E1,-3.612307906E-1,4.221777022E-1,-2.871764600E-1
2.116485412E1,-6.510078162E-2,1.795769334E-1,-1.461713314E-1
2.118684475E1,1.291892678E-1,-3.368485486E-3,3.708824515E-2
2.120684631E1,3.487865925E-1,-1.711993515E-1,5.654866621E-2
2.122684631E1,6.670997739E-1,-2.220931500E-1,-1.396263391E-2
2.124684631E1,9.697223902E-1,-4.829325899E-2,-8.990190923E-2
2.126684631E1,1.033147693E0,1.666265875E-1,-6.747443229E-2
2.128684631E1,9.373814464E-1,4.172558486E-1,5.818927661E-2
2.130684631E1,8.639903069E-1,4.486543238E-1,2.916096151E-1
2.132884631E1,7.856075764E-1,-6.857398897E-2,5.078733563E-1
2.134884631E1,5.178042650E-1,-2.539105117E-1,3.378608227E-1
2.136884631E1,3.918787837E-1,7.653268427E-2,1.691573113E-1
2.138884631E1,4.293160737E-1,4.699997008E-1,2.595653534E-1
2.140884631E1,1.637817025E-1,4.006403387E-1,3.963293731E-1
2.143084631E1,-6.662445068E-1,1.645496339E-1,5.452408791E-1
2.145284631E1,-1.247491479E0,2.673669755E-1,5.825560093E-1
2.147285412E1,-1.197138786E0,5.844933391E-1,4.961272776E-1
2.149485100E1,-7.138571143E-1,8.069704175E-1,6.070604324E-1
2.151684788E1,-2.966187000E-1,4.992165267E-1,6.730164289E-1
2.153884631E1,-2.516764775E-2,-5.141739920E-2,5.430417657E-1
2.155884631E1,6.452482194E-2,-2.600540519E-1,4.027696252E-1
2.157884631E1,7.127925009E-2,-1.382649839E-1,3.931703269E-1
2.159884631E1,-9.271188825E-2,1.311091334E-1,4.579744041E-1
2.161884631E1,-3.350683153E-1,2.229658067E-1,5.456771851E-1
2.163884631E1,-4.812047184E-1,2.204350829E-1,5.882806778E-1
2.165884788E1,-5.420643687E-1,1.812000871E-1,6.271666288E-1
2.168084475E1,-5.806186795E-1,5.471432805E-1,5.230053663E-1
2.170084475E1,-6.982364058E-1,9.943664074E-1,4.925493598E-1
2.172084631E1,-9.621999860E-1,1.135895133E0,5.001415610E-1
2.174284788E1,-1.482814312E0,7.587120533E-1,4.253541827E-1
2.176484631E1,-2.254354477E0,7.062475085E-1,3.347716033E-1
2.178484631E1,-3.127246141E0,1.438447952E0,2.360557765E-1
2.180486663E1,-3.362673521E0,2.062106609E0,2.373647876E-3
2.182684631E1,-2.702537537E0,3.958232105E-1,-1.013512686E-1
2.184685256E1,-2.210808516E0,-5.460262299E-1,-1.557880938E-1
2.186884631E1,-1.745992422E0,-4.967381656E-1,-6.523691416E-1
2.188884631E1,-8.957029581E-1,-5.846678615E-1,-1.471330047E0
2.190884631E1,-4.106759652E-2,-6.451435089E-1,-2.032540560E0
2.193084631E1,6.368706226E-1,-6.540970206E-1,-2.493115664E0
2.195084944E1,8.470606208E-1,-8.829445839E-1,-2.723621130E0
2.197284631E1,6.672917008E-1,-8.760854602E-1,-2.724144697E0
2.199284631E1,2.317797244E-1,-9.158964157E-1,-2.356089830E0
2.201285256E1,-1.536587924E-1,-7.188836336E-1,-1.705762625E0
2.203484631E1,-3.468841910E-1,2.128428966E-1,-7.963762879E-1
2.205484631E1,-4.054574370E-1,1.164972425E0,1.083849464E-2
2.207484631E1,-3.898018301E-1,1.866769314E0,5.407727957E-1
2.209484631E1,-2.973168492E-1,1.820692539E0,7.733728290E-1
2.211484631E1,-2.277131081E-1,1.519396424E0,7.682415843E-1
2.213484631E1,-1.797165573E-1,1.311737061E0,7.123386860E-1
2.215484631E1,-4.860742018E-2,1.224296093E0,6.939254403E-1
2.217484631E1,1.415112913E-1,1.042834282E0,6.564707160E-1
2.219484631E1,3.045250475E-1,9.491100311E-1,6.484770775E-1
2.221486038E1,4.275358617E-1,8.048062325E-1,7.323750854E-1
2.223684788E1,4.764050841E-1,7.636688352E-1,7.936535478E-1
2.225684788E1,4.206592441E-1,7.211526036E-1,6.613401771E-1
2.227686506E1,2.479240149E-1,5.430591702E-1,3.249628544E-1
2.229884631E1,1.570796371E-1,6.176720262E-1,1.478817463E-1
2.231884631E1,2.439621240E-1,9.581683278E-1,2.954318821E-1
2.233884631E1,2.140122652E-1,7.438418865E-1,4.040786326E-1
2.235884631E1,-4.944517836E-2,1.228188202E-1,3.141418099E-1
2.237884631E1,-1.595405489E-1,-2.022487521E-1,2.753431499E-1
2.239884631E1,5.235987715E-3,-3.645818233E-1,3.422067165E-1
2.241884631E1,4.860742018E-2,-4.386535883E-1,4.579744041E-1
2.243884631E1,-5.574581772E-2,-4.472231567E-1,5.311909318E-1
2.245884631E1,-6.073745899E-3,-4.637514353E-1,4.362101257E-1
2.247884631E1,2.343104482E-1,-3.135833144E-1,3.470761776E-1
2.250084631E1,4.782725871E-1,-2.357939817E-2,3.104417026E-1
2.252084631E1,4.325973094E-1,2.012015581E-1,2.845933735E-1
2.254284631E1,2.845933735E-1,3.295356035E-1,3.450515866E-1
2.256284631E1,2.091951668E-1,2.447824329E-1,4.372049868E-1
2.258284631E1,2.539454103E-1,6.785839796E-2,4.629660249E-1
2.260284631E1,2.358637899E-1,-1.457524449E-1,3.175801039E-1
2.262284944E1,1.122246683E-1,-3.726452589E-1,1.711120754E-1
2.264285256E1,2.117084339E-2,-4.604702294E-1,1.055226028E-1
2.266484631E1,8.745844662E-2,-3.958406746E-1,1.607273668E-1
2.268684475E1,2.461088747E-1,-1.441816539E-1,1.839926094E-1
2.270684475E1,3.223797679E-1,-1.762782573E-3,2.374694943E-1
2.272684631E1,3.323805034E-1,7.567747682E-2,3.341083825E-1
2.274684631E1,3.159918487E-1,-1.813397110E-1,3.110525906E-1
2.276884631E1,3.532197475E-1,-6.098878384E-1,1.651605070E-1
2.279084631E1,4.338539541E-1,-8.316842914E-1,4.537856206E-3
2.281284631E1,3.567453027E-1,-7.889586091E-1,-7.695156336E-2
2.283285256E1,2.005732358E-1,-5.056393147E-1,-2.023709267E-1
2.285285569E1,-7.522369269E-3,-2.225992978E-1,-2.875778973E-1
2.287484631E1,-3.463954926E-1,-4.068886042E-1,-3.821572959E-1
2.289484631E1,-6.112142801E-1,-6.506587267E-1,-5.579817891E-1
2.291484631E1,-5.706179142E-1,-4.191059172E-1,-5.570218563E-1
2.293484631E1,-2.831273079E-1,-1.036201939E-1,-3.983016014E-1
2.295484631E1,-5.895722285E-2,1.307251584E-2,-1.638340503E-1
2.297484631E1,1.087340154E-2,2.279400080E-2,6.489133835E-2
2.299484631E1,6.511823088E-2,4.002039880E-2,2.709798217E-1
2.301484631E1,8.443903178E-2,9.075712413E-3,2.531251013E-1
2.303484631E1,1.778490469E-2,5.359905958E-2,-4.188789986E-3
2.305484631E1,-1.203055456E-1,1.659633517E-1,-2.509957850E-1
2.307484631E1,-2.119004279E-1,2.283414304E-1,-3.954916000E-1
2.309484631E1,-2.466324717E-1,2.792526782E-1,-4.787438214E-1
2.311684631E1,-3.378957510E-1,2.860943675E-1,-5.239303708E-1
2.313884475E1,-5.091649294E-1,1.375842988E-1,-4.685336351E-1
2.315884631E1,-4.908738434E-1,7.958701812E-3,-2.458994389E-1
2.317884631E1,-2.763903439E-1,2.122320421E-2,4.839798063E-2
2.319884631E1,-1.245990545E-1,2.930407785E-2,2.818183005E-1
2.322084631E1,-1.508662552E-1,-8.018042892E-2,3.443534672E-1
2.324285100E1,-2.236290425E-1,-1.087863743E-1,2.303660065E-1
2.326484788E1,-2.853613198E-1,7.602654397E-2,6.885323673E-2
2.328684631E1,-4.785169065E-1,2.878746092E-1,6.019640714E-2
2.330684631E1,-6.648308039E-1,2.250078470E-1,1.595754474E-1
2.332684631E1,-7.831816077E-1,1.644798219E-1,8.738863468E-2
2.334685256E1,-8.845503330E-1,1.816887707E-1,-1.084024012E-1
2.336685569E1,-9.062796831E-1,6.768386811E-2,-2.209412307E-1
2.338884631E1,-9.171705246E-1,-3.152937293E-1,-3.525914252E-1
2.340884631E1,-8.826130033E-1,-9.101542830E-1,-4.297000468E-1
2.342884631E1,-5.514542460E-1,-6.068160534E-1,2.679080330E-2
2.344884631E1,-1.241976321E-1,6.652147770E-1,8.838871121E-1
2.346884631E1,1.361182332E-1,1.370624542E0,1.483076096E0
2.348885256E1,2.206794322E-1,8.100596666E-1,1.427557111E0
2.351084631E1,2.541897595E-1,1.932079531E-2,1.013407946E0
2.353084631E1,3.374768496E-1,-2.677509487E-1,4.466471970E-1
2.355085881E1,3.902556300E-1,-1.372003257E-1,2.834589183E-1
2.357284631E1,4.681671262E-1,8.791223168E-2,2.328094691E-1
2.359286350E1,5.139471292E-1,2.804045975E-1,1.636420637E-1
2.361484631E1,4.665614069E-1,2.735978067E-1,1.743583940E-2
2.363484631E1,4.087037444E-1,1.876228862E-2,-2.813470736E-2
2.365484631E1,4.112868309E-1,-2.672971785E-1,2.516764775E-2
2.367484788E1,4.303109348E-1,-2.887647152E-1,1.154884398E-1
2.369684475E1,4.588819742E-1,-1.793500334E-1,2.736850679E-1
2.371684631E1,4.709945619E-1,5.949827284E-2,4.444131851E-1
2.373684788E1,4.946263134E-1,2.466848344E-1,6.540097594E-1
2.375884631E1,5.030388236E-1,3.620336354E-1,6.101670861E-1
2.377884631E1,4.673468173E-1,3.646516502E-1,3.683691919E-1
2.379884631E1,4.044102430E-1,1.972047538E-1,1.477421224E-1
2.381884631E1,2.744704783E-1,-1.208989546E-1,-6.408849359E-2
2.383884631E1,1.174082980E-1,-3.767991364E-1,-2.071531266E-1
2.385884631E1,-9.302604944E-2,-2.476447672E-1,-1.944471300E-1
2.387884631E1,-3.123266697E-1,1.144586951E-1,-1.481086463E-1
2.389884631E1,-5.186769366E-1,-4.333652556E-2,-3.460289836E-1
2.391884631E1,-7.715576887E-1,-7.750483751E-1,-7.539997101E-1
2.393884631E1,-8.001810908E-1,-1.019865632E0,-1.003669024E0
2.395884631E1,-4.727573395E-1,-5.832715631E-1,-8.411963582E-1
2.397884631E1,2.457423508E-2,-1.203229949E-1,-4.015828073E-1
2.399884631E1,3.635520935E-1,-1.262571216E-1,4.747295380E-2
2.401884631E1,4.005879760E-1,-4.915719926E-1,3.390476704E-1
2.403884631E1,4.426504076E-1,-7.936012149E-1,3.852116168E-1
2.405884631E1,6.482676268E-1,-7.536157370E-1,1.638340503E-1
2.408084631E1,7.338585854E-1,-2.402969301E-1,-2.136632055E-1
2.410284631E1,5.693264008E-1,2.713812590E-1,-3.982492387E-1
2.412284631E1,3.543018401E-1,4.852015376E-1,-3.159744143E-1
2.414285256E1,1.329591870E-1,3.230604529E-1,-1.833119243E-1
2.416484631E1,3.146828711E-2,-2.716779411E-1,-2.057568580E-1
2.418484631E1,8.019787818E-2,-6.651275158E-1,-2.405761778E-1
2.420486662E1,2.337344885E-1,-4.608192742E-1,-2.564412355E-1
2.422684631E1,3.420321643E-1,-2.122320421E-2,-2.733883858E-1
2.424684631E1,3.712838888E-1,3.194999695E-1,-1.884431988E-1
2.426684631E1,3.444232643E-1,4.039040804E-1,2.324778587E-2
2.428684631E1,3.615449667E-1,2.995159626E-1,2.707529366E-1
2.430684631E1,4.765621424E-1,3.551745117E-1,4.544837475E-1
2.432684631E1,7.212049365E-1,6.571513414E-1,5.302135944E-1
2.434684631E1,9.735795856E-1,6.415306926E-1,5.239827633E-1
2.436685569E1,1.103222609E0,4.736823440E-1,5.080304146E-1
2.438884631E1,1.117726326E0,6.787585616E-1,4.193328023E-1
2.440884631E1,9.513440728E-1,8.422435522E-1,3.569896519E-1
2.442884631E1,6.577098966E-1,8.140564561E-1,3.140196502E-1
2.444884631E1,4.143062532E-1,9.008691311E-1,3.237934709E-1
2.446884631E1,3.181560636E-1,1.089312315E0,4.472755194E-1
2.448884631E1,2.246936858E-1,8.890358210E-1,5.397430658E-1
2.451084631E1,-1.508488059E-1,-2.214822769E-1,3.496417999E-1
2.453284631E1,-6.662445068E-1,-1.065104604E0,1.174432039E-1
2.455284788E1,-7.794814706E-1,-7.343472838E-1,1.001818944E-2
2.457484631E1,-6.794043183E-1,3.204424381E-1,1.535017043E-1
2.459484631E1,-6.952693462E-1,9.553059340E-1,4.531747401E-1
2.461484631E1,-6.943443418E-1,9.579588771E-1,6.217910051E-1
2.463484631E1,-4.721464813E-1,5.674239993E-1,6.946235895E-1
2.465684788E1,1.343903504E-2,1.821600199E-1,6.312506795E-1
2.467884631E1,3.231302500E-1,-5.283111706E-2,4.786216319E-1
2.469884631E1,2.797937393E-1,-1.731890142E-1,3.371278048E-1
2.472084631E1,6.525786221E-2,-2.660579979E-1,1.928937882E-1
2.474285412E1,9.215338156E-3,-1.968382299E-1,1.267807186E-1
2.476484631E1,1.244768798E-1,3.792600334E-2,1.473930478E-1
2.478484631E1,2.045525908E-1,1.153837144E-1,1.038470864E-1
2.480486663E1,1.823869050E-1,7.962191850E-2,4.768239334E-2
2.482684631E1,1.713040620E-1,-1.645321846E-1,-2.143264376E-2
2.484684631E1,1.819156706E-1,-5.682268143E-1,-1.007404029E-1
2.486684788E1,7.513642311E-2,-6.710441709E-1,-2.035053968E-1
2.488884631E1,-7.585200667E-2,-8.976228535E-2,-2.053030729E-1
2.490884631E1,-2.723411620E-1,1.566258520E-1,-2.716430426E-1
2.492884631E1,-6.659478545E-1,-2.410823256E-1,-5.279097557E-1
2.494884631E1,-1.004576564E0,-5.921552777E-1,-6.764197946E-1
2.497084475E1,-7.761130333E-1,-2.636668980E-1,-5.555208325E-1
2.499084475E1,-3.740414977E-1,4.797910154E-2,-3.392745554E-1
2.501084631E1,-4.258952439E-1,1.118232459E-1,-1.762433499E-1
2.503084631E1,-7.895520329E-1,-2.080432512E-2,-1.872738265E-2
2.505084631E1,-7.496887445E-1,-2.414662987E-1,1.382126212E-1
2.507084631E1,-2.641904950E-1,-3.182607889E-1,2.544341087E-1
2.509084631E1,1.376715750E-1,-1.470963508E-1,3.133389652E-1
2.511084631E1,1.955117881E-1,3.806563094E-2,3.144734204E-1
2.513284631E1,4.380776361E-2,1.806939393E-1,1.865931451E-1
2.515285725E1,-1.149299294E-1,2.683269083E-1,-6.911503617E-3
2.517484631E1,-2.177647352E-1,3.746174574E-1,-1.256986111E-1
2.519484631E1,-2.039766312E-1,5.098630190E-1,-1.139525473E-1
2.521486194E1,-9.670869261E-2,4.935791194E-1,4.363323096E-3
2.523684944E1,3.497639671E-2,2.782752812E-1,1.469218135E-1
2.525884631E1,8.765043318E-2,2.007128671E-3,2.544515431E-1
2.527884631E1,8.482300490E-2,6.422811747E-2,3.703239560E-1
2.529884631E1,9.765116870E-2,3.997153044E-1,5.206317306E-1
2.531884631E1,6.853908300E-2,6.862809062E-1,5.475795865E-1
2.533884631E1,-1.692969352E-3,6.617241502E-1,5.072450638E-1
2.535884788E1,-1.157676876E-1,2.307325304E-1,4.508883655E-1
2.538084631E1,-1.384046078E-1,-3.070906699E-1,3.611609936E-1
2.540084631E1,-1.451415867E-1,-3.338465691E-1,3.533593714E-1
2.542286194E1,-1.651605070E-1,5.389576778E-2,3.426255882E-1
2.544484631E1,-3.586477041E-1,1.312487572E-1,2.321636975E-1
2.546484631E1,-5.321857929E-1,-7.723081857E-2,1.622632593E-1
2.548484631E1,-4.671373665E-1,-2.189341038E-1,1.537111402E-1
2.550486663E1,-2.898642719E-1,-5.090078115E-1,9.325294197E-2
2.552684631E1,-3.586826026E-1,-9.754819870E-1,-5.363396928E-2
2.554684631E1,-5.372647047E-1,-1.039640307E0,-1.007404029E-1
2.556684631E1,-5.498484969E-1,-7.113962173E-1,3.741985932E-2
2.558684631E1,-2.864259779E-1,-1.071632132E-1,2.994635999E-1
2.560684631E1,7.305948436E-2,3.873409331E-1,5.570741892E-1
2.562684631E1,2.856405973E-1,4.928111732E-1,6.988298297E-1
2.564684944E1,4.123863876E-1,4.088608325E-1,6.849370003E-1
2.566884631E1,5.583482981E-1,2.416233867E-1,5.624323487E-1
2.568884631E1,6.530149579E-1,4.776966199E-2,4.221951365E-1
2.570884631E1,6.658082008E-1,-8.122762293E-2,2.882934809E-1
2.573084631E1,5.595700145E-1,-2.069262415E-1,1.004611477E-1
2.575084631E1,3.885975480E-1,-2.937912643E-1,-7.309439033E-2
2.577284631E1,1.986882836E-1,-1.584409922E-1,-1.050164625E-1
2.579284631E1,1.626995951E-1,2.247984149E-2,-5.782275647E-2
2.581284631E1,1.880592257E-1,1.259778589E-1,-8.016297221E-2
2.583284944E1,1.987755448E-1,7.431612164E-2,-1.651605070E-1
2.585285569E1,2.143438905E-1,6.352998316E-3,-2.645395398E-1
2.587286194E1,2.283588797E-1,-6.192428246E-2,-3.040712476E-1
2.589484631E1,1.421570629E-1,-2.359685153E-1,-3.023608327E-1
2.591484631E1,-7.539822254E-3,-2.999173701E-1,-2.371204346E-1
2.593484631E1,-5.478588492E-2,2.052507177E-2,-1.106713265E-1
2.595484631E1,4.654793069E-2,2.883807421E-1,-1.264316440E-1
2.597484631E1,5.703736097E-2,1.017701477E-1,-3.279124498E-1
2.599484631E1,-2.672797143E-1,-5.218883753E-1,-7.060380578E-1
2.601484631E1,-6.207438111E-1,-1.004402041E0,-9.213418365E-1
2.603684631E1,-8.185070753E-1,-8.673413396E-1,-7.245559692E-1
2.605884631E1,-8.299214840E-1,-4.808382094E-1,-3.604628444E-1
2.608084631E1,-8.551240563E-1,-2.214822769E-1,-2.116735280E-1
2.610284631E1,-9.096830487E-1,-4.347440600E-1,-2.820452154E-1
2.612285881E1,-7.970045805E-1,-6.740984917E-1,-2.993239760E-1
2.614484631E1,-4.502949417E-1,-5.482602715E-1,-2.615201473E-1
2.616484631E1,-1.656317525E-2,-1.195201501E-1,-2.313433886E-1
2.618484631E1,3.833266497E-1,3.888593614E-1,-2.551671267E-1
2.620486819E1,6.318266392E-1,7.142061591E-1,-2.872637510E-1
2.622684475E1,7.300537825E-1,7.676481605E-1,-3.663271666E-1
2.624684631E1,7.186218500E-1,7.715576887E-1,-4.960749447E-1
2.626684631E1,5.180661082E-1,7.332302928E-1,-6.876248121E-1
2.628684631E1,1.988453567E-1,8.997870684E-1,-8.673588037E-1
2.630684631E1,-1.062381938E-1,1.066064596E0,-1.030424953E0
2.632684631E1,-4.305203557E-1,1.283043861E0,-1.077287078E0
2.634684631E1,-7.267202139E-1,1.348563552E0,-9.443103671E-1
2.636884475E1,-8.394510150E-1,1.158217907E0,-4.405036569E-1
2.638884631E1,-7.772823572E-1,1.037214279E0,8.491026610E-2
2.640884631E1,-6.236236095E-1,6.916565299E-1,-5.393067375E-3
2.643084631E1,-4.998797476E-1,9.442231618E-3,-2.011491954E-1
2.645084631E1,-2.595828176E-1,-4.036422968E-1,-1.806241274E-1
2.647084631E1,1.055400595E-1,-1.353851855E-1,4.021238536E-2
2.649284631E1,2.744530141E-1,3.556108475E-1,9.464920312E-2
2.651285569E1,1.973618269E-1,2.505594790E-1,-8.552113175E-2
2.653285725E1,5.892231688E-2,-1.777268797E-1,-2.761110961E-1
2.655484631E1,-1.926843449E-2,-3.593981862E-1,-1.852317899E-1
2.657484631E1,3.947934881E-2,-8.246680349E-2,1.101302728E-2
2.659484631E1,1.778315902E-1,2.809805572E-1,2.405063622E-2
2.661484631E1,2.105739713E-1,2.301565707E-1,-1.559626162E-1
2.663484631E1,1.336747706E-1,-1.378810126E-2,-2.013760954E-1
2.665484631E1,1.138129234E-1,-2.422342449E-1,4.621632025E-2
2.667484631E1,7.155850180E-4,-5.258677006E-1,2.031563222E-1
2.669484631E1,-2.044827789E-1,-2.091602534E-1,2.830051482E-1
2.671486194E1,-4.243942499E-1,2.465626597E-1,5.304579139E-1
2.673684631E1,-5.390100479E-1,4.464377761E-1,8.943415880E-1
2.675686975E1,-3.227113783E-1,2.794272006E-1,1.015519857E0
2.677884788E1,-8.056439459E-2,-1.702394187E-1,9.063494802E-1
2.680084631E1,-2.139773592E-2,-8.590161204E-1,5.002113581E-1
2.682284631E1,-2.558303475E-1,-1.379665375E0,1.277581044E-2
2.684285100E1,-7.458838820E-1,-1.773167253E0,-3.174404800E-1
2.686484631E1,-1.321685433E0,-1.040146470E0,-4.242022634E-1
2.688484631E1,-1.548595786E0,-6.413387060E-1,-4.428249300E-1
2.690486819E1,-1.628444552E0,-7.078182697E-1,-5.709495544E-1
2.692684475E1,-1.620241523E0,-1.146454453E0,-7.226535678E-1
2.694684631E1,-1.432705879E0,-1.563361168E0,-8.758934736E-1
2.696684631E1,-8.481427431E-1,-1.171377778E0,-8.634842038E-1
2.698684631E1,-8.576548100E-2,-4.103967249E-1,-7.818551660E-1
2.700684631E1,4.836307466E-1,6.863856316E-1,-4.339237511E-1
2.702684631E1,7.692189813E-1,1.051735401E0,-1.128006279E-1
2.704684631E1,8.497484326E-1,1.239881888E-1,-8.751080930E-2
2.706684631E1,6.954787970E-1,-8.367981315E-1,-2.793050408E-1
2.708684631E1,5.535311699E-1,-1.607291102E0,-5.438445807E-1
2.710684631E1,4.491430223E-1,-2.244999647E0,-7.963588238E-1
2.712884631E1,4.043578804E-1,-2.485610723E0,-9.911899567E-1
2.714884631E1,2.977880836E-1,-1.587411880E0,-8.177914619E-1
2.716884631E1,2.878746092E-1,-3.464129567E-1,-4.629136622E-1
2.718884631E1,5.052204728E-1,1.186387539E0,-3.771831095E-1
2.720884631E1,2.322858721E-1,2.623927891E-1,-1.886875480E-1
2.723084631E1,-6.681120396E-2,2.737374306E-1,1.291543595E-3
2.725085100E1,-2.432988957E-2,5.797110796E-1,4.813618213E-2
2.727285100E1,3.686833382E-1,8.143008351E-1,6.375687569E-2
2.729285100E1,7.906166911E-1,9.844354987E-1,1.577428579E-1
2.731484631E1,1.213771820E0,6.536432505E-1,2.808060348E-1
2.733486662E1,1.465081692E0,3.111398518E-1,4.532968998E-1
2.735684631E1,1.284195781E0,-3.368485346E-2,5.303357244E-1
2.737684631E1,8.248077035E-1,-1.479864717E-1,4.019667804E-1
2.739884631E1,4.151789248E-1,3.109827638E-1,3.229208291E-1
2.741884631E1,3.227812052E-1,9.269792438E-1,4.550073445E-1
2.744084631E1,1.774825305E-1,9.779603481E-1,6.003758311E-1
2.746285100E1,3.119077981E-1,7.248876095E-1,5.164778233E-1
2.748484944E1,6.625968218E-1,3.894004226E-1,2.400351316E-1
2.750486663E1,8.519475460E-1,3.876201808E-1,9.161233157E-2
2.752684631E1,8.019438982E-1,4.644844830E-1,2.634923458E-1
2.754684631E1,5.539674759E-1,3.409675360E-1,3.611086309E-1
2.756685256E1,3.343352675E-1,3.115587234E-1,3.514045775E-1
2.758884631E1,2.450093180E-1,1.939060837E-1,3.884753883E-1
2.760884788E1,-4.363323096E-4,-1.153837144E-1,2.131396085E-1
2.763084631E1,-5.670749545E-1,-6.499431729E-1,3.040363453E-2
2.765084631E1,-1.023077130E0,-9.939301014E-1,-1.504299343E-1
2.767284788E1,-1.126435518E0,-7.963762879E-1,-1.233075112E-1
2.769484631E1,-8.493993878E-1,-8.829620481E-2,1.888271719E-1
2.771486194E1,-5.451361537E-1,4.248131514E-1,4.466297626E-1
2.773684631E1,-3.491705656E-1,4.761956334E-1,5.320636034E-1
2.775684788E1,-1.972396523E-1,2.077290863E-1,4.353723824E-1
2.777884788E1,1.848478168E-1,-1.014385372E-1,2.794795632E-1
2.780084631E1,6.173578501E-1,-4.538728595E-1,1.709026396E-1
2.782284631E1,9.908757806E-1,-5.223944783E-1,1.500110477E-1
2.784284944E1,1.151707888E0,-5.881410241E-1,7.201228291E-2
2.786484631E1,1.021837950E0,-3.957184851E-1,5.304055661E-2
2.788484631E1,6.697351933E-1,-6.429792941E-2,1.607448235E-2
2.790486662E1,3.836582601E-1,3.319616318E-1,-1.736602560E-2
2.792684631E1,6.810274720E-2,5.116956234E-1,-3.544763848E-2
2.794684631E1,4.878195375E-2,4.546582699E-1,1.126086414E-1
2.796684631E1,2.195100635E-1,1.047546640E-1,1.020843089E-1
2.798884631E1,3.722612858E-1,-4.968952388E-2,-1.762782484E-1
2.800884631E1,4.050734639E-1,1.644100100E-1,-4.627042413E-1
2.803084631E1,3.084520400E-1,2.652551532E-1,-3.820176721E-1
2.805084631E1,9.162978269E-3,1.938188076E-1,-3.637091517E-1
2.807287131E1,-2.766172290E-1,2.862340026E-2,-4.911705554E-1
2.809484631E1,-2.616423070E-1,-7.972663641E-2,-4.614301324E-1
2.811485256E1,-2.991843522E-1,-2.194053382E-1,-5.292012691E-1
2.813684631E1,-5.783846378E-1,-7.605271935E-1,-6.863158345E-1
2.815685256E1,-7.838622928E-1,-8.340579271E-1,-4.986754656E-1
2.817884475E1,-9.485515356E-1,-9.240645766E-1,-3.275983036E-1
2.819884944E1,-1.095368624E0,-9.572083950E-1,-3.582811952E-1
2.822084631E1,-9.840340614E-1,-7.539124489E-1,-3.611435294E-1
2.824285412E1,-5.913524628E-1,-2.327396572E-1,-3.180164397E-1
2.826485100E1,-1.417032778E-1,5.024977326E-1,-1.424712241E-1
2.828684631E1,1.271297783E-1,1.142824173E0,4.930555075E-2
2.830684631E1,1.323483139E-1,1.394710064E0,1.346696019E-1
2.832684631E1,3.296926990E-2,1.127273202E0,5.759586580E-3
2.834685100E1,3.473205259E-3,6.457369328E-1,-1.860869974E-1
2.836884475E1,-6.935938448E-2,-8.766963482E-1,-4.175351262E-1
2.838885256E1,1.627694070E-1,-1.024403572E0,-4.058588743E-1
2.841084631E1,7.033851147E-1,-7.305773497E-1,-3.810228407E-1
2.843084631E1,1.236216664E0,-4.583409131E-1,-4.404687285E-1
2.845084631E1,1.060078025E0,-7.227582932E-1,-4.114962816E-1
2.847084788E1,4.261744916E-1,-4.541346729E-1,-4.199262336E-2
2.849084788E1,-8.702211827E-2,-2.597049996E-2,1.131671518E-1
2.851286819E1,-1.887573600E-1,3.688927889E-1,1.924749166E-1
2.853484788E1,-3.871140257E-2,6.103416085E-1,3.134611249E-1
2.855486350E1,1.064127237E-1,8.567472100E-1,5.853310823E-1
2.857684631E1,1.498016119E-1,7.307868004E-1,8.022929430E-1
2.859685100E1,1.579348445E-1,6.861587167E-1,6.621255279E-1
2.861884631E1,1.015956178E-1,5.314701796E-1,4.624598920E-1
2.863884631E1,-2.462659590E-2,3.190636337E-1,4.711341858E-1
2.865885256E1,-3.027448058E-1,-1.279151738E-1,2.837556303E-1
2.868084631E1,-6.525262594E-1,-3.498163521E-1,-4.703662172E-2
2.870084631E1,-8.033226728E-1,-6.908536553E-1,-4.054399952E-2
2.872085256E1,-5.487489700E-1,-6.220004559E-1,1.873785406E-1
2.874285100E1,-1.422443334E-2,-1.921083927E-1,3.145606816E-1
2.876484631E1,4.599466026E-1,-6.183701381E-2,2.108532190E-1
2.878484631E1,8.323475122E-1,-3.506017327E-1,1.670280099E-2
2.880486819E1,1.148077607E0,-6.991614699E-1,-1.520181727E-2
2.882684475E1,1.449827552E0,-7.167194486E-1,1.203229949E-1
2.884684788E1,1.498626947E0,-4.521100819E-1,2.815565169E-1
2.886884475E1,1.305209517E0,-6.517408490E-1,1.227490082E-1
2.888884631E1,1.103798628E0,-4.760036469E-1,-1.048942842E-2
2.890884631E1,8.364315629E-1,-1.553692073E-1,9.180431813E-2
2.892885256E1,6.192079186E-1,3.544763848E-2,8.114035428E-2
2.895084631E1,3.883706629E-1,1.770811081E-1,6.150540337E-2
2.897085413E1,2.875429988E-1,1.776221544E-1,2.792526735E-3
2.899285412E1,3.021164834E-1,-2.532472648E-2,-1.155931577E-1
2.901484631E1,2.108881325E-1,-7.752752304E-2,-2.326174825E-1
2.903484631E1,3.345796093E-2,2.152863592E-1,-2.311339527E-1
2.905484631E1,-4.057890549E-2,3.208264112E-1,-1.869073063E-1
2.907484788E1,-1.405164599E-1,2.598969638E-1,-1.707281023E-1
2.909485412E1,-2.049016505E-1,3.925943673E-1,-1.793500334E-1
2.911684631E1,-1.769938320E-1,3.856654167E-1,-1.928239763E-1
2.913685100E1,-3.466398418E-1,-4.424584210E-1,-4.613428712E-1
2.915884631E1,-8.918457627E-1,-9.894096851E-1,-8.481078148E-1
2.917884788E1,-1.342437387E0,-7.928681970E-1,-7.773696184E-1
2.919884788E1,-1.384779096E0,-4.275532961E-1,-4.425282180E-1
2.921885256E1,-1.092558622E0,-4.115486518E-2,-5.235987902E-2
2.924084631E1,-6.595599055E-1,1.520530879E-1,3.785619140E-2
2.926085412E1,-3.932226896E-1,1.415287554E-1,-1.342681795E-1
2.928284788E1,-1.740093231E-1,3.001966281E-3,-3.012961745E-1
2.930285413E1,-9.372417815E-3,6.277949363E-2,-2.940356135E-1
2.932484631E1,1.391027402E-2,1.237438470E-1,-2.623229921E-1
2.934484944E1,-5.194099993E-2,1.464680284E-1,-2.840348780E-1
2.936684631E1,-5.967280641E-2,5.096361507E-3,-3.689276874E-1
2.938684631E1,8.929104358E-2,-6.052801758E-2,-3.571641743E-1
2.940684631E1,3.328692019E-1,5.288347602E-2,-2.289522886E-1
2.942685100E1,5.091474652E-1,1.899616420E-1,-6.173229590E-2
2.944884631E1,6.235537529E-1,2.409776151E-1,-5.157447979E-2
2.946885256E1,7.099301219E-1,2.942101657E-1,-7.059856504E-2
2.949084631E1,6.884102225E-1,3.363772929E-1,-1.388409436E-1
2.951084631E1,6.071302295E-1,4.411668777E-1,-2.053903490E-1
2.953084631E1,5.166174769E-1,6.139195561E-1,-1.206197068E-1
2.955085412E1,3.641105890E-1,6.982713342E-1,4.682718217E-2
2.957284631E1,7.103490084E-2,3.394141793E-1,3.972369432E-2
2.959286506E1,-8.585274220E-2,-3.933972120E-2,-1.679530293E-1
2.961484631E1,6.695082784E-2,1.909390278E-2,-1.419999897E-1
2.963485100E1,2.081654221E-1,5.883504823E-2,4.878195375E-2
2.965684475E1,-4.105014354E-2,-2.358812541E-1,9.800023586E-2
2.967684631E1,-5.326570272E-1,-5.722759962E-1,-6.808529049E-2
2.969884788E1,-9.313251376E-1,-4.865279794E-1,-2.358463407E-1
2.971884788E1,-9.078329802E-1,-2.659881711E-1,-1.337445825E-1
2.974084631E1,-5.856626630E-1,2.246238664E-2,2.088635564E-1
2.976084788E1,-2.292140871E-1,1.627694070E-1,5.253266692E-1
2.978084788E1,6.850416958E-2,1.992293298E-1,5.967280865E-1
2.980085256E1,2.345897108E-1,1.603783071E-1,4.394738972E-1
2.982284788E1,2.995857596E-1,1.206546128E-1,1.807637513E-1
2.984285413E1,3.333927989E-1,4.276056774E-3,2.734931000E-2
2.986484631E1,3.320837915E-1,-1.164483652E-1,2.042035200E-2
2.988484631E1,2.898817360E-1,-2.769139409E-1,2.090904489E-2
2.990486819E1,2.858674824E-1,-2.811201811E-1,-1.911135577E-2
2.992684788E1,3.067416251E-1,-1.535017043E-1,-8.313003182E-2
2.994684944E1,3.328866363E-1,-1.918116771E-2,-1.185427606E-1
2.996884631E1,2.746275663E-1,1.600117832E-1,-1.161516607E-1
2.998884631E1,2.027025372E-1,1.625076085E-1,-1.425933987E-1
3.000884631E1,1.163436472E-1,-5.839871615E-2,-2.657961845E-1
3.002884631E1,-3.796090931E-2,-3.713013530E-1,-4.658981860E-1
3.004885413E1,-3.415434659E-1,-1.131322384E-1,-6.119822264E-1
3.007084631E1,-4.346567988E-1,9.900729060E-1,-4.100825489E-1
3.009084631E1,-4.390201271E-1,1.290304422E0,-1.392249167E-1
3.011084631E1,-6.011786461E-1,7.720289230E-1,-2.494599074E-1
3.013084631E1,-6.349158883E-1,2.200336605E-1,-4.693190455E-1
3.015084631E1,-5.123413801E-1,-3.693291247E-1,-6.735051274E-1
3.017084631E1,-2.681000233E-1,-8.949350119E-1,-7.443654537E-1
3.019084944E1,2.176250964E-1,-9.047961235E-1,-5.166523457E-1
3.021284631E1,7.956606746E-1,-5.564458966E-1,5.235987902E-2
3.023284788E1,9.891304374E-1,-2.993239649E-2,4.650604427E-1
3.025284788E1,7.719940543E-1,4.545186460E-1,4.239230156E-1
3.027285256E1,3.412642181E-1,7.597418427E-1,1.309869587E-1
3.029285569E1,-1.808161102E-2,1.048960328E0,-5.689773336E-2
3.031286662E1,-3.358711600E-1,1.352647662E0,-4.555309191E-2
3.033485725E1,-6.141464710E-1,1.403785825E0,-4.520402756E-3
3.035685412E1,-8.677777052E-1,1.166229010E0,-1.190314535E-2
3.037884631E1,-9.989566207E-1,5.205968022E-1,-5.665338784E-2
3.039884944E1,-9.156346321E-1,-6.051056460E-2,1.553343027E-3
3.042084631E1,-6.114935279E-1,-2.327222079E-1,1.925447285E-1
3.044084631E1,-1.680752039E-1,1.251401007E-1,4.124387503E-1
3.046084631E1,2.575756907E-1,7.467042208E-1,7.303155661E-1
3.048084631E1,3.906396031E-1,8.588067293E-1,8.504989147E-1
3.050084788E1,2.450616807E-1,7.743152976E-1,6.630505919E-1
3.052084788E1,-1.356120780E-2,4.587074220E-1,4.113217294E-1
3.054285256E1,-3.335324228E-1,1.419127136E-1,2.985385656E-1
3.056287288E1,-5.777388811E-1,-1.688955128E-1,-1.455430090E-1
3.058484788E1,-6.719343066E-1,-3.046472073E-1,-6.145129800E-1
3.060486819E1,-7.595847249E-1,-9.596867561E-1,-6.458067298E-1
3.062684788E1,-5.536882281E-1,-1.611287951E0,-3.629412055E-1
3.064685100E1,-4.810127243E-2,-1.521647811E0,-2.053030729E-1
3.066685100E1,2.507863641E-1,-1.028976321E0,-1.196946800E-1
3.068884788E1,1.246863231E-1,-1.552993953E-1,7.002261281E-2
3.071084631E1,-1.664346009E-1,5.875650644E-1,5.211552978E-2
3.073084631E1,-6.062400937E-1,2.845410407E-1,2.797762863E-2
3.075084631E1,-7.160911560E-1,1.125301003E0,3.699748814E-1
3.077085256E1,-6.178465486E-1,1.261855602E0,5.651550889E-1
3.079285256E1,-1.151219159E-1,7.829546928E-1,7.190232873E-1
3.081287913E1,4.285655916E-1,-5.113814492E-3,8.345990181E-1
3.083484631E1,6.903998852E-1,-6.069905758E-1,7.295476198E-1
3.085484788E1,4.464377761E-1,-9.090372920E-1,4.427900314E-1
3.087684788E1,-5.206317082E-2,-1.268557668E0,6.377433240E-2
3.089884631E1,-5.101248026E-1,-1.372300029E0,-1.968033314E-1
3.091884631E1,-7.121816278E-1,-1.036463737E0,-2.013760954E-1
3.093884631E1,-6.167818904E-1,-6.590886712E-1,-4.342379048E-2
3.095884631E1,-2.823069990E-1,-6.251420379E-1,4.125958309E-2
3.097884944E1,2.546086311E-1,-5.411742330E-1,3.740240633E-2
3.100084631E1,9.243787527E-1,-1.250877529E-1,2.295806110E-1
3.102085413E1,1.283026457E0,3.048391938E-1,2.039766312E-1
3.104285100E1,7.516086102E-1,-2.844712138E-1,7.004006207E-2
3.106486038E1,2.079385221E-1,3.156078756E-1,1.381602585E-1
3.108685100E1,-8.726646047E-5,6.776764393E-1,2.367364615E-1
3.110884631E1,-4.745550081E-2,3.591887653E-1,-4.904375412E-3
3.112885100E1,-4.302236438E-2,2.062804699E-1,-4.205370843E-1
3.115084788E1,1.075122785E-2,2.328269184E-2,-4.278151095E-1
3.117284788E1,-1.151219159E-1,-2.909289300E-1,-1.887224466E-1
3.119286506E1,-3.176673651E-1,-3.558377326E-1,-1.151917269E-3
3.121486194E1,-5.001066327E-1,-1.265014708E-1,2.128778100E-1
3.123685569E1,-6.109699607E-1,1.082104165E-3,2.551147640E-1
3.125884788E1,-7.012558579E-1,-1.342332661E-1,1.264316440E-1
3.128084631E1,-5.547180176E-1,-3.732910156E-1,2.420771681E-2
3.130084631E1,-3.596599996E-1,-1.816538721E-1,4.623377323E-2
3.132084631E1,-4.286354184E-1,-3.608642817E-1,1.604481190E-1
3.134084631E1,-3.276332021E-1,-3.653672338E-1,3.311762214E-1
3.136085256E1,-7.089527696E-2,-4.103618264E-1,3.002839088E-1
3.138284631E1,1.236391217E-1,-4.299443960E-1,8.747590333E-2
3.140285412E1,1.707630157E-1,-3.030240536E-1,-8.335692436E-2
3.142484788E1,9.311331809E-2,-1.977632642E-1,-1.021715775E-1
3.144484788E1,4.754276946E-2,9.251990169E-2,1.609717160E-1
3.146484788E1,1.244943365E-1,5.116606951E-1,4.413762987E-1
3.148484944E1,2.844886780E-1,6.714805365E-1,6.678153276E-1
3.150486819E1,5.522570610E-1,8.432907462E-1,7.627089024E-1
3.152684631E1,7.139793038E-1,6.192427874E-1,5.041208863E-1
3.154684631E1,5.498310924E-1,-1.396787018E-1,3.337069452E-1
3.156684631E1,4.330860078E-1,6.754423957E-3,2.304183692E-1
3.158684631E1,2.818532288E-1,7.767063975E-1,4.163133800E-1
3.160684631E1,-9.616763890E-2,8.160287142E-1,5.906892419E-1
3.162684631E1,-3.045599461E-1,3.219259679E-1,3.897843659E-1
3.164686819E1,-3.860668465E-2,1.088212803E-1,2.064200938E-1
3.166884944E1,3.501304984E-1,6.319836974E-1,2.115164548E-1
3.169084788E1,1.460666060E-1,7.310137153E-1,2.332283407E-1
3.171084788E1,-4.572238922E-1,3.340036571E-1,1.335351467E-1
3.173084788E1,-1.051386356E0,-3.404090106E-1,-3.686135262E-2
3.175084788E1,-1.127901554E0,-7.456918955E-1,-8.904670179E-2
3.177084788E1,-7.073295712E-1,-8.775340915E-1,1.987930015E-2
3.179084788E1,-1.639562249E-1,-4.716228545E-1,2.226167470E-1
3.181084788E1,1.370083448E-2,-1.095892265E-1,4.351629317E-1
3.183284788E1,-2.837905288E-2,1.896300167E-1,4.411668777E-1
3.185285725E1,-8.452629298E-2,-2.617993741E-4,2.799857259E-1
3.187485100E1,-6.632251316E-4,-2.077290863E-1,1.685988009E-1
3.189684788E1,8.606218547E-2,8.203047328E-4,1.718974710E-1
3.191685569E1,1.396437883E-1,4.647811875E-2,1.470963508E-1
3.193884788E1,2.003288865E-1,-1.930508614E-1,2.923426405E-2
3.195884788E1,3.162187636E-1,-5.273337960E-1,-8.868017793E-2
3.197885412E1,4.483227134E-1,-3.731164932E-1,-3.731513768E-2
3.199885569E1,4.833340347E-1,-1.555088311E-1,1.659808122E-2
3.202084631E1,3.755424917E-1,-4.079706967E-1,1.665044017E-2
3.204085412E1,4.071154892E-1,-4.038517475E-1,1.213003844E-1
3.206284631E1,4.326845706E-1,-4.162784815E-1,-1.474803220E-2
3.208285569E1,4.534365237E-1,1.438674927E-1,-1.346696019E-1
3.210486819E1,3.778114319E-1,4.626169801E-1,-5.218534265E-3
3.212684631E1,6.318091601E-2,3.776194453E-1,-3.146828711E-2
3.214684631E1,-1.494874507E-1,4.101523757E-2,-1.983915716E-1
3.216684631E1,-1.146506816E-1,3.754203022E-2,-2.394242734E-1
3.218684631E1,-6.928957067E-3,-7.202973962E-2,-2.988178134E-1
3.220684631E1,-4.066617228E-3,-1.053131670E-1,-4.276580215E-1
3.222684631E1,-1.417381912E-1,-4.539601505E-2,-4.818330407E-1
3.224684788E1,-3.622779846E-1,9.597565234E-2,-4.375714958E-1
3.226686038E1,-4.479736686E-1,-8.953538723E-3,-2.243271619E-1
3.228884788E1,-3.118379712E-1,-2.277829200E-1,3.909537569E-3
3.230884788E1,-1.387711316E-1,-3.163409233E-1,3.522074595E-2
3.232884788E1,1.066396199E-2,-3.360806108E-1,-1.101651788E-1
3.234884788E1,1.573588848E-1,-3.858399391E-1,-2.686410844E-1
3.236884788E1,3.170565069E-1,-3.724881709E-1,-2.689028680E-1
3.238884788E1,4.548502564E-1,-2.548355162E-1,-1.807463020E-1
3.240884788E1,5.921727419E-1,2.410299703E-2,-6.901031733E-2
3.242884788E1,5.364618301E-1,6.616543233E-2,-3.296926990E-2
3.244884788E1,3.818256855E-1,6.558947265E-2,-3.497639671E-2
3.246884788E1,2.945941091E-1,2.415535748E-1,4.747295380E-2
3.248884788E1,1.872563809E-1,4.094542265E-1,1.604132056E-1
3.250884788E1,1.426981241E-1,6.793693900E-1,1.659284532E-1
3.252884788E1,1.437627673E-1,8.788082004E-1,1.936093718E-1
3.254884788E1,1.675341576E-1,8.629082441E-1,1.578650326E-1
3.256884788E1,2.513797581E-1,5.300739408E-1,2.516764775E-2
3.259084788E1,4.603131413E-1,6.728593111E-1,6.180210784E-2
3.261084788E1,4.809080064E-1,7.718194723E-1,2.652900517E-1
3.263084788E1,4.003610611E-1,4.126830995E-1,3.310016990E-1
3.265084788E1,4.148473144E-1,1.786693484E-1,2.426531315E-1
3.267084788E1,4.462632239E-1,3.996629417E-1,2.254616320E-1
3.269084788E1,3.168819845E-1,5.826432705E-1,2.259503305E-1
3.271084788E1,-1.330813617E-1,2.437177747E-1,1.503601074E-1
3.273284631E1,-7.918035388E-1,-2.659358084E-1,2.042035107E-3
3.275284788E1,-1.118790984E0,-3.530626595E-1,-1.210734919E-1
3.277284788E1,-1.102803707E0,-1.048942879E-1,-9.112364054E-2
3.279286350E1,-9.494416714E-1,1.902059764E-1,8.421213925E-2
3.281484788E1,-7.284306288E-1,1.866280586E-1,3.097086847E-1
3.283684788E1,-3.968704045E-1,4.406956211E-2,5.091823339E-1
3.285684788E1,-4.366813600E-2,-2.958333120E-2,4.980122447E-1
3.287684944E1,3.172659576E-1,1.050688177E-1,3.112794757E-1
3.289884788E1,6.072174907E-1,4.145855010E-1,1.317199916E-1
3.291884788E1,6.555281878E-1,8.604647517E-1,1.137954649E-2
3.293884788E1,4.845906794E-1,9.779428840E-1,-1.410749704E-1
3.295884788E1,1.641656756E-1,8.044920564E-1,-3.344399929E-1
3.297884788E1,-1.271995902E-1,1.059065819E0,-4.800702631E-1
3.299884788E1,-2.762332559E-1,1.271873832E0,-6.414085031E-1
3.301884788E1,-2.199289352E-1,9.164549112E-1,-8.311606646E-1
3.303884788E1,-1.466076588E-3,5.548925400E-1,-1.121094823E0
3.305885412E1,1.530653685E-1,-5.326744914E-2,-1.144045830E0
3.308085256E1,1.569923609E-1,-1.857379377E-1,-6.525960565E-1
3.310284788E1,1.363102198E-1,5.266531110E-1,-4.309218004E-2
3.312286819E1,-1.192234382E-1,7.433706522E-1,2.611012571E-2
3.314484788E1,-6.229429245E-1,1.762607992E-1,-3.764675260E-1
3.316484788E1,-1.460334420E0,-1.049832940E0,-7.011336684E-1
3.318484788E1,-2.027723551E0,-1.733687878E0,-5.456946492E-1
3.320486975E1,-1.772573829E0,-1.285347700E0,-9.512044489E-2
3.322684788E1,-9.416225553E-1,-9.093514681E-1,2.833716571E-1
3.324684788E1,-2.091602534E-1,-1.098684788E0,3.981270492E-1
3.326684788E1,1.054353416E-1,-1.146157742E0,3.716503978E-1
3.328685256E1,1.360135078E-1,-1.584706545E0,1.681450158E-1
3.330884788E1,9.185668081E-2,-1.191082478E0,-1.515120268E-1
3.333084788E1,2.933898382E-2,-7.307344675E-1,-4.198738635E-1
3.335285412E1,7.476990670E-2,-3.439694941E-1,-4.532620013E-1
3.337484788E1,2.701246142E-1,-3.226241171E-1,-2.783102095E-1
3.339485256E1,5.749987364E-1,-3.954916000E-1,-1.836086363E-1
3.341684631E1,9.354964495E-1,-2.649409771E-1,-1.116487086E-1
3.343684788E1,1.151655555E0,-2.315877378E-1,-8.576548100E-2
3.345685569E1,1.190960288E0,-1.694365591E-1,-8.150687814E-2
3.347884788E1,1.050112247E0,-8.646360785E-2,-5.724680051E-2
3.349884788E1,7.403337359E-1,9.149015695E-2,1.261523962E-1
3.351884788E1,4.330336452E-1,3.486818671E-1,2.278876454E-1
3.353884788E1,2.094395161E-1,5.379104614E-1,2.574709654E-1
3.355884788E1,1.773254573E-1,5.595350862E-1,2.255488932E-1
3.357884788E1,4.850444496E-1,4.349884093E-1,1.424188614E-1
3.359884788E1,8.596095443E-1,4.844684899E-1,6.243042648E-2
3.361885412E1,9.793915153E-1,3.754901290E-1,-1.007054932E-2
3.364084631E1,8.425751328E-1,5.070530772E-1,2.135933936E-1
3.366084788E1,6.777637005E-1,8.526980281E-1,5.195496082E-1
3.368084788E1,6.028367281E-1,1.148129940E0,6.846054196E-1
3.370084788E1,4.937361777E-1,1.540689349E0,4.971046746E-1
3.372084788E1,2.274687588E-1,1.793727279E0,3.961897269E-2
3.374084788E1,-2.810852826E-1,1.551981688E0,-5.301612020E-1
3.376284788E1,-7.000166774E-1,1.274910688E0,-9.387078881E-1
3.378284788E1,-8.235859871E-1,9.113585949E-1,-1.013949037E0
3.380284788E1,-5.887868404E-1,6.575702429E-1,-8.271813393E-1
3.382284788E1,-2.006954104E-1,1.183315754E0,-3.497465253E-1
3.384284788E1,4.719370231E-2,1.059414864E0,-1.146681327E-2
3.386284788E1,4.188790335E-4,6.347239017E-1,2.171189636E-1
3.388284944E1,-9.658651799E-2,4.970697761E-1,4.046545923E-1
3.390486819E1,-1.876403540E-1,5.695533156E-1,3.885801136E-1
3.392684631E1,-3.884230256E-1,2.605951130E-1,-1.208465993E-1
3.394684788E1,-5.750685334E-1,-3.385415077E-1,-4.370827973E-1
3.396684788E1,-6.013880968E-1,-1.054824591E0,-6.051580310E-1
3.398684788E1,-5.199685097E-1,-1.717438936E0,-6.043900847E-1
3.400685413E1,-3.655766547E-1,-1.652896643E0,-5.401095748E-1
3.402884788E1,-2.900038958E-1,-1.117499352E0,-6.166771650E-1
3.404884788E1,-4.201356471E-1,-1.050932527E0,-8.567472100E-1
3.406884788E1,-5.453281403E-1,-1.310201168E0,-9.694954753E-1
3.409084631E1,-5.403190255E-1,-8.914617896E-1,-8.583528996E-1
3.411084631E1,-4.872959256E-1,-5.064596534E-1,-6.640105247E-1
3.413285569E1,-3.548777997E-1,-2.808409333E-1,-4.825137258E-1
3.415484788E1,-1.212654784E-1,-1.694714725E-1,-3.371801674E-1
3.417684631E1,1.424886733E-1,2.599493265E-1,-1.571319848E-1
3.419884631E1,2.075022012E-1,2.434908897E-1,-1.667836607E-1
3.421884631E1,5.012585595E-2,-2.194925994E-1,-3.456101120E-1
3.423884631E1,-1.811477244E-1,-4.014082849E-1,-3.409500718E-1
3.425884631E1,-3.428524733E-1,-1.748819947E-1,-1.805717647E-1
3.427884631E1,-4.259650409E-1,1.365545541E-1,6.370452046E-2
3.429884631E1,-4.063650072E-1,3.343352675E-1,2.359510660E-1
3.431884631E1,-4.216366410E-1,2.482730895E-1,3.077888191E-1
3.433884788E1,-4.676609635E-1,-4.221951589E-2,8.943066746E-2
3.436087756E1,-2.778564095E-1,-5.586798862E-2,-2.324080467E-1
3.438285881E1,1.595929116E-1,1.215447262E-1,-2.455154657E-1
3.440486819E1,3.467271030E-1,6.167993695E-2,-1.532050073E-1
3.442684631E1,1.673421711E-1,-4.699822664E-1,-6.698573381E-2
3.444684631E1,3.719296679E-2,-8.562061787E-1,5.768313259E-2
3.446684788E1,1.650906950E-1,-5.155702829E-1,4.476769641E-2
3.448885100E1,4.431740046E-1,1.644798219E-1,3.333578818E-3
3.451084631E1,6.280741692E-1,5.560269952E-1,8.641125262E-2
3.453084944E1,6.757042408E-1,5.758888125E-1,2.566157579E-1
3.455285256E1,6.684436202E-1,2.666164935E-1,4.329114556E-1
3.457285881E1,6.925640702E-1,1.872738265E-2,5.106658936E-1
3.459484631E1,7.591832876E-1,2.850995362E-1,4.951324463E-1
3.461484944E1,7.213445902E-1,5.427799225E-1,4.276405573E-1
3.463684788E1,4.346044362E-1,3.805690408E-1,3.204599023E-1
3.465884631E1,2.317971736E-1,-8.007570356E-2,7.733553648E-2
3.467884631E1,3.258529603E-1,1.184554994E-1,1.274788529E-1
3.469884788E1,3.322059810E-1,2.538930476E-1,2.623229921E-1
3.472085569E1,-3.883357719E-2,-3.079458773E-1,2.872812003E-2
3.474284631E1,-4.031186998E-1,-8.707970977E-1,-2.258805037E-1
3.476285413E1,-3.739368021E-1,-6.436076164E-1,-1.450717598E-1
3.478484788E1,-9.913469665E-3,-1.118756086E-2,3.318394423E-1
3.480487288E1,2.146929502E-1,5.375788808E-1,6.879913211E-1
3.482684631E1,1.656317413E-1,7.389200330E-1,7.176270485E-1
3.484685100E1,-1.195725054E-1,5.890660882E-1,4.918512404E-1
3.486884631E1,-3.008598685E-1,3.924372792E-1,2.065073550E-1
3.488884631E1,-1.417556405E-1,2.679952979E-1,1.370083392E-1
3.490884631E1,1.324006766E-1,4.259127080E-1,2.430894524E-1
3.492884944E1,2.248682231E-1,5.917539001E-1,2.601064146E-1
3.495084631E1,8.304276317E-2,5.405459404E-1,1.734857261E-1
3.497085100E1,-1.099906489E-1,3.401297629E-1,-4.077089205E-2
3.499284631E1,-2.001892626E-1,3.582288325E-1,-1.609542668E-1
3.501284631E1,-1.707979143E-1,2.462484986E-1,-2.123018503E-1
3.503285256E1,-1.762433499E-1,-1.902583390E-1,-2.723935246E-1
3.505285569E1,-2.539803088E-1,-9.395281672E-1,-4.827231765E-1
3.507484788E1,-4.015653431E-1,-1.677226543E0,-1.096625328E0
3.509684788E1,-4.960400164E-1,-1.606401086E0,-1.915446520E0
3.511884788E1,-8.042477369E-1,-1.379577994E0,-2.444909573E0
3.514084631E1,-1.447645903E0,-1.841357231E0,-2.591063499E0
3.516084631E1,-1.618513584E0,-1.598355055E0,-2.158640623E0
3.518084631E1,-1.116679072E0,-4.359134436E-1,-8.784765601E-1
3.520084631E1,-3.533593714E-1,1.602910310E-1,5.546307564E-1
3.522084631E1,4.964763522E-1,2.364397496E-1,1.317269802E0
3.524084631E1,1.496340632E0,3.129898906E-1,1.548403740E0
3.526084944E1,1.979639649E0,-4.834562168E-2,1.510250807E0
3.528284631E1,1.690997124E0,-2.802824378E-1,1.243739128E0
3.530284788E1,1.004838347E0,-3.929434121E-1,6.636440158E-1
3.532284788E1,3.680201173E-1,-2.824815512E-1,2.866703272E-1
3.534485413E1,-2.135759443E-1,-5.689773336E-2,1.351059377E-1
3.536685100E1,-5.660626292E-1,2.321811467E-1,1.578650326E-1
3.538685100E1,-6.473949552E-1,4.512025118E-1,2.263866514E-1
3.540884631E1,-7.125656009E-1,4.085641205E-1,1.407608092E-1
3.542884631E1,-7.848745584E-1,7.072073966E-2,2.321287990E-2
3.544884631E1,-6.234664917E-1,-2.427054793E-1,2.940879762E-2
3.546884944E1,-2.772804499E-1,-3.307049870E-1,1.379682720E-1
3.549084788E1,2.179043591E-1,-1.458048075E-1,2.360383272E-1
3.551085412E1,5.063898563E-1,1.297652274E-1,2.738421559E-1
3.553284788E1,4.563163221E-1,3.865206242E-1,2.392846346E-1
3.555285569E1,2.821150124E-1,7.608413696E-1,2.761808932E-1
3.557285725E1,3.005456924E-1,7.102442980E-1,1.957037747E-1
3.559484788E1,5.880537629E-1,8.789652586E-1,2.083574086E-1
3.561484788E1,8.043873310E-1,1.711365104E0,5.689249635E-1
3.563485413E1,8.093440533E-1,1.278366446E0,8.916537762E-1
3.565684631E1,3.632902801E-1,4.221777022E-1,8.965756297E-1
3.567685413E1,2.226516455E-1,3.461511433E-1,8.260119557E-1
3.569884631E1,3.144559562E-1,7.236135006E-2,7.849269509E-1
3.571884788E1,4.382347167E-1,-3.116459846E-1,5.453630090E-1
3.574084631E1,5.181009769E-1,-7.182378769E-1,2.074672878E-1
3.576084788E1,4.137128592E-1,-9.620079994E-1,8.901178953E-4
3.578284788E1,6.562437862E-2,-7.333350182E-1,-5.026548356E-2
3.580285256E1,-3.730117679E-1,-3.979350626E-1,4.045673087E-2
3.582484631E1,-6.997897625E-1,-1.838529855E-1,3.485422581E-2
3.584484631E1,-8.941496015E-1,-2.621484399E-1,5.996951461E-2
3.586484631E1,-8.489630222E-1,-3.621558249E-1,4.375540465E-2
3.588484631E1,-6.601358652E-1,-4.213573933E-1,-1.874483563E-2
3.590486819E1,-3.363249600E-1,-4.357214570E-1,-9.876818210E-2
3.592684631E1,9.854128957E-2,-1.709026396E-1,-2.951351702E-1
3.594684788E1,3.082251549E-1,-2.009746581E-1,-4.432438016E-1
3.596684944E1,2.196845859E-1,-4.003087282E-1,-3.257482648E-1
3.598884631E1,4.616395757E-2,-1.998402029E-1,-5.487314984E-2
3.600884631E1,-3.612831607E-2,-1.363102198E-1,2.368411794E-2
3.602884631E1,3.851941600E-2,1.368163526E-1,-6.719517522E-3
3.604884788E1,1.303935498E-1,1.224348471E-1,-2.689552307E-2
3.607085256E1,2.138377428E-1,-2.577676773E-1,-1.599943340E-1
3.609284788E1,3.225542903E-1,-5.405110121E-1,-3.238981962E-1
3.611285413E1,6.693337560E-1,3.148574010E-2,-1.058018580E-1
3.613287600E1,9.779254198E-1,4.725129902E-1,2.558652759E-1
3.615484788E1,8.780402541E-1,4.649557173E-2,2.026501745E-1
3.617484944E1,4.772602916E-1,-1.461364180E-1,-2.092649788E-1
3.619684631E1,-6.501351297E-2,5.759586580E-3,-5.104215145E-1
3.621685256E1,-4.108155966E-1,-1.174257547E-1,-3.653148711E-1
3.623884788E1,-5.214694738E-1,-2.112371922E-1,-1.230457127E-1
3.625884788E1,-4.567352235E-1,-3.565184176E-1,2.670353837E-2
3.627884788E1,-3.718598485E-1,-2.564237714E-1,-2.469640970E-2
3.629885413E1,-4.027521908E-1,-6.696828455E-2,-1.729446799E-1
3.632084788E1,-5.878443718E-1,6.775368005E-2,-2.878047824E-1
3.634085100E1,-5.835508108E-1,-1.628915817E-1,-3.278775513E-1
3.636286506E1,-3.196919560E-1,-4.609414637E-1,-3.212802112E-1
3.638484631E1,-1.184205860E-1,-5.758015513E-1,-2.866005301E-1
3.640486819E1,-7.314674556E-2,-4.471184313E-1,-1.186300293E-1
3.642684788E1,-9.498082101E-2,-2.784149349E-1,3.947934881E-2
3.644685725E1,-1.392772701E-2,-1.374795884E-1,8.510225266E-2
3.646884788E1,2.206968814E-1,-9.040805511E-3,9.752900153E-2
3.648884788E1,5.338962078E-1,4.745550081E-2,1.295208782E-1
3.650884788E1,7.736695409E-1,3.253991902E-1,1.876927018E-1
3.652884788E1,8.089426756E-1,4.937012792E-1,1.639736891E-1
3.654884788E1,7.324448824E-1,2.600366175E-1,1.529257447E-1
3.656884788E1,7.091447115E-1,1.986708343E-1,2.604031265E-1
3.658884788E1,8.233590722E-1,2.913129032E-1,4.153360128E-1
3.660884788E1,9.584649801E-1,7.704057693E-1,4.049163759E-1
3.662884788E1,9.317614436E-1,1.088387370E0,3.338814974E-1
3.664885100E1,6.512521505E-1,3.949505687E-1,3.591015041E-1
3.667084788E1,2.519906461E-1,-7.365289330E-1,2.829876840E-1
3.669287288E1,1.533271670E-1,-8.224864006E-1,2.644872069E-1
3.671486350E1,1.631010175E-1,-3.189065456E-1,3.281044364E-1
3.673684944E1,-1.114218161E-1,-1.591042131E-1,2.574709654E-1
3.675884631E1,-5.555382967E-1,-6.429792941E-2,1.013861746E-1
3.677884788E1,-7.278721333E-1,1.093972400E-1,9.023351967E-2
3.680084631E1,-6.046693325E-1,1.754754037E-1,1.788264364E-1
3.682084631E1,-4.612207115E-1,2.178345472E-1,2.112197429E-1
3.684084631E1,-3.601661325E-1,2.124589235E-1,1.870469302E-1
3.686084631E1,-3.486295044E-1,1.629439443E-1,1.539554894E-1
3.688085256E1,-3.574434221E-1,1.688955128E-1,5.537929758E-2
3.690284944E1,-3.529928327E-1,3.034080267E-1,-7.724827528E-2
3.692285100E1,-3.200235665E-1,5.123588443E-1,6.422811653E-3
3.694287756E1,-1.783726513E-1,6.570640802E-1,1.571668983E-1
3.696484788E1,2.257059813E-1,3.366565704E-1,2.513448596E-1
3.698684631E1,4.149171114E-1,-2.328967303E-1,2.574360669E-1
3.700684631E1,4.598593414E-1,-2.561445236E-1,2.949606478E-1
3.702684631E1,3.885102868E-1,-1.844289452E-1,2.605078518E-1
3.704686975E1,2.148151249E-1,1.540078521E-1,2.110975683E-1
3.706884631E1,2.871066518E-2,5.433209985E-2,5.949827284E-2
3.708884631E1,1.092052534E-1,-3.992789686E-1,-1.350361258E-1
3.710885881E1,2.591988444E-1,-4.357388914E-1,-2.309768796E-1
3.713084631E1,1.877276152E-1,-2.197194993E-1,-1.377064735E-1
3.715084788E1,-8.686503768E-2,-2.738770545E-1,-2.691297829E-1
3.717085100E1,-4.968254268E-1,-3.777765036E-1,-6.315473914E-1
3.719285256E1,-8.128696680E-1,6.864380091E-2,-7.064394951E-1
3.721486350E1,-8.751080632E-1,3.454530239E-1,-1.800656170E-1
3.723685412E1,-6.660351157E-1,-1.828232408E-1,2.150943726E-1
3.725884631E1,-3.578797579E-1,-7.063521743E-1,1.135162115E-1
3.727885100E1,-2.500882149E-1,-7.787484527E-1,-2.579596639E-2
3.730084788E1,-2.579771280E-1,-2.615026832E-1,4.290019348E-2
3.732085569E1,-3.071779609E-1,5.583308265E-2,6.455972791E-2
3.734288381E1,-3.751585186E-1,2.190911770E-1,5.466371030E-2
3.736484631E1,-4.893379509E-1,1.570970863E-1,-4.028219730E-2
3.738484631E1,-5.566727519E-1,-1.135860309E-1,-2.032261342E-1
3.740486819E1,-4.705407619E-1,-3.762231767E-1,-2.574535310E-1
3.742684631E1,-1.893158704E-1,-4.946612120E-1,-1.525417715E-1
3.744684631E1,1.086641997E-1,-3.637964427E-1,-1.101826355E-1
3.746684631E1,2.761634588E-1,-9.180431813E-2,-1.684242673E-2
3.748685256E1,3.608293831E-1,2.355321795E-1,1.811651736E-1
3.750884631E1,3.700447083E-1,4.342029989E-1,2.949431837E-1
3.752884631E1,3.543891013E-1,4.232772589E-1,3.255911767E-1
3.754884788E1,3.952821791E-1,4.041833580E-1,3.503399491E-1
3.756885412E1,5.634097457E-1,5.642300248E-1,3.679677546E-1
3.759084631E1,7.126353979E-1,5.593430996E-1,3.133738637E-1
3.761085100E1,7.500028610E-1,4.789183438E-1,2.330189049E-1
3.763284944E1,6.524913311E-1,5.680697560E-1,1.727352291E-1
3.765286194E1,4.388455749E-1,5.144357681E-1,2.564412355E-1
3.767484788E1,5.312782153E-2,-9.311331809E-2,1.306029856E-1
3.769484944E1,-2.025454640E-1,-3.865206242E-1,-6.979571283E-2
3.771486350E1,-2.363175750E-1,-2.097711265E-1,-7.655014098E-2
3.773684631E1,-1.256113499E-1,-1.340412796E-1,6.445501000E-2
3.775685413E1,-8.375835419E-2,-3.107733130E-1,1.857379377E-1
3.777884788E1,-2.390403003E-1,-4.617792070E-1,2.927440703E-1
3.780084631E1,-4.456000030E-1,-4.503473043E-1,3.611086309E-1
3.782084631E1,-3.794694841E-1,-2.743832171E-1,5.228831768E-1
3.784084631E1,-2.548878789E-1,-8.587019891E-2,5.741609335E-1
3.786084631E1,-1.202531829E-1,-8.056439459E-2,4.978027940E-1
3.788084788E1,1.123817489E-1,-1.874309033E-1,4.648684561E-1
3.790284788E1,3.901509047E-1,-1.866455078E-1,3.964340985E-1
3.792484631E1,4.676784277E-1,-2.176425606E-1,2.475924045E-1
3.794484631E1,3.766769469E-1,-2.731789351E-1,1.872389168E-1
3.796484788E1,2.339788377E-1,-8.946557343E-2,1.418603659E-1
3.798684631E1,6.003932655E-2,2.151990980E-1,7.787659019E-2
3.800685256E1,-1.346870512E-1,4.595626295E-1,6.356488913E-2
3.802884631E1,-2.525666058E-1,6.298369765E-1,1.118930578E-1
3.804884788E1,-2.389181256E-1,5.178741217E-1,1.285609454E-1
3.807084631E1,-7.398450375E-2,2.864259779E-1,2.018996924E-1
3.809085412E1,1.496794373E-1,2.815216035E-2,1.452986598E-1
3.811284788E1,4.324751198E-1,-4.684114754E-1,-1.622981727E-1
3.813285100E1,5.497786999E-1,-6.913249195E-2,-1.973967403E-1
3.815285413E1,4.660029113E-1,4.255112708E-1,6.002187356E-2
3.817484631E1,5.482079089E-2,1.733810008E-1,1.447052509E-1
3.819484631E1,-2.359685153E-1,-1.380729973E-1,-8.431685716E-2
3.821486194E1,-2.114117295E-1,-9.108873457E-2,-3.902730644E-1
3.823684631E1,-1.106189713E-1,1.297303289E-1,-3.978303373E-1
3.825684631E1,-1.278453618E-1,3.498687148E-1,-1.457000822E-1
3.827684631E1,-3.342305422E-1,3.373372257E-1,1.409876943E-1
3.829684631E1,-4.361926913E-1,1.778665036E-1,3.432015479E-1
3.831684788E1,-2.904402316E-1,6.126105785E-2,3.996804059E-1
3.833884788E1,-9.920451790E-2,8.217009902E-2,2.436130494E-1
3.836084631E1,1.089085452E-2,2.009746581E-1,6.248278543E-3
3.838084631E1,-1.029744279E-2,1.993515044E-1,-1.924225539E-1
3.840084631E1,-1.494350880E-1,-1.745329246E-5,-3.312111199E-1
3.842084631E1,-2.734058201E-1,-1.120675877E-1,-3.347192407E-1
3.844084788E1,-2.960602045E-1,-9.456194192E-2,-2.735105455E-1
3.846285100E1,-3.217165470E-1,-6.538003683E-2,-2.338566631E-1
3.848285256E1,-3.780383170E-1,-1.148252115E-1,-2.158623189E-1
3.850486819E1,-4.285481572E-1,-1.559451669E-1,-1.570970863E-1
3.852684788E1,-3.275808394E-1,9.651671164E-3,5.024803057E-2
3.854884788E1,-6.152285635E-2,4.238532186E-1,2.839301527E-1
3.857084631E1,2.307150662E-1,6.973811984E-1,3.987204731E-1
3.859084631E1,4.978027940E-1,6.178116202E-1,4.763003588E-1
3.861084631E1,6.910631061E-1,4.957956672E-1,4.600338936E-1
3.863085256E1,6.884974837E-1,5.385213494E-1,2.718001306E-1
3.865284788E1,4.275882244E-1,5.940751433E-1,3.407929838E-1
3.867285412E1,1.006356850E-1,5.223770142E-1,4.174478352E-1
3.869484631E1,-7.265805453E-2,5.106135011E-1,3.334451616E-1
3.871486662E1,-3.270747140E-2,1.430646330E-1,2.078861594E-1
3.873685256E1,-1.369210780E-1,-5.501801372E-1,-4.572762549E-2
3.875884631E1,-5.370901823E-1,-1.128582239E0,-2.400176823E-1
3.877884631E1,-9.469633102E-1,-7.960621119E-1,-2.502976656E-1
3.879884631E1,-1.266079307E0,-2.215171903E-1,-1.869771183E-1
3.881884788E1,-1.371305227E0,4.285306931E-1,1.068316028E-1
3.883885256E1,-1.270826578E0,8.334296346E-1,4.424409568E-1
3.886084631E1,-9.674708843E-1,9.258447886E-1,6.039711833E-1
3.888084944E1,-7.212747931E-1,7.916813493E-1,5.062676668E-1
3.890284788E1,-4.943819642E-1,6.175323725E-1,2.647838891E-1
3.892285881E1,-3.624176085E-1,2.109579444E-1,-9.934414178E-2
3.894484631E1,-4.047418535E-1,-1.484227926E-1,-2.334028780E-1
3.896484631E1,-5.816833377E-1,-4.638386965E-1,-3.120648563E-1
3.898484631E1,-8.594524860E-1,-6.563135982E-1,-4.961796403E-1
3.900486819E1,-1.154989123E0,-7.616442442E-1,-7.439116836E-1
3.902684631E1,-1.315681577E0,-7.023728490E-1,-8.847771883E-1
3.904685100E1,-1.460090041E0,-6.768910289E-1,-9.303302765E-1
3.906884788E1,-2.038177967E0,-8.271638751E-1,-1.233563781E0
3.909084788E1,-2.705504656E0,-1.419511199E0,-1.670960784E0
3.911286506E1,-2.577153206E0,-2.342703104E0,-2.030865192E0
3.913484788E1,-1.734979391E0,-2.925555706E0,-1.873698235E0
3.915485100E1,-1.409458041E0,-2.755752802E0,-1.846645594E0
3.917684631E1,-1.984736085E0,-2.965506315E0,-1.952499866E0
3.919684631E1,-2.373612881E0,-3.219504118E0,-1.615092754E0
3.921684631E1,-2.069489241E0,-3.327941418E0,-1.039500594E0
3.923685256E1,-1.688169718E0,-4.011063099E0,6.358234584E-2
3.925884788E1,-1.376977563E0,-4.807387352E0,1.011191368E0
3.927884788E1,-1.267440677E0,-4.960330486E0,9.685006738E-1
3.929884788E1,-1.864954114E0,-4.670116901E0,4.549375176E-1
3.932084631E1,-2.986607313E0,-3.825918674E0,2.612059712E-1
3.934084788E1,-3.539632320E0,-3.049020290E0,1.447750628E-1
3.936085412E1,-3.528340101E0,-2.378255367E0,1.021192148E-1
3.938284788E1,-3.181211710E0,-1.887556076E0,3.151366413E-1
3.940285256E1,-2.829632521E0,-1.793517828E0,5.523967147E-1
3.942484788E1,-2.307552099E0,-2.057690859E0,7.559893727E-1
3.944485256E1,-1.909896374E0,-2.255768299E0,9.535781145E-1
3.946684788E1,-1.757459283E0,-2.292978764E0,9.734573960E-1
3.948685412E1,-1.628427148E0,-2.112389326E0,7.510326505E-1
3.950884788E1,-1.428883553E0,-1.821792126E0,3.564136922E-1
3.952884788E1,-1.271664381E0,-1.318700910E0,1.188394651E-1
3.954884788E1,-7.932347059E-1,-5.392020345E-1,-1.177050024E-1
3.956884944E1,-8.847074211E-2,2.483952641E-1,-3.523296118E-1
3.959084788E1,4.581314623E-1,5.819451213E-1,-5.099502802E-1
3.961085412E1,6.745523214E-1,4.552342296E-1,-4.735776484E-1
3.963284788E1,1.060985684E0,3.207566142E-1,-3.647040129E-1
3.965286038E1,1.767878890E0,2.583785355E-1,-2.038020939E-1
3.967484788E1,2.475697279E0,-3.989822790E-2,-1.288052946E-1
3.969485100E1,2.951892853E0,-2.204001844E-1,-3.270398080E-1
3.971486350E1,3.249733210E0,1.016828790E-1,-7.363544106E-1
3.973684944E1,3.265825272E0,1.082557917E0,-1.098946571E0
3.975884788E1,3.114470243E0,2.159862280E0,-1.148688436E0
3.978084631E1,3.188541889E0,2.873073816E0,-9.136973023E-1
3.980085412E1,3.445175171E0,2.952817917E0,-8.022231460E-1
3.982284788E1,3.653375626E0,2.715121508E0,-9.869837165E-1
3.984286662E1,3.717813015E0,2.555476189E0,-1.219758272E0
3.986484788E1,3.661229610E0,2.657246351E0,-1.191675901E0
3.988485413E1,3.521760225E0,2.986048937E0,-9.385682344E-1
3.990486819E1,3.412746906E0,3.350718021E0,-7.202624679E-1
3.992685100E1,3.119287252E0,3.587524176E0,-5.645267367E-1
3.994884631E1,2.960793972E0,3.821764946E0,-5.275432467E-1
3.996884631E1,2.936987638E0,4.036597252E0,-3.072128594E-1
3.998884788E1,2.913705111E0,3.973189592E0,-1.460840553E-1
4.000884944E1,2.741056919E0,3.755494833E0,-1.923352852E-2
4.003084631E1,2.614625454E0,3.326859236E0,-7.976154797E-3
4.005085256E1,2.396895647E0,2.796349049E0,-3.645992652E-2
4.007284944E1,1.991979122E0,2.335599661E0,-1.366069168E-1
4.009286506E1,1.466460586E0,1.711242914E0,-1.685988009E-1
4.011484631E1,1.339557648E0,1.979360461E0,2.808234841E-2
4.013485725E1,1.136261702E0,2.156476498E0,9.117600322E-2
4.015684631E1,6.825459003E-1,1.787217140E0,1.628392190E-2
4.017684631E1,2.754304111E-1,1.118197560E0,7.483971864E-2
4.019684631E1,4.124213010E-2,9.432283044E-1,1.454557329E-1
4.021685725E1,-1.854063272E-1,4.207639694E-1,-3.141592816E-2
4.023884631E1,-1.767145842E-1,3.024131954E-1,-1.318421662E-1
4.025885100E1,-2.796541154E-1,3.205646276E-1,-6.115633622E-2
4.028084631E1,-7.882430553E-1,2.501755059E-1,5.892231688E-2
4.030084944E1,-1.250004768E0,8.913396299E-2,1.367989033E-1
4.032284788E1,-1.310689926E0,-8.023278415E-2,7.408922911E-2
4.034284788E1,-7.980169058E-1,8.185594529E-2,1.108284108E-2
4.036484631E1,-5.443681777E-2,1.535715163E-1,5.265658349E-2
4.038484631E1,5.650677681E-1,2.984512970E-2,1.294161677E-1
4.040486819E1,1.021960139E0,-1.484751552E-1,1.271995902E-1
4.042684631E1,1.148426652E0,-3.545112908E-1,2.689552307E-2
4.044684631E1,8.907462358E-1,-4.608541727E-1,-3.687880561E-2
4.046685569E1,6.474473476E-1,-3.506715596E-1,1.071108580E-1
4.048884631E1,5.190259814E-1,-2.767743170E-1,1.243023500E-1
4.050884631E1,5.671970844E-1,-5.246459693E-2,1.052782610E-1
4.052884788E1,8.212122917E-1,2.760063708E-1,1.090307161E-1
4.055084631E1,9.418494701E-1,6.691941619E-1,1.712691635E-1
4.057084631E1,6.335894465E-1,9.118123651E-1,1.875705272E-1
4.059084944E1,1.905550510E-1,1.218117595E0,1.870818436E-1
4.061285100E1,7.319910824E-2,1.009079576E0,1.652128696E-1
4.063484631E1,2.055997849E-1,6.115982533E-1,1.827708781E-1
4.065484788E1,4.798608124E-1,-7.197737694E-2,-9.599310905E-2
4.067684631E1,8.008268476E-1,-5.872684121E-1,-3.894178569E-1
4.069684631E1,8.380373120E-1,-5.476493835E-1,-4.347440600E-1
4.071684631E1,4.374318719E-1,-4.242546260E-1,-4.275183976E-1
4.073684631E1,-3.255039155E-1,-4.780282378E-1,-3.218561709E-1
4.075684788E1,-8.554556966E-1,-4.316897392E-1,-2.166826278E-1
4.077884788E1,-8.241793513E-1,-3.760486245E-1,-2.752384171E-2
4.079885100E1,-4.057890475E-1,-4.127878249E-1,2.010095716E-1
4.082084631E1,2.609267235E-1,-4.151789248E-1,4.349535108E-1
4.084084631E1,8.647059202E-1,-3.338291347E-1,4.208861589E-1
4.086084631E1,1.142370343E0,-4.314628541E-1,2.001020014E-1
4.088085412E1,1.028470159E0,-6.624048352E-1,-7.895869762E-2
4.090284788E1,7.068583369E-1,-8.491550088E-1,-3.544414639E-1
4.092285100E1,4.310090542E-1,-7.127924562E-1,-3.993313313E-1
4.094484631E1,1.876752526E-1,-3.917565942E-1,-2.648188174E-1
4.096485256E1,9.171704948E-2,-1.451764852E-1,-1.360658705E-1
4.098684631E1,1.208640486E-1,-8.918632753E-3,-1.123468429E-1
4.100685256E1,1.467472762E-1,-1.453510225E-1,-1.585108042E-1
4.102884788E1,1.351583004E-1,-6.538876295E-1,-1.993689537E-1
4.104884788E1,2.234195918E-1,-9.014974833E-1,-2.070833147E-1
4.107084631E1,3.193428814E-1,-4.191059172E-1,-1.704314053E-1
4.109084631E1,1.000946313E-1,9.890780598E-2,-1.421919763E-1
4.111084631E1,-5.508258939E-1,4.370304570E-2,-4.134510458E-1
4.113084944E1,-1.367116451E0,-8.722282648E-1,-1.073360085E0
4.115284631E1,-1.764266014E0,-1.812908411E0,-1.408358574E0
4.117284631E1,-1.347272038E0,-1.562488556E0,-1.169196010E0
4.119285413E1,-6.007074118E-1,-3.372325301E-1,-5.286777020E-1
4.121486194E1,3.972369432E-2,1.267248631E0,3.590142354E-2
4.123684788E1,-1.780235767E-2,1.191361770E-1,8.587019518E-3
4.125684788E1,-2.187072039E-1,-3.066194355E-1,-2.414139360E-1
4.127884788E1,-2.918016016E-1,9.857619554E-2,-4.912927151E-1
4.130084631E1,-3.104242682E-1,7.842636704E-1,-5.428323150E-1
4.132084631E1,-3.508286178E-1,1.075105309E0,-5.410520434E-1
4.134084631E1,-4.460014403E-1,9.701586962E-1,-5.477367043E-1
4.136084788E1,-5.570916533E-1,6.551268101E-1,-6.236759424E-1
4.138284631E1,-6.172356606E-1,3.978827000E-1,-6.595599055E-1
4.140284788E1,-5.316621661E-1,2.896024883E-1,-4.845732152E-1
4.142485412E1,-3.244741559E-1,5.792747810E-2,-8.970992267E-2
4.144684631E1,-1.008276716E-1,-6.653020382E-1,3.996803891E-3
4.146685100E1,2.452187613E-2,-1.218641281E0,7.801621687E-3
4.148884788E1,1.621061862E-1,-1.373434544E0,9.478883445E-2
4.151084631E1,5.094965100E-1,-8.003207445E-1,7.492698729E-2
4.153084631E1,7.663915157E-1,-1.648288965E-1,-1.940806210E-2
4.155084631E1,8.094837070E-1,2.925520837E-1,1.357167959E-1
4.157084631E1,6.626316905E-1,1.872912794E-1,4.043927789E-1
4.159084788E1,5.544038415E-1,-2.685014606E-1,2.772455513E-1
4.161084788E1,4.620933831E-1,-3.874979913E-1,-1.244070679E-1
4.163084788E1,2.857802212E-1,1.438151300E-2,-3.969227672E-1
