"Time (s)","Linear Acceleration x (m/s^2)","Linear Acceleration y (m/s^2)","Linear Acceleration z (m/s^2)"
9.995312000E-3,-1.349999905E-1,2.552999854E-1,-1.939999908E-1
2.999687500E-2,3.689999878E-2,-1.840000004E-1,-3.321000040E-1
5.000312500E-2,7.313999534E-1,-1.271099925E0,-7.710000128E-2
7.999531200E-2,1.151000023E0,-2.294800043E0,1.469499946E0
9.999687500E-2,-3.222999871E-1,-2.174799919E0,1.895599961E0
1.299968750E-1,-7.602999806E-1,-1.776199937E0,-8.136000037E-1
1.500031250E-1,6.969999522E-2,-1.494300008E0,9.642999768E-1
1.799953120E-1,-1.523299932E0,-2.130800009E0,1.403800011E0
1.999968750E-1,-6.402999759E-1,-2.957399845E0,-6.239999831E-2
2.299937500E-1,-9.700999856E-1,6.861999631E-1,2.297099829E0
2.499953120E-1,-7.001000047E-1,-5.913000107E-1,2.418699980E0
2.799953120E-1,-7.981999516E-1,1.313000023E-1,4.265999794E-1
3.000015620E-1,-1.512099981E0,7.174999714E-1,5.138999820E-1
3.299937500E-1,-2.775999904E-1,-1.945099950E0,-8.587999940E-1
3.500046870E-1,-1.421999931E-1,-1.494799972E0,-3.894999921E-1
3.799937500E-1,3.355999887E-1,2.705999911E-1,4.409999773E-2
3.999937500E-1,8.017999530E-1,1.849000007E-1,-8.763999939E-1
4.199953120E-1,9.815999866E-1,3.484999835E-1,-1.121399999E0
4.400046870E-1,-3.064999878E-1,-1.609999873E-2,-1.213099957E0
4.699953120E-1,-9.652999640E-1,8.106999993E-1,1.739999950E-1
4.900000000E-1,-2.336999923E-1,1.130399942E0,-6.107000113E-1
5.199937500E-1,2.664999962E-1,1.911199927E0,-2.716300011E0
5.399953120E-1,-1.442299962E0,3.128000021E0,-1.720699906E0
5.600015620E-1,-1.764799953E0,2.766499996E0,-2.924499989E0
5.899937500E-1,-3.391000032E0,2.294499874E0,-3.427899837E0
6.099953120E-1,-1.899399996E0,3.386600018E0,-1.971599936E0
6.299953120E-1,-4.551999867E-1,1.475600004E0,5.677999854E-1
6.499953120E-1,-1.080999970E0,1.284600019E0,-1.480499983E0
6.699953120E-1,-1.718599916E0,2.031899929E0,5.162000060E-1
6.999953120E-1,-1.822399974E0,1.773899913E0,-1.352899909E0
7.199953120E-1,-6.877999902E-1,6.728000045E-1,-1.400599957E0
7.499953120E-1,7.759999484E-2,-8.757999539E-1,-2.093499899E0
7.699953120E-1,-2.899000049E-1,-7.795000076E-1,-4.608200073E0
7.899953120E-1,-7.849999666E-1,-5.877000093E-1,-3.896699905E0
8.099953120E-1,-4.222899914E0,-9.043999910E-1,1.383209991E1
8.399937500E-1,-2.963999987E0,-1.844199896E0,5.067599773E0
8.599953120E-1,-2.331500053E0,-6.241999865E-1,4.700099945E0
8.899953120E-1,-3.949999809E-1,-4.669999704E-2,4.429100037E0
9.099953120E-1,1.155999973E-1,-1.079900026E0,2.059700012E0
9.299953120E-1,-7.933999896E-1,-2.470499992E0,-1.698099971E0
9.599937500E-1,5.900999904E-1,-3.542799950E0,6.468999982E-1
9.799937500E-1,-1.536499977E0,-1.051699996E0,-4.312999845E-1
9.999937500E-1,-2.856699944E0,1.745799899E0,4.582999945E-1
1.019993750E0,-1.062099934E0,1.059399962E0,-1.996999979E-1
1.039995312E0,-3.892000020E-1,8.592999578E-1,-6.089000106E-1
1.059995312E0,-6.247000098E-1,1.180599928E0,-2.035199881E0
1.079995312E0,-1.823399901E0,1.293699980E0,-1.976499915E0
1.099995312E0,-2.090199947E0,6.845999956E-1,-2.235899925E0
1.119995312E0,-7.900999784E-1,-3.350000083E-2,-1.509099960E0
1.139995312E0,3.018999994E-1,-7.012999654E-1,-9.269999862E-1
1.159995312E0,-5.618000031E-1,-4.184999764E-1,-9.476999640E-1
1.179998437E0,3.321000040E-1,-8.185999990E-1,-1.387199998E0
1.209995312E0,1.124199986E0,-1.321699977E0,-9.959999472E-2
1.229995312E0,3.447999954E-1,-1.177600026E0,2.762999833E-1
1.249995312E0,-1.172699928E0,-1.079299927E0,-7.789999992E-2
1.280001562E0,-7.685999870E-1,-1.588400006E0,8.017999530E-1
1.309993750E0,2.784000039E-1,-3.024600029E0,4.887599945E0
1.330000000E0,-5.539999604E-1,-2.454999924E0,5.059899807E0
1.359998437E0,9.200000018E-2,-1.387099981E0,2.003700018E0
1.380001562E0,5.414999723E-1,-7.939999700E-1,1.321599960E0
1.409995312E0,2.115200043E0,4.599999785E-1,1.419499993E0
1.430001562E0,2.721699953E0,5.723999739E-1,1.127300024E0
1.459995312E0,2.444399834E0,7.328000069E-1,-9.529999644E-2
1.489996875E0,9.475999475E-1,8.835999966E-1,-1.393000007E0
1.520000000E0,8.374999762E-1,4.745999873E-1,-2.659600019E0
1.549995312E0,9.860000014E-2,1.762599945E0,-2.817499876E0
1.569995312E0,-6.159999967E-2,1.615999937E0,-1.412099957E0
1.599993750E0,1.158200026E0,7.622999549E-1,-2.761699915E0
1.620003125E0,-7.970000058E-2,1.497999907E0,-1.755999923E0
1.649995312E0,-3.617399931E0,1.862399936E0,-3.428999782E-1
1.670003125E0,-2.237400055E0,1.608599901E0,-6.020999551E-1
1.699995312E0,-8.064000010E-1,1.322899938E0,1.003600001E0
1.720000000E0,-4.199999869E-1,7.455999851E-1,2.412799835E0
1.749995312E0,1.555999964E-1,-1.504999995E-1,8.697999716E-1
1.769995312E0,-9.169999957E-1,8.827999830E-1,8.330999613E-1
1.789995312E0,-3.632999957E-1,5.446999669E-1,1.159099936E0
1.819993750E0,1.352100015E0,-3.619999811E-2,7.639999986E-1
1.839993750E0,9.688999653E-1,1.572999954E-1,7.048000097E-1
1.859995312E0,-1.846999973E-1,-2.912999988E-1,2.436699867E0
1.889995312E0,-1.235399961E0,-1.638700008E0,2.581099987E0
1.909998437E0,-9.108999968E-1,-1.496699929E0,1.389500022E0
1.939993750E0,9.343000054E-1,-9.986999631E-1,6.575999856E-1
1.960000000E0,9.337999821E-1,-4.706999958E-1,-2.987000048E-1
1.989995312E0,-8.406999707E-1,3.687999845E-1,-2.719999850E-1
2.009995312E0,-2.251199961E0,1.014299989E0,1.821999997E-1
2.039993750E0,-1.413399935E0,-1.538999975E-1,-1.060400009E0
2.060003125E0,-4.389999807E-2,-1.124099970E0,-1.370299935E0
2.089993750E0,5.699999630E-3,-1.388999969E-1,-1.407099962E0
2.109998437E0,-5.478000045E-1,-2.094999999E-1,-8.564999700E-1
2.139995312E0,-1.930999994E0,3.344999850E-1,-1.329999976E-2
2.160001562E0,-1.339699984E0,-1.095099926E0,-1.862999946E-1
2.189993750E0,-3.793999851E-1,-2.286499977E0,-2.757999897E-1
2.210000000E0,-2.902999818E-1,-1.372399926E0,8.630000055E-2
2.239993750E0,-1.085999981E-1,-3.399999812E-3,3.044999838E-1
2.259995312E0,1.533999890E-1,-1.162000000E-1,-3.066999912E-1
2.279995312E0,4.671999812E-1,-5.929999948E-1,1.714999974E-1
2.310001562E0,1.203299999E0,-1.193400025E0,1.390200019E0
2.339995312E0,1.159600019E0,-1.340399981E0,1.859399915E0
2.359995312E0,5.177999735E-1,-8.546999693E-1,1.701799989E0
2.389995312E0,6.553999782E-1,-6.656000018E-1,1.664099932E0
2.409996875E0,1.229399920E0,-4.079999924E-1,1.462099910E0
2.439995312E0,2.187999964E0,-4.370999932E-1,1.036100030E0
2.459996875E0,1.911199927E0,1.226999983E-1,2.104000002E-1
2.489995312E0,4.296000004E-1,5.119999647E-1,-1.513299942E0
2.509995312E0,-4.259999841E-2,5.827000141E-1,-2.223299980E0
2.539995312E0,-2.965999842E-1,8.714999557E-1,-2.640399933E0
2.559995312E0,-7.894999981E-1,1.489300013E0,-2.318199873E0
2.579996875E0,-6.155999899E-1,9.793999791E-1,-8.046999574E-1
2.600000000E0,-8.129999638E-1,5.318999887E-1,-3.737999797E-1
2.629995312E0,-1.438099980E0,6.870999932E-1,-9.552999735E-1
2.649995312E0,-1.313799977E0,6.812999845E-1,-1.037400007E0
2.679995312E0,-1.083199978E0,6.908999681E-1,-4.395999908E-1
2.709995312E0,-1.603500009E0,1.206099987E0,5.146999955E-1
2.739993750E0,-1.417699933E0,5.886999965E-1,9.584999681E-1
2.759995312E0,-1.507799983E0,8.059999943E-1,9.999999311E-4
2.780023437E0,-1.273299932E0,9.872999787E-1,-1.047299981E0
2.809995312E0,-3.190999925E-1,-3.375999928E-1,-3.103999794E-1
2.829995312E0,-8.682000041E-1,-5.776999593E-1,5.023999810E-1
2.849995312E0,-1.662400007E0,-3.183999956E-1,8.435999751E-1
2.879993750E0,-1.805899978E0,-5.906000137E-1,1.284399986E0
2.899995312E0,-9.491999745E-1,-7.203999758E-1,1.497900009E0
2.919995312E0,-2.740000002E-2,-1.062500000E0,1.180199981E0
2.949993750E0,2.638999820E-1,-1.105999947E0,1.494999975E-1
2.969995312E0,-4.669999704E-2,-1.013700008E0,-7.204999924E-1
2.989995312E0,-6.369000077E-1,-7.592999935E-1,-1.414699912E0
3.009995312E0,-8.362999558E-1,-9.336999655E-1,-1.963400006E0
3.039993750E0,-9.793999791E-1,-6.385999918E-1,-2.060899973E0
3.059995312E0,-7.960000038E-1,-5.042999983E-1,-1.915799975E0
3.079995312E0,-5.555999875E-1,-3.731999993E-1,-2.118399858E0
3.109995312E0,-2.793999910E-1,-2.872999907E-1,-1.961399913E0
3.129995312E0,-2.043000013E-1,-3.493999839E-1,-1.571599960E0
3.149995312E0,-5.715999603E-1,-3.862999976E-1,-1.234699965E0
3.179993750E0,-9.032999873E-1,-3.167999983E-1,-1.450399995E0
3.199993750E0,-5.462999940E-1,-6.179999933E-2,-5.260999799E-1
3.219993750E0,3.401999772E-1,-4.098999798E-1,3.659999967E-1
3.239993750E0,7.552999854E-1,-6.913999915E-1,7.728999853E-1
3.259993750E0,6.833999753E-1,-6.969000101E-1,7.268999815E-1
3.279995312E0,4.156000018E-1,-2.104000002E-1,6.696999669E-1
3.309993750E0,1.005299926E0,-6.766999960E-1,2.045799971E0
3.329993750E0,7.619999647E-1,-2.489999868E-2,4.074500084E0
3.349995312E0,5.146999955E-1,6.780000031E-2,4.902199745E0
3.369995312E0,5.543999672E-1,-1.460699916E0,4.427199841E0
3.389995312E0,4.139999747E-1,-2.214799881E0,2.363299847E0
3.419995312E0,3.073099852E0,-1.730999947E0,2.005599976E0
3.439995312E0,2.340899944E0,-4.636999965E-1,4.056299686E0
3.459995312E0,2.125900030E0,7.242999673E-1,2.891199827E0
3.489995312E0,-4.763999879E-1,-8.152999878E-1,1.025499940E0
3.509995312E0,-2.730299950E0,2.263999879E-1,-5.719999969E-2
3.539993750E0,-9.944999814E-1,7.863999605E-1,-1.022699952E0
3.559995312E0,4.432999790E-1,9.680999517E-1,-2.294600010E0
3.589993750E0,7.079999894E-2,1.239399910E0,-2.862599850E0
3.609995312E0,-9.178999662E-1,1.524099946E0,-2.069299936E0
3.629995312E0,-1.129999995E0,8.434000015E-1,-3.776700020E0
3.649995312E0,-1.583299994E0,1.404899955E0,-2.602699995E0
3.669995312E0,-1.526600003E0,1.670499921E0,-6.609999537E-1
3.699995312E0,-6.482999921E-1,1.419699907E0,6.603999734E-1
3.719995312E0,-5.500999689E-1,1.284999967E0,1.031899929E0
3.739995312E0,-1.053099990E0,1.508999944E0,9.774000049E-1
3.759995312E0,-1.303300023E0,1.716499925E0,1.874099970E0
3.779995312E0,-6.283000112E-1,1.418499947E0,2.299399853E0
3.799995312E0,-3.549999893E-1,5.126000047E-1,1.328199983E0
3.819995312E0,3.079999983E-2,4.584999979E-1,2.040699959E0
3.849995312E0,8.370000124E-2,-3.125999868E-1,7.486000061E-1
3.869995312E0,-1.251000017E-1,-2.368999869E-1,1.939199924E0
3.889995312E0,-4.162999988E-1,-5.514000058E-1,1.967999935E0
3.909995312E0,-6.735999584E-1,-7.501999736E-1,2.619199991E0
3.929995312E0,-7.249999642E-1,-1.012199998E0,2.019099951E0
3.949995312E0,3.139999881E-2,-1.485399961E0,2.306499958E0
3.969995312E0,4.871999919E-1,-1.747200012E0,1.434399962E0
3.989995312E0,2.654999793E-1,-1.469900012E0,1.713999957E-1
4.009995312E0,-2.273999900E-1,-7.658999562E-1,-9.179999828E-1
4.039993750E0,-7.299000025E-1,-1.045999974E-1,-2.208799839E0
4.059995312E0,-7.217999697E-1,2.904999852E-1,-2.381700039E0
4.089993750E0,-2.094999999E-1,7.649999857E-2,-2.373299837E0
4.109995312E0,1.667999923E-1,-1.997999996E-1,-2.969300032E0
4.129995312E0,5.216999650E-1,-3.384000063E-1,-3.574299812E0
4.149996875E0,1.039999947E-1,-2.113000005E-1,-2.633199930E0
4.179995312E0,1.124999970E-1,-5.297999978E-1,-1.477299929E0
4.199995312E0,-3.235999942E-1,-2.953999937E-1,-9.264000058E-1
4.219995312E0,-6.043999791E-1,-3.738999963E-1,2.316999882E-1
4.249995312E0,3.608999848E-1,-4.723999798E-1,4.793999791E-1
4.269995312E0,7.956999540E-1,-2.277999967E-1,-6.019999832E-2
4.289995312E0,6.308999658E-1,-4.996999800E-1,1.599999960E-3
4.309995312E0,5.590999722E-1,-5.087999701E-1,1.394899964E0
4.339993750E0,1.041599989E0,-6.940000057E-1,2.122599840E0
4.359996875E0,1.197700024E0,-1.024199963E0,3.029399872E0
4.389995312E0,9.795999527E-1,-1.498799920E0,3.152099848E0
4.419995312E0,1.405599952E0,-1.168200016E0,2.875699997E0
4.449995312E0,2.299200058E0,-1.013499975E0,2.152299881E0
4.479995312E0,1.912199974E0,-6.606000066E-1,3.710999787E-1
4.499995312E0,1.230499983E0,-5.008000135E-1,-2.755999863E-1
4.519995312E0,4.781999886E-1,-1.685999930E-1,-1.064800024E0
4.539995312E0,2.769999802E-1,3.601999879E-1,-1.524199963E0
4.559995312E0,8.999999613E-3,5.322999954E-1,-1.358799934E0
4.589993750E0,-1.061999947E-1,1.029099941E0,-2.252199888E0
4.609995312E0,-3.062999845E-1,8.673999906E-1,-3.252899885E0
4.639995312E0,-7.666999698E-1,1.288699985E0,-3.164999962E0
4.659995312E0,-6.754999757E-1,1.064899921E0,-2.942299843E0
4.679995312E0,-6.279999614E-1,1.150499940E0,-3.182899952E0
4.709995312E0,-4.866999984E-1,5.322999954E-1,-1.983500004E0
4.729995312E0,-7.458999753E-1,1.100999951E0,-1.193300009E0
4.749995312E0,-9.059000015E-1,1.509599924E0,-1.629999995E0
4.779995312E0,-6.010000110E-1,1.812699914E0,-1.547199965E0
4.799995312E0,1.244999990E-1,1.871199965E0,-1.406599998E0
4.819995312E0,1.072700024E0,8.427000046E-1,-2.608999908E-1
4.849995312E0,4.578000009E-1,5.447999835E-1,3.449999988E-1
4.869995312E0,-1.545999944E-1,-3.858999908E-1,1.354999989E-1
4.889995312E0,1.929999888E-1,4.279999807E-2,2.000000000E0
4.909995312E0,1.250899911E0,-3.720000014E-2,1.774699926E0
4.929995312E0,8.305999637E-1,-2.784000039E-1,6.696000099E-1
4.950010937E0,4.795999825E-1,-4.897999763E-1,-1.547199965E0
4.979993750E0,7.874000072E-1,-5.629999638E-1,-4.632499695E0
4.999995312E0,1.420199990E0,-2.377999872E-1,-3.904299974E0
5.019995312E0,9.995999932E-1,-8.231999874E-1,-3.054299831E0
5.039995312E0,1.579399943E0,-1.900699973E0,-2.120699883E0
5.059996875E0,1.784399986E0,-2.169199944E0,-1.760800004E0
5.089995312E0,2.558899879E0,-1.437799931E0,-2.012699842E0
5.109995312E0,1.851599932E0,-1.621899962E0,-2.365299940E0
5.129995312E0,1.781699896E0,-7.759999633E-1,-2.901700020E0
5.149996875E0,1.828399897E0,-1.464200020E0,-3.283599854E0
5.179995312E0,9.204999804E-1,-1.355399966E0,-2.946300030E0
5.209995312E0,1.617900014E0,-2.540199995E0,-3.495399952E0
5.229995312E0,1.693199992E0,-3.274999857E0,-3.623199940E0
5.249995312E0,1.260800004E0,-3.558599949E0,-2.460999966E0
5.269995312E0,1.142899990E0,-4.064899921E0,-1.618799925E0
5.289995312E0,1.461899996E0,-4.711400032E0,-1.525200009E0
5.319993750E0,2.195799828E0,-5.828399658E0,-2.602599859E0
5.339993750E0,2.555299997E0,-6.237599850E0,-3.417799950E0
5.359995312E0,3.266299963E0,-7.933300018E0,-4.126999855E0
5.389995312E0,4.966499805E0,-1.156369972E1,-3.796499968E0
5.419995312E0,4.376899719E0,-8.155099869E0,7.446999550E-1
5.449993750E0,4.106400013E0,-4.352499962E0,5.759899616E0
5.469995312E0,6.058399677E0,-4.772900105E0,7.543299675E0
5.489995312E0,7.598399639E0,-5.758699894E0,6.532099724E0
5.509995312E0,6.898999691E0,-4.550799847E0,4.928299904E0
5.539995312E0,3.333199978E0,-2.087999880E-1,3.369499922E0
5.559995312E0,1.610799909E0,1.663100004E0,4.114299774E0
5.579995312E0,7.858999968E-1,2.794600010E0,5.038199902E0
5.609995312E0,8.352999687E-1,3.677399874E0,4.605400085E0
5.639995312E0,6.887999773E-1,3.913299799E0,3.851599932E0
5.669993750E0,5.570000038E-2,4.044600010E0,3.209399939E0
5.689995312E0,9.149999917E-2,3.793599844E0,2.912600040E0
5.709995312E0,7.272999883E-1,3.376399994E0,3.215600014E0
5.739993750E0,1.209299922E0,3.379799843E0,4.220999718E0
5.759993750E0,1.203599930E0,3.672499895E0,4.549099922E0
5.779995312E0,1.030300021E0,3.926499844E0,4.830999851E0
5.799995312E0,1.408900023E0,4.079400063E0,4.864999771E0
5.829993750E0,3.371099949E0,2.508499861E0,4.000499725E0
5.849995312E0,4.850199699E0,1.513199925E0,4.149799824E0
5.869995312E0,5.244100094E0,1.348299980E0,4.607500076E0
5.889995312E0,5.122200012E0,6.492999792E-1,5.346299648E0
5.909995312E0,4.510799885E0,-4.368000031E-1,5.570399761E0
5.929995312E0,3.351999998E0,-1.101999953E-1,6.105599880E0
5.959993750E0,2.843099833E0,-2.597000003E-1,6.309799671E0
5.979993750E0,3.488799810E0,-1.484899998E0,6.207900047E0
5.999995312E0,4.989399910E0,-3.478999853E0,6.373699665E0
6.029993750E0,6.623999596E0,-5.280200005E0,5.427599907E0
6.049993750E0,6.489099979E0,-4.720999718E0,4.958299637E0
6.069995312E0,5.525399685E0,-3.829499960E0,4.404900074E0
6.089995312E0,4.332200050E0,-2.810400009E0,4.078299999E0
6.109995312E0,3.474900007E0,-2.639499903E0,3.577299833E0
6.129995312E0,3.370299816E0,-3.606400013E0,2.528899908E0
6.149995312E0,3.566399813E0,-5.089999676E0,7.132999897E-1
6.169995312E0,3.725600004E0,-6.378599644E0,-7.452999949E-1
6.189995312E0,3.572299957E0,-7.963099957E0,-1.578999996E0
6.209995312E0,3.081699848E0,-8.534299850E0,-1.871799946E0
6.239995312E0,1.952099919E0,-8.676199913E0,-2.592999935E0
6.259995312E0,1.545399904E0,-8.183199883E0,-2.723700047E0
6.279995312E0,1.094399929E0,-7.583699703E0,-3.073299885E0
6.309993750E0,4.747999907E-1,-7.358099937E0,-3.419299841E0
6.329995312E0,-4.490000010E-2,-6.734999657E0,-3.417599916E0
6.349995312E0,-6.650000066E-2,-6.178999901E0,-3.510299921E0
6.369995312E0,1.069999952E-2,-5.321499825E0,-3.641699791E0
6.399995312E0,1.329599977E0,-4.345299721E0,-3.490999937E0
6.419995312E0,1.926599979E0,-4.029299736E0,-2.862299919E0
6.439995312E0,9.468999505E-1,-2.526099920E0,-2.138799906E0
6.469995312E0,6.819999963E-2,-1.169099927E0,-2.383999825E0
6.489995312E0,3.190999925E-1,-7.861999869E-1,-2.347199917E0
6.509995312E0,1.357900023E0,-8.558999896E-1,-1.364099979E0
6.539993750E0,1.651499987E0,-8.148999810E-1,-7.056999803E-1
6.559995312E0,7.913999557E-1,-3.775999844E-1,-1.258299947E0
6.579995312E0,4.705999792E-1,-1.397999972E-1,-1.146399975E0
6.609995312E0,6.315999627E-1,-5.680000037E-2,-2.870000005E-1
6.639995312E0,9.386000037E-1,3.299999982E-2,-8.046999574E-1
6.669993750E0,3.707000017E-1,1.590999961E-1,-3.607100010E0
6.689993750E0,-4.869999737E-2,4.034000039E-1,-5.333199978E0
6.709995312E0,1.321000010E-1,4.427999854E-1,-5.777899742E0
6.729995312E0,-9.300000034E-3,7.312999964E-1,-5.905099869E0
6.749995312E0,-2.224999964E-1,6.776999831E-1,-5.874000072E0
6.769995312E0,-8.840000033E-1,8.808999658E-1,-5.423099995E0
6.789995312E0,-7.576000094E-1,1.041999936E0,-4.165999889E0
6.819995312E0,-5.482999682E-1,1.014799953E0,-2.145799875E0
6.849995312E0,-4.174000025E-1,1.047999978E0,-1.614899993E0
6.869995312E0,-3.023000062E-1,1.254699945E0,-2.327600002E0
6.899993750E0,6.028000116E-1,1.308499932E0,-3.285300016E0
6.919995312E0,3.319999874E-1,8.023999929E-1,-3.301499844E0
6.939995312E0,-6.290000081E-1,5.737999678E-1,-2.725800037E0
6.959995312E0,-1.178300023E0,-3.700000048E-2,-2.508699894E0
6.989995312E0,1.367599964E0,-9.320999980E-1,-3.317499876E0
7.009995312E0,1.830599904E0,-2.173500061E0,-3.932899952E0
7.039995312E0,-1.499999911E-1,-3.565999985E0,-2.156699896E0
7.059995312E0,-8.170999885E-1,-4.059499741E0,-1.908800006E0
7.079995312E0,1.687999964E-1,-4.391799927E0,-2.167899847E0
7.109995312E0,6.416999698E-1,-5.092099667E0,-5.332099915E0
7.129995312E0,-6.193000078E-1,-5.028399944E0,-7.244099617E0
7.149995312E0,-2.282199860E0,-4.764400005E0,-7.924099922E0
7.169995312E0,-1.194299936E0,-5.388599873E0,-7.391099930E0
7.189995312E0,1.419099927E0,-6.909199715E0,-5.899999619E0
7.209995312E0,3.469899893E0,-8.380700111E0,-4.717599869E0
7.239993750E0,5.770199776E0,-9.201999664E0,-2.005300045E0
7.259995312E0,6.834499836E0,-8.923399925E0,-1.279299974E0
7.279995312E0,8.287899971E0,-8.407899857E0,-1.077199936E0
7.309993750E0,7.839200020E0,-6.732800007E0,-1.148000002E0
7.329993750E0,5.878200054E0,-5.370999813E0,1.769199967E0
7.349995312E0,4.728899956E0,-5.278399944E0,4.559299946E0
7.369995312E0,4.522500038E0,-6.367699623E0,5.151299953E0
7.399993750E0,4.360300064E0,-6.865200043E0,4.640599728E0
7.419995312E0,3.808199883E0,-5.536399841E0,4.057099819E0
7.439995312E0,4.628499985E0,-5.488800049E0,2.620499849E0
7.469995312E0,3.199999809E0,-1.365399957E0,1.373499990E0
7.489995312E0,1.046599984E0,2.053099871E0,2.038300037E0
7.509995312E0,7.768999934E-1,2.861500025E0,3.286599874E0
7.539993750E0,2.773799896E0,9.147999883E-1,5.757199764E0
7.559993750E0,3.797199965E0,-2.759000063E-1,6.934899807E0
7.579993750E0,4.241199970E0,1.164999977E-1,7.756499767E0
7.599993750E0,3.805899858E0,1.037500024E0,7.585000038E0
7.619993750E0,2.238999844E0,2.086099863E0,7.724199772E0
7.639995312E0,4.745999873E-1,3.119099855E0,7.480099678E0
7.669993750E0,-5.800999999E-1,3.241600037E0,5.595900059E0
7.689995312E0,-1.103899956E0,2.971099854E0,4.404799938E0
7.709995312E0,-1.592299938E0,2.952299833E0,3.791299820E0
7.729995312E0,-1.931499958E0,2.599099874E0,3.141899824E0
7.749995312E0,-2.353699923E0,2.893800020E0,2.892999887E0
7.779995312E0,-1.952699900E0,2.726199865E0,2.899499893E0
7.809995312E0,-7.371999621E-1,2.300199986E0,3.313199997E0
7.839993750E0,6.875000000E-1,1.492799997E0,3.628899813E0
7.859995312E0,1.061399937E0,9.559999704E-1,3.842700005E0
7.889993750E0,1.526600003E0,-6.198999882E-1,3.686399937E0
7.909993750E0,2.186499834E0,-1.243999958E0,4.000999928E0
7.929995312E0,3.371699810E0,-1.752299905E0,4.211899757E0
7.949995312E0,4.650499821E0,-3.111099958E0,4.276199818E0
7.979993750E0,4.797499657E0,-3.774499893E0,4.446799755E0
8.000020312E0,4.094399929E0,-2.960500002E0,4.829599857E0
8.029993750E0,5.765999794E0,-5.116199970E0,3.956599951E0
8.049995312E0,7.141899586E0,-7.944299698E0,2.490999937E0
8.069995312E0,6.681599617E0,-9.052199364E0,1.164499998E0
8.099993750E0,3.444399834E0,-7.024199963E0,4.235999882E-1
8.119993750E0,1.045400023E0,-5.016200066E0,1.327999979E-1
8.139995312E0,-9.688999653E-1,-2.967399836E0,-3.434000015E-1
8.169995312E0,-2.074599981E0,-1.746599913E0,-2.349999994E-1
8.189995312E0,-1.350000024E0,-1.583199978E0,-8.389999717E-2
8.209995312E0,2.279999852E-2,-2.301499844E0,-8.709999919E-2
8.239993750E0,1.602999926E0,-2.817099810E0,-5.220999718E-1
8.259995312E0,2.059099913E0,-3.353899956E0,-1.323599935E0
8.279995312E0,2.388499975E0,-4.226999760E0,-2.233399868E0
8.299995312E0,2.118000031E0,-4.053599834E0,-3.157399893E0
8.329995312E0,1.954899907E0,-3.900599957E0,-3.168599844E0
8.349995312E0,1.474299908E0,-4.081299782E0,-3.082099915E0
8.369995312E0,1.215199947E0,-3.577699900E0,-3.203199863E0
8.399993750E0,4.244000018E-1,-2.789099932E0,-4.064399719E0
8.419995312E0,-9.095000029E-1,-1.697499990E0,-5.137300014E0
8.439995312E0,-4.694999754E-1,-1.071499944E0,-4.857699871E0
8.459995312E0,5.684999824E-1,-8.621000051E-1,-4.251999855E0
8.479995312E0,3.917999864E-1,-7.858999968E-1,-1.994599938E0
8.499995312E0,1.472999901E-1,-6.700000167E-2,-4.910000041E-2
8.530001562E0,1.083899975E0,-1.156299949E0,1.385800004E0
8.550009375E0,-1.319999993E-1,-6.746000051E-1,-4.900000058E-3
8.579995312E0,2.249999940E-1,-1.037699938E0,-6.572999954E-1
8.609995312E0,5.065000057E-1,-1.344900012E0,-5.680999756E-1
8.639995312E0,5.845999718E-1,-1.087000012E0,-6.240000129E-1
8.659995312E0,8.700999618E-1,-8.964999914E-1,-1.370700002E0
8.679995312E0,1.235299945E0,-7.339000106E-1,-1.526600003E0
8.709995312E0,4.439999759E-1,9.239999950E-2,-1.425300002E0
8.729995312E0,1.059999987E-1,6.482999921E-1,-1.152699947E0
8.749995312E0,2.685999870E-1,6.279000044E-1,-1.718400002E0
8.779995312E0,5.730000138E-1,8.793999553E-1,-1.534299970E0
8.799995312E0,3.935000002E-1,1.092100024E0,-1.074900031E0
8.829993750E0,-6.585999727E-1,1.524899960E0,-2.387799978E0
8.849995312E0,-9.631999731E-1,1.921199918E0,-2.747999907E0
8.869995312E0,-7.881000042E-1,1.883699894E0,-1.413800001E0
8.899995312E0,-8.145999908E-1,1.736199975E0,-6.214999557E-1
8.919995312E0,-1.151999950E0,1.976499915E0,-4.019999877E-2
8.939995312E0,-1.207000017E0,1.587799907E0,7.885999680E-1
8.969995312E0,-9.544999599E-1,5.814999938E-1,1.894499898E0
8.989995312E0,-1.214100003E0,6.373999715E-1,1.008199930E0
9.009995312E0,-1.273599982E0,6.943999529E-1,8.876000047E-1
9.029995312E0,-1.140799999E0,2.597999871E-1,1.216400027E0
9.049995312E0,-6.414999962E-1,-2.892999947E-1,1.634799957E0
9.069995312E0,-1.208199978E0,-3.782999814E-1,1.374300003E0
9.099995312E0,-5.447999835E-1,-4.497999847E-1,4.996999800E-1
9.129995312E0,4.088999927E-1,-8.050000072E-1,9.484999776E-1
9.149996875E0,4.235999882E-1,-1.022899985E0,1.289499998E0
9.179995312E0,-6.114000082E-1,-1.087599993E0,3.399999812E-3
9.199995312E0,-1.289199948E0,-9.590999484E-1,-3.829999864E-1
9.219995312E0,-1.258599997E0,-6.003999710E-1,-1.111199975E0
9.249995312E0,-6.750000119E-1,-4.231999815E-1,-8.913999796E-1
9.279995312E0,-1.430999935E-1,-6.954999566E-1,-1.371899962E0
9.309995312E0,-2.022999972E-1,-7.317000031E-1,-1.931399941E0
9.339993750E0,-3.075000048E-1,-7.497000098E-1,-1.744300008E0
9.359995312E0,-3.935000002E-1,-6.286000013E-1,-1.923799992E0
9.389993750E0,-1.155699968E0,-1.972000003E-1,-2.269599915E0
9.409995312E0,-1.808200002E0,2.292999923E-1,-1.729099989E0
9.429995312E0,-1.394899964E0,6.419999897E-2,-1.478599906E0
9.459993750E0,-1.229999959E-1,2.892999947E-1,-7.914999723E-1
9.479995312E0,-2.728999853E-1,8.590999842E-1,-1.237000003E-1
9.499995312E0,-6.642000079E-1,1.205899954E0,1.003600001E0
9.530003125E0,4.029999971E-1,8.643999696E-1,4.979399681E0
9.559993750E0,8.030999899E-1,-1.912999898E-1,4.970299721E0
9.579993750E0,4.921000004E-1,-2.160999924E-1,3.938799858E0
9.599993750E0,4.151999950E-1,-2.155999988E-1,2.963299990E0
9.619993750E0,9.555999637E-1,-1.659999974E-2,2.023000002E0
9.639995312E0,1.912999988E0,-7.229999453E-2,1.853399992E0
9.669993750E0,2.017899990E0,-1.577999890E-1,1.462399960E0
9.689995312E0,1.542400002E0,-5.357999802E-1,8.722999692E-1
9.709995312E0,1.077600002E0,-8.877999783E-1,-4.202999771E-1
9.729995312E0,1.114499927E0,-1.253199935E0,-1.821200013E0
9.749995312E0,7.372999787E-1,-8.538999557E-1,-3.087800026E0
9.779995312E0,-2.606999874E-1,-3.325999975E-1,-4.456900120E0
9.809995312E0,-1.227999926E0,-2.131999880E-1,-4.512599945E0
9.839995312E0,-1.649199963E0,1.238999963E-1,-3.543599844E0
9.859995312E0,-1.179099917E0,7.960999608E-1,-2.875399828E0
9.889993750E0,-5.928999782E-1,2.119299889E0,-1.693099976E0
9.909995312E0,5.777999759E-1,2.679999828E0,-6.960000098E-2
9.929995312E0,3.002899885E0,2.503000021E0,1.499199986E0
9.950010937E0,4.323400021E0,1.598599911E0,2.202600002E0
9.979993750E0,4.321899891E0,9.842000008E-1,4.346999824E-1
9.999995312E0,3.499199867E0,1.298099995E0,-6.593999863E-1
1.002999375E1,1.762799978E0,1.360700011E0,-5.541999936E-1
1.004999531E1,1.455799937E0,-2.065999955E-1,1.662999988E-1
1.006999531E1,8.973000050E-1,-1.392799973E0,-2.797999978E-1
1.008999531E1,-5.483999848E-1,-1.640399933E0,-1.702899933E0
1.010999531E1,-1.371199965E0,-1.516600013E0,-2.867100000E0
1.013999531E1,2.580199957E0,-1.788899899E0,-1.985299945E0
1.015999531E1,2.932099819E0,-3.050400019E0,-2.101699829E0
1.017999531E1,8.172999620E-1,-2.390399933E0,-1.051699996E0
1.019999531E1,-3.559999764E-1,-2.361399889E0,-2.219199896E0
1.021999531E1,1.180400014E0,-1.610599995E0,-3.401099920E0
1.024999531E1,3.122099876E0,-1.398699999E0,-2.001999855E0
1.026999531E1,2.326299906E0,-1.480700016E0,-2.198499918E0
1.028999531E1,1.230899930E0,-1.386299968E0,-3.903399944E0
1.031999375E1,6.056999564E-1,-2.134299994E0,-5.595499992E0
1.033999531E1,1.596300006E0,-1.664699912E0,-5.322799683E0
1.035999531E1,3.096799850E0,-3.371299982E0,-5.177299976E0
1.038999375E1,1.104599953E0,-4.429299831E0,-4.520800114E0
1.040999531E1,-5.157999992E-1,-4.954099655E0,-3.430599928E0
1.042999531E1,-1.039000005E-1,-6.464699745E0,-3.469299793E0
1.045999531E1,2.628999949E0,-8.742400169E0,-4.165899754E0
1.048999375E1,4.471399784E0,-1.099109936E1,-4.446399689E0
1.050999531E1,4.988999844E0,-1.312580013E1,-4.198499680E0
1.053999375E1,4.294399738E0,-1.232289982E1,-9.989999533E-1
1.055999375E1,5.067299843E0,-1.058899975E1,2.662999868E0
1.057999531E1,7.795099735E0,-1.071459961E1,4.798699856E0
1.060999531E1,1.129799938E1,-1.200469971E1,4.760099888E0
1.063999531E1,1.052549934E1,-7.953399658E0,4.216899872E0
1.065999531E1,7.420399666E0,-3.411299944E0,5.872999668E0
1.068999375E1,3.667699814E0,5.817999840E-1,6.322499752E0
1.070999531E1,2.399799824E0,2.823699951E0,5.487400055E0
1.072999531E1,2.889699936E0,4.044899940E0,4.479499817E0
1.075999531E1,3.702199936E0,3.875099897E0,3.417399883E0
1.077999531E1,3.458999872E0,3.432899952E0,4.362800121E0
1.080999375E1,2.317499876E0,3.331300020E0,6.530699730E0
1.082999375E1,1.880999923E0,3.260399818E0,8.078599930E0
1.084999531E1,1.697899938E0,3.533999920E0,9.023399353E0
1.087999375E1,2.358599901E0,3.272899866E0,9.784799576E0
1.089999531E1,2.789299965E0,2.654899836E0,9.687299728E0
1.091999531E1,2.622299910E0,2.373299837E0,9.847299576E0
1.093999531E1,2.247699976E0,1.506699920E0,1.019329929E1
1.096999531E1,2.712599993E0,-8.482999802E-1,1.127859974E1
1.099999531E1,3.517400026E0,-2.249099970E0,1.105499935E1
1.101999531E1,4.566499710E0,-3.851199865E0,9.328000069E0
1.104999375E1,3.973099947E0,-3.267599821E0,7.697799683E0
1.106999531E1,4.663199902E0,-3.744699955E0,7.185400009E0
1.108999531E1,6.009899616E0,-4.899600029E0,6.970399857E0
1.110999531E1,7.590699673E0,-7.763899803E0,6.023999691E0
1.113999531E1,7.148799896E0,-1.031479931E1,4.969500065E0
1.116999375E1,4.126599789E0,-9.179800034E0,3.963399887E0
1.118999375E1,1.765899897E0,-8.072999954E0,2.476399899E0
1.120999531E1,-4.609999955E-1,-6.773200035E0,1.061299920E0
1.123999375E1,-1.512599945E0,-5.998899937E0,1.708000004E-1
1.125999531E1,-1.766600013E0,-5.691899776E0,-9.539999813E-2
1.127999531E1,-1.995799899E0,-5.903599739E0,-4.649999738E-1
1.130999375E1,-2.222199917E0,-6.810599804E0,-1.067099929E0
1.132999531E1,-2.714900017E0,-7.433499813E0,-1.627499938E0
1.134999531E1,-3.229799986E0,-7.850899696E0,-1.839899898E0
1.136999531E1,-3.627199888E0,-7.865199566E0,-1.802699924E0
1.139999531E1,-3.926499844E0,-7.687899590E0,-1.187500000E0
1.141999531E1,-4.470999718E0,-7.307499886E0,-5.572999716E-1
1.143999531E1,-4.724199772E0,-7.252699852E0,-1.351999938E-1
1.145999531E1,-4.790999889E0,-7.568199635E0,-3.928000033E-1
1.148999375E1,-5.319999695E0,-8.043600082E0,-6.186000109E-1
1.150999531E1,-5.920599937E0,-8.009699821E0,-6.498999596E-1
1.153999375E1,-5.975599766E0,-7.832499981E0,-4.497999847E-1
1.155999375E1,-5.528199673E0,-7.762300014E0,-7.611999512E-1
1.157999531E1,-5.834699631E0,-6.550799847E0,-4.502999783E-1
1.160999531E1,-4.623600006E0,-5.490799904E0,-9.039999545E-2
1.163999531E1,-1.257699966E0,-8.148300171E0,-6.868000031E-1
1.166999375E1,-8.666999936E-1,-9.830699921E0,-8.707999587E-1
1.168999531E1,-1.774299979E0,-8.746999741E0,-3.668999970E-1
1.170999531E1,-1.309499979E0,-7.274600029E0,-4.420999885E-1
1.172999531E1,1.814000010E-1,-6.397999763E0,-6.179000139E-1
1.174999531E1,1.197000027E0,-5.339099884E0,-4.476999938E-1
1.176999531E1,1.303399920E0,-4.412199974E0,-3.571999967E-1
1.178999531E1,9.732999802E-1,-3.710599899E0,-5.942999721E-1
1.180999531E1,1.522300005E0,-3.249199867E0,-7.673999667E-1
1.182999531E1,3.577699900E0,-3.519699812E0,-2.365999967E-1
1.184999531E1,4.819600105E0,-2.975499868E0,8.729999661E-1
1.186999531E1,5.583899975E0,-2.655799866E0,1.989999890E0
1.188999531E1,6.600899696E0,-1.652400017E0,3.202600002E0
1.190999531E1,8.208099365E0,-6.858999729E-1,3.439999819E0
1.192999531E1,9.241999626E0,5.806999803E-1,3.567600012E0
1.194999531E1,9.722099304E0,2.121199846E0,4.556099892E0
1.196999531E1,1.017809963E1,3.810499907E0,5.984600067E0
1.199999531E1,1.261489964E1,2.653399944E0,8.606699944E0
1.201999531E1,1.105859947E1,1.757999897E0,1.036089993E1
1.203999531E1,6.944399834E0,1.510999918E0,1.104500008E1
1.205999531E1,4.656799793E0,2.541999817E-1,1.048269939E1
1.207999531E1,3.669199944E0,5.507000089E-1,9.874400139E0
1.210999531E1,5.319599628E0,4.023000002E-1,8.805500031E0
1.212999531E1,7.473099709E0,-6.434999704E-1,8.183599472E0
1.214999531E1,1.010559940E1,-3.038100004E0,7.191899776E0
1.216999531E1,1.190929985E1,-6.033199787E0,6.165599823E0
1.218999531E1,1.121089935E1,-6.994400024E0,5.850599766E0
1.220999531E1,8.052700043E0,-5.350299835E0,6.112499714E0
1.222999531E1,4.601099968E0,-3.742199898E0,5.322400093E0
1.225999531E1,2.500799894E0,-3.982399940E0,2.832399845E0
1.227999531E1,2.236700058E0,-5.090199947E0,1.406199932E0
1.230999375E1,1.203199983E0,-6.204799652E0,1.548999995E-1
1.232999531E1,1.435000002E-1,-6.709899902E0,-2.145999968E-1
1.234999531E1,-1.189800024E0,-7.425799847E0,-2.949000001E-1
1.236999531E1,-2.371700048E0,-7.558399677E0,-2.107999921E-1
1.239999531E1,-4.453799725E0,-7.614799976E0,-3.366999924E-1
1.241999531E1,-5.651599884E0,-7.412600040E0,-3.750000000E-1
1.243999531E1,-6.330999851E0,-7.399999619E0,-4.833999872E-1
1.245999531E1,-6.872499943E0,-7.184999943E0,-5.774999857E-1
1.247999531E1,-6.809700012E0,-7.122699738E0,-7.815999985E-1
1.249999531E1,-6.450899601E0,-7.467700005E0,-1.209200025E0
1.252999375E1,-6.274199963E0,-7.728099823E0,-1.640699983E0
1.254999375E1,-6.725499630E0,-6.755300045E0,-1.519699931E0
1.256999531E1,-6.206799984E0,-7.175199986E0,-1.928799987E0
1.259999375E1,-6.202499866E0,-5.657199860E0,-1.898599982E0
1.261999531E1,-5.159699917E0,-5.265100002E0,-1.284600019E0
1.263999531E1,-3.310400009E0,-5.639999866E0,-8.021999598E-1
1.266999375E1,-4.404999912E-1,-8.591099739E0,-1.273699999E0
1.268999375E1,-3.304999769E-1,-9.236800194E0,-9.677999616E-1
1.270999531E1,-7.246999741E-1,-8.387000084E0,-5.207999945E-1
1.272999531E1,-1.691000015E-1,-7.184199810E0,-4.770999849E-1
1.275999531E1,1.113699913E0,-5.264599800E0,-4.499999806E-2
1.277999531E1,1.205399990E0,-3.631599903E0,3.836999834E-1
1.280999531E1,4.642999768E-1,-1.218299985E0,6.408999562E-1
1.282999531E1,7.817999721E-1,-2.397999913E-1,4.554999769E-1
1.284999531E1,1.215899944E0,7.566999793E-1,-6.960000098E-2
1.286999531E1,1.550599933E0,1.015399933E0,-3.298999965E-1
1.289999375E1,2.406999826E0,2.506999969E-1,2.951999903E-1
1.291999531E1,2.541899920E0,2.669000030E-1,1.015499949E0
1.293999531E1,3.327699900E0,4.669999778E-1,1.740899920E0
1.296999531E1,4.639400005E0,1.338999987E0,1.444199920E0
1.299999531E1,5.935499668E0,2.033999920E0,7.846999764E-1
1.302999375E1,7.755799770E0,2.084399939E0,1.507300019E0
1.304999375E1,8.680299759E0,1.792699933E0,2.693399906E0
1.306999531E1,9.613100052E0,1.396699905E0,5.009799957E0
1.308999531E1,1.016279984E1,8.337999582E-1,7.223899841E0
1.310999531E1,9.914999962E0,1.121399999E0,8.899600029E0
1.312999531E1,8.877299309E0,2.290499926E0,9.869500160E0
1.314999531E1,8.569399834E0,2.308099985E0,9.562999725E0
1.317999531E1,1.000379944E1,-1.547999978E0,6.558699608E0
1.320999531E1,9.005199432E0,-3.552500010E0,5.310599804E0
1.322999531E1,6.939300060E0,-2.806900024E0,4.785500050E0
1.325999531E1,3.855399847E0,-1.199399948E0,3.445199966E0
1.327999531E1,2.335199833E0,-7.418000102E-1,2.435999870E0
1.329999531E1,1.472700000E0,-8.790999651E-1,1.618899941E0
1.332999531E1,6.626999974E-1,-1.853500009E0,7.889999449E-2
1.334999531E1,2.099999972E-2,-2.878799915E0,-4.580999911E-1
1.336999531E1,-5.124999881E-1,-3.723299980E0,-7.192999721E-1
1.339999375E1,-1.671000004E0,-5.438600063E0,-9.351999760E-1
1.341999375E1,-2.485999823E0,-5.963799953E0,-7.545999885E-1
1.343999531E1,-3.458699942E0,-6.049099922E0,-7.220999599E-1
1.346999531E1,-5.001399994E0,-6.164000034E0,-6.047999859E-1
1.349999531E1,-6.279900074E0,-6.062200069E0,-6.390999556E-1
1.352999375E1,-6.380899906E0,-6.977799892E0,-1.464100003E0
1.354999375E1,-6.017299652E0,-6.954999924E0,-2.104899883E0
1.356999531E1,-5.415199757E0,-6.635299683E0,-2.387500048E0
1.359999531E1,-4.278999805E0,-6.696499825E0,-2.986099958E0
1.362999375E1,-4.469199657E0,-5.453099728E0,-1.358600020E0
1.364999531E1,-4.076299667E0,-4.009500027E0,7.148999572E-1
1.366999531E1,-1.793599963E0,-4.513599873E0,1.221400023E0
1.369999375E1,1.007599950E0,-6.544600010E0,2.430000007E-1
1.371999531E1,1.013000011E0,-5.939899921E0,-2.527999878E-1
1.374999375E1,3.874999881E-1,-3.746399879E0,-1.156700015E0
1.376999375E1,1.070999950E-1,-2.901799917E0,-1.662899971E0
1.378999531E1,-5.625999570E-1,-2.024999857E0,-1.211199999E0
1.380999531E1,-1.167500019E0,-1.246899962E0,-5.943999887E-1
1.383999375E1,-1.671599984E0,2.093999982E-1,-2.879999876E-1
1.385999531E1,-1.157099962E0,6.355999708E-1,-1.030900002E0
1.388999375E1,1.772999913E-1,7.480999827E-1,-1.639499903E0
1.390999375E1,8.628999591E-1,7.249999642E-1,-1.509799957E0
1.392999531E1,1.731099963E0,6.301000118E-1,-1.307099938E0
1.394999531E1,2.414799929E0,7.940999866E-1,-5.468999743E-1
1.396999531E1,2.937799931E0,1.782099962E0,7.598999739E-1
1.399999531E1,3.467899799E0,2.751199961E0,2.036599874E0
1.402999375E1,4.080299854E0,2.718400002E0,2.932799816E0
1.404999531E1,4.833099842E0,2.101699829E0,3.695199966E0
1.406999531E1,5.344099998E0,1.388099909E0,4.464600086E0
1.408999531E1,4.888499737E0,1.806199908E0,5.808199883E0
1.410999531E1,3.756500006E0,2.105999947E0,7.705299854E0
1.413999531E1,2.319299936E0,4.842000008E-1,8.869099617E0
1.416999375E1,1.739699960E0,3.999999724E-3,8.977700233E0
1.418999531E1,3.128299952E0,-1.262199998E0,8.034699440E0
1.420999531E1,4.596299648E0,-2.597899914E0,7.722499847E0
1.422999531E1,5.706399918E0,-3.055699825E0,7.589900017E0
1.425999531E1,6.129499912E0,-3.103899956E0,6.231299877E0
1.427999531E1,3.765699863E0,-1.269799948E0,5.388400078E0
1.429999531E1,9.411000013E-1,8.509999514E-1,4.823299885E0
1.432999531E1,-5.863999724E-1,1.363999963E0,3.401700020E0
1.434999531E1,-3.443999887E-1,5.914999843E-1,2.438799858E0
1.436999531E1,-3.859999776E-2,-4.624999762E-1,1.079999924E0
1.438999531E1,-3.341999948E-1,-1.576399922E0,-1.240999937E0
1.440999531E1,-1.416299939E0,-2.209100008E0,-3.106799841E0
1.442999531E1,-2.697199821E0,-2.257900000E0,-4.166500092E0
1.444999531E1,-3.423199892E0,-1.911799908E0,-4.098400116E0
1.446999531E1,-3.276399851E0,-1.848099947E0,-3.251099825E0
1.449999531E1,-2.680500031E0,-2.138399839E0,-3.240899801E0
1.452999375E1,-2.121799946E0,-3.751799822E0,-7.128999710E0
1.454999531E1,-3.195299864E0,-4.810999870E0,-8.927399635E0
1.456999531E1,-4.895999908E0,-3.977399826E0,-9.140500069E0
1.458999531E1,-3.749499798E0,-3.345099926E0,-7.265100002E0
1.460999531E1,3.274999857E-1,-6.058799744E0,-5.225100040E0
1.463999531E1,4.394199848E0,-9.641599655E0,-3.567499876E0
1.465999531E1,3.273699999E0,-9.028499603E0,-1.880199909E0
1.468999531E1,-1.668599963E0,-3.694899797E0,3.309899807E0
1.470999531E1,-1.728500009E0,-4.216599941E0,4.514499664E0
1.472999531E1,-6.549999714E-1,-4.856599808E0,2.877899885E0
1.475999531E1,6.444999576E-1,-5.047299862E0,-5.385999680E-1
1.477999531E1,2.231999934E-1,-3.736599922E0,-1.772499919E0
1.479999531E1,-7.708999515E-1,-2.229199886E0,-1.639599919E0
1.482999531E1,-2.316400051E0,-2.467999905E-1,-5.522999763E-1
1.484999531E1,-2.991600037E0,8.147000074E-1,6.769999862E-2
1.486999531E1,-3.273099899E0,1.259199977E0,-2.139999904E-2
1.489999375E1,-3.404299974E0,1.673200011E0,-6.292999983E-1
1.491999375E1,-3.021899939E0,1.856299996E0,-9.750999808E-1
1.493999531E1,-2.166800022E0,1.914399981E0,-1.023100019E0
1.496999531E1,-5.898000002E-1,1.906899929E0,-5.654999614E-1
1.499999531E1,2.097300053E0,1.353600025E0,9.654999971E-1
1.502999375E1,4.909199715E0,1.058699965E0,2.405599833E0
1.504999531E1,6.521699905E0,1.081900001E0,2.800099850E0
1.506999531E1,8.259599686E0,1.465499997E0,3.342000008E0
1.508999531E1,1.022690010E1,1.863599896E0,4.481100082E0
1.510999531E1,1.215139961E1,1.893999934E0,6.998499870E0
1.513999531E1,1.337209988E1,6.984999776E-1,8.844999313E0
1.515999531E1,1.159299946E1,1.363499999E0,9.480899811E0
1.518999531E1,9.011799812E0,-4.368999898E-1,7.482100010E0
1.520999531E1,8.451999664E0,-2.914999962E0,5.471999645E0
1.522999531E1,8.187399864E0,-5.314499855E0,4.551700115E0
1.524999531E1,6.575799942E0,-5.048399925E0,5.088599682E0
1.527999688E1,3.136899948E0,-2.447000027E0,5.001399994E0
1.530999375E1,1.254599929E0,-1.887799978E0,2.921200037E0
1.532999531E1,4.296000004E-1,-2.417899847E0,1.900399923E0
1.534999531E1,-8.332999945E-1,-2.494799852E0,7.731999755E-1
1.536999531E1,-2.145999908E0,-2.166199923E0,-1.552999914E-1
1.539999531E1,-3.092799902E0,-2.071699858E0,-1.136600018E0
1.542999531E1,-2.914799929E0,-2.936100006E0,-1.804099917E0
1.545999375E1,-3.411499977E0,-3.501199961E0,-1.780900002E0
1.547999531E1,-3.565299988E0,-3.641799927E0,-1.324800014E0
1.549999531E1,-3.543299913E0,-4.154900074E0,-8.291999698E-1
1.552999375E1,-5.017999649E0,-4.276700020E0,-1.383000016E-1
1.554999375E1,-5.712599754E0,-4.572400093E0,4.511999786E-1
1.556999531E1,-5.880099773E0,-5.482800007E0,8.108999729E-1
1.558999531E1,-6.207699776E0,-6.337100029E0,3.646999896E-1
1.560999531E1,-6.929399967E0,-6.277099609E0,-9.099999815E-2
1.563999531E1,-6.451799870E0,-6.145400047E0,-6.369999796E-2
1.566999375E1,-5.169699669E0,-6.029299736E0,-6.711999774E-1
1.568999375E1,-5.110699654E0,-5.453199863E0,-3.804000020E-1
1.570999531E1,-4.391499996E0,-4.427499771E0,4.802999794E-1
1.572999531E1,-2.618700027E0,-5.002699852E0,8.894999623E-1
1.575999531E1,-3.741999865E-1,-6.857999802E0,6.390999556E-1
1.577999531E1,5.832999945E-1,-7.167699814E0,4.048999846E-1
1.579999531E1,6.218999624E-1,-5.874799728E0,2.324999869E-1
1.582999375E1,-1.972000003E-1,-2.977499962E0,4.912000000E-1
1.584999531E1,-4.705999792E-1,-1.322899938E0,1.676999927E-1
1.586999531E1,-8.217999935E-1,-4.482999742E-1,-3.867000043E-1
1.589999531E1,-9.978999496E-1,6.554999948E-1,-5.457999706E-1
1.592999531E1,-2.520000003E-2,1.226899981E0,-1.664999962E0
1.594999531E1,9.310999513E-1,1.870299935E0,-2.544800043E0
1.596999531E1,1.842000008E0,1.983199954E0,-3.176399946E0
1.599999531E1,3.014999866E0,1.799899936E0,-2.336099863E0
1.602999375E1,4.715399742E0,1.399500012E0,-3.651999831E-1
1.604999375E1,5.488699913E0,1.259799957E0,2.648999989E-1
1.606999531E1,5.723799706E0,1.534199953E0,8.120999932E-1
1.608999531E1,6.410599709E0,1.335699916E0,1.084800005E0
1.610999531E1,7.605199814E0,9.727999568E-1,1.169700027E0
1.613999531E1,8.051499367E0,1.984399915E0,2.533900023E0
1.616999375E1,8.578999519E0,1.167299986E0,4.844099998E0
1.618999375E1,8.107500076E0,9.740999937E-1,6.288399696E0
1.620999531E1,6.908299923E0,1.469799995E0,7.174099922E0
1.623999375E1,5.751800060E0,1.732499957E0,7.333499908E0
1.625999531E1,6.185400009E0,7.996000051E-1,6.334199905E0
1.627999531E1,6.618999958E0,-6.089999676E-1,5.289099693E0
1.629999531E1,6.523799896E0,-1.624300003E0,4.670399666E0
1.632999531E1,5.839600086E0,-2.210500002E0,3.943899870E0
1.635999531E1,3.812599897E0,-1.084200025E0,2.964099884E0
1.638999375E1,2.049099922E0,-2.194999903E-1,1.910899997E0
1.640999531E1,1.405799985E0,-3.955000043E-1,1.170899987E0
1.642999531E1,7.337999940E-1,-9.406999946E-1,5.137000084E-1
1.644999531E1,-3.889999911E-2,-1.340699911E0,-8.929999918E-2
1.646999531E1,-1.003399968E0,-1.682699919E0,-5.505999923E-1
1.649999531E1,-2.386800051E0,-2.196899891E0,-1.135100007E0
1.651999531E1,-2.682199955E0,-3.113299847E0,-1.691699982E0
1.654999531E1,-3.500999928E0,-4.081399918E0,-2.079599857E0
1.656999531E1,-3.857599974E0,-4.924799919E0,-2.713199854E0
1.659999375E1,-5.265599728E0,-5.376800060E0,-3.259899855E0
1.661999375E1,-6.189699650E0,-5.142299652E0,-2.749699831E0
1.663999531E1,-6.473199844E0,-5.469999790E0,-2.103999853E0
1.666999375E1,-6.138599873E0,-6.088199615E0,-9.080999494E-1
1.668999531E1,-5.305999756E0,-7.303199768E0,-6.790999770E-1
1.670999531E1,-4.937900066E0,-7.217700005E0,-1.854999959E-1
1.673999531E1,-5.038799763E0,-5.208399773E0,1.282400012E0
1.675999531E1,-3.635299921E0,-4.300600052E0,2.016399860E0
1.677999688E1,-1.192399979E0,-4.492799759E0,1.863599896E0
1.680999375E1,1.662999988E0,-5.807199955E0,1.115599990E0
1.682999531E1,1.702199936E0,-5.845699787E0,1.578999907E-1
1.685999531E1,-4.848999977E-1,-3.231799841E0,-9.623999596E-1
1.688999375E1,-1.481599927E0,-8.637999892E-1,-1.387300014E0
1.690999375E1,-1.172799945E0,-4.499999806E-3,-5.859999657E-1
1.692999531E1,-8.271999955E-1,5.643000007E-1,3.186999857E-1
1.694999531E1,-7.989000082E-1,7.824999690E-1,7.757999897E-1
1.696999531E1,-9.756000042E-1,1.227299929E0,1.019099951E0
1.699999531E1,-8.370999694E-1,1.582299948E0,1.032500029E0
1.701999531E1,-6.419999897E-2,1.697899938E0,7.172999978E-1
1.703999531E1,9.533999562E-1,2.168999910E0,6.463999748E-1
1.706999531E1,4.275099754E0,2.787299871E0,-5.749999732E-2
1.708999531E1,5.072099686E0,2.436899900E0,-1.383499980E0
1.711999375E1,4.125299931E0,2.783299923E0,-2.509799957E0
1.713999531E1,5.573699951E0,2.367699862E0,-2.343600035E0
1.716999375E1,9.028399467E0,2.752799988E0,-1.748199940E0
1.718999375E1,1.036559963E1,4.024099827E0,-1.103999987E-1
1.720999531E1,1.162650013E1,2.743299961E0,1.565499902E0
1.722999531E1,1.030579948E1,1.868299961E0,3.472800016E0
1.725999531E1,6.247499943E0,1.256799936E0,5.881000042E0
1.727999688E1,6.677399635E0,-1.327099919E0,5.624399662E0
1.730999375E1,8.817699432E0,-4.782599926E0,5.274499893E0
1.732999375E1,8.439899445E0,-4.817399979E0,5.696499825E0
1.734999375E1,6.184599876E0,-2.992199898E0,5.885200024E0
1.736999531E1,3.885900021E0,-1.105499983E0,5.553499699E0
1.738999531E1,1.525200009E0,5.914999843E-1,4.549499989E0
1.740999531E1,-2.277999967E-1,1.520399928E0,3.144299984E0
1.742999531E1,-1.069100022E0,1.660699964E0,1.960799932E0
1.744999531E1,-8.953999877E-1,7.644999623E-1,1.314599991E0
1.746999531E1,-7.038999796E-1,-1.376999915E-1,8.889999986E-1
1.749999531E1,-2.124999911E-1,-2.478499889E0,-4.794999957E-1
1.752999375E1,-8.802999854E-1,-4.379399776E0,-1.160899997E0
1.754999531E1,-1.680599928E0,-4.526199818E0,-2.773000002E-1
1.756999531E1,-2.545799971E0,-4.361999989E0,2.184999883E-1
1.759999375E1,-3.660199881E0,-4.862199783E0,-2.184999883E-1
1.761999375E1,-4.089999676E0,-5.572599888E0,-2.906000018E-1
1.763999531E1,-4.328599930E0,-6.490099907E0,-3.058999777E-1
1.766999375E1,-5.288899899E0,-5.988100052E0,2.243999988E-1
1.768999375E1,-5.275899887E0,-5.538300037E0,1.064899921E0
1.770999531E1,-4.646599770E0,-6.025599957E0,8.639999628E-1
1.772999531E1,-5.267299652E0,-4.816999912E0,1.028900027E0
1.775999531E1,-3.886199951E0,-5.113800049E0,2.474999875E-1
1.777999531E1,-1.875099897E0,-6.303299904E0,-4.217999876E-1
1.779999531E1,-8.890999556E-1,-6.160299778E0,2.064999938E-1
1.782999531E1,-3.680999875E-1,-4.931499958E0,9.126999974E-1
1.784999531E1,-8.070999980E-1,-4.051499844E0,-8.789999783E-2
1.786999531E1,-1.770999908E0,-3.005199909E0,-1.217800021E0
1.789999531E1,-3.136899948E0,-1.203699946E0,-1.797499895E0
1.792999531E1,-3.350499868E0,-3.181999922E-1,-5.776999593E-1
1.794999531E1,-2.995699883E0,-1.958999932E-1,1.958999932E-1
1.796999531E1,-3.005100012E0,-5.489999801E-2,3.825999796E-1
1.798999531E1,-3.160300016E0,3.403999805E-1,4.711999893E-1
1.800999531E1,-2.645299911E0,1.776999980E-1,7.021999955E-1
1.802999531E1,-1.410099983E0,8.850000054E-2,1.071499944E0
1.804999531E1,8.389999717E-2,-1.134999990E-1,1.153599977E0
1.806999688E1,1.867299914E0,-2.002999932E-1,9.934999943E-1
1.808999688E1,3.703099966E0,2.651000023E-1,2.203999907E-1
1.811999688E1,6.271399975E0,1.295799971E0,-2.454900026E0
1.813999688E1,8.446700096E0,1.651199937E0,-4.021299839E0
1.815999688E1,9.869599342E0,1.512799978E0,-4.616300106E0
1.818999688E1,9.599599838E0,2.484799862E0,-2.817600012E0
1.820999688E1,9.184700012E0,2.327800035E0,1.931999922E-1
1.822999688E1,8.345700264E0,1.649299979E0,2.977399826E0
1.824999688E1,6.474299908E0,2.259299994E0,6.261499882E0
1.826999688E1,4.727499962E0,2.475800037E0,8.509699821E0
1.828999688E1,4.788499832E0,6.337999701E-1,8.681200027E0
1.830999688E1,6.281699657E0,-2.583699942E0,7.236899853E0
1.832999688E1,7.163799763E0,-4.032400131E0,6.625299931E0
1.835999688E1,6.363699913E0,-2.588899851E0,5.732500076E0
1.838999531E1,4.196799755E0,-3.085999787E-1,4.148600101E0
1.840999531E1,2.492499828E0,9.532999992E-1,3.646600008E0
1.842999531E1,9.884999990E-1,1.848599911E0,3.332199812E0
1.844999688E1,5.076000094E-1,1.666799903E0,2.863199949E0
1.846999688E1,5.349999666E-1,9.225999713E-1,2.282299995E0
1.848999688E1,9.606999755E-1,-2.236999869E-1,1.630899906E0
1.850999688E1,1.246899962E0,-1.585699916E0,9.346999526E-1
1.852999688E1,9.002999663E-1,-2.931399822E0,8.679999411E-2
1.854999688E1,-3.590999842E-1,-3.558899879E0,-5.138999820E-1
1.856999688E1,-1.988799930E0,-3.614599943E0,-3.465999961E-1
1.858999688E1,-3.136799812E0,-3.632900000E0,2.008000016E-1
1.860999688E1,-3.764099836E0,-3.790199995E0,2.773999870E-1
1.862999688E1,-4.052700043E0,-4.553599834E0,2.264999896E-1
1.864999688E1,-4.213699818E0,-5.218699932E0,2.712999880E-1
1.866999688E1,-4.709700108E0,-5.394099712E0,4.143999815E-1
1.868999688E1,-5.505899906E0,-4.549599648E0,1.058300018E0
1.870999688E1,-5.251100063E0,-4.669099808E0,1.881999969E0
1.872999688E1,-4.543099880E0,-5.444599628E0,1.757799983E0
1.874999688E1,-4.986399651E0,-4.465600014E0,2.354599953E0
1.876999688E1,-4.852799892E0,-4.192100048E0,2.810400009E0
1.878999688E1,-4.158100128E0,-4.033899784E0,2.850399971E0
1.880999688E1,-2.614599943E0,-4.793999672E0,2.952199936E0
1.882999688E1,-1.252799988E0,-5.872099876E0,2.714799881E0
1.885999688E1,-1.416599989E0,-5.643699646E0,1.816199899E0
1.887999688E1,-2.454200029E0,-3.973899841E0,1.371299982E0
1.890999531E1,-2.505199909E0,-1.944799900E0,7.687000036E-1
1.892999531E1,-2.263200045E0,-7.437999845E-1,7.840999961E-1
1.894999531E1,-1.751399994E0,-1.964000016E-1,5.662999749E-1
1.896999531E1,-1.568699956E0,1.439999975E-2,4.250000045E-2
1.899999531E1,-1.792099953E0,1.202999949E-1,-6.025999784E-1
1.902999375E1,-1.126999974E0,2.060000040E-2,-3.440999985E-1
1.904999531E1,-3.752999902E-1,-1.709999889E-2,1.199999941E-3
1.906999531E1,4.433999956E-1,3.073999882E-1,6.381999850E-1
1.908999531E1,1.353299975E0,8.185999990E-1,1.158200026E0
1.911999375E1,3.549799919E0,1.430899978E0,9.853000045E-1
1.913999531E1,5.303099632E0,1.287699938E0,-3.251999915E-1
1.916999375E1,7.685799599E0,-7.400000095E-2,-2.203399897E0
1.918999375E1,8.649000168E0,8.509999514E-2,-2.976300001E0
1.920999531E1,8.932600021E0,1.414299965E0,-2.576999903E0
1.922999531E1,9.234099388E0,1.308599949E0,-1.828299999E0
1.924999688E1,8.479899406E0,1.163100004E0,-4.610999823E-1
1.927999531E1,5.629199982E0,1.973699927E0,2.236599922E0
1.929999531E1,4.786999702E0,2.071699858E0,3.569000006E0
1.931999531E1,6.523999691E0,-6.696999669E-1,3.027099848E0
1.933999531E1,8.055699348E0,-3.229300022E0,2.115299940E0
1.935999688E1,7.750199795E0,-4.338500023E0,2.037099838E0
1.938999531E1,4.725599766E0,-1.932500005E0,3.881500006E0
1.940999688E1,2.968999863E0,-5.875999928E-1,4.082600117E0
1.942999688E1,1.636500001E0,2.143999934E-1,3.541199923E0
1.944999688E1,8.481000066E-1,1.369999945E-1,2.511399984E0
1.947999531E1,-7.958999872E-1,5.228999853E-1,1.231899977E0
1.949999531E1,-1.647899985E0,7.935999632E-1,1.005100012E0
1.951999531E1,-1.999499917E0,4.704999924E-1,6.579999924E-1
1.954999531E1,-2.415199995E0,-2.872000039E-1,2.441999912E-1
1.956999531E1,-2.829599857E0,-1.127900004E0,1.249999925E-2
1.958999531E1,-3.498600006E0,-1.844599962E0,1.317999959E-1
1.960999531E1,-3.827199936E0,-3.073400021E0,2.969999984E-2
1.962999531E1,-4.143099785E0,-4.348799706E0,-1.416999996E-1
1.964999531E1,-4.541599751E0,-5.382099628E0,9.799999744E-2
1.966999531E1,-4.996399879E0,-6.225399971E0,8.236999512E-1
1.968999531E1,-5.484099865E0,-6.444399834E0,1.870899916E0
1.970999531E1,-6.086299896E0,-5.983299732E0,3.023999929E0
1.972999531E1,-5.693599701E0,-6.292699814E0,3.495399952E0
1.975999531E1,-4.667599678E0,-6.228099823E0,2.325199842E0
1.977999531E1,-4.780499935E0,-5.201099873E0,1.467499971E0
1.979999531E1,-5.411699772E0,-3.181200027E0,1.462999940E0
1.981999531E1,-4.419199944E0,-2.898299932E0,1.688300014E0
1.983999531E1,-2.532599926E0,-3.774999857E0,1.558599949E0
1.985999688E1,-5.654000044E-1,-5.002500057E0,8.592000008E-1
1.988999531E1,7.537999749E-1,-4.927099705E0,2.148000002E-1
1.990999531E1,9.424999952E-1,-3.271299839E0,3.790999949E-1
1.992999531E1,8.920999765E-1,-1.815499902E0,3.276000023E-1
1.994999531E1,5.909000039E-1,-1.105000004E-1,3.432999849E-1
1.996999531E1,-1.197999939E-1,1.185799956E0,3.892999887E-1
1.998999531E1,-7.400999665E-1,2.183899879E0,8.969999850E-2
2.000999531E1,-8.140999675E-1,2.745199919E0,-3.762999773E-1
2.003999531E1,-1.211999953E-1,2.899899960E0,-9.690999985E-1
2.006999531E1,1.126799941E0,2.196099997E0,-2.040299892E0
2.008999531E1,1.762300014E0,1.521600008E0,-2.411200047E0
2.010999531E1,2.191499949E0,1.077999949E0,-2.240299940E0
2.012999531E1,2.974900007E0,1.009099960E0,-1.085299969E0
2.014999531E1,4.118899822E0,1.041899920E0,6.775000095E-1
2.016999531E1,5.728499889E0,8.303999901E-1,1.828399897E0
2.018999531E1,7.710799694E0,7.691999674E-1,1.710899949E0
2.020999531E1,9.335599899E0,9.247999787E-1,3.296999931E-1
2.022999531E1,1.002880001E1,1.255100012E0,-1.455799937E0
2.025999531E1,9.346099854E0,2.713899851E0,-2.708299875E0
2.027999531E1,9.269100189E0,2.101500034E0,-2.249199867E0
2.029999531E1,8.128099442E0,2.175600052E0,-4.686999917E-1
2.032999375E1,7.190999985E0,1.947499990E0,1.874699950E0
2.034999375E1,8.460299492E0,-5.392000079E-1,1.483799934E0
2.036999531E1,9.525300026E0,-4.218999863E0,4.442999959E-1
2.038999531E1,8.076299667E0,-5.127899647E0,1.315799952E0
2.040999531E1,6.329099655E0,-4.679999828E0,3.066399813E0
2.042999531E1,5.258299828E0,-3.706799984E0,4.317199707E0
2.045000156E1,4.459399700E0,-1.915399909E0,4.479899883E0
2.047999531E1,3.048499823E0,8.007000089E-1,3.778100014E0
2.049999531E1,2.720199823E0,1.750899911E0,3.466699839E0
2.052999375E1,3.944399834E0,7.279999554E-2,2.597800016E0
2.054999531E1,4.146699905E0,-2.093999863E0,1.640900016E0
2.056999531E1,4.097399712E0,-4.543299675E0,3.975999951E-1
2.058999531E1,4.007899761E0,-7.259799957E0,-4.882999957E-1
2.061999531E1,2.727200031E0,-9.634399414E0,-6.011999846E-1
2.063999531E1,1.243499994E0,-1.025949955E1,-3.716999888E-1
2.065999531E1,-2.823999822E-1,-9.718799591E0,4.004999995E-1
2.068999531E1,-1.197600007E0,-7.898999691E0,1.224599957E0
2.070999531E1,-5.433999896E-1,-7.641799927E0,4.271000028E-1
2.072999531E1,7.274000049E-1,-7.685299873E0,-7.292999625E-1
2.075999531E1,5.658999681E-1,-6.549999714E0,-1.764299989E0
2.077999531E1,-8.694999814E-1,-5.012599945E0,-2.573799849E0
2.079999531E1,-1.677500010E0,-4.222899914E0,-3.458099842E0
2.082999531E1,-2.169399977E0,-2.291399956E0,-3.101199865E0
2.085999688E1,-2.013099909E0,-1.158800006E0,-1.353399992E0
2.088999375E1,-1.135699987E0,-1.487200022E0,-1.431100011E0
2.090999531E1,-7.664999962E-1,-1.563199997E0,-1.322999954E0
2.092999531E1,-6.182999611E-1,-1.489399910E0,-1.467599988E0
2.094999531E1,-6.635999680E-1,-1.280900002E0,-1.679299951E0
2.096999531E1,-3.786000013E-1,-1.079999924E0,-1.341499925E0
2.099999531E1,9.169999510E-2,-8.592999578E-1,-2.260200024E0
2.102999375E1,-1.779999882E-1,-1.217299938E0,-2.953500032E0
2.104999531E1,-1.370100021E0,-9.465999603E-1,-3.515899897E0
2.106999531E1,-2.497699976E0,-3.542999923E-1,-4.347399712E0
2.109999375E1,-2.417899847E0,6.703999639E-1,-5.561500072E0
2.111999375E1,-2.370199919E0,6.974999905E-1,-3.840199947E0
2.113999531E1,-2.172299862E0,6.305999756E-1,-2.525899887E0
2.116000156E1,-2.828099966E0,1.384899974E0,-2.082900047E0
2.118999531E1,-2.202499866E0,1.726999998E0,-1.147799969E0
2.120999531E1,-1.190799952E0,8.913999796E-1,-1.099999994E-1
2.122999531E1,-6.031999588E-1,8.592999578E-1,6.762999892E-1
2.126000625E1,-6.489999890E-1,8.030999899E-1,4.853999913E-1
2.128999531E1,-1.319999933E0,4.858999848E-1,2.164999992E-1
2.131999375E1,-1.788999915E0,1.244400024E0,1.183200002E0
2.133999844E1,1.486999989E-1,1.542999893E-1,1.478999972E0
2.136999531E1,8.242999911E-1,-7.965999842E-1,1.000800014E0
2.138999531E1,-6.320999861E-1,-4.758999944E-1,9.390999675E-1
2.140999531E1,-1.279899955E0,-1.507000029E-1,-3.579999879E-2
2.142999531E1,-8.676999807E-1,-3.170000017E-2,-6.642999649E-1
2.145999375E1,5.098999739E-1,-1.309399962E0,5.345999599E-1
2.147999531E1,-3.350999951E-1,-8.307999969E-1,7.979999781E-1
2.149999531E1,-7.908999920E-1,-8.274999857E-1,4.745999873E-1
2.151999531E1,-8.445000052E-1,-6.284999847E-1,7.389999926E-2
2.153999531E1,-4.594999850E-1,-5.708000064E-1,-5.967000127E-1
2.156999531E1,-3.849000037E-1,-6.904999614E-1,-1.731999993E0
2.158999531E1,-7.511000037E-1,-5.753999949E-1,-2.368299961E0
2.161999375E1,-1.376999974E0,-7.254999876E-1,-2.530699968E0
2.163999531E1,-1.405900002E0,-7.008999586E-1,-2.239199877E0
2.165999688E1,-7.379999757E-1,-9.680999517E-1,-2.470999956E0
2.168999531E1,-1.254899979E0,-6.988999844E-1,-2.905999899E0
2.170999531E1,-1.669399977E0,-6.899999827E-2,-3.238799810E0
2.172999531E1,-1.600399971E0,9.439999610E-2,-2.915199995E0
2.175999531E1,-8.079999685E-1,-6.466000080E-1,-3.306200027E0
2.178999531E1,-3.420999944E-1,-2.199100018E0,-4.545599937E0
2.180999531E1,6.344999671E-1,-1.876599908E0,2.830799818E0
2.182999531E1,-5.722000003E-1,2.189999968E-1,6.108500004E0
2.186001250E1,9.207999706E-1,-5.564999580E-1,2.769999981E0
2.188999531E1,1.730599999E0,-1.557199955E0,4.226799965E0
2.190999531E1,6.125999689E-1,-7.137999535E-1,3.246799946E0
2.192999531E1,6.074999571E-1,-1.067299962E0,2.234200001E0
2.194999844E1,8.009999990E-1,-1.268199921E0,3.570699930E0
2.197999531E1,1.531199932E0,-1.151299953E0,1.562899947E0
2.199999531E1,9.226999879E-1,-2.599999867E-2,1.313599944E0
2.202999375E1,-1.615399957E0,1.620499969E0,6.162999868E-1
2.204999531E1,-1.763199925E0,1.954999924E0,2.020999938E-1
2.206999531E1,-1.478199959E0,1.777199984E0,-3.957999945E-1
2.208999531E1,-1.285200000E0,1.713400006E0,-2.073999941E-1
2.211999375E1,-9.855999947E-1,2.069399834E0,-1.255900025E0
2.213999531E1,-1.261600018E0,1.980399966E0,-1.371699929E0
2.215999531E1,-1.889499903E0,1.986899972E0,-7.755999565E-1
2.218999375E1,-1.225299954E0,1.323899984E0,-3.088999987E-1
2.220999375E1,-9.968999624E-1,1.387199998E0,-2.701999843E-1
2.222999531E1,-1.289699912E0,1.777199984E0,-2.249999940E-1
2.225999531E1,-6.987999678E-1,1.405300021E0,2.737999856E-1
2.227999531E1,-1.301999986E-1,4.290999770E-1,5.934999585E-1
2.230999531E1,-7.824999690E-1,1.409000009E-1,8.320999742E-1
2.232999531E1,-1.121500015E0,3.539999947E-2,1.177999973E0
2.235999531E1,-1.022699952E0,-4.587000012E-1,2.140599966E0
2.238999531E1,-8.422999978E-1,-1.183899999E0,2.983899832E0
2.241999375E1,-6.288999915E-1,-1.540099978E0,2.619899988E0
2.243999531E1,-3.838000000E-1,-1.362999916E0,2.613899946E0
2.245999531E1,6.499999668E-3,-1.241299987E0,2.853799820E0
2.248999531E1,-3.807999790E-1,-7.863000035E-1,1.427299976E0
2.250999531E1,-5.422999859E-1,-4.974999726E-1,-2.108999938E-1
2.252999531E1,-7.771999836E-1,-2.497999966E-1,-1.411099911E0
2.254999531E1,-7.586999536E-1,-8.909999579E-2,-2.084800005E0
2.256999531E1,-6.046999693E-1,2.850999832E-1,-2.188699961E0
2.259999375E1,8.669999987E-2,1.819999889E-2,-2.544999838E0
2.261999375E1,1.317999959E-1,-9.200000204E-3,-2.600699902E0
2.263999531E1,-7.729999721E-2,-1.894000024E-1,-1.971899986E0
2.265999531E1,-1.894999892E-1,-7.039999962E-2,-1.268299937E0
2.268999375E1,-1.065999940E-1,-9.730000049E-2,-1.156199932E0
2.270999375E1,-3.522000015E-1,3.769999743E-2,-1.470699906E0
2.272999375E1,-5.884999633E-1,4.086000025E-1,-1.603699923E0
2.275001406E1,-3.477999866E-1,2.617000043E-1,-1.208799958E0
2.277999375E1,4.333999753E-1,-3.546999991E-1,-9.579999745E-2
2.279999531E1,2.745999992E-1,-5.214999914E-1,2.689000070E-1
2.281999531E1,4.003999829E-1,-8.041999936E-1,2.032999992E-1
2.283999688E1,1.959999949E-1,-4.386000037E-1,1.776999980E-1
2.286999531E1,-3.581999838E-1,-5.959999934E-2,1.331399918E0
2.289999531E1,-4.825999737E-1,-1.877999902E-1,1.998299956E0
2.292999531E1,-4.908999801E-1,-7.102999687E-1,2.573199987E0
2.294999531E1,-7.092999816E-1,-3.685999811E-1,2.159100056E0
2.296999531E1,-2.304999977E-1,-5.640000105E-1,1.470799923E0
2.298999531E1,8.599999361E-3,-3.317999840E-1,1.010699987E0
2.300999531E1,3.106999993E-1,-1.492999941E-1,5.230999589E-1
2.303999375E1,6.304999590E-1,3.079999983E-2,-5.112000108E-1
2.305999688E1,2.444999963E-1,3.465999961E-1,-7.184000015E-1
2.308999531E1,-3.165999949E-1,9.699999355E-3,-1.020200014E0
2.311999375E1,-1.143100023E0,1.197399974E0,-1.658599973E0
2.313999531E1,-1.596799970E0,1.643299937E0,-1.916700006E0
2.315999531E1,-1.674799919E0,1.291999936E0,-1.608500004E0
2.318999531E1,-1.578799963E0,1.458199978E0,-1.390299916E0
2.320999531E1,-1.412199974E0,1.743600011E0,-1.442600012E0
2.322999531E1,-9.743999839E-1,1.817299962E0,-1.369699955E0
2.326000625E1,-1.195400000E0,1.918899894E0,-9.486999512E-1
2.328999531E1,-2.429800034E0,2.039799929E0,-2.150999904E-1
2.331999375E1,-1.775299907E0,1.125499964E0,1.355999947E0
2.333999531E1,-1.644199967E0,7.842999697E-1,2.458799839E0
2.336001875E1,-1.227399945E0,5.755999684E-1,3.348299980E0
2.338999531E1,-2.331999987E-1,-2.981999815E-1,4.103399754E0
2.341999375E1,-1.492799997E0,3.262999952E-1,4.517899990E0
2.343999531E1,-1.967000008E0,8.104999661E-1,1.525299907E0
2.345999531E1,-1.129599929E0,1.675999910E-1,5.500999689E-1
2.348999375E1,7.519999892E-2,-1.895999908E0,1.178300023E0
2.350999531E1,7.718999982E-1,-3.046399832E0,6.010000110E-1
2.352999531E1,1.111099958E0,-3.480399847E0,-2.030999959E-1
2.355000781E1,-7.090000063E-2,-1.320899963E0,-1.176399946E0
2.357999531E1,4.463999867E-1,-1.061299920E0,-2.024299860E0
2.360999375E1,3.897999823E-1,-7.750000060E-2,-2.574899912E0
2.362999375E1,2.739000022E-1,2.733999789E-1,-2.640499830E0
2.364999531E1,1.885999888E-1,3.588999808E-1,-2.800599813E0
2.366999531E1,-3.112999797E-1,8.643999696E-1,-2.435099840E0
2.368999531E1,-8.582999706E-1,1.280300021E0,-2.108500004E0
2.370999531E1,-6.953999996E-1,1.070299983E0,-2.130499840E0
2.372999531E1,-6.283000112E-1,7.841999531E-1,-1.823899984E0
2.374999531E1,-1.395999938E-1,-1.631999910E-1,-1.491799951E0
2.376999531E1,-3.410999775E-1,2.635000050E-1,-1.404899955E0
2.378999531E1,-4.143999815E-1,5.066999793E-1,-1.311900020E0
2.380999531E1,-3.075999916E-1,2.346999943E-1,-9.791999459E-1
2.382999531E1,-2.850000001E-2,-1.699999906E-2,-3.238999844E-1
2.385999531E1,-3.630999923E-1,2.619000077E-1,-1.526999921E-1
2.387999531E1,-2.996000051E-1,7.229999453E-2,3.197000027E-1
2.389999531E1,-5.609999970E-2,-2.895999849E-1,2.114899874E0
2.392999531E1,-4.400999844E-1,-1.071999967E-1,4.137899876E0
2.395002813E1,-7.175999880E-1,-3.770000041E-1,4.452699661E0
2.397999375E1,-1.229900002E0,-4.725999832E-1,3.908699989E0
2.399999531E1,-6.683999896E-1,-5.388999581E-1,2.960099936E0
2.402999531E1,7.389999628E-1,-6.849999726E-2,2.655699968E0
2.404999531E1,1.198400021E0,4.999999702E-2,2.238999844E0
2.407001719E1,1.082700014E0,-1.439999975E-2,9.484999776E-1
2.409999375E1,-2.352999896E-1,4.258999825E-1,-9.404999614E-1
2.411999375E1,-1.052199960E0,1.048399925E0,-2.060199976E0
2.413999531E1,-1.277799964E0,1.205999970E0,-2.426699877E0
2.415999844E1,-1.253499985E0,1.244599938E0,-2.107100010E0
2.418999531E1,-1.323099971E0,1.467199922E0,-1.421599984E0
2.420999531E1,-1.279399991E0,1.066599965E0,-9.473999739E-1
2.422999531E1,-1.506500006E0,1.040699959E0,-5.916000009E-1
2.424999531E1,-1.980899930E0,1.053699970E0,-6.067999601E-1
2.427002031E1,-2.283200026E0,1.043300033E0,-2.076999992E-1
2.429999531E1,-2.000400066E0,1.018700004E0,2.201999873E-1
2.432999531E1,-1.245999932E0,7.256999612E-1,7.685999870E-1
2.435999688E1,-9.383999705E-1,4.526999891E-1,1.103999972E0
2.438999531E1,-3.024999797E-1,-1.624999940E-1,3.242000043E-1
2.440999531E1,-4.400999844E-1,-3.089999855E-1,5.799999833E-2
2.442999531E1,-5.518000126E-1,-4.729999900E-1,-8.739999682E-2
2.444999531E1,-7.292999625E-1,-6.022999883E-1,-3.615999818E-1
2.447999844E1,-1.165300012E0,-4.350999892E-1,-8.825999498E-1
2.450999531E1,-2.443999946E-1,-1.061200023E0,3.118999898E-1
2.453999375E1,1.287999898E-1,-9.490000010E-1,9.853000045E-1
2.455999531E1,2.190999985E-1,-1.440799952E0,7.319999933E-1
2.457999531E1,-5.834000111E-1,-9.233999848E-1,-2.745999992E-1
2.460999375E1,-6.629999876E-1,-1.959999949E-1,-8.215000033E-1
2.462999375E1,-3.910000026E-1,1.968999952E-1,-8.378999829E-1
2.464999531E1,-1.797999889E-1,4.263999760E-1,-9.656999707E-1
2.467999375E1,3.669999912E-2,4.341000021E-1,-1.777899981E0
2.469999531E1,1.304000020E-1,4.009999931E-1,-2.045599937E0
2.471999531E1,5.929999799E-2,2.712000012E-1,-1.802399993E0
2.475000469E1,-8.150000125E-2,1.303000003E-1,-1.112999916E0
2.477999531E1,-8.760000020E-2,9.559999406E-2,-1.319199920E0
2.479999531E1,-2.506999969E-1,2.647999823E-1,-1.569800019E0
2.481999531E1,-4.550999999E-1,4.053999782E-1,-1.055799961E0
2.484999375E1,-4.840999842E-1,1.699999906E-3,-1.046999991E-1
2.486999531E1,-4.649999738E-1,-1.309999973E-1,-1.481999904E-1
2.488999531E1,-8.014000058E-1,3.749999776E-2,-3.421999812E-1
2.490999531E1,-7.860999703E-1,-1.088999957E-1,-6.560000032E-2
2.492999531E1,-7.409999967E-1,-1.656000018E-1,1.116799951E0
2.494999531E1,-1.005200028E0,-6.209999695E-2,2.559200048E0
2.497999531E1,-1.032899976E0,-7.681999803E-1,3.341399908E0
2.499999531E1,-7.466999888E-1,-1.095899940E0,2.561899900E0
2.502999531E1,-1.973999888E-1,-7.907999754E-1,1.636500001E0
2.504999531E1,-1.287999898E-1,-5.751000047E-1,2.375299931E0
2.506999531E1,-1.750000007E-2,-2.673999965E-1,2.101899862E0
2.508999531E1,2.305999994E-1,-2.061999887E-1,8.939999938E-1
2.510999531E1,2.379999906E-1,-3.900000080E-2,-4.432999790E-1
2.513999375E1,1.169999987E-1,1.645999998E-1,-1.491199970E0
2.515999531E1,-2.240999937E-1,3.798999786E-1,-1.921099901E0
2.518999531E1,-9.278999567E-1,5.778999925E-1,-2.208400011E0
2.521999531E1,-1.180499911E0,6.372999549E-1,-2.094500065E0
2.524999375E1,-1.200500011E0,7.418999672E-1,-1.856999993E0
2.527000625E1,-1.027300000E0,5.931000113E-1,-1.636799932E0
2.529999531E1,-1.015799999E0,8.310999870E-1,-1.559599996E0
2.532999375E1,-7.816999555E-1,1.067399979E0,-1.607599974E0
2.534999375E1,-6.748999953E-1,1.260999918E0,-1.226499915E0
2.536999531E1,-2.779999971E-1,8.914999962E-1,-2.540999949E-1
2.539999531E1,-1.565999985E-1,6.983000040E-1,7.534999847E-1
2.542999531E1,5.109999701E-2,2.842999995E-1,1.501999974E0
2.544999531E1,-3.009999916E-2,3.849999905E-1,2.083099842E0
2.548000781E1,-2.357999980E-1,1.833999902E-1,2.707999945E0
2.550999531E1,-6.449999660E-2,-6.679999828E-1,3.279999971E0
2.553999375E1,-2.778999805E-1,-8.488999605E-1,3.476999998E0
2.555999375E1,-6.499999762E-1,-7.852999568E-1,3.418900013E0
2.557999531E1,-6.391999722E-1,-7.310999632E-1,2.860199928E0
2.560999375E1,-9.192000031E-1,-1.388999969E-1,1.124300003E0
2.562999531E1,-3.919999897E-1,1.228999943E-1,-1.261999905E-1
2.564999531E1,2.719999850E-2,2.608999908E-1,-9.603999853E-1
2.566999531E1,4.248999953E-1,1.983999908E-1,-1.555499911E0
2.568999531E1,5.144999623E-1,1.650999933E-1,-2.150500059E0
2.571999531E1,3.262999952E-1,1.564999968E-1,-2.372599840E0
2.573999531E1,1.968999952E-1,2.329999954E-2,-2.281399965E0
2.575999531E1,5.219999701E-2,-1.497000009E-1,-2.237799883E0
2.577999531E1,-4.231999815E-1,-6.340000033E-2,-1.954099894E0
2.579999531E1,-7.200999856E-1,-2.180000022E-2,-1.721899986E0
2.582999531E1,-8.072999716E-1,2.472999990E-1,-1.528199911E0
2.585999531E1,-7.886999846E-1,2.331999987E-1,-1.031299949E0
2.587999531E1,-7.202999592E-1,8.039999753E-2,-7.268999815E-1
2.590999531E1,-2.037999928E-1,-3.229999840E-1,-1.105999947E-1
2.592999531E1,-2.888000011E-1,4.439999908E-2,1.260000002E-2
2.594999531E1,-2.769999802E-1,4.569999874E-2,4.027999938E-1
2.597999375E1,-1.036999971E-1,-1.232999936E-1,1.031099916E0
2.599999531E1,-9.470000118E-2,-4.319999814E-1,1.905999899E0
2.602999375E1,-3.716999888E-1,-4.944999814E-1,2.725699902E0
2.604999531E1,-1.406999975E-1,-1.019999981E0,2.649699926E0
2.606999531E1,3.044999838E-1,-1.104799986E0,2.352699995E0
2.608999531E1,1.089399934E0,-1.017499924E0,2.456500053E0
2.611999531E1,1.198799968E0,2.960000001E-2,2.032399893E0
2.614999531E1,5.816999674E-1,6.943999529E-1,5.273999572E-1
2.617999375E1,5.076999664E-1,7.616999745E-1,-1.193099976E0
2.619999375E1,5.331000090E-1,1.111099958E0,-2.062500000E0
2.621999531E1,9.053999782E-1,8.710999489E-1,-2.912499905E0
2.624999375E1,4.232999980E-1,1.226400018E0,-3.221999884E0
2.626999375E1,4.187999964E-1,8.520999551E-1,-3.862099886E0
2.628999531E1,6.416999698E-1,2.870999873E-1,-3.886600018E0
2.630999531E1,2.746999860E-1,3.260000050E-1,-3.333199978E0
2.632999531E1,-3.967999816E-1,6.355999708E-1,-3.108599901E0
2.636000000E1,-1.366699934E0,1.618600011E0,-2.138200045E0
2.638999375E1,-1.112100005E0,1.157899976E0,-1.458899975E0
2.640999531E1,-5.447999835E-1,7.198999524E-1,-1.135599971E0
2.642999531E1,-1.026399970E0,9.761999846E-1,1.195999980E-1
2.644999531E1,-1.186699986E0,6.162999868E-1,1.691599965E0
2.646999531E1,-8.260999918E-1,1.533999890E-1,2.052199841E0
2.649999531E1,-4.666999876E-1,3.610000014E-2,1.381199956E0
2.651999531E1,-6.703999639E-1,1.436000019E-1,1.395200014E0
2.654999531E1,-1.920699954E0,1.118000001E-1,1.124499917E0
2.656999531E1,-2.100499868E0,-7.981999516E-1,1.283999920E0
2.658999531E1,-2.090800047E0,-8.775999546E-1,1.939899921E0
2.660999531E1,-1.712099910E0,-5.613999963E-1,1.977799892E0
2.663999375E1,-1.742100000E0,-5.704999566E-1,1.543999910E0
2.665999531E1,-2.177000046E0,-1.968999952E-1,1.314999938E0
2.668999375E1,-2.094599962E0,2.533999979E-1,5.882999897E-1
2.670999375E1,-2.213299990E0,8.003999591E-1,5.529999733E-2
2.672999531E1,-1.893999934E0,9.611999989E-1,-2.863000035E-1
2.674999844E1,-1.194499969E0,8.718000054E-1,-1.592999995E-1
2.677999531E1,-3.700999916E-1,1.439599991E0,-9.274999499E-1
2.679999531E1,-3.531999886E-1,1.577099919E0,-1.130399942E0
2.682999531E1,-1.495399952E0,1.796999931E0,-4.447999895E-1
2.685999531E1,-7.292000055E-1,1.169399977E0,-1.649299979E0
2.688999375E1,-4.859999940E-2,4.335999787E-1,1.187299967E0
2.690999375E1,-5.988000035E-1,3.049999848E-2,1.053799987E0
2.692999531E1,-5.159999803E-2,-3.466999829E-1,1.750499964E0
2.694999531E1,6.890000105E-1,-3.418000042E-1,2.327199936E0
2.697999531E1,-1.240999997E-1,-1.683999896E-1,1.935400009E0
2.699999531E1,-2.728999853E-1,-6.548999548E-1,6.507999897E-1
2.702999375E1,5.460000038E-2,-1.283599973E0,2.508899927E0
2.704999531E1,-3.272999823E-1,-1.493899941E0,3.232499838E0
2.706999531E1,-6.121999621E-1,-1.116799951E0,2.251600027E0
2.708999531E1,-2.234999985E-1,-8.817999959E-1,2.094099998E0
2.711999531E1,1.320599914E0,-6.351999640E-1,1.114400029E0
2.714999531E1,2.423499823E0,-1.015599966E0,-1.273899913E0
2.717999375E1,1.127200007E0,-9.947999716E-1,-2.056099892E0
2.719999375E1,-1.102200031E0,1.003299952E0,1.851300001E0
2.721999531E1,-1.224200010E0,1.201399922E0,-1.117499948E0
2.723999531E1,-1.277000010E-1,7.031999826E-1,-1.014500022E0
2.726001094E1,-3.066999912E-1,1.125800014E0,-5.139999986E-1
2.728999531E1,-7.938999534E-1,1.045599937E0,-1.008199930E0
2.730999844E1,-1.327000022E0,5.000000000E-1,-4.117999971E-1
2.733999375E1,-1.842000008E0,1.329100013E0,-1.122399926E0
2.735999688E1,-1.111599922E0,8.010999560E-1,-1.927799940E0
2.738999375E1,-5.780999660E-1,7.489999533E-1,-2.040499926E0
2.740999375E1,-5.019999743E-1,1.061200023E0,-1.459499955E0
2.742999531E1,-1.063099980E0,1.631500006E0,-1.177299976E0
2.745000000E1,-5.044000149E-1,1.649500012E0,-4.649999738E-1
2.747999531E1,8.133999705E-1,5.372999907E-1,5.918999910E-1
2.750000313E1,2.223999947E-1,2.285999954E-1,3.174999952E-1
2.752999375E1,-4.208000004E-1,4.912000000E-1,6.619999558E-2
2.755000156E1,8.619999886E-2,-2.791000009E-1,1.841000021E-1
2.757999531E1,-8.289999962E-1,5.279999971E-2,1.782999933E-1
2.759999844E1,-7.850999832E-1,-3.484999835E-1,-3.861999810E-1
2.762999531E1,4.983999729E-1,-9.811999798E-1,-7.999999821E-2
2.764999531E1,6.419000030E-1,-1.576999903E0,1.057399988E0
2.767999531E1,-5.993999839E-1,-1.098600030E0,1.474499941E0
2.769999531E1,-7.469999790E-1,-6.744999886E-1,7.744999528E-1
2.771999531E1,-6.662999988E-1,-2.037999928E-1,-2.300000051E-3
2.774000000E1,-2.421999872E-1,3.227999806E-1,-6.847999692E-1
2.776999375E1,-1.418000013E-1,7.574999928E-1,-7.430999875E-1
2.779000469E1,-1.743000001E-1,3.449999988E-1,-4.835999906E-1
2.781999375E1,-2.100999951E-1,1.360999942E-1,-8.556999564E-1
2.784000156E1,-1.849000007E-1,-2.093999982E-1,-9.225999713E-1
2.786999531E1,-2.490999997E-1,3.139999807E-1,-2.054399967E0
2.789000156E1,-3.599999845E-2,-1.687999964E-1,-2.123699903E0
2.791999375E1,-4.002999961E-1,-7.769999653E-2,-1.780999899E0
2.793999531E1,-9.835999608E-1,6.571999788E-1,-5.119999647E-1
2.796999375E1,1.661999971E-1,-1.306999922E-1,8.667999506E-1
2.798999844E1,1.155099988E0,-8.585999608E-1,5.112999678E-1
2.801999531E1,-1.106099963E0,7.124999762E-1,3.950999975E-1
2.804999531E1,-3.089999855E-1,1.964000016E-1,1.177999973E-1
2.807999844E1,-3.158999979E-1,-7.739999890E-2,1.617399931E0
2.810999531E1,3.329999745E-2,1.783999950E-1,1.702399969E0
2.813000000E1,3.265999854E-1,-2.694999874E-1,1.909500003E0
2.815000625E1,3.199999919E-3,-2.740000002E-2,1.198699951E0
2.818000000E1,4.007000029E-1,-3.509999812E-1,1.100299954E0
2.820999531E1,8.018999696E-1,7.099999487E-2,7.567999959E-1
2.822999688E1,6.796999574E-1,2.759000063E-1,6.893999577E-1
2.825999375E1,-2.217999995E-1,5.827999711E-1,-1.638000011E-1
2.827999688E1,-6.762999892E-1,8.513999581E-1,-1.192499995E0
2.830999531E1,-7.229999900E-1,9.009999633E-1,-2.244499922E0
2.833000000E1,-1.103299975E0,1.049099922E0,-1.641299963E0
2.836001563E1,-1.792599916E0,8.550999761E-1,-8.439999819E-2
2.838999531E1,-7.332999706E-1,1.094399929E0,6.118999720E-1
2.840999531E1,-4.611999989E-1,9.962999821E-1,1.257599950E0
2.842999531E1,-8.183000088E-1,-2.879999876E-1,8.402000070E-1
2.844999531E1,-1.643899918E0,9.902999997E-1,-3.034999967E-1
2.846999688E1,-1.019199967E0,1.021000028E0,-2.102999926E0
2.848999688E1,3.309999779E-2,1.788000017E-1,-5.399999619E-1
2.851999531E1,-5.597000122E-1,7.224000096E-1,1.409600019E0
2.853999531E1,-7.910999656E-1,7.342000008E-1,1.205600023E0
2.855999531E1,-5.878999829E-1,6.089999676E-1,1.421700001E0
2.857999844E1,-1.313000023E-1,5.845000148E-1,5.155999660E-1
2.860999531E1,-8.917999864E-1,6.347999573E-1,2.549999952E-1
2.863999531E1,-6.699000001E-1,-4.429999739E-2,-9.619999677E-2
2.865999531E1,2.647999823E-1,-9.812999964E-1,8.299999870E-3
2.867999531E1,3.147999942E-1,-1.645399928E0,5.259999633E-1
2.869999531E1,-5.109999776E-1,-8.636999726E-1,4.154999852E-1
2.872000156E1,-5.447999835E-1,-3.328000009E-1,7.134000063E-1
2.874999531E1,1.477999985E-1,2.321999967E-1,3.010999858E-1
2.876999531E1,6.250000000E-2,5.949999765E-2,6.342999935E-1
2.878999531E1,-5.245000124E-1,8.699999750E-2,2.926999927E-1
2.880999531E1,-8.908999562E-1,-1.946000010E-1,1.444000006E-1
2.882999531E1,-8.279999495E-1,-3.271999955E-1,-9.321999550E-1
2.884999531E1,-8.295999765E-1,-1.448999941E-1,-9.491999745E-1
2.886999531E1,-4.704999924E-1,-6.075999737E-1,-7.222999930E-1
2.889999375E1,-6.100000143E-1,-5.881999731E-1,-1.641099930E0
2.891999688E1,-5.177999735E-1,-7.752000093E-1,-1.617200017E0
2.894999531E1,-6.493999958E-1,-2.681999803E-1,-1.434299946E0
2.897000312E1,-2.675999999E-1,-1.475999951E-1,-7.069000006E-1
2.899999531E1,8.824999928E-1,-5.670999885E-1,-1.622999907E-1
2.902000000E1,5.981000066E-1,-4.176999927E-1,-5.435999632E-1
2.904999531E1,-1.178999990E-1,2.976999879E-1,9.179999679E-2
2.907999531E1,3.021999896E-1,3.597999811E-1,1.379999965E-1
2.909999531E1,-2.654999793E-1,1.175099969E0,1.689999998E-1
2.911999531E1,1.027300000E0,8.603000045E-1,8.331999779E-1
2.913999531E1,2.451999903E0,-9.349999577E-2,8.844999671E-1
2.916000000E1,2.265499830E0,-5.604000092E-1,2.153999954E-1
2.918999688E1,1.072299957E0,-7.283999920E-1,1.291700006E0
2.920999688E1,7.835999727E-1,-2.142999917E-1,1.772799969E0
2.922999688E1,1.157500029E0,3.170999885E-1,1.732399940E0
2.926000312E1,1.233999968E0,8.503999710E-1,3.752999902E-1
2.928999688E1,-2.867999971E-1,1.237999916E0,-1.071200013E0
2.931000000E1,-8.094999790E-1,1.316299915E0,-1.732699990E0
2.933999531E1,-1.018299937E0,1.503700018E0,-2.292399883E0
2.935999844E1,-1.043200016E0,1.400499940E0,-1.599799991E0
2.938999531E1,-1.203799963E0,9.224999547E-1,-6.211000085E-1
2.940999844E1,-1.513099909E0,1.046100020E0,-3.540999889E-1
2.943999531E1,-9.884999990E-1,1.056900024E0,6.780000031E-2
2.945999531E1,-8.800999522E-1,1.292699933E0,3.034999967E-1
2.947999688E1,-7.678999901E-1,1.326599956E0,4.178999960E-1
2.950000156E1,-3.752999902E-1,9.016999602E-1,5.306000113E-1
2.952999531E1,-9.268999696E-1,7.735999823E-1,5.866000056E-1
2.955000313E1,-8.596999645E-1,8.500999808E-1,4.289000034E-1
2.957999531E1,7.580999732E-1,-2.193999887E-1,1.160499930E0
2.959999688E1,2.001999915E-1,-4.368999898E-1,1.510800004E0
2.962999531E1,-1.577299953E0,2.032999992E-1,1.170699954E0
2.965000156E1,-6.491999626E-1,-2.545999885E-1,4.891999960E-1
2.967001250E1,3.317999840E-1,-6.292999983E-1,2.888000011E-1
2.969999531E1,5.249999762E-1,-1.217100024E0,9.998999834E-1
2.971999688E1,-2.531000078E-1,-1.101099968E0,1.591699958E0
2.975000000E1,-4.078999758E-1,-8.580999970E-1,1.210199952E0
2.977999688E1,6.593999863E-1,-3.159999847E-1,1.111999974E-1
2.980000156E1,8.190999627E-1,3.359999880E-2,-7.637999654E-1
2.982999688E1,1.231999993E-1,-6.419999897E-2,-1.600699902E0
2.984999844E1,-5.070999861E-1,-1.257999986E-1,-1.850799918E0
2.988000938E1,-4.055999815E-1,-3.430999815E-1,-1.900999904E0
2.990999531E1,-1.981000006E-1,-1.691000015E-1,-1.674899936E0
2.992999688E1,-3.840999901E-1,-4.779999703E-2,-1.575399995E0
2.995999531E1,-7.317000031E-1,4.910000041E-2,-1.678799987E0
2.997999531E1,-9.147999883E-1,3.892000020E-1,-1.355099916E0
2.999999531E1,-4.609999955E-1,5.564999580E-1,-7.617999911E-1
3.001999531E1,1.476999968E-1,2.997999787E-1,-1.061999947E-1
3.004000000E1,2.648999989E-1,7.569999993E-2,3.348000050E-1
3.006001094E1,-1.233899951E0,6.753999591E-1,2.753999829E-1
3.008999531E1,-1.461899996E0,8.646999598E-1,1.489199996E0
3.010999531E1,1.885999888E-1,1.379999965E-1,1.314000010E0
3.012999531E1,6.149999797E-2,4.037999809E-1,1.847499967E0
3.014999531E1,2.105999887E-1,2.631999850E-1,2.141299963E0
3.016999531E1,4.337999821E-1,-5.593999624E-1,2.726199865E0
3.018999844E1,3.249000013E-1,-1.101699948E0,2.531100035E0
3.021999531E1,9.648999572E-1,-8.985999823E-1,1.037799954E0
3.024000156E1,1.735199928E0,-5.945000052E-1,-4.706999958E-1
3.027001563E1,1.057500005E0,1.265999973E-1,-1.988599896E0
3.029999688E1,-3.664000034E-1,-7.029999793E-2,-3.087299824E0
3.033000312E1,-6.960999966E-1,-3.217000067E-1,-3.514099836E0
3.035999688E1,-1.332299948E0,6.934999824E-1,-3.088699818E0
3.037999844E1,-1.929499984E0,1.191999912E0,-2.111299992E0
3.040999531E1,-1.632099986E0,1.514699936E0,-1.451499939E0
3.043000313E1,-3.964000046E-1,-2.732999921E-1,-9.673999548E-1
3.045999531E1,-2.247999907E-1,-5.554000139E-1,-9.858999848E-1
3.047999531E1,-6.989999861E-2,5.929999799E-2,-6.311999559E-1
3.049999688E1,-7.453999519E-1,1.210600019E0,-6.275999546E-1
3.051999688E1,-1.621599913E0,2.424999952E0,-1.188999936E-1
3.054999531E1,-1.174700022E0,1.820199966E0,1.227399945E0
3.056999531E1,-1.151299953E0,1.107699990E0,1.872200012E0
3.058999688E1,-1.216599941E0,4.501999915E-1,2.916499853E0
3.060999688E1,-1.834100008E0,5.778999925E-1,4.240399837E0
3.063000156E1,-1.365899920E0,-5.989999697E-2,3.958099842E0
3.065999531E1,3.976999819E-1,-2.112200022E0,1.778899908E0
3.067999531E1,4.900999963E-1,-2.373499870E0,4.472999871E-1
3.069999688E1,-3.436000049E-1,-1.553799987E0,-1.403199911E0
3.071999844E1,-1.178399920E0,-1.578799963E0,1.406799912E0
3.074999531E1,-2.491999865E-1,-8.782999516E-1,-1.387799978E0
3.077000156E1,-8.460999727E-1,-8.345999718E-1,-1.362999976E-1
3.079999531E1,-2.712699890E0,2.144999951E-1,8.517000079E-1
3.082000469E1,-1.899399996E0,9.499999881E-2,6.359999627E-2
3.084999531E1,1.222999990E-1,-8.299999684E-2,-1.929499984E0
3.087000000E1,-3.883999884E-1,-3.662000000E-1,-1.794499993E0
3.089999531E1,-3.861999810E-1,-1.532000005E-1,-1.071300030E0
3.092000312E1,-7.450000048E-1,1.439999975E-2,-1.001399994E0
3.094999688E1,-3.920000046E-2,-7.308999896E-1,-2.203999907E-1
3.097000156E1,-9.559999406E-2,-6.345999837E-1,2.162999958E-1
3.099999531E1,-9.091999531E-1,1.071999967E-1,1.837999970E-1
3.102000313E1,-2.505999804E-1,-2.611999810E-1,4.109999835E-1
3.104999531E1,-4.736999869E-1,-1.850000024E-1,-1.882900000E0
3.107000938E1,-8.581999540E-1,3.112999797E-1,-1.176199913E0
3.109999531E1,-5.489999801E-2,-6.379999965E-2,1.181900024E0
3.111999531E1,3.094999790E-1,-5.271999836E-1,1.308599949E0
3.113999531E1,-7.267000079E-1,-3.885000050E-1,1.689799905E0
3.115999844E1,-6.432999969E-1,-7.685999870E-1,1.435199976E0
3.118999531E1,8.819999546E-2,-1.070299983E0,7.773999572E-1
3.121000313E1,6.268000007E-1,-8.032000065E-1,6.020999551E-1
3.123999531E1,1.297899961E0,-3.294000030E-1,4.919999838E-2
3.125999844E1,9.580000043E-1,8.309999853E-2,-1.764999926E-1
3.128999531E1,-5.546000004E-1,6.258999705E-1,-9.642999768E-1
3.130999531E1,-9.941999912E-1,4.073999822E-1,-1.128000021E0
3.132999531E1,-1.239599943E0,7.423999906E-1,-1.515299916E0
3.134999531E1,-9.294999838E-1,8.772999644E-1,-9.546999931E-1
3.136999688E1,-5.633999705E-1,1.110399961E0,-1.133999974E-1
3.139999531E1,-6.215999722E-1,6.481999755E-1,-7.312999964E-1
3.141999531E1,-5.862999558E-1,3.112999797E-1,-1.046399951E0
3.143999531E1,-9.116999507E-1,7.428999543E-1,-9.625999928E-1
3.146000156E1,-9.480999708E-1,6.175999641E-1,-7.655000091E-1
3.148999531E1,-1.035200000E0,1.194199920E0,-5.570000038E-2
3.150999688E1,-3.163999915E-1,9.395999908E-1,-1.520900011E0
3.153999531E1,-9.329999983E-2,8.805999756E-1,9.862999916E-1
3.155999531E1,3.107999861E-1,3.371999860E-1,7.145999670E-1
3.157999531E1,-2.639999986E-1,4.813999832E-1,-3.112999797E-1
3.160000156E1,-3.930999935E-1,5.144000053E-1,-1.899999916E-3
3.162999688E1,5.069000125E-1,1.908999979E-1,1.795199990E0
3.165000312E1,-7.199999876E-3,4.779999852E-1,1.745599985E0
3.167999531E1,-8.833000064E-1,1.740000024E-2,-1.577999890E-1
3.170000469E1,-5.867999792E-1,-6.669999957E-1,-8.745999932E-1
3.172999688E1,-2.039999887E-2,-1.387799978E0,-2.079999894E-1
3.174999688E1,-5.655999780E-1,-1.079599977E0,7.949999571E-1
3.176999688E1,-5.992000103E-1,-1.007599950E0,9.794999957E-1
3.178999688E1,-2.529000044E-1,-9.207999706E-1,-2.430999875E-1
3.180999688E1,-1.601999998E-1,-2.078000009E-1,-1.277400017E0
3.184000000E1,2.645999789E-1,1.518999934E-1,-1.924199939E0
3.186999688E1,2.389999852E-2,4.639999866E-1,-1.231400013E0
3.189000000E1,1.467999965E-1,4.027999938E-1,-1.839399934E0
3.191999531E1,1.009999961E-1,2.549000084E-1,-1.460899949E0
3.194000312E1,-4.434999824E-1,4.917999804E-1,-5.532000065E-1
3.196999531E1,-6.970999837E-1,5.866999626E-1,-7.129999995E-1
3.198999844E1,9.999999776E-3,1.012899995E0,-2.432999909E-1
3.201999531E1,-5.048999786E-1,3.804000020E-1,1.160200000E0
3.204000313E1,-3.032999933E-1,1.508999914E-1,8.752999902E-1
3.206999531E1,1.500999928E-1,-8.161999583E-1,7.242000103E-1
3.209000000E1,-7.439000010E-1,1.118000001E-1,1.226099968E0
3.211999531E1,-1.031999961E-1,-3.240000084E-2,9.269999862E-1
3.213999844E1,4.060999751E-1,-1.598999947E-1,1.763799906E0
3.216999531E1,5.550000072E-1,-5.941999555E-1,2.233700037E0
3.218999531E1,1.095799923E0,-1.083500028E0,2.524699926E0
3.220999531E1,1.686299920E0,-1.018399954E0,2.172600031E0
3.222999688E1,1.901499987E0,-4.887000024E-1,1.512799978E0
3.224999688E1,1.440699935E0,-8.029999584E-2,1.127399921E0
3.226999688E1,6.089999676E-1,2.741999924E-1,1.057099938E0
3.228999688E1,2.821999788E-1,5.669000149E-1,2.138999999E-1
3.231999531E1,2.831999958E-1,6.236000061E-1,-1.152300000E0
3.233999688E1,-1.177999973E-1,6.548999548E-1,-1.612199903E0
3.236001094E1,-8.854999542E-1,1.184099913E0,-1.939299941E0
3.238999688E1,-1.043200016E0,9.820999503E-1,-2.194499969E0
3.240999688E1,-7.019000053E-1,6.295999885E-1,-2.344499826E0
3.242999688E1,-4.569999874E-1,1.641999930E-1,-1.765299916E0
3.244999688E1,-4.949999750E-1,4.547999799E-1,-1.543299913E0
3.247999688E1,-6.441999674E-1,6.410999894E-1,-1.155699968E0
3.249999688E1,-3.459999859E-1,8.374999762E-1,-9.496999979E-1
3.251999688E1,-3.601000011E-1,9.068999887E-1,-4.237999916E-1
3.254999688E1,-3.224999905E-1,7.642999887E-1,6.581999660E-1
3.256999688E1,-4.800000042E-2,5.478000045E-1,9.441999793E-1
3.258999688E1,-3.199000061E-1,4.230999947E-1,4.585999846E-1
3.260999688E1,-6.060000062E-1,2.556000054E-1,3.423999846E-1
3.262999688E1,-8.439999819E-2,-3.116999865E-1,7.053999901E-1
3.264999688E1,1.237999946E-1,-7.035999894E-1,6.471999884E-1
3.266999688E1,-5.475999713E-1,-4.222999811E-1,2.129999921E-2
3.268999688E1,-8.957999945E-1,-2.529999986E-2,-3.388999999E-1
3.270999688E1,-3.316999972E-1,-1.739999950E-1,-2.631999850E-1
3.273999531E1,2.793999910E-1,-9.050999880E-1,-2.748000026E-1
3.275999531E1,-6.109999865E-2,-1.036599994E0,-1.969999969E-1
3.277999531E1,-4.465999901E-1,-8.560000062E-1,-3.964999914E-1
3.279999688E1,-4.706999958E-1,-2.344999909E-1,-6.638000011E-1
3.281999688E1,-1.045999974E-1,2.017999887E-1,-3.231000006E-1
3.283999688E1,-1.299999952E-1,2.467999905E-1,-9.824000001E-1
3.285999688E1,6.179999709E-1,-2.454999983E-1,-9.569000006E-1
3.287999688E1,6.675999761E-1,-4.764999747E-1,-1.569499969E0
3.290999688E1,1.113699913E0,-1.143299937E0,-2.874099970E0
3.292999688E1,9.255999923E-1,-7.544999719E-1,-3.192699909E0
3.294999688E1,5.659999847E-1,-4.192999899E-1,-3.020599842E0
3.297999688E1,4.632999897E-1,-6.600999832E-1,-3.035799980E0
3.299999688E1,-1.059999969E-2,-1.722999960E-1,-1.798799992E0
3.301999688E1,3.680000082E-2,-1.393000036E-1,-6.137999892E-1
3.304999688E1,-3.542000055E-1,8.497999907E-1,1.617100000E0
3.307000469E1,-1.417199969E0,9.521999955E-1,1.733299971E0
3.309999688E1,-1.449599981E0,7.468000054E-1,6.387999654E-1
3.311999688E1,-1.134999990E0,8.235999942E-1,8.903999925E-1
3.315000156E1,-4.339999855E-1,-2.768000066E-1,1.199800014E0
3.317999688E1,-1.849699974E0,1.216599941E0,4.580999911E-1
3.319999688E1,-4.362999797E-1,1.242799997E0,2.642499924E0
3.321999688E1,-1.597999930E-1,6.330999732E-1,4.108099937E0
3.323999688E1,9.510999918E-1,-7.615999579E-1,4.028199673E0
3.326000000E1,2.057199955E0,-7.675999999E-1,1.628299952E0
3.328999688E1,1.794699907E0,-5.820999742E-1,-1.753999889E-1
3.330999844E1,1.379499912E0,3.321000040E-1,-1.347700000E0
3.333999688E1,-3.130999804E-1,2.075700045E0,-8.420000076E-1
3.336000625E1,-1.044099927E0,2.229199886E0,-8.544999957E-1
3.338999531E1,-6.696999669E-1,1.179600000E0,-7.008000016E-1
3.341000000E1,-2.119999975E-1,4.704999924E-1,-1.128700018E0
3.343999688E1,-2.026000023E-1,3.528999984E-1,-1.037500024E0
3.346000312E1,-5.256999731E-1,9.804999828E-1,-1.083400011E0
3.348999688E1,-8.467999697E-1,1.585699916E0,-1.555699944E0
3.350999844E1,-2.902999818E-1,1.167199969E0,-1.631999969E0
3.353999531E1,-3.700000001E-3,1.509899974E0,-4.025999904E-1
3.355999688E1,-1.884000003E-1,1.594900012E0,1.069700003E0
3.357999688E1,-4.365999997E-1,1.582299948E0,1.753999949E0
3.360001406E1,-8.039999753E-2,5.065999627E-1,1.365800023E0
3.362999531E1,5.069999695E-1,-9.129999876E-1,-9.829999506E-2
3.364999688E1,-5.749999732E-2,-8.536999822E-1,-8.411999941E-1
3.366999688E1,-1.692000031E-1,-1.323799968E0,-7.051999569E-1
3.368999688E1,5.888000131E-1,-2.802099943E0,-9.977999926E-1
3.370999688E1,1.273800015E0,-2.575399876E0,-5.489000082E-1
3.372999688E1,7.353999615E-1,-2.030200005E0,-7.729999721E-2
3.375000312E1,5.169999599E-1,-1.754699945E0,-1.195500016E0
3.377999531E1,-1.084999919E0,-5.594999790E-1,-1.924099922E0
3.379999688E1,-2.597499847E0,8.349999785E-1,-1.741099954E0
3.382999531E1,-5.776000023E-1,6.283000112E-1,-2.174599886E0
3.384999844E1,3.492999971E-1,6.369999647E-1,-1.450699925E0
3.387999688E1,-4.314000010E-1,8.865999579E-1,-1.511500001E0
3.390999688E1,6.444999576E-1,-9.448999763E-1,-1.137599945E0
3.392999688E1,6.290000081E-1,-4.675999880E-1,-1.087599993E0
3.395000312E1,-9.093999863E-1,3.799999952E-1,-4.217000008E-1
3.397999688E1,-1.955500007E0,3.018999994E-1,4.759999812E-1
3.400999688E1,-6.485999823E-1,-4.055999815E-1,1.990000010E-1
3.402999688E1,4.441999793E-1,-1.537999958E-1,4.247999787E-1
3.404999688E1,8.715999722E-1,6.342999935E-1,1.349799991E0
3.407999688E1,8.709999919E-2,6.581999660E-1,7.080999613E-1
3.410999531E1,4.849999771E-2,9.269999713E-2,1.320999980E0
3.413999531E1,-2.929999828E-1,-2.353999913E-1,2.531599998E0
3.415999531E1,-3.465999961E-1,1.280999929E-1,1.965199947E0
3.418999531E1,4.109999835E-1,-4.815999866E-1,1.437399983E0
3.420999531E1,4.206999838E-1,-8.953999877E-1,1.638799906E0
3.422999531E1,4.039999843E-2,-5.363000035E-1,1.116400003E0
3.426000156E1,6.686999798E-1,-3.876000047E-1,-2.560999990E-1
3.428999688E1,3.610999882E-1,4.548999965E-1,-9.208999872E-1
3.431999531E1,1.465999931E-1,9.092999697E-1,-1.422599912E0
3.434000312E1,5.192999840E-1,7.930999994E-1,-1.587899923E0
3.436002656E1,1.553999931E-1,9.732999802E-1,-1.365099907E0
3.438999531E1,-6.453999877E-1,1.144199967E0,-1.839299917E0
3.440999531E1,-3.533999920E-1,7.030999660E-1,-2.268599987E0
3.442999688E1,-6.922999620E-1,1.072000027E0,-1.875499964E0
3.445999531E1,-1.875000000E-1,1.382699966E0,-7.919999957E-1
3.447999531E1,4.959999770E-2,1.139199972E0,-6.269999743E-1
3.450999531E1,-4.864999950E-1,1.196599960E0,-4.199999869E-1
3.452999844E1,-1.095299959E0,1.304099917E0,-3.404999971E-1
3.455999531E1,-1.112200022E0,1.006699920E0,3.964000046E-1
3.457999844E1,-5.870000124E-1,5.622999668E-1,6.290000081E-1
3.460999375E1,-6.196999550E-1,4.435999990E-1,4.925999939E-1
3.463000000E1,-7.177000046E-1,2.807999849E-1,8.554999828E-1
3.465999531E1,-2.434999943E-1,-7.130999565E-1,1.112900019E0
3.468000000E1,-5.268999934E-1,-5.246999860E-1,4.278999865E-1
3.470999531E1,-4.837999940E-1,-8.273999691E-1,7.719999552E-1
3.472999688E1,-2.397999913E-1,-1.176299930E0,1.093699932E0
3.475999531E1,3.161000013E-1,-1.111899972E0,5.975999832E-1
3.478000156E1,-1.609999873E-2,-1.136299968E0,-3.353999853E-1
3.480999531E1,-6.556000113E-1,-4.599999785E-1,-1.558599949E0
3.482999531E1,-2.467999905E-1,-8.519999683E-2,-2.063499928E0
3.484999531E1,3.064000010E-1,-9.759999812E-2,-2.199199915E0
3.487000156E1,8.748999834E-1,-4.463000000E-1,-1.654999971E0
3.489999531E1,-4.259999990E-1,1.709000021E-1,-1.300799966E0
3.491999844E1,-1.837999970E-1,3.097999990E-1,-1.651099920E0
3.494999531E1,-3.920000046E-2,5.273000002E-1,-2.046299934E0
3.497000000E1,2.965999842E-1,-1.787000000E-1,-1.780900002E0
3.499999531E1,-6.926999688E-1,1.870999932E-1,-1.317799926E0
3.501999531E1,-1.286000013E0,4.816999733E-1,-3.614999950E-1
3.503999531E1,-1.630399942E0,4.811999798E-1,8.944000006E-1
3.505999531E1,-9.846999645E-1,2.789999917E-2,1.744599938E0
3.507999688E1,-6.617000103E-1,-4.030999839E-1,1.802399993E0
3.510999531E1,5.076000094E-1,-3.360999823E-1,7.498999834E-1
3.512999531E1,9.631999731E-1,-2.120999992E-1,2.063099861E0
3.514999688E1,-5.412999988E-1,2.023999989E-1,1.982800007E0
3.517999531E1,-1.811299920E0,7.958999872E-1,1.999399900E0
3.519999531E1,-6.309999824E-1,-6.769999862E-2,2.799999952E0
3.521999531E1,4.283999801E-1,-9.716999531E-1,3.861499786E0
3.523999531E1,1.189899921E0,-9.296000004E-1,2.058199883E0
3.525999844E1,2.067199945E0,-1.374899983E0,1.239699960E0
3.528999531E1,2.418900013E0,-1.086599946E0,-2.474200010E0
3.531000000E1,9.818999767E-1,1.484999955E-1,-2.777499914E0
3.533999531E1,-9.420000017E-2,9.887999892E-1,-2.912600040E0
3.536000469E1,-2.017999887E-1,9.501999617E-1,-3.000299931E0
3.538999531E1,-3.114999831E-1,1.150799990E0,-2.770200014E0
3.541000156E1,-4.400999844E-1,1.027099967E0,-2.004899979E0
3.543999531E1,-9.092999697E-1,1.814099908E0,-6.457999945E-1
3.546000156E1,-9.395999908E-1,1.869799972E0,-6.999999750E-3
3.548999688E1,-3.772999942E-1,1.047199965E0,1.696999967E-1
3.551000313E1,3.832999766E-1,7.386999726E-1,-4.087999761E-1
3.553999531E1,3.867999911E-1,1.299899936E0,-9.811999798E-1
3.556000312E1,-1.246999949E-1,1.547599912E0,1.209999993E-1
3.558999688E1,-2.795000076E-1,6.373999715E-1,1.242299914E0
3.560999688E1,-1.149999976E0,5.475000143E-1,3.206999898E-1
3.563999531E1,-1.026999950E0,2.950000018E-2,1.506399989E0
3.565999844E1,3.050999939E-1,-2.985000014E-1,1.846999973E-1
3.568999531E1,-7.443000078E-1,1.879999936E-1,8.800999522E-1
3.570999531E1,-7.673000097E-1,-2.770999968E-1,1.129400015E0
3.572999531E1,-4.247999787E-1,-7.585999966E-1,1.635800004E0
3.575000000E1,-3.678999841E-1,-9.352999926E-1,1.322499990E0
3.577999531E1,-1.226999983E-1,-1.428099990E0,-5.356999636E-1
3.579999531E1,-2.935999930E-1,-1.476400018E0,-1.062799931E0
3.581999531E1,-4.906999767E-1,-1.150399923E0,-1.173099995E0
3.583999531E1,-7.166999578E-1,-5.119000077E-1,-1.171000004E0
3.585999688E1,-5.289999843E-1,-4.720999897E-1,-9.998999834E-1
3.589000781E1,-5.054999590E-1,2.689999938E-1,-8.089999855E-2
3.591999531E1,1.634999961E-1,1.299999934E-2,-3.581999838E-1
3.593999531E1,1.916999966E-1,1.301999986E-1,-8.868999481E-1
3.595999531E1,1.184999943E-1,6.949999928E-2,-1.220600009E0
3.597999531E1,-2.129999995E-1,-1.523000002E-1,-1.830999970E0
3.600000000E1,-5.212000012E-1,3.048999906E-1,-1.065099955E0
3.602999531E1,-3.978999853E-1,4.469999969E-1,-5.974000096E-1
3.604999531E1,-4.028999805E-1,3.935000002E-1,8.559999615E-2
3.607000156E1,-8.499999531E-3,9.009999782E-2,8.379999548E-2
3.609999844E1,3.570000082E-2,-1.070400000E0,2.293900013E0
3.612999688E1,-9.614999890E-1,1.246999949E-1,1.639599919E0
3.615000156E1,-8.865000010E-1,9.386000037E-1,1.585199952E0
3.617999531E1,1.530200005E0,-1.039099932E0,2.797999978E-1
3.619999688E1,1.530999988E-1,-2.527999878E-1,1.175999939E-1
3.621999688E1,5.480000004E-2,-8.438999653E-1,6.190999746E-1
3.624000156E1,5.044999719E-1,-6.882999539E-1,1.369599938E0
3.626999688E1,1.205699921E0,1.665000021E-1,8.406999707E-1
3.628999688E1,1.534199953E0,3.463999927E-1,1.868999898E-1
3.630999688E1,1.261999965E0,5.597000122E-1,-7.488999963E-1
3.634000000E1,1.686999947E-1,8.410999775E-1,-7.584999800E-1
3.636999688E1,-4.063999951E-1,5.011999607E-1,-1.483799934E0
3.639000469E1,-6.134999990E-1,8.841999769E-1,-2.117399931E0
3.641999531E1,-5.389999747E-1,1.044899940E0,-1.893099904E0
3.644000313E1,-4.310999811E-1,1.100999951E0,-1.085399985E0
3.647000625E1,-2.400000021E-2,5.618000031E-1,-7.110999823E-1
3.649999688E1,-2.610999942E-1,6.683999896E-1,-1.270499945E0
3.651999688E1,-1.372999996E-1,7.195000052E-1,-1.421800017E0
3.653999688E1,-6.632999778E-1,1.292899966E0,-2.360000014E-1
3.655999688E1,-1.177699924E0,1.646299958E0,2.159999870E-2
3.658000000E1,-9.341999888E-1,1.419499993E0,1.150799990E0
3.661000000E1,-6.732000113E-1,4.226999879E-1,9.085999727E-1
3.663999688E1,-6.371999979E-1,5.787000060E-1,1.583999991E0
3.665999688E1,-6.409999728E-2,-4.272999763E-1,2.272799969E0
3.668000469E1,6.480000168E-2,-9.006999731E-1,2.202699900E0
3.670999688E1,-2.754999995E-1,-1.042199969E0,1.542299986E0
3.672999688E1,-1.206999943E-1,-1.208899975E0,1.267099977E0
3.675999531E1,6.619999558E-2,-7.184999585E-1,8.599999547E-2
3.678000156E1,-2.802000046E-1,-5.042999983E-1,7.580000162E-2
3.680999531E1,-5.012999773E-1,-8.259999752E-1,-1.070699930E0
3.683000313E1,-3.285999894E-1,-7.663999796E-1,-1.373099923E0
3.685999531E1,-4.371999800E-1,7.819999754E-2,-1.752399921E0
3.688000156E1,6.030000001E-2,-6.079999730E-2,-1.968799949E0
3.690999531E1,-1.967999935E-1,-2.210000008E-1,-1.797199965E0
3.693000000E1,-5.155999660E-1,-3.200999796E-1,-1.215199947E0
3.695999531E1,-7.680999637E-1,-3.603999913E-1,-2.782000005E-1
3.697999531E1,-1.895999908E-1,-2.150999904E-1,-8.592000008E-1
3.699999531E1,3.000000026E-3,-6.759999692E-2,-1.355799913E0
3.701999531E1,-3.819999993E-1,2.261999995E-1,-1.364799976E0
3.703999531E1,-3.650999963E-1,4.434999824E-1,-1.633899927E0
3.706000000E1,-3.560999930E-1,4.375000000E-1,-6.098999977E-1
3.708999531E1,5.063999891E-1,-1.079999935E-2,1.072799921E0
3.710999531E1,-3.619000018E-1,6.627999544E-1,8.552999496E-1
3.712999531E1,-7.683999538E-1,1.028399944E0,9.945999980E-1
3.714999688E1,2.583000064E-1,1.384000033E-1,1.337099910E0
3.717000000E1,1.062099934E0,-6.148999929E-1,1.764799953E0
3.719999531E1,-5.180999637E-1,-8.786000013E-1,1.073400021E0
3.722000313E1,-1.032199979E0,-1.832000017E-1,1.508999944E0
3.724999531E1,1.063499928E0,-2.446999997E-1,2.274299860E0
3.727001406E1,1.378600001E0,-4.661999941E-1,1.656799912E0
3.729999688E1,1.201300025E0,1.395999938E-1,-2.579999901E-2
3.732000469E1,1.145999953E-1,2.540000081E-1,-5.137999654E-1
3.734999531E1,-4.754000008E-1,5.291000009E-1,-1.750999928E0
3.737000156E1,-4.238999784E-1,8.118000031E-1,-2.092799902E0
3.739999531E1,-1.171599984E0,1.251299977E0,-1.624599934E0
3.741999844E1,-1.518899918E0,1.310799956E0,-1.018100023E0
3.744999531E1,-8.452999592E-1,2.827999890E-1,-8.430999517E-1
3.746999531E1,-8.689999580E-1,5.101999640E-1,-6.082999706E-1
3.748999531E1,-8.815999627E-1,5.920000076E-1,-8.001999855E-1
3.751000000E1,-7.937999964E-1,7.497999668E-1,-7.307999730E-1
3.753999531E1,-3.766999841E-1,1.054299951E0,-1.150999963E-1
3.756000000E1,4.699999932E-3,1.147699952E0,2.397999913E-1
3.758999531E1,-1.827999949E-1,1.168799996E0,5.206999779E-1
3.761000000E1,2.009999938E-2,7.203999758E-1,4.253999889E-1
3.763999531E1,-7.816999555E-1,1.092800021E0,-8.439999819E-2
3.766000156E1,-6.202999949E-1,6.197999716E-1,4.231999815E-1
3.769000938E1,6.535999775E-1,-6.807000041E-1,1.165099978E0
3.771999531E1,-5.331999660E-1,-6.642000079E-1,1.532499909E0
3.773999531E1,-1.207999945E0,-6.764000058E-1,1.517899990E0
3.776000156E1,-1.008199930E0,-1.052199960E0,1.176299930E0
3.778999531E1,-4.684000015E-1,-8.315999508E-1,3.411999941E-1
3.780999531E1,-9.970999956E-1,6.669999659E-2,3.225999773E-1
3.782999531E1,-6.078000069E-1,2.290000021E-2,-2.721999884E-1
3.784999531E1,-1.541000009E-1,-3.583999872E-1,-5.471000075E-1
3.786999531E1,-5.220999718E-1,-1.022999957E-1,-5.047999620E-1
3.788999531E1,-7.566999793E-1,-1.606999934E-1,-8.058999777E-1
3.790999531E1,-5.047999620E-1,-3.366999924E-1,-1.296700001E0
3.792999531E1,-4.197999835E-1,-3.159999847E-1,-1.512499928E0
3.794999531E1,-3.364999890E-1,-3.564999998E-1,-1.974499941E0
3.797000469E1,-2.613999844E-1,-4.652999938E-1,-2.103199959E0
3.799999531E1,-3.819999993E-1,-3.895999789E-1,-2.190599918E0
3.801999531E1,-5.288000107E-1,-7.479999959E-2,-1.807199955E0
3.803999531E1,-7.168999910E-1,1.516999900E-1,-9.200999737E-1
3.805999531E1,-7.082999945E-1,3.394999802E-1,-2.803999782E-1
3.807999531E1,4.600000009E-2,1.049999967E-1,5.171999931E-1
3.810000000E1,4.150999784E-1,4.799999762E-3,1.747099996E0
3.812999531E1,2.439999878E-1,-1.533000022E-1,6.402999759E-1
3.815000313E1,-5.746999979E-1,4.129999876E-1,7.843999863E-1
3.817999531E1,1.080999970E-1,3.210999966E-1,2.486500025E0
3.819999531E1,7.346999645E-1,-7.330999970E-1,3.026399851E0
3.821999531E1,3.393999934E-1,-9.177999496E-1,3.168099880E0
3.823999531E1,2.031999975E-1,-6.094999909E-1,2.440199852E0
3.825999531E1,3.976999819E-1,-5.101999640E-1,1.463099957E0
3.827999531E1,9.271999598E-1,-5.755999684E-1,6.486999989E-1
3.829999531E1,1.297500014E0,-2.894999981E-1,5.037999749E-1
3.831999531E1,1.569800019E0,2.987000048E-1,1.074000001E-1
3.834000312E1,1.219399929E0,9.004999995E-1,-5.315999985E-1
3.836999531E1,3.158999979E-1,1.234799981E0,-2.073899984E0
3.839000156E1,-1.250000000E-1,8.725000024E-1,-2.650799990E0
3.841999531E1,-7.529000044E-1,8.274999857E-1,-2.801299810E0
3.843999688E1,-8.226999640E-1,8.193999529E-1,-2.399399996E0
3.846999531E1,-9.110999703E-1,8.718000054E-1,-1.643999934E0
3.848999531E1,-7.574999928E-1,6.234999895E-1,-1.144699931E0
3.850999688E1,-7.930999994E-1,6.230999827E-1,-5.999999642E-1
3.853999688E1,-7.670999765E-1,1.238600016E0,1.168999970E-1
3.856999531E1,-6.197999716E-1,1.434899926E0,8.739999533E-1
3.858999531E1,-4.608999789E-1,1.236799955E0,1.221400023E0
3.860999531E1,4.793999791E-1,2.716000080E-1,5.537999868E-1
3.863000156E1,1.594000012E-1,1.715999991E-1,4.359999895E-1
3.865999531E1,-2.859999835E-1,5.977999568E-1,8.280000091E-2
3.867999531E1,4.355999827E-1,-9.279999882E-2,7.718999982E-1
3.869999531E1,-5.543999672E-1,-1.349999905E-1,6.340000033E-2
3.871999531E1,-8.734999895E-1,-4.820999801E-1,1.068699956E0
3.873999531E1,-1.992999911E-1,-9.151999950E-1,1.698599935E0
3.875999531E1,3.948999941E-1,-9.449999928E-1,1.962399960E0
3.877999531E1,7.103999853E-1,-1.710799932E0,1.159099936E0
3.879999531E1,2.029999904E-2,-1.763299942E0,2.486999929E-1
3.881999531E1,-6.279000044E-1,-1.386699915E0,-7.626999617E-1
3.883999531E1,-6.347000003E-1,-4.517999887E-1,-1.373999953E0
3.885999531E1,2.129999921E-2,5.216000080E-1,-2.096199989E0
3.887999844E1,8.975999951E-1,1.124499917E0,-3.084699869E0
3.890999531E1,2.009999990E0,1.059599996E0,-4.271500111E0
3.893000156E1,2.555999994E0,8.200999498E-1,-5.167500019E0
3.895999531E1,3.287599802E0,-1.155999973E-1,-6.492699623E0
3.898000000E1,3.651399851E0,1.909999922E-2,-7.063899994E0
3.900999531E1,3.394199848E0,-1.414199948E0,-6.442399979E0
3.902999531E1,3.125499964E0,-1.068699956E0,-6.338399887E0
3.904999531E1,3.652899981E0,-1.396299958E0,-6.133499622E0
3.907000156E1,4.930099964E0,-2.475699902E0,-5.960099697E0
3.909999531E1,5.442299843E0,-3.045599937E0,-2.867300034E0
3.911999844E1,4.266399860E0,-3.094499826E0,-4.646999836E-1
3.914999531E1,4.746099949E0,-4.903899670E0,-1.231400013E0
3.916999531E1,4.049099922E0,-5.817199707E0,-1.716699958E0
3.918999531E1,3.364499807E0,-5.928499699E0,-6.341999769E-1
3.920999531E1,3.278800011E0,-6.364699841E0,1.120499969E0
3.922999531E1,4.150000095E0,-7.941299915E0,2.177700043E0
3.924999531E1,6.319399834E0,-9.854999542E0,3.921199799E0
3.927000469E1,7.933899879E0,-1.061870003E1,3.805599928E0
3.929999688E1,7.851899624E0,-1.047809982E1,1.410899997E0
3.932999531E1,4.226200104E0,-6.480999947E0,2.908399820E0
3.935000156E1,1.894299984E0,-4.582499981E0,5.303299904E0
3.937999688E1,-7.226999998E-1,-1.046599984E0,6.099899769E0
3.941000469E1,-4.043000042E-1,1.723199964E0,6.971099854E0
3.943999688E1,9.504999518E-1,3.394899845E0,7.180599689E0
3.945999688E1,1.488199949E0,4.430799961E0,7.211199760E0
3.948999688E1,1.893199921E0,5.744999886E0,8.910999298E0
3.950999688E1,1.223899961E0,6.737899780E0,9.913199425E0
3.953999531E1,7.355999947E-1,7.120999813E0,1.198810005E1
3.955999844E1,9.370999932E-1,5.816199780E0,1.280639935E1
3.958999688E1,4.861999750E-1,3.546099901E0,1.078020000E1
3.961000313E1,1.042999983E0,1.356099963E0,1.053160000E1
3.963999688E1,1.487100005E0,-4.517999887E-1,1.181789970E1
3.965999688E1,2.259799957E0,-1.519500017E0,1.211479950E1
3.968999531E1,4.706099987E0,-4.572099686E0,1.209319973E1
3.971000156E1,5.362099648E0,-6.441899776E0,1.138420010E1
3.973999688E1,2.549299955E0,-6.132299900E0,8.735899925E0
3.976000156E1,-9.640000015E-2,-4.153899670E0,7.090799809E0
3.978999531E1,-3.719999790E-1,-2.573199987E0,5.395400047E0
3.981000000E1,1.084299922E0,-3.143399954E0,4.386499882E0
3.983999531E1,2.127199888E0,-5.204099655E0,3.404799938E0
3.985999531E1,1.634400010E0,-6.769899845E0,2.998299837E0
3.987999531E1,1.359300017E0,-7.475399971E0,2.813799858E0
3.990000469E1,2.086199999E0,-8.067899704E0,2.439699888E0
3.992999531E1,3.094499826E0,-8.792099953E0,1.474299908E0
3.995000156E1,2.766899824E0,-8.386499405E0,1.631899953E0
3.997999531E1,3.179499865E0,-8.726699829E0,1.177199960E0
3.999999844E1,3.530299902E0,-8.434800148E0,1.481999904E-1
4.002999531E1,4.257699966E0,-7.301499844E0,-4.095999897E-1
4.005000156E1,4.597399712E0,-7.182699680E0,-1.560099959E0
4.007999531E1,4.041299820E0,-5.961799622E0,-3.168999910E0
4.009999531E1,2.921000004E0,-4.251299858E0,-3.461199999E0
4.011999531E1,3.209899902E0,-4.384200096E0,-3.113399982E0
4.013999531E1,2.987699986E0,-3.853399992E0,-4.243299961E0
4.015999531E1,2.375299931E0,-2.703299999E0,-4.559799671E0
4.017999531E1,1.554299951E0,-1.553200006E0,-3.774199963E0
4.020000312E1,1.810999990E0,-1.056399941E0,-2.778899908E0
4.022999531E1,2.365000010E0,-1.289099932E0,-8.879999816E-2
4.024999844E1,2.183599949E0,-1.003199935E0,7.109999657E-2
4.027999531E1,2.400399923E0,-2.811999917E-1,-1.036999941E0
4.029999844E1,2.125000000E0,5.169999599E-1,-1.105599999E0
4.032999531E1,2.007499933E0,4.375000000E-1,-7.945999503E-1
4.034999844E1,1.425699949E0,9.159999490E-1,-9.438999891E-1
4.037999531E1,8.953999877E-1,1.152599931E0,-1.714399934E0
4.039999531E1,6.381999850E-1,1.040899992E0,-2.522500038E0
4.041999531E1,6.352999806E-1,8.190999627E-1,-3.649599791E0
4.044000000E1,1.097999960E-1,1.096899986E0,-4.390199661E0
4.046999531E1,-4.231999815E-1,1.392699957E0,-3.082700014E0
4.048999688E1,3.432999849E-1,9.648000002E-1,-1.819899917E0
4.051999531E1,2.294999957E-1,1.049399972E0,-2.504999936E-1
4.053999844E1,1.656999886E-1,9.884999990E-1,-3.619999886E-1
4.056999531E1,6.442999840E-1,7.818999887E-1,-1.115499973E0
4.058999844E1,3.044999838E-1,1.197499990E0,-1.268999934E0
4.061999531E1,-1.081999987E-1,1.810799956E0,4.606999755E-1
4.064000000E1,9.064999819E-1,1.563199997E0,1.685799956E0
4.067000156E1,1.113799930E0,6.135999560E-1,1.849699974E0
4.069999531E1,4.684999883E-1,8.630000055E-2,-2.733999789E-1
4.071999531E1,3.102000058E-1,-9.239999950E-2,-1.270200014E0
4.074000000E1,3.294999897E-1,-1.383000016E-1,-1.164999962E0
4.076999531E1,5.205999613E-1,-9.470000118E-2,4.470999837E-1
4.078999531E1,7.148999572E-1,2.339999937E-2,1.079900026E0
4.080999531E1,1.108799934E0,3.473999798E-1,1.251699924E0
4.083000313E1,1.605999947E0,4.197999835E-1,5.141000152E-1
4.085999531E1,2.011399984E0,9.129999578E-2,-1.194800019E0
4.088000312E1,1.642599940E0,5.939999968E-2,-1.941399932E0
4.090999531E1,8.601999879E-1,-2.513999939E-1,-2.525399923E0
4.092999688E1,4.150999784E-1,-4.138999879E-1,-2.506899834E0
4.095999531E1,2.574999928E-1,-4.157999754E-1,-1.896600008E0
4.097999844E1,3.673999906E-1,-1.061000004E-1,-1.741499901E0
4.100999531E1,4.089999795E-1,2.933999896E-1,-1.240999937E0
4.102999844E1,5.428999662E-1,3.604999781E-1,-6.222999692E-1
4.105999531E1,-1.504999995E-1,9.776999950E-1,-4.368999898E-1
4.108000000E1,-7.030999660E-1,1.908100009E0,-7.802999616E-1
4.110999531E1,1.084599972E0,8.029999733E-1,-4.159999788E-1
4.112999844E1,2.716199875E0,-1.003600001E0,1.747099996E0
4.115999531E1,2.036499977E0,-9.157999754E-1,4.920899868E0
4.118000313E1,1.967700005E0,-1.173099995E0,4.627099991E0
4.120999531E1,2.356299877E0,-9.769999981E-1,8.047999740E-1
4.122999531E1,2.103399992E0,-3.967999816E-1,3.210399866E0
4.124999531E1,1.790300012E0,1.731999964E-1,-4.671999812E-1
4.126999531E1,6.978999972E-1,1.305999905E-1,-1.945899963E0
4.128999531E1,-3.676999807E-1,3.344999850E-1,-3.311100006E0
4.130999531E1,-1.338999987E0,6.031000018E-1,-3.924599886E0
4.132999531E1,-1.983099937E0,7.651999593E-1,-4.090499878E0
4.134999531E1,-2.019799948E0,8.353999853E-1,-4.056600094E0
4.136999688E1,-1.960299969E0,1.078499913E0,-3.953299999E0
4.139999531E1,-2.194900036E0,1.896299958E0,-3.014199972E0
4.141999531E1,-1.996499896E0,2.193699837E0,-2.152199984E0
4.143999531E1,-4.746999741E-1,8.168999553E-1,-7.245999575E-1
4.145999531E1,-1.662999988E-1,1.033499956E0,5.967999697E-1
4.147999688E1,-5.557000041E-1,1.735899925E0,2.421000004E0
4.150999531E1,-4.056999981E-1,1.459199905E0,4.062599659E0
4.152999531E1,-5.648999810E-1,9.327999949E-1,4.310499668E0
4.154999531E1,-1.467099905E0,1.255399942E0,3.835599899E0
4.156999531E1,-9.375999570E-1,7.214999795E-1,4.153299809E0
4.158999688E1,1.093999967E-1,-4.140999913E-1,4.106100082E0
4.160999688E1,-3.405999839E-1,-9.411999583E-1,3.113299847E0
4.162999688E1,-1.568099976E0,-9.163999557E-1,1.758599997E0
4.164999688E1,-2.164099932E0,-1.222999930E0,1.050099969E0
4.166999688E1,-2.402400017E0,-1.339900017E0,7.833999991E-1
4.169999688E1,-2.421000004E0,-1.442699909E0,1.130999997E-1
4.171999688E1,-2.478499889E0,-1.374799967E0,-4.296000004E-1
4.174999531E1,-2.289099932E0,-1.002499938E0,-9.017999768E-1
4.176999531E1,-2.135699987E0,-6.972000003E-1,-8.794999719E-1
4.178999531E1,-1.662799954E0,-8.265999556E-1,-1.172599912E0
4.180999531E1,-1.309499979E0,-8.014000058E-1,-1.494399905E0
4.182999531E1,-1.086699963E0,-9.722999930E-1,-1.648899913E0
4.184999531E1,-9.781000018E-1,-1.379899979E0,-1.922199965E0
4.186999688E1,-1.303799987E0,-1.283399940E0,-2.055099964E0
4.189999531E1,-1.386799932E0,-9.056999683E-1,-1.763499975E0
4.191999531E1,-9.827999473E-1,-9.353999496E-1,-1.788199902E0
4.193999531E1,-8.920999765E-1,-5.922999978E-1,-2.066499949E0
4.195999531E1,-1.079100013E0,-2.953000069E-1,-1.876099944E0
4.197999531E1,-9.673999548E-1,1.368999928E-1,-1.438300014E0
4.199999531E1,-4.822999835E-1,2.904999852E-1,-4.884999990E-1
4.201999531E1,-3.139999881E-2,-8.819999546E-2,-6.560000032E-2
4.203999531E1,-2.561999857E-1,-8.540000021E-2,2.219999880E-1
4.206001406E1,-1.747999907E0,1.018399954E0,-4.550999999E-1
4.208999531E1,-1.733599901E0,1.407599926E0,-1.450299978E0
4.210999531E1,-2.286999971E-1,3.901999891E-1,-9.980999827E-1
4.212999531E1,1.222100019E0,-5.214999914E-1,4.807999730E-1
4.215000469E1,1.189499974E0,-3.294000030E-1,2.549299955E0
4.217999531E1,5.184000134E-1,-1.049999986E-2,4.367300034E0
4.219999531E1,1.260599971E0,8.419999480E-2,3.322799921E0
4.221999531E1,2.874699831E0,-1.008399963E0,1.678599954E0
4.223999531E1,2.840199947E0,-1.480999947E0,2.053799868E0
4.225999531E1,1.018999964E-1,4.357999861E-1,2.220999897E-1
4.227999531E1,-1.220700026E0,8.102999926E-1,-2.045199871E0
4.229999688E1,-1.573399901E0,6.097999811E-1,-2.966399908E0
4.232999531E1,-1.492299914E0,5.149999857E-1,-3.005599976E0
4.234999531E1,-1.330999970E0,6.724999547E-1,-3.006700039E0
4.236999688E1,-1.317699909E0,9.906999469E-1,-2.674299955E0
4.239999531E1,-1.013399959E0,6.762999892E-1,-1.988899946E0
4.241999531E1,-8.009999990E-1,3.691000044E-1,-2.003499985E0
4.243999531E1,-8.209999800E-1,2.108999938E-1,-1.890899897E0
4.245999531E1,-8.873999715E-1,5.232999921E-1,-2.118999958E0
4.247999531E1,-4.005999863E-1,4.360999763E-1,-2.532899857E0
4.249999531E1,1.466999948E-1,1.590999961E-1,-2.963899851E0
4.251999531E1,5.399999768E-2,-1.894999892E-1,-3.133399963E0
4.253999531E1,-6.970999837E-1,-2.469999939E-1,-3.036499977E0
4.255999531E1,-1.209100008E0,-4.756999910E-1,-2.388099909E0
4.257999688E1,-9.307000041E-1,-1.389299989E0,-2.871799946E0
4.260999531E1,1.292999983E-1,-2.864899874E0,-1.068799973E0
4.262999531E1,7.267999649E-1,-3.240499973E0,1.720999926E-1
4.264999531E1,1.808599949E0,-3.477699995E0,2.233899832E0
4.266999531E1,1.919499993E0,-3.022899866E0,4.361700058E0
4.268999531E1,9.089999795E-1,-2.282299995E0,5.661200047E0
4.270999531E1,1.075999960E-1,-1.432699919E0,6.534599781E0
4.272999531E1,-8.192999959E-1,-1.260000020E-1,5.976799965E0
4.274999531E1,-1.872999907E0,1.176699996E0,4.661299706E0
4.276999531E1,-2.239699841E0,1.615499973E0,3.661899805E0
4.278999531E1,-2.012899876E0,2.202199936E0,3.147599936E0
4.280999531E1,-1.303699970E0,2.909199953E0,2.604699850E0
4.282999531E1,-3.893999755E-1,2.688299894E0,2.144500017E0
4.284999531E1,-3.470000029E-1,2.517499924E0,1.569299936E0
4.286999688E1,-7.221999764E-1,2.411499977E0,1.273599982E0
4.289999531E1,-1.418699980E0,1.850399971E0,1.633700013E0
4.291999531E1,-1.221099973E0,1.350700021E0,2.968899965E0
4.293999531E1,-8.571999669E-1,6.496999860E-1,4.086599827E0
4.295999531E1,-9.106999636E-1,9.429999441E-2,3.415099859E0
4.297999531E1,-1.013499975E0,-7.559999824E-2,1.629599929E0
4.299999531E1,-1.252599955E0,4.490999877E-1,1.144999936E-1
4.301999531E1,-1.211899996E0,4.569000006E-1,1.084699988E0
4.303999531E1,-1.383199930E0,2.234999985E-1,2.111899853E0
4.305999688E1,-1.156499982E0,-3.218999803E-1,3.651299953E0
4.308999531E1,-1.088699937E0,-9.134999514E-1,3.808899879E0
4.310999531E1,1.537999958E-1,-1.255800009E0,2.919800043E0
4.312999844E1,1.497399926E0,-9.099999666E-1,1.988399982E0
4.315999531E1,2.733000040E0,-5.049999952E-1,1.186900020E0
4.317999531E1,2.052399874E0,-1.162000000E-1,6.553999782E-1
4.319999531E1,9.527999759E-1,1.759999990E-1,-9.141999483E-1
4.321999531E1,6.624999642E-1,-1.228999943E-1,-2.237799883E0
4.323999531E1,4.915999770E-1,-3.574000001E-1,-3.487900019E0
4.325999531E1,1.799999923E-2,-2.302999943E-1,-3.944399834E0
4.327999531E1,-3.890999854E-1,-5.799999926E-3,-3.215699911E0
4.329999531E1,-4.378999770E-1,-3.559999913E-2,-3.063699961E0
4.331999531E1,1.105999947E-1,-9.649999738E-1,-3.214399815E0
4.334999531E1,3.407000005E-1,-1.208500028E0,-2.429600000E0
4.336999531E1,1.206000000E-1,-6.143999696E-1,-1.899899960E0
4.338999688E1,-8.639999479E-2,-3.276999891E-1,-1.148399949E0
4.341999531E1,-4.479999840E-1,-1.146999970E-1,-2.845000029E-1
4.343999531E1,-9.003999829E-1,-1.153999940E-1,2.072999924E-1
4.345999531E1,-1.749199986E0,5.550999641E-1,7.277999520E-1
4.347999531E1,-1.673099995E0,5.889999866E-1,2.735999823E-1
4.349999531E1,-1.473299980E0,7.210999727E-1,-6.516000032E-1
4.351999531E1,-1.457599998E0,7.579999566E-1,-5.799999833E-1
4.353999531E1,-6.732000113E-1,1.677999943E-1,-6.254999638E-1
4.355999688E1,3.659999967E-1,-5.602999926E-1,-5.564999580E-1
4.358999531E1,-1.479000002E-1,-9.089999646E-2,-3.913999796E-1
4.360999531E1,-8.338999748E-1,9.049999714E-2,-3.023999929E-1
4.362999531E1,-5.536000133E-1,-1.889999956E-1,-6.730999947E-1
4.364999531E1,-4.339999706E-2,-5.798000097E-1,-5.443999767E-1
4.366999531E1,4.441999793E-1,-7.738999724E-1,-8.427000046E-1
4.368999531E1,1.017699957E0,-8.518999815E-1,-1.214200020E0
4.370999531E1,1.510599971E0,-1.127799988E0,-1.451399922E0
4.372999531E1,1.512599945E0,-9.544000030E-1,-1.439099908E0
4.374999531E1,7.566999793E-1,-5.376999974E-1,-1.465099931E0
4.376999531E1,3.871999979E-1,-5.609999895E-1,-1.254599929E0
4.378999531E1,5.799999926E-3,-5.279999971E-1,-1.295499921E0
4.380999531E1,-1.941999942E-1,-4.810999930E-1,-1.002900004E0
4.382999531E1,-3.983999789E-1,-5.352999568E-1,-8.091999888E-1
4.384999531E1,-4.116999805E-1,-7.608000040E-1,-3.502999842E-1
4.386999531E1,-5.746999979E-1,-7.838000059E-1,-4.078999758E-1
4.389002812E1,-8.725000024E-1,-2.856000066E-1,-1.333299994E0
4.391999688E1,-1.526099920E0,8.361999989E-1,2.840999961E-1
4.394999531E1,-6.380999684E-1,5.530999899E-1,8.407999873E-1
4.396999531E1,-1.079399943E0,7.915999889E-1,1.002699971E0
4.398999531E1,-7.013999820E-1,1.246399999E0,7.192999721E-1
4.401000313E1,3.412999809E-1,5.277999640E-1,1.454499960E0
4.403999531E1,7.538999915E-1,-1.149999976E0,2.663699865E0
4.405999531E1,-3.143000007E-1,-3.461999893E-1,2.374500036E0
4.407999688E1,-3.192999959E-1,3.944999874E-1,1.027799964E0
4.409999688E1,4.578000009E-1,1.116400003E0,7.039999962E-2
4.412999531E1,5.414000154E-1,1.310799956E0,3.091000021E-1
4.414999531E1,4.766999781E-1,5.875999928E-1,7.019000053E-1
4.416999688E1,-2.127999961E-1,2.673999965E-1,1.273999959E-1
4.419999531E1,-8.884999752E-1,2.250999957E-1,-1.545300007E0
4.421999531E1,-9.217999578E-1,6.031000018E-1,-1.994699955E0
4.423999531E1,-4.210000038E-1,5.127999783E-1,-1.940699935E0
4.425999844E1,3.559999913E-2,3.986999989E-1,-1.907099962E0
4.428999531E1,2.689999901E-2,6.621999741E-1,-2.046799898E0
4.431000312E1,-3.752000034E-1,7.224000096E-1,-1.774099946E0
4.433999531E1,-1.016899943E0,9.549999833E-1,-3.646000028E-1
4.435999531E1,-1.691199899E0,7.263000011E-1,1.250399947E0
4.437999531E1,-1.600999951E0,6.692999601E-1,5.081999898E-1
4.439999531E1,-1.939399958E0,2.569999918E-2,1.323599935E0
4.441999531E1,-2.599099874E0,3.665999770E-1,1.627599955E0
4.443999531E1,-2.865499973E0,6.754999757E-1,1.978599906E0
4.446999375E1,-7.590999603E-1,1.276000023E0,1.402799964E0
4.448999531E1,4.871999919E-1,5.031999946E-1,2.790299892E0
4.450999531E1,9.223999977E-1,-4.704999924E-1,2.099699974E0
4.452999531E1,4.907999933E-1,-6.987000108E-1,1.855099916E0
4.455999531E1,-8.039999753E-2,-1.248999953E0,3.199999928E-1
4.457999531E1,-1.167699933E0,-5.852000117E-1,-8.427999616E-1
4.460000000E1,-1.292599916E0,-2.043999881E-1,-1.710099936E0
4.462999531E1,-1.430799961E0,-1.774999946E-1,-1.255999923E0
4.464999688E1,-3.731999993E-1,2.212999910E-1,-1.781299949E0
4.467999531E1,7.001999617E-1,-2.989999950E-2,-1.098600030E0
4.469999531E1,6.669999957E-1,-5.978999734E-1,-1.652599931E0
4.471999688E1,1.463999897E-1,-8.642999530E-1,-1.360399961E0
4.473999844E1,-3.322999775E-1,-8.962000012E-1,-1.310999990E0
4.476999531E1,-4.969999790E-1,-5.379999876E-1,-2.464200020E0
4.479000313E1,-1.036999971E-1,-1.441999972E-1,-2.823199987E0
4.481999375E1,4.041000009E-1,5.345999599E-1,-1.396399975E0
4.483999688E1,6.328999996E-1,2.199999988E-3,3.164999783E-1
4.486999531E1,-1.295300007E0,1.620000005E-1,1.936699986E0
4.488999688E1,-2.514600039E0,1.417899966E0,1.619899988E0
4.491999375E1,3.617999852E-1,-4.945999980E-1,2.481699944E0
4.494000156E1,-8.524000049E-1,5.048999786E-1,3.067499876E0
4.496999531E1,-5.724999905E-1,2.261999995E-1,3.297499895E0
4.498999688E1,3.452000022E-1,1.924999952E-1,3.367399931E0
4.501999531E1,9.017999768E-1,3.871999979E-1,1.349799991E0
4.504000000E1,7.418999672E-1,3.668999970E-1,7.149999589E-2
4.506999531E1,2.079999894E-1,1.902000010E-1,-4.782999754E-1
4.508999844E1,-3.066000044E-1,1.570999920E-1,-3.980999887E-1
4.511999375E1,-5.906000137E-1,-3.800999820E-1,-1.341799974E0
4.513999375E1,-6.470999718E-1,-5.162000060E-1,-2.382900000E0
4.515999688E1,-5.643000007E-1,-2.105999887E-1,-2.571199894E0
4.517999844E1,-3.337000012E-1,-1.001999974E-1,-2.525599957E0
4.520999531E1,1.237000003E-1,-3.450999856E-1,-2.128299952E0
4.523000312E1,-5.622999668E-1,-1.541000009E-1,-9.559999704E-1
4.525999375E1,5.385000110E-1,4.919999838E-1,-1.461799979E0
4.528000312E1,6.211000085E-1,5.859000087E-1,-8.333999515E-1
4.530999531E1,2.980999947E-1,5.741999745E-1,-5.629999936E-2
4.532999531E1,-4.425999820E-1,3.348000050E-1,1.627399921E0
4.534999531E1,-1.851999998E0,6.502000093E-1,2.881000042E0
4.536999688E1,-1.940699935E0,8.561999798E-1,2.424799919E0
4.539999531E1,-1.052600026E0,1.256299973E0,2.200500011E0
4.541999531E1,-6.430000067E-2,9.104999900E-1,1.900999904E0
4.543999688E1,1.565999985E-1,3.671999872E-1,1.676299930E0
4.546999688E1,-6.674000025E-1,6.355999708E-1,8.022999763E-1
4.549999375E1,5.243999958E-1,-1.621999890E-1,8.130999804E-1
4.551999531E1,7.184000015E-1,-4.860000014E-1,3.136000037E-1
4.553999531E1,4.386999905E-1,-8.912999630E-1,1.612000018E-1
4.555999531E1,-1.387999952E-1,-8.578999639E-1,-6.119999886E-1
4.557999531E1,-5.662999749E-1,-7.045999765E-1,-1.230199933E0
4.559999531E1,-4.680999815E-1,-6.563000083E-1,-1.706699967E0
4.562000000E1,-3.429999948E-2,-4.860999882E-1,-1.947099924E0
4.564999375E1,-2.469999902E-2,-2.115999907E-1,-1.577999949E0
4.567000938E1,-4.442999959E-1,-4.600000009E-2,-1.743899941E0
4.569999375E1,-6.132000089E-1,-5.575999618E-1,-1.819499969E0
4.571999375E1,-7.468999624E-1,-5.607999563E-1,-1.575299978E0
4.573999531E1,-6.089000106E-1,-5.088999867E-1,-1.357999921E0
4.575999531E1,-4.783999920E-1,-1.360999942E-1,-1.053799987E0
4.577999531E1,-3.152000010E-1,6.030000001E-2,-2.953999937E-1
4.579999688E1,-2.539999969E-2,1.979999989E-1,4.688999951E-1
4.582999688E1,-8.567000031E-1,4.605999887E-1,1.342399955E0
4.584999688E1,-2.195999861E0,1.739599943E0,1.286800027E0
4.586999688E1,-9.723999500E-1,8.064999580E-1,2.442600012E0
4.589999531E1,8.618999720E-1,-1.389099956E0,2.890599966E0
4.591999531E1,-6.164999604E-1,-5.063999891E-1,2.960899830E0
4.593999531E1,-1.815899968E0,6.359999776E-1,3.103999853E0
4.595999531E1,-9.262999892E-1,9.139999747E-1,3.002699852E0
4.597999531E1,9.589999914E-1,7.443999648E-1,1.963499904E0
4.599999531E1,2.076999903E0,4.730999768E-1,1.020399928E0
4.601999531E1,1.888499975E0,1.693999916E-1,4.570999742E-1
4.604999531E1,-8.609999716E-2,4.145999849E-1,-2.192000002E-1
4.607999531E1,-6.283999681E-1,5.187999606E-1,-1.723899961E0
4.610999375E1,-2.096000016E-1,3.693999946E-1,-2.380899906E0
4.612999375E1,-2.159999870E-2,2.572000027E-1,-2.713899851E0
4.614999531E1,-1.339000016E-1,3.526999950E-1,-2.708299875E0
4.616999531E1,-1.270000041E-1,2.320999950E-1,-2.395799875E0
4.618999531E1,-2.917999923E-1,6.610000134E-2,-2.174499989E0
4.620999531E1,-5.241000056E-1,2.599999905E-1,-1.960899949E0
4.622999531E1,-7.285000086E-1,3.655000031E-1,-1.997799993E0
4.624999531E1,-8.833999634E-1,5.273000002E-1,-1.147300005E0
4.626999531E1,-8.463999629E-1,2.595999837E-1,-5.782999992E-1
4.629999531E1,-9.156000018E-1,-1.876999885E-1,-3.167999983E-1
4.631999531E1,-1.771399975E0,8.245999813E-1,-1.449999958E-1
4.633999531E1,-1.420099974E0,7.559999824E-1,1.023999929E0
4.636000313E1,-1.149000004E-1,-5.037999749E-1,2.964599848E0
4.638999531E1,-1.935999990E-1,-7.355999947E-1,2.279999971E0
4.640999531E1,-7.579999566E-1,-6.441999674E-1,2.282500029E0
4.642999531E1,-1.049399972E0,-3.240999877E-1,2.010499954E0
4.645000625E1,-9.996999502E-1,1.325999945E-1,1.564599991E0
4.647001875E1,-4.597999752E-1,1.092999950E-1,1.048399925E0
4.649999531E1,-3.015999794E-1,4.451999962E-1,8.797000051E-1
4.651999531E1,-2.488999963E-1,6.298999786E-1,5.361999869E-1
4.653999531E1,-2.648999989E-1,6.855999827E-1,5.888999701E-1
4.655999688E1,1.387999952E-1,4.011999965E-1,4.339999706E-2
4.657999688E1,3.649999797E-1,3.772999942E-1,-6.319000125E-1
4.660000000E1,8.466999531E-1,-1.203999966E-1,-1.318599939E0
4.662999531E1,6.524999738E-1,-1.288999915E-1,-2.359200001E0
4.665000156E1,1.322000027E-1,-9.950000048E-2,-2.834100008E0
4.667999531E1,-6.870999932E-1,-3.303000033E-1,-2.382999897E0
4.669999844E1,-8.319999576E-1,-3.666999936E-1,-1.694000006E0
4.672999531E1,-5.020999908E-1,2.259999961E-1,-1.807500005E0
4.674999531E1,2.340999991E-1,-1.362999976E-1,-8.170999885E-1
4.676999531E1,8.552999496E-1,-5.849999934E-2,7.475999594E-1
4.678999531E1,-2.707000077E-1,1.018800020E0,1.276000023E0
4.680999531E1,-1.642300010E0,1.707899928E0,1.978500009E0
4.682999531E1,-1.348699927E0,3.344999850E-1,2.694099903E0
4.684999531E1,-1.175899982E0,-4.989999905E-2,1.852599978E0
4.686999688E1,-9.846999645E-1,-2.965999842E-1,2.151499987E0
4.689000312E1,-1.782999933E-1,-2.805999815E-1,2.732800007E0
4.691999531E1,1.546199918E0,-7.703999877E-1,2.745899916E0
4.694000000E1,1.737800002E0,-5.649999976E-1,2.091500044E0
4.696999531E1,1.845199943E0,-3.581999838E-1,8.765999675E-1
4.698999531E1,1.624699950E0,-1.288999915E-1,1.080999970E-1
4.700999688E1,6.945999861E-1,9.253999591E-1,-4.682999849E-1
4.703999531E1,3.955000043E-1,1.012599945E0,-1.484099984E0
4.705999531E1,1.468999982E-1,9.350000024E-1,-1.849900007E0
4.707999531E1,-2.195999920E-1,1.017599940E0,-1.879299998E0
4.709999531E1,-7.750000060E-2,9.480999708E-1,-1.851099968E0
4.711999531E1,1.400000006E-1,8.636999726E-1,-1.471599936E0
4.714999531E1,2.644999921E-1,5.031999946E-1,-1.033200026E0
4.716999531E1,1.120999977E-1,3.191999793E-1,-7.936999798E-1
4.718999531E1,-2.427999973E-1,3.630000055E-1,-2.836000025E-1
4.721999375E1,-3.630000055E-1,4.610999823E-1,2.849999964E-1
4.723999531E1,-8.156999946E-1,8.996999860E-1,8.754000068E-1
4.725999531E1,-8.122999668E-1,7.319999933E-1,9.879999757E-1
