"Time (s)","Acceleration x (m/s^2)","Acceleration y (m/s^2)","Acceleration z (m/s^2)"
0.000000000E0,-3.422539949E0,4.758618355E0,7.767339230E0
2.177635400E-2,-3.278811216E0,4.466369629E0,8.950705528E0
4.216739500E-2,-3.657296896E0,4.193284988E0,8.648875237E0
6.246328100E-2,-4.260957241E0,4.337013721E0,7.992514133E0
8.256119800E-2,-4.045364380E0,4.394505501E0,8.193734169E0
1.026591140E-1,-3.508777142E0,3.896245956E0,8.759067535E0
1.227570310E-1,-2.449975729E0,3.695025682E0,9.439383507E0
1.428549480E-1,-2.133772612E0,3.560878754E0,8.826140404E0
1.629528640E-1,-1.065389037E0,5.036493778E0,8.447654724E0
1.830507810E-1,4.054347575E-1,4.092675209E0,9.118389130E0
2.031486980E-1,1.282179832E0,2.339184761E0,1.011490822E1
2.232466140E-1,2.403263807E0,3.748923838E-1,1.070419598E1
2.433449480E-1,1.037841082E0,-7.545757294E-2,1.227563000E1
2.634433850E-1,-2.652992606E-1,8.156604171E-1,1.132702065E1
2.835418230E-1,3.653104603E-2,1.093535900E0,9.137553215E0
3.036401040E-1,8.270389438E-1,1.112699747E0,8.423700333E0
3.237380200E-1,1.162405968E0,1.113897488E-1,1.019156361E1
3.438359370E-1,2.039151192E0,1.874462008E0,1.343983269E1
3.639338540E-1,3.538720608E0,7.629598975E-1,1.080001545E1
3.840317700E-1,2.221207380E0,4.371748269E-1,6.497735500E0
4.041296870E-1,3.236890316E0,-6.839091182E-1,4.269940376E0
4.242276040E-1,1.119287372E0,7.390051484E-1,6.531272411E0
4.443255200E-1,-1.247445464E0,1.793015718E0,1.231874847E1
4.644234370E-1,1.732529879E0,-8.228468895E-1,1.412973022E1
4.845218230E-1,9.084852338E-1,-1.364225030E0,1.372729015E1
5.046202600E-1,-7.348130345E-1,-1.215705395E0,1.265890598E1
5.247186980E-1,-1.137852296E-2,-3.820788264E-1,1.231874847E1
5.448169270E-1,1.837930918E0,5.389826745E-2,1.681745720E1
5.649148430E-1,-3.275817037E-1,1.361829519E0,1.186360741E1
5.850127600E-1,-1.352846503E0,1.357038617E0,1.049339390E1
6.051106770E-1,-3.317138910E0,1.491185427E0,9.084852219E0
6.252085930E-1,-3.551895857E0,2.219410896E0,9.223790169E0
6.453065100E-1,-1.673840642E0,2.411049128E0,9.693304062E0
6.654044270E-1,-5.383837819E-1,2.559568882E0,1.039757442E1
6.855023430E-1,9.995134473E-1,3.982483149E0,8.830931664E0
7.056002600E-1,8.078751564E-1,4.250776768E0,8.610548019E0
7.256986980E-1,-1.098925829E0,2.492495537E0,1.029696465E1
7.457971350E-1,4.341804981E-1,1.366620541E0,1.783793068E1
7.658955730E-1,2.561365366E0,1.673241735E0,1.845117378E1
7.859937500E-1,3.112325430E0,1.994235873E0,1.382310867E1
8.060916660E-1,2.815286160E0,2.693715572E0,9.999925613E0
8.261895830E-1,2.288280964E0,2.320020914E0,8.179361343E0
8.462875000E-1,1.229479313E0,2.276902437E0,6.358798027E0
8.663854160E-1,5.970730186E-1,2.027772665E0,5.285623550E0
8.864833330E-1,1.042631984E0,1.831343293E0,5.496425629E0
9.065812500E-1,1.080959678E0,1.673241735E0,4.097465992E0
9.266791660E-1,1.421117663E0,1.663659811E0,4.543025017E0
9.467771350E-1,2.403263807E0,6.575588584E-1,2.866190195E0
9.668755730E-1,1.703784108E0,2.515252493E-2,3.473443910E-2
9.869740100E-1,2.149343014E0,-1.483999014E0,-2.082868576E0
1.007072448E0,7.551746368E-1,-2.169105768E0,-1.900812268E0
1.027170573E0,-5.479657054E-1,-3.812404156E0,-1.848111749E0
1.047268489E0,1.833139896E0,-3.587229013E0,-4.334618568E0
1.067366406E0,5.162855148E0,-3.405172825E0,-7.400830746E0
1.087464323E0,5.201182842E0,-3.362054110E0,-6.112063408E0
1.107562239E0,7.697271347E0,-4.813714027E0,-4.344200134E0
1.127655468E0,6.422876835E0,-6.730096817E0,-3.285398722E0
1.147721354E0,5.637159824E0,-9.604671478E0,-3.462664127E0
1.167857187E0,5.670696735E0,-1.190433025E1,-4.641239643E0
1.187955104E0,1.032750702E1,-1.399318790E1,-4.186098576E0
1.208053020E0,1.621080208E1,-1.554545784E1,-4.152562141E0
1.228150937E0,1.888894653E1,-1.623535538E1,-6.409102917E0
1.248248854E0,1.837152290E1,-1.606767273E1,-5.225736618E0
1.268346770E0,1.876438141E1,-1.602455330E1,-2.451772213E0
1.288444687E0,2.119818878E1,-1.460643005E1,-5.258075595E-1
1.308542604E0,2.333495522E1,-1.219178772E1,1.036044478E0
1.328640573E0,2.259235764E1,-9.058502197E0,2.051727295E0
1.348739010E0,1.928180504E1,-5.412583828E0,3.048246384E0
1.368837448E0,1.688153648E1,-3.477037191E0,2.305648088E0
1.388935885E0,1.483579731E1,-3.017105341E0,5.389826745E-2
1.409034010E0,1.099345016E1,-3.347681284E0,-2.379907846E0
1.429131927E0,7.615825176E0,-3.726166964E0,-3.069805861E0
1.449229843E0,3.826178074E0,-3.673466444E0,-2.820676088E0
1.469327760E0,2.187670708E0,-2.652992487E0,-2.279297829E0
1.489425677E0,2.350563288E0,-2.686529160E0,-6.887000799E-1
1.509523593E0,3.251263142E0,-2.969195604E0,-3.233896196E-2
1.529621510E0,4.415465832E0,-4.214844704E0,6.144402623E-1
1.549719427E0,4.310064793E0,-4.425646782E0,6.863046288E-1
1.569817760E0,5.809634209E0,-4.765804768E0,-2.718868256E-1
1.589916198E0,7.860164165E0,-5.187408924E0,-1.469626069E0
1.610014635E0,1.027001572E1,-5.934798241E0,-2.533218622E0
1.630109531E0,1.137672615E1,-6.437848568E0,-4.411273956E0
1.650207604E0,1.336018276E1,-6.016244411E0,-6.136018276E0
1.670309062E0,1.566942406E1,-5.259273052E0,-6.940898895E0
1.690406979E0,1.631141281E1,-4.463974476E0,-6.557622433E0
1.710504895E0,1.668031502E1,-5.216154575E0,-5.340719223E0
1.730602812E0,1.595688152E1,-6.399520874E0,-3.424336672E0
1.750700729E0,1.472560501E1,-7.654751778E0,-1.886439323E0
1.770798645E0,1.215765285E1,-7.017554283E0,-6.839091182E-1
1.790896562E0,1.112280560E1,-6.734888077E0,-3.916607499E-1
1.810994635E0,1.053830910E1,-7.146910191E0,-8.132649660E-1
1.831093073E0,1.047123528E1,-7.884717464E0,-1.191750526E0
1.851186093E0,9.489089012E0,-8.071564674E0,-1.134259105E0
1.871287187E0,8.775237083E0,-7.122955322E0,-4.826889336E-1
1.891388125E0,9.819664955E0,-6.528876781E0,-2.431410700E-1
1.911486041E0,9.872365952E0,-6.605532169E0,5.988696590E-3
1.931583958E0,9.321405411E0,-5.719204903E0,-4.671183228E-2
1.951681875E0,9.594490051E0,-6.174345970E0,-5.018527508E-1
1.971779791E0,9.263914108E0,-6.552831650E0,-5.210165977E-1
1.991877708E0,8.645880699E0,-6.672605515E0,-5.401803851E-1
2.011975625E0,7.874536991E0,-6.514503956E0,-1.766665459E0
2.032074062E0,7.079237938E0,-6.691769123E0,-3.055432796E0
2.052172500E0,6.676797390E0,-8.287158012E0,-2.710484028E0
2.072270937E0,5.464685440E0,-9.456151962E0,-1.335479259E0
2.092369218E0,2.398472786E0,-8.114683151E0,3.796833456E-1
2.112467135E0,-1.060598135E0,-6.231837273E0,1.994235873E0
2.132562604E0,-1.549275756E0,-5.522775650E0,3.661489010E0
2.152661562E0,1.569637299E0,-6.605532169E0,4.739454269E0
2.172761562E0,5.871916771E0,-8.090728760E0,2.535614014E0
2.192859479E0,8.329677582E0,-9.475315094E0,-1.656473398E0
2.212957395E0,7.117565632E0,-8.991428375E0,-5.024516106E0
2.233055312E0,7.630198002E0,-9.556761742E0,-7.161283016E0
2.253153229E0,7.826627254E0,-1.031852341E1,-7.333757401E0
2.273251145E0,7.754763126E0,-1.101321220E1,-2.882958412E0
2.293349062E0,5.033499241E0,-9.254931450E0,-2.293670654E0
2.313447083E0,5.637159824E0,-8.191338539E0,-8.611745238E-1
2.333545520E0,9.556162834E0,-8.689598083E0,-8.611745238E-1
2.353643958E0,1.182707691E1,-9.264513016E0,-1.354643106E0
2.373742395E0,1.061017323E1,-8.612942696E0,-2.245761156E0
2.393840677E0,8.449451447E0,-7.305011749E0,-2.815885067E0
2.413938593E0,6.681588650E0,-6.183928013E0,-2.973986626E0
2.434036510E0,5.996481895E0,-4.761013508E0,-2.111614227E0
2.454134427E0,6.231238365E0,-3.529737711E0,-1.210914373E0
2.474232343E0,6.523487091E0,-2.418235540E0,-6.791181564E-1
2.494330260E0,6.370176315E0,-1.699591994E0,-1.158213854E0
2.514428229E0,5.637159824E0,-2.207433462E0,-1.804993033E0
2.534526666E0,4.017816544E0,-3.160833836E0,-1.062394738E0
2.554625104E0,3.773477554E0,-3.419545650E0,4.084290862E-1
2.574723541E0,4.132799149E0,-3.644720554E0,4.946663082E-1
2.594821770E0,5.958154202E0,-4.099861622E0,3.078189790E-1
2.614919687E0,8.684208870E0,-4.636448860E0,1.077965368E-2
2.635017604E0,1.082576656E1,-4.693940163E0,-1.680428147E0
2.655115520E0,1.240199089E1,-4.578957081E0,-4.751431465E0
2.675213437E0,1.395905209E1,-4.406482697E0,-7.175655842E0
2.695311354E0,1.593771744E1,-4.205262661E0,-7.903881550E0
2.715409270E0,1.756185150E1,-4.588539124E0,-6.816334248E0
2.735507604E0,1.824216843E1,-6.116854668E0,-4.650821686E0
2.755606041E0,1.766246223E1,-7.161283016E0,-2.403862715E0
2.775704479E0,1.515200043E1,-6.912153244E0,-6.695362329E-1
2.795802916E0,1.165939331E1,-5.379046917E0,4.707115293E-1
2.815900885E0,1.028917885E1,-4.847250938E0,4.707115293E-1
2.835998802E0,1.001609421E1,-5.326346397E0,9.701687843E-2
2.856096718E0,1.004004955E1,-5.877306461E0,1.928360164E-1
2.876194375E0,9.695100784E0,-6.073735714E0,7.342141867E-1
2.896292812E0,9.005202293E0,-5.446120262E0,1.026462555E0
2.916391250E0,8.454242706E0,-5.000561237E0,1.012089729E0
2.936489687E0,7.567915440E0,-4.746640682E0,1.285174251E0
2.956587916E0,6.480368137E0,-4.133398056E0,2.142755508E0
2.976685833E0,5.570086479E0,-3.845940828E0,2.736834288E0
2.996783750E0,5.172437191E0,-3.754912615E0,3.407568216E0
3.016881666E0,5.383239269E0,-3.903432369E0,3.465059757E0
3.036979583E0,5.780888557E0,-4.267545223E0,2.650597095E0
3.057077500E0,6.590560436E0,-4.890369415E0,1.515140176E0
3.077175416E0,8.181158066E0,-6.001871586E0,2.694913447E-1
3.097273698E0,9.570535660E0,-7.669124603E0,-1.795411110E0
3.117372135E0,1.037541676E1,-9.115993500E0,-3.572856188E0
3.137467968E0,1.001130390E1,-1.028019619E1,-4.933487892E0
3.157568802E0,1.026043320E1,-1.051974392E1,-3.754912615E0
3.177667135E0,1.084013939E1,-9.470524788E0,-1.982258439E0
3.197765052E0,1.098386765E1,-8.521914482E0,-4.826889336E-1
3.217862968E0,9.378897667E0,-8.440468788E0,1.592993289E-1
3.237960885E0,7.309204102E0,-9.015383720E0,3.030280471E-1
3.258058802E0,6.389339924E0,-1.005502129E1,-1.616947949E-1
3.278156718E0,4.535239697E0,-8.703970909E0,3.174009025E-1
3.298254739E0,4.621477127E0,-6.490549088E0,-1.808586270E-1
3.318353177E0,7.740389824E0,-5.599431038E0,-1.239660144E0
3.338451614E0,9.790919304E0,-6.562413692E0,-2.331998348E0
3.358550052E0,9.489089012E0,-7.587678432E0,-2.116405249E0
3.378648333E0,7.807463646E0,-7.194819927E0,-1.182168603E0
3.398746250E0,6.993000507E0,-5.642549515E0,-6.120447516E-1
3.418844166E0,7.424186707E0,-3.884268522E0,-4.395703077E-1
3.438942083E0,7.817045212E0,-2.787139177E0,-1.042033136E-1
3.459040000E0,7.103192806E0,-2.437399387E0,8.444061875E-1
3.479137916E0,5.699442387E0,-2.025377035E0,1.898416758E0
3.499235833E0,5.138900280E0,-1.426507473E0,2.051727295E0
3.519334062E0,5.273046970E0,-9.282479286E-1,1.299547076E0
3.539432500E0,5.253883362E0,-1.143841028E0,3.126099408E-1
3.559530937E0,5.359284401E0,-1.742710590E0,-6.587565690E-2
3.579629375E0,6.422876835E0,-3.395590782E0,-5.258075595E-1
3.599727500E0,7.160684109E0,-4.646030426E0,-5.210165977E-1
3.619825416E0,1.066766453E1,-4.444810390E0,-5.150279030E-2
3.639923333E0,8.348841667E0,-5.134708405E0,-3.069805861E0
3.660021250E0,1.243552780E1,-4.947860718E0,-6.078526974E0
3.680119166E0,1.622517586E1,-4.995770454E0,-8.574615479E0
3.700217083E0,1.683841705E1,-4.828086853E0,-9.561553001E0
3.720315052E0,1.615810204E1,-4.899951458E0,-8.703970909E0
3.740413489E0,1.443335724E1,-6.083317757E0,-5.858142853E0
3.760511927E0,1.372908592E1,-6.179136753E0,-5.700041294E0
3.780610364E0,1.165460205E1,-5.062843800E0,-3.812404156E0
3.800708750E0,9.436388969E0,-3.031478167E0,-2.102032423E0
3.820806666E0,1.053351784E1,-3.592020035E0,-1.752292514E0
3.840904583E0,1.231096268E1,-4.679567337E0,-2.169105768E0
3.861002500E0,1.235408211E1,-4.713104248E0,-1.828947902E0
3.881100416E0,1.120425224E1,-3.625556707E0,-1.134259105E0
3.901198333E0,1.078743839E1,-2.906913280E0,-1.340270281E0
3.921296250E0,1.073952961E1,-2.480518103E0,-2.336789370E0
3.941394531E0,1.026043320E1,-2.159523964E0,-3.050642014E0
3.961492968E0,9.690309525E0,-1.948721766E0,-3.290189743E0
3.981591406E0,9.307032585E0,-2.231388330E0,-3.136879206E0
4.001689843E0,9.326196671E0,-2.844630718E0,-2.169105768E0
4.021787916E0,9.675936699E0,-3.481827974E0,-1.244451046E0
4.041885833E0,1.015982342E1,-4.090279579E0,-5.785080791E-1
4.061983750E0,1.072515583E1,-4.990979671E0,-1.952314973E-1
4.082081666E0,1.006400394E1,-6.279747009E0,-3.341692686E-1
4.102179583E0,7.553542614E0,-7.764943600E0,-4.192087427E-2
4.122277760E0,4.583149433E0,-7.985327721E0,1.079163074E0
4.142376614E0,3.313545704E0,-8.181756973E0,1.706778407E0
4.162474531E0,3.107534647E0,-8.747090340E0,3.129692793E0
4.182572448E0,4.204663754E0,-8.794999123E0,4.207658291E0
4.202670364E0,5.388030052E0,-8.109892845E0,4.322640896E0
4.222768281E0,6.528277874E0,-8.277576447E0,2.478122473E0
4.242866198E0,8.712954521E0,-9.499270439E0,2.934461236E-1
4.262964270E0,9.743010521E0,-8.426095963E0,3.988471627E-1
4.283062708E0,9.695100784E0,-6.413893700E0,7.437961102E-1
4.303161145E0,9.532208443E0,-4.923906326E0,1.545083672E-1
4.323259583E0,1.004963112E1,-4.737058640E0,-1.618145704E0
4.343357864E0,1.083534813E1,-5.369465351E0,-2.921286106E0
4.363455781E0,1.004484081E1,-5.599431038E0,-3.242280245E0
4.383553698E0,8.401541710E0,-5.192199707E0,-2.806303024E0
4.403651614E0,7.222966671E0,-4.353782177E0,-2.878167391E0
4.423749531E0,6.236029625E0,-3.462664127E0,-2.202642441E0
4.443847448E0,5.814425468E0,-2.830257893E0,-5.593442321E-1
4.463945364E0,6.068346024E0,-2.538009405E0,7.485870719E-1
4.484043750E0,6.063555241E0,-2.212224483E0,9.018976688E-1
4.504142187E0,5.316165924E0,-1.891230345E0,-2.754800394E-2
4.524240625E0,5.771306515E0,-2.073286772E0,-3.916607499E-1
4.544339062E0,6.145001411E0,-2.696111202E0,-9.330388904E-1
4.564437031E0,7.390650272E0,-3.783658266E0,-1.186959624E0
4.584534948E0,9.651982307E0,-5.072425842E0,-1.436089396E0
4.604632864E0,1.194205952E1,-5.273645878E0,-2.672156334E0
4.624730781E0,1.325957298E1,-3.960923672E0,-6.389938831E0
4.644828698E0,1.449563980E1,-2.451772213E0,-1.014604950E1
4.664926614E0,1.571254253E1,-2.432608366E0,-1.180851173E1
4.685024843E0,1.594250870E1,-3.453082323E0,-1.102758503E1
4.705123281E0,1.560714149E1,-4.674776554E0,-7.693079472E0
4.725221718E0,1.590418053E1,-6.433057785E0,-4.344200134E0
4.745320156E0,1.647430420E1,-7.908672333E0,-1.134259105E0
4.765418281E0,1.556402302E1,-7.616424084E0,7.006774545E-1
4.785516198E0,1.217681599E1,-5.379046917E0,1.587004542E0
4.805614114E0,9.101021767E0,-3.175206900E0,1.567840695E0
4.825712031E0,8.933338165E0,-3.342890263E0,8.539881110E-1
4.845809948E0,1.036104393E1,-4.765804768E0,4.036381245E-1
4.865907864E0,1.099824047E1,-5.637758732E0,2.407455891E-1
4.886006093E0,9.795710564E0,-4.794550419E0,4.180110097E-1
4.906104531E0,8.918965340E0,-3.788449287E0,-5.150279030E-2
4.926202968E0,8.813564301E0,-3.438709497E0,-4.395703077E-1
4.946301406E0,8.756072998E0,-3.697421074E0,-3.293783069E-1
4.966399687E0,8.190739632E0,-3.778867483E0,-2.000224590E-1
4.986497604E0,8.066175461E0,-3.889059305E0,-4.192087427E-2
5.006595520E0,7.965565205E0,-3.740539789E0,-4.299883842E-1
5.026693437E0,8.300931931E0,-3.687839270E0,-1.071976662E0
5.046791354E0,8.435078621E0,-3.711793900E0,-1.330688357E0
5.066889270E0,8.324887276E0,-3.898641348E0,-1.196541548E0
5.086987395E0,8.128458023E0,-4.248381138E0,-9.713665247E-1
5.107085833E0,8.253022194E0,-4.990979671E0,-6.743271947E-1
5.127184270E0,7.841000080E0,-5.556312561E0,-5.449713469E-1
5.147282708E0,6.973836899E0,-6.155181885E0,-5.449713469E-1
5.167381145E0,6.106673717E0,-6.912153244E0,-1.904405504E-1
5.187479166E0,5.919826508E0,-7.812853336E0,5.377849340E-1
5.207577083E0,5.761724949E0,-8.224875450E0,1.534304023E0
5.227675000E0,6.255193233E0,-8.066774368E0,2.401467323E0
5.247772916E0,8.281767845E0,-9.235767365E0,1.654077888E0
5.267870833E0,9.182468414E0,-9.614253044E0,2.790732384E-1
5.287968750E0,9.019575119E0,-8.263203621E0,-1.233671457E-1
5.308067083E0,8.118875504E0,-6.595950127E0,2.036156692E-2
5.328165520E0,7.869745731E0,-5.733577728E0,1.353445351E-1
5.348263958E0,9.158513069E0,-6.667814732E0,-5.210165977E-1
5.368362395E0,8.842309952E0,-7.530186653E0,-1.258823991E0
5.388460520E0,7.841000080E0,-7.007972240E0,-1.091140509E0
5.408558437E0,7.414605141E0,-5.786278248E0,-9.713665247E-1
5.428656354E0,6.935509205E0,-4.416064739E0,-8.515926003E-1
5.448754270E0,6.705543518E0,-3.419545650E0,-1.048021913E0
5.468852187E0,7.189429760E0,-2.997941494E0,-1.282778740E0
5.488950156E0,7.730808258E0,-2.815885067E0,-1.488789916E0
5.509048593E0,8.315304756E0,-2.945240974E0,-2.231388330E0
5.529147031E0,8.775237083E0,-3.136879206E0,-2.782348394E0
5.549245468E0,9.287869453E0,-3.218325377E0,-2.106823444E0
5.569343906E0,9.675936699E0,-3.112924337E0,-8.132649660E-1
5.589442031E0,1.001609421E1,-3.170415878E0,-2.096043676E-1
5.609539948E0,1.053351784E1,-3.314144611E0,-1.856495887E-1
5.629638489E0,1.095033169E1,-3.060223818E0,-3.724969029E-1
5.649736406E0,1.149650002E1,-2.863794565E0,-1.019276142E0
5.669834323E0,1.263674831E1,-3.098551512E0,-1.795411110E0
5.689932239E0,1.415548134E1,-3.529737711E0,-2.418235540E0
5.710030156E0,1.570296097E1,-4.396900654E0,-2.518845797E0
5.730128177E0,1.735584068E1,-5.824605942E0,-2.413444519E0
5.750226614E0,1.828528595E1,-7.055881977E0,-1.407343626E0
5.770325052E0,1.637848473E1,-6.447430611E0,1.209716648E-1
5.790423489E0,1.285234165E1,-4.123816490E0,1.706778407E0
5.810521927E0,1.054310036E1,-2.964404583E0,1.213309884E0
5.830620000E0,1.007837677E1,-3.702212095E0,1.353445351E-1
5.850717916E0,1.004963112E1,-5.005352497E0,-7.366096377E-1
5.870815833E0,9.656772614E0,-5.474866390E0,-2.814687192E-1
5.890913750E0,9.168095589E0,-5.206572533E0,9.737620354E-1
5.911011666E0,9.000411987E0,-4.895160198E0,2.056518316E0
5.931110052E0,8.794400215E0,-5.101171494E0,2.775161982E0
5.951208489E0,8.391960144E0,-5.369465351E0,3.105737925E0
5.971306927E0,7.960773945E0,-5.771905422E0,2.626642227E0
5.991405364E0,7.625407219E0,-6.322865486E0,1.831343293E0
6.011503802E0,7.165475368E0,-6.940898895E0,1.299547076E0
6.031602031E0,7.189429760E0,-7.137328148E0,6.336040497E-1
6.051699948E0,8.324887276E0,-7.439158440E0,-1.713964939E0
6.071797864E0,9.445970535E0,-8.047610283E0,-4.674776554E0
6.091895781E0,8.732118607E0,-6.797170162E0,-7.616424084E0
6.111993698E0,7.927237511E0,-5.326346397E0,-8.507541656E0
6.132091875E0,7.639780045E0,-4.789759159E0,-7.942209244E0
6.152190312E0,7.184638977E0,-5.829397202E0,-6.193509579E0
6.172288750E0,6.892390728E0,-8.579406738E0,-3.932178020E0
6.192387187E0,5.584459305E0,-1.086948395E1,-1.254032969E0
6.212485625E0,3.538720608E0,-1.037122440E1,1.548676848E0
6.232583802E0,3.811805248E0,-9.149530411E0,2.904517651E0
6.252681718E0,6.044391155E0,-8.656062126E0,3.230302811E0
6.272779635E0,7.232548714E0,-7.549350739E0,4.279522419E0
6.292877552E0,6.830108166E0,-6.639068604E0,4.485533714E0
6.312975520E0,6.777407646E0,-6.021035194E0,3.996855974E0
6.333073958E0,8.157203674E0,-5.982707500E0,3.297376156E0
6.353172395E0,1.014065933E1,-6.658232689E0,2.022981644E0
6.373270833E0,1.102698708E1,-7.276266098E0,1.400157213E0
6.393369270E0,1.025564289E1,-6.686978340E0,1.112699747E0
6.413467708E0,9.580117226E0,-6.217464447E0,6.575588584E-1
6.433565677E0,8.353632927E0,-4.981397629E0,6.815136671E-1
6.453663593E0,7.505633354E0,-3.429127455E0,1.304338098E0
6.473761510E0,7.155893326E0,-2.355953217E0,1.946326375E0
6.493859427E0,7.021746635E0,-2.011004210E0,1.999026895E0
6.513957395E0,6.149792194E0,-1.910394192E0,1.524722099E0
6.534055833E0,4.338810444E0,-2.039749861E0,7.964966297E-1
6.554154270E0,3.514765978E0,-2.470936060E0,3.413556814E-1
6.574252708E0,4.746041775E0,-3.031478167E0,8.743496984E-2
6.594351145E0,7.275667191E0,-4.401691914E0,-1.718755841E0
6.614449583E0,9.235168457E0,-6.811543465E0,-3.352472305E0
6.634547656E0,1.017419624E1,-7.894299507E0,-3.362054110E0
6.654645573E0,1.214807034E1,-7.041509151E0,-3.941759825E0
6.674743489E0,1.517116451E1,-5.848560810E0,-5.426956654E0
6.694841406E0,1.760017967E1,-4.761013508E0,-6.500131130E0
6.714939739E0,1.841464233E1,-4.847250938E0,-7.012763500E0
6.735038177E0,1.820384026E1,-5.345510483E0,-7.458322525E0
6.755136614E0,1.737979507E1,-5.498820782E0,-6.538458824E0
6.775235052E0,1.710192108E1,-6.548040390E0,-4.698730946E0
6.795333489E0,1.572212410E1,-7.204401493E0,-2.341580391E0
6.815431927E0,1.250260162E1,-5.877306461E0,-9.462140501E-2
6.835529843E0,9.580117226E0,-4.262753963E0,4.323838651E-1
6.855606562E0,9.340569496E0,-4.784968376E0,-1.329490542E-1
6.875726458E0,9.350152016E0,-5.455702305E0,1.640902758E-1
6.895824375E0,8.957293510E0,-5.757532597E0,1.112699747E0
6.915922291E0,8.636299133E0,-5.800651073E0,1.946326375E0
6.936020208E0,8.315304756E0,-5.575476170E0,2.190665245E0
6.956118125E0,8.008683205E0,-5.235318184E0,2.037354469E0
6.976216198E0,7.893700600E0,-4.981397629E0,1.749897122E0
6.996314635E0,7.625407219E0,-4.717895031E0,1.285174251E0
7.016413073E0,7.548751831E0,-4.363364220E0,7.773327827E-1
7.036511510E0,7.668525696E0,-4.487928867E0,7.054684162E-1
7.056609948E0,7.467305660E0,-4.511883736E0,5.952764153E-1
7.076708333E0,7.371486187E0,-4.789759159E0,8.264400810E-2
7.096806250E0,7.984728813E0,-5.029307365E0,-6.024628282E-1
7.116904166E0,8.056592941E0,-5.738368988E0,-1.527117610E0
7.137002083E0,5.503013134E0,-6.955271721E0,-1.656473398E0
7.157100000E0,2.925478220E0,-7.515813828E0,-7.545757294E-2
7.177198125E0,2.685930252E0,-7.755361557E0,1.472021580E0
7.197296562E0,4.314855576E0,-8.445260048E0,2.195456028E0
7.217395000E0,5.776097775E0,-9.360332489E0,3.081783056E0
7.237493437E0,6.916345596E0,-9.805891037E0,3.862709045E0
7.257591875E0,8.109293938E0,-1.012209415E1,3.541714907E0
7.277690208E0,9.072276115E0,-1.038080597E1,1.970281124E0
7.297788125E0,8.780027390E0,-9.839427948E0,1.266010404E0
7.317886041E0,8.195530891E0,-9.053710938E0,2.032563448E0
7.337983958E0,8.981247902E0,-8.071564674E0,2.684133768E0
7.358081875E0,1.112759686E1,-7.851181030E0,1.860089064E0
7.378180104E0,1.244511032E1,-8.311112404E0,-1.004903197E0
7.398278541E0,1.178395748E1,-7.558932304E0,-3.702212095E0
7.418376979E0,9.719055176E0,-6.155181885E0,-5.321555614E0
7.438475416E0,7.831418037E0,-4.569375515E0,-5.431747437E0
7.458573854E0,7.189429760E0,-3.807613134E0,-4.875996590E0
7.478672135E0,6.921136379E0,-3.716584921E0,-4.004042149E0
7.498770052E0,5.732978821E0,-3.721375942E0,-4.051951885E0
7.518867968E0,4.966425896E0,-3.467455149E0,-4.061533928E0
7.538965885E0,5.201182842E0,-3.534528494E0,-3.318935633E0
7.559063802E0,5.637159824E0,-3.994460583E0,-1.867275476E0
7.579162083E0,5.665905476E0,-4.296290874E0,-7.797282934E-1
7.599260520E0,5.584459305E0,-4.325036526E0,-9.462140501E-2
7.619358958E0,6.355803490E0,-4.348991394E0,4.910730943E-2
7.639457395E0,7.419395924E0,-4.382527828E0,-2.287681997E-1
7.659555833E0,8.607553482E0,-4.099861622E0,-7.174458504E-1
7.679654218E0,9.656772614E0,-4.013624191E0,-1.517535686E0
7.699752135E0,1.068682861E1,-4.646030426E0,-2.648201466E0
7.719850052E0,1.192768669E1,-5.297600746E0,-2.940449953E0
7.739947968E0,1.292420578E1,-5.791069508E0,-2.724856853E0
7.760045885E0,1.362847614E1,-6.073735714E0,-2.260133982E0
7.780144323E0,1.447168446E1,-6.955271721E0,-2.025377035E0
7.800242760E0,1.444293880E1,-7.606842041E0,-1.306733489E0
7.820341198E0,1.306793404E1,-7.127746582E0,6.671407819E-1
7.840439635E0,9.819664955E0,-4.344200134E0,2.530822992E0
7.860538073E0,9.441180229E0,-3.433918476E0,1.769060850E0
7.880636458E0,1.088325787E1,-4.291499615E0,-1.306733489E0
7.900734375E0,1.220556164E1,-4.823296070E0,-3.711793900E0
7.920832291E0,1.241636372E1,-5.307182789E0,-4.698730946E0
7.940930208E0,1.203787899E1,-5.038888931E0,-3.088969469E0
7.961028125E0,1.183665848E1,-4.914324284E0,-6.743271947E-1
7.981126562E0,1.159711075E1,-5.259273052E0,9.402253032E-1
8.001225000E0,1.101261330E1,-5.527566910E0,1.395366192E0
8.021323437E0,1.001609421E1,-5.632967949E0,7.294232249E-1
8.041421875E0,8.895010948E0,-5.465284348E0,-4.826889336E-1
8.061520312E0,8.209903717E0,-5.426956654E0,-1.436089396E0
8.081618750E0,8.018265724E0,-5.546730518E0,-1.699591994E0
8.101717031E0,7.558333874E0,-5.513194084E0,-1.862484574E0
8.121814948E0,7.208593845E0,-5.498820782E0,-1.781038284E0
8.141912864E0,6.825317383E0,-5.465284348E0,-1.493580818E0
8.162010781E0,6.015645504E0,-5.546730518E0,-1.009694219E0
8.182109010E0,5.143691063E0,-5.815024376E0,-8.563835621E-1
8.202207448E0,3.979488611E0,-6.207882881E0,-5.976719260E-1
8.222305885E0,3.011715412E0,-6.936108112E0,-4.826889336E-1
8.242404323E0,2.724257946E0,-8.004491806E0,1.305535734E-1
8.262502760E0,3.107534647E0,-8.603361130E0,1.505558252E0
8.282601198E0,3.696822166E0,-8.363813400E0,2.703297615E0
8.302699635E0,5.694651604E0,-8.747090340E0,2.569150686E0
8.322798073E0,7.505633354E0,-9.298049927E0,1.606168389E0
8.342896406E0,8.363214493E0,-9.058502197E0,8.204513788E-1
8.362994323E0,8.382378578E0,-8.071564674E0,7.869147062E-1
8.383092239E0,8.597970963E0,-6.265374184E0,8.348242640E-1
8.403190156E0,1.020773315E1,-5.676086426E0,1.928360164E-1
8.423288437E0,1.256488419E1,-6.308492661E0,-7.078639269E-1
8.443386875E0,1.364764023E1,-7.022345543E0,-1.019276142E0
8.463485312E0,1.205225182E1,-6.974435806E0,-7.078639269E-1
8.483583750E0,1.038978958E1,-5.781487465E0,-8.132649660E-1
8.503682187E0,1.006879520E1,-4.382527828E0,-1.009694219E0
8.523780625E0,9.877157211E0,-3.467455149E0,-3.293783069E-1
8.543879062E0,9.292659760E0,-2.964404583E0,2.215817720E-1
8.563977343E0,8.387168884E0,-2.911704063E0,-8.024853468E-2
8.584075260E0,7.567915440E0,-2.839839697E0,-7.797282934E-1
8.604173177E0,7.103192806E0,-3.117715359E0,-1.431298375E0
8.624271145E0,7.189429760E0,-3.544110537E0,-1.579818130E0
8.644369583E0,7.529587746E0,-4.051951885E0,-9.522027373E-1
8.664468020E0,8.037429810E0,-4.492720127E0,-7.988920808E-1
8.684566458E0,8.329677582E0,-4.598121166E0,-8.707564473E-1
8.704664895E0,9.062694550E0,-4.363364220E0,-1.100722432E0
8.724763333E0,1.045207214E1,-4.023206234E0,-1.488789916E0
8.744861770E0,1.226305389E1,-3.769285440E0,-2.087659597E0
8.764960208E0,1.441419315E1,-4.214844704E0,-3.179997683E0
8.785058645E0,1.568379688E1,-4.713104248E0,-3.980087519E0
8.805156718E0,1.564546967E1,-4.799341202E0,-3.630347729E0
8.825254635E0,1.540592098E1,-5.292809963E0,-3.141670227E0
8.845352552E0,1.479747009E1,-6.083317757E0,-2.063704729E0
8.865450677E0,1.346079254E1,-5.987498760E0,-1.153422952E0
8.885549114E0,1.170251179E1,-5.014934540E0,-4.826889336E-1
8.905647552E0,9.829247475E0,-3.108133316E0,-5.629374459E-2
8.925745989E0,9.575326920E0,-2.772766352E0,-1.340270281E0
8.945844427E0,1.135756302E1,-4.104652405E0,-2.820676088E0
8.965942864E0,1.274214935E1,-5.158663273E0,-1.910394192E0
8.986041302E0,1.322124481E1,-5.489239216E0,1.592993289E-1
9.006139739E0,1.267028522E1,-4.962234020E0,1.975072026E0
9.026238177E0,1.194685078E1,-4.914324284E0,2.717670441E0
9.046336614E0,1.110364151E1,-5.173036098E0,3.115319729E0
9.066435000E0,1.041853523E1,-5.364674091E0,2.506868362E0
9.086532916E0,1.007837677E1,-5.455702305E0,1.323501945E0
9.106630833E0,9.843620300E0,-5.661713600E0,4.611296058E-1
9.126728750E0,9.575326920E0,-5.982707500E0,1.353445351E-1
9.146827083E0,9.268705368E0,-6.179136753E0,3.317737877E-1
9.166925520E0,8.890219688E0,-6.246210098E0,-1.796608977E-2
9.187023958E0,8.147621155E0,-6.514503956E0,-5.210165977E-1
9.207122395E0,6.897181511E0,-6.897780418E0,-1.124677181E0
9.227220833E0,5.153273106E0,-7.314593792E0,-1.483999014E0
9.247319270E0,3.696822166E0,-7.410412788E0,-1.210914373E0
9.267417708E0,2.896732330E0,-7.966164112E0,-6.407905221E-1
9.287516145E0,2.786540508E0,-8.876445770E0,1.257626265E-1
9.307614583E0,3.514765978E0,-9.714862823E0,1.313920021E0
9.327713020E0,3.644121647E0,-9.547180176E0,2.157128334E0
9.347811458E0,3.457274437E0,-9.269304276E0,1.907998681E0
9.367909635E0,4.219036579E0,-1.039997005E1,8.743496984E-2
9.388007552E0,4.856234074E0,-1.079282856E1,-8.659654856E-1
9.408105468E0,6.111464500E0,-1.028498745E1,-1.163004875E0
9.428203645E0,7.084028721E0,-9.173484802E0,-1.215705395E0
9.448302083E0,7.955983162E0,-7.774525642E0,-6.695362329E-1
9.468400520E0,9.417224884E0,-7.170865059E0,-5.832990408E-1
9.488498958E0,1.102698708E1,-7.875135899E0,-1.076767564E0
9.508597395E0,1.151566410E1,-8.660852432E0,-1.646891475E0
9.528695833E0,1.085451221E1,-8.497960091E0,-1.675637245E0
9.548794270E0,9.743010521E0,-7.688288212E0,-1.541490436E0
9.568892708E0,8.928547859E0,-6.864243984E0,-1.182168603E0
9.588991145E0,8.190739632E0,-5.939589024E0,-9.330388904E-1
9.609089583E0,7.481678486E0,-5.201781750E0,-4.491522312E-1
9.629188020E0,7.361904621E0,-4.741849899E0,-2.191862911E-1
9.649286458E0,7.634988785E0,-4.559793472E0,-2.754800394E-2
9.669384895E0,7.692480564E0,-4.808923244E0,8.264400810E-2
9.689483333E0,7.692480564E0,-4.904742241E0,2.838642001E-1
9.709581770E0,8.233859062E0,-5.196990490E0,3.653104901E-1
9.729679895E0,8.885428429E0,-5.632967949E0,2.263727188E-1
9.749777812E0,9.235168457E0,-5.561103344E0,-6.587565690E-2
9.769875729E0,1.002088547E1,-5.240109444E0,-6.072537899E-1
9.789974010E0,1.115634251E1,-4.837668896E0,-1.345061183E0
9.810072448E0,1.242115498E1,-4.986188412E0,-2.566755295E0
9.830170885E0,1.423213673E1,-5.211363792E0,-3.347681284E0
9.850270364E0,1.554485893E1,-4.756222725E0,-3.544110537E0
9.870368281E0,1.645034981E1,-3.917805195E0,-3.314144611E0
9.890466198E0,1.723606682E1,-4.142980099E0,-2.906913280E0
9.910564323E0,1.723606682E1,-4.852041721E0,-2.087659597E0
9.930662760E0,1.568858814E1,-4.990979671E0,-1.024067044E0
9.950761198E0,1.309667969E1,-3.673466444E0,-2.527229786E-1
9.970859635E0,1.205704212E1,-3.213534355E0,-8.563835621E-1
9.990958073E0,1.263195705E1,-4.737058640E0,-1.848111749E0
1.001105651E1,1.322603607E1,-6.131227493E0,-1.330688357E0
1.003115495E1,1.292899704E1,-6.495339870E0,7.785305381E-2
1.005125338E1,1.214807034E1,-6.289329052E0,1.333083868E0
1.007135182E1,1.169772053E1,-6.471385479E0,2.075682163E0
1.009145026E1,1.128569794E1,-6.859452724E0,2.382303476E0
1.011154870E1,1.078743839E1,-7.075046062E0,2.415840149E0
1.013164714E1,1.017898750E1,-7.314593792E0,2.272111416E0
1.015174557E1,9.666355133E0,-7.534977913E0,1.754688025E0
1.017184401E1,9.335779190E0,-7.635587692E0,1.404948115E0
1.019194245E1,8.923756599E0,-7.798480511E0,1.222891808E0
1.021204088E1,8.583598137E0,-7.769734859E0,9.498072267E-1
1.023213932E1,8.396751404E0,-7.899090290E0,6.958864927E-1
1.025223776E1,8.415914536E0,-7.913463593E0,1.449264586E-1
1.027233604E1,7.582288265E0,-7.975745678E0,-3.054235280E-1
1.029243396E1,6.398921967E0,-8.138638496E0,-5.976719260E-1
1.031253188E1,4.769996643E0,-8.732716560E0,-1.033648968E0
1.033263005E1,3.342291355E0,-1.012209415E1,-1.426507473E0
1.035272849E1,2.527828693E0,-1.139648914E1,-2.231388330E0
1.037282693E1,1.655874491E0,-1.175102043E1,-4.406482697E0
1.039292536E1,2.010405302E0,-1.096530342E1,-6.428266525E0
1.041302380E1,3.308754683E0,-1.097488499E1,-5.719204903E0
1.043312224E1,4.678968430E0,-1.105154037E1,-1.570236206E0
1.045322068E1,5.584459305E0,-1.074971008E1,1.994235873E0
1.047331911E1,5.809634209E0,-9.259722710E0,4.102256775E0
1.049341755E1,6.336639404E0,-7.616424084E0,3.340494871E0
1.051351599E1,7.745181084E0,-6.984017849E0,1.012089729E0
1.053361443E1,9.345360756E0,-7.405622005E0,-5.401803851E-1
1.055371286E1,1.064371014E1,-7.597259998E0,-1.081558585E0
1.057381130E1,1.114196968E1,-7.659542561E0,-9.953213334E-1
1.059390974E1,1.081618404E1,-7.041509151E0,-1.570236206E0
1.061400818E1,9.709473610E0,-5.628176689E0,-2.557173252E0
1.063410661E1,8.516525269E0,-4.301081657E0,-3.534528494E0
1.065420505E1,7.932028294E0,-3.491410017E0,-3.347681284E0
1.067430349E1,7.702062607E0,-3.539319515E0,-2.068495750E0
1.069440193E1,7.539169788E0,-4.248381138E0,-7.893101573E-1
1.071450031E1,7.409813881E0,-4.923906326E0,1.976269782E-1
1.073459823E1,7.242130280E0,-5.331137657E0,9.258524776E-1
1.075469614E1,7.457723618E0,-5.575476170E0,1.524722099E0
1.077479417E1,8.406332970E0,-5.723996162E0,1.884043932E0
1.079489260E1,9.393270493E0,-5.599431038E0,1.721151352E0
1.081499104E1,1.017419624E1,-5.216154575E0,1.146236539E0
1.083508948E1,1.118987942E1,-4.813714027E0,-3.712991625E-2
1.085518792E1,1.321166325E1,-4.756222725E0,-1.752292514E0
1.087528635E1,1.476872444E1,-4.943069935E0,-3.151252031E0
1.089538479E1,1.502264500E1,-4.502301693E0,-4.051951885E0
1.091548323E1,1.455313110E1,-3.817195177E0,-4.626866817E0
1.093558167E1,1.495557117E1,-4.406482697E0,-4.885578632E0
1.095568010E1,1.476872444E1,-4.852041721E0,-3.999251366E0
1.097577854E1,1.381532383E1,-4.277126789E0,-2.662574291E0
1.099587698E1,1.169772053E1,-2.279297829E0,-1.728337765E0
1.101597542E1,1.077306557E1,-1.201332450E0,-1.598981977E0
1.103607385E1,1.185582256E1,-2.585919142E0,-1.987049460E0
1.105617229E1,1.324999046E1,-4.358573437E0,-1.646891475E0
1.107627073E1,1.420339108E1,-5.767114639E0,-1.076767564E0
1.109636917E1,1.400217056E1,-5.489239216E0,-1.329490542E-1
1.111646755E1,1.318291759E1,-5.225736618E0,5.521578193E-1
1.113656547E1,1.249301910E1,-5.791069508E0,9.354343414E-1
1.115666338E1,1.196601391E1,-6.619904995E0,1.012089729E0
1.117676141E1,1.163064766E1,-7.314593792E0,7.054684162E-1
1.119685984E1,1.134798050E1,-7.937417984E0,4.275929332E-1
1.121695828E1,1.098865891E1,-8.349440575E0,4.084290862E-1
1.123705672E1,1.061017323E1,-8.368604660E0,7.342141867E-1
1.125715516E1,1.032271576E1,-8.445260048E0,4.850844145E-1
1.127725359E1,9.685518265E0,-8.354231834E0,-2.479320318E-1
1.129735203E1,8.708163261E0,-8.090728760E0,-8.707564473E-1
1.131745047E1,7.898491859E0,-7.803271294E0,-1.186959624E0
1.133754891E1,7.016955376E0,-7.587678432E0,-1.215705395E0
1.135764734E1,6.202492714E0,-7.927836418E0,-1.277987838E0
1.137774578E1,4.640640736E0,-8.612942696E0,-1.704383016E0
1.139784422E1,2.585320234E0,-9.781936646E0,-1.661264420E0
1.141794266E1,1.179773211E-1,-1.042871571E1,-6.359995604E-1
1.143804109E1,-1.405547023E0,-1.020354080E1,8.108695149E-1
1.145813953E1,6.401916146E-1,-1.041913414E1,1.218100786E0
1.147823792E1,3.677658319E0,-1.006460285E1,8.444061875E-1
1.149833583E1,6.077928066E0,-9.355541229E0,5.569487810E-1
1.151843375E1,7.424186707E0,-8.392559052E0,4.659205675E-1
1.153853172E1,8.075757027E0,-7.089418888E0,3.653104901E-1
1.155863016E1,9.005202293E0,-6.260583401E0,-6.455814838E-1
1.157872859E1,1.021252346E1,-6.303701878E0,-2.054122925E0
1.159882703E1,1.097428608E1,-6.907362461E0,-2.528427601E0
1.161892547E1,1.045686245E1,-7.180447102E0,-1.541490436E0
1.163902391E1,9.350152016E0,-6.825916290E0,-9.378298521E-1
1.165912234E1,8.415914536E0,-6.418684959E0,-1.627727628E0
1.167922078E1,6.638469696E0,-4.770595551E0,-2.078077555E0
1.169931922E1,5.383239269E0,-4.200471401E0,-1.071976662E0
1.171941766E1,5.440730572E0,-4.741849899E0,1.059999228E0
1.173951609E1,6.451622486E0,-5.647340775E0,2.899726868E0
1.175961453E1,9.077067375E0,-6.480967045E0,4.624471188E0
1.177971297E1,1.169772053E1,-6.207882881E0,5.213758945E0
1.179981141E1,1.335060120E1,-4.708312988E0,2.473331690E0
1.181990984E1,1.410278130E1,-3.534528494E0,-1.095931411E0
1.184000828E1,1.466332340E1,-3.218325377E0,-4.085488796E0
1.186010635E1,1.470644188E1,-2.494890928E0,-7.808062077E0
1.188020427E1,1.513762760E1,-1.215705395E0,-1.063951778E1
1.190030219E1,1.389197922E1,-1.325897336E0,-1.229239845E1
1.192040057E1,1.142942715E1,-3.031478167E0,-1.143481636E1
1.194049901E1,1.163543797E1,-3.462664127E0,-9.700489998E0
1.196059745E1,1.424650955E1,-4.372946262E0,-7.161283016E0
1.198069589E1,1.589459896E1,-5.815024376E0,-4.487928867E0
1.200079432E1,1.587543488E1,-6.121645451E0,-1.919975996E0
1.202089276E1,1.451480293E1,-5.005352497E0,-4.443612695E-1
1.204099120E1,1.208578777E1,-3.299771786E0,7.785305381E-2
1.206108964E1,1.006879520E1,-2.389489889E0,-5.832990408E-1
1.208118807E1,9.651982307E0,-2.897331238E0,-6.982820034E-1
1.210128651E1,1.067245579E1,-4.238799095E0,1.353445351E-1
1.212138495E1,1.216244316E1,-5.355092049E0,1.534304023E0
1.214148338E1,1.228221703E1,-5.484447956E0,2.415840149E0
1.216158182E1,1.117071533E1,-5.431747437E0,2.435003996E0
1.218168026E1,9.513044357E0,-5.561103344E0,2.195456028E0
1.220177870E1,8.195530891E0,-5.517984867E0,1.630123138E0
1.222187714E1,7.467305660E0,-5.628176689E0,9.929258823E-1
1.224197557E1,7.280457973E0,-5.613803864E0,7.198413014E-1
1.226207401E1,7.055283070E0,-5.589848995E0,3.796833456E-1
1.228217245E1,6.729497910E0,-5.647340775E0,1.065987945E-1
1.230227088E1,7.491260052E0,-6.107272625E0,-2.670958638E-1
1.232236932E1,8.703372002E0,-6.140809059E0,-8.515926003E-1
1.234246776E1,8.933338165E0,-6.298910618E0,-1.517535686E0
1.236256620E1,8.674626350E0,-6.931317329E0,-1.872066498E0
1.238266458E1,7.280457973E0,-7.007972240E0,-1.028858066E0
1.240276250E1,6.202492714E0,-6.251001358E0,-5.545532703E-1
1.242286042E1,7.237339497E0,-6.193509579E0,-1.330688357E0
1.244295838E1,8.023056984E0,-6.552831650E0,-2.705693007E0
1.246305682E1,7.932028294E0,-6.404311657E0,-4.392109871E0
1.248315526E1,6.767825603E0,-6.634277821E0,-5.369465351E0
1.250325370E1,5.344911575E0,-7.798480511E0,-5.268855095E0
1.252335214E1,3.677658319E0,-8.828536034E0,-3.874686480E0
1.254345057E1,2.805704355E0,-8.095520020E0,-8.228468895E-1
1.256354901E1,4.089680672E0,-6.342029572E0,1.850507140E0
1.258364745E1,7.079237938E0,-5.441329479E0,1.797806621E0
1.260374588E1,8.775237083E0,-5.249691010E0,3.701014221E-1
1.262384432E1,8.080548286E0,-5.422165871E0,-3.916607499E-1
1.264394276E1,7.323576927E0,-6.155181885E0,-6.695362329E-1
1.266404120E1,7.074447155E0,-6.979226589E0,-6.407905221E-1
1.268413964E1,6.748661995E0,-6.960062981E0,2.311636806E-1
1.270423807E1,7.136729240E0,-6.083317757E0,1.495976329E0
1.272433651E1,7.951192379E0,-4.899951458E0,2.090054989E0
1.274443479E1,8.425497055E0,-3.927386999E0,1.519931078E0
1.276453271E1,8.569225311E0,-3.232698202E0,2.934461236E-1
1.278463062E1,8.617135048E0,-2.969195604E0,-5.353894830E-1
1.280472875E1,8.439869881E0,-3.290189743E0,-1.091140509E0
1.282482719E1,8.248231888E0,-3.544110537E0,-1.440880299E0
1.284492562E1,8.684208870E0,-4.339409351E0,-1.345061183E0
1.286502406E1,9.177677155E0,-4.962234020E0,-7.893101573E-1
1.288512250E1,9.527417183E0,-4.698730946E0,-7.030729651E-1
1.290522094E1,9.925066948E0,-4.732267857E0,-1.330688357E0
1.292531938E1,1.126174355E1,-5.268855095E0,-2.274506807E0
1.294541781E1,1.303918839E1,-5.647340775E0,-3.223116398E0
1.296551625E1,1.429921055E1,-5.173036098E0,-4.602911949E0
1.298561469E1,1.576524353E1,-5.192199707E0,-5.867724895E0
1.300571313E1,1.694861031E1,-5.743159771E0,-6.035408020E0
1.302581156E1,1.722169495E1,-6.140809059E0,-5.000561237E0
1.304591000E1,1.550174046E1,-4.363364220E0,-2.892540455E0
1.306600844E1,1.178874874E1,-9.665755630E-1,-2.097241402E0
1.308610688E1,1.081618404E1,-5.066437125E-1,-3.347681284E0
1.310620500E1,1.207620621E1,-2.308043480E0,-5.570685387E0
1.312630292E1,1.287150478E1,-3.558483362E0,-5.666504383E0
1.314640083E1,1.217202568E1,-4.008833408E0,-4.099861622E0
1.316649906E1,1.115634251E1,-3.994460583E0,-2.250552177E0
1.318659750E1,1.190852261E1,-4.602911949E0,-7.988920808E-1
1.320669594E1,1.227263546E1,-5.517984867E0,-2.814687192E-1
1.322679438E1,1.137193584E1,-5.815024376E0,3.030280471E-1
1.324689281E1,1.048560810E1,-5.704832077E0,8.444061875E-1
1.326699125E1,1.039937115E1,-5.838978767E0,1.227682710E0
1.328708969E1,1.014545059E1,-5.906052113E0,7.869147062E-1
1.330718813E1,9.536998749E0,-5.848560810E0,-1.664857566E-1
1.332728656E1,9.172885895E0,-5.920425415E0,-1.024067044E0
1.334738500E1,8.808773041E0,-6.078526974E0,-1.316315413E0
1.336748344E1,8.363214493E0,-6.251001358E0,-1.297151685E0
1.338758188E1,7.270876408E0,-6.437848568E0,-1.378597856E0
1.340768031E1,5.881498814E0,-6.476176262E0,-1.536699533E0
1.342777823E1,4.611895084E0,-7.156492233E0,-1.967885613E0
1.344787614E1,3.509974957E0,-8.277576447E0,-1.244451046E0
1.346797406E1,2.695512295E0,-8.948309898E0,1.305535734E-1
1.348807245E1,1.579219222E0,-8.335067749E0,1.098326921E0
1.350817088E1,2.269117117E0,-7.942209244E0,8.539881110E-1
1.352826932E1,4.592730999E0,-8.723134995E0,-5.066437125E-1
1.354836776E1,5.737770081E0,-7.927836418E0,-3.964517117E-1
1.356846620E1,6.480368137E0,-7.122955322E0,-3.389602005E-1
1.358856464E1,7.845790863E0,-6.500131130E0,-7.605644464E-1
1.360866307E1,8.986039162E0,-5.666504383E0,-1.258823991E0
1.362876151E1,9.949021339E0,-5.259273052E0,-1.948721766E0
1.364885995E1,1.110364151E1,-5.781487465E0,-2.418235540E0
1.366895839E1,1.148212719E1,-6.500131130E0,-2.082868576E0
1.368905682E1,1.140068150E1,-6.476176262E0,-8.659654856E-1
1.370915526E1,1.091679478E1,-5.738368988E0,-4.192087427E-2
1.372925370E1,1.032271576E1,-4.761013508E0,1.784631461E-1
1.374935172E1,9.556162834E0,-4.267545223E0,2.599094212E-1
1.376944964E1,8.559643745E0,-3.956132889E0,4.467567503E-1
1.378954755E1,7.692480564E0,-3.860313654E0,-2.527229786E-1
1.380964588E1,7.328367710E0,-3.903432369E0,-8.755474091E-1
1.382974432E1,7.016955376E0,-3.999251366E0,-1.512744665E0
1.384984276E1,6.595351219E0,-3.946550846E0,-1.632518649E0
1.386994120E1,6.691170216E0,-4.152562141E0,-1.919975996E0
1.389003964E1,7.769135952E0,-4.986188412E0,-2.715274811E0
1.391013807E1,8.789609909E0,-6.183928013E0,-3.060223818E0
1.393023651E1,9.790919304E0,-5.676086426E0,-3.668675423E0
1.395033495E1,1.201871490E1,-4.171725750E0,-6.437848568E0
1.397043339E1,1.403570747E1,-3.088969469E0,-8.545869827E0
1.399053182E1,1.514721012E1,-3.572856188E0,-1.093176651E1
1.401063026E1,1.559755993E1,-4.291499615E0,-1.045746136E1
1.403072870E1,1.531489277E1,-4.377737045E0,-7.889508724E0
1.405082703E1,1.552090454E1,-4.852041721E0,-5.254482269E0
1.407092495E1,1.584668922E1,-7.103791714E0,-3.266234875E0
1.409102286E1,1.408840847E1,-8.172175407E0,-1.321106434E0
1.411112078E1,1.139589024E1,-7.218774796E0,9.222592413E-2
1.413121922E1,9.067484856E0,-5.580267429E0,1.213309884E0
1.415131766E1,8.502152443E0,-4.674776554E0,1.874462008E0
1.417141609E1,9.790919304E0,-5.522775650E0,1.788224697E0
1.419151453E1,1.156836510E1,-7.017554283E0,1.380993366E0
1.421161297E1,1.292420578E1,-8.435677528E0,1.093535900E0
1.423171141E1,1.315896225E1,-8.627315521E0,8.348242640E-1
1.425180984E1,1.236366367E1,-7.204401493E0,1.136654615E0
1.427190828E1,1.078264809E1,-5.379046917E0,2.080473185E0
1.429200672E1,9.014784813E0,-4.684358120E0,2.243365765E0
1.431210516E1,6.106673717E0,-4.190889835E0,2.109218836E0
1.433220323E1,3.644121647E0,-3.726166964E0,1.534304023E0
1.435229917E1,2.796122313E0,-4.109443665E0,9.354343414E-1
1.437239958E1,3.725568056E0,-4.689149380E0,-4.204064906E-1
1.439249818E1,4.980798721E0,-5.177826881E0,-1.584609032E0
1.441259609E1,5.871916771E0,-5.930006981E0,-2.652992487E0
1.443269401E1,6.475577354E0,-7.966164112E0,-2.945240974E0
1.445279219E1,6.173747063E0,-1.029936028E1,-1.987049460E0
1.447289063E1,4.128008366E0,-9.738818169E0,-3.593217814E-3
1.449298906E1,4.166336060E0,-8.406931877E0,8.971067071E-1
1.451308750E1,6.782198429E0,-7.717034340E0,7.773327827E-1
1.453318594E1,8.803982735E0,-7.496650219E0,7.054684162E-1
1.455328438E1,9.513044357E0,-7.664333820E0,3.557285666E-1
1.457338281E1,7.778717518E0,-7.563723564E0,-6.264176369E-1
1.459348125E1,6.959464073E0,-8.373394966E0,-1.963094711E0
1.461357969E1,6.312685013E0,-8.713553429E0,-2.662574291E0
1.463367813E1,6.006063461E0,-8.085937500E0,-1.560654283E0
1.465377625E1,6.547441959E0,-6.667814732E0,1.077965368E-2
1.467387417E1,7.922446251E0,-5.086798668E0,4.563386738E-1
1.469397208E1,9.934648514E0,-4.885578632E0,-6.407905221E-1
1.471407016E1,1.078264809E1,-5.786278248E0,-1.872066498E0
1.473416859E1,1.016461468E1,-6.859452724E0,-2.020586252E0
1.475426703E1,9.168095589E0,-6.845079899E0,-1.488789916E0
1.477436547E1,8.866265297E0,-5.685668468E0,-1.651682496E0
1.479446391E1,9.000411987E0,-4.353782177E0,-2.351162195E0
1.481456234E1,8.382378578E0,-3.371636152E0,-2.399071693E0
1.483466078E1,7.266085148E0,-2.959613800E0,-2.102032423E0
1.485475922E1,6.303102970E0,-3.021896124E0,-1.867275476E0
1.487485766E1,5.780888557E0,-3.342890263E0,-1.929557920E0
1.489495609E1,5.680278301E0,-3.649511576E0,-1.876857400E0
1.491505406E1,5.546131611E0,-4.075906754E0,-1.163004875E0
1.493515198E1,5.905453682E0,-4.761013508E0,-8.024853468E-2
1.495524990E1,6.379758358E0,-5.149081230E0,6.815136671E-1
1.497534813E1,7.036119461E0,-5.302391529E0,4.946663082E-1
1.499544656E1,7.615825176E0,-5.110753536E0,-5.258075595E-1
1.501554500E1,8.827937126E0,-5.311973572E0,-1.852902651E0
1.503564344E1,1.067245579E1,-6.121645451E0,-2.954822779E0
1.505574188E1,1.220077133E1,-6.720515251E0,-3.362054110E0
1.507584031E1,1.292420578E1,-6.174345970E0,-3.496201038E0
1.509593875E1,1.643118668E1,-4.713104248E0,-3.314144611E0
1.511603719E1,2.138503647E1,-4.291499615E0,-2.940449953E0
1.513613563E1,2.192641449E1,-4.205262661E0,-2.753602505E0
1.515623370E1,1.746603203E1,-3.548901558E0,-2.240970135E0
1.517633161E1,1.280922222E1,-1.450462222E0,-1.656473398E0
1.519642953E1,1.141984463E1,-1.948721766E0,-1.943930864E0
1.521652760E1,1.202829647E1,-4.205262661E0,-2.193060637E0
1.523662604E1,1.169772053E1,-5.403001785E0,-6.599543095E-1
1.525672448E1,1.065329170E1,-5.062843800E0,1.203727961E0
1.527682292E1,9.618445396E0,-4.559793472E0,2.444585800E0
1.529692135E1,9.666355133E0,-4.866414547E0,2.578732729E0
1.531701979E1,9.388479233E0,-5.134708405E0,1.898416758E0
1.533711823E1,8.478197098E0,-5.192199707E0,1.208518982E0
1.535721667E1,7.797881603E0,-5.120335579E0,5.617397428E-1
1.537731510E1,7.740389824E0,-5.206572533E0,1.077965368E-2
1.539741323E1,7.773926735E0,-5.196990490E0,-7.078639269E-1
1.541751114E1,7.630198002E0,-5.158663273E0,-9.953213334E-1
1.543760906E1,7.371486187E0,-5.244900227E0,-1.000112295E0
1.545770703E1,6.662424564E0,-5.652131557E0,-1.249242067E0
1.547780547E1,5.459894657E0,-5.968334675E0,-1.335479259E0
1.549790391E1,4.396302223E0,-6.385148048E0,-1.215705395E0
1.551800234E1,3.754313707E0,-6.734888077E0,-9.474117756E-1
1.553810078E1,3.615375996E0,-7.079836845E0,-8.420107365E-1
1.555819922E1,4.554403782E0,-7.760152817E0,-3.581240475E-1
1.557829766E1,5.828798294E0,-8.450050354E0,5.377849340E-1
1.559839609E1,5.919826508E0,-8.368604660E0,1.222891808E0
1.561849453E1,6.015645504E0,-8.033237457E0,5.425758958E-1
1.563859266E1,7.184638977E0,-8.617733955E0,-1.402552724E0
1.565869057E1,8.545270920E0,-8.948309898E0,-2.264925003E0
1.567878849E1,9.316615105E0,-8.426095963E0,-1.742710590E0
1.569888646E1,9.091440201E0,-6.663023472E0,-7.653554082E-1
1.571898490E1,9.316615105E0,-5.460493565E0,-8.659654856E-1
1.573908333E1,1.026043320E1,-6.001871586E0,-1.781038284E0
1.575918177E1,1.016940498E1,-6.988808632E0,-1.239660144E0
1.577928021E1,9.374106407E0,-7.084627628E0,-6.695362329E-1
1.579937864E1,9.081857681E0,-6.385148048E0,-1.206123471E0
1.581947708E1,8.746491432E0,-5.168244839E0,-2.054122925E0
1.583957552E1,7.989519596E0,-4.061533928E0,-2.595500946E0
1.585967396E1,6.638469696E0,-3.381217957E0,-2.854212761E0
1.587977203E1,5.431148529E0,-3.199161530E0,-2.528427601E0
1.589986995E1,5.134109497E0,-3.323726416E0,-1.670846343E0
1.591996786E1,5.608414173E0,-3.865104675E0,-8.995022178E-1
1.594006599E1,6.293520927E0,-4.368155003E0,-2.814687192E-1
1.596016443E1,7.055283070E0,-4.612493992E0,2.742823064E-1
1.598026286E1,7.735599041E0,-5.014934540E0,6.192312241E-1
1.600036130E1,8.023056984E0,-5.168244839E0,5.329939723E-1
1.602045974E1,9.110603333E0,-5.082007885E0,-2.718868256E-1
1.604055818E1,1.137193584E1,-4.732267857E0,-1.522326589E0
1.606065661E1,1.344162941E1,-4.607703209E0,-2.720065832E0
1.608075505E1,1.564546967E1,-4.578957081E0,-3.381217957E0
1.610085349E1,1.695339966E1,-3.702212095E0,-4.593329906E0
1.612095182E1,1.670906258E1,-2.983568430E0,-6.452221394E0
1.614104974E1,1.631620407E1,-3.740539789E0,-7.788898468E0
1.616114766E1,1.589939022E1,-5.220945358E0,-7.405622005E0
1.618124557E1,1.467290497E1,-5.570685387E0,-5.168244839E0
1.620134380E1,1.236366367E1,-3.831568003E0,-2.638619661E0
1.622144224E1,1.093116760E1,-2.427817583E0,-1.234869242E0
1.624154068E1,1.158273792E1,-3.524946690E0,-1.503162742E0
1.626163911E1,1.236845493E1,-5.220945358E0,-1.579818130E0
1.628173755E1,1.228700829E1,-6.548040390E0,-1.024067044E0
1.630183599E1,1.172646618E1,-6.749260902E0,1.197739271E-3
1.632193443E1,1.107968712E1,-5.843770027E0,1.165400267E0
1.634203281E1,1.080660248E1,-5.594640255E0,2.008608818E0
1.636213073E1,1.035146141E1,-5.613803864E0,2.473331690E0
1.638222864E1,9.666355133E0,-5.953961849E0,2.765579939E0
1.640232656E1,8.339260101E0,-6.059362888E0,2.142755508E0
1.642242474E1,7.333158493E0,-6.011453629E0,6.336040497E-1
1.644252318E1,6.969046116E0,-5.862933636E0,-6.647452712E-1
1.646262161E1,6.882808685E0,-5.666504383E0,-1.618145704E0
1.648272005E1,5.804843426E0,-5.072425842E0,-1.522326589E0
1.650281849E1,5.426357746E0,-5.498820782E0,1.976269782E-1
1.652291693E1,6.274357319E0,-7.295429707E0,9.450162649E-1
1.654301536E1,5.546131611E0,-7.554141521E0,-6.312085986E-1
1.656311364E1,3.898042440E0,-7.261893272E0,-2.566755295E0
1.658321156E1,2.484710217E0,-7.554141521E0,-2.973986626E0
1.660330948E1,3.169816971E0,-8.382977486E0,-1.891230345E0
1.662340740E1,5.023917198E0,-9.144739151E0,-4.635250866E-1
1.664350562E1,5.225137711E0,-9.365123749E0,6.910955310E-1
1.666360406E1,5.273046970E0,-1.013646698E1,1.644495964E0
1.668370250E1,5.517385960E0,-1.039517879E1,2.482913494E0
1.670380094E1,6.178537846E0,-1.015084076E1,3.048246384E0
1.672389938E1,6.892390728E0,-9.460942268E0,3.019500732E0
1.674399781E1,6.729497910E0,-8.143429756E0,3.388404369E0
1.676409625E1,7.299622059E0,-7.233147621E0,3.680652857E0
1.678419453E1,9.072276115E0,-7.443949699E0,2.114009857E0
1.680429245E1,1.070120144E1,-7.688288212E0,1.545083672E-1
1.682439036E1,1.045207214E1,-7.525395870E0,-1.119886160E0
1.684448828E1,8.875846863E0,-7.266684055E0,-1.838529825E0
1.686458646E1,7.946401119E0,-6.801961422E0,-2.011004210E0
1.688468490E1,7.711644173E0,-6.183928013E0,-1.852902651E0
1.690478333E1,8.214694977E0,-5.642549515E0,-1.244451046E0
1.692488177E1,8.056592941E0,-4.914324284E0,-1.521128863E-1
1.694498021E1,8.712954521E0,-4.660403728E0,-1.281581074E-1
1.696507865E1,8.765654564E0,-4.598121166E0,-5.832990408E-1
1.698517708E1,8.597970963E0,-4.909533501E0,-1.086349487E0
1.700527510E1,7.850582123E0,-5.431747437E0,-1.388179779E0
1.702537302E1,7.481678486E0,-6.159973145E0,-1.426507473E0
1.704547094E1,7.979938030E0,-6.571995258E0,-1.349852204E0
1.706556885E1,9.024366379E0,-6.567204475E0,-1.479207993E0
1.708566724E1,1.005442238E1,-6.308492661E0,-2.236179113E0
1.710576568E1,1.119946098E1,-6.035408020E0,-3.529737711E0
1.712586411E1,1.272777653E1,-6.236628532E0,-4.698730946E0
1.714596255E1,1.354703045E1,-6.059362888E0,-5.264064312E0
1.716606099E1,1.389676952E1,-6.112063408E0,-4.962234020E0
1.718615943E1,1.525261116E1,-7.309803009E0,-4.454392433E0
1.720625755E1,1.566463280E1,-8.943519592E0,-3.127297163E0
1.722635547E1,1.419859982E1,-8.651270866E0,-9.665755630E-1
1.724645339E1,1.156836510E1,-6.207882881E0,5.952764153E-1
1.726655130E1,1.088325787E1,-4.765804768E0,-1.521128863E-1
1.728664953E1,1.199475956E1,-6.337238312E0,-2.102032423E0
1.730674797E1,1.205225182E1,-8.186548233E0,-2.322416544E0
1.732684641E1,1.056226349E1,-8.675225258E0,-1.028858066E0
1.734694484E1,9.369315147E0,-7.659542561E0,8.971067071E-1
1.736704328E1,9.182468414E0,-6.950480938E0,2.008608818E0
1.738714172E1,9.067484856E0,-7.099000454E0,2.329602957E0
1.740724000E1,8.310513496E0,-7.376876354E0,2.454167843E0
1.742733792E1,7.376277447E0,-7.396039963E0,2.482913494E0
1.744743583E1,6.858853817E0,-7.396039963E0,1.931953430E0
1.746753375E1,6.489950180E0,-7.333757401E0,5.904854536E-1
1.748763177E1,6.365385532E0,-7.194819927E0,-2.335591614E-1
1.750773021E1,6.279148102E0,-6.830707073E0,-1.024067044E0
1.752782864E1,6.231238365E0,-6.538458824E0,-1.795411110E0
1.754792708E1,5.756933689E0,-6.634277821E0,-2.073286772E0
1.756802552E1,4.851442814E0,-6.883407593E0,-1.814574957E0
1.758812396E1,3.313545704E0,-7.640378952E0,-1.699591994E0
1.760822219E1,1.286970854E0,-8.890818596E0,-2.231388330E0
1.762832010E1,8.222479820E-1,-9.595088959E0,-2.609873772E0
1.764841802E1,3.481229305E0,-9.849010468E0,-7.461915612E-1
1.766851594E1,5.723397255E0,-9.896919250E0,1.864880085E0
1.768861396E1,5.833589077E0,-9.748399734E0,3.043455601E0
1.770871240E1,6.279148102E0,-1.114735985E1,1.553467870E0
1.772881083E1,6.863645077E0,-1.167915535E1,1.113897488E-1
1.774890927E1,7.658943653E0,-1.092218399E1,-6.312085986E-1
1.776900771E1,7.797881603E0,-8.895609856E0,-2.910506427E-1
1.778910614E1,8.152412415E0,-7.295429707E0,1.002507806E0
1.780920438E1,9.867574692E0,-8.311112404E0,1.486394405E0
1.782930229E1,1.030355167E1,-9.916083336E0,-6.108470261E-2
1.784940021E1,8.358423233E0,-1.032810593E1,-2.581128120E0
1.786949812E1,5.776097775E0,-8.972265244E0,-4.396900654E0
1.788959604E1,4.439420700E0,-7.204401493E0,-4.732267857E0
1.790969448E1,4.286109924E0,-6.097690582E0,-3.860313654E0
1.792979292E1,4.190290928E0,-5.029307365E0,-2.988359451E0
1.794989135E1,4.540030479E0,-4.487928867E0,-2.451772213E0
1.796998979E1,4.726878166E0,-4.114234447E0,-2.547591448E0
1.799008823E1,5.158064365E0,-3.917805195E0,-3.112924337E0
1.801018646E1,5.522176743E0,-4.329827309E0,-3.668675423E0
1.803028438E1,5.560504436E0,-5.038888931E0,-3.261444092E0
1.805038229E1,5.814425468E0,-5.858142853E0,-2.145151138E0
1.807048021E1,5.953362942E0,-6.279747009E0,-7.797282934E-1
1.809057812E1,6.619306087E0,-6.485758305E0,4.898753762E-1
1.811067646E1,8.195530891E0,-6.457012177E0,7.917056680E-1
1.813077490E1,1.011670494E1,-6.183928013E0,-3.677059710E-1
1.815087333E1,1.187019539E1,-6.663023472E0,-2.149941921E0
1.817097177E1,1.282359505E1,-7.084627628E0,-3.711793900E0
1.819107021E1,1.318291759E1,-7.170865059E0,-4.904742241E0
1.821116844E1,1.436149311E1,-7.860763073E0,-5.858142853E0
1.823126635E1,1.474956036E1,-8.972265244E0,-6.629487038E0
1.825136427E1,1.340330124E1,-9.063293457E0,-5.244900227E0
1.827146219E1,1.061975479E1,-7.051091194E0,-2.811094046E0
1.829156010E1,9.369315147E0,-4.837668896E0,-1.426507473E0
1.831165838E1,1.052393627E1,-5.661713600E0,-2.619455814E0
1.833175682E1,1.094554043E1,-7.520605087E0,-3.932178020E0
1.835185526E1,9.230378151E0,-8.018864632E0,-2.873376608E0
1.837195370E1,7.654152870E0,-7.108582497E0,-1.172586799E0
1.839205214E1,7.836209297E0,-5.944379807E0,-4.671183228E-2
1.841215026E1,8.564435005E0,-5.762323856E0,4.419657886E-1
1.843224818E1,8.487779617E0,-5.968334675E0,2.072088867E-1
1.845234609E1,7.663734913E0,-6.179136753E0,-4.635250866E-1
1.847244401E1,7.050492287E0,-6.394730091E0,-1.110304356E0
1.849254193E1,6.916345596E0,-6.639068604E0,-1.206123471E0
1.851264026E1,7.007373810E0,-6.500131130E0,-1.119886160E0
1.853273870E1,7.304412842E0,-6.634277821E0,-8.563835621E-1
1.855283714E1,7.491260052E0,-6.773215771E0,-3.054235280E-1
1.857293557E1,7.802672386E0,-7.075046062E0,-1.808586270E-1
1.859303401E1,7.639780045E0,-7.419994831E0,-3.054235280E-1
1.861313198E1,7.146311283E0,-7.520605087E0,-4.587341547E-1
1.863322990E1,7.055283070E0,-7.707452297E0,-6.072537899E-1
1.865332781E1,7.390650272E0,-8.421304703E0,-3.006325662E-1
1.867342573E1,6.849272251E0,-9.125575066E0,2.551184595E-1
1.869352365E1,5.062244892E0,-9.197440147E0,1.021671653E0
1.871362198E1,3.447692394E0,-9.264513016E0,1.476812482E0
1.873372042E1,3.260845184E0,-9.757982254E0,1.793015718E0
1.875381885E1,3.303963661E0,-9.604671478E0,1.682823658E0
1.877391729E1,4.238200188E0,-8.153011322E0,1.266010404E0
1.879401568E1,8.310513496E0,-5.302391529E0,6.000673771E-1
1.881411359E1,1.405966282E1,-3.261444092E0,-5.641351938E-1
1.883421151E1,1.390156078E1,-4.363364220E0,-2.399071693E0
1.885430844E1,8.267395020E0,-6.212673664E0,-4.976606846E0
1.887440792E1,4.065725803E0,-5.431747437E0,-5.997080326E0
1.889450635E1,4.506494045E0,-4.468765259E0,-5.211363792E0
1.891460427E1,6.600142479E0,-3.443500519E0,-5.302391529E0
1.893470219E1,8.032638550E0,-2.662574291E0,-6.543249607E0
1.895480010E1,7.476887226E0,-2.964404583E0,-7.079836845E0
1.897489802E1,7.136729240E0,-3.984878540E0,-5.977916718E0
1.899499609E1,7.596661091E0,-5.771905422E0,-3.865104675E0
1.901509453E1,8.070965767E0,-5.862933636E0,-4.190889835E0
1.903519297E1,6.561814785E0,-6.088108540E0,-5.656922817E0
1.905529141E1,4.252573490E0,-7.161283016E0,-2.696111202E0
1.907538984E1,3.715986013E0,-6.131227493E0,4.289104462E0
1.909548781E1,4.793951511E0,-2.403862715E0,1.194984436E1
1.911558573E1,7.021746635E0,1.040835381E0,1.508313084E1
1.913568364E1,1.159711075E1,1.357038617E0,1.257266903E1
1.915578156E1,1.366680431E1,1.880450696E-1,5.146685600E0
1.917587948E1,1.374825001E1,-1.230078220E0,-9.665755630E-1
1.919597760E1,1.273735809E1,-1.551072359E0,-4.928697109E0
1.921607604E1,1.282359505E1,-1.086349487E0,-5.714414120E0
1.923617448E1,1.446210289E1,-1.680428147E0,-4.214844704E0
1.925627292E1,1.645993233E1,-2.700901985E0,-3.098551512E0
1.927637130E1,1.588980770E1,-2.418235540E0,-4.420855522E0
1.929646922E1,1.236366367E1,-2.096043676E-1,-5.968334675E0
1.931656714E1,1.013107777E1,2.694913447E-1,-6.629487038E0
1.933666505E1,1.033229828E1,-1.383388877E0,-4.444810390E0
1.935676297E1,1.106052303E1,-2.863794565E0,-1.862484574E0
1.937686089E1,1.135756302E1,-3.433918476E0,4.802934527E-1
1.939695901E1,1.118508816E1,-2.791930199E0,2.439794779E0
1.941705745E1,1.071078300E1,-2.355953217E0,3.397986412E0
1.943715589E1,1.042811680E1,-2.619455814E0,3.120110750E0
1.945725432E1,1.008316803E1,-2.825466871E0,2.161919355E0
1.947735266E1,9.192049980E0,-2.830257893E0,8.827338219E-1
1.949745057E1,8.425497055E0,-3.079387665E0,-6.216266751E-1
1.951754849E1,8.123666763E0,-3.280607939E0,-1.943930864E0
1.953764641E1,7.845790863E0,-3.462664127E0,-2.566755295E0
1.955774432E1,7.711644173E0,-3.520155668E0,-2.341580391E0
1.957784224E1,7.778717518E0,-3.754912615E0,-1.488789916E0
1.959794026E1,7.970355988E0,-4.071115971E0,-1.048021913E0
1.961803870E1,7.975146770E0,-4.564584255E0,-1.057603836E0
1.963813714E1,7.735599041E0,-4.583748341E0,-9.857394099E-1
1.965823557E1,7.932028294E0,-4.636448860E0,-1.067185640E0
1.967833391E1,8.641090393E0,-5.441329479E0,-1.244451046E0
1.969843182E1,8.780027390E0,-6.332447529E0,-1.321106434E0
1.971852974E1,7.812254429E0,-6.298910618E0,-3.964517117E-1
1.973862766E1,6.935509205E0,-6.083317757E0,3.413556814E-1
1.975872557E1,7.606243134E0,-6.998390675E0,-2.431410700E-1
1.977882349E1,7.884118557E0,-7.065464020E0,-1.541490436E0
1.979892141E1,7.587079525E0,-5.819815159E0,-2.049331903E0
1.981901979E1,7.313994884E0,-4.023206234E0,-1.249242067E0
1.983911823E1,8.300931931E0,-3.213534355E0,-8.180559278E-1
1.985921667E1,1.029876137E1,-4.310663700E0,-1.373806953E0
1.987931510E1,1.075390244E1,-6.227046490E0,-1.632518649E0
1.989941302E1,8.938129425E0,-6.179136753E0,-9.569936991E-1
1.991951094E1,8.281767845E0,-4.751431465E0,3.653104901E-1
1.993960885E1,9.771756172E0,-3.328517437E0,6.383950114E-1
1.995970677E1,1.030834293E1,-2.403862715E0,-3.916607499E-1
1.997980469E1,8.526106834E0,-1.910394192E0,-2.575139403E-1
1.999990260E1,6.370176315E0,-2.015795231E0,8.348242640E-1
2.002000078E1,6.255193233E0,-2.619455814E0,1.640902758E-1
2.004009922E1,6.231238365E0,-3.328517437E0,-3.065014839E0
2.006019766E1,5.574877262E0,-2.911704063E0,-6.040199280E0
2.008029609E1,5.632369041E0,-2.561964273E0,-6.452221394E0
2.010039417E1,7.486469269E0,-3.357263088E0,-5.192199707E0
2.012049208E1,8.808773041E0,-3.754912615E0,-5.369465351E0
2.014059000E1,8.923756599E0,-3.721375942E0,-5.652131557E0
2.016068792E1,9.081857681E0,-3.774076462E0,-6.092899799E0
2.018078583E1,1.027001572E1,-4.056743145E0,-6.121645451E0
2.020088375E1,1.164022923E1,-5.326346397E0,-5.014934540E0
2.022098167E1,1.281880474E1,-6.021035194E0,-3.726166964E0
2.024108010E1,1.338413715E1,-5.915634155E0,-3.108133316E0
2.026117854E1,1.439982033E1,-6.988808632E0,-2.317625523E0
2.028127698E1,1.498431683E1,-7.218774796E0,-1.110304356E0
2.030137526E1,1.376262283E1,-6.174345970E0,-2.910506427E-1
2.032147318E1,1.135756302E1,-3.692630291E0,1.832541078E-1
2.034157109E1,9.762173653E0,-1.297151685E0,6.144402623E-1
2.036166901E1,1.030834293E1,-1.071976662E0,1.385784388E0
2.038176693E1,1.121383381E1,-1.828947902E0,2.118800879E0
2.040186484E1,1.087846661E1,-2.293670654E0,3.005127907E0
2.042196276E1,1.029876137E1,-2.169105768E0,3.709398508E0
2.044206068E1,1.040895271E1,-2.312834501E0,3.666279793E0
2.046215896E1,9.527417183E0,-3.093760490E0,1.970281124E0
2.048225740E1,7.874536991E0,-3.841149807E0,4.515477121E-1
2.050235583E1,6.648051739E0,-3.855522633E0,-4.156155288E-1
2.052245422E1,6.796571732E0,-3.802822113E0,1.640902758E-1
2.054255214E1,7.361904621E0,-4.487928867E0,9.258524776E-1
2.056265005E1,8.401541710E0,-5.335928440E0,1.065987945E-1
2.058274797E1,8.880638123E0,-6.044990063E0,-6.551634073E-1
2.060284588E1,8.157203674E0,-6.485758305E0,-2.264925003E0
2.062294380E1,7.548751831E0,-6.327656746E0,-3.874686480E0
2.064304172E1,7.361904621E0,-6.006662369E0,-4.646030426E0
2.066313964E1,7.036119461E0,-5.417374611E0,-4.468765259E0
2.068323771E1,6.748661995E0,-4.933487892E0,-3.448291302E0
2.070333614E1,7.050492287E0,-4.919115067E0,-2.600291967E0
2.072343458E1,7.567915440E0,-5.925216198E0,-2.399071693E0
2.074353302E1,7.405023098E0,-7.036718369E0,-2.547591448E0
2.076363109E1,6.734289169E0,-7.688288212E0,-2.159523964E0
2.078372901E1,6.259984493E0,-7.927836418E0,-1.704383016E0
2.080382693E1,6.815735340E0,-8.943519592E0,-1.776247382E0
2.082392484E1,7.381068230E0,-9.542388916E0,-1.110304356E0
2.084402276E1,7.481678486E0,-8.938728333E0,3.557285666E-1
2.086412068E1,7.539169788E0,-7.654751778E0,1.404948115E0
2.088421859E1,7.151102543E0,-5.963543892E0,2.233783722E0
2.090431661E1,7.687689304E0,-5.374256134E0,2.482913494E0
2.092441505E1,9.307032585E0,-5.920425415E0,1.984653950E0
2.094451349E1,1.081618404E1,-6.754051685E0,1.706778407E0
2.096461193E1,1.046644497E1,-6.864243984E0,1.007298708E0
2.098471000E1,9.038739204E0,-5.906052113E0,-4.443612695E-1
2.100480792E1,7.984728813E0,-4.919115067E0,-1.848111749E0
2.102490583E1,7.371486187E0,-4.061533928E0,-2.624246836E0
2.104500375E1,6.916345596E0,-3.587229013E0,-2.423026562E0
2.106510167E1,6.442040443E0,-3.237489223E0,-2.288879633E0
2.108519958E1,6.212074757E0,-3.314144611E0,-2.523636580E0
2.110529750E1,6.341430664E0,-3.251862049E0,-2.830257893E0
2.112539542E1,6.863645077E0,-3.630347729E0,-2.835048914E0
2.114549359E1,7.275667191E0,-4.238799095E0,-2.288879633E0
2.116559203E1,7.472096443E0,-4.372946262E0,-1.172586799E0
2.118569047E1,7.587079525E0,-4.392109871E0,-2.910506427E-1
2.120578891E1,8.032638550E0,-4.416064739E0,1.113897488E-1
2.122588682E1,8.693790436E0,-4.425646782E0,-5.018527508E-1
2.124598474E1,9.628026962E0,-4.732267857E0,-1.737919688E0
2.126608266E1,1.082576656E1,-5.345510483E0,-3.548901558E0
2.128618057E1,1.185103130E1,-6.054572105E0,-4.981397629E0
2.130627849E1,1.273256779E1,-6.720515251E0,-5.589848995E0
2.132637641E1,1.296253300E1,-6.974435806E0,-4.612493992E0
2.134647432E1,1.348953819E1,-7.707452297E0,-3.256653070E0
2.136657224E1,1.329790020E1,-8.148220062E0,-1.546281457E0
2.138667057E1,1.219118881E1,-7.357712269E0,2.455365509E-1
2.140676901E1,1.046644497E1,-5.623385906E0,1.184564114E0
2.142686745E1,8.918965340E0,-3.414754629E0,1.112699747E0
2.144696573E1,8.669836044E0,-2.801512241E0,-2.862596810E-1
2.146706364E1,9.699891090E0,-3.917805195E0,-2.284088850E0
2.148716156E1,1.038020706E1,-5.364674091E0,-3.716584921E0
2.150725948E1,1.055747318E1,-6.342029572E0,-2.815885067E0
2.152735740E1,1.009754086E1,-5.872515678E0,-5.497623086E-1
2.154745531E1,9.867574692E0,-5.125126362E0,1.002507806E0
2.156755323E1,9.800501823E0,-4.990979671E0,1.495976329E0
2.158765115E1,9.560954094E0,-5.259273052E0,1.131863594E0
2.160774917E1,8.832728386E0,-5.455702305E0,5.473668575E-1
2.162784760E1,8.123666763E0,-5.728786945E0,1.353445351E-1
2.164794604E1,7.716435432E0,-5.613803864E0,-6.695362329E-1
2.166804448E1,7.563124657E0,-5.412583828E0,-1.277987838E0
2.168814260E1,7.428977966E0,-5.168244839E0,-1.139050007E0
2.170824052E1,7.409813881E0,-5.177826881E0,-7.701463699E-1
2.172833844E1,7.371486187E0,-5.417374611E0,-5.066437125E-1
2.174843635E1,7.007373810E0,-5.609013081E0,-6.216266751E-1
2.176853427E1,6.499532223E0,-5.834187984E0,-6.072537899E-1
2.178863219E1,5.785679340E0,-6.092899799E0,-6.359995604E-1
2.180873010E1,5.570086479E0,-6.591159344E0,-6.887000799E-1
2.182882802E1,5.704233170E0,-7.367294312E0,-1.569038481E-1
2.184892641E1,6.264775276E0,-8.402140617E0,1.716360331E0
2.186902484E1,7.328367710E0,-8.967473984E0,4.020810604E0
2.188912328E1,8.952502251E0,-9.849010468E0,5.232923031E0
2.190922156E1,9.905902863E0,-1.073533726E1,3.896245956E0
2.192931948E1,8.253022194E0,-1.010772133E1,1.203727961E0
2.194941740E1,6.667215824E0,-9.058502197E0,-1.723546863E0
2.196951531E1,5.871916771E0,-7.621214867E0,-3.568065405E0
2.198961323E1,6.087509632E0,-5.795860291E0,-4.229217529E0
2.200971114E1,7.558333874E0,-4.919115067E0,-4.727477074E0
2.202980906E1,8.895010948E0,-4.660403728E0,-5.254482269E0
2.204990698E1,8.751281738E0,-4.794550419E0,-5.422165871E0
2.207000526E1,7.793090343E0,-4.650821686E0,-5.292809963E0
2.209010370E1,7.050492287E0,-4.646030426E0,-4.732267857E0
2.211020214E1,7.016955376E0,-4.368155003E0,-3.702212095E0
2.213030057E1,7.687689304E0,-4.109443665E0,-2.336789370E0
2.215039849E1,7.941610336E0,-3.812404156E0,-1.043230891E0
2.217049641E1,7.572706699E0,-3.865104675E0,-1.952314973E-1
2.219059432E1,7.117565632E0,-4.142980099E0,1.592993289E-1
2.221069224E1,6.758244038E0,-4.555002213E0,4.910730943E-2
2.223079016E1,6.729497910E0,-4.775386333E0,-1.616947949E-1
2.225088807E1,6.997791767E0,-4.631657600E0,-4.299883842E-1
2.227098599E1,7.620615959E0,-4.348991394E0,-7.797282934E-1
2.229108427E1,8.329677582E0,-4.612493992E0,-1.086349487E0
2.231118271E1,8.775237083E0,-4.804131985E0,-1.421716571E0
2.233128115E1,8.871055603E0,-4.756222725E0,-2.011004210E0
2.235137958E1,9.259123802E0,-4.727477074E0,-2.777557373E0
2.237147750E1,1.030834293E1,-5.273645878E0,-3.496201038E0
2.239157542E1,1.102698708E1,-5.882097721E0,-4.147770882E0
2.241167333E1,1.114676094E1,-6.404311657E0,-4.368155003E0
2.243177125E1,1.167376614E1,-7.180447102E0,-4.090279579E0
2.245186917E1,1.240678215E1,-8.153011322E0,-3.438709497E0
2.247196708E1,1.235887241E1,-7.908672333E0,-2.173896790E0
2.249206505E1,1.124257946E1,-6.351611137E0,-1.225287318E0
2.251216349E1,1.036104393E1,-4.291499615E0,-5.928809643E-1
2.253226193E1,1.113717842E1,-3.956132889E0,-1.479207993E0
2.255236036E1,1.191810417E1,-5.532357693E0,-3.189579725E0
2.257245870E1,1.088325787E1,-6.533667564E0,-3.716584921E0
2.259255661E1,9.292659760E0,-6.021035194E0,-2.561964273E0
2.261265453E1,8.842309952E0,-4.665194511E0,-9.282479286E-1
2.263275245E1,9.120185852E0,-4.090279579E0,-8.503948897E-2
2.265285036E1,9.283078194E0,-4.569375515E0,-3.724969029E-1
2.267294828E1,8.459033966E0,-5.077216625E0,-1.330688357E0
2.269304620E1,7.749971867E0,-5.450911522E0,-2.308043480E0
2.271314438E1,7.131938457E0,-5.345510483E0,-2.969195604E0
2.273324281E1,6.882808685E0,-5.072425842E0,-2.906913280E0
2.275334125E1,7.064865112E0,-4.746640682E0,-2.327207327E0
2.277343969E1,7.275667191E0,-4.703522205E0,-1.618145704E0
2.279353781E1,7.079237938E0,-4.804131985E0,-8.995022178E-1
2.281363573E1,6.672006607E0,-5.187408924E0,-4.683160484E-1
2.283373365E1,6.245611668E0,-5.393419743E0,-1.281581074E-1
2.285383156E1,6.020436287E0,-5.795860291E0,4.946663082E-1
2.287392948E1,6.058763981E0,-6.509713173E0,9.977167845E-1
2.289402740E1,6.197701931E0,-7.812853336E0,1.438484907E0
2.291412547E1,6.293520927E0,-8.852491379E0,2.070891142E0
2.293422391E1,6.604933262E0,-9.221394539E0,2.942845345E0
2.295432234E1,7.371486187E0,-9.139948845E0,3.201557159E0
2.297442078E1,8.626717567E0,-9.547180176E0,1.615750313E0
2.299451906E1,8.851892471E0,-9.825055122E0,1.832541078E-1
2.301461698E1,8.042220116E0,-9.020174026E0,-8.024853468E-2
2.303471490E1,7.548751831E0,-8.061983109E0,-4.192087427E-2
2.305481281E1,7.064865112E0,-6.480967045E0,2.742823064E-1
2.307491073E1,7.400232315E0,-5.307182789E0,-9.569936991E-1
2.309500864E1,8.439869881E0,-5.292809963E0,-2.748811722E0
2.311510656E1,9.628026962E0,-5.709623337E0,-3.874686480E0
2.313520479E1,1.008316803E1,-6.073735714E0,-4.200471401E0
2.315530323E1,9.628026962E0,-5.690459251E0,-3.659093380E0
2.317540167E1,9.096230507E0,-5.182617664E0,-2.815885067E0
2.319550010E1,8.760864258E0,-4.344200134E0,-2.121196270E0
2.321559818E1,8.650671959E0,-3.850731850E0,-1.460044146E0
2.323569609E1,8.439869881E0,-3.553692341E0,-6.647452712E-1
2.325579401E1,7.955983162E0,-3.707003117E0,-3.102144599E-1
2.327589193E1,7.323576927E0,-4.157352924E0,-4.539431930E-1
2.329598984E1,6.782198429E0,-4.617284775E0,-8.707564473E-1
2.331608776E1,6.087509632E0,-4.847250938E0,-1.249242067E0
2.333618703E1,5.891080379E0,-5.029307365E0,-1.316315413E0
2.335628510E1,6.058763981E0,-5.144289970E0,-9.953213334E-1
2.337638302E1,6.504323006E0,-5.403001785E0,-8.995022178E-1
2.339648094E1,7.405023098E0,-5.632967949E0,-1.254032969E0
2.341657885E1,7.850582123E0,-5.676086426E0,-1.790620208E0
2.343667677E1,8.329677582E0,-5.791069508E0,-2.322416544E0
2.345677469E1,9.192049980E0,-6.538458824E0,-2.260133982E0
2.347687297E1,1.002088547E1,-7.247520447E0,-1.565445185E0
2.349697141E1,1.115155125E1,-7.669124603E0,-1.804993033E0
2.351706984E1,1.212890720E1,-8.555451393E0,-2.902122259E0
2.353716828E1,1.156836510E1,-8.253621101E0,-2.744020700E0
2.355726651E1,1.099345016E1,-6.931317329E0,-1.905603170E0
2.357736443E1,1.043769932E1,-4.765804768E0,-9.665755630E-1
2.359746234E1,1.069641018E1,-3.395590782E0,-1.321106434E0
2.361756026E1,1.198517799E1,-4.157352924E0,-3.774076462E0
2.363765818E1,1.133360767E1,-5.283227921E0,-5.254482269E0
2.365775625E1,9.546581268E0,-5.575476170E0,-3.994460583E0
2.367785469E1,8.861474037E0,-4.885578632E0,-1.115095258E0
2.369795312E1,9.307032585E0,-4.205262661E0,1.151027441E0
2.371805156E1,1.004963112E1,-4.166934967E0,3.215929985E0
2.373815000E1,1.023647881E1,-4.511883736E0,3.412359238E0
2.375824828E1,9.728637695E0,-4.741849899E0,2.281693220E0
2.377834620E1,8.899801254E0,-4.784968376E0,6.527678967E-1
2.379844411E1,8.612343788E0,-4.789759159E0,-4.826889336E-1
2.381854203E1,8.660253525E0,-4.741849899E0,-9.378298521E-1
2.383863995E1,8.918965340E0,-4.871205807E0,-1.287569761E0
2.385873786E1,8.794400215E0,-5.278437138E0,-1.531908512E0
2.387883604E1,8.080548286E0,-5.738368988E0,-1.594190955E0
2.389893448E1,7.189429760E0,-6.131227493E0,-1.493580818E0
2.391903292E1,6.418086052E0,-6.313283920E0,-1.004903197E0
2.393913135E1,5.857543945E0,-6.466594219E0,-5.162256360E-1
2.395922969E1,5.857543945E0,-7.166074276E0,-1.569038481E-1
2.397932760E1,6.020436287E0,-8.143429756E0,1.113897488E-1
2.399942552E1,5.862334728E0,-9.001010895E0,7.677508593E-1
2.401952344E1,5.584459305E0,-8.569824219E0,8.252423406E-1
2.403962135E1,6.758244038E0,-8.359022141E0,-8.324288130E-1
2.405971927E1,8.238649368E0,-8.598569870E0,-2.485308886E0
2.407981740E1,7.922446251E0,-7.884717464E0,-2.605082989E0
2.409991583E1,7.280457973E0,-7.070254803E0,-2.729647875E0
2.412001427E1,7.146311283E0,-5.786278248E0,-2.149941921E0
2.414011271E1,7.716435432E0,-4.008833408E0,-1.311524510E0
2.416021109E1,9.570535660E0,-3.390799761E0,-1.373806953E0
2.418030901E1,1.128090763E1,-3.697421074E0,-1.239660144E0
2.420040693E1,1.192768669E1,-4.377737045E0,-6.503724456E-1
2.422050484E1,1.083534813E1,-4.919115067E0,-4.251974523E-1
2.424060276E1,8.636299133E0,-4.976606846E0,-4.395703077E-1
2.426070068E1,6.863645077E0,-4.205262661E0,-5.018527508E-1
2.428079885E1,6.465995312E0,-3.256653070E0,4.431635141E-2
2.430089729E1,6.887599468E0,-2.844630718E0,6.144402623E-1
2.432099573E1,6.925927162E0,-2.585919142E0,4.180110097E-1
2.434109417E1,6.451622486E0,-2.772766352E0,-2.766777575E-1
2.436119255E1,6.255193233E0,-3.084178686E0,-8.420107365E-1
2.438129047E1,6.283938885E0,-3.141670227E0,-1.436089396E0
2.440138838E1,6.303102970E0,-3.060223818E0,-1.522326589E0
2.442148630E1,6.638469696E0,-3.127297163E0,-1.158213854E0
2.444158422E1,7.970355988E0,-3.625556707E0,-6.982820034E-1
2.446168214E1,8.736908913E0,-3.893850327E0,-1.038439989E0
2.448178031E1,8.703372002E0,-3.922596216E0,-1.867275476E0
2.450187875E1,8.928547859E0,-3.922596216E0,-2.413444519E0
2.452197719E1,1.033708858E1,-4.578957081E0,-2.269716024E0
2.454207563E1,1.212890720E1,-5.551521301E0,-2.097241402E0
2.456217406E1,1.297690582E1,-5.656922817E0,-2.892540455E0
2.458227203E1,1.285713196E1,-5.216154575E0,-4.071115971E0
2.460236995E1,1.322124481E1,-5.537148476E0,-4.669985294E0
2.462246786E1,1.303918839E1,-5.187408924E0,-3.639929533E0
2.464256578E1,1.251218319E1,-3.860313654E0,-1.824156880E0
2.466266375E1,1.157794666E1,-2.011004210E0,-1.425309777E-1
2.468276219E1,1.142463589E1,-1.507953763E0,6.240221858E-1
2.470286063E1,1.227263546E1,-3.438709497E0,1.736721992E-1
2.472295906E1,1.217681599E1,-4.722685814E0,-1.186959624E0
2.474305750E1,1.124737072E1,-4.281918049E0,-1.948721766E0
2.476315568E1,1.128569794E1,-2.830257893E0,-1.474417090E0
2.478325359E1,1.226784420E1,-2.331998348E0,-8.803383708E-1
2.480335151E1,1.251697445E1,-2.652992487E0,-4.683160484E-1
2.482344943E1,1.128090763E1,-3.232698202E0,-7.078639269E-1
2.484354734E1,9.848411560E0,-3.649511576E0,-1.239660144E0
2.486364568E1,9.244750977E0,-3.994460583E0,-1.076767564E0
2.488374411E1,9.168095589E0,-4.401691914E0,-4.635250866E-1
2.490384255E1,8.966875076E0,-4.708312988E0,2.119998485E-1
2.492394099E1,8.851892471E0,-5.158663273E0,4.419657886E-1
2.494403943E1,8.626717567E0,-5.800651073E0,1.928360164E-1
2.496413745E1,8.358423233E0,-6.351611137E0,7.306209207E-2
2.498423536E1,7.591870308E0,-6.619904995E0,2.838642001E-1
2.500433328E1,6.710334301E0,-6.806752205E0,5.425758958E-1
2.502443120E1,6.073136806E0,-7.199610710E0,5.329939723E-1
2.504452911E1,5.613204956E0,-8.057191849E0,6.336040497E-1
2.506462719E1,5.598832130E0,-9.029756546E0,9.018976688E-1
2.508472562E1,5.752142906E0,-9.365123749E0,1.117490768E0
2.510482406E1,6.202492714E0,-8.957892418E0,5.904854536E-1
2.512492250E1,7.385859013E0,-9.173484802E0,-8.755474091E-1
2.514502094E1,8.276977539E0,-9.139948845E0,-1.690010071E0
2.516511891E1,8.607553482E0,-8.153011322E0,-1.646891475E0
2.518521682E1,8.128458023E0,-6.428266525E0,-1.330688357E0
2.520531474E1,8.171576500E0,-4.770595551E0,-1.488789916E0
2.522541266E1,8.746491432E0,-4.492720127E0,-2.480518103E0
2.524551057E1,9.144140244E0,-5.129917145E0,-3.012314320E0
2.526560859E1,8.435078621E0,-5.580267429E0,-2.154732943E0
2.528570703E1,7.376277447E0,-5.450911522E0,-9.905303717E-1
2.530580547E1,6.959464073E0,-4.875996590E0,-3.677059710E-1
2.532590391E1,6.993000507E0,-4.392109871E0,9.222592413E-2
2.534600234E1,6.729497910E0,-3.975296736E0,8.060785532E-1
2.536610031E1,6.336639404E0,-3.112924337E0,1.361829519E0
2.538619823E1,5.824007034E0,-2.729647875E0,1.519931078E0
2.540629615E1,5.076617718E0,-2.609873772E0,1.989444971E0
2.542639406E1,5.574877262E0,-2.859003544E0,2.741625309E0
2.544649198E1,6.633678913E0,-3.999251366E0,2.094846010E0
2.546658995E1,7.520006180E0,-5.235318184E0,-9.282479286E-1
2.548668838E1,8.219485283E0,-6.131227493E0,-3.673466444E0
2.550678682E1,9.148931503E0,-5.987498760E0,-6.988808632E0
2.552688526E1,1.054310036E1,-5.537148476E0,-7.808062077E0
2.554698370E1,1.096470451E1,-4.463974476E0,-8.747090340E0
2.556708167E1,1.199955082E1,-4.679567337E0,-8.258412361E0
2.558717958E1,1.233970928E1,-5.096380711E0,-6.854661942E0
2.560727750E1,1.286192322E1,-5.934798241E0,-5.422165871E0
2.562737542E1,1.366680431E1,-7.242729187E0,-3.783658266E0
2.564747333E1,1.481663322E1,-8.833327293E0,-2.561964273E0
2.566757130E1,1.499868965E1,-9.829846382E0,-9.569936991E-1
2.568766974E1,1.370034027E1,-9.384286880E0,6.096493006E-1
2.570776818E1,1.129528046E1,-7.602051258E0,2.027772665E0
2.572786661E1,8.708163261E0,-5.110753536E0,2.554777861E0
2.574796505E1,7.246921539E0,-3.112924337E0,1.630123138E0
2.576806307E1,7.285249233E0,-2.360743999E0,-8.503948897E-2
2.578816099E1,8.229067802E0,-2.830257893E0,-1.814574957E0
2.580825891E1,8.890219688E0,-3.869895697E0,-3.069805861E0
2.582835682E1,8.482988358E0,-4.660403728E0,-2.887749434E0
2.584845474E1,7.572706699E0,-4.387319088E0,-7.318186760E-1
2.586855271E1,7.107983589E0,-4.286708832E0,1.083954096E0
2.588865114E1,7.213384628E0,-4.315454483E0,2.430212975E0
2.590874958E1,7.817045212E0,-4.598121166E0,3.091365099E0
2.592884802E1,8.339260101E0,-5.153872013E0,2.717670441E0
2.594894646E1,8.396751404E0,-5.225736618E0,2.085263968E0
2.596904448E1,7.984728813E0,-4.693940163E0,4.180110097E-1
2.598914240E1,7.831418037E0,-4.545420647E0,-1.158213854E0
2.600924031E1,7.735599041E0,-4.617284775E0,-1.886439323E0
2.602933823E1,7.893700600E0,-4.737058640E0,-1.589400053E0
2.604943614E1,8.070965767E0,-5.173036098E0,-1.043230891E0
2.606953411E1,8.051802635E0,-5.637758732E0,-7.893101573E-1
2.608963255E1,7.778717518E0,-6.643859863E0,-7.557734847E-1
2.610973099E1,7.251712322E0,-7.812853336E0,-7.414005995E-1
2.612982943E1,6.427667618E0,-8.747090340E0,-5.353894830E-1
2.614992786E1,5.550922871E0,-8.804581642E0,1.784631461E-1
2.617002594E1,5.685069561E0,-9.120784760E0,4.275929332E-1
2.619012385E1,6.686379433E0,-9.494479179E0,2.072088867E-1
2.621022177E1,7.203803062E0,-8.612942696E0,2.694913447E-1
2.623031969E1,7.543960571E0,-7.357712269E0,1.113897488E-1
2.625041760E1,7.678107738E0,-5.474866390E0,1.832541078E-1
2.627051557E1,8.751281738E0,-4.741849899E0,-4.192087427E-2
2.629061401E1,9.896320343E0,-5.379046917E0,-7.749373317E-1
2.631071245E1,1.039937115E1,-6.212673664E0,-2.001422405E0
2.633081088E1,9.915484428E0,-6.298910618E0,-3.232698202E0
2.635090932E1,8.674626350E0,-5.609013081E0,-3.869895697E0
2.637100740E1,7.438559532E0,-4.995770454E0,-4.277126789E0
2.639110531E1,6.834898949E0,-4.617284775E0,-2.772766352E0
2.641120323E1,6.125837326E0,-4.181307793E0,-9.474117756E-1
2.643130115E1,5.531758785E0,-3.783658266E0,1.401354969E-1
2.645139906E1,5.095781803E0,-3.644720554E0,6.479769349E-1
2.647149708E1,4.779578686E0,-3.572856188E0,4.228019714E-1
2.649159552E1,5.330538750E0,-3.903432369E0,1.161807105E-1
2.651169396E1,6.274357319E0,-4.550211430E0,4.132200480E-1
2.653179240E1,6.892390728E0,-5.014934540E0,6.527678967E-1
2.655189083E1,7.452932835E0,-5.182617664E0,5.761125684E-1
2.657198896E1,8.047011375E0,-5.240109444E0,-3.233896196E-2
2.659208688E1,9.297451019E0,-4.914324284E0,-8.659654856E-1
2.661218479E1,1.079222965E1,-5.220945358E0,-2.264925003E0
2.663228271E1,1.176958466E1,-6.064154148E0,-4.008833408E0
2.665238063E1,1.233491802E1,-6.749260902E0,-4.497510910E0
2.667247875E1,1.212411594E1,-7.041509151E0,-3.893850327E0
2.669257719E1,1.249781036E1,-7.717034340E0,-2.772766352E0
2.671267563E1,1.259842014E1,-8.023654938E0,-1.474417090E0
2.673277406E1,1.206662464E1,-7.501441002E0,-3.437511623E-1
2.675287250E1,1.036104393E1,-5.815024376E0,4.419657886E-1
2.677297057E1,8.751281738E0,-3.390799761E0,6.527678967E-1
2.679306849E1,8.966875076E0,-2.791930199E0,-6.216266751E-1
2.681316641E1,9.843620300E0,-3.960923672E0,-2.226597309E0
2.683326432E1,1.015024185E1,-4.986188412E0,-2.121196270E0
2.685336224E1,1.008316803E1,-4.617284775E0,-7.126548886E-1
2.687346047E1,1.062933731E1,-3.726166964E0,1.401354969E-1
2.689355891E1,1.170251179E1,-3.515364647E0,7.437961102E-1
2.691365734E1,1.231575394E1,-4.104652405E0,7.581689358E-1
2.693375578E1,1.195643234E1,-4.602911949E0,-1.904405504E-1
2.695385422E1,1.081139374E1,-4.569375515E0,-1.234869242E0
2.697395219E1,1.008316803E1,-4.919115067E0,-1.694801092E0
2.699405010E1,9.666355133E0,-5.335928440E0,-1.723546863E0
2.701414802E1,9.287869453E0,-5.762323856E0,-1.589400053E0
2.703424594E1,8.655463219E0,-6.107272625E0,-1.555863261E0
2.705434385E1,8.061384201E0,-6.457012177E0,-1.431298375E0
2.707444229E1,7.208593845E0,-6.643859863E0,-1.153422952E0
2.709454073E1,6.106673717E0,-6.586368084E0,-6.551634073E-1
2.711463917E1,5.201182842E0,-6.227046490E0,-3.197963834E-1
2.713473760E1,4.837069988E0,-6.241419315E0,-3.006325662E-1
2.715483599E1,4.928098202E0,-6.528876781E0,-3.150054216E-1
2.717493391E1,4.875397682E0,-7.276266098E0,-4.347793460E-1
2.719503182E1,4.611895084E0,-7.760152817E0,-2.479320318E-1
2.721512974E1,4.449002743E0,-8.018864632E0,2.994348109E-2
2.723522766E1,5.364075184E0,-8.344649315E0,-9.462140501E-2
2.725532562E1,6.959464073E0,-9.230976105E0,-1.086349487E0
2.727542406E1,7.337949753E0,-8.981846809E0,-9.330388904E-1
2.729552250E1,7.472096443E0,-8.445260048E0,-7.366096377E-1
2.731562094E1,7.548751831E0,-7.621214867E0,-1.163004875E0
2.733571938E1,7.539169788E0,-6.241419315E0,-1.392970800E0
2.735581781E1,8.382378578E0,-6.365984440E0,-1.781038284E0
2.737591573E1,9.872365952E0,-7.429576874E0,-1.742710590E0
2.739601364E1,1.072036552E1,-8.454841614E0,-1.172586799E0
2.741611156E1,1.035625267E1,-8.205711365E0,-1.089942753E-1
2.743620948E1,9.134558678E0,-7.051091194E0,-9.462140501E-2
2.745630750E1,7.850582123E0,-6.092899799E0,-9.090840816E-1
2.747640594E1,6.743870735E0,-5.177826881E0,-1.297151685E0
2.749650438E1,5.938990116E0,-4.545420647E0,-1.215705395E0
2.751660281E1,5.713815212E0,-4.138189316E0,-1.086349487E0
2.753670125E1,5.905453682E0,-3.889059305E0,-1.301942587E0
2.755679953E1,6.293520927E0,-3.874686480E0,-1.440880299E0
2.757689745E1,6.758244038E0,-4.190889835E0,-1.177377701E0
2.759699536E1,7.515214920E0,-4.593329906E0,-4.347793460E-1
2.761709328E1,7.888909817E0,-4.895160198E0,1.592993289E-1
2.763719120E1,8.104502678E0,-5.096380711E0,6.000673771E-1
2.765728938E1,8.880638123E0,-5.115544319E0,5.377849340E-1
2.767738781E1,9.632818222E0,-4.875996590E0,-1.521128863E-1
2.769748625E1,1.034187984E1,-4.636448860E0,-1.177377701E0
2.771758469E1,1.117550659E1,-4.636448860E0,-2.700901985E0
2.773768312E1,1.217202568E1,-5.115544319E0,-4.277126789E0
2.775778141E1,1.352307510E1,-5.656922817E0,-4.478347301E0
2.777787932E1,1.436149311E1,-5.719204903E0,-3.869895697E0
2.779797724E1,1.537238503E1,-6.389938831E0,-2.882958412E0
2.781807516E1,1.540592098E1,-7.051091194E0,-1.421716571E0
2.783817422E1,1.437586594E1,-6.629487038E0,9.222592413E-2
2.785827224E1,1.256009293E1,-5.321555614E0,1.328292847E0
2.787837016E1,1.049039936E1,-3.405172825E0,1.251637578E0
2.789846807E1,9.829247475E0,-3.275816917E0,-5.737171173E-1
2.791855224E1,1.040895271E1,-4.847250938E0,-2.672156334E0
2.793866516E1,1.082576656E1,-6.198300838E0,-3.505782843E0
2.795876307E1,1.066287422E1,-6.274956226E0,-2.034959078E0
2.797886099E1,1.051435375E1,-5.738368988E0,-1.856495887E-1
2.799895891E1,1.095033169E1,-5.953961849E0,9.066886306E-1
2.801905682E1,1.103656864E1,-6.524085999E0,1.093535900E0
2.803915505E1,1.062933731E1,-7.127746582E0,6.527678967E-1
2.805925349E1,9.805292130E0,-7.007972240E0,1.688812375E-1
2.807935193E1,9.469925880E0,-6.960062981E0,-2.239772379E-1
2.809945036E1,9.302242279E0,-6.907362461E0,-9.569936991E-1
2.811954880E1,9.120185852E0,-6.883407593E0,-1.675637245E0
2.813964703E1,8.861474037E0,-7.055881977E0,-2.145151138E0
2.815974495E1,8.468615532E0,-7.213983536E0,-2.073286772E0
2.817984286E1,7.721226215E0,-7.467904568E0,-1.852902651E0
2.819994078E1,6.648051739E0,-7.367294312E0,-1.622936726E0
2.822003870E1,5.292211056E0,-7.089418888E0,-1.584609032E0
2.824013703E1,4.329228401E0,-7.103791714E0,-1.766665459E0
2.826023547E1,3.735149860E0,-7.592469215E0,-1.905603170E0
2.828033391E1,3.141071320E0,-8.354231834E0,-1.891230345E0
2.830043234E1,2.546992540E0,-9.163903236E0,-1.469626069E0
2.832053078E1,1.914586186E0,-9.422615051E0,-2.479320318E-1
2.834062891E1,2.590111256E0,-9.571134567E0,7.869147062E-1
2.836072682E1,4.640640736E0,-9.968784332E0,7.150503397E-1
2.838082474E1,5.867125988E0,-9.633417130E0,4.563386738E-1
2.840092266E1,6.777407646E0,-9.159111977E0,2.599094212E-1
2.842102057E1,7.462514400E0,-7.985327721E0,2.455365509E-1
2.844111896E1,8.195530891E0,-6.686978340E0,-2.275704592E-2
2.846121740E1,9.886738777E0,-6.629487038E0,-8.995022178E-1
2.848131583E1,1.152045536E1,-7.319384575E0,-1.929557920E0
2.850141427E1,1.210495186E1,-7.927836418E0,-2.480518103E0
2.852151271E1,1.085930347E1,-7.597259998E0,-2.058913708E0
2.854161078E1,9.225586891E0,-6.624695778E0,-1.800202131E0
2.856170870E1,8.559643745E0,-5.647340775E0,-1.661264420E0
2.858180661E1,8.305723190E0,-4.899951458E0,-1.124677181E0
2.860190453E1,7.639780045E0,-4.296290874E0,-5.785080791E-1
2.862200245E1,6.858853817E0,-3.989669561E0,-3.150054216E-1
2.864210088E1,6.576187611E0,-4.157352924E0,-4.970617890E-1
2.866219932E1,6.604933262E0,-4.507092953E0,-6.168357134E-1
2.868229776E1,6.758244038E0,-5.000561237E0,-4.778979719E-1
2.870239620E1,7.179848194E0,-5.589848995E0,-9.941235930E-2
2.872249464E1,7.922446251E0,-5.915634155E0,2.742823064E-1
2.874259260E1,8.396751404E0,-6.159973145E0,5.138301253E-1
2.876269052E1,9.273496628E0,-5.968334675E0,4.419657886E-1
2.878278844E1,1.017898750E1,-5.690459251E0,-8.503948897E-2
2.880288635E1,1.124257946E1,-5.398211002E0,-1.335479259E0
2.882298438E1,1.310147095E1,-5.652131557E0,-3.031478167E0
2.884308281E1,1.459624958E1,-5.982707500E0,-4.559793472E0
2.886318125E1,1.476872444E1,-5.537148476E0,-5.144289970E0
2.888327969E1,1.462020397E1,-5.412583828E0,-5.259273052E0
2.890337813E1,1.537238503E1,-6.859452724E0,-4.440019608E0
2.892347651E1,1.450043011E1,-6.816334248E0,-2.298461676E0
2.894357443E1,1.253613853E1,-6.059362888E0,-8.659654856E-1
2.896367234E1,1.039937115E1,-4.459183216E0,-9.941235930E-2
2.898377026E1,9.101021767E0,-3.184788704E0,-4.683160484E-1
2.900386818E1,9.719055176E0,-4.219635487E0,-2.173896790E0
2.902396620E1,1.100303173E1,-6.001871586E0,-3.371636152E0
2.904406464E1,1.167376614E1,-6.998390675E0,-2.193060637E0
2.906416307E1,1.128569794E1,-6.318074703E0,-2.048134208E-1
2.908426151E1,1.101740456E1,-5.513194084E0,1.280383229E0
2.910435995E1,1.091679478E1,-5.671295643E0,1.587004542E0
2.912445828E1,1.092637634E1,-6.485758305E0,1.064790249E0
2.914455620E1,1.035146141E1,-6.974435806E0,4.036381245E-1
2.916465411E1,9.829247475E0,-7.108582497E0,-1.185761914E-1
2.918475203E1,9.503461838E0,-7.051091194E0,-4.012426436E-1
2.920484995E1,9.465134621E0,-7.041509151E0,-3.150054216E-1
2.922494802E1,9.302242279E0,-7.247520447E0,-4.635250866E-1
2.924504646E1,8.741700172E0,-7.305011749E0,-6.934910417E-1
2.926514490E1,7.778717518E0,-7.386457920E0,-7.893101573E-1
2.928524333E1,6.638469696E0,-7.453531265E0,-8.515926003E-1
2.930534177E1,5.991690636E0,-7.333757401E0,-9.186660051E-1
2.932544016E1,5.086199760E0,-7.084627628E0,-9.234569669E-1
2.934553807E1,4.051352978E0,-7.247520447E0,-1.670846343E0
2.936563599E1,3.050043106E0,-8.282366753E0,-2.581128120E0
2.938573391E1,1.948122978E0,-9.571134567E0,-1.919975996E0
2.940583182E1,1.775648475E0,-1.025145054E1,-5.593442321E-1
2.942592979E1,2.959014893E0,-1.031852341E1,4.084290862E-1
2.944602823E1,5.138900280E0,-1.101321220E1,-1.904405504E-1
2.946612667E1,5.986899853E0,-1.080241013E1,-6.647452712E-1
2.948622510E1,5.871916771E0,-1.043829823E1,-9.761574864E-1
2.950632354E1,5.637159824E0,-9.872964859E0,-1.301942587E0
2.952642188E1,5.723397255E0,-8.560242653E0,-1.191750526E0
2.954651979E1,7.050492287E0,-7.841598988E0,-1.287569761E0
2.956661771E1,8.885428429E0,-8.215293884E0,-1.531908512E0
2.958671562E1,1.054310036E1,-8.775835991E0,-1.067185640E0
2.960681354E1,1.119946098E1,-8.756671906E0,-6.024628282E-1
2.962691161E1,1.055268192E1,-7.860763073E0,-3.245873451E-1
2.964701005E1,9.168095589E0,-6.744469643E0,-9.138750434E-1
2.966710849E1,7.879327774E0,-6.145600319E0,-1.718755841E0
2.968720693E1,6.743870735E0,-5.791069508E0,-1.862484574E0
2.970730536E1,6.250402451E0,-5.537148476E0,-1.230078220E0
2.972740359E1,6.561814785E0,-5.426956654E0,-5.114346743E-1
2.974750151E1,7.304412842E0,-5.632967949E0,-1.796608977E-2
2.976759943E1,7.735599041E0,-5.810233116E0,5.138301253E-1
2.978769734E1,8.094921112E0,-5.810233116E0,9.402253032E-1
2.980779526E1,8.487779617E0,-5.628176689E0,8.587790728E-1
2.982789333E1,8.631507874E0,-5.642549515E0,3.653104901E-1
2.984799177E1,8.990829468E0,-5.585058212E0,-3.293783069E-1
2.986809021E1,9.656772614E0,-5.517984867E0,-1.038439989E0
2.988818865E1,1.031313419E1,-5.264064312E0,-1.963094711E0
2.990828708E1,1.106531429E1,-5.149081230E0,-3.007523298E0
2.992838521E1,1.234449959E1,-5.867724895E0,-4.272336006E0
2.994848313E1,1.300086117E1,-6.480967045E0,-4.655612469E0
2.996858104E1,1.279484940E1,-6.514503956E0,-4.085488796E0
2.998867896E1,1.298648834E1,-6.892989635E0,-3.060223818E0
3.000877688E1,1.370513153E1,-7.841598988E0,-1.900812268E0
3.002887495E1,1.270382118E1,-7.257102013E0,-4.970617890E-1
3.004897339E1,1.146296406E1,-6.044990063E0,1.784631461E-1
3.006907182E1,9.944230080E0,-4.157352924E0,3.126099408E-1
3.008917026E1,9.474716187E0,-3.232698202E0,-7.222367525E-1
3.010926870E1,1.042332554E1,-4.420855522E0,-2.264925003E0
3.012936677E1,1.179833031E1,-6.332447529E0,-2.547591448E0
3.014946469E1,1.249781036E1,-7.400830746E0,-1.043230891E0
3.016956260E1,1.194205952E1,-6.821125031E0,2.838642001E-1
3.018966052E1,1.124737072E1,-6.351611137E0,1.783433795E0
3.020975844E1,1.103177738E1,-6.806752205E0,2.205038071E0
3.022985656E1,1.095033169E1,-7.463113308E0,2.430212975E0
3.024995500E1,1.052393627E1,-7.961372852E0,2.090054989E0
3.027005344E1,9.709473610E0,-8.162592888E0,1.242055655E0
3.029015188E1,9.287869453E0,-8.220084190E0,5.234120488E-1
3.031025031E1,9.062694550E0,-8.512332916E0,-4.395703077E-1
3.033034828E1,8.645880699E0,-8.521914482E0,-1.311524510E0
3.035044464E1,8.128458023E0,-8.392559052E0,-1.819365978E0
3.037054333E1,7.424186707E0,-8.435677528E0,-1.843320727E0
3.039064286E1,6.557023525E0,-8.440468788E0,-1.632518649E0
3.041074078E1,5.661114693E0,-8.349440575E0,-1.397761703E0
3.043083870E1,4.736459732E0,-7.913463593E0,-1.215705395E0
3.045093661E1,4.262155056E0,-7.611633301E0,-1.373806953E0
3.047103453E1,4.247782230E0,-7.875135899E0,-1.680428147E0
3.049113245E1,4.180708885E0,-8.426095963E0,-1.675637245E0
3.051123089E1,3.591421127E0,-8.660852432E0,-1.282778740E0
3.053132932E1,2.901523352E0,-8.560242653E0,-6.887000799E-1
3.055142776E1,3.097952604E0,-8.991428375E0,-1.100722432E0
3.057152620E1,3.533929825E0,-9.202230453E0,-1.268405914E0
3.059162438E1,4.377138138E0,-9.072875023E0,-1.134259105E0
3.061172229E1,5.052663326E0,-8.588988304E0,-8.659654856E-1
3.063182021E1,6.025227547E0,-7.348130226E0,-4.539431930E-1
3.065191812E1,7.361904621E0,-6.088108540E0,-3.724969029E-1
3.067201604E1,8.693790436E0,-5.594640255E0,-6.168357134E-1
3.069211396E1,9.474716187E0,-6.461803436E0,-1.297151685E0
3.071221240E1,9.211214066E0,-7.640378952E0,-1.124677181E0
3.073231083E1,8.066175461E0,-8.047610283E0,-4.204064906E-1
3.075240927E1,7.448141575E0,-7.405622005E0,-2.718868256E-1
3.077250771E1,8.176366806E0,-6.183928013E0,-8.420107365E-1
3.079260588E1,8.962083817E0,-5.201781750E0,-1.392970800E0
3.081270380E1,9.057903290E0,-4.885578632E0,-1.709173918E0
3.083280172E1,8.607553482E0,-5.034098148E0,-1.987049460E0
3.085289964E1,8.224276543E0,-5.398211002E0,-1.991840363E0
3.087299755E1,8.037429810E0,-5.436538696E0,-1.953512788E0
3.089309547E1,8.128458023E0,-5.326346397E0,-2.293670654E0
3.091319380E1,8.588389397E0,-4.856832981E0,-2.068495750E0
3.093329224E1,9.172885895E0,-4.674776554E0,-2.078077555E0
3.095339068E1,1.012149525E1,-4.928697109E0,-2.657783508E0
3.097348911E1,1.061975479E1,-4.909533501E0,-3.218325377E0
3.099358740E1,1.071557426E1,-4.459183216E0,-3.903432369E0
3.101368531E1,1.123299789E1,-4.210053444E0,-4.473556042E0
3.103378323E1,1.227263546E1,-4.880787373E0,-4.789759159E0
3.105388115E1,1.312063503E1,-6.155181885E0,-4.569375515E0
3.107397906E1,1.310147095E1,-7.237938404E0,-3.419545650E0
3.109407698E1,1.306793404E1,-8.071564674E0,-2.456563234E0
3.111417516E1,1.298169708E1,-9.523224831E0,-1.694801092E0
3.113427359E1,1.188935852E1,-9.475315094E0,-3.341692686E-1
3.115437203E1,1.004963112E1,-7.970954895E0,1.280383229E0
3.117447047E1,7.625407219E0,-5.311973572E0,2.502077341E0
3.119456875E1,7.390650272E0,-4.272336006E0,1.687614679E0
3.121466667E1,9.144140244E0,-5.762323856E0,-4.443612695E-1
3.123476458E1,1.013586903E1,-7.247520447E0,-1.618145704E0
3.125486250E1,9.503461838E0,-7.592469215E0,-5.641351938E-1
3.127496042E1,8.391960144E0,-6.825916290E0,8.779428601E-1
3.129505833E1,7.951192379E0,-6.011453629E0,1.299547076E0
3.131515661E1,8.008683205E0,-5.680877209E0,1.055208325E0
3.133525505E1,7.543960571E0,-5.589848995E0,6.575588584E-1
3.135535349E1,6.901972771E0,-5.767114639E0,-3.581240475E-1
3.137545193E1,6.839690208E0,-5.944379807E0,-9.378298521E-1
3.139555010E1,7.337949753E0,-6.538458824E0,-1.761874437E0
3.141564802E1,7.793090343E0,-6.849870682E0,-2.624246836E0
3.143574594E1,8.070965767E0,-6.821125031E0,-3.606392860E0
3.145584385E1,7.668525696E0,-6.576786518E0,-4.320245743E0
3.147594177E1,7.165475368E0,-6.370775223E0,-4.171725750E0
3.149603969E1,7.127147675E0,-6.212673664E0,-2.734438658E0
3.151613792E1,6.930718422E0,-6.394730091E0,-1.086349487E0
3.153623635E1,6.485159397E0,-6.849870682E0,1.832541078E-1
3.155633479E1,5.967735767E0,-7.966164112E0,9.114795923E-1
3.157643323E1,5.431148529E0,-9.288468361E0,1.654077888E0
3.159653141E1,4.813115120E0,-9.810682297E0,2.794325829E0
3.161662932E1,4.525657654E0,-9.911292076E0,3.695025682E0
3.163672724E1,5.493431091E0,-9.940038681E0,3.244675636E0
3.165682516E1,6.226447582E0,-8.991428375E0,2.243365765E0
3.167692307E1,6.724707127E0,-7.764943600E0,1.630123138E0
3.169702099E1,7.055283070E0,-6.437848568E0,1.519931078E0
3.171711922E1,7.663734913E0,-5.264064312E0,1.093535900E0
3.173721766E1,9.101021767E0,-4.823296070E0,-1.089942753E-1
3.175731609E1,1.053351784E1,-5.359883308E0,-1.862484574E0
3.177741453E1,1.049039936E1,-5.982707500E0,-3.414754629E0
3.179751276E1,9.115394592E0,-6.236628532E0,-3.630347729E0
3.181761068E1,7.826627254E0,-5.522775650E0,-2.739229679E0
3.183770859E1,8.324887276E0,-5.014934540E0,-1.704383016E0
3.185780651E1,8.482988358E0,-4.286708832E0,-1.210914373E0
3.187790443E1,7.711644173E0,-3.850731850E0,-7.126548886E-1
3.189800234E1,6.576187611E0,-3.788449287E0,-6.024628282E-1
3.191810047E1,5.570086479E0,-3.927386999E0,-1.158213854E0
3.193819891E1,5.641950607E0,-4.166934967E0,-1.297151685E0
3.195829734E1,6.250402451E0,-4.406482697E0,-1.206123471E0
3.197839578E1,6.499532223E0,-4.689149380E0,-1.474417090E0
3.199849406E1,6.849272251E0,-5.110753536E0,-2.025377035E0
3.201859198E1,7.251712322E0,-5.604221821E0,-2.710484028E0
3.203868990E1,7.726016998E0,-5.853351593E0,-2.916495085E0
3.205878781E1,8.171576500E0,-5.733577728E0,-3.242280245E0
3.207888573E1,9.211214066E0,-5.977916718E0,-3.812404156E0
3.209898365E1,1.057184601E1,-6.873825550E0,-4.142980099E0
3.211908172E1,1.166418362E1,-7.669124603E0,-3.874686480E0
3.213918016E1,1.234929085E1,-8.109892845E0,-3.156043053E0
3.215927859E1,1.366201305E1,-8.876445770E0,-2.873376608E0
3.217937703E1,1.415069103E1,-9.226185799E0,-1.886439323E0
3.219947547E1,1.323561764E1,-8.277576447E0,-6.407905221E-1
3.221957339E1,1.145338154E1,-5.824605942E0,4.036381245E-1
3.223967130E1,1.004004955E1,-3.505782843E0,2.647003829E-1
3.225976922E1,1.012149525E1,-3.213534355E0,-9.665755630E-1
3.227986714E1,1.106531429E1,-4.377737045E0,-2.542800426E0
3.229996505E1,1.112280560E1,-5.225736618E0,-3.127297163E0
3.232006297E1,1.045686245E1,-5.292809963E0,-1.982258439E0
3.234016229E1,9.867574692E0,-5.158663273E0,-4.731070101E-1
3.236026021E1,9.354942322E0,-5.053261757E0,6.192312241E-1
3.238035812E1,8.861474037E0,-5.072425842E0,1.285174251E0
3.240045604E1,8.348841667E0,-5.345510483E0,1.107908845E0
3.242055396E1,7.994310856E0,-5.532357693E0,5.329939723E-1
3.244065188E1,7.860164165E0,-5.776696682E0,5.389826745E-2
3.246074990E1,7.726016998E0,-5.944379807E0,-3.293783069E-1
3.248084833E1,7.634988785E0,-6.044990063E0,-4.347793460E-1
3.250094677E1,7.366695404E0,-6.102481365E0,-2.958416045E-1
3.252104521E1,7.002582550E0,-6.227046490E0,-3.964517117E-1
3.254114354E1,6.614515305E0,-6.591159344E0,-3.629150093E-1
3.256124146E1,5.651532650E0,-7.357712269E0,-5.018527508E-1
3.258133938E1,3.945951939E0,-8.038028717E0,-2.862596810E-1
3.260143729E1,2.925478220E0,-8.488378525E0,2.790732384E-1
3.262153521E1,3.136280298E0,-9.609461784E0,6.958864927E-1
3.264163313E1,3.945951939E0,-1.089343834E1,1.328292847E0
3.266173104E1,4.405883789E0,-1.148272610E1,1.931953430E0
3.268182943E1,4.338810444E0,-1.154021835E1,9.306434393E-1
3.270192786E1,4.999962807E0,-1.198577690E1,-8.228468895E-1
3.272202630E1,5.670696735E0,-1.129587936E1,-1.172586799E0
3.274212474E1,6.830108166E0,-1.057723522E1,-1.000112295E0
3.276222271E1,6.925927162E0,-9.048920631E0,-3.150054216E-1
3.278232063E1,6.820526123E0,-7.410412788E0,1.197739271E-3
3.280241854E1,8.056592941E0,-7.213983536E0,-6.264176369E-1
3.282251646E1,9.278286934E0,-7.697870255E0,-1.618145704E0
3.284261438E1,9.843620300E0,-8.287158012E0,-2.437399387E0
3.286271229E1,9.321405411E0,-8.220084190E0,-2.772766352E0
3.288281047E1,7.687689304E0,-7.261893272E0,-3.323726416E0
3.290290891E1,6.068346024E0,-6.322865486E0,-2.298461676E0
3.292300734E1,5.105363846E0,-5.556312561E0,-9.474117756E-1
3.294310578E1,4.722086906E0,-5.216154575E0,-2.000224590E-1
3.296320391E1,5.009544373E0,-5.010143280E0,-1.664857566E-1
3.298330182E1,5.776097775E0,-5.048470974E0,-4.970617890E-1
3.300339974E1,6.264775276E0,-5.441329479E0,-7.653554082E-1
3.302349766E1,6.619306087E0,-5.872515678E0,-6.599543095E-1
3.304359557E1,6.830108166E0,-6.097690582E0,-3.724969029E-1
3.306369349E1,7.304412842E0,-6.188718796E0,-1.760676801E-1
3.308379146E1,7.749971867E0,-6.342029572E0,-4.251974523E-1
3.310388990E1,8.262604713E0,-6.217464447E0,-8.468016386E-1
3.312398833E1,8.621926308E0,-5.939589024E0,-1.440880299E0
3.314408677E1,9.541790009E0,-5.953961849E0,-2.193060637E0
3.316418510E1,1.076348400E1,-6.792379379E0,-2.954822779E0
3.318428302E1,1.148691845E1,-7.558932304E0,-2.882958412E0
3.320438094E1,1.156836510E1,-7.726615906E0,-2.169105768E0
3.322447885E1,1.217202568E1,-8.162592888E0,-1.651682496E0
3.324457677E1,1.256967449E1,-8.799790382E0,-9.857394099E-1
3.326467469E1,1.152045536E1,-8.023654938E0,-1.760676801E-1
3.328477260E1,9.618445396E0,-6.294119835E0,1.928360164E-1
3.330487078E1,8.233859062E0,-4.157352924E0,-3.150054216E-1
3.332496922E1,8.650671959E0,-3.980087519E0,-1.646891475E0
3.334506766E1,1.003046799E1,-5.747950554E0,-3.088969469E0
3.336516609E1,1.065329170E1,-7.218774796E0,-2.217015505E0
3.338526422E1,1.047123528E1,-7.233147621E0,-2.048134208E-1
3.340536214E1,1.027959728E1,-6.188718796E0,1.026462555E0
3.342546005E1,1.024127007E1,-5.671295643E0,1.467230558E0
3.344555797E1,1.028438854E1,-5.901261330E0,1.232473731E0
3.346565589E1,9.910693169E0,-6.452221394E0,2.599094212E-1
3.348575380E1,9.493880272E0,-6.869034767E0,-5.162256360E-1
3.350585172E1,9.556162834E0,-7.276266098E0,-8.420107365E-1
3.352595005E1,9.479507446E0,-7.487068176E0,-1.076767564E0
3.354604849E1,9.115394592E0,-7.602051258E0,-1.043230891E0
3.356614693E1,8.631507874E0,-7.836808205E0,-7.845191956E-1
3.358624536E1,8.037429810E0,-8.052401543E0,-6.934910417E-1
3.360634333E1,7.151102543E0,-8.354231834E0,-7.988920808E-1
3.362644125E1,6.077928066E0,-8.359022141E0,-7.030729651E-1
3.364653917E1,5.028708458E0,-8.061983109E0,-5.401803851E-1
3.366663708E1,4.587940216E0,-8.052401543E0,-6.791181564E-1
3.368673500E1,4.185499668E0,-8.818954468E0,-1.349852204E0
3.370683292E1,3.356664419E0,-9.551970482E0,-1.627727628E0
3.372693099E1,1.670247436E0,-1.051974392E1,-1.704383016E0
3.374702943E1,4.533443153E-1,-1.106112194E1,-6.934910417E-1
3.376712786E1,2.039151192E0,-1.185642147E1,2.994348109E-2
3.378722630E1,4.281319141E0,-1.207680511E1,-8.983044326E-2
3.380732453E1,4.928098202E0,-1.135337067E1,-4.012426436E-1
3.382742245E1,5.268256187E0,-1.066347313E1,-9.042931795E-1
3.384752036E1,5.589250088E0,-9.115993500E0,-6.934910417E-1
3.386761828E1,6.652842999E0,-8.028446198E0,-6.934910417E-1
3.388771620E1,8.176366806E0,-8.009282112E0,-1.163004875E0
3.390781411E1,9.307032585E0,-8.622525215E0,-1.560654283E0
3.392791203E1,9.426807404E0,-9.044129372E0,-1.440880299E0
3.394801031E1,8.344050407E0,-8.804581642E0,-1.354643106E0
3.396810875E1,7.237339497E0,-8.076355934E0,-8.995022178E-1
3.398820719E1,6.705543518E0,-7.367294312E0,-3.629150093E-1
3.400830563E1,6.504323006E0,-6.356402397E0,1.592993289E-1
3.402840359E1,6.710334301E0,-5.656922817E0,4.850844145E-1
3.404850151E1,7.151102543E0,-5.249691010E0,5.042482615E-1
3.406859943E1,7.649362087E0,-5.254482269E0,-1.185761914E-1
3.408869734E1,7.802672386E0,-5.604221821E0,-7.701463699E-1
3.410879526E1,7.812254429E0,-5.939589024E0,-8.755474091E-1
3.412889318E1,8.070965767E0,-6.049780846E0,-8.324288130E-1
3.414899115E1,8.497361183E0,-5.867724895E0,-7.557734847E-1
3.416908958E1,9.014784813E0,-5.882097721E0,-7.988920808E-1
3.418918802E1,9.589699745E0,-5.867724895E0,-1.124677181E0
3.420928646E1,9.699891090E0,-5.541939735E0,-2.058913708E0
3.422938469E1,9.896320343E0,-5.450911522E0,-2.873376608E0
3.424948260E1,1.103177738E1,-6.107272625E0,-3.218325377E0
3.426958052E1,1.229658985E1,-7.017554283E0,-3.285398722E0
3.428967844E1,1.254572010E1,-7.338548660E0,-2.782348394E0
3.430977635E1,1.223909855E1,-7.146910191E0,-1.953512788E0
3.432987427E1,1.257925701E1,-8.210502625E0,-1.929557920E0
3.434997219E1,1.233970928E1,-8.670434952E0,-1.110304356E0
3.437007026E1,1.102219582E1,-7.947000027E0,-6.168357134E-1
3.439016870E1,1.000651264E1,-6.442639351E0,2.515252493E-2
3.441026714E1,9.072276115E0,-4.027997017E0,1.449264586E-1
3.443036557E1,9.556162834E0,-3.472246170E0,-1.019276142E0
3.445046370E1,1.066287422E1,-4.741849899E0,-2.102032423E0
3.447056161E1,1.117550659E1,-6.183928013E0,-2.217015505E0
3.449065953E1,1.124257946E1,-6.950480938E0,-1.158213854E0
3.451075745E1,1.080181122E1,-6.778006554E0,7.785305381E-2
3.453085536E1,1.071078300E1,-6.955271721E0,1.246846557E0
3.455095328E1,1.035146141E1,-7.419994831E0,2.454167843E0
3.457105120E1,9.944230080E0,-7.860763073E0,2.904517651E0
3.459114932E1,9.632818222E0,-8.565033913E0,2.334393740E0
3.461124776E1,9.019575119E0,-8.814163208E0,9.545981884E-1
3.463134620E1,8.425497055E0,-8.507541656E0,-4.922708273E-1
3.465144464E1,8.147621155E0,-8.359022141E0,-1.761874437E0
3.467154271E1,7.783508778E0,-8.047610283E0,-2.346371174E0
3.469164063E1,7.246921539E0,-7.980536938E0,-2.284088850E0
3.471173854E1,6.509114265E0,-7.961372852E0,-1.733128667E0
3.473183646E1,5.766515732E0,-8.004491806E0,-1.210914373E0
3.475193438E1,5.095781803E0,-7.990118504E0,-7.126548886E-1
3.477203229E1,4.501703262E0,-7.779316425E0,-4.192087427E-2
3.479213021E1,4.204663754E0,-7.875135899E0,2.119998485E-1
3.481222859E1,4.084889889E0,-8.622525215E0,-1.664857566E-1
3.483232703E1,3.212935686E0,-9.101620674E0,-6.359995604E-1
3.485242229E1,2.326608419E0,-9.149530411E0,-8.803383708E-1
3.487252318E1,1.948122978E0,-8.962682724E0,-8.084740043E-1
3.489262177E1,3.471647263E0,-1.021312237E1,-1.828947902E0
3.491271969E1,4.506494045E0,-1.116173267E1,-2.264925003E0
3.493281760E1,4.880188465E0,-1.102758503E1,-1.694801092E0
3.495291552E1,5.316165924E0,-1.002627563E1,-1.436089396E0
3.497301344E1,5.900662422E0,-8.636898041E0,-1.115095258E0
3.499311135E1,7.088819981E0,-8.234457016E0,-1.244451046E0
3.501320927E1,8.626717567E0,-8.871654510E0,-1.244451046E0
3.503330740E1,9.905902863E0,-9.690908432E0,-1.186959624E0
3.505340583E1,9.848411560E0,-9.791518211E0,-1.263614893E0
3.507350427E1,8.396751404E0,-8.847700119E0,-2.001422405E0
3.509360271E1,7.160684109E0,-7.678706646E0,-2.652992487E0
3.511370078E1,6.729497910E0,-6.845079899E0,-2.485308886E0
3.513379870E1,6.810944557E0,-6.136018276E0,-1.704383016E0
3.515389661E1,6.969046116E0,-5.752741814E0,-7.222367525E-1
3.517399453E1,7.294830799E0,-5.575476170E0,-2.048134208E-1
3.519409245E1,7.845790863E0,-5.685668468E0,-2.754800394E-2
3.521419036E1,8.339260101E0,-5.953961849E0,5.988696590E-3
3.523428828E1,8.482988358E0,-5.930006981E0,2.886551619E-1
3.525438630E1,8.712954521E0,-5.997080326E0,4.036381245E-1
3.527448474E1,9.129767418E0,-5.987498760E0,3.174009025E-1
3.529458318E1,9.469925880E0,-5.795860291E0,-1.233671457E-1
3.531468161E1,9.853201866E0,-5.805442333E0,-4.012426436E-1
3.533477974E1,1.040895271E1,-5.383838177E0,-8.276378512E-1
3.535487766E1,1.158752823E1,-5.364674091E0,-1.848111749E0
3.537497557E1,1.297690582E1,-5.925216198E0,-3.160833836E0
3.539507349E1,1.368596745E1,-6.270164967E0,-3.496201038E0
3.541517141E1,1.320687199E1,-5.977916718E0,-3.050642014E0
3.543526932E1,1.348474789E1,-7.204401493E0,-2.609873772E0
3.545536724E1,1.287629604E1,-7.951790810E0,-1.479207993E0
3.547546516E1,1.113238811E1,-6.993599415E0,-3.964517117E-1
3.549556354E1,9.498671532E0,-5.086798668E0,-1.616947949E-1
3.551566198E1,8.962083817E0,-3.745330811E0,-6.455814838E-1
3.553576042E1,1.061975479E1,-4.842459679E0,-2.020586252E0
3.555585870E1,1.238282776E1,-6.562413692E0,-1.943930864E0
3.557595661E1,1.305835247E1,-7.525395870E0,-2.718868256E-1
3.559605453E1,1.243552780E1,-7.094209671E0,1.151027441E0
3.561615245E1,1.122820663E1,-6.739678860E0,1.706778407E0
3.563625036E1,1.065808296E1,-7.031927109E0,1.620541215E0
3.565634828E1,1.055747318E1,-7.832016945E0,1.534304023E0
3.567644620E1,1.032750702E1,-8.411723137E0,1.515140176E0
3.569654411E1,9.853201866E0,-8.818954468E0,1.026462555E0
3.571664219E1,9.560954094E0,-9.005801201E0,-1.185761914E-1
3.573674062E1,9.321405411E0,-9.039338112E0,-9.378298521E-1
3.575683906E1,8.899801254E0,-9.111202240E0,-1.594190955E0
3.577693750E1,8.243440628E0,-9.173484802E0,-1.943930864E0
3.579703557E1,7.428977966E0,-9.144739151E0,-2.212224483E0
3.581713349E1,6.609724045E0,-9.101620674E0,-2.025377035E0
3.583723141E1,5.713815212E0,-8.833327293E0,-1.493580818E0
3.585732932E1,4.808324337E0,-8.689598083E0,-1.416925550E0
3.587742724E1,3.394991875E0,-9.087247849E0,-2.006213188E0
3.589752516E1,1.847512841E0,-1.001190281E1,-2.408653736E0
3.591762307E1,7.455927134E-1,-1.085990238E1,-1.747501612E0
3.593772099E1,1.706778407E-1,-1.124796963E1,-3.150054216E-1
3.595781922E1,1.411535740E0,-1.135816193E1,4.755024910E-1
3.597791766E1,3.035670280E0,-1.118568707E1,-9.462140501E-2
3.599801609E1,4.080098629E0,-1.056765366E1,-9.282479286E-1
3.601811448E1,4.908934593E0,-9.657371521E0,-1.297151685E0
3.603821240E1,5.972527027E0,-8.426095963E0,-1.498371840E0
3.605831031E1,6.911554337E0,-7.525395870E0,-1.771456361E0
3.607840823E1,8.233859062E0,-7.405622005E0,-2.355953217E0
3.609850614E1,9.680727959E0,-7.827226162E0,-2.542800426E0
3.611860406E1,1.003525829E1,-8.143429756E0,-2.125987291E0
3.613870198E1,9.239959717E0,-7.702661037E0,-1.618145704E0
3.615879990E1,8.190739632E0,-7.027136326E0,-1.230078220E0
3.617889781E1,7.582288265E0,-6.500131130E0,-1.110304356E0
3.619899604E1,7.098402023E0,-5.752741814E0,-8.180559278E-1
3.621909448E1,6.901972771E0,-5.091589451E0,-7.749373317E-1
3.623919292E1,6.973836899E0,-4.928697109E0,-8.468016386E-1
3.625929130E1,7.170266151E0,-5.158663273E0,-1.191750526E0
3.627938922E1,7.016955376E0,-5.556312561E0,-1.421716571E0
3.629948714E1,6.993000507E0,-5.695250034E0,-1.057603836E0
3.631958505E1,7.457723618E0,-5.867724895E0,-4.874798954E-1
3.633968297E1,8.104502678E0,-6.030617237E0,-1.473219246E-1
3.635978088E1,9.263914108E0,-6.140809059E0,-3.485421240E-1
3.637987880E1,1.021252346E1,-6.064154148E0,-5.114346743E-1
3.639997672E1,1.070120144E1,-5.350301266E0,-1.062394738E0
3.642007474E1,1.185103130E1,-4.804131985E0,-2.001422405E0
3.644017318E1,1.338892841E1,-5.240109444E0,-2.911704063E0
3.646027161E1,1.444293880E1,-5.585058212E0,-3.151252031E0
3.648037005E1,1.493640804E1,-5.623385906E0,-3.050642014E0
3.650046813E1,1.525261116E1,-6.346820354E0,-2.873376608E0
3.652056604E1,1.502264500E1,-7.324175835E0,-1.953512788E0
3.654066396E1,1.350870228E1,-6.835497856E0,-1.081558585E0
3.656076188E1,1.165460205E1,-5.805442333E0,-4.922708273E-1
3.658085979E1,9.824456215E0,-4.061533928E0,-2.766777575E-1
3.660095771E1,8.803982735E0,-2.950031757E0,-1.052812815E0
3.662105563E1,9.465134621E0,-4.027997017E0,-2.264925003E0
3.664115354E1,1.066287422E1,-5.915634155E0,-2.202642441E0
3.666125151E1,1.127611637E1,-7.113373756E0,-7.509825230E-1
3.668134995E1,1.090721226E1,-6.950480938E0,6.910955310E-1
3.670144838E1,9.982558250E0,-6.389938831E0,1.941535354E0
3.672154682E1,9.728637695E0,-6.480967045E0,2.506868362E0
3.674164495E1,9.939439774E0,-6.979226589E0,2.257738590E0
3.676174286E1,9.656772614E0,-7.530186653E0,5.761125684E-1
3.678184078E1,8.938129425E0,-7.501441002E0,-1.071976662E0
3.680193870E1,8.578807831E0,-7.372085094E0,-1.996631384E0
3.682203661E1,8.463824272E0,-7.065464020E0,-2.686529160E0
3.684213453E1,8.257813454E0,-6.979226589E0,-3.122506380E0
3.686223245E1,7.606243134E0,-7.027136326E0,-3.227907419E0
3.688233036E1,6.734289169E0,-7.194819927E0,-2.662574291E0
3.690242849E1,6.168956280E0,-7.396039963E0,-1.709173918E0
3.692252693E1,5.651532650E0,-7.314593792E0,-1.019276142E0
3.694262536E1,4.875397682E0,-6.854661942E0,-5.832990408E-1
3.696272380E1,4.597522259E0,-6.988808632E0,-4.108245671E-1
3.698282177E1,4.837069988E0,-7.956582069E0,-8.515926003E-1
3.700291969E1,4.295691967E0,-9.168694496E0,-1.388179779E0
3.702301760E1,3.145862103E0,-9.872964859E0,-1.134259105E0
3.704311552E1,2.805704355E0,-1.008855820E1,-4.299883842E-1
3.706321344E1,3.902833462E0,-1.060119057E1,-7.461915612E-1
3.708331135E1,4.731668949E0,-1.045267105E1,-9.809484482E-1
3.710340927E1,5.292211056E0,-1.006460285E1,-1.239660144E0
3.712350719E1,5.900662422E0,-9.115993500E0,-1.201332450E0
3.714360547E1,6.432458878E0,-7.645169735E0,-1.028858066E0
3.716370391E1,7.673316479E0,-6.849870682E0,-1.191750526E0
3.718380234E1,9.144140244E0,-7.285848141E0,-1.541490436E0
3.720390062E1,1.001609421E1,-8.100310326E0,-1.349852204E0
3.722399854E1,9.795710564E0,-8.464423180E0,-8.563835621E-1
3.724409646E1,8.688999176E0,-7.587678432E0,-8.755474091E-1
3.726419438E1,7.548751831E0,-6.576786518E0,-1.158213854E0
3.728429229E1,6.743870735E0,-5.757532597E0,-1.373806953E0
3.730439021E1,6.398921967E0,-5.201781750E0,-9.378298521E-1
3.732448812E1,6.355803490E0,-5.067635059E0,-4.635250866E-1
3.734458604E1,6.614515305E0,-5.211363792E0,-5.880900025E-1
3.736468396E1,6.743870735E0,-5.311973572E0,-9.761574864E-1
3.738478224E1,6.858853817E0,-5.609013081E0,-7.845191956E-1
3.740488068E1,7.218175888E0,-5.747950554E0,-3.054235280E-1
3.742497911E1,7.884118557E0,-5.934798241E0,-8.983044326E-2
3.744507740E1,8.363214493E0,-6.155181885E0,-1.569038481E-1
3.746517531E1,8.861474037E0,-6.322865486E0,-5.018527508E-1
3.748527323E1,9.402852058E0,-6.337238312E0,-1.153422952E0
3.750537115E1,9.814874649E0,-5.982707500E0,-2.125987291E0
3.752546906E1,1.047123528E1,-5.441329479E0,-3.041059971E0
3.754556698E1,1.180791283E1,-5.805442333E0,-3.994460583E0
3.756566490E1,1.290983295E1,-6.351611137E0,-4.142980099E0
3.758576281E1,1.329790020E1,-6.557622433E0,-3.371636152E0
3.760586073E1,1.365243149E1,-6.758842945E0,-2.561964273E0
3.762595875E1,1.381532383E1,-7.472695351E0,-1.196541548E0
3.764605719E1,1.276131344E1,-6.715723991E0,4.910730943E-2
3.766615562E1,1.130007076E1,-5.599431038E0,5.856944919E-1
3.768625406E1,9.508253098E0,-3.984878540E0,4.084290862E-1
3.770635208E1,8.799191475E0,-3.237489223E0,-5.832990408E-1
3.772645000E1,9.695100784E0,-4.507092953E0,-2.284088850E0
3.774654792E1,1.109885120E1,-6.212673664E0,-2.494890928E0
3.776664583E1,1.218639851E1,-7.391249180E0,-7.988920808E-1
3.778674375E1,1.210495186E1,-7.247520447E0,8.635700345E-1
3.780684167E1,1.145817280E1,-6.648650646E0,2.114009857E0
3.782693958E1,1.113717842E1,-6.945690155E0,2.291275263E0
3.784703750E1,1.117071533E1,-7.611633301E0,1.907998681E0
3.786713542E1,1.068682861E1,-8.229666710E0,1.045626402E0
3.788723354E1,1.024606037E1,-8.612942696E0,-1.185761914E-1
3.790733198E1,9.881947517E0,-8.886027336E0,-9.761574864E-1
3.792743042E1,9.484298706E0,-8.881237030E0,-1.479207993E0
3.794752880E1,8.918965340E0,-8.766253471E0,-1.867275476E0
3.796762672E1,8.262604713E0,-8.771044731E0,-2.269716024E0
3.798772464E1,7.347531796E0,-8.612942696E0,-2.442190409E0
3.800782255E1,6.279148102E0,-8.330276489E0,-2.288879633E0
3.802792047E1,5.306583881E0,-7.970954895E0,-1.896021247E0
3.804801838E1,4.602313042E0,-7.702661037E0,-1.527117610E0
3.806811630E1,4.171126842E0,-7.764943600E0,-1.651682496E0
3.808821422E1,3.763895750E0,-8.507541656E0,-2.221806288E0
3.810831214E1,2.638020754E0,-9.365123749E0,-2.576337099E0
3.812841005E1,1.224688411E0,-9.681326866E0,-1.795411110E0
3.814850844E1,1.004304409E0,-9.805891037E0,-8.803383708E-1
3.816860688E1,2.154134035E0,-1.017479515E1,-8.228468895E-1
3.818870531E1,3.462065458E0,-9.901710510E0,-8.276378512E-1
3.820880344E1,4.391510963E0,-9.456151962E0,-8.228468895E-1
3.822890135E1,5.459894657E0,-8.794999123E0,-8.947112560E-1
3.824899927E1,6.403713226E0,-7.903881550E0,-7.797282934E-1
3.826909719E1,7.984728813E0,-7.309803009E0,-1.177377701E0
3.828919510E1,9.872365952E0,-7.635587692E0,-1.967885613E0
3.830929302E1,1.100782299E1,-8.392559052E0,-2.490099907E0
3.832939094E1,1.085930347E1,-8.804581642E0,-2.111614227E0
3.834948885E1,9.479507446E0,-8.263203621E0,-1.565445185E0
3.836958677E1,8.411124229E0,-7.314593792E0,-1.517535686E0
3.838968469E1,8.085338593E0,-6.466594219E0,-1.210914373E0
3.840978313E1,7.783508778E0,-5.709623337E0,-4.731070101E-1
3.842988156E1,7.251712322E0,-5.383838177E0,-2.766777575E-1
3.844998000E1,6.954673290E0,-5.422165871E0,-5.880900025E-1
3.847007807E1,6.657633781E0,-5.513194084E0,-8.372197747E-1
3.849017599E1,6.561814785E0,-5.934798241E0,-7.797282934E-1
3.851027391E1,6.796571732E0,-6.495339870E0,-5.449713469E-1
3.853037182E1,7.246921539E0,-6.696560383E0,-1.904405504E-1
3.855046974E1,7.634988785E0,-6.825916290E0,5.868922547E-2
3.857056766E1,8.205112457E0,-6.797170162E0,2.647003829E-1
3.859066557E1,9.163304329E0,-6.744469643E0,-1.329490542E-1
3.861076349E1,1.015982342E1,-6.227046490E0,-1.009694219E0
3.863086141E1,1.086409378E1,-5.441329479E0,-2.116405249E0
3.865095932E1,1.197080517E1,-5.173036098E0,-2.983568430E0
3.867105766E1,1.318770790E1,-5.441329479E0,-3.381217957E0
3.869115609E1,1.383927822E1,-5.661713600E0,-3.510573864E0
3.871125453E1,1.403091717E1,-5.829397202E0,-3.084178686E0
3.873135266E1,1.402612591E1,-6.725306034E0,-2.125987291E0
3.875145057E1,1.299606991E1,-6.322865486E0,-7.893101573E-1
3.877154849E1,1.190373135E1,-5.977916718E0,-1.377400160E-1
3.879164641E1,1.067724705E1,-5.791069508E0,-5.629374459E-2
3.881174432E1,9.172885895E0,-4.430437565E0,-1.712767184E-1
3.883184224E1,8.550062180E0,-3.433918476E0,-8.468016386E-1
3.885194016E1,9.259123802E0,-4.483138084E0,-1.661264420E0
3.887203800E1,1.038020706E1,-6.318074703E0,-9.761574864E-1
3.889213597E1,1.121862507E1,-7.602051258E0,2.982370853E-1
3.891223409E1,1.107010555E1,-7.324175835E0,1.649286985E0
3.893233222E1,1.059580040E1,-6.543249607E0,2.942845345E0
3.895243066E1,1.109885120E1,-6.902571201E0,3.153647423E0
3.897252909E1,1.160190105E1,-7.779316425E0,2.827862501E0
3.899262743E1,1.131444359E1,-8.239248276E0,2.013399601E0
3.901272534E1,1.062933731E1,-8.335067749E0,8.444061875E-1
3.903282326E1,1.043290806E1,-8.579406738E0,8.264400810E-2
3.905292118E1,1.037062550E1,-8.737507820E0,-5.785080791E-1
3.907301909E1,9.929857254E0,-9.139948845E0,-1.349852204E0
3.909311675E1,9.158513069E0,-9.456151962E0,-2.375117064E0
3.911321466E1,7.845790863E0,-9.365123749E0,-2.643410683E0
3.913331258E1,6.791780472E0,-9.139948845E0,-2.288879633E0
3.915341050E1,5.732978821E0,-8.493168831E0,-1.656473398E0
3.917350842E1,4.985589504E0,-7.927836418E0,-9.569936991E-1
3.919360633E1,4.271737099E0,-7.511023045E0,-7.988920808E-1
3.921370456E1,3.859714746E0,-7.415204048E0,-1.383388877E0
3.923380300E1,3.462065458E0,-7.587678432E0,-1.972676635E0
3.925390144E1,2.949432850E0,-7.812853336E0,-2.073286772E0
3.927399967E1,2.364936113E0,-7.947000027E0,-1.694801092E0
3.929409758E1,2.106224537E0,-8.181756973E0,-1.325897336E0
3.931419550E1,2.781749487E0,-9.034546852E0,-1.670846343E0
3.933429342E1,3.562675476E0,-9.307631493E0,-2.260133982E0
3.935439055E1,4.616685867E0,-8.876445770E0,-2.322416544E0
3.937448920E1,6.231238365E0,-8.612942696E0,-2.811094046E0
3.939458789E1,7.419395924E0,-7.966164112E0,-2.859003544E0
3.941468581E1,8.185949326E0,-7.170865059E0,-2.609873772E0
3.943478373E1,9.230378151E0,-7.099000454E0,-2.351162195E0
3.945488164E1,1.010233212E1,-7.654751778E0,-2.039749861E0
3.947497956E1,1.053830910E1,-8.603361130E0,-1.436089396E0
3.949507748E1,1.035625267E1,-8.842908859E0,-6.120447516E-1
3.951517539E1,9.766964912E0,-7.855971813E0,-7.066661865E-2
3.953527331E1,9.493880272E0,-6.672605515E0,4.910730943E-2
3.955537123E1,9.129767418E0,-5.815024376E0,-3.712991625E-2
3.957546914E1,8.363214493E0,-5.182617664E0,-2.383501083E-1
3.959556711E1,7.740389824E0,-5.153872013E0,-5.641351938E-1
3.961566555E1,7.361904621E0,-5.307182789E0,-7.557734847E-1
3.963576399E1,7.275667191E0,-5.652131557E0,-6.120447516E-1
3.965586243E1,7.333158493E0,-6.021035194E0,-2.000224590E-1
3.967596034E1,7.371486187E0,-6.203091621E0,2.407455891E-1
3.969605826E1,7.634988785E0,-6.227046490E0,6.767227054E-1
3.971615618E1,7.989519596E0,-6.356402397E0,1.103117824E0
3.973625409E1,8.530898094E0,-6.351611137E0,8.491971493E-1
3.975635201E1,9.297451019E0,-5.939589024E0,3.952539712E-2
3.977644993E1,9.905902863E0,-5.211363792E0,-9.330388904E-1
3.979654784E1,1.051914501E1,-4.559793472E0,-2.217015505E0
3.981664576E1,1.123299789E1,-4.607703209E0,-3.414754629E0
3.983674368E1,1.193726826E1,-5.206572533E0,-4.162144184E0
3.985684159E1,1.235408211E1,-5.776696682E0,-4.195680618E0
3.987693966E1,1.233012676E1,-5.930006981E0,-3.568065405E0
3.989703810E1,1.274214935E1,-6.845079899E0,-2.652992487E0
3.991713654E1,1.268465805E1,-7.328966618E0,-1.690010071E0
3.993723487E1,1.211453342E1,-6.993599415E0,-1.033648968E0
3.995733279E1,1.123778915E1,-6.174345970E0,-3.772878647E-1
3.997743071E1,1.002567673E1,-4.310663700E0,2.263727188E-1
3.999752862E1,9.033948898E0,-3.007523298E0,-3.820788264E-1
4.001762654E1,8.885428429E0,-3.405172825E0,-1.373806953E0
4.003772446E1,9.182468414E0,-4.856832981E0,-1.632518649E0
4.005782237E1,9.699891090E0,-6.284537792E0,-9.378298521E-1
4.007792029E1,1.014545059E1,-6.974435806E0,2.036156692E-2
4.009801821E1,1.043769932E1,-6.720515251E0,8.683609962E-1
4.011811612E1,1.092637634E1,-6.806752205E0,1.433693886E0
4.013821404E1,1.145338154E1,-7.247520447E0,1.620541215E0
4.015831211E1,1.179833031E1,-7.645169735E0,1.620541215E0
4.017841055E1,1.168813896E1,-7.875135899E0,1.083954096E0
4.019850899E1,1.139109898E1,-8.066774368E0,6.348018348E-2
4.021860732E1,1.125695229E1,-8.354231834E0,-7.605644464E-1
4.023870524E1,1.096470451E1,-8.775835991E0,-1.335479259E0
4.025880316E1,1.032750702E1,-9.230976105E0,-1.646891475E0
4.027890107E1,9.709473610E0,-9.494479179E0,-1.215705395E0
4.029899899E1,8.751281738E0,-9.614253044E0,-3.341692686E-1
4.031909690E1,7.520006180E0,-9.331586838E0,4.467567503E-1
4.033919482E1,6.149792194E0,-8.909982681E0,6.383950114E-1
4.035929274E1,4.717296124E0,-8.124265671E0,6.192312241E-1
4.037939066E1,3.893251419E0,-7.563723564E0,1.784631461E-1
4.039948857E1,3.567466497E0,-7.429576874E0,-4.012426436E-1
4.041958649E1,3.246472359E0,-7.443949699E0,-1.201332450E0
4.043968451E1,2.911105394E0,-7.745779991E0,-1.809784055E0
4.045978295E1,2.134970188E0,-7.832016945E0,-2.054122925E0
4.047988138E1,2.221207380E0,-8.392559052E0,-2.288879633E0
4.049997977E1,2.906314373E0,-9.092039108E0,-2.485308886E0
4.052007769E1,3.696822166E0,-8.847700119E0,-2.145151138E0
4.054017560E1,4.904143333E0,-8.387767792E0,-2.188269615E0
4.056027352E1,5.675487518E0,-7.654751778E0,-2.087659597E0
4.058037144E1,6.513905048E0,-6.701351166E0,-1.814574957E0
4.060046935E1,7.936819077E0,-6.682187557E0,-1.867275476E0
4.062056727E1,9.024366379E0,-7.381667137E0,-2.044540882E0
4.064066519E1,9.752592087E0,-8.210502625E0,-2.111614227E0
4.066076310E1,1.020294189E1,-8.790208817E0,-2.039749861E0
4.068086102E1,1.023168755E1,-8.330276489E0,-1.809784055E0
4.070095894E1,1.047602654E1,-7.228356361E0,-1.426507473E0
4.072105701E1,1.066287422E1,-6.270164967E0,-7.653554082E-1
4.074115545E1,1.028917885E1,-5.661713600E0,-3.150054216E-1
4.076125388E1,9.378897667E0,-5.383838177E0,-1.760676801E-1
4.078135227E1,8.784818649E0,-5.450911522E0,-6.407905221E-1
4.080145019E1,8.574016571E0,-5.532357693E0,-9.953213334E-1
4.082154810E1,8.444661140E0,-5.513194084E0,-8.084740043E-1
4.084164602E1,8.530898094E0,-5.489239216E0,-8.180559278E-1
4.086174394E1,8.478197098E0,-5.412583828E0,-6.551634073E-1
4.088184185E1,8.492569923E0,-5.168244839E0,-3.341692686E-1
4.090193977E1,8.851892471E0,-5.034098148E0,-2.623049021E-1
4.092203769E1,9.369315147E0,-5.014934540E0,-6.887000799E-1
4.094213560E1,9.853201866E0,-5.000561237E0,-1.292360663E0
4.096223352E1,1.023168755E1,-4.708312988E0,-1.915185094E0
4.098233144E1,1.066766453E1,-4.344200134E0,-2.705693007E0
4.100242956E1,1.104615021E1,-4.492720127E0,-3.419545650E0
4.102252800E1,1.149650002E1,-5.369465351E0,-3.649511576E0
4.104262644E1,1.188935852E1,-6.222255707E0,-3.687839270E0
4.106272477E1,1.184624004E1,-6.825916290E0,-3.098551512E0
4.108282269E1,1.258883858E1,-8.042819023E0,-2.485308886E0
4.110292060E1,1.273256779E1,-8.061983109E0,-1.436089396E0
4.112301852E1,1.245948315E1,-6.964853764E0,-7.030729651E-1
4.114311644E1,1.159711075E1,-5.632967949E0,-6.587565690E-2
4.116321435E1,1.030355167E1,-4.229217529E0,-1.473219246E-1
4.118331227E1,9.326196671E0,-4.023206234E0,-1.019276142E0
4.120341019E1,9.330987930E0,-4.847250938E0,-1.896021247E0
4.122350810E1,9.910693169E0,-6.365984440E0,-2.193060637E0
4.124360602E1,1.071078300E1,-7.621214867E0,-1.704383016E0
4.126370404E1,1.104615021E1,-7.477486134E0,-5.497623086E-1
4.128380248E1,1.117071533E1,-7.204401493E0,5.988696590E-3
4.130390092E1,1.122820663E1,-7.429576874E0,2.503274977E-1
4.132399935E1,1.084493065E1,-8.014073372E0,7.246322632E-1
4.134409743E1,1.026522446E1,-8.555451393E0,1.222891808E0
4.136419534E1,9.699891090E0,-8.617733955E0,1.112699747E0
4.138429326E1,9.057903290E0,-8.828536034E0,1.077965368E-2
4.140439118E1,8.320096016E0,-8.632106781E0,-7.318186760E-1
4.142448909E1,7.826627254E0,-8.148220062E0,-5.976719260E-1
4.144458701E1,7.702062607E0,-7.951790810E0,-1.856495887E-1
