"Time (s)","Gyroscope x (rad/s)","Gyroscope y (rad/s)","Gyroscope z (rad/s)"
3.486250000E-3,-4.619013965E-1,-1.776919663E-1,4.068886042E-1
2.548000000E-2,-6.989520192E-1,-5.642300248E-1,2.459867001E-1
4.548156300E-2,-1.080934763E0,-8.731881976E-1,-3.808308393E-2
6.748000000E-2,-1.301806211E0,-9.931446910E-1,-1.721941829E-1
8.748000000E-2,-1.223685265E0,-7.821344137E-1,-2.310816012E-2
1.074800000E-1,-9.498256445E-1,-2.206445187E-1,1.540951133E-1
1.274862500E-1,-4.557752907E-1,2.518684566E-1,1.210385859E-1
1.494815630E-1,-2.018124163E-1,1.469916254E-1,-1.902408898E-3
1.694862500E-1,-2.315702885E-1,-2.033483088E-1,-4.159119725E-2
1.914800000E-1,-3.648610711E-1,-7.728143334E-1,4.010766745E-2
2.114800000E-1,-4.088957310E-1,-9.503317475E-1,1.474803239E-1
2.314800000E-1,-3.258005977E-1,-7.685557604E-1,1.758419275E-1
2.514878130E-1,-1.652652323E-1,-4.870515764E-1,8.370599151E-2
2.734800000E-1,-8.236208558E-2,-1.146506816E-1,-8.009316027E-2
2.934862500E-1,-1.128878966E-1,-5.321509019E-2,-1.500110477E-1
3.154800000E-1,-1.588598639E-1,-5.227784514E-1,-1.741664112E-1
3.354862500E-1,-4.537856148E-4,-9.876294732E-1,-2.460914254E-1
3.574784380E-1,1.892809570E-1,-1.012971640E0,-4.066442549E-1
3.774815630E-1,2.337170392E-1,-1.128442645E0,-6.951297522E-1
3.994800000E-1,-2.083923109E-2,-6.245311499E-1,-1.083587646E0
4.194800000E-1,-6.648657322E-1,4.721290171E-1,-1.116138101E0
4.394800000E-1,-1.761194229E0,7.314500213E-1,-7.389374971E-1
4.594846880E-1,-2.669568300E0,5.647361875E-1,-4.850968122E-1
4.814800000E-1,-3.430479527E0,2.920284867E-1,-1.208989546E-1
5.014846880E-1,-3.978844643E0,-5.504593849E-1,2.109928578E-1
5.234800000E-1,-3.769841433E0,-4.759338200E-1,7.867944241E-1
5.434893750E-1,-2.957058907E0,8.012282848E-1,9.858143330E-1
5.654784380E-1,-2.143630743E0,6.894050241E-1,9.799849391E-1
5.854784380E-1,-1.295261145E0,2.685014606E-1,9.526879787E-1
6.054800000E-1,-5.984908342E-1,-6.278298497E-1,8.261516094E-1
6.254893750E-1,-1.062905509E-2,-1.499063253E0,6.857224107E-1
6.474800000E-1,8.261516094E-1,-7.206464410E-1,5.584878922E-1
6.674846880E-1,1.856524229E0,-5.553463101E-1,8.508480340E-2
6.894815630E-1,2.936621189E0,-8.340055943E-1,-4.596149921E-1
7.094878130E-1,3.747221947E0,-2.184506416E0,-7.918209434E-1
7.314800000E-1,4.355294704E0,-3.457724094E0,-9.114109278E-1
7.514800000E-1,4.639521599E0,-4.164809227E0,-9.705426693E-1
7.734784380E-1,4.887550354E0,-4.218094349E0,-8.430463672E-1
7.934800000E-1,4.594422340E0,-3.825726748E0,-4.946961105E-1
8.134800000E-1,2.063014030E0,-1.799905658E0,2.121971250E-1
8.334862500E-1,2.627593279E-1,6.150365472E-1,4.175001979E-1
8.554784380E-1,-8.813214302E-1,1.150817752E0,4.863010943E-1
8.754800000E-1,-1.128844023E0,5.276305079E-1,2.780658603E-1
8.974800000E-1,-8.299040794E-1,1.380555481E-1,2.846457362E-1
9.174800000E-1,-3.622954488E-1,-9.864600748E-2,3.311064243E-1
9.374800000E-1,2.289872058E-2,-3.123441339E-1,2.313608378E-1
9.574878130E-1,2.732487321E-1,-7.165972590E-1,1.973269284E-1
9.794815630E-1,3.747396469E-1,-6.065542698E-1,4.405909181E-1
9.994862500E-1,2.349911332E-1,-2.349562198E-1,6.154903769E-1
1.021480000E0,-5.860815570E-2,6.661921740E-2,5.750859976E-1
1.041487813E0,-1.745678335E-1,2.498089820E-1,6.136752367E-1
1.063480000E0,-1.158025935E-1,2.232974172E-1,7.785913944E-1
1.083480000E0,-2.935818434E-1,3.725405335E-1,6.292610168E-1
1.103480000E0,-5.934293866E-1,7.581535578E-1,6.023131013E-1
1.123480000E0,-7.975456715E-1,9.848194718E-1,7.703185081E-1
1.145480000E0,-8.553509712E-1,9.644165635E-1,9.547998309E-1
1.165486250E0,-8.166919351E-1,8.611629009E-1,9.064367414E-1
1.187480000E0,-6.833313107E-1,1.121723056E0,1.178620815E0
1.207481563E0,-6.070604324E-1,8.247029781E-1,1.683212996E0
1.229481563E0,-6.934193373E-1,9.172752500E-1,1.423298597E0
1.249481563E0,-8.162381053E-1,1.106294394E0,8.670970201E-1
1.271480000E0,-1.196702480E0,1.294912100E0,5.142961740E-1
1.291487813E0,-1.564024448E0,6.695955396E-1,3.718773127E-1
1.313480000E0,-1.681415319E0,8.641125262E-2,3.701145053E-1
1.333483125E0,-1.435271502E0,-3.541273177E-1,4.356865287E-1
1.355478438E0,-8.112290502E-1,-5.035798550E-1,3.104242682E-1
1.375478438E0,-3.548254445E-2,-2.761634588E-1,3.773401976E-1
1.395478438E0,4.386361539E-1,-4.160865024E-2,3.730466664E-1
1.415512813E0,4.222300649E-1,1.610240787E-1,2.818357646E-1
1.437480000E0,2.872462869E-1,1.862789840E-1,8.792968839E-2
1.457480000E0,2.866005301E-1,1.827359647E-1,7.618362457E-2
1.479480000E0,4.742408693E-1,-6.339035928E-2,3.974114731E-2
1.499480000E0,7.384313345E-1,-2.418851852E-1,-1.459095255E-2
1.521480000E0,9.485340714E-1,1.289972812E-1,-1.086991057E-1
1.541480000E0,7.589040399E-1,4.786739945E-1,1.197644919E-1
1.561480000E0,4.752357006E-1,4.841194153E-1,1.265189201E-1
1.581480000E0,3.134785891E-1,1.487020496E-2,8.635888994E-2
1.603480000E0,4.127529263E-1,-5.475447178E-1,-5.888740718E-2
1.623486250E0,8.306894302E-1,-6.526309848E-1,4.415682983E-3
1.645478438E0,1.188010693E0,-3.193428814E-1,3.134611249E-1
1.665483125E0,1.178987384E0,1.836609989E-1,5.168094635E-1
1.687478438E0,8.829620481E-1,3.958232105E-1,6.164503098E-1
1.707480000E0,5.755223036E-1,2.177298218E-1,7.232644558E-1
1.727480000E0,3.477917612E-1,-1.315978263E-2,7.210129499E-1
1.747487813E0,1.479690075E-1,-1.743060350E-1,5.009095073E-1
1.769480000E0,1.410226058E-2,-2.873161137E-1,2.132094204E-1
1.789487813E0,-7.251843065E-2,-2.446951568E-1,1.256986111E-1
1.811478438E0,-1.791580468E-1,6.951646507E-2,1.148252115E-1
1.831480000E0,-2.206619829E-1,4.236786664E-1,1.931555867E-1
1.851480000E0,-1.370258033E-1,5.606521368E-1,2.839476168E-1
1.871480000E0,-3.682644665E-2,4.390724897E-1,3.037222028E-1
1.891480000E0,-2.450442314E-2,2.532123625E-1,1.971698403E-1
1.911480000E0,-4.855506122E-2,5.766567960E-2,1.713738739E-1
1.931480000E0,-7.279768586E-2,-1.282118857E-1,2.010095716E-1
1.953480000E0,-7.326892018E-2,-2.723411620E-1,2.748020887E-1
1.975478438E0,-8.011061698E-3,-3.300592005E-1,2.964965403E-1
1.995480000E0,4.359832406E-2,-4.533667266E-1,2.398431450E-1
2.015492500E0,2.136282995E-2,-8.812865615E-1,2.333505154E-1
2.037483125E0,2.162462845E-2,-1.310532808E0,6.782349199E-2
2.059480000E0,3.359758854E-2,-1.335578322E0,-2.244668007E-1
2.079487813E0,6.422811747E-2,-1.013547659E0,-2.800206244E-1
2.101478438E0,2.418328226E-1,-2.931105793E-1,-1.188569237E-2
2.121487813E0,2.511005104E-1,-9.691813588E-2,2.628640234E-1
2.143480000E0,1.441641990E-2,-6.215117574E-1,3.645469248E-1
2.163484688E0,-3.252246380E-1,-1.257963538E0,1.619141996E-1
2.185480000E0,-5.396732688E-1,-1.313290477E0,-3.701319695E-1
2.205480000E0,-7.637386322E-1,-1.058018565E0,-6.987949014E-1
2.225480000E0,-1.079259276E0,-6.119124293E-1,-8.436397910E-1
2.245480000E0,-1.389805675E0,-3.445628881E-1,-8.490677476E-1
2.265480000E0,-1.453440428E0,-6.433283538E-2,-8.009141088E-1
2.285480000E0,-1.226774454E0,3.579844832E-1,-7.781201601E-1
2.305480000E0,-9.974207282E-1,5.535137057E-1,-8.041430116E-1
2.325480000E0,-8.429416418E-1,4.839972556E-1,-8.371122479E-1
2.345486250E0,-7.161434889E-1,3.770609200E-1,-7.624994516E-1
2.367480000E0,-5.940053463E-1,1.120152324E-1,-8.498182893E-1
2.389480000E0,-4.008846879E-1,7.368779927E-2,-7.863406539E-1
2.409481563E0,-2.214822769E-1,1.779188663E-1,-5.814040899E-1
2.431480000E0,-3.961897455E-3,2.357416153E-1,-4.484274387E-1
2.451480000E0,2.379058301E-1,1.730493903E-1,-3.020117581E-1
2.471481563E0,4.550073445E-1,2.673669755E-1,-1.826836169E-1
2.493480000E0,7.034549713E-1,5.772501826E-1,3.694862127E-2
2.513480000E0,9.303302765E-1,6.805387735E-1,2.694962919E-1
2.533480000E0,1.026916862E0,6.598391533E-1,4.677831531E-1
2.553480000E0,9.411862493E-1,4.704360366E-1,4.371351600E-1
2.573480000E0,8.447742462E-1,3.677234054E-1,2.724982500E-1
2.593492500E0,9.053372145E-1,4.193328023E-1,1.894380301E-1
2.615480000E0,1.091319442E0,8.339183331E-1,3.421892524E-1
2.635487813E0,1.172424912E0,1.416474342E0,5.101248026E-1
2.657480000E0,8.612501621E-1,1.473110199E0,2.147278637E-1
2.677484688E0,3.366042078E-1,1.650435686E0,-9.246754646E-2
2.699481563E0,-5.450663343E-2,1.604585886E0,8.698721230E-2
2.719486250E0,-4.422664270E-2,1.591618061E0,7.475419641E-1
2.741480000E0,2.739119828E-1,9.873676896E-1,1.061858296E0
2.761480000E0,2.478193045E-1,-5.283809900E-1,3.939033449E-1
2.781480000E0,-2.749766111E-1,-1.524876714E0,-6.732432842E-1
2.801480000E0,-4.599291682E-1,-1.299100876E0,-8.642870188E-1
2.821480000E0,-2.814343274E-1,-2.590766847E-1,-5.292187333E-1
2.841480000E0,2.053728998E-1,5.700070858E-1,-5.264959931E-1
2.861480000E0,7.794466019E-1,5.639682412E-1,-7.459013462E-1
2.881480000E0,9.958325028E-1,-4.132939503E-2,-7.673339844E-1
2.901480000E0,5.471083522E-1,-2.918713987E-1,-6.891607046E-1
2.921480000E0,-2.265088260E-1,2.882411182E-1,-4.380950928E-1
2.941480000E0,-9.952565432E-1,2.092649788E-1,-2.538232207E-1
2.961480000E0,-1.621602893E0,4.275009334E-1,-3.556806445E-1
2.981480000E0,-1.811424851E0,4.590739608E-1,-3.230429888E-1
3.001480000E0,-1.438063979E0,6.677455306E-1,-6.009691954E-1
3.021480000E0,-4.821122885E-1,-1.296779606E-2,-8.939576149E-1
3.041480000E0,5.621880293E-1,-3.721390963E-1,-8.079478145E-1
3.063478438E0,1.168515325E0,-6.070953012E-1,-6.592631936E-1
3.083484688E0,1.097864509E0,-4.815537930E-1,-1.200699210E0
3.105480000E0,1.421413541E0,2.939134464E-2,-1.360327125E0
3.125484688E0,1.778350830E0,7.980343699E-1,-3.396759629E-1
3.147480000E0,1.163349152E0,7.281513810E-1,1.507964432E-1
3.167481563E0,2.844363153E-1,-4.526162446E-1,5.518731102E-2
3.189481563E0,-2.352529317E-1,-1.323238850E0,-7.482226193E-2
3.209483125E0,-7.651523501E-2,-1.044509768E0,-3.383495212E-1
3.231480000E0,7.466518879E-2,-1.260651350E-1,-5.683664680E-1
3.251481563E0,-5.728170648E-2,-5.654866807E-3,-3.824365437E-1
3.273480000E0,-9.894271195E-2,-2.597748041E-1,-7.777187228E-2
3.293480000E0,-2.138028294E-2,-2.633352876E-1,5.040510744E-2
3.313480000E0,7.674212754E-2,-5.018519759E-1,7.312929630E-2
3.333480000E0,2.189341038E-1,-5.608441234E-1,2.994984947E-2
3.353480000E0,2.875778973E-1,-5.352925062E-1,-1.438151300E-2
3.375480000E0,1.062207371E-1,-3.633251786E-1,-4.698426276E-2
3.395480000E0,-1.994213164E-1,-3.426255882E-1,1.832595654E-2
3.415481563E0,-4.493350089E-1,-1.995609403E-1,1.394169033E-1
3.437480000E0,-3.575306833E-1,3.620685637E-1,1.834864616E-1
3.457486250E0,-7.955210656E-2,3.297974169E-1,1.824567169E-1
3.479480000E0,2.910860181E-1,5.665338784E-2,2.038020939E-1
3.499481563E0,4.783772826E-1,2.364571989E-1,3.039490879E-1
3.521478438E0,2.367539108E-1,6.869965196E-1,5.938482881E-1
3.541480000E0,-1.729621366E-2,3.335149586E-1,8.921076059E-1
3.561480000E0,9.515535086E-2,-2.683618367E-1,1.045766354E0
3.581480000E0,3.708475530E-1,-6.757042408E-1,9.554630518E-1
3.601481563E0,5.212600231E-1,-2.834065557E-1,6.624746323E-1
3.623486250E0,4.810999930E-1,5.241223574E-1,4.181110859E-1
3.645478438E0,5.468465686E-1,5.138249397E-1,4.298571348E-1
3.665478438E0,5.126380920E-1,3.521027267E-1,4.399800599E-1
3.685480000E0,-1.326450240E-2,-3.038618267E-1,5.188514590E-1
3.705480000E0,-7.769856453E-1,-1.449775219E0,2.533519864E-1
3.725480000E0,-6.978175640E-1,-1.779712200E0,-1.972745657E-1
3.745480000E0,1.933475733E-1,-9.637533426E-1,-2.270847857E-1
3.765480000E0,7.725001574E-1,-3.249279559E-1,-5.855579674E-2
3.785480000E0,6.542017460E-1,-1.699427068E-1,2.199114766E-3
3.807481563E0,-5.663593486E-2,-7.217285633E-1,-2.623229846E-2
3.829480000E0,-6.541668773E-1,-1.221294165E0,-1.702394187E-1
3.849480000E0,-9.658128619E-1,-8.360650539E-1,-1.555611938E-1
3.869480000E0,-1.180959582E0,-8.269369602E-2,1.378460974E-1
3.889484688E0,-1.162075162E0,6.398551464E-1,4.053003490E-1
3.911480000E0,-7.885746360E-1,6.132912636E-1,3.301988542E-1
3.933478438E0,-3.701668680E-1,2.133490443E-1,-3.900810704E-2
3.953478438E0,-8.723155409E-2,2.632829249E-1,-2.756921947E-1
3.973483125E0,8.325220644E-2,2.937214673E-1,-1.933475733E-1
3.995478438E0,1.271123290E-1,5.024802685E-1,-9.250245057E-4
4.015490938E0,1.063429117E-1,9.317440391E-1,1.317898184E-1
4.037478438E0,-1.588249579E-2,8.442681432E-1,1.745154709E-1
4.057478438E0,-3.045774102E-1,5.607044697E-1,1.824392676E-1
4.077480000E0,-5.405982733E-1,-1.259097934E0,-1.108109504E-1
4.097484688E0,-2.602286041E-1,-1.735276103E0,-7.519576550E-1
4.119480000E0,3.656115830E-1,-3.904476166E-1,-1.242185712E0
4.139481563E0,8.526282310E-1,1.008922458E0,-1.229601860E0
4.161478438E0,1.095089436E0,6.048438549E-1,-8.512494564E-1
4.181480000E0,1.230910897E0,-4.354072809E-1,-5.919982195E-1
4.203478438E0,1.258312583E0,-5.855754018E-1,-4.252494574E-1
4.223508125E0,1.041734695E0,-7.249224782E-1,-2.108357698E-1
4.245478438E0,4.580790997E-1,-6.160837412E-1,-8.115780540E-3
4.265483125E0,-3.452435732E-1,-5.689598918E-1,6.075491011E-2
4.287487813E0,-1.337585449E0,-8.895070553E-1,-1.199564785E-1
4.309480000E0,-2.040289879E0,-6.941523552E-1,-2.773502767E-1
4.329484688E0,-2.169967890E0,-2.513274252E-1,-2.018298805E-1
4.351480000E0,-1.955257416E0,4.722511768E-1,-1.079137102E-1
4.371483125E0,-1.863941789E0,4.824264646E-1,-1.015607119E-1
4.393480000E0,-1.784354806E0,2.354100049E-1,-1.234994978E-1
4.413487813E0,-1.602666020E0,-9.330530465E-2,-6.260495633E-2
4.435478438E0,-1.166944623E0,6.789331138E-2,-5.544910952E-2
4.455484688E0,-6.311983466E-1,3.181211650E-1,-1.478293836E-1
4.477478438E0,-1.726130582E-2,4.494397342E-1,-1.872040182E-1
4.497478438E0,5.240874887E-1,5.057615042E-1,-5.309291556E-2
4.517480000E0,9.223541617E-1,2.382723540E-1,2.983640432E-1
4.539480000E0,1.161534071E0,1.786170006E-1,7.152010202E-1
4.561480000E0,1.278523445E0,2.574884295E-1,8.314050436E-1
4.581480000E0,1.236722827E0,5.105087757E-1,6.765594482E-1
4.603484688E0,1.233197331E0,5.050808191E-1,5.932897925E-1
4.625480000E0,1.529449463E0,4.932300448E-1,7.740709782E-1
4.645481563E0,1.792627692E0,2.561445236E-1,8.614072204E-1
4.667480000E0,1.692567945E0,6.236236095E-1,6.798057556E-1
4.689480000E0,1.485484600E0,1.634029627E0,1.186719179E0
4.709480000E0,1.356434941E0,1.881237984E0,1.565490484E0
4.729486250E0,9.770004153E-1,7.900232673E-1,1.179301500E0
4.751478438E0,3.873758316E-1,-2.124414742E-1,5.665862560E-1
4.771480000E0,2.710321844E-1,-5.195845366E-1,1.107585952E-1
4.791480000E0,1.560847908E-1,-5.942147970E-1,-3.238283992E-1
4.811486250E0,-6.020687819E-1,-3.915995359E-1,-4.496666193E-1
4.833478438E0,-1.465570450E0,-3.233745992E-1,-4.897393882E-1
4.853480000E0,-1.369839072E0,-7.630754113E-1,-4.010243118E-1
4.875480000E0,-5.174377561E-1,-5.774770975E-1,1.177922711E-1
4.895484688E0,4.225965738E-1,2.431243658E-2,2.364571989E-1
4.917480000E0,7.349755764E-1,-2.093173414E-1,7.417649496E-3
4.937480000E0,8.688598275E-1,-3.222052455E-1,-3.219259679E-1
4.957480000E0,7.949799895E-1,-8.373566270E-1,-7.724478245E-1
4.977481563E0,6.703634858E-1,-1.618182063E0,-8.053472638E-1
4.999480000E0,8.724377155E-1,-2.279260397E0,-6.041282415E-1
5.019484688E0,1.424188614E0,-2.981284142E0,-2.357765287E-1
5.041480000E0,1.955397129E0,-4.074663162E0,-1.302364618E-1
5.061480000E0,1.739918709E0,-2.985263586E0,-3.703763187E-1
5.081480000E0,6.287897825E-1,-7.811046243E-1,-4.935267568E-1
5.103480000E0,-5.263738632E-1,-4.015304446E-1,-9.861110151E-2
5.123480000E0,-1.215761423E0,2.904053330E-1,3.949854672E-1
5.143480000E0,-1.689094782E0,1.456180573E0,7.974584103E-1
5.163480000E0,-2.069035530E0,1.669145584E0,1.046464562E0
5.183480000E0,-2.033814669E0,9.545205832E-1,1.233738303E0
5.203480000E0,-1.755277634E0,1.603084952E-1,9.403833747E-1
5.223480000E0,-1.619490981E0,2.549751401E-1,7.567573190E-1
5.243484688E0,-1.493425846E0,1.264194369E0,7.642796636E-1
5.265480000E0,-1.206615925E0,1.858985066E0,3.372325301E-1
5.285484688E0,-8.988794684E-1,1.191798091E0,-3.824016452E-2
5.307480000E0,-7.008020282E-1,2.539279461E-1,-5.763775110E-1
5.327480000E0,-3.399901390E-1,-3.203202784E-1,-8.828747869E-1
5.347480000E0,-6.518805027E-2,-1.809033751E-1,-9.683959484E-1
5.367489375E0,-4.134684801E-2,3.635869920E-1,-9.615716934E-1
5.389481563E0,-1.759291887E-1,6.708173156E-1,-9.820793271E-1
5.409481563E0,-2.376963943E-1,2.531949282E-1,-9.742951393E-1
5.431480000E0,-2.103819847E-1,-1.159945801E-1,-8.809723854E-1
5.451481563E0,-5.237733200E-2,-2.283763289E-1,-4.974537492E-1
5.473480000E0,1.704663038E-1,-1.215098202E-1,-1.991420612E-2
5.493484688E0,3.367961943E-1,2.303660065E-1,5.153957382E-2
5.515480000E0,4.660203755E-1,2.745577395E-1,-1.329417229E-1
5.535480000E0,5.841267705E-1,3.006329536E-1,-2.775422633E-1
5.555480000E0,5.558000803E-1,4.786390960E-1,-1.935046464E-1
5.575486250E0,2.050238252E-1,8.001810908E-1,2.281145379E-2
5.597480000E0,-9.196139872E-2,8.176692724E-1,1.419650763E-1
5.617480000E0,3.537782282E-2,5.561317205E-1,4.073598608E-2
5.637480000E0,3.319267035E-1,4.309392571E-1,-8.410741389E-2
5.657480000E0,4.853236973E-1,2.758667469E-1,-1.224173903E-1
5.677480000E0,4.971919358E-1,4.611334503E-1,-2.595479190E-1
5.697480000E0,1.830501258E-1,1.328911185E0,-5.021312237E-1
5.717483125E0,-3.579321206E-1,1.115352631E0,-8.334819674E-1
5.739480000E0,-9.069603682E-1,3.682295680E-1,-1.136610746E0
5.761478438E0,-9.808226824E-1,1.008974835E-1,-1.051944852E0
5.781480000E0,-7.046941519E-1,2.997428477E-1,-8.155574203E-1
5.803478438E0,6.565928459E-2,7.989943027E-1,-4.762479961E-1
5.823480000E0,1.017998219E0,2.537010610E-1,-1.759640872E-1
5.845480000E0,1.405600905E0,-2.280098200E-1,8.546877652E-2
5.865484688E0,9.492845535E-1,1.083500385E-1,-3.527659476E-1
5.887478438E0,5.195496082E-1,1.089207649E0,-8.653342724E-2
5.907478438E0,3.307224512E-1,1.256829023E0,3.544414639E-1
5.927478438E0,2.942101657E-1,4.702615142E-1,2.812249064E-1
5.947480000E0,5.753128529E-1,-5.661673546E-1,1.988279074E-1
5.969480000E0,5.612978935E-1,-1.384185672E0,2.033483088E-1
5.991483125E0,-3.594854772E-1,-1.381044149E0,5.664989948E-1
6.013480000E0,-9.364738464E-1,-8.112465143E-1,8.908684254E-1
6.033481563E0,-7.405781150E-1,-3.978652656E-1,8.148941994E-1
6.055480000E0,-3.806912005E-1,5.271592736E-1,4.939107299E-1
6.077480000E0,1.062032878E-1,1.241749406E0,-1.422443334E-2
6.097480000E0,5.951049328E-1,7.859915495E-1,-5.668305755E-1
6.119480000E0,9.176766872E-1,-2.174505740E-1,-7.546977997E-1
6.139481563E0,8.997172117E-1,-1.156402826E0,-1.997354776E-1
6.161478438E0,1.082906961E0,-1.511996150E0,-7.614871860E-2
6.181487813E0,1.642110467E0,-1.036882639E0,-3.167947233E-1
6.203478438E0,1.630643606E0,-1.443387270E-1,-4.295778871E-1
6.223501875E0,9.086009264E-1,-2.200336605E-1,-2.623753548E-1
6.245478438E0,-4.310265183E-1,-1.372910857E0,6.452482194E-2
6.265481563E0,-1.610310555E0,-1.471155524E0,-1.659633517E-1
6.287478438E0,-1.067687750E0,-2.334028780E-1,-4.762479961E-1
6.307478438E0,-6.881833076E-2,-5.874952674E-1,-2.872811854E-1
6.327478438E0,4.136255682E-1,-1.293219209E0,-3.932226896E-1
6.347478438E0,1.685988009E-1,-1.293917298E0,-6.988647580E-1
6.367480000E0,-3.586302400E-1,-1.098056436E0,-5.952619910E-1
6.389480000E0,-4.275183976E-1,-6.830520630E-1,-4.685685337E-1
6.409480000E0,2.568252087E-1,-4.136255682E-1,-6.827029586E-1
6.429480000E0,8.495913744E-1,-6.199060678E-1,-4.329289198E-1
6.449480000E0,1.173262715E0,-5.370203853E-1,1.700474322E-1
6.469480000E0,1.253338337E0,4.217413664E-1,2.291966379E-1
6.489486250E0,1.166787505E0,1.289554000E0,9.080947936E-2
6.511480000E0,1.135284305E0,7.892029881E-1,3.482455313E-1
6.531480000E0,9.491798282E-1,7.363544106E-1,-5.555383116E-2
6.553478438E0,3.844436705E-1,8.740260005E-1,-4.319340885E-1
6.573478438E0,-3.841120601E-1,9.894446135E-1,-5.592383742E-1
6.593480000E0,-6.923720837E-1,1.380869627E0,-5.943544507E-1
6.613500313E0,-7.694109678E-1,1.173070669E0,-2.409950644E-1
6.635480000E0,-9.392314553E-1,1.315437198E0,-1.092052534E-1
6.657478438E0,-1.299013615E0,1.832403779E0,-2.442588210E-1
6.677478438E0,-1.318997622E0,1.117028117E0,-4.118104279E-1
6.697481563E0,-1.061317205E0,9.656906724E-1,-1.953547001E-1
6.719480000E0,-7.716624141E-1,9.210800529E-1,1.031489577E-2
6.741480000E0,-3.607770205E-1,3.233571351E-1,-2.028945237E-1
6.763478438E0,-5.105087906E-2,1.956514120E-1,-3.694512844E-1
6.783478438E0,-2.883283794E-1,2.415012121E-1,-7.885572314E-1
6.803486250E0,-5.884726644E-1,4.806462228E-1,-1.584689140E0
6.825478438E0,-7.044672370E-1,-2.812772691E-1,-2.258857489E0
6.845481563E0,-1.025363445E0,1.654921174E-1,-5.769186020E-1
6.867483125E0,-1.076222420E0,2.796017379E-2,-9.047612548E-1
6.889478438E0,-7.605446577E-1,-8.169886470E-1,-3.377788067E0
6.909480000E0,-8.261516094E-1,-6.101147532E-1,-3.418873072E0
6.929486250E0,-8.285950422E-1,-2.810329199E-1,-2.124118090E0
6.951480000E0,-7.870736718E-1,7.581012249E-1,-1.792034268E0
6.971481563E0,7.185520232E-2,-3.498687148E-1,-2.245924473E0
6.993480000E0,3.807610273E-1,-2.393020988E-1,-2.181975603E0
7.013494063E0,-6.319837272E-2,5.320461392E-1,-1.502641201E0
7.035478438E0,-8.087855577E-1,4.001341760E-1,-1.055557728E0
7.055478438E0,-6.042504311E-1,6.284930557E-2,-9.149539471E-1
7.075478438E0,1.402721107E-1,-1.864360720E-1,-7.777885199E-1
7.095481563E0,8.075115085E-1,-4.406956434E-1,-9.057909846E-1
7.117480000E0,1.093937516E0,-4.608018398E-1,-9.609782696E-1
7.139481563E0,8.204094768E-1,-5.122890472E-1,-8.865749240E-1
7.159481563E0,2.689203322E-1,-5.154306293E-1,-1.180209041E0
7.179481563E0,-3.827856183E-1,-1.575508714E-1,-1.163680792E0
7.199489375E0,-2.160368562E-1,-1.027946591E0,-7.902676463E-1
7.221481563E0,7.961319089E-1,-6.991788745E-2,2.049190998E-1
7.243484688E0,1.381881833E0,-9.181304574E-1,4.964239895E-1
7.265480000E0,1.146192670E0,-1.321441174E0,-8.726646192E-4
7.285480000E0,4.149520397E-1,-8.390321136E-1,-1.857379377E-1
7.307480000E0,3.850021660E-1,-1.077095032E0,-5.024628639E-1
7.327484688E0,1.100080967E0,-1.111530423E0,-3.460638821E-1
7.349480000E0,8.296946287E-1,-7.734252214E-1,-3.584382534E-1
7.369480000E0,7.189010829E-2,-5.903925300E-1,-1.551196218E0
7.389480000E0,-4.714308679E-1,-3.265511096E-1,-1.831531048E0
7.409486250E0,-8.024674654E-1,1.239532828E-1,-7.537029982E-1
7.431480000E0,-9.316741824E-1,-1.173210293E-1,-8.033226728E-1
7.451486250E0,-6.514790654E-1,-7.310485840E-1,-1.209478259E0
7.473480000E0,2.193006128E-1,-8.277572989E-1,-8.288568854E-1
7.495480000E0,6.593504548E-1,-4.647113681E-1,-7.357609868E-1
7.515480000E0,6.386159360E-2,-5.287824273E-1,-1.385337591E0
7.535484688E0,-5.226911902E-1,-2.319717109E-1,-1.172337651E0
7.557480000E0,-2.538581491E-1,1.990198940E-1,-7.741407752E-1
7.577480000E0,3.867998719E-1,1.230963230E0,-2.438225038E-2
7.597481563E0,1.639003754E0,-9.857270718E-1,3.613704145E-1
7.617483125E0,1.619403720E0,-1.757494211E0,-1.010022044E0
7.639478438E0,2.873335481E-1,6.080901623E-1,8.184896111E-1
7.659480000E0,1.490528584E0,-2.207841426E-1,2.452536672E-1
7.679480000E0,1.222742796E0,-3.482804596E-1,-3.228161037E-1
7.699481563E0,1.330831051E0,-3.361853063E-1,-3.520852625E-1
7.721480000E0,1.567881584E0,-6.974335760E-2,-2.329840064E-1
7.741480000E0,1.540619612E0,-4.116533697E-1,-3.202330172E-1
7.761480000E0,1.266585469E0,-8.861734867E-1,-6.618637443E-1
7.781480000E0,8.280190825E-1,-7.936186790E-1,-4.579045773E-1
7.803478438E0,7.904072404E-1,-6.914994717E-1,-1.616872996E-1
7.823480000E0,6.186842918E-1,-1.058036089E0,-9.463175386E-2
7.845480000E0,1.847954541E-1,-1.636403203E0,-5.284158587E-1
7.867486250E0,3.633601069E-1,-1.568108559E0,-2.896373868E-1
7.889478438E0,1.325996399E0,-6.244264245E-1,-2.728124261E-1
7.909483125E0,1.786833167E0,5.483824387E-2,-2.812423408E-1
7.931480000E0,8.932245970E-1,-1.223772526E0,-3.082076907E-1
7.951480000E0,2.501580417E-1,-1.944959998E0,-5.268450975E-1
7.973478438E0,3.218910694E-1,-1.032676458E0,-7.515911460E-1
7.993478438E0,6.494893432E-1,-6.475171447E-2,-1.172512174E-1
8.013486250E0,1.081353664E0,-3.961897492E-1,8.985478282E-1
8.035478438E0,9.353219271E-1,-2.979451418E-1,8.695928454E-1
8.055480000E0,1.015956163E0,-5.413662195E-1,1.660506278E-1
8.077478438E0,1.372893453E0,-4.201705754E-1,2.455503643E-1
8.097480000E0,1.286290169E0,6.703984141E-1,7.424107194E-1
8.119480000E0,9.250070453E-1,4.577474892E-1,7.210653424E-1
8.139480000E0,9.308713675E-1,-2.964267135E-1,3.691546023E-1
8.159480000E0,7.994655371E-1,-3.198664784E-1,7.597767115E-1
8.179480000E0,2.644522786E-1,1.300619394E-1,7.794814706E-1
8.199481563E0,-5.602506921E-2,2.636145353E-1,-1.740267724E-1
8.221480000E0,-1.362054944E-1,2.862340072E-3,-9.709091783E-1
8.241484688E0,-2.922204733E-1,1.772207320E-1,-6.226985455E-1
8.263478438E0,-3.337418437E-1,4.521449804E-1,1.495049000E-1
8.283480000E0,-4.729842301E-3,2.645395398E-1,4.434532523E-1
8.305478438E0,3.827856183E-1,-6.600660682E-1,-9.676105529E-2
8.325478438E0,-2.684316412E-2,-6.303954720E-1,-9.831963181E-1
8.345480000E0,5.586798787E-1,-2.076767236E-1,-7.329684496E-1
8.365484688E0,9.644689411E-2,-5.175599456E-1,-2.848900855E-1
8.387478438E0,-4.501378536E-1,-1.109593034E0,-5.640555024E-1
8.407483125E0,-5.000717640E-1,-7.093890905E-1,-4.550597072E-1
8.429480000E0,3.418925405E-1,1.334478706E-1,6.225589290E-2
8.449483125E0,4.601735175E-1,-5.667084083E-2,-7.756941319E-1
8.471478438E0,-2.783276439E-1,-6.299242377E-1,-9.070999622E-1
8.491478438E0,-5.934293866E-1,-9.274330735E-1,-1.721243709E-1
8.511480000E0,-2.727600634E-1,-7.598116398E-1,-7.667231560E-2
8.533480000E0,-6.103416532E-2,-9.585348368E-1,-3.385764062E-1
8.555484688E0,2.306452543E-1,-1.262030125E0,-3.901858032E-1
8.577478438E0,3.766595125E-1,-1.112909198E0,-3.173357546E-1
8.597480000E0,5.005080700E-1,-9.567196965E-1,-5.439493060E-1
8.617480000E0,8.470606208E-1,-6.350904107E-1,-6.155776232E-2
8.637480000E0,9.013054967E-1,-6.543064713E-1,-5.890486389E-2
8.657480000E0,7.331604362E-1,-8.491550088E-1,-2.774200737E-1
8.679480000E0,8.606742024E-1,-5.917539001E-1,2.773328125E-1
8.699480000E0,8.418421149E-1,-5.164952874E-1,-2.502278686E-1
8.721484688E0,8.095186353E-1,-1.373225093E0,-4.775744379E-1
8.743480000E0,7.716973424E-1,-1.335700512E0,3.129549921E-1
8.763484688E0,7.714529634E-1,-7.071725130E-1,-2.259154171E-1
8.785478438E0,1.235064745E0,-8.269370198E-1,-2.357590795E-1
8.805478438E0,1.305506229E0,-8.969770670E-1,-1.194852367E-1
8.825478438E0,4.591088593E-1,-4.211654067E-1,-2.859547436E-1
8.845480000E0,3.026575446E-1,-7.950673103E-1,-1.703441292E-1
8.867480000E0,4.132939503E-2,-2.258805037E-1,-1.047721133E-1
8.889480000E0,-2.879793346E-1,-1.126941681E0,4.558800161E-2
8.909480000E0,-2.674368024E-1,-1.131514430E0,1.606401056E-1
8.929480000E0,3.752632439E-1,6.300638430E-3,-4.708374739E-1
8.949481563E0,5.386086106E-1,-4.880115092E-1,-4.641877711E-1
8.969481563E0,2.268055379E-1,-1.064999938E0,-3.193952609E-3
8.991478438E0,3.735004663E-1,-2.401922047E-1,3.034952879E-1
9.011478438E0,-1.007892728E0,-1.476181984E0,-6.356314421E-1
9.031478438E0,1.094112039E0,-9.974033237E-1,-4.072551131E-1
9.051478438E0,1.158828855E0,-1.110378429E-1,5.506513640E-2
9.071480000E0,-3.634299040E-1,-1.130379915E0,1.860346496E-1
9.093480000E0,-8.903099298E-1,-2.403527737E0,-4.985009432E-1
9.113484688E0,-3.327644765E-1,-1.696023703E0,-8.278096467E-2
9.135480000E0,3.442662060E-1,-2.144486010E-1,-4.087735713E-1
9.157480000E0,7.149392366E-1,2.694788389E-2,-1.936966419E0
9.177480000E0,8.199382424E-1,-6.897889972E-1,-1.771142721E0
9.197480000E0,3.321186900E-1,-1.545105100E0,-8.875348568E-1
9.217480000E0,3.562740684E-1,-1.665934205E0,-5.205793381E-1
9.237481563E0,6.159266829E-1,-8.485441804E-1,-2.189515531E-1
9.259481563E0,1.135668278E0,-5.763077140E-1,1.367290914E-1
9.279483125E0,3.735004691E-3,-7.524986863E-1,3.588396907E-1
9.301478438E0,-1.161900640E0,-1.677243948E0,4.328590930E-1
9.321478438E0,-8.118050098E-1,-1.824130893E0,7.545058429E-2
9.341480000E0,1.450194120E-1,-9.177639484E-1,-6.231349111E-1
9.361484688E0,-1.456826329E-1,-4.419697225E-1,-1.172861218E0
9.383480000E0,-1.239620090E0,5.602506921E-2,-9.221796393E-1
9.403481563E0,-3.631506562E-1,-1.181675196E0,-2.354274690E-1
9.425480000E0,-7.818900347E-1,-1.235745430E0,-4.032234251E-1
9.445480000E0,-4.365940988E-1,-9.732479453E-1,-2.287777513E-1
9.467478438E0,-2.277131081E-1,4.988151044E-2,2.674891651E-1
9.487480000E0,-3.657512069E-1,-9.388125688E-2,5.794144273E-1
9.509480000E0,-5.190259814E-1,-1.175112724E0,-3.426255882E-1
9.529480000E0,-4.244466126E-1,-1.229200482E0,-6.529102325E-1
9.549480000E0,-1.697856337E-1,-3.227986395E-1,-1.743583977E-1
9.569487813E0,-7.072073966E-2,2.445206232E-2,7.604399323E-2
9.591478438E0,-3.565707505E-1,-2.641381323E-1,-3.494672775E-1
9.611478438E0,-4.084244967E-1,-7.211526036E-1,-6.416877508E-1
9.631478438E0,-1.685115397E-1,-5.296550393E-1,-3.718773127E-1
9.651489375E0,-1.539554894E-1,-2.583261728E-1,-5.131965876E-1
9.673480000E0,-3.929783404E-1,-1.014385372E-1,-7.998320460E-1
9.693480000E0,-3.843564093E-1,1.312662065E-1,-4.709072709E-1
9.713480000E0,-3.974987268E-1,-2.777342498E-1,-4.444655478E-1
9.735483125E0,-7.712435126E-1,-1.064022541E0,-1.160609007E0
9.757478438E0,-1.210490584E0,-3.576005101E-1,-1.160905719E0
9.777480000E0,-1.258801222E0,6.169913411E-1,-5.719792843E-1
9.797480000E0,5.874080062E-1,-5.426926613E-1,-3.373023272E-1
9.817489375E0,2.049889266E-1,-1.338231206E0,-3.305130005E-1
9.839480000E0,-2.660056353E-1,-4.366813898E-1,6.635392904E-1
9.859487813E0,6.585127115E-1,3.166550994E-1,7.301585078E-1
9.881478438E0,1.235570908E0,-4.638910592E-1,-1.662426144E-1
9.901486250E0,1.195114255E0,-1.199826598E0,-3.931703269E-1
9.923480000E0,5.664989948E-1,-1.872214675E-1,-2.071531266E-1
9.943481563E0,-1.582664549E-1,4.824962616E-1,-3.004584312E-1
9.965478438E0,-5.003859103E-2,-4.789183289E-2,-9.645736814E-1
9.985480000E0,3.699923456E-1,-3.442312777E-1,-1.061631441E0
1.000747844E1,1.302015632E-1,-7.738789916E-2,-2.973866463E-1
1.002748000E1,5.283460617E-1,1.360135078E-1,-3.429571912E-2
1.004948000E1,8.959298730E-1,8.110544831E-2,-3.697130978E-1
1.006948000E1,8.174598813E-1,1.840973347E-1,-2.302787453E-1
1.008948000E1,7.492873073E-1,2.735803723E-1,3.411944211E-1
1.010948312E1,4.739965200E-1,3.243868947E-1,9.123533964E-1
1.013147844E1,7.318863869E-1,-1.777617782E-1,-2.490584925E-2
1.015148000E1,7.596371174E-1,-1.539031267E-1,1.717054844E-1
1.017348000E1,5.559222698E-1,-2.946639359E-1,4.854807854E-1
1.019548000E1,8.997172117E-2,-3.816860616E-1,3.522248864E-1
1.021548000E1,2.561445236E-1,-4.211828411E-1,-1.486845911E-1
1.023748000E1,7.112914920E-1,-3.757868409E-1,-5.709146261E-1
1.025748781E1,3.789807856E-1,-5.434606075E-1,-2.588148713E-1
1.027947844E1,-3.356093466E-1,-7.517656684E-1,2.492504716E-1
1.029948000E1,4.197516665E-2,-4.704709649E-1,5.246634483E-1
1.032147844E1,1.915673316E-1,-5.701990724E-1,-2.751685977E-1
1.034148000E1,-8.557872772E-1,-1.714349627E0,-1.332855582E0
1.036148000E1,-9.977174401E-1,-2.134502649E0,-1.817324042E0
1.038348625E1,-7.637386322E-1,-1.279361248E0,-5.054124594E-1
1.040547844E1,-9.382191896E-1,-7.783994079E-1,5.281890035E-1
1.042548313E1,-1.171360254E0,-2.361255884E-1,1.092401624E0
1.044748000E1,-1.371148109E0,-9.288642406E-1,9.917309880E-1
1.046948000E1,-1.144674182E0,-1.217018127E0,7.423059940E-1
1.048948000E1,-7.559369802E-1,3.487167954E-1,1.159945846E0
1.051148000E1,-8.532391191E-1,1.571162820E0,2.106629848E0
1.053148625E1,-1.500023246E0,4.681147635E-1,4.208948612E0
1.055347844E1,-2.999941826E0,3.564660549E-1,4.906923294E0
1.057347844E1,-2.580853224E0,-5.335820317E-1,3.836513042E0
1.059347844E1,-1.710754275E0,1.646718085E-1,3.407755494E-1
1.061348000E1,-1.128180861E0,-3.200933933E-1,-1.590082169E0
1.063548000E1,-3.983539343E-1,-6.757915020E-1,-6.018593311E-1
1.065748781E1,-5.938308239E-1,-8.272162676E-1,7.839495540E-1
1.067947844E1,-2.756747603E-1,1.163611040E-1,2.030812740E0
1.069948000E1,1.269552559E-1,1.196021795E0,3.180251598E0
1.071948625E1,7.037342191E-1,5.294979811E-1,2.941543102E0
1.074148000E1,-2.412568629E-1,5.232671499E-1,-1.496445239E-1
1.076148625E1,-1.265014648E0,-7.937757671E-2,-8.394859433E-1
1.078347844E1,-1.188970685E0,4.024205506E-1,-2.926219106E-1
1.080347844E1,-7.361973524E-1,1.059606791E0,6.579891592E-2
1.082348313E1,-8.957378864E-1,4.157374203E-1,-2.108357698E-1
1.084548000E1,-1.067408442E0,-1.200088412E-1,-1.261523962E-1
1.086548156E1,-3.407057226E-1,-3.229731917E-1,3.155904412E-1
1.088748000E1,2.785719931E-1,3.174404800E-1,2.849250138E-1
1.090948000E1,3.558900952E-1,1.104252338E0,5.065294504E-1
1.092948000E1,1.384220570E-1,1.586190104E0,1.008154511E0
1.094948000E1,-5.442983508E-1,1.226041436E0,5.856451988E-1
1.096948000E1,-1.282659888E0,1.153976798E0,1.754230410E-1
1.098948625E1,-5.131442547E-1,5.238256454E-1,4.193502665E-1
1.101148000E1,7.016049027E-1,-2.525666058E-1,6.461034417E-1
1.103148469E1,7.031757236E-1,2.293362617E-1,1.004035592E0
1.105347844E1,-2.768266797E-1,2.059837580E-1,7.408922911E-1
1.107348000E1,-7.331779003E-1,-8.382816613E-2,1.402197480E-1
1.109547844E1,-6.919881105E-1,-5.283285975E-1,-2.473131567E-2
1.111547844E1,-6.105859876E-1,-6.947457790E-1,3.275983036E-2
1.113548000E1,-7.592182159E-1,-4.410621524E-1,-9.249895811E-1
1.115748000E1,-1.022588372E0,-3.112969100E-1,-4.579918385E-1
1.117948000E1,-1.242761731E0,-2.253569067E-1,-3.505668342E-1
1.120147844E1,-1.421919703E0,4.276580215E-1,-6.851813793E-1
1.122148000E1,-1.314110756E0,1.160085440E0,-7.079927921E-1
1.124348000E1,-1.016479731E0,6.399948001E-1,-3.862937093E-1
1.126348781E1,-6.368532181E-1,-8.068656921E-2,-4.030488729E-1
1.128548000E1,-2.176949233E-1,-5.521523356E-1,-3.814068139E-1
1.130548312E1,-2.710147202E-1,-7.667580247E-1,-4.404338300E-1
1.132747844E1,-6.251943707E-1,-1.382649839E-1,-9.046913981E-1
1.134747844E1,-5.545608997E-1,3.795393109E-1,-9.863728285E-1
1.136748000E1,4.363323096E-4,1.200681806E0,-8.020486236E-1
1.138748313E1,2.339613885E-1,1.203230023E0,-3.887895346E-1
1.140948000E1,-4.312708601E-2,1.376994967E0,1.580221057E-1
1.142948000E1,-4.479038417E-1,1.736969113E0,6.193126440E-1
1.144948000E1,-9.467713237E-1,1.798614144E0,9.934239388E-1
1.146948000E1,-1.528314948E0,1.594969153E0,1.352909446E0
1.148948000E1,-1.998733640E0,1.255572438E0,1.563116908E0
1.150948000E1,-2.103662729E0,9.487260580E-1,1.529623985E0
1.152948312E1,-2.025943279E0,1.095822453E0,1.160259962E0
1.155147844E1,-1.748994470E0,1.357813835E0,9.933018088E-1
1.157148156E1,-1.248259425E0,1.422390938E0,1.265450954E0
1.159347844E1,-8.066911697E-1,1.704645634E0,1.341686964E0
1.161348000E1,-8.799077272E-1,1.857536435E0,1.219548821E0
1.163548000E1,-9.567894936E-1,1.322540641E0,1.213387847E0
1.165548000E1,-5.506862998E-1,8.065341115E-1,1.231643915E0
1.167748156E1,-1.590169519E-1,7.754846811E-1,1.169614911E0
1.169948156E1,-3.473728895E-1,1.106643438E0,1.279954672E0
1.172148000E1,-4.560370743E-1,8.341451883E-1,1.584828734E0
1.174148000E1,-1.117185280E-1,6.493322849E-1,1.840554357E0
1.176148781E1,3.567453101E-2,8.373042345E-1,1.808108687E0
1.178348000E1,-2.653598487E-1,1.388706088E0,1.590902567E0
1.180348469E1,-4.642401338E-1,9.506110549E-1,1.504299283E0
1.182547844E1,-1.213527396E-1,-1.677785069E-1,1.838931203E0
1.184548000E1,2.366666496E-1,-7.588517070E-1,1.878724813E0
1.186748000E1,3.365867436E-1,-5.219057798E-1,1.508418202E0
1.188748000E1,2.809980186E-3,-2.799158990E-1,1.233581305E0
1.190948000E1,-4.144633412E-1,-3.991742432E-1,1.209879637E0
1.192948000E1,-5.378406644E-1,1.552819461E-1,1.564443350E0
1.194948000E1,-5.257280469E-1,9.180955291E-1,1.761840105E0
1.196948625E1,-6.133610606E-1,1.257963538E0,1.838913798E0
1.199147844E1,-5.931850672E-1,1.206964970E0,1.940299988E0
1.201148000E1,-4.906469584E-1,1.016026020E0,1.701154947E0
1.203348000E1,-3.319092691E-1,5.688377023E-1,1.190733433E0
1.205548000E1,-4.722860828E-2,2.005034238E-1,7.623772621E-1
1.207747844E1,3.179989755E-1,-1.309869587E-1,5.496216416E-1
1.209748000E1,5.745972991E-1,-6.400471330E-1,8.312479854E-1
1.211748000E1,6.504667401E-1,-7.075215578E-1,9.584475756E-1
1.213948000E1,4.821472168E-1,-3.646516502E-1,7.258998752E-1
1.215948156E1,3.247534037E-1,-5.441936478E-2,4.175351262E-1
1.218147844E1,2.706307471E-1,-1.473232359E-1,3.114888966E-1
1.220148469E1,2.614503205E-1,-3.081378639E-1,5.580690503E-1
1.222349875E1,2.440668344E-1,-2.751162350E-1,6.904871464E-1
1.224547844E1,1.532050073E-1,-1.726479679E-1,5.365316868E-1
1.226547844E1,-7.377506793E-2,-1.728923172E-1,3.241076469E-1
1.228548156E1,-1.926668882E-1,-3.793647587E-1,2.607522011E-1
1.230748000E1,6.384414434E-2,-4.239404798E-1,3.143686950E-1
1.232948000E1,2.445555329E-1,-1.343903504E-2,5.011538267E-1
1.234948000E1,3.625048697E-2,1.280897111E-1,6.804515123E-1
1.236948000E1,-1.992816925E-1,-1.708851904E-1,5.008222461E-1
1.238948000E1,-1.004262418E-1,-1.020668507E0,2.330189049E-1
1.240948625E1,3.973940015E-1,-1.950300694E0,3.188367486E-1
1.243148000E1,4.956211448E-1,-2.652656078E0,3.457497358E-1
1.245348000E1,3.192730844E-1,-2.368551493E0,2.199289352E-1
1.247348000E1,-1.878846884E-1,-1.280617833E0,1.607971787E-1
1.249548000E1,-7.597592473E-1,-1.078788042E0,6.065717340E-1
1.251748000E1,-4.001167417E-1,-1.833799958E0,8.031132817E-1
1.253948000E1,1.908168495E-1,-1.866245627E0,4.051083624E-1
1.255948313E1,-2.841396034E-1,-9.436646104E-1,1.532573551E-1
1.258148000E1,-1.475536227E0,7.633022666E-1,8.321555257E-1
1.260348000E1,-2.703166008E0,3.156218529E0,1.197435498E0
1.262348000E1,-3.168819666E0,3.165521145E0,6.932273507E-1
1.264348000E1,-3.621331215E0,3.068079472E0,4.486194253E-1
1.266548313E1,-4.667900562E0,5.385998726E0,4.228409231E-1
1.268747844E1,-5.081299305E0,4.961046219E0,4.408876300E-1
1.270748000E1,-4.357947350E0,2.689971209E0,-7.407351732E-1
1.272748156E1,-3.156340599E0,9.739460945E-1,-2.276712179E0
1.274948469E1,-2.351534367E0,7.684859037E-1,-3.531534195E0
1.277147844E1,-1.012133837E0,1.645775676E0,-3.266453505E0
1.279148781E1,-6.791250706E-1,1.216511965E0,-1.862894654E0
1.281348000E1,-4.074209213E0,1.941207528E0,3.382448107E-2
1.283348312E1,-5.973598957E0,2.878920555E0,2.197369561E-2
1.285548000E1,-5.815646648E0,2.192116022E0,1.311632395E0
1.287748000E1,-2.904646635E0,2.278893948E0,1.149578571E0
1.289948156E1,-4.415683076E-2,2.027636290E0,-2.819230258E-1
1.291948781E1,4.493699074E-1,2.442169428E0,-2.448243141E0
1.294148000E1,-1.298158407E0,3.111206532E0,-6.215640903E-1
1.296148781E1,-5.345070839E0,5.643173218E0,3.233065367E0
1.298348000E1,-4.762113571E0,1.312086225E0,6.358862877E0
1.300348469E1,-1.357360005E0,4.969301522E-1,6.037390709E0
1.302548000E1,3.238283992E-1,3.590404034E0,3.441789389E0
1.304548000E1,-1.516708612E0,3.544781208E0,4.314803123E0
1.306548000E1,6.808180213E-1,2.875272751E0,2.780868053E0
1.308548000E1,2.293798923E0,2.913198948E0,1.943598688E-1
1.308947844E1,-1.377064735E-2,-1.272571921E0,-1.965764314E-1
1.310948312E1,-2.178170830E-1,-1.211293459E0,-2.164208293E-1
1.313147688E1,-4.303458333E-1,-8.137422800E-1,-1.069363207E-1
1.315147688E1,-5.339486003E-1,-3.429920971E-1,1.118232459E-1
1.317147844E1,-5.104564428E-1,-1.649510711E-1,5.466894507E-1
1.319147844E1,-3.872885704E-1,-4.760211110E-1,8.848121166E-1
1.321347844E1,-1.725257933E-1,-9.984679818E-1,8.963487148E-1
1.323348000E1,-4.216715321E-2,-1.010039449E0,7.978947163E-1
1.325547688E1,-6.407103688E-2,-6.944839358E-1,7.113787532E-1
1.327548469E1,-1.916720569E-1,-1.135738134E0,5.665513277E-1
1.329747844E1,-6.265557408E-1,-2.216009617E0,3.610911667E-1
1.331748312E1,-9.994104505E-1,-2.079420090E0,4.410796165E-1
1.333947688E1,-1.126383185E0,-1.287442088E0,4.976108074E-1
1.335948156E1,-1.092035055E0,-7.491127849E-1,4.980820715E-1
1.338147844E1,-1.012500405E0,-8.844630718E-1,4.329289198E-1
1.340347844E1,-9.492671490E-1,-1.257596970E0,3.786666393E-1
1.342347844E1,-9.085136652E-1,-1.112420559E0,2.885203660E-1
1.344547844E1,-9.398248792E-1,-3.314729333E-1,6.871361285E-2
1.346748000E1,-9.399470687E-1,-1.110552996E-1,3.186971322E-2
1.348947844E1,-7.692713141E-1,-1.129926145E-1,1.154535264E-1
1.351147688E1,-3.618940115E-1,3.206169978E-2,1.536936909E-1
1.353147844E1,-3.302162886E-2,1.438151300E-1,-5.340707488E-3
1.355147844E1,7.775441557E-2,-2.161415666E-1,-2.796541154E-1
1.357347844E1,4.546582699E-2,-5.750162005E-1,-4.191582799E-1
1.359348000E1,-1.642354764E-2,-7.795338631E-1,-3.335324228E-1
1.361549719E1,-1.018923223E-1,-7.601432204E-1,-2.361954004E-1
1.363747688E1,-3.226590157E-1,-1.618286729E0,-1.610764414E-1
1.365748625E1,-5.376137495E-1,-1.651430488E0,-5.377359316E-2
1.367947688E1,-5.597794652E-1,-1.088422179E0,2.231403440E-1
1.369948469E1,-5.628163218E-1,-4.389154017E-1,5.064072609E-1
1.372147844E1,-3.955614269E-1,4.429471195E-1,1.083587646E0
1.374148469E1,-1.220159680E-1,1.042834282E0,1.507074356E0
1.376347844E1,2.225818336E-1,1.179685473E0,1.561162114E0
1.378347844E1,3.356093466E-1,1.668028593E0,1.173123002E0
1.380547844E1,-9.505063295E-2,1.153872013E0,-1.248259470E-1
1.382747688E1,-3.546509147E-1,1.089102864E0,-1.059641719E0
1.384747688E1,-1.239183769E-1,1.558962941E0,-6.932971478E-1
1.386747688E1,-1.478119344E-1,1.816503763E0,-3.249977529E-1
1.388747688E1,-6.292435527E-1,1.664782286E0,-3.882135749E-1
1.390748312E1,-9.229301214E-1,1.211817026E0,-5.326220989E-1
1.392947844E1,-6.104812622E-1,8.162730336E-1,-5.607393980E-1
1.395147844E1,-1.808859259E-1,5.602506995E-1,-6.519328356E-1
1.397348313E1,-1.014036313E-1,8.191179037E-1,-8.155050874E-1
1.399547844E1,-1.398881376E-1,7.429168224E-1,-5.718571544E-1
1.401549875E1,-2.528982051E-2,6.053150892E-1,-2.008175850E-1
1.403747844E1,1.836958975E-1,9.009563923E-1,1.293638051E-1
1.405747844E1,1.462411433E-1,9.120566845E-1,1.643052995E-1
1.407947844E1,2.330363542E-1,4.576427937E-1,2.104168981E-1
1.410147844E1,5.076639056E-1,-4.342029989E-1,2.195798755E-1
1.412348156E1,5.842314959E-1,-1.235309124E0,1.473407000E-1
1.414547844E1,7.349930406E-1,-1.289396882E0,1.213352904E-1
1.416547844E1,9.324072599E-1,-7.085687518E-1,1.432915330E-1
1.418547844E1,8.195891380E-1,-1.336224079E-1,-4.021238536E-2
1.420548156E1,5.675635934E-1,-6.429792941E-2,2.935643867E-2
1.422747688E1,9.838595390E-1,-7.930775881E-1,1.061683744E-1
1.424748781E1,1.353415608E0,-1.836889267E0,-5.245412588E-1
1.426947688E1,1.138076782E0,-3.503154993E0,-1.190960288E0
1.428948156E1,7.207337022E-1,-4.035794735E0,-8.124333024E-1
1.431147844E1,4.689874351E-1,-2.201209307E0,5.707750320E-1
1.433347844E1,3.937811852E-1,-4.970697686E-2,1.168340802E0
1.435347844E1,5.819451213E-1,-4.961447418E-1,7.722733021E-1
1.437347844E1,5.160938501E-1,4.464901388E-1,2.610488832E-1
1.439347844E1,2.169444263E-1,1.019953012E0,2.092126161E-1
1.441348625E1,-3.802025318E-1,8.837474585E-1,2.104343474E-1
1.443547844E1,-5.553288460E-1,3.321012557E-1,6.556503773E-1
1.445548625E1,-4.619013965E-1,1.743932962E-1,8.625591397E-1
1.447747844E1,-3.628015816E-1,6.399249434E-1,7.419045568E-1
1.449947844E1,-3.003362417E-1,6.010041237E-1,6.975208521E-1
1.451947844E1,-2.434734255E-2,3.900461793E-1,7.358482480E-1
1.454147688E1,3.844785690E-1,2.371553332E-1,5.502848625E-1
1.456147688E1,6.026622057E-1,1.813396998E-2,2.236988544E-1
1.458147688E1,4.803495109E-1,-2.971772254E-1,-4.352851212E-2
1.460147688E1,3.195872307E-1,-2.667910159E-1,-5.602506921E-3
1.462147844E1,1.709550023E-1,-2.471560687E-1,2.240479141E-1
1.464147844E1,-1.987930015E-2,-5.325697660E-1,3.495196402E-1
1.466148312E1,-1.599594206E-1,-8.122064471E-1,2.180963457E-1
1.468347844E1,-1.149997413E-1,-7.416951060E-1,3.714060783E-2
1.470347844E1,6.736970693E-2,-7.144505382E-1,-5.023057386E-2
1.472547844E1,1.686337143E-1,-8.176692724E-1,3.961897455E-3
1.474548313E1,-2.010619268E-2,-1.050042391E0,9.482374042E-2
1.476747688E1,-1.199564785E-1,-4.697030187E-1,3.978827000E-1
1.478748000E1,7.613126189E-2,1.831199378E-1,5.552241206E-1
1.480947688E1,2.500184178E-1,4.796339273E-1,1.286482215E-1
1.482947688E1,-1.713040620E-1,1.296779606E-2,-5.687155128E-1
1.484947844E1,-5.556604862E-1,-3.096214123E-2,-5.729566813E-1
1.486948156E1,-5.074544549E-1,2.652376890E-1,-3.118379712E-1
1.489147844E1,-3.376165032E-1,2.657263875E-1,-2.033308521E-2
1.491148469E1,-3.246836066E-1,-1.203229949E-1,-1.254891753E-1
1.493347844E1,-3.471110761E-1,-2.579771280E-1,-4.610636234E-1
1.495348156E1,-2.966012657E-1,6.379178166E-2,-5.244539976E-1
1.497547688E1,-2.111499310E-1,4.746073782E-1,-3.747920096E-1
1.499547688E1,-1.295732409E-1,5.160240531E-1,-2.483603507E-1
1.501549719E1,-7.831292599E-2,3.858922794E-2,-2.547133565E-1
1.503747844E1,8.737118542E-2,-2.708401978E-1,-3.043679595E-1
1.505947688E1,3.761533499E-1,-2.144660652E-1,-2.669306695E-1
1.507947844E1,5.159193277E-1,-7.456046343E-2,-1.957037747E-1
1.509947844E1,4.042182565E-1,-4.567526653E-2,-1.070759520E-1
1.511947844E1,2.699849904E-1,-1.360833198E-1,-7.045894116E-2
1.513947844E1,2.474527806E-1,-2.129825205E-1,-1.794023961E-1
1.516147844E1,2.397384197E-1,-1.957910359E-1,-3.049962819E-1
1.518147844E1,1.360833198E-1,-2.054950595E-1,-3.319267035E-1
1.520347844E1,1.734159142E-1,-2.998475730E-2,-1.927890629E-1
1.522347844E1,2.193529755E-1,1.870120317E-1,-4.450589418E-3
1.524348000E1,9.194394201E-2,1.609891653E-1,7.028441131E-2
1.526547688E1,-1.221730490E-3,8.405505866E-2,7.864453644E-2
1.528548312E1,1.719672978E-1,2.888170779E-1,1.785471886E-1
1.530747688E1,4.350931346E-1,2.017949671E-1,2.331410795E-1
1.532748156E1,1.165007278E-1,-5.636889935E-1,4.249876738E-2
1.534947844E1,-3.748792708E-1,-9.488133192E-1,-1.634849906E-1
1.537147688E1,-3.270747066E-1,-4.088084698E-1,-2.706831098E-1
1.539147844E1,-1.677435935E-1,1.813397110E-1,-2.495820820E-1
1.541347844E1,-2.769314051E-1,3.181560636E-1,-2.035402954E-1
1.543548469E1,-4.715879560E-1,2.959380150E-1,-1.165879965E-1
1.545747688E1,-3.236713111E-1,3.014881611E-1,6.887069345E-2
1.547747688E1,5.030038953E-2,3.171786964E-1,1.723163575E-1
1.549747688E1,2.850471735E-1,2.860071063E-1,1.698554456E-1
1.551748469E1,2.748893499E-1,2.410648763E-1,1.412145942E-1
1.553947844E1,2.170840502E-1,1.470265388E-1,1.094321460E-1
1.555948469E1,2.504547536E-1,-1.685987972E-2,1.830675900E-1
1.558147688E1,3.338814974E-1,-7.717845589E-2,1.838529855E-1
1.560148156E1,2.187944800E-1,-7.002261281E-2,4.614650458E-2
1.562348000E1,3.316125658E-4,-5.199335888E-2,-1.098859310E-1
1.564547844E1,-2.415535599E-2,-5.253440887E-2,-1.310393214E-1
1.566547844E1,3.680899367E-2,-8.313003182E-2,-8.616690338E-2
1.568747844E1,6.108652335E-3,-1.160469428E-1,-4.366813600E-2
1.570948156E1,-1.290845573E-1,-1.961575598E-1,-5.241223797E-2
1.573147688E1,-1.594532728E-1,-4.917988777E-1,-7.115707546E-2
1.575147844E1,-1.382824332E-1,-5.991715193E-1,-1.382300705E-1
1.577347844E1,-1.594358236E-1,-3.583509922E-1,-1.815316975E-1
1.579347844E1,-1.180889755E-1,-1.935570091E-1,-1.453335732E-1
1.581347844E1,-1.860695481E-1,-3.580892086E-1,-1.944296807E-1
1.583347844E1,-5.141391158E-1,-7.289716601E-1,-3.444232643E-1
1.585347844E1,-5.462706089E-1,-5.902180076E-1,-3.500781357E-1
1.587347844E1,-1.835039109E-1,1.654572040E-2,-1.334653348E-1
1.589547844E1,7.972663641E-2,1.399579495E-1,-1.323483139E-1
1.591549719E1,-1.553692073E-1,-2.572615445E-1,-1.754230410E-1
1.593747688E1,-3.128677309E-1,-5.527108908E-1,-4.324053228E-1
1.595748156E1,-2.427054793E-1,-3.361155093E-1,-6.875026226E-1
1.597947688E1,-2.588672340E-1,2.472084314E-1,-8.430638313E-1
1.599948156E1,-4.459316134E-1,5.892406106E-1,-8.007919788E-1
1.602147844E1,-3.436553180E-1,5.033529401E-1,-5.834112167E-1
1.604148469E1,-4.359832406E-2,3.318743706E-1,-4.545011818E-1
1.606347844E1,2.454805523E-1,-1.549852360E-2,-4.230329096E-1
1.608547844E1,3.666413128E-1,-1.183507740E-1,-4.371526241E-1
1.610747844E1,5.791525841E-1,-1.197819486E-1,-3.615624011E-1
1.612747844E1,7.396879792E-1,-2.373124212E-1,-2.176600099E-1
1.614948000E1,7.025473714E-1,-5.038067698E-1,-9.615018964E-2
1.617147844E1,5.354670286E-1,-6.617939472E-1,-1.981297731E-1
1.619347844E1,4.838052690E-1,-4.280245304E-1,-2.951526344E-1
1.621347844E1,5.844409466E-1,2.336995862E-2,-2.393719107E-1
1.623348781E1,6.276029348E-1,3.837629855E-1,-1.518785506E-1
1.625547688E1,2.980149686E-1,5.798856616E-1,-2.426007576E-2
1.627547844E1,4.169591516E-2,5.474050641E-1,2.769837528E-2
1.629547844E1,1.631010175E-1,5.255535245E-1,1.393296272E-1
1.631549719E1,3.612482548E-1,5.926091075E-1,4.246037006E-1
1.633747844E1,4.348662496E-1,4.121420383E-1,7.360926270E-1
1.635747844E1,2.195624262E-1,-1.980075985E-1,6.386857629E-1
1.637947688E1,-2.644173801E-1,-4.242197275E-1,6.309365481E-2
1.639947688E1,-4.847826660E-1,5.792747810E-2,-3.576703370E-1
1.641947844E1,-5.539500713E-1,5.103167892E-1,-3.574434221E-1
1.643948156E1,-5.612106323E-1,6.671171784E-1,-3.649483621E-2
1.646147844E1,-4.929333329E-1,6.111968756E-1,2.580120265E-1
1.648148312E1,-3.089581728E-1,5.085016489E-1,4.889889061E-1
1.650347844E1,9.564404190E-2,4.553040266E-1,6.546031833E-1
1.652347844E1,3.907268643E-1,3.324677646E-1,6.972590089E-1
1.654347844E1,4.431740046E-1,2.120749503E-1,6.828251481E-1
1.656348312E1,3.311936855E-1,1.230980754E-1,5.984035730E-1
1.658547844E1,2.527411282E-1,8.683013171E-2,5.203000903E-1
1.660547844E1,1.981297731E-1,1.192583442E-1,3.462558687E-1
1.662547844E1,1.220683306E-1,1.856855750E-1,7.075564563E-2
1.664547844E1,5.044001341E-2,1.177050024E-1,-7.998844236E-2
1.666547844E1,-8.922123164E-2,-1.619665511E-2,-2.028072625E-2
1.668547844E1,-3.001966178E-1,-9.714502841E-2,5.672319978E-2
1.670548156E1,-3.060434759E-1,-1.898045540E-1,4.569271952E-2
1.672747688E1,8.400269598E-2,-3.002140820E-1,5.785766616E-2
1.674747844E1,2.915048897E-1,-4.272391498E-1,1.695761830E-1
1.676747844E1,7.147122920E-2,-4.961098433E-1,2.547482550E-1
1.678947844E1,-1.580046564E-1,-2.232625186E-1,2.906671464E-1
1.681147844E1,-1.623505205E-1,-1.108284071E-1,2.392322868E-1
1.683347844E1,-2.599667907E-1,-5.501103401E-1,-9.442231618E-3
1.685348469E1,-5.274733901E-1,-1.119419217E0,-3.692243993E-1
1.687547844E1,-3.647738099E-1,-7.849792838E-1,-2.457772642E-1
1.689548156E1,2.293362617E-1,4.973315597E-1,2.901609838E-1
1.691549719E1,7.336142659E-1,3.693465889E-1,2.147278637E-1
1.693748156E1,2.889218032E-1,-2.200511098E-1,-6.464699656E-2
1.695947844E1,-3.695211112E-1,-1.204800755E-1,-5.308418870E-1
1.697948469E1,-5.365316868E-1,3.436727822E-1,-5.515763760E-1
1.700147844E1,-3.793123960E-1,7.164925337E-1,-2.715557814E-1
1.702148000E1,-1.629613936E-1,6.114586592E-1,-9.527752548E-2
1.704347688E1,-5.288347602E-3,2.502976656E-1,-1.059414819E-2
1.706348000E1,1.105317026E-1,3.920009360E-2,2.855358645E-2
1.708547844E1,2.014808059E-1,1.083849445E-1,5.818927661E-2
1.710547844E1,1.918989569E-1,2.964267135E-1,5.148721393E-3
1.712547844E1,1.353153735E-1,3.756472170E-1,-1.247037724E-1
1.714547844E1,7.456046343E-2,2.972121239E-1,-1.814967841E-1
1.716547844E1,-2.333505265E-2,1.675341576E-1,-1.160469428E-1
1.718548312E1,-5.639158934E-2,9.402088821E-2,-1.195550524E-2
1.720747688E1,1.360484213E-1,1.141445339E-2,8.340928704E-2
1.722747688E1,1.895427555E-1,1.019970402E-1,1.366069168E-1
1.724747844E1,-2.837905288E-2,2.068215162E-1,1.499935985E-1
1.726747844E1,-1.702394187E-1,8.239699155E-2,1.887049973E-1
1.728747844E1,-1.137081981E-1,-1.239881888E-1,2.973517478E-1
1.730747844E1,6.372196972E-2,-9.807004780E-2,3.433935344E-1
1.732747844E1,2.258106917E-1,2.360557765E-1,4.255112708E-1
1.734947844E1,1.785471886E-1,4.225442111E-1,5.951398015E-1
1.736948156E1,-2.397558838E-1,-1.365022063E-1,4.894775748E-1
1.739147844E1,-7.647508979E-1,-6.946585178E-1,1.107935011E-1
1.741347844E1,-6.765594482E-1,-4.485321641E-1,8.429939859E-3
1.743347844E1,-2.114466429E-1,5.171585083E-1,1.114916354E-1
1.745547844E1,3.063052893E-2,5.375090241E-1,7.103490178E-3
1.747748156E1,-1.556484550E-1,2.228785455E-1,-4.633849114E-2
1.749947688E1,-3.443011045E-1,5.923647434E-2,1.446354389E-1
1.751947688E1,-2.001020014E-1,2.037846446E-1,3.144385219E-1
1.753947688E1,9.250245243E-2,3.361678720E-1,3.696956336E-1
1.755947688E1,2.419549972E-1,2.465975732E-1,3.439694941E-1
1.757947844E1,1.792802215E-1,6.579891313E-3,2.636319697E-1
1.760147844E1,2.790781483E-2,-1.563291401E-1,1.552470326E-1
1.762348000E1,-3.426081315E-2,-2.316749990E-1,6.914994121E-2
1.764348312E1,-1.603957638E-2,-2.251300216E-1,2.820452116E-2
1.766547844E1,5.014330894E-2,-1.242499873E-1,-4.028219730E-2
1.768548000E1,1.016479731E-1,-1.209687665E-1,-7.463027537E-2
1.770747688E1,8.382816613E-2,-1.865931451E-1,-6.979571283E-2
1.772747844E1,-2.350958437E-2,-1.617047489E-1,-8.576548100E-2
1.774747844E1,-2.294933498E-1,-1.396612525E-1,-1.081406027E-1
1.776747844E1,-3.319267035E-1,-1.751786917E-1,-1.267458051E-1
1.778947844E1,-3.710569814E-2,-1.609368026E-1,-1.080882400E-1
1.781147688E1,3.304955363E-1,-6.457718089E-3,-1.888446324E-2
1.783147688E1,3.466573060E-1,9.505063295E-2,3.448770568E-2
1.785147688E1,7.183775306E-2,8.719664812E-2,-7.038912922E-2
1.787147688E1,-3.752108812E-1,-1.103571653E-1,-2.441890091E-1
1.789147844E1,-6.729117036E-1,-2.064026296E-1,-1.366767287E-1
1.791347844E1,-2.316226512E-1,1.017003357E-1,1.379508227E-1
1.793348000E1,4.131019711E-1,7.360053062E-2,2.445555329E-1
1.795547844E1,4.358087182E-1,-3.484375179E-1,1.398881376E-1
1.797548156E1,8.604473434E-3,-3.003362417E-1,-1.576206833E-1
1.799747688E1,-3.943746090E-1,1.361182332E-1,-4.033106863E-1
1.801747844E1,-4.313057661E-1,4.898790121E-1,-3.861540854E-1
1.803747844E1,-2.020916790E-1,5.076639056E-1,-2.694439292E-1
1.805748156E1,2.801253460E-2,3.075444698E-1,-1.931905001E-1
1.807947844E1,1.124166548E-1,8.368853480E-2,-1.813920736E-1
1.809948469E1,9.930923581E-3,1.313011199E-1,-1.481435448E-1
1.812147688E1,-9.759881347E-2,3.341258168E-1,-8.602727950E-2
1.814148000E1,7.190756500E-3,4.043927789E-1,-2.350958437E-2
1.816347688E1,2.867401540E-1,3.347192407E-1,-8.098327555E-3
1.818348156E1,3.393967152E-1,2.443809956E-1,-8.991936594E-2
1.820547688E1,8.688248694E-2,2.401049435E-1,-1.641831249E-1
1.822547844E1,-1.559800804E-1,2.494250089E-1,-6.819001585E-2
1.824547844E1,-2.087937444E-1,2.534741759E-1,1.479864717E-1
1.826547844E1,-1.048942879E-1,1.616174877E-1,3.229382634E-1
1.828747688E1,5.473352596E-2,-1.754579544E-1,2.522000670E-1
1.830748156E1,5.883504823E-2,-4.974013865E-1,3.394665569E-2
1.832947688E1,3.506366536E-2,-4.486717880E-1,-2.713987045E-2
1.834947844E1,1.082104146E-1,-1.196772233E-1,1.854237765E-1
1.836947844E1,1.457524449E-1,7.531096041E-2,3.889117241E-1
1.838948156E1,3.965387866E-2,-2.385865152E-1,1.841845959E-1
1.841147688E1,-1.506219152E-2,-3.909712136E-1,-6.167993695E-2
1.843147688E1,2.223549411E-2,-1.245990545E-1,-8.606218547E-2
1.845147844E1,-5.166174471E-2,1.160120368E-1,-6.544984877E-3
1.847348156E1,-3.110176623E-1,2.467546463E-1,7.679449022E-2
1.849547688E1,-4.462632239E-1,3.924023807E-1,1.908342987E-1
1.851550031E1,-3.035127521E-1,5.902878046E-1,3.417703807E-1
1.853747844E1,-4.448844120E-2,6.373593211E-1,5.268101692E-1
1.855747844E1,9.948376566E-2,5.083620548E-1,6.379178166E-1
1.857947844E1,1.241278127E-1,3.038792610E-1,6.803467870E-1
1.860147844E1,8.049458265E-2,1.048768312E-1,5.681570172E-1
1.862349094E1,9.402088821E-2,3.537782282E-2,3.591538668E-1
1.864547844E1,1.860171854E-1,-2.745402977E-2,2.059313953E-1
1.866548000E1,2.611012459E-1,-8.724901080E-2,1.616698503E-1
1.868747844E1,9.004153311E-2,-2.994984947E-2,9.773843922E-3
1.870947844E1,-2.143962383E-1,4.202752933E-2,-1.355946362E-1
1.873147688E1,-2.241351753E-1,-4.167846218E-2,-1.922829300E-1
1.875147844E1,2.940879762E-2,-1.780934036E-1,-1.091005281E-1
1.877148000E1,1.996831149E-1,-2.272593230E-1,6.806783844E-3
1.879347844E1,1.389805675E-1,-2.191609889E-1,4.852015153E-2
1.881348000E1,-2.296853252E-2,-1.593834609E-1,4.815363511E-2
1.883547844E1,-6.061528623E-2,-3.874630854E-2,1.099382862E-1
1.885547844E1,4.721115530E-2,-1.287703961E-1,2.338566631E-1
1.887547844E1,-5.900958180E-2,-6.135705113E-1,2.856754959E-1
1.889748469E1,-4.029092491E-1,-9.499652386E-1,2.415012121E-1
1.891947844E1,-3.199712038E-1,-5.609488487E-1,2.264390141E-1
1.893947844E1,8.386307210E-2,4.981867671E-1,1.785820872E-1
1.896147844E1,2.586752474E-1,2.761634588E-1,-2.707005665E-2
1.898347844E1,-2.028072625E-1,-2.681000233E-1,-3.488214910E-1
1.900548000E1,-5.302833915E-1,-3.256959021E-1,-5.637413263E-1
1.902747688E1,-5.615073442E-1,-2.349736691E-1,-3.706381321E-1
1.904747844E1,-4.407305419E-1,3.760486245E-1,-2.505071163E-1
1.906947844E1,-2.662499845E-1,6.652671695E-1,-2.731265724E-1
1.909147844E1,-3.003537059E-1,5.316621661E-1,-4.091226161E-1
1.911148781E1,-3.035302162E-1,3.383844197E-1,-4.414810240E-1
1.913347844E1,-2.280796319E-1,2.061059326E-1,-4.090353549E-1
1.915348469E1,-3.200584650E-1,4.025776386E-1,-5.642474890E-1
1.917547688E1,-5.916840434E-1,3.761184514E-1,-4.401371181E-1
1.919548313E1,-6.855129600E-1,3.438473046E-1,-3.196221590E-1
1.921549719E1,-6.758962274E-1,9.967575222E-2,-2.423215061E-1
1.923747844E1,-8.017344475E-1,-3.109652996E-1,-1.400452256E-1
1.925747844E1,-1.047023058E0,-5.206317306E-1,-1.873087287E-1
1.927748781E1,-1.225343347E0,-6.668204665E-1,-4.542917609E-1
1.929947688E1,-1.170260668E0,-6.667855978E-1,-7.340505719E-1
1.931948312E1,-1.004210114E0,-4.389154017E-1,-5.780530572E-1
1.934147688E1,-9.028239250E-1,-1.955641359E-1,-1.852667034E-1
1.936148625E1,-8.408472538E-1,-1.228711754E-2,-2.007303238E-1
1.938347844E1,-7.992211580E-1,-3.711268008E-1,-1.620014608E-1
1.940348000E1,-6.038315296E-1,-7.763050199E-1,1.318770796E-1
1.942547844E1,-3.033382259E-2,-1.222097039E0,3.396410644E-1
1.944547844E1,4.677133262E-1,-1.061858296E0,1.293114424E-1
1.946747844E1,8.288219571E-1,-6.107605100E-1,-5.773549154E-2
1.948747844E1,9.197361469E-1,-6.473426521E-2,4.574507847E-2
1.950947844E1,8.583005667E-1,3.898716569E-1,2.199638486E-1
1.953147844E1,7.146425247E-1,5.828352571E-1,3.753505051E-1
1.955148469E1,5.927836299E-1,7.701963186E-1,5.485919118E-1
1.957347844E1,7.437546253E-1,8.589987159E-1,7.482924461E-1
1.959348156E1,1.202147841E0,1.221206903E0,8.685631156E-1
1.961549562E1,1.507912159E0,1.384238124E0,8.699244857E-1
1.963747844E1,1.239986658E0,3.130073547E-1,7.193025351E-1
1.965948312E1,4.545186460E-1,-1.527163107E-2,5.673542023E-1
1.968147844E1,-1.671676338E-1,2.355321795E-1,5.288696885E-1
1.970347844E1,-5.916317105E-1,5.963790044E-2,5.340881944E-1
1.972547844E1,-6.496464610E-1,1.047895700E-1,5.250997543E-1
1.974547844E1,-4.553389549E-1,1.960004680E-2,4.872086644E-1
1.976547844E1,-1.546536237E-1,5.063199997E-2,4.320038855E-1
1.978547844E1,3.743731230E-2,3.351032268E-3,3.214721978E-1
1.980547844E1,8.307766914E-2,-7.819075137E-2,2.456725389E-1
1.982548312E1,1.045452207E-1,3.600614145E-2,1.595579982E-1
1.984747844E1,9.192649275E-2,6.435029209E-2,2.216568217E-2
1.986947688E1,3.741985932E-2,7.593927532E-2,-4.380776361E-2
1.988947688E1,-7.325147092E-2,-9.899507463E-2,-1.130449772E-1
1.990948469E1,-3.200061023E-1,-7.375935912E-1,-2.023534775E-1
1.993147688E1,-4.979598820E-1,-9.317963719E-1,-3.371103406E-1
1.995147844E1,-1.310218722E-1,-2.081305087E-1,-3.916344345E-1
1.997347844E1,5.440191031E-1,4.387757555E-2,-5.572836101E-2
1.999347844E1,7.726921439E-1,-3.659606278E-1,1.535017043E-1
2.001347844E1,4.761781693E-1,-4.635769129E-1,-4.963716492E-2
2.003348781E1,2.202605456E-2,-1.315280050E-1,-3.194301724E-1
2.005547844E1,-3.068986833E-1,2.923949957E-1,-3.296054304E-1
2.007548312E1,-2.929360569E-1,4.695284665E-1,-1.681799293E-1
2.009747844E1,-6.323327869E-2,2.912605405E-1,-1.780235767E-2
2.011748000E1,9.902998060E-2,1.416160166E-1,2.087413706E-2
2.013947844E1,1.378286481E-1,1.803099662E-1,-1.129577085E-1
2.016147688E1,1.270599663E-1,3.267430961E-1,-2.123542130E-1
2.018147844E1,1.492605507E-1,2.725855112E-1,-2.004336119E-1
2.020347844E1,2.001718134E-1,1.001818944E-2,-2.063677311E-1
2.022348000E1,1.855983138E-1,-9.267698228E-2,-2.114117295E-1
2.024348469E1,1.310916841E-1,4.857251421E-2,-2.337170392E-1
2.026548469E1,8.415977657E-2,2.482381761E-1,-3.394665420E-1
2.028747688E1,1.366069168E-1,2.224771231E-1,-2.682571113E-1
2.030748000E1,2.066993415E-1,2.174854726E-1,-7.476990670E-2
2.032947688E1,1.794023961E-1,2.191435397E-1,1.692794859E-1
2.034947844E1,9.960594028E-2,1.322610527E-1,2.540152073E-1
2.036947844E1,3.956661373E-2,1.555786431E-1,7.398450375E-2
2.038947844E1,3.947934881E-2,3.054849803E-1,-1.111600175E-1
2.041147688E1,6.412339956E-2,1.727701426E-1,2.200860158E-2
2.043148625E1,4.241149873E-3,-1.773254573E-1,2.952049971E-1
2.045347844E1,-1.353502870E-1,-4.562639594E-1,3.170914054E-1
2.047348469E1,-1.151393726E-1,1.425933987E-1,2.392148226E-1
2.049547844E1,-1.848303713E-2,7.705279589E-1,1.520356238E-1
2.051550344E1,-9.487609565E-2,5.259200335E-1,9.634217247E-3
2.053747844E1,-2.071182281E-1,3.017674200E-2,2.419026382E-2
2.055748156E1,-2.062979192E-1,-1.762084365E-1,1.255589873E-1
2.057947844E1,-1.490860283E-1,-1.029744279E-2,2.746275663E-1
2.059947844E1,-1.701346934E-1,2.004161626E-1,3.320837915E-1
2.061947844E1,-2.498438805E-1,1.572367102E-1,3.038269281E-1
2.063947844E1,-2.918713987E-1,1.513200440E-2,2.336821258E-1
2.065947844E1,-1.583362669E-1,-9.260717034E-2,1.422268748E-1
2.067947844E1,4.267330095E-2,-9.937904775E-2,1.409353316E-1
2.070147844E1,1.223650351E-1,2.478367416E-3,1.314407438E-1
2.072147844E1,7.731808349E-3,-5.340707488E-3,-9.075712296E-4
2.074147844E1,-1.503775716E-1,-2.019345947E-2,-1.312487572E-1
2.076147844E1,-1.936268210E-1,-1.206546128E-1,-1.791231334E-1
2.078148625E1,-8.838347346E-2,-1.007927656E-1,-5.806710571E-2
2.080347844E1,1.872738265E-2,-1.763829738E-1,1.773079932E-1
2.082348781E1,3.019419685E-2,-2.587625086E-1,2.581167519E-1
2.084548000E1,-2.912954427E-2,-2.959903777E-1,1.352804750E-1
2.086747844E1,-4.166100919E-2,-3.757868409E-1,6.422811653E-3
2.088747844E1,6.462953985E-2,-3.059911132E-1,8.878489584E-2
2.090747844E1,1.048768312E-1,-3.656464815E-1,1.315629184E-1
2.092747844E1,-1.606575549E-1,-5.814738870E-1,-7.260569837E-3
2.094748000E1,-4.860742092E-1,-4.824438989E-1,-2.112895548E-1
2.096947844E1,-3.573910594E-1,4.827580601E-2,-6.752678752E-2
2.098948625E1,8.347909898E-2,2.152689099E-1,2.074323744E-1
2.101147844E1,3.350508511E-1,-2.248856723E-1,2.239257395E-1
2.103147844E1,1.136907488E-1,-2.504198253E-1,-1.210385859E-1
2.105147844E1,-2.498613298E-1,1.529955566E-1,-4.215144515E-1
2.107147844E1,-4.910832942E-1,4.081976116E-1,-4.821122885E-1
2.109147844E1,-5.126730204E-1,4.355294704E-1,-3.372150660E-1
2.111147844E1,-4.090179205E-1,2.672273517E-1,-1.516516656E-1
2.113147844E1,-3.260449469E-1,1.564687639E-1,-1.229060888E-1
2.115147844E1,-2.426356673E-1,1.623854339E-1,-7.087782025E-2
2.117148312E1,-1.751263440E-1,2.288126647E-1,1.256637042E-3
2.119348000E1,-3.288200125E-2,5.346466899E-1,7.091272622E-2
2.121348781E1,7.213445753E-2,2.300169468E-1,2.991494350E-2
2.123548000E1,2.356892675E-1,-3.385938704E-3,1.523672417E-2
2.125748000E1,3.111572862E-1,-5.700245500E-2,-1.589645892E-1
2.127948469E1,2.296853215E-1,-5.450663343E-2,-3.540923893E-1
2.130147844E1,1.161516607E-1,1.298175901E-1,-3.167597950E-1
2.132147844E1,3.385938704E-2,1.165007278E-1,-1.553692073E-1
2.134147844E1,6.372196972E-2,8.185594343E-3,8.155923337E-2
2.136148781E1,2.900388241E-1,-4.899139330E-2,2.017949671E-1
2.138348000E1,3.711093664E-1,-2.489886731E-1,-9.122835845E-2
2.140348312E1,2.264564633E-1,-3.818780556E-2,-4.738568962E-1
2.142547844E1,4.290891886E-1,2.537359595E-1,-3.952123523E-1
2.144548781E1,7.020936012E-1,5.259374976E-1,-2.090380788E-1
2.146747844E1,5.563062429E-1,4.054399952E-2,-3.007376790E-1
2.148748781E1,1.629264802E-1,-4.389503002E-1,-4.249004126E-1
2.150947844E1,-2.470338941E-1,-1.418254524E-1,-2.298598588E-1
2.152947844E1,-6.515837908E-1,4.073598608E-2,5.066690966E-2
2.154947844E1,-1.237159133E0,-3.560820818E-1,6.707300246E-2
2.156948312E1,-1.730214715E0,-7.550294399E-1,-4.169591516E-2
2.159147844E1,-1.783080697E0,-9.971938729E-1,-1.163960099E-1
2.161147844E1,-1.544494152E0,-1.013023973E0,-1.224348471E-1
2.163147844E1,-1.263129711E0,-8.677079082E-1,-2.914699726E-3
2.165147844E1,-9.512568116E-1,-1.046080589E0,2.833192945E-1
2.167147844E1,-5.662546158E-1,-8.625766039E-1,5.516811013E-1
2.169147844E1,-2.800380886E-1,-5.841616914E-2,6.938905716E-1
2.171148312E1,-2.607870996E-1,4.607320130E-1,5.703212619E-1
2.173348000E1,-2.065946162E-1,1.034805700E-1,5.680174232E-1
2.175348313E1,-5.902703479E-2,3.207915276E-2,5.437223911E-1
2.177547844E1,1.978156120E-1,1.360833198E-1,4.436103404E-1
2.179547844E1,4.112693965E-1,1.714262366E-1,3.154682517E-1
2.181549719E1,5.886646509E-1,8.832587600E-1,1.825439930E-1
2.183747844E1,6.427174807E-1,7.794640660E-1,-4.942772537E-2
2.185747844E1,5.938657522E-1,2.345722541E-2,-8.492772281E-2
2.187747844E1,4.540299475E-1,-1.896474808E-1,-4.188790335E-4
2.189747844E1,3.584382534E-1,1.335525960E-1,2.207841426E-1
2.191748938E1,1.852492392E-1,-8.630653471E-2,5.146976113E-1
2.193947844E1,8.054694533E-2,1.024682820E-1,7.268074751E-1
2.195948156E1,-7.168067247E-2,3.903428912E-1,6.189286709E-1
2.198147844E1,-3.188192844E-1,1.412320435E-1,1.801005304E-1
2.200148312E1,-3.048217595E-1,-1.268156171E-1,-2.196496874E-1
2.202348000E1,4.572762549E-2,4.478340447E-1,-2.253045589E-1
2.204350188E1,3.817034960E-1,3.865031600E-1,-1.064650808E-2
2.206547844E1,4.861963689E-1,-1.427504718E-1,-7.019714266E-2
2.208548000E1,4.692666829E-1,-2.321636975E-1,-2.672448158E-1
2.210747844E1,3.746349216E-1,-2.773328125E-2,-4.397880733E-1
2.212747844E1,2.535090744E-1,2.900737226E-1,-4.464552104E-1
2.214747844E1,1.660680771E-1,4.495968223E-1,-2.969677746E-1
2.216748312E1,1.746900082E-1,3.290643692E-1,-1.024508253E-1
2.218947844E1,2.463706732E-1,1.390852928E-1,8.168140426E-3
2.220948781E1,2.856231332E-1,-2.185152285E-2,-6.222098693E-2
2.223147844E1,2.457947135E-1,-1.489114910E-1,-2.104343474E-1
2.225148156E1,2.860943675E-1,-3.998549283E-1,-2.280796319E-1
2.227348000E1,4.486892521E-1,-2.348165959E-1,-1.857379377E-1
2.229547844E1,6.365739107E-1,2.269975245E-1,-9.459684789E-2
2.231549875E1,6.289468408E-1,5.447696447E-1,-8.377580345E-2
2.233747844E1,4.661948979E-1,4.936838448E-1,-1.021890268E-1
2.235749094E1,2.338392138E-1,4.538030624E-1,-1.461364180E-1
2.237947844E1,-1.078613475E-2,4.174129367E-1,-9.546951391E-3
2.239947844E1,-3.274935782E-1,2.371378839E-1,9.272934496E-2
2.241947844E1,-4.677133262E-1,4.550597072E-1,-1.151917279E-1
2.243947844E1,-3.407580853E-1,-3.532546386E-2,-3.427303135E-1
2.245947844E1,-1.497492474E-2,1.621061862E-1,-1.430646330E-1
2.247947844E1,2.525142431E-1,9.417796880E-2,2.321811467E-1
2.249947844E1,3.138101846E-2,-8.984954953E-1,1.941155195E-1
2.251947844E1,-2.057219595E-1,-1.398253083E0,-5.991715193E-2
2.253947844E1,-1.827883273E-1,-1.120902777E0,-1.274264902E-1
2.255947844E1,-2.914699726E-3,-4.996353984E-1,-5.846852902E-3
2.257947844E1,1.106538717E-2,-1.430820972E-1,1.184554994E-1
2.259948000E1,-2.670179307E-1,-1.361880451E-1,1.717403904E-2
2.262147844E1,-5.336867571E-1,-3.401297629E-1,-1.116487086E-1
2.264148625E1,-4.257730842E-1,-2.413441241E-1,4.195771366E-2
2.266347844E1,-8.129743487E-2,9.936159104E-2,3.912504613E-1
2.268347844E1,1.155233458E-1,1.718276590E-1,7.653617859E-1
2.270348000E1,2.404714674E-1,3.735353649E-1,8.256803751E-1
2.272348000E1,4.688827097E-1,7.241719961E-1,6.982713342E-1
2.274348000E1,5.383293629E-1,6.771179438E-1,5.203000903E-1
2.276548469E1,3.136531115E-1,1.473407000E-1,2.792003155E-1
2.278747844E1,8.616690338E-2,7.700392604E-2,1.127831787E-1
2.280748156E1,3.367089033E-1,6.040409803E-1,4.449891448E-1
2.282947688E1,8.303927779E-1,1.832421184E0,7.554657459E-1
2.284947688E1,1.161568999E0,1.934837103E0,7.002435327E-1
2.286947688E1,1.386105537E0,1.070550084E0,5.281366110E-1
2.288947688E1,1.395809650E0,8.419293761E-1,4.036946595E-1
2.290947844E1,1.088003397E0,1.096695065E0,2.118829638E-1
2.292947844E1,6.524564028E-1,8.837649226E-1,-1.501506716E-1
2.295147844E1,5.293932557E-1,5.130046010E-1,-1.694365591E-1
2.297147844E1,6.340606809E-1,6.458067298E-1,2.068389654E-1
2.299347844E1,5.340881944E-1,5.904972553E-1,4.221078753E-1
2.301348469E1,3.546509147E-2,1.118406951E-1,-1.043183282E-1
2.303547844E1,-2.478891164E-1,6.265731994E-3,-6.508856416E-1
2.305548469E1,-1.315978318E-1,3.733957410E-1,-5.123937726E-1
2.307747688E1,1.682671905E-1,8.197811246E-1,-3.333578818E-3
2.309748469E1,2.932502329E-1,5.775468946E-1,-7.522369176E-2
2.311947688E1,1.338667572E-1,-3.213151172E-2,-4.941550791E-1
2.313948625E1,-3.546159863E-1,-1.963320822E-1,-6.297322512E-1
2.316147844E1,-7.667056918E-1,-2.462659590E-2,-5.934468508E-1
2.318148156E1,-7.463377118E-1,2.912431061E-1,-5.841267705E-1
2.320347844E1,-6.865426898E-1,1.528035700E-1,-5.679650307E-1
2.322347844E1,-6.941523552E-1,-2.404714674E-1,-4.624598920E-1
2.324347844E1,-5.895547867E-1,-4.314453900E-1,-2.947337627E-1
2.326347844E1,-4.214097559E-1,-4.616570473E-1,-2.431592643E-1
2.328347844E1,-2.088810056E-1,-2.871241271E-1,-2.501231432E-1
2.330347844E1,2.319542505E-2,-2.276781946E-1,-2.240828276E-1
2.332347844E1,2.613804936E-1,-3.167947233E-1,-1.751786917E-1
2.334348000E1,4.617617726E-1,-5.674065351E-1,-8.429940045E-2
2.336348156E1,5.400747061E-1,-7.704581618E-1,6.380923837E-2
2.338547844E1,4.594404697E-1,-7.017968893E-1,2.291442752E-1
2.340548000E1,3.312460482E-1,-4.067315161E-1,3.775670826E-1
2.342747688E1,2.261772156E-1,-1.258382387E-2,4.760211110E-1
2.344747688E1,3.626793995E-2,-4.982915148E-2,5.004382730E-1
2.346747844E1,-2.615724802E-1,4.988151044E-2,4.317770004E-1
2.348747844E1,-4.825311899E-1,5.053251982E-1,3.367612660E-1
2.350747844E1,-5.769186020E-1,8.252440095E-1,3.530800939E-1
2.352747844E1,-5.552590489E-1,6.363295913E-1,4.845906794E-1
2.354747844E1,-4.309915900E-1,-3.058514893E-1,5.736722946E-1
2.356747844E1,-4.060333967E-1,-9.478010535E-1,4.879242480E-1
2.358748313E1,-4.240452051E-1,-9.377304912E-1,4.180063680E-2
2.360947844E1,-5.150466561E-1,-7.843683958E-1,-4.933696687E-1
2.362948469E1,-6.709918380E-1,-7.694633007E-1,-9.297543168E-1
2.365147688E1,-8.565901518E-1,-6.466096044E-1,-1.307007313E0
2.367147844E1,-1.029814124E0,-4.421268106E-1,-1.450595498E0
2.369147844E1,-1.137186766E0,-3.074572086E-1,-1.339313269E0
2.371148625E1,-1.025066733E0,-3.296403289E-1,-9.139590859E-1
2.373347844E1,-5.876523852E-1,-4.120722413E-1,-3.156777024E-1
2.375348625E1,1.315978263E-2,-4.842416048E-1,6.705555320E-2
2.377547844E1,4.870690405E-1,-4.159817696E-1,2.150071114E-1
2.379548781E1,5.054473281E-1,-5.901830792E-1,1.205673441E-1
2.381549719E1,3.414736688E-1,-5.505641103E-1,3.316125646E-2
2.383747844E1,2.660405338E-1,-3.022037446E-1,9.304349869E-2
2.385747844E1,3.041410744E-1,-1.761211753E-1,1.325926632E-1
2.387747844E1,4.580616653E-1,-1.207942367E-1,1.428901106E-1
2.389747844E1,6.543239355E-1,-1.824567169E-1,9.089674801E-2
2.391747844E1,7.864279151E-1,-2.920284867E-1,-5.733406544E-2
2.393747844E1,7.465296984E-1,-4.319515228E-1,-2.234021425E-1
2.395747844E1,5.090078115E-1,-5.485220551E-1,-3.587873280E-1
2.397748625E1,1.930334121E-1,-3.644247353E-1,-3.949854672E-1
2.399947844E1,-2.698278986E-2,1.108284108E-2,-2.019171417E-1
2.401948156E1,-3.253991902E-1,7.705628872E-2,-1.892984062E-1
2.404147844E1,-5.436002612E-1,-1.086816490E-1,-2.691297829E-1
2.406147844E1,-4.879067838E-1,-3.471459821E-2,-2.362477630E-1
2.408147844E1,-1.181762442E-1,3.106686175E-1,5.595525727E-2
2.410148312E1,4.292986393E-1,1.150521040E-1,5.042780042E-1
2.412347844E1,8.292757273E-1,-4.374318719E-1,6.648831964E-1
2.414348625E1,7.240498662E-1,-6.417052150E-1,2.143089771E-1
2.416547844E1,4.299443960E-1,-3.941127956E-1,-2.367888242E-1
2.418548312E1,2.408903390E-1,1.398183256E-1,-3.806912005E-1
2.420747688E1,1.463284045E-1,6.293832064E-1,-2.125461996E-1
2.422747688E1,7.185520232E-2,7.289541960E-1,1.534144394E-2
2.424747844E1,7.171557844E-2,3.311587572E-1,3.741985857E-1
2.426747844E1,3.324677646E-1,2.630036771E-1,6.932971478E-1
2.428947844E1,6.852511764E-1,3.625746965E-1,8.085935712E-1
2.430948000E1,9.176068306E-1,8.325744271E-1,7.042577863E-1
2.433147688E1,6.597868204E-1,1.389107585E0,3.711093664E-1
2.435148156E1,2.557780147E-1,1.265066981E0,2.451664060E-1
2.437347844E1,1.351931989E-1,9.912422895E-1,2.000845522E-1
2.439347844E1,2.511703372E-1,6.337290406E-1,-2.986258268E-2
2.441347844E1,5.075417161E-1,5.058138967E-1,-1.700997949E-1
2.443347844E1,5.982290506E-1,5.343499780E-1,-1.703964919E-1
2.445347844E1,4.401545823E-1,6.019989848E-1,-2.271895111E-1
2.447347844E1,6.096434966E-2,5.586100817E-1,-3.469714522E-1
2.449347844E1,-2.004859746E-1,1.719847471E-1,-2.901784480E-1
2.451347844E1,-1.884082854E-1,1.436929554E-1,-9.417796880E-2
2.453348156E1,-2.775073517E-3,4.763003588E-1,9.925687313E-2
2.455547844E1,8.288568258E-2,6.724753231E-2,3.347716033E-1
2.457547844E1,-1.204975322E-1,-6.595075727E-1,3.767118752E-1
2.459547844E1,-4.424409568E-1,-1.111477971E0,3.902730644E-1
2.461549719E1,-5.663244128E-1,-7.539124489E-1,2.580469251E-1
2.463747844E1,-4.694412053E-1,-2.898293734E-1,-1.701870561E-1
2.465748313E1,-4.624075294E-1,-2.112197429E-1,-6.272713542E-1
2.467947844E1,-5.501103401E-1,-3.769212961E-1,-8.207410574E-1
2.469947844E1,-6.008993983E-1,-4.243069887E-1,-7.164751291E-1
2.471947844E1,-5.608091950E-1,-3.981794119E-1,-4.513595998E-1
2.474147844E1,-3.218910694E-1,-4.846779257E-2,-1.155407950E-1
2.476347688E1,-8.220500313E-3,2.621659040E-1,1.439373046E-1
2.478348625E1,1.510582417E-1,9.253735840E-2,1.496794373E-1
2.480547844E1,1.874658167E-1,-1.438325793E-1,5.496041849E-2
2.482747844E1,1.532922685E-1,-2.495471686E-1,6.215117499E-2
2.484747844E1,1.581268385E-2,-4.443608224E-2,1.716880351E-1
2.486747844E1,-1.802401543E-1,2.065073550E-1,2.268229872E-1
2.488947688E1,-3.397632539E-1,2.356718034E-1,2.160717547E-1
2.490947688E1,-3.423114121E-1,1.607099175E-1,7.084291428E-2
2.492947844E1,-3.260275126E-1,8.033750206E-2,-8.306021988E-2
2.494948000E1,-3.928387165E-1,-9.353219718E-2,-2.061233819E-1
2.497147844E1,-4.428074956E-1,-2.815390527E-1,-3.853861392E-1
2.499147844E1,-4.645891786E-1,-4.298920333E-1,-4.852887988E-1
2.501147844E1,-4.465948343E-1,-3.217514455E-1,-4.015304446E-1
2.503148469E1,-4.269599020E-1,-1.212829277E-1,-2.196147740E-1
2.505348000E1,-4.343251884E-1,-4.347615317E-2,8.203047328E-3
2.507348625E1,-5.606172085E-1,-1.738347858E-1,-1.116487086E-1
2.509547844E1,-9.192125797E-1,-6.410943270E-1,-6.225589514E-1
2.511549719E1,-8.320508003E-1,-4.313581288E-1,-6.173927784E-1
2.513747844E1,-3.865904212E-1,7.827802002E-2,-3.305478990E-1
2.515747844E1,-6.506587565E-2,-3.598868847E-2,8.175121993E-2
2.517747844E1,-4.043927789E-2,-5.425006747E-1,3.675837815E-1
2.519747844E1,-2.552194893E-1,-7.405781150E-1,2.228785455E-1
2.521747844E1,-3.796440065E-1,-7.337363809E-2,-2.600366175E-1
2.523747844E1,-2.457947135E-1,5.751383305E-1,-4.141840935E-1
2.525748000E1,-1.135511175E-1,5.869891047E-1,-3.322059810E-1
2.527947844E1,-6.497860700E-2,1.367640048E-1,-3.411071599E-1
2.529947844E1,-3.787364438E-2,-4.114439189E-1,-3.075444698E-1
2.531947844E1,3.113667294E-2,-4.902804494E-1,-3.650006950E-1
2.533948156E1,2.327396572E-1,-3.204948008E-1,-2.451838553E-1
2.536147844E1,4.468042850E-1,-2.356892675E-1,-1.320690662E-1
2.538148313E1,5.080828071E-1,-4.352501929E-1,-1.384220570E-1
2.540347844E1,4.262093902E-1,-5.540373325E-1,-2.308197916E-1
2.542348000E1,2.410823256E-1,-5.575628877E-1,-3.633601069E-1
2.544548156E1,1.610240787E-1,-2.915048897E-1,-4.385139644E-1
2.546747844E1,2.110626698E-1,-1.029046103E-1,-2.979800701E-1
2.548748000E1,3.304431736E-1,-1.381253600E-1,-3.251548484E-2
2.550947844E1,4.553040266E-1,-1.517214775E-1,2.070135027E-1
2.552948000E1,4.769635797E-1,-2.572615258E-2,2.454980165E-1
2.555147844E1,2.993414104E-1,-2.567030191E-1,5.663593486E-2
2.557147844E1,1.948834658E-1,-9.058258496E-3,1.850049011E-2
2.559147844E1,1.851096153E-1,2.092649788E-2,1.924225539E-1
2.561147844E1,5.197590590E-2,-7.397054434E-1,1.094146892E-1
2.563147844E1,-1.648114473E-1,-1.136348963E0,-2.370680720E-1
2.565147844E1,-2.604903877E-1,-5.622054338E-1,-4.035026729E-1
2.567148156E1,-2.132966816E-1,-3.403392062E-2,-4.095415175E-1
2.569347844E1,-3.078760765E-2,2.248333097E-1,-3.604104817E-1
2.571348781E1,4.607669078E-3,-6.702064537E-3,-3.514395058E-1
2.573547844E1,-1.790009737E-1,-1.816713214E-1,-2.075022012E-1
2.575547844E1,-3.824714422E-1,1.219112501E-1,-7.337363809E-2
2.577547844E1,-7.482226491E-1,6.760183573E-1,1.468520015E-1
2.579547844E1,-6.715677977E-1,9.203295708E-1,2.832843959E-1
2.581549875E1,-5.322381258E-1,8.107752204E-1,3.836408257E-1
2.583747844E1,-1.976759881E-1,3.759439290E-2,5.304229856E-1
2.585747844E1,2.568077445E-1,-3.386985958E-1,3.453657627E-1
2.587747844E1,6.028017998E-1,-2.537185252E-1,8.346164227E-2
2.589747844E1,5.633573532E-1,9.918706119E-2,-2.898991853E-2
2.591747844E1,2.811725438E-1,3.370230794E-1,7.358308136E-2
2.593747844E1,7.780677825E-2,3.606199324E-1,2.523396909E-1
2.595947688E1,5.117305368E-2,2.646093667E-1,3.552443087E-1
2.597947844E1,2.290570140E-1,1.721418202E-1,2.450791299E-1
2.599947844E1,2.206619829E-1,-2.220233381E-1,4.869468510E-2
2.601948312E1,2.420248091E-1,-3.745301962E-1,1.567305624E-2
2.604147844E1,2.693217695E-1,-2.582214475E-1,1.613033265E-1
2.606148156E1,2.842268646E-1,-2.251474746E-2,4.602258801E-1
2.608347844E1,1.622283608E-1,-2.078687213E-2,6.187715530E-1
2.610348000E1,1.261873078E-2,-7.923794538E-2,4.078834355E-1
2.612547844E1,-1.671676338E-1,-4.069409668E-1,-7.162830979E-2
2.614548000E1,-1.241801754E-1,-3.253468275E-1,-2.503151298E-1
2.616747688E1,1.559451669E-1,1.862615347E-1,-1.895427518E-2
2.618747844E1,3.915471733E-1,3.198315799E-1,4.055446982E-1
2.620747844E1,2.955715060E-1,-3.330088034E-2,4.812919796E-1
2.622748000E1,-7.017968595E-2,-2.173807621E-1,1.359262466E-1
2.624947688E1,-3.442836404E-1,-9.702285379E-2,-3.619463742E-1
2.626948625E1,-2.638937831E-1,-2.047271281E-2,-4.631056488E-1
2.629147844E1,-1.151917269E-3,6.983062625E-2,-1.836609989E-1
2.631147844E1,7.545058429E-2,1.110378429E-1,9.251990169E-2
2.633147844E1,-8.796459064E-3,4.906120524E-2,1.954070628E-1
2.635148156E1,-4.084070213E-3,-5.232496932E-2,1.089259982E-1
2.637347844E1,1.659110039E-1,-1.286482215E-1,6.520549953E-2
2.639348000E1,3.203377426E-1,-9.831439704E-2,1.414240301E-1
2.641549719E1,3.808308542E-1,1.470265388E-1,1.571145356E-1
2.643747688E1,3.628190458E-1,2.095442265E-1,7.035422325E-2
2.645747688E1,2.637017965E-1,5.803219602E-2,-5.864306353E-3
2.647748000E1,1.727526933E-1,-5.719443783E-2,-1.512327790E-1
2.649947844E1,1.403419226E-1,-1.760339141E-1,-3.164631128E-1
2.651947844E1,2.312037647E-1,-2.089159042E-1,-2.180439830E-1
2.653947844E1,2.874033749E-1,-2.192133479E-2,6.490879506E-2
2.655948000E1,2.121273130E-1,3.993138671E-1,3.330611885E-1
2.658147688E1,9.941395372E-2,4.641354084E-1,3.477393985E-1
2.660148625E1,7.300712168E-2,3.541098535E-1,3.215943575E-1
2.662347844E1,-8.313003182E-2,-2.313259393E-1,3.183480501E-1
2.664347844E1,-2.196322381E-1,-7.731110454E-1,1.165007278E-1
2.666347844E1,-1.417207345E-2,-2.455852777E-1,3.026400879E-2
2.668547844E1,3.194127083E-1,6.361550689E-1,2.091951668E-1
2.670547844E1,3.228161037E-1,6.269222498E-1,4.556705654E-1
2.672548469E1,3.162536770E-2,3.038618155E-2,4.876100719E-1
2.674747688E1,-3.342480063E-1,-3.455053866E-1,2.831273079E-1
2.676748625E1,-3.742509484E-1,-5.077162758E-2,1.838704348E-1
2.678947844E1,-1.751437932E-1,4.257730842E-1,3.272317946E-1
2.680948000E1,2.775073424E-2,5.692914724E-1,5.669702291E-1
2.683147844E1,1.183507740E-1,2.005557865E-1,6.495591998E-1
2.685348000E1,9.548696131E-2,-8.307767101E-3,5.585576892E-1
2.687548156E1,-6.152285635E-2,-8.892452717E-2,3.951774538E-1
2.689747844E1,-2.368237227E-1,1.259604096E-1,4.046196938E-1
2.691747844E1,-3.611958921E-1,2.628291249E-1,4.349884093E-1
2.693947844E1,-4.764923453E-1,2.293188125E-1,4.193677008E-1
2.696147844E1,-6.210405231E-1,2.519208193E-1,3.915820718E-1
2.698347844E1,-8.005301356E-1,3.405835629E-1,1.994736791E-1
2.700547688E1,-8.360127211E-1,8.068656921E-2,8.232717961E-2
2.702547844E1,-9.566149712E-1,-2.148151249E-1,9.269443899E-2
2.704547844E1,-1.165391207E0,-2.830749452E-1,2.247809470E-1
2.706548000E1,-1.303568959E0,-9.250245057E-3,1.807986498E-1
2.708747688E1,-1.180872321E0,2.312735766E-1,5.017821491E-2
2.710747688E1,-8.048236966E-1,1.253844500E-1,1.433613449E-1
2.712747844E1,-3.272666931E-1,-1.489987522E-1,1.931905001E-1
2.714948156E1,9.648180008E-2,-6.703111529E-1,-3.565533161E-1
2.717147844E1,6.113364697E-1,-9.951867461E-1,-1.131165385E0
2.719147844E1,1.055121303E0,-4.821472168E-1,-9.567545652E-1
2.721347844E1,1.154186249E0,1.153313592E-1,-1.676563323E-1
2.723348938E1,5.522047281E-1,1.989500821E-1,2.381152660E-1
2.725547688E1,-2.686236203E-1,3.672696352E-1,3.882485032E-1
2.727547688E1,-8.206712604E-1,-8.660323918E-2,8.066911995E-2
2.729547844E1,-9.305571914E-1,6.133086979E-2,-4.658283889E-1
2.731549719E1,-5.986828208E-1,7.180284709E-2,-6.146700382E-1
2.733747844E1,-3.000221029E-2,2.409601510E-1,-3.100577295E-1
2.735748000E1,4.195946157E-1,6.059259772E-1,-5.511749908E-2
2.737947688E1,9.282708168E-1,6.557201743E-1,-8.011061698E-3
2.739947688E1,1.325682282E0,1.883559376E-1,-4.537856148E-4
2.741947688E1,1.480964184E0,-2.470338941E-1,-1.515993029E-1
2.743948469E1,1.471487045E0,-1.877276152E-1,-3.098657429E-1
2.746147844E1,1.207890034E0,2.287952155E-1,-3.118728697E-1
2.748148469E1,7.624994516E-1,1.415462047E-2,-1.561371535E-1
2.750348000E1,2.666164935E-1,-1.319818050E-1,3.623303398E-2
2.752547844E1,1.467821933E-2,-8.761553094E-3,5.661848187E-2
2.754547844E1,4.338888451E-2,9.974556416E-2,1.331860721E-1
2.756547844E1,1.694016606E-1,1.108109504E-1,2.937738299E-1
2.758547844E1,2.091951668E-1,1.272345055E-2,3.821049333E-1
2.760548469E1,1.940282583E-1,-1.746725440E-1,2.684839964E-1
2.762747688E1,2.402794808E-1,-3.492403775E-2,2.447824329E-1
2.764748156E1,2.216917276E-1,1.864884347E-1,3.852465153E-1
2.766947688E1,-9.546951391E-3,-6.147049740E-2,3.527135849E-1
2.768947688E1,-2.525491416E-1,-6.198886037E-1,-3.078760765E-2
2.770947844E1,-1.892460436E-1,-5.640380383E-1,-2.611361742E-1
2.772948312E1,3.413863853E-2,-5.852089077E-2,-2.679080367E-1
2.775147844E1,2.798286378E-1,2.296853215E-1,-1.810953617E-1
2.777347844E1,2.633527219E-1,-2.568426430E-1,-8.983209729E-2
2.779547844E1,-2.026327327E-2,-8.760331273E-1,-8.798204362E-2
2.781549719E1,-1.449321359E-1,-9.579763412E-1,-1.638864167E-2
2.783748156E1,-4.290019348E-2,-3.109304011E-1,-9.197885171E-3
2.785947844E1,7.843509316E-2,2.883807421E-1,2.898991853E-2
2.787947844E1,6.574655324E-2,2.439272106E-1,1.021366641E-1
2.790147844E1,2.546435408E-2,1.214923710E-1,2.494075447E-1
2.792148156E1,-4.907865822E-2,1.905550510E-1,2.680302262E-1
2.794347844E1,-1.248783097E-1,4.050559998E-1,1.331162602E-1
2.796347844E1,-1.041088924E-1,4.806462228E-1,2.371902391E-2
2.798347844E1,1.370083448E-2,4.986580312E-1,4.684463516E-2
2.800348156E1,8.698721230E-2,3.378782868E-1,8.862782270E-2
2.802547844E1,6.506587565E-2,-4.630358517E-2,-2.234021388E-2
2.804548312E1,1.139874533E-1,-2.882934809E-1,-1.548281610E-1
2.806747688E1,2.905624211E-1,-7.389724255E-2,-2.366317362E-1
2.808747688E1,3.541447520E-1,9.405579418E-2,-2.430545539E-1
2.810747688E1,1.403419226E-1,-2.267357260E-1,-2.872462869E-1
2.812747844E1,4.078834504E-2,-3.792949617E-1,-1.516865641E-1
2.814947844E1,4.271693230E-1,-8.744099177E-3,2.771059275E-1
2.816948469E1,7.246606946E-1,2.188293785E-1,5.940751433E-1
2.819147844E1,6.555980444E-1,3.147701323E-1,5.388355255E-1
2.821148625E1,2.583261728E-1,7.155850180E-4,1.780584902E-1
2.823347844E1,-1.547234356E-1,4.415683076E-2,-1.722116321E-1
2.825348000E1,-2.375916690E-1,3.802025318E-1,-4.368559122E-1
2.827348000E1,-1.669058353E-1,3.600614369E-1,-3.860842884E-1
2.829548781E1,-2.966012657E-1,5.657833815E-1,-2.498089820E-1
2.831549875E1,-9.679072499E-1,8.001985550E-1,-4.271169603E-1
2.833747844E1,-1.497579813E0,1.596295595E0,-5.511226058E-1
2.835747844E1,-1.395355821E0,1.572419524E0,-4.952895343E-1
2.837748156E1,-8.403585553E-1,7.104711533E-1,-3.997327685E-1
2.839947688E1,-1.049117446E-1,-7.857472301E-1,-3.512649536E-1
2.841948469E1,2.650282383E-1,-1.589977503E0,-1.916546077E-1
2.844147844E1,9.861110151E-2,-9.531068206E-1,-3.005282283E-1
2.846147844E1,-2.301216573E-1,-2.047969401E-1,-5.995904207E-1
2.848147844E1,-5.538278818E-1,-3.548079729E-1,-7.543662190E-1
2.850148000E1,-6.724055409E-1,-7.688524127E-1,-5.973563790E-1
2.852347844E1,-5.586100817E-1,-1.159701467E0,-2.501231432E-1
2.854348781E1,-2.915747166E-1,-1.180418491E0,-1.775523424E-1
2.856547844E1,1.340936422E-1,-1.271856308E0,-4.632278383E-1
2.858548625E1,5.159891248E-1,-8.971690536E-1,-7.565827966E-1
2.860747844E1,9.460731745E-1,4.342553616E-1,-6.512696147E-1
2.862747844E1,1.139473081E0,1.394256234E0,-3.277030289E-1
2.864747844E1,1.014664650E0,1.392144442E0,-1.313185692E-1
2.866747844E1,6.750758886E-1,8.585623503E-1,-1.321912408E-1
2.868747844E1,3.655766547E-1,-7.597418129E-2,-9.897761792E-2
2.870747844E1,3.537433445E-1,-6.699097157E-1,-4.934045672E-2
2.872748156E1,4.919385016E-1,-7.734950185E-1,-1.103048120E-2
2.874947844E1,3.645818233E-1,-3.455402851E-1,-3.958406672E-2
2.877147688E1,1.337096691E-1,1.578824818E-1,2.426007763E-3
2.879147688E1,6.422811653E-3,2.308023423E-1,-9.773843922E-3
2.881147844E1,-1.356469840E-1,2.359161526E-1,-6.370452046E-2
2.883147844E1,-2.830749452E-1,-1.003040746E-1,-8.632398397E-2
2.885147844E1,-3.829601407E-1,-6.596471667E-1,-8.255407214E-3
2.887347844E1,-2.828131616E-1,-9.008516669E-1,2.371029854E-1
2.889347844E1,2.132792398E-2,-6.355441809E-1,4.163832068E-1
2.891347844E1,3.291865587E-1,-3.938684464E-1,5.157971382E-1
2.893348469E1,3.862064481E-1,-4.373271465E-1,5.912302732E-1
2.895547844E1,1.257858723E-1,-5.045223236E-1,5.389227867E-1
2.897548000E1,-2.021265775E-1,-6.513219476E-1,3.346494436E-1
2.899747688E1,-2.842268646E-1,-7.127401233E-1,7.944738865E-2
2.901747844E1,-2.371204346E-1,-5.989446640E-1,-7.119198143E-2
2.903747844E1,-3.773576319E-1,-3.271794319E-1,-1.111076623E-1
2.905748781E1,-6.082646847E-1,5.976007506E-2,-1.096066758E-1
2.907947844E1,-6.841690540E-1,5.222025141E-2,-1.535540670E-1
2.909948313E1,-5.359557271E-1,-2.365270257E-1,-1.342681795E-1
2.912147688E1,-2.308372408E-1,-3.374594152E-1,-1.054004356E-1
2.914148312E1,-6.063273922E-2,-1.994387656E-1,-2.883283980E-2
2.916347688E1,-9.117600322E-2,-4.153883457E-2,9.238027781E-2
2.918348469E1,-1.247212291E-1,1.552644968E-1,2.333679795E-1
2.920547844E1,-1.710597128E-1,1.364498436E-1,3.105813265E-1
2.922547844E1,-3.596076369E-1,-2.988003753E-2,1.416160166E-1
2.924547844E1,-5.634620786E-1,-2.071705833E-2,-1.887224466E-1
2.926548313E1,-4.842765033E-1,3.034603894E-1,-2.363873869E-1
2.928747688E1,1.163436472E-1,2.977182567E-1,7.014477998E-2
2.930748156E1,8.014377356E-1,-1.930334121E-1,3.105638921E-1
2.932947688E1,6.706951261E-1,-1.122246683E-1,9.758135676E-2
2.934948313E1,3.304431736E-1,1.551423222E-1,-3.015056252E-1
2.937147688E1,5.091125518E-2,2.902657092E-1,-5.595700145E-1
2.939147844E1,-1.459095255E-2,4.706105888E-1,-5.079431534E-1
2.941147844E1,4.902629927E-2,6.395933628E-1,-2.575756907E-1
2.943347844E1,-2.217266262E-1,8.629257083E-1,7.689920813E-2
2.945347844E1,-3.095690608E-1,7.117103338E-1,1.984962970E-1
2.947348469E1,-2.207143307E-1,5.663070083E-1,1.601863205E-1
2.949547844E1,-5.592034757E-2,3.991218805E-1,7.424630970E-2
2.951550188E1,1.481086463E-1,9.808750823E-3,1.184205860E-1
2.953747844E1,2.578375041E-1,-3.438124061E-1,2.476796806E-1
2.955748000E1,9.735446423E-2,-3.219957948E-1,3.583684564E-1
2.957947844E1,-2.110103071E-1,-6.750933826E-2,3.490309417E-1
2.960147844E1,-3.488564193E-1,2.090904415E-1,1.242150813E-1
2.962348156E1,-1.291892678E-1,2.233846933E-1,-2.794272080E-2
2.964547844E1,2.331585288E-1,1.274613887E-1,1.802925020E-2
2.966548156E1,3.384193480E-1,5.023057386E-2,1.250179410E-1
2.968747844E1,1.990722567E-1,3.679154068E-2,1.229584441E-1
2.970747844E1,3.858922794E-2,3.707079217E-2,1.283864230E-1
2.972747844E1,-2.616248466E-2,5.150466785E-2,1.104793400E-1
2.974748469E1,-2.204699963E-1,-7.944738865E-2,-1.654746681E-1
2.976947688E1,-5.168792605E-1,-5.314178467E-1,-5.455201268E-1
2.978948156E1,-3.210533261E-1,-2.386039644E-1,-4.644495547E-1
2.981147844E1,8.913396299E-2,5.447347164E-1,8.717919886E-2
2.983148156E1,1.896998286E-1,6.435203552E-1,5.245412588E-1
2.985347844E1,-5.618214980E-2,2.438399494E-1,5.638635159E-1
2.987347844E1,-2.750639021E-1,1.487020496E-2,3.417005539E-1
2.989547688E1,-3.757693768E-1,3.629237711E-1,6.227334589E-2
2.991549719E1,-4.207290709E-1,8.183325529E-1,-7.009242475E-2
2.993747688E1,-2.307674289E-1,7.373143435E-1,3.659955412E-2
2.995747688E1,9.320057929E-2,2.907369435E-1,3.541622162E-1
2.997747844E1,3.939208090E-1,-4.078485370E-1,4.055446982E-1
2.999748156E1,2.855184078E-1,-5.252219439E-1,1.655095667E-1
3.001947844E1,5.907939374E-2,-1.485624313E-1,9.622000158E-2
3.004147844E1,1.069188714E-1,-4.558800161E-2,5.710717291E-2
3.006348312E1,2.457598150E-1,-5.023232102E-1,1.377762854E-1
3.008547844E1,1.261000335E-1,-6.781127453E-1,1.190663576E-1
3.010747688E1,-4.187044874E-2,-5.039463639E-1,-4.281292483E-2
3.012747844E1,-1.320341527E-1,-2.417455465E-1,-2.000845522E-1
3.014947844E1,-1.738347858E-1,-1.942202449E-1,-1.445656270E-1
3.017148156E1,-1.668883860E-1,-4.284259677E-1,1.823694557E-1
3.019347844E1,7.822565734E-2,-5.223944783E-1,3.457497358E-1
3.021347844E1,3.669205606E-1,-1.246863231E-1,2.542071939E-1
3.023348938E1,3.586826026E-1,1.111251116E-1,1.695936471E-1
3.025547688E1,1.112996489E-1,-9.670869261E-2,2.665117756E-2
3.027547844E1,-1.234994978E-1,-4.124387503E-1,-1.988977194E-1
3.029548469E1,-3.760835528E-1,-7.224965096E-1,-4.057017863E-1
3.031549875E1,-4.207639694E-1,-2.379581928E-1,-3.656464815E-1
3.033748156E1,-9.164723754E-2,4.795990288E-1,4.729842395E-2
3.035947844E1,9.412735105E-1,-3.798359931E-1,3.690498769E-1
3.038147688E1,1.130432248E0,-6.671870351E-1,6.928957067E-3
3.040147844E1,4.502600431E-1,-2.180439830E-1,-3.849323690E-1
3.042347844E1,-3.116983473E-1,2.742784917E-1,-2.823418975E-1
3.044347844E1,-6.244962811E-1,5.069134235E-1,-6.408849359E-2
3.046347844E1,-6.116681099E-1,6.224192977E-1,1.245292425E-1
3.048347844E1,-5.045048594E-1,7.457442880E-1,2.934771180E-1
3.050348000E1,-2.439621240E-1,6.603453159E-1,2.696359158E-1
3.052547844E1,8.960520476E-2,4.346044362E-1,1.979377866E-1
3.054548000E1,2.897944748E-1,8.688248694E-2,2.197893113E-1
3.056747688E1,3.418052793E-1,-7.124433666E-2,2.622880936E-1
3.058747688E1,2.129301727E-1,-6.213372201E-2,2.253220081E-1
3.060747844E1,6.986553222E-2,-1.062905509E-2,1.725781560E-1
3.062747844E1,4.358087108E-2,-2.897246508E-3,1.404815465E-1
3.064747844E1,1.061858311E-1,2.356194519E-2,1.297652274E-1
3.066948469E1,1.030616909E-1,8.642870188E-2,1.112996489E-1
3.069147844E1,3.275983036E-2,1.455953717E-1,1.102349982E-1
3.071148000E1,-1.778490469E-2,2.429149300E-1,8.066911995E-2
3.073347688E1,-1.370956153E-1,4.278325438E-1,-4.941027239E-2
3.075347844E1,-3.184527755E-1,4.396658838E-1,-1.754055917E-1
3.077347844E1,-3.284186125E-1,4.161388576E-1,-1.012465507E-1
3.079348625E1,-1.310218722E-1,3.536386192E-1,8.344419301E-2
3.081549719E1,7.274532318E-2,1.602386832E-1,2.137504667E-1
3.083747844E1,-1.172861271E-2,-1.191536263E-1,-9.468410909E-2
3.085948000E1,-4.543092102E-2,-9.983283468E-3,-3.655766547E-1
3.088147688E1,1.473057866E-1,3.093596101E-1,-1.727701426E-1
3.090148469E1,3.213674724E-1,3.509333432E-1,1.369385272E-1
3.092347844E1,3.320139945E-1,2.594431937E-1,2.282716185E-1
3.094349250E1,7.632324845E-2,1.605004817E-1,3.593632951E-2
3.096547844E1,-2.517462969E-1,4.283910692E-1,-1.912008226E-1
3.098548625E1,-2.691123188E-1,7.947880030E-1,-1.769065708E-1
3.100747688E1,-4.820599407E-2,9.183573723E-1,7.461282611E-2
3.102747688E1,9.986773878E-2,8.262388706E-1,2.361430526E-1
3.104747844E1,1.552295834E-1,6.235886812E-1,1.300444752E-1
3.106947844E1,1.375668496E-1,4.181983471E-1,-1.329940856E-1
3.108947844E1,-4.822344705E-2,3.294483423E-1,-2.950828075E-1
3.110948156E1,-3.031113446E-1,5.730614066E-1,-3.186272979E-1
3.113147688E1,-3.917042315E-1,3.699050844E-1,-2.174854726E-1
3.115147688E1,-1.090830788E-1,-2.885029316E-1,-1.136907488E-1
3.117147844E1,-2.328269184E-2,-7.094414234E-1,-2.515892088E-1
3.119148469E1,-2.132268697E-1,-6.769608259E-1,-5.227784514E-1
3.121347844E1,4.276056588E-2,-7.825183868E-1,-5.124984980E-1
3.123349406E1,4.398229718E-1,-9.424778223E-1,-4.416381121E-1
3.125547688E1,4.924446344E-1,-7.274706960E-1,-5.674588680E-1
3.127548469E1,2.722888291E-1,-4.063475430E-1,-5.611059070E-1
3.129747844E1,4.588470608E-2,-1.029220670E-1,-3.951076269E-1
3.131748313E1,-2.139075547E-1,-8.955284208E-2,-5.278224945E-1
3.133947844E1,-4.902804494E-1,-3.395014405E-1,-1.068961859E0
3.135947844E1,-4.176747501E-1,-4.730365872E-1,-1.340639710E0
3.138147688E1,-5.670574680E-2,-3.254864514E-1,-9.847496748E-1
3.140147844E1,3.312285841E-1,-2.065771669E-1,-3.109304011E-1
3.142347844E1,5.312956572E-1,1.101477295E-1,8.464846760E-3
3.144548313E1,3.283662498E-1,4.766145051E-1,-2.694439292E-1
3.146747688E1,-5.715953186E-2,-3.378957510E-2,-5.481904745E-1
3.148747844E1,-2.750464380E-1,-1.592612863E-1,-5.120795965E-1
3.150947844E1,-2.552893162E-1,1.602561325E-1,-2.470338941E-1
3.153147844E1,-5.487314984E-2,4.852713346E-1,-1.055226028E-1
3.155347844E1,3.864159063E-2,3.898541927E-1,-1.277406514E-1
3.157347844E1,-1.446877979E-2,9.822712839E-2,-1.874134541E-1
3.159347844E1,-6.171484292E-2,-4.906120524E-2,-3.234618604E-1
3.161347844E1,-1.028522551E-1,6.213372108E-3,-4.297349751E-1
3.163348156E1,-1.203753576E-1,-3.792600334E-2,-4.589517713E-1
3.165547844E1,-1.297652274E-1,-1.003564298E-1,-4.266980886E-1
3.167547844E1,-1.973443776E-1,4.682718217E-2,-4.110599458E-1
3.169547844E1,-3.120823205E-1,1.995085925E-1,-4.653571248E-1
3.171549719E1,-3.454704583E-1,-1.009323895E-1,-5.923821926E-1
3.173747688E1,-2.050761878E-1,-8.913396299E-2,-7.193374634E-1
3.175748625E1,3.754203022E-2,-6.147049740E-2,-7.594102025E-1
3.177947688E1,3.408278823E-1,-2.378883772E-2,-4.540823102E-1
3.179947844E1,3.284884095E-1,-1.840973347E-1,-8.412487060E-2
3.181947844E1,1.939758956E-1,6.455972791E-2,2.553416602E-2
3.183948156E1,1.028871611E-1,2.643650174E-1,2.096664011E-1
3.186147688E1,2.834414691E-2,2.911209129E-2,4.006054103E-1
3.188147688E1,-8.656833321E-2,-5.654866695E-1,1.743060350E-1
3.190147844E1,-1.796467453E-1,-9.394583702E-1,-2.994984947E-2
3.192349406E1,-1.121199504E-1,-1.663473248E-1,1.684940904E-1
3.194547844E1,3.476695716E-2,5.320112705E-1,3.987030089E-1
3.196747688E1,9.145525098E-2,5.903227329E-1,4.335048795E-1
3.198747688E1,-6.510077976E-3,4.007973969E-1,3.336895108E-1
3.200747688E1,-1.697681695E-1,1.849001795E-1,2.233846933E-1
3.202747688E1,-2.282192558E-1,1.123468429E-1,2.188468277E-1
3.204747844E1,-1.683021039E-1,1.125039235E-1,1.732588410E-1
3.206947844E1,-5.239478499E-2,-2.206445187E-1,1.457349956E-1
3.208947844E1,4.509930685E-2,-4.522322714E-1,1.426457614E-1
3.211147844E1,9.698794782E-2,-4.183728695E-1,-1.403244678E-2
3.213148000E1,1.357866172E-2,-6.392268538E-1,-2.114989907E-1
3.215347844E1,-1.399753988E-1,-7.436499000E-1,-4.620235562E-1
3.217347844E1,-2.030516118E-1,-1.027963996E0,-5.970422029E-1
3.219347844E1,-2.585007250E-1,-9.688671827E-1,-5.042780042E-1
3.221348156E1,-4.308694303E-1,-7.326543331E-1,-3.427652121E-1
3.223348156E1,-6.122091413E-1,-4.747295678E-1,-2.513797581E-1
3.225548625E1,-5.496739745E-1,-6.985855103E-1,-2.568077445E-1
3.227747688E1,-3.501653969E-1,-5.055345893E-1,-7.848745584E-2
3.229747844E1,-3.386811316E-1,-8.388052136E-2,1.006007791E-1
3.231747844E1,-4.605051279E-1,-2.838952541E-1,7.836528122E-3
3.233748469E1,-1.572716236E-1,-5.753477812E-1,-7.002261281E-2
3.235947844E1,4.671199322E-1,1.273566782E-1,8.227481693E-2
3.237948312E1,4.647113681E-1,6.625269651E-1,1.305680871E-1
3.240147844E1,-1.686686128E-1,7.498108745E-1,-1.868898571E-1
3.242148000E1,-5.789605975E-1,-4.738568887E-2,-7.155151963E-1
3.244347844E1,-4.850793481E-1,-1.044230461E0,-9.020734429E-1
3.246347844E1,-1.132893190E-1,-8.470082879E-1,-8.159413934E-1
3.248347844E1,2.707703710E-1,-3.832393885E-1,-6.856700182E-1
3.250348781E1,6.096260548E-1,1.894031316E-1,-3.342829049E-1
3.252547844E1,6.005154252E-1,9.910503030E-1,-4.134684801E-2
3.254547844E1,3.921580315E-1,1.152510762E0,2.933898382E-2
3.256547844E1,2.898119092E-1,4.973490238E-1,1.705186628E-2
3.258547844E1,1.830850393E-1,4.105712473E-1,6.141813472E-2
3.260747688E1,-8.859290928E-2,7.713133693E-1,1.682322919E-1
3.262747688E1,-2.800555229E-1,5.120795965E-1,1.765575111E-1
3.264747844E1,-3.743033111E-1,-1.700299680E-1,1.646892726E-1
3.266948156E1,-3.602883220E-1,1.433264315E-1,2.166302651E-1
3.269147844E1,-2.032435834E-1,6.633996367E-1,2.674193382E-1
3.271148156E1,3.344050795E-2,9.500524998E-1,3.337593079E-1
3.273347844E1,3.172659576E-1,1.115823865E0,3.345621526E-1
3.275348156E1,3.981270492E-1,8.725075722E-1,3.065147102E-1
3.277547844E1,2.368760854E-1,8.070402145E-1,4.198215008E-1
3.279547844E1,9.159488231E-2,9.270491004E-1,4.988325536E-1
3.281549875E1,3.688927889E-1,5.252394080E-1,4.149171114E-1
3.283747844E1,2.642777562E-1,4.640830308E-2,2.494424582E-1
3.285947844E1,-1.384046115E-2,-2.700024247E-1,8.648106456E-2
3.287947844E1,-1.975712739E-2,-3.089232743E-1,-1.725781560E-1
3.289947844E1,2.258456051E-1,-6.049311161E-2,-1.261873096E-1
3.291948625E1,5.440540314E-1,3.778986931E-1,9.580112249E-2
3.294147688E1,7.746120095E-1,5.176646635E-2,2.179916203E-1
3.296147844E1,8.413010836E-1,-5.716651678E-1,1.834340990E-1
3.298348000E1,7.795163989E-1,-3.045425117E-1,2.085493952E-1
3.300547688E1,5.770407319E-1,2.978928089E-1,4.221777022E-1
3.302547844E1,3.110525906E-1,6.444278955E-1,6.764197946E-1
3.304547844E1,3.256784379E-2,5.942497253E-1,7.365114689E-1
3.306547844E1,-1.811128110E-1,1.357167959E-1,6.090500951E-1
3.308548469E1,-2.393544465E-1,-7.993607782E-3,4.078834355E-1
3.310747688E1,-1.415112913E-1,3.542843759E-1,1.397834122E-1
3.312748000E1,-7.215191424E-2,5.870240331E-1,3.825761750E-2
3.314947844E1,-3.490658492E-5,7.300537825E-1,2.928836942E-1
3.317147844E1,1.449146867E-1,6.449340582E-1,5.216614604E-1
3.319348312E1,2.740690410E-1,2.043431550E-1,3.335673213E-1
3.321549719E1,1.775697917E-1,-2.857103944E-2,9.609782696E-2
3.323747844E1,-2.792526793E-4,1.396263391E-2,-5.089380220E-2
3.325747844E1,4.064871743E-2,1.597499847E-1,-7.330382615E-2
3.327947688E1,2.763030827E-1,-1.802925020E-2,-3.202679008E-2
3.329947844E1,2.976658940E-1,-1.892984062E-1,1.185078546E-1
3.332147688E1,1.110029370E-1,1.244943365E-1,2.543991804E-1
3.334147688E1,-6.176720187E-2,6.008644700E-1,1.902408898E-2
3.336147844E1,-3.875678182E-1,4.009021223E-1,-3.274412155E-1
3.338147844E1,-5.609837174E-1,4.674340785E-1,-2.119004279E-1
3.340147844E1,-2.162986547E-1,1.268592596E0,4.364021122E-1
3.342347844E1,4.302585721E-1,2.075859785E0,2.224771231E-1
3.344348625E1,4.938234687E-1,3.735004738E-2,-4.235565066E-1
3.346547688E1,-5.507386327E-1,-1.025014400E0,-8.262563348E-1
3.348547844E1,-1.084250927E0,-4.869119525E-1,-8.373216987E-1
3.350547844E1,-8.992111087E-1,-7.309264541E-1,-1.649510711E-1
3.352548000E1,-3.708301187E-1,-1.169161201E0,5.276305079E-1
3.354747844E1,3.124139272E-2,-1.081493258E0,6.193301082E-1
3.356748312E1,2.764077783E-1,-4.201182127E-1,7.942993194E-2
3.358947844E1,2.615724802E-1,-1.279326342E-2,-7.891505957E-1
3.361147844E1,1.655270308E-1,-4.369955361E-1,-1.141323209E0
3.363348156E1,7.120943069E-2,-4.233296216E-1,-1.259726286E0
3.365547844E1,-1.986184716E-2,-9.787980914E-1,-1.270093560E0
3.367548625E1,-3.139847144E-2,-1.330551744E0,-1.063271999E0
3.369747844E1,6.326818466E-2,-1.387973070E0,-7.939327955E-1
3.371747844E1,1.465029418E-1,-1.125196338E0,-5.915269852E-1
3.373947688E1,7.367035002E-2,-1.277231872E-1,-3.490833044E-1
3.375947688E1,-2.750638872E-2,6.666983366E-1,-8.892452717E-2
3.377947688E1,-1.441991031E-1,2.804394960E-1,1.989326328E-1
3.379948156E1,-1.520007253E-1,3.508111835E-2,4.311835766E-1
3.382147844E1,-1.356120855E-1,8.732754588E-1,4.788310826E-1
3.384347844E1,-1.061683744E-1,7.706326842E-1,3.204773664E-1
3.386347844E1,3.537782282E-2,9.004153311E-2,3.421194255E-1
3.388347844E1,1.271297783E-1,2.597049996E-2,4.456698298E-1
3.390347844E1,2.825688012E-2,3.281567991E-1,5.424832106E-1
3.392348156E1,-1.751786917E-1,3.881786764E-1,6.555107832E-1
3.394547844E1,-1.206720620E-1,3.207740486E-1,6.051231027E-1
3.396548000E1,-4.860742018E-2,3.511602581E-1,3.637615144E-1
3.398747844E1,-1.765749604E-1,-8.137946725E-1,3.362202346E-1
3.400748000E1,-1.370607018E-1,-1.499586940E0,1.499063224E-1
3.402947844E1,3.036872949E-3,-1.494263649E0,-2.720968239E-2
3.405147688E1,1.398008689E-2,-1.340517521E0,-1.820203811E-1
3.407147688E1,-6.192428246E-2,-1.332209826E0,-2.173807621E-1
3.409147688E1,-2.638239563E-1,-1.402948022E0,-2.837381661E-1
3.411147844E1,-5.906368494E-1,-1.316589117E0,-4.086513817E-1
3.413148312E1,-8.349131346E-1,-9.307491779E-1,-3.096388578E-1
3.415347688E1,-7.880510688E-1,-4.849571884E-1,1.001469940E-1
3.417348156E1,-5.841093659E-1,-2.102772743E-1,4.192280769E-1
3.419547688E1,-2.794097662E-1,3.441789150E-1,6.011961102E-1
3.421549719E1,2.475575060E-1,1.020022750E0,5.808281302E-1
3.423747844E1,6.855653524E-1,2.732312977E-1,4.395437241E-1
3.425747844E1,6.768561602E-1,-1.930508614E-1,3.408628106E-1
3.427747844E1,3.563264310E-1,3.754377663E-1,1.615127623E-1
3.429748469E1,1.727352291E-1,1.025782347E0,1.931032240E-1
3.431947688E1,1.525243223E-1,1.063202262E0,2.526713014E-1
3.433948156E1,1.681450158E-1,8.471478820E-1,2.701246142E-1
3.436147688E1,1.920036674E-1,6.699097157E-1,3.405486345E-1
3.438147688E1,2.455329150E-1,4.920432270E-1,4.208163321E-1
3.440147844E1,3.103544414E-1,6.063273922E-2,3.688404262E-1
3.442148156E1,3.515267670E-1,7.946483791E-2,6.138322875E-2
3.444347688E1,-9.620254487E-2,-5.350481272E-1,-2.894105017E-1
3.446348156E1,-3.588396907E-1,-5.820498466E-1,-1.650034338E-1
3.448547844E1,-2.131570578E-1,2.946115844E-2,-1.171988621E-1
3.450548156E1,5.614724010E-2,3.151715696E-1,-2.569124699E-1
3.452747688E1,1.362753063E-1,-1.307077110E-1,-4.417952001E-1
3.454748156E1,1.716182232E-1,-8.662068844E-2,-4.766494036E-1
3.456947688E1,3.205122650E-1,4.697030187E-1,-3.224146664E-1
3.458947844E1,4.401894808E-1,7.089701891E-1,-6.316346675E-2
3.461147844E1,4.317944646E-1,6.293308139E-1,1.855285019E-1
3.463347844E1,2.844013870E-1,6.942919493E-1,3.635346293E-1
3.465348469E1,5.895722285E-2,9.117949009E-1,2.964790761E-1
3.467547844E1,-2.202605456E-1,1.165810108E0,1.169370604E-3
3.469548312E1,-4.510105252E-1,1.144168019E0,-2.484825253E-1
3.471549719E1,-6.186319590E-1,7.641749382E-1,-2.674542665E-1
3.473748313E1,-7.427423000E-1,5.304753780E-1,-2.879793197E-2
3.475947688E1,-7.625517845E-1,2.586228848E-1,1.866629571E-1
3.477948469E1,-3.540400267E-1,-1.240230948E-1,2.879967690E-1
3.480147844E1,2.254441828E-1,-4.248131439E-2,2.523746192E-1
3.482147844E1,4.238881171E-1,1.991420686E-1,8.951793611E-2
3.484347844E1,1.798736304E-1,3.817733228E-1,-1.834340990E-1
3.486347844E1,1.662251502E-1,3.638487756E-1,-3.773925304E-1
3.488547844E1,2.833716571E-1,1.898220032E-1,-1.756673902E-1
3.490747844E1,7.066838443E-2,4.244815111E-1,1.169370604E-3
3.492748000E1,-1.698205434E-2,9.706125259E-1,-1.181762442E-1
3.494947688E1,-2.689552307E-2,1.226390481E0,-3.262369335E-1
3.496948000E1,-2.294235229E-1,6.329785585E-1,-2.673669755E-1
3.499147688E1,2.438225038E-2,5.121493936E-1,1.015083492E-1
3.501148469E1,6.286326647E-1,3.148574010E-2,4.279896319E-1
3.503347844E1,5.512622595E-1,-3.064972758E-1,7.742105722E-1
3.505348781E1,1.928588748E-2,-5.924519897E-1,6.206041574E-1
3.507547844E1,-6.141988039E-1,-6.874502897E-1,1.670978218E-1
3.509548000E1,-6.133610606E-1,-6.630156636E-1,-1.277231872E-1
3.511549719E1,-2.687283456E-1,-9.839642644E-1,-2.493551821E-1
3.513747688E1,2.675240636E-1,-9.617287517E-1,-1.124341115E-1
3.515747688E1,5.904448628E-1,-8.468860984E-1,-2.771582901E-1
3.517748312E1,6.281090975E-1,-1.121618390E0,-6.243740916E-1
3.519947688E1,5.286253095E-1,-1.218990326E0,-7.669326067E-1
3.521948156E1,3.428699374E-1,-1.083046556E0,-7.682764530E-1
3.524147844E1,9.813986719E-2,-2.560223341E-1,-6.195744276E-1
3.526148000E1,-3.640756756E-2,-8.859290928E-2,-5.213124156E-1
3.528347844E1,-2.453234792E-1,4.673991725E-2,-3.289422095E-1
3.530347844E1,-5.009269714E-1,-7.382742595E-3,-8.868017793E-2
3.532347844E1,-7.915591598E-1,-1.673421711E-1,7.942993194E-2
3.534348625E1,-1.027510285E0,-5.721189380E-1,-4.972442985E-2
3.536547688E1,-9.094212651E-1,-9.445896149E-1,5.885250121E-2
3.538548000E1,-5.471258163E-1,-4.909087718E-1,3.053104579E-1
3.540747688E1,-1.650557816E-1,-3.733259439E-2,3.179640770E-1
3.542747844E1,2.374171317E-1,3.495545387E-1,2.815565169E-1
3.544747844E1,5.254487991E-1,1.414938420E-1,5.152212083E-2
3.546748156E1,4.456872642E-1,-6.591933966E-1,-1.773254573E-1
3.548947688E1,2.332458049E-1,1.118406951E-1,-1.749867052E-1
3.550948000E1,8.470083028E-2,6.879564524E-1,-2.138028294E-2
3.553147844E1,1.127482671E-2,6.609387398E-1,2.592512071E-1
3.555148156E1,-2.430894524E-1,-2.175727487E-1,5.082398653E-2
3.557347844E1,-5.256931782E-1,-7.054795623E-1,-2.612757981E-1
3.559347844E1,-3.199712038E-1,-3.572688997E-2,-6.935938448E-2
3.561347844E1,2.045176774E-1,7.342948914E-1,1.670454592E-1
3.563348313E1,6.518805027E-1,4.031710625E-1,2.108706832E-1
3.565547844E1,5.051506162E-1,-5.939704776E-1,2.143264376E-2
3.567548312E1,1.659459025E-1,-4.749040902E-1,-3.019943237E-1
3.569748000E1,2.042035107E-3,-4.300491139E-2,-5.615596771E-1
3.571947844E1,-1.298524998E-2,-4.138175771E-2,-4.697902799E-1
3.574148312E1,7.977899909E-2,-9.323548526E-2,-7.030186057E-2
3.576347688E1,2.565110326E-1,-5.794493109E-2,1.168323383E-1
3.578348469E1,4.315675497E-1,1.092925146E-1,4.660028964E-2
3.580547844E1,5.527806878E-1,2.239781022E-1,-1.069188714E-1
3.582548156E1,5.597096086E-1,7.855726779E-2,-2.187770158E-1
3.584747844E1,4.498760700E-1,-1.568701863E-1,-2.138726413E-1
3.586947844E1,3.645469248E-1,-3.217689097E-1,-6.045820564E-2
3.589147844E1,4.051083624E-1,-1.574112475E-1,8.955284208E-2
3.591347844E1,4.129623473E-1,1.173035800E-1,5.485569686E-2
3.593348469E1,3.545287251E-1,1.704488546E-1,-5.728170648E-2
3.595547844E1,2.323207706E-1,2.224247605E-1,-1.483529806E-1
3.597747844E1,1.128529906E-1,1.190663576E-1,-1.135336682E-1
3.599948469E1,7.470009476E-2,-1.261174977E-1,6.480407715E-2
3.602147688E1,7.468263805E-2,-5.211029649E-1,2.515368462E-1
3.604148625E1,8.236208558E-2,-7.858519554E-1,2.602635026E-1
3.606347844E1,1.620363742E-1,-4.766319692E-1,2.332981676E-1
3.608348938E1,2.293362617E-1,4.435230792E-1,2.563539743E-1
3.610547844E1,2.515717447E-1,1.173437238E0,4.805065989E-1
3.612747844E1,4.384266958E-2,5.159367919E-1,6.621429920E-1
3.614947844E1,-4.251796603E-1,-8.287521601E-1,3.621034622E-1
3.617147844E1,-7.629008889E-1,-1.196999192E0,-9.035569429E-2
3.619147844E1,-8.862956166E-1,-9.559517503E-1,-5.190783739E-1
3.621347844E1,-8.695928454E-1,-5.389925838E-1,-8.799426556E-1
3.623348156E1,-8.312479854E-1,-2.347467840E-1,-1.006897926E0
3.625547844E1,-8.267973661E-1,-1.201310083E-1,-8.920552135E-1
3.627547844E1,-6.739414334E-1,-3.071779385E-2,-5.725552440E-1
3.629748469E1,-3.408453465E-1,5.462880433E-2,-9.325294197E-2
3.631947844E1,5.279621109E-2,5.018170476E-1,4.250225723E-1
3.633948625E1,3.108431399E-1,1.031489611E0,6.118775010E-1
3.636147688E1,4.437325001E-1,1.196196318E0,4.157548845E-1
3.638148469E1,3.957184851E-1,2.754478753E-1,-9.599310579E-4
3.640347688E1,2.366666496E-1,-4.132590592E-1,-3.580892086E-1
3.642348313E1,1.328195482E-1,-1.262396574E-1,-3.320314288E-1
3.644548000E1,1.320516169E-1,4.038517475E-1,-8.278096467E-2
3.646747688E1,1.817585826E-1,6.698573828E-1,1.295383424E-1
3.648747844E1,1.679530293E-1,6.289992332E-1,1.465203911E-1
3.650947844E1,6.831218302E-2,1.709375530E-1,1.027126238E-1
3.653147844E1,-8.925613761E-2,9.688322991E-2,9.721484035E-3
3.655347844E1,-7.501424849E-2,-5.600761622E-2,-1.173559353E-1
3.657347844E1,1.233075112E-1,-1.432915330E-1,-1.078613475E-1
3.659347844E1,1.280198991E-1,3.718074858E-1,-2.144311517E-1
3.661348156E1,-3.961897269E-2,5.822418332E-1,-5.204397440E-1
3.663548156E1,-2.466673851E-1,-6.097307801E-1,-1.074512005E0
3.665548625E1,-3.919311464E-1,-1.377012372E0,-1.377378941E0
3.667747844E1,-3.946887553E-1,-1.216407180E0,-1.181762457E0
3.669748000E1,-3.713362515E-1,-5.621007085E-1,-8.995601535E-1
3.671947844E1,-2.931629419E-1,-2.579421997E-1,-3.674965203E-1
3.673947844E1,-1.927192509E-1,-2.324080467E-1,-1.163087413E-1
3.675947844E1,-1.047197580E-1,-3.264463842E-1,-2.652376890E-1
3.677948469E1,1.083849464E-2,-7.787659019E-2,-4.628264010E-1
3.680147688E1,1.443910897E-1,2.159670442E-1,-4.814141691E-1
3.682148000E1,3.158173263E-1,2.192482650E-1,-3.483328223E-1
3.684347844E1,5.027421117E-1,2.031563222E-1,-1.805019528E-1
3.686348312E1,5.811248422E-1,1.490511186E-2,-8.218755573E-2
3.688547844E1,5.425006747E-1,-9.313076735E-2,-3.286454827E-2
3.690747844E1,4.602084160E-1,-1.203928143E-1,1.656317525E-2
3.692947844E1,3.977256417E-1,2.291617356E-2,4.089306295E-2
3.694947844E1,3.239505589E-1,1.471836120E-1,2.729694918E-2
3.697148469E1,1.958259344E-1,1.522799730E-1,-2.317797206E-2
3.699347844E1,4.925319180E-2,2.112371922E-1,-8.023278415E-2
3.701347844E1,-8.726646192E-3,2.780832946E-1,-6.908012927E-2
3.703547844E1,2.748893574E-2,1.554564834E-1,9.005898610E-3
3.705547844E1,1.265538186E-1,-9.311331809E-2,1.106538773E-1
3.707748625E1,2.720095515E-1,-2.848726511E-1,1.546885371E-1
3.709947688E1,3.511427939E-1,-2.143613398E-1,4.483750835E-2
3.711948625E1,4.232248962E-1,2.199289352E-1,4.276056588E-2
3.714147688E1,5.259026289E-1,5.767091513E-1,2.870019376E-1
3.716148156E1,5.283285975E-1,-2.481160015E-1,5.806884766E-1
3.718347844E1,3.960326612E-1,-1.058577061E0,5.253266692E-1
3.720348625E1,3.717900217E-1,-6.457718015E-1,4.542393982E-1
3.722547688E1,4.861265421E-1,3.422765136E-1,5.398827195E-1
3.724548156E1,5.180486441E-1,6.906442642E-1,5.110498667E-1
3.726747844E1,4.599989653E-1,1.874483675E-1,6.402216554E-1
3.728947844E1,3.968355060E-1,-1.736427993E-1,6.171309948E-1
3.730947844E1,4.009195864E-1,-9.267698228E-2,4.706629515E-1
3.732947844E1,3.857177496E-1,5.229879022E-1,3.769736588E-1
3.735148000E1,2.572964430E-1,1.037964702E0,3.443360031E-1
3.737347844E1,-7.485716790E-2,1.272990823E0,2.714161575E-1
3.739348000E1,-4.421442449E-1,8.799775243E-1,1.545488983E-1
3.741549719E1,-6.146177053E-1,4.936314821E-1,1.332733482E-1
3.743747688E1,-5.271766782E-1,4.521100819E-1,8.836601675E-2
3.745747688E1,-3.980223238E-1,5.987875462E-1,-6.979571283E-2
3.747748000E1,-3.099879324E-1,7.380298972E-1,-1.766098738E-1
3.749947688E1,-3.227113783E-1,6.621255279E-1,9.337511845E-3
3.751947844E1,-3.271619678E-1,5.764997005E-1,2.990446985E-1
3.754147688E1,-2.782927454E-1,5.661150217E-1,4.668930173E-1
3.756147688E1,-2.155307084E-1,5.210680366E-1,3.796614707E-1
3.758147844E1,-1.690351367E-1,1.175828278E-1,2.391101122E-1
3.760147844E1,-4.380776361E-2,-3.691371530E-2,3.466922045E-1
3.762347844E1,1.207418740E-1,5.105611682E-1,7.854155898E-1
3.764348000E1,2.597049773E-1,1.062451720E0,7.962715626E-1
3.766547844E1,2.136282995E-2,-1.394518092E-2,-2.371902466E-1
3.768547844E1,-4.036422968E-1,-5.518207550E-1,-8.289790154E-1
3.770747844E1,-3.475823104E-1,-2.941403389E-1,-5.212774873E-1
3.772947844E1,-7.946483791E-2,2.280272692E-1,6.361725181E-2
3.775147844E1,2.718699276E-1,6.797184944E-1,2.892185152E-1
3.777347844E1,1.577079445E-1,-2.757620299E-3,1.116487086E-1
3.779348156E1,-2.240304649E-1,-2.518859208E-1,-5.244714394E-2
3.781549719E1,-6.553187966E-1,-2.111324817E-1,-2.865830660E-1
3.783747844E1,-7.952592969E-1,-2.339090258E-1,-3.812846243E-1
3.785747844E1,-7.679274082E-1,-3.753679693E-1,-2.700024247E-1
3.787947688E1,-6.548475623E-1,-4.496840835E-1,-6.801547855E-2
3.789948469E1,-4.742059708E-1,-4.536459744E-1,6.728244573E-2
3.792147688E1,-2.617993951E-1,-2.772455513E-1,1.609193534E-1
3.794148156E1,-1.102699041E-1,3.104940653E-1,1.839227974E-1
3.796347688E1,8.927359432E-2,8.101294637E-1,1.062905490E-1
3.798347844E1,1.388933063E-1,5.553113818E-1,8.873254061E-2
3.800347844E1,1.111251116E-1,2.718524933E-1,1.060985625E-1
3.802347844E1,4.352851212E-2,2.736152709E-1,1.912880838E-1
3.804547844E1,-1.493303776E-1,7.506661117E-2,3.016278148E-1
3.806548781E1,-4.155454338E-1,-2.926568091E-1,2.806489468E-1
3.808747844E1,-5.137725472E-1,-3.729070425E-1,2.840697765E-1
3.810748156E1,-4.246211648E-1,-4.726002514E-1,3.505668342E-1
3.812947688E1,-1.864360720E-1,-5.858721137E-1,5.193925500E-1
3.814948312E1,1.648987085E-1,-8.951095343E-1,7.069979906E-1
3.817147844E1,6.311634183E-1,-1.117237568E0,7.444003820E-1
3.819147844E1,8.481602073E-1,-6.700842381E-1,7.207337022E-1
3.821347844E1,6.426476836E-1,-1.844813079E-1,7.192502022E-1
3.823348781E1,8.672541380E-2,-2.029468864E-1,6.764372587E-1
3.825547844E1,-6.117204428E-1,-4.250225723E-1,4.308868945E-1
3.827547844E1,-9.162978530E-1,-3.994884193E-1,2.098234892E-1
3.829747688E1,-8.588067293E-1,-2.208365053E-1,2.347118706E-1
3.831747688E1,-5.298121572E-1,2.987829149E-1,5.851565599E-1
3.833747844E1,-2.059837580E-1,5.592209697E-1,1.113380432E0
3.835748312E1,-5.717698485E-2,4.882383943E-1,1.428412318E0
3.837947844E1,-3.089232743E-2,3.292738199E-1,1.396106362E0
3.839948469E1,8.724901080E-2,3.349112272E-1,1.225552797E0
3.842147688E1,2.382374406E-1,2.920110226E-1,1.146297336E0
3.844147688E1,3.735004663E-1,3.695734739E-1,1.132648826E0
3.846147844E1,4.771730304E-1,6.145827770E-1,1.054946780E0
3.848347688E1,4.647462666E-1,8.079128861E-1,1.017526984E0
3.850347844E1,3.514569402E-1,7.773347497E-1,9.586046338E-1
3.852347844E1,2.234021425E-1,5.088158250E-1,8.812516332E-1
3.854347844E1,3.227812052E-1,2.596700788E-1,9.464396834E-1
3.856347844E1,5.512447953E-1,1.395739764E-1,1.134341836E0
3.858347844E1,7.777361870E-1,1.812873483E-1,1.358442068E0
3.860548469E1,8.736768961E-1,4.572238922E-1,1.329190373E0
3.862747688E1,4.923050106E-1,4.391771853E-1,9.177988172E-1
3.864748469E1,-2.534218132E-1,6.630156636E-1,5.809677243E-1
3.866947844E1,-8.070402145E-1,1.082226276E0,7.128797174E-1
3.868947844E1,-7.413635254E-1,6.579192877E-1,1.349453688E0
3.871147688E1,-1.062032878E-1,2.711718082E-1,2.078913927E0
3.873148156E1,3.871140182E-1,1.270774156E-1,1.999937892E0
3.875347844E1,2.379407287E-1,5.714207888E-2,1.515661359E0
3.877347844E1,-3.279997110E-1,1.025555432E-1,1.100918770E0
3.879347844E1,-7.613649964E-1,3.171437681E-1,8.879013658E-1
3.881347844E1,-7.002609968E-1,4.256159961E-1,8.674809933E-1
3.883547844E1,-2.890963256E-1,4.003261626E-1,1.032885790E0
3.885548156E1,-5.969026126E-3,3.652974069E-1,1.209652781E0
3.887747688E1,7.504915702E-4,3.596948981E-1,1.132648826E0
3.889748000E1,-1.367814541E-1,3.806563020E-1,9.133482575E-1
3.891947688E1,-2.596177161E-1,2.045002282E-1,7.193374634E-1
3.893947844E1,-2.291093767E-1,9.798278660E-2,6.439043283E-1
3.896147844E1,-1.368163526E-1,1.129751652E-1,5.575104952E-1
3.898347844E1,-1.098335683E-1,2.729694843E-1,4.734205604E-1
3.900347844E1,-2.204874456E-1,2.115164548E-1,3.714235127E-1
3.902347844E1,-2.664070427E-1,9.450957924E-2,2.542944849E-1
3.904347844E1,-2.011666447E-1,1.263443828E-1,1.410575062E-1
3.906347844E1,-6.019640714E-2,1.841845959E-1,2.016378939E-1
3.908547844E1,5.569345504E-2,2.415884733E-1,5.669702291E-1
3.910547844E1,6.010913849E-2,1.767320335E-1,9.332275391E-1
3.912747844E1,-1.324704941E-2,-3.755075932E-1,7.210478783E-1
3.914947844E1,4.783947393E-2,-5.798507333E-1,1.511280537E-1
3.917147844E1,-3.738495335E-2,-1.443387270E-1,-2.675589621E-1
3.919147844E1,-2.988352776E-1,2.114815414E-1,-4.417777359E-1
3.921347844E1,-6.032207012E-1,1.589994878E-1,-3.330960870E-1
3.923347844E1,-8.528202176E-1,-2.144137025E-1,-6.279694289E-2
3.925348312E1,-8.921250701E-1,-2.930582464E-1,3.122394085E-1
3.927547688E1,-5.677555799E-1,1.746725440E-1,7.174524665E-1
3.929547688E1,-1.118057892E-1,5.575279593E-1,8.996124864E-1
3.931549719E1,2.713986933E-1,6.047740579E-1,8.365537524E-1
3.933748625E1,5.491504073E-1,4.128052592E-1,4.987278283E-1
3.935947844E1,6.453878284E-1,2.113768309E-1,1.570796371E-1
3.937947844E1,6.148969531E-1,1.769065708E-1,-1.227315515E-1
3.940147844E1,5.271243453E-1,2.548704445E-1,-3.210009634E-1
3.942347844E1,3.760311902E-1,2.407856286E-1,-4.569621086E-1
3.944547844E1,1.943947673E-1,3.115412779E-2,-4.919036031E-1
3.946547844E1,1.221206859E-1,-1.978505254E-1,-4.826358855E-1
3.948747844E1,1.844463944E-1,-4.764748812E-1,-4.235739410E-1
3.950947844E1,2.529680133E-1,-6.366786361E-1,-4.556182027E-1
3.953147844E1,3.230080903E-1,-6.537130475E-1,-6.240075827E-1
3.955148313E1,4.656538367E-1,-5.351005197E-1,-7.590786219E-1
3.957347844E1,5.604775548E-1,-5.197765231E-1,-1.073220372E0
3.959348156E1,5.348038077E-1,-7.090225816E-1,-1.570098162E0
3.961549719E1,4.479387403E-1,-5.394638181E-1,-1.782155752E0
3.963549875E1,3.109827638E-1,-3.483502567E-1,-1.671100378E0
3.965747688E1,1.064301804E-1,-1.655619293E-1,-1.400295138E0
3.967748156E1,-4.307472706E-2,-3.440916538E-1,-1.289152503E0
3.969947688E1,-5.099852011E-2,-3.761009872E-1,-1.397345543E0
3.971948000E1,-7.004006207E-2,-1.276708394E-1,-1.607273698E0
3.974147844E1,-3.527484834E-1,-1.219810620E-1,-1.756220102E0
3.976347688E1,-5.125857592E-1,-3.601312339E-1,-1.638166070E0
3.978347844E1,-3.019419611E-1,-4.305552840E-1,-1.295348406E0
3.980547844E1,2.051285505E-1,-3.333229721E-1,-7.489207983E-1
3.982548469E1,5.234940648E-1,-4.345520735E-1,-4.542917609E-1
3.984548469E1,5.187816620E-1,-6.209881306E-1,-4.293684363E-1
3.986747844E1,3.639535010E-1,-4.079706967E-1,-6.272014976E-1
3.988947688E1,2.588846982E-1,-2.879269719E-1,-7.419394851E-1
3.990948156E1,2.082526833E-1,-1.881464869E-1,-7.661297321E-1
3.993147688E1,1.432740837E-1,-2.205398083E-1,-7.567049265E-1
3.995147688E1,1.436231434E-1,-2.664070427E-1,-7.478212118E-1
3.997147844E1,1.810779124E-1,-3.569721878E-1,-7.358657122E-1
3.999148781E1,1.860869974E-1,-4.763701558E-1,-7.072423100E-1
4.001347844E1,2.083923109E-2,-6.968401670E-1,-7.746120095E-1
4.003348313E1,-9.807004780E-2,-8.849866390E-1,-8.544433713E-1
4.005547688E1,1.157327816E-1,-6.342526674E-1,-7.564606071E-1
4.007548313E1,4.272915125E-1,-1.061509252E-1,-5.747543573E-1
4.009747844E1,5.388005972E-1,-5.176297426E-1,-2.504198253E-1
4.011748000E1,4.807858467E-1,-9.504364729E-1,-3.441789374E-2
4.013947688E1,4.226140380E-1,-5.709495544E-1,7.005751878E-2
4.015947844E1,3.022386730E-1,-2.183930427E-1,1.062905490E-1
4.018147844E1,1.111600175E-1,1.593485661E-2,3.460988030E-2
4.020147844E1,-1.348965019E-1,1.162389293E-1,-1.612684280E-1
4.022147844E1,-4.582012892E-1,-1.205848008E-1,-3.449817896E-1
4.024148156E1,-6.245136857E-1,-1.056971401E-1,-2.627942264E-1
4.026347844E1,-5.400747061E-1,2.407332659E-1,4.045673087E-2
4.028348156E1,-4.237310290E-1,4.576253295E-1,2.331934422E-1
4.030547844E1,-4.205719829E-1,2.613106966E-1,1.258207858E-1
4.032548625E1,-2.979975045E-1,-8.251916617E-2,-7.775441557E-2
4.034747844E1,-8.988445625E-3,-4.018271565E-1,-2.316226512E-1
4.036947844E1,3.024306595E-1,-5.322905183E-1,-2.839825153E-1
4.039148469E1,6.843261719E-1,-4.737347066E-1,-3.751759827E-1
4.041347844E1,1.063149810E0,-1.968382299E-1,-4.865803421E-1
4.043348156E1,1.161935449E0,1.412320435E-1,-6.614099741E-1
4.045547844E1,7.584502697E-1,3.382797241E-1,-9.265080094E-1
4.047747844E1,4.914847016E-2,1.839402467E-1,-1.001208067E0
4.049948000E1,-5.208237171E-1,-3.120648563E-1,-8.521395326E-1
4.052147688E1,-7.188487649E-1,-2.734756470E-1,-5.475970507E-1
4.054148156E1,-5.605997443E-1,1.602386832E-1,-2.915572524E-1
4.056348781E1,-1.069188714E-1,8.458039761E-1,-1.090830788E-1
4.058547688E1,3.974289298E-1,8.725948334E-1,-1.526464969E-1
4.060547844E1,4.039215446E-1,-8.479682207E-1,-4.523718953E-1
4.062747688E1,-8.897688240E-2,-1.786152482E0,-1.008852720E0
4.064747844E1,-2.906496823E-1,-1.058245540E0,-1.017649174E0
4.066947688E1,-4.741536081E-1,-3.974638283E-1,-7.578394413E-1
4.068947844E1,-6.049660444E-1,-2.579771280E-1,-4.705582261E-1
4.070947844E1,-7.281862497E-1,-4.276580215E-1,-4.103268981E-1
4.072947844E1,-7.915068269E-1,-4.641005099E-1,-6.050533056E-1
4.075147844E1,-6.898413897E-1,-2.046747655E-1,-8.469558954E-1
4.077348000E1,-5.346466899E-1,-8.656833321E-3,-9.588140845E-1
4.079547688E1,-3.676710725E-1,3.649483621E-2,-8.457865715E-1
4.081549719E1,-2.782403827E-1,4.450589418E-3,-7.440862060E-1
4.083747844E1,-1.620712727E-1,8.038986474E-2,-6.684960127E-1
4.085948000E1,-4.783947393E-2,1.858077496E-1,-5.568298697E-1
4.088148469E1,5.963790044E-2,1.493827254E-1,-5.244190693E-1
4.090347844E1,1.818807572E-1,1.659808159E-1,-4.672944546E-1
4.092348156E1,2.641904950E-1,3.490658419E-4,-3.651926816E-1
4.094547844E1,2.889567018E-1,-3.050311804E-1,-2.231403440E-1
4.096547844E1,2.325476706E-1,-4.279198349E-1,-1.474105120E-1
4.098547844E1,1.284038723E-1,-3.599916101E-1,1.427679323E-2
4.100747844E1,1.570796408E-2,-4.558101892E-1,2.988527119E-1
4.102948156E1,-2.179916203E-2,-3.598345220E-1,5.944940448E-1
4.105147844E1,7.541567832E-2,1.815665960E-1,8.167268038E-1
4.107148469E1,2.406459898E-1,3.841993213E-1,9.694954753E-1
4.109347688E1,2.363873869E-1,-7.293207049E-1,8.253312707E-1
4.111347844E1,5.368632823E-2,-1.479533076E0,3.867126107E-1
4.113347844E1,-1.211956665E-1,-1.061421990E0,3.989822790E-2
4.115347844E1,-2.931105793E-1,-2.073102146E-1,-5.002113804E-2
4.117347844E1,-5.453630090E-1,2.899166346E-1,-8.054694533E-2
4.119347844E1,-8.239873648E-1,2.681523860E-1,-9.768607467E-2
4.121348156E1,-9.786235690E-1,3.717202246E-1,-3.612831607E-2
4.123547844E1,-9.341874719E-1,6.587396264E-1,1.243547052E-1
4.125548156E1,-6.948679090E-1,1.040774703E0,3.883531988E-1
4.127747844E1,-3.480186462E-1,1.011488080E0,5.607044697E-1
4.129947844E1,4.843288660E-2,4.434707165E-1,6.034824848E-1
4.131947844E1,3.960151970E-1,-2.408728898E-1,3.966435194E-1
4.134147688E1,6.666808724E-1,-4.764574170E-1,6.089453772E-2
4.136147688E1,7.294603586E-1,-3.955439627E-1,-1.180191636E-1
4.138147688E1,6.857573390E-1,-2.104517967E-1,-1.570970863E-1
4.140147844E1,5.455724597E-1,-7.424630970E-2,-1.202531829E-1
4.142147844E1,3.624350727E-1,7.487462368E-3,-2.055997774E-2
4.144347688E1,2.094220519E-1,-4.347615317E-2,8.332201838E-2
4.146347844E1,1.020494029E-1,-2.141344398E-1,1.125388294E-1
