"Time (s)","Acceleration x (m/s^2)","Acceleration y (m/s^2)","Acceleration z (m/s^2)"
0.000000000E0,-3.688535929E0,5.187268257E0,5.789169788E0
2.000000000E-2,-3.666068554E0,5.009130001E0,6.754943371E0
4.000312500E-2,-3.032342434E0,5.017336845E0,8.998147011E0
6.200000000E-2,-1.937656164E0,4.468911648E0,1.135851479E1
8.200000000E-2,-1.711317897E0,3.657957077E0,1.027325058E1
1.020000000E-1,-2.711653709E0,3.710907221E0,7.987372875E0
1.220000000E-1,-2.762286425E0,4.280947685E0,6.676537991E0
1.420000000E-1,-2.149734735E0,4.937829971E0,6.977355003E0
1.640109380E-1,-1.708904505E0,4.809050560E0,8.612049103E0
1.859984380E-1,-1.990041256E0,4.014798641E0,8.498601913E0
2.060078130E-1,-2.106782436E0,3.653599501E0,8.212580681E0
2.280000000E-1,-2.136145115E0,3.816031933E0,8.452020645E0
2.480062500E-1,-1.879515409E0,4.062328339E0,9.174792290E0
2.699984380E-1,-1.928203821E0,3.966531515E0,8.948875427E0
2.900000000E-1,-2.277719021E0,3.870227098E0,8.371125221E0
3.119984380E-1,-2.107146502E0,3.716471434E0,8.773618698E0
3.319984380E-1,-1.881890416E0,3.562964916E0,9.418664932E0
3.520000000E-1,-1.916472316E0,3.247725010E0,9.119744301E0
3.720093750E-1,-1.510252833E0,3.551980257E0,8.067645073E0
3.939984380E-1,-1.122353911E0,4.419160366E0,7.216670036E0
4.140031250E-1,-1.005009294E0,5.086893559E0,7.715238094E0
4.359984380E-1,-7.852598429E-1,4.799665451E0,8.558361053E0
4.560078130E-1,-9.710403681E-1,2.828461885E0,8.228018761E0
4.780171880E-1,-1.710226178E0,2.176894188E0,7.045992374E0
5.000000000E-1,-1.776382685E0,3.348425150E0,7.360503674E0
5.220093750E-1,-1.473410845E0,3.840816736E0,8.467487335E0
5.439984380E-1,-1.701214314E0,2.228848696E0,8.845407486E0
5.639984380E-1,-2.087494850E0,7.151671648E-1,8.622622490E0
5.839984380E-1,-1.946447611E0,1.259579897E0,8.386151314E0
6.039984380E-1,-1.934926748E0,2.688487291E0,7.982967854E0
6.240265630E-1,-1.715091228E0,3.330602884E0,6.865067005E0
6.459984380E-1,-8.679842949E-1,1.541693449E0,9.622698784E0
6.660000000E-1,-5.130774379E-1,-8.497022390E-1,1.700867844E1
6.880000000E-1,1.435371786E-1,-5.917891860E-1,1.402254200E1
7.080000000E-1,8.693251014E-1,1.613452554E0,1.085644054E1
7.299984380E-1,2.501950502E0,1.517751455E0,8.844123840E0
7.499984380E-1,1.452159882E0,1.644012094E0,4.770226479E0
7.699984380E-1,1.849635720E0,8.463598490E-1,1.128632450E1
7.900000000E-1,-4.617840648E-1,-4.257848263E-1,2.026609421E1
8.119984380E-1,-1.447189569E0,-7.018745542E-1,1.200697899E1
8.319984380E-1,-7.764587402E-1,-2.157750428E-1,6.363749981E0
8.519984380E-1,-2.314359903E0,3.443628252E-1,2.239957809E0
8.719984380E-1,1.205528378E-1,1.158554196E0,3.999590635E0
8.919984380E-1,2.343281746E0,1.442985296E0,9.922644615E0
9.119984380E-1,2.967287302E0,3.790883303E0,1.003428078E1
9.319984380E-1,5.069741249E0,5.685300350E0,4.956151009E0
9.519984380E-1,5.350820541E0,3.024671555E0,2.835568190E0
9.719984380E-1,5.712689877E0,2.042704105E0,4.925552845E0
9.919984380E-1,8.713611603E0,4.426984310E0,5.880465984E0
1.011998438E0,1.097203255E1,4.966053009E0,4.352352142E0
1.031998438E0,1.152848339E1,3.928492546E0,6.645671844E0
1.052001563E0,1.174519730E1,4.523288727E0,4.617390156E0
1.073998438E0,1.088107204E1,4.070162296E0,1.098823667E0
1.093998438E0,1.033841228E1,4.061160088E0,-3.263584375E-1
1.113998438E0,8.685560226E0,3.053565025E0,-5.578298569E-1
1.133998438E0,5.410551071E0,9.621434808E-1,-2.605619431E0
1.153998438E0,3.403415203E0,2.919298112E-1,-5.044199944E0
1.173998438E0,6.376371861E0,2.777743101E0,-7.950981140E0
1.193998438E0,6.845530510E0,1.727167487E0,-8.882583618E0
1.213998438E0,2.714383125E0,3.524264786E-3,-1.180091476E1
1.233998438E0,1.944034338E0,1.088557363E0,-1.310577297E1
1.253998438E0,1.009931803E0,6.547538280E0,-2.178623009E1
1.273998438E0,9.871744156E0,5.948298454E0,-3.535828018E1
1.294000000E0,5.666318893E0,2.619256675E-1,-1.050366020E1
1.316000000E0,6.506386995E-1,-3.020438671E0,1.205040097E0
1.337998438E0,6.266373158E0,1.943842769E0,1.310167503E1
1.357998438E0,4.036432743E0,3.341166019E0,-5.240581989E0
1.378017188E0,4.105251312E0,1.701405883E0,-1.133201599E1
1.399998438E0,6.477455139E0,1.834044695E0,-1.308673573E1
1.419998438E0,5.520971775E0,1.479750752E0,-1.202427483E1
1.439998438E0,4.946650505E0,1.293606281E0,-1.117012882E1
1.459998438E0,8.257678986E0,3.773740768E0,-1.110075474E1
1.480006250E0,1.073545742E1,6.000453472E0,-4.522819519E0
1.501998438E0,7.189988613E0,4.392737865E0,-6.331868649E0
1.521998438E0,4.906638622E0,3.885999918E0,-1.030677891E1
1.541998438E0,4.200579166E0,5.112118721E0,-1.099141598E1
1.561998438E0,5.266918182E0,5.417216301E0,-8.699226379E0
1.581998438E0,7.078850269E0,5.035609245E0,-7.374083996E0
1.601998438E0,3.306670189E0,2.779620409E0,-5.673501492E0
1.621998438E0,3.373190641E0,3.579925299E0,-7.555918694E0
1.641998438E0,3.737176418E0,3.820389509E0,-6.756858349E0
1.661998438E0,4.641581535E0,4.255952358E0,-4.923905849E0
1.681998438E0,4.902760029E0,4.373152733E0,-5.159140587E0
1.701998438E0,5.630012989E0,4.483611584E0,-7.098118782E0
1.721998438E0,5.315051079E0,4.921789169E0,-9.097257614E0
1.741998438E0,4.948987484E0,3.973512888E0,-7.599129200E0
1.762000000E0,4.070957184E0,3.265422821E0,-7.675245762E0
1.783998438E0,4.829880238E0,3.778012037E0,-7.306078911E0
1.803998438E0,4.276236057E0,5.406576633E0,-6.615571976E0
1.823998438E0,4.824900627E0,5.171599865E0,-7.682418346E0
1.843998438E0,5.251011372E0,5.088885307E0,-6.875495911E0
1.863998438E0,5.081654549E0,5.022891521E0,-6.932305813E0
1.883998438E0,3.439519882E0,3.917268276E0,-6.682389259E0
1.903998438E0,4.948412418E0,4.439740658E0,-7.284933090E0
1.923998438E0,6.440795422E0,4.895079613E0,-8.435242653E0
1.943998438E0,5.021972179E0,3.703197956E0,-6.230728149E0
1.963998438E0,4.307226658E0,2.899770975E0,-5.964205742E0
1.983998438E0,3.709250450E0,2.618864059E0,-6.271103859E0
2.003998438E0,4.737272739E0,3.345590353E0,-7.569182396E0
2.023998438E0,5.410340309E0,3.782187462E0,-8.011621475E0
2.043998438E0,3.229816437E0,3.909204483E0,-5.961389542E0
2.063998438E0,4.105739594E0,2.824956894E0,-6.387672901E0
2.083998438E0,3.751570225E0,2.396069050E0,-6.149641037E0
2.103998438E0,4.176435947E0,2.284652472E0,-7.271870613E0
2.123998438E0,5.016015053E0,2.405167341E0,-9.762586594E0
2.143998438E0,4.388351440E0,2.150893211E0,-8.721473694E0
2.163998438E0,5.621949673E0,3.141000986E0,-7.326036930E0
2.183998438E0,7.232183933E0,2.389585733E0,-8.176428795E0
2.203998438E0,8.185832977E0,2.791562557E0,-8.381764412E0
2.223998438E0,8.910404205E0,3.515463829E0,-9.294109344E0
2.243998438E0,7.941911697E0,3.361488104E0,-7.136636257E0
2.263998438E0,7.543047428E0,2.944475412E0,-6.293551922E0
2.283998438E0,6.648353577E0,1.321810007E0,-7.055185318E0
2.304000000E0,5.764682293E0,7.980161905E-1,-6.856715679E0
2.326000000E0,5.506596565E0,1.140770078E0,-7.549722195E0
2.346000000E0,5.345237255E0,3.094065189E0,-6.928905964E0
2.366000000E0,6.445717812E0,2.975092411E0,-1.005955505E1
2.387998438E0,7.209333897E0,2.506346226E0,-9.471835136E0
2.408009375E0,6.992419243E0,1.824649930E0,-9.330817223E0
2.430000000E0,6.785483837E0,8.816025257E-1,-6.866005421E0
2.451998438E0,7.012607574E0,2.049312353E0,-6.664432526E0
2.471998438E0,8.009121895E0,3.133751392E0,-8.179752350E0
2.492000000E0,7.119685650E0,1.915409327E0,-6.586410522E0
2.514000000E0,5.423996925E0,1.059290648E0,-6.033005238E0
2.536000000E0,5.573816299E0,-5.780560523E-2,-5.494922638E0
2.556000000E0,5.062749863E0,-4.337239861E-1,-4.821002960E0
2.578017188E0,8.062282562E0,7.122654319E-1,-7.832736492E0
2.599998438E0,6.222999573E0,4.561433196E-1,-8.142948151E0
2.619998438E0,5.003670692E0,-3.825742900E-1,-9.670180321E0
2.640000000E0,4.723530293E0,1.868051887E-1,-8.915125847E0
2.661998438E0,5.768599033E0,-3.841640353E-1,-9.869254112E0
2.681998438E0,6.902790070E0,6.311881542E-1,-9.470456123E0
2.701998438E0,8.346771240E0,6.299431920E-1,-1.007417870E1
2.721998438E0,1.033778000E1,3.093797207E0,-1.082408047E1
2.741998438E0,9.317514420E0,4.898412228E0,-8.382827759E0
2.761998438E0,7.474133015E0,3.796466589E0,-6.795089245E0
2.781998438E0,5.274435997E0,3.739685535E0,-2.953525543E0
2.801998438E0,3.363872528E0,2.926710367E0,-4.642605782E0
2.821998438E0,4.450179100E0,4.635423183E0,-8.136473656E0
2.842010938E0,5.047705173E0,5.515532017E0,-8.961764336E0
2.863998438E0,5.885302067E0,4.404498100E0,-6.354709625E0
2.883998438E0,4.876787663E0,4.721327782E0,-3.982198954E0
2.903998438E0,4.806627750E0,4.014923096E0,-5.472513199E0
2.923998438E0,4.277030945E0,4.437911510E0,-6.793930054E0
2.943998438E0,5.336091518E0,4.119693279E0,-6.081971169E0
2.963998438E0,4.777476311E0,4.426868916E0,-6.147974491E0
2.983998438E0,4.168046474E0,2.985713243E0,-5.400351524E0
3.003998438E0,6.403944016E0,5.037467480E0,-4.793890953E0
3.023998438E0,6.073888779E0,4.027947426E0,-6.193637371E0
3.043998438E0,7.597644329E0,4.915909290E0,-6.389530659E0
3.063998438E0,6.239912033E0,4.290754318E0,-6.659749508E0
3.083998438E0,6.749579906E0,4.609959126E0,-6.492002487E0
3.103998438E0,6.002665997E0,4.631956577E0,-6.201269627E0
3.124000000E0,6.113910198E0,4.896468163E0,-6.801409721E0
3.146000000E0,7.631546974E0,5.991327286E0,-8.532647133E0
3.166000000E0,5.878857136E0,4.174128056E0,-6.850031376E0
3.188000000E0,5.361498356E0,4.223467827E0,-7.141578197E0
3.210000000E0,5.897483826E0,3.874144077E0,-6.899945736E0
3.231998438E0,6.874231815E0,4.537088871E0,-6.516892433E0
3.251998438E0,4.364601135E0,3.121627092E0,-6.516202927E0
3.272000000E0,5.415482998E0,3.371754169E0,-8.371230125E0
3.292000000E0,6.156392574E0,3.046382427E0,-7.396560669E0
3.313998438E0,3.367080927E0,2.808532715E0,-5.898738384E0
3.334000000E0,5.620149136E0,3.800737858E0,-7.439407349E0
3.356000000E0,6.876904011E0,4.102091312E0,-7.861974239E0
3.376000000E0,3.271245718E0,2.262089491E0,-5.977680206E0
3.396000000E0,4.366640568E0,3.456624031E0,-7.035964966E0
3.416000000E0,6.370597363E0,4.060815334E0,-7.975057125E0
3.436000000E0,4.911532402E0,3.444499731E0,-6.152179241E0
3.456000000E0,6.819108009E0,4.649798393E0,-7.098741055E0
3.478029688E0,7.451368809E0,5.435307026E0,-8.041174889E0
3.499998438E0,4.970602036E0,4.773520947E0,-6.966284275E0
3.520000000E0,5.438103676E0,5.616031170E0,-6.843509674E0
3.540000000E0,5.073265553E0,4.717908859E0,-7.541648865E0
3.561998438E0,5.365597725E0,4.774038315E0,-8.312141418E0
3.581998438E0,6.561223507E0,5.499031067E0,-8.914464951E0
3.602000000E0,6.802645683E0,5.156756401E0,-7.404547215E0
3.622000000E0,6.867145061E0,5.703055859E0,-5.677130699E0
3.642000000E0,6.253980637E0,6.083110809E0,-6.317541599E0
3.663998438E0,6.650239944E0,5.489243507E0,-5.563109398E0
3.683998438E0,5.964876175E0,4.639981747E0,-5.611884117E0
3.703998438E0,7.464000702E0,5.272137642E0,-6.139375210E0
3.723998438E0,7.319477081E0,5.816157818E0,-7.028504848E0
3.743998438E0,6.280890942E0,5.900184631E0,-4.802145958E0
3.763998438E0,3.725262880E0,5.698985577E0,-4.607583523E0
3.783998438E0,3.346212864E0,3.864557505E0,-5.103920937E0
3.803998438E0,4.356230736E0,4.369284153E0,-5.727725029E0
3.823998438E0,5.084317207E0,4.303912640E0,-7.612134457E0
3.843998438E0,7.752540112E0,5.944592476E0,-7.784890652E0
3.863998438E0,7.063881397E0,4.967776775E0,-6.541255951E0
3.883998438E0,5.875524521E0,3.800182343E0,-5.799618721E0
3.903998438E0,5.087831974E0,3.587213039E0,-6.055347919E0
3.923998438E0,3.818636656E0,3.598906517E0,-5.910211563E0
3.943998438E0,4.135657787E0,4.025658607E0,-6.446023941E0
3.963998438E0,5.170872688E0,2.377336979E0,-5.968648911E0
3.984000000E0,4.541532516E0,1.751291513E0,-4.245522976E0
4.005998438E0,6.348206520E0,1.892147183E0,-5.317263126E0
4.026000000E0,6.876798153E0,2.219367504E0,-6.203433990E0
4.047998438E0,6.877162457E0,2.449277878E0,-7.115768433E0
4.067998438E0,6.084260464E0,2.550705910E0,-9.952695847E0
4.087998438E0,5.884995461E0,1.866270661E0,-1.019684792E1
4.108000000E0,4.970908642E0,1.914039850E0,-8.372168541E0
4.128000000E0,5.133599758E0,2.161063910E0,-8.327186584E0
4.149998438E0,7.297392368E0,3.061255217E0,-1.003516197E1
4.170000000E0,5.960432053E0,3.128024340E0,-8.984031677E0
4.191998438E0,4.096115112E0,4.831690788E-1,-8.361960411E0
4.212000000E0,5.334080219E0,1.754700780E0,-6.756494522E0
4.232000000E0,8.244874001E0,3.700439930E0,-7.055070877E0
4.253998438E0,6.684419632E0,2.998057604E0,-6.970220089E0
4.273998438E0,5.375749111E0,1.228704333E0,-6.448993206E0
4.293998438E0,3.576353312E0,1.367606282E0,-5.289443016E0
4.313998438E0,2.217892647E0,1.675309062E0,-7.791852951E0
4.334000000E0,4.938740253E0,3.491952658E0,-9.407632828E0
4.356000000E0,9.135689735E0,4.049533844E0,-1.183524799E1
4.376000000E0,1.013092136E1,3.972248793E0,-1.258845425E1
4.396000000E0,8.372694969E0,2.356823444E0,-8.693049431E0
4.416000000E0,7.910509109E0,3.304745436E0,-7.823369980E0
4.437998438E0,9.983887672E0,5.771539211E0,-5.663560390E0
4.457998438E0,8.570570946E0,6.050865650E0,-3.892110109E0
4.478018750E0,6.091777802E0,4.041306973E0,-4.383850574E0
4.499998438E0,3.671355009E0,2.922467947E0,-6.166831493E0
4.519998438E0,2.762726784E0,2.124135733E0,-4.894936085E0
4.539998438E0,3.567724466E0,3.196910381E0,-5.151191711E0
4.559998438E0,7.061199665E0,3.765504599E0,-7.196318626E0
4.579998438E0,9.837171555E0,5.879345417E0,-9.147402763E0
4.599998438E0,6.704406261E0,3.709001541E0,-8.928524017E0
4.620006250E0,5.494587421E0,2.359466553E0,-7.503590584E0
4.641998438E0,4.862432003E0,3.173140764E0,-6.069444656E0
4.661998438E0,4.039525986E0,2.807804823E0,-5.934986591E0
4.682000000E0,4.394279480E0,2.489126921E0,-6.472944260E0
4.703998438E0,5.443629265E0,2.647326231E0,-7.358760834E0
4.723998438E0,5.013803005E0,2.920926094E0,-7.488976479E0
4.743998438E0,6.453273773E0,2.657784224E0,-8.535444260E0
4.763998438E0,5.966408253E0,2.758168221E0,-7.879279137E0
4.783998438E0,4.738958359E0,2.422980070E0,-6.686650753E0
4.803998438E0,5.341090202E0,1.996639729E0,-6.340315342E0
4.823998438E0,8.264659882E0,4.248491764E0,-7.105033398E0
4.843998438E0,6.886518955E0,3.829391718E0,-6.976234436E0
4.863998438E0,4.515799999E0,2.571928024E0,-6.808190346E0
4.883998438E0,3.396519661E0,2.268850803E0,-7.437300205E0
4.903998438E0,3.169252634E0,2.403788090E0,-8.158041000E0
4.923998438E0,5.046258926E0,3.079776525E0,-9.352383614E0
4.943998438E0,5.922594070E0,3.939065218E0,-8.822987556E0
4.963998438E0,6.380642891E0,3.557237864E0,-7.676634312E0
4.983998438E0,6.829259396E0,3.609077215E0,-6.900826454E0
5.004000000E0,7.162503242E0,5.087419987E0,-7.058374882E0
5.026000000E0,5.847387791E0,3.966378212E0,-6.240381241E0
5.047998438E0,4.946640968E0,3.474695206E0,-6.070843220E0
5.067998438E0,5.720600128E0,3.586045027E0,-8.205828667E0
5.088000000E0,4.925696373E0,3.354678631E0,-7.548180580E0
5.108000000E0,5.296376228E0,4.009196281E0,-6.979146004E0
5.128000000E0,6.744198322E0,4.611912727E0,-7.160482883E0
5.148000000E0,6.697243214E0,3.346241713E0,-6.589714527E0
5.168000000E0,5.713168621E0,3.667237043E0,-5.927124023E0
5.188000000E0,6.973811626E0,5.053681374E0,-7.848260403E0
5.210000000E0,5.743623257E0,3.865304708E0,-7.689735413E0
5.231998438E0,4.947608471E0,2.507993460E0,-6.145168781E0
5.251998438E0,6.773263454E0,4.190322399E0,-7.303196430E0
5.271998438E0,7.383995533E0,4.431236267E0,-6.952656269E0
5.291998438E0,5.975917816E0,4.454048157E0,-6.458129406E0
5.312000000E0,6.060107231E0,4.384827137E0,-7.001153469E0
5.332000000E0,4.382365704E0,3.221273899E0,-6.718570232E0
5.353998438E0,5.764021397E0,4.043461800E0,-8.439723969E0
5.373998438E0,6.125383377E0,3.915956259E0,-7.700049400E0
5.393998438E0,6.635931969E0,4.994017601E0,-8.244116783E0
5.413998438E0,5.427721977E0,3.633708715E0,-7.121639252E0
5.434018750E0,4.983204842E0,2.996448755E0,-6.715640068E0
5.456000000E0,6.078169346E0,2.694089890E0,-6.929691315E0
5.478018750E0,6.752472401E0,3.984564543E0,-8.086684227E0
5.500000000E0,6.785607815E0,4.037543297E0,-8.630838394E0
5.521998438E0,3.407676697E0,1.255624771E0,-5.460944176E0
5.541998438E0,6.235583305E0,2.776814222E0,-7.870861530E0
5.561998438E0,6.708476543E0,4.053009987E0,-8.799763680E0
5.581998438E0,4.829306126E0,3.197686195E0,-7.841192245E0
5.601998438E0,5.471066952E0,3.856963158E0,-7.105215073E0
5.621998438E0,4.566442013E0,3.283216476E0,-5.630127907E0
5.641998438E0,5.010509014E0,2.899876118E0,-7.476277828E0
5.661998438E0,7.004562378E0,3.841362476E0,-8.143331528E0
5.681998438E0,7.130181789E0,4.385727406E0,-8.102293968E0
5.701998438E0,6.281073093E0,3.048843622E0,-6.016619205E0
5.721998438E0,6.351683140E0,4.082793713E0,-7.187422276E0
5.741998438E0,5.509738445E0,2.722034931E0,-7.290497780E0
5.761998438E0,6.345553875E0,3.605236769E0,-7.640941620E0
5.781998438E0,6.740501404E0,4.620014668E0,-7.695012093E0
5.801998438E0,4.833558083E0,3.113304853E0,-6.879288673E0
5.821998438E0,5.577331066E0,3.255261898E0,-7.836471081E0
5.842010938E0,5.402544975E0,3.326341152E0,-8.440825462E0
5.863998438E0,6.403512478E0,4.087362289E0,-8.650001526E0
5.883998438E0,6.005529404E0,3.984401941E0,-7.259372711E0
5.903998438E0,5.288475513E0,3.778423786E0,-6.580176353E0
5.923998438E0,4.921415329E0,3.216169357E0,-7.262916088E0
5.943998438E0,6.821128368E0,4.009904861E0,-9.213932037E0
5.963998438E0,7.788960457E0,4.813025475E0,-9.698672295E0
5.983998438E0,9.171669960E0,6.285210609E0,-8.245065689E0
6.003998438E0,8.002905846E0,5.876089573E0,-9.429371834E0
6.023998438E0,6.108546734E0,8.131791115E0,-1.001902580E1
6.043998438E0,9.086675644E0,9.970221519E0,-9.900837898E0
6.063998438E0,1.443894196E1,9.329877853E0,7.187297940E-1
6.083998438E0,1.572747231E1,7.547768593E0,1.127689171E1
6.103998438E0,1.407500362E1,4.390027523E0,2.068415070E1
6.123998438E0,1.688136292E1,2.638496637E0,2.344726944E1
6.143998438E0,1.952896690E1,-5.828253031E-1,1.778386116E1
6.164000000E0,1.413717651E1,-3.189651072E-1,7.390738010E0
6.184000000E0,5.520847321E0,5.274522305E-1,-1.919575214E0
6.206000000E0,-1.552208811E-1,3.584311604E-1,-3.119443655E0
6.226001563E0,2.627684474E-1,1.229863167E0,-1.780328341E-2
6.247998438E0,2.480038643E0,2.081519127E0,2.127947330E0
6.268000000E0,3.302896976E0,3.521257877E0,3.250981092E0
6.290000000E0,3.935991049E0,3.895701408E0,4.082276821E0
6.311998438E0,3.164732456E0,3.765140533E0,4.374637604E0
6.332000000E0,3.516670465E0,4.253730297E0,4.086116791E0
6.353998438E0,3.704787493E0,4.842493057E0,4.324148655E0
6.373998438E0,3.478583574E0,5.346606731E0,4.257216454E0
6.393998438E0,3.454296589E0,5.818283558E0,3.712746143E0
6.413998438E0,2.910535097E0,5.699148178E0,4.808696747E0
6.433998438E0,2.927371264E0,5.473748684E0,6.034996986E0
6.453998438E0,2.507323027E0,5.392364979E0,5.609891891E0
6.473998438E0,2.499958515E0,6.158183575E0,4.486925125E0
6.493998438E0,2.473363638E0,6.077729225E0,4.869959354E0
6.513998438E0,2.590037823E0,5.673367023E0,5.857586861E0
6.533998438E0,2.372807026E0,5.355848312E0,6.603313446E0
6.553998438E0,2.385084391E0,5.226388931E0,5.872632027E0
6.573998438E0,2.292007685E0,5.796831608E0,3.708388567E0
6.593998438E0,2.489117384E0,5.983224869E0,2.844819069E0
6.613998438E0,2.289670944E0,5.475261688E0,3.665694952E0
6.633998438E0,2.541177034E0,4.706243992E0,4.791429520E0
6.653998438E0,3.024432182E0,4.686400890E0,5.170594692E0
6.673998438E0,3.234078169E0,4.576210022E0,4.445946217E0
6.693998438E0,3.133492947E0,4.861790657E0,3.579139948E0
6.713998438E0,2.869824171E0,3.566307068E0,1.681984186E0
6.733998438E0,2.563672781E0,2.553080797E0,2.947693348E0
6.753998438E0,4.056524754E0,2.226961851E0,5.136424541E0
6.773998438E0,7.313787937E0,3.985800028E0,5.093759537E0
6.793998438E0,6.589283466E0,4.735367298E0,3.632252932E0
6.813998438E0,6.054802418E0,3.560503483E0,2.959692955E0
6.833998438E0,6.261727810E0,4.538218975E0,2.821691275E0
6.853998438E0,7.869970798E0,5.385862350E0,5.347765446E0
6.873998438E0,1.162822533E1,6.052579880E0,5.834880352E0
6.893998438E0,1.246845722E1,5.095196247E0,5.770715714E0
6.914000000E0,9.924790382E0,4.676824093E0,6.222779274E0
6.935998438E0,9.909275055E0,3.593294382E0,8.816753387E0
6.956000000E0,1.078768826E1,4.244268417E0,9.171449661E0
6.978018750E0,1.378283501E1,4.453578949E0,4.321179867E0
7.000000000E0,1.464897060E1,4.655237675E0,3.767764807E0
7.020018750E0,1.291676521E1,4.864452839E0,2.941612005E0
7.041998438E0,1.062589836E1,3.259629011E0,1.659718156E0
7.061998438E0,9.049852371E0,2.779668331E0,-2.956446648E0
7.081998438E0,7.847599506E0,2.140109777E0,-6.415895462E0
7.101998438E0,7.088177681E0,1.736639023E0,-7.861505032E0
7.121998438E0,6.536840916E0,1.440821052E0,-9.661360741E0
7.141998438E0,5.346185684E0,1.523736954E0,-1.101851845E1
7.161998438E0,3.550199032E0,7.930840850E-1,-1.023059654E1
7.181998438E0,7.532675743E0,7.844122887E0,-1.839611626E1
7.201998438E0,1.046607971E1,6.114417553E0,-2.307080460E1
7.221998438E0,9.562671661E0,3.455646992E0,-1.379230690E1
7.241998438E0,5.018141747E0,4.881681502E-1,-6.469803333E0
7.261998438E0,2.265920401E0,7.813525200E-1,-2.648858547E0
7.281998438E0,3.249583006E0,1.886008382E0,-6.042314053E0
7.302000000E0,4.701828957E0,2.155844450E0,-5.814721107E0
7.323998438E0,4.733164787E0,2.757153034E0,-9.498650551E0
7.343998438E0,3.345360518E0,1.187801719E0,-1.002307606E1
7.363998438E0,2.939409494E0,1.614199519E0,-9.515697479E0
7.383998438E0,3.589416027E0,2.314675808E0,-9.153962135E0
7.403998438E0,4.919059753E0,2.009874821E0,-8.359077454E0
7.423998438E0,5.061697006E0,1.866672873E0,-8.013651848E0
7.443998438E0,5.106534958E0,1.995126605E0,-8.079645157E0
7.463998438E0,4.709643364E0,1.313535690E0,-7.363309860E0
7.483998438E0,4.003832817E0,2.734264612E0,-8.164772987E0
7.503998438E0,3.760946035E0,5.873551369E-1,-8.197249413E0
7.523998438E0,4.317454815E0,2.733814478E0,-9.563303947E0
7.543998438E0,4.027085304E0,1.605235577E0,-9.914695740E0
7.563998438E0,4.160902500E0,1.178608060E0,-9.460812569E0
7.583998438E0,4.607861519E0,1.916156292E0,-9.611177444E0
7.603998438E0,4.119396687E0,2.178273439E0,-9.356225014E0
7.623998438E0,3.629638433E0,1.728891373E0,-8.940093040E0
7.643998438E0,3.754817009E0,2.249754667E0,-8.689726830E0
7.663998438E0,3.939113140E0,2.763856888E0,-7.848106861E0
7.683998438E0,3.532242537E0,2.668462515E0,-7.855356216E0
7.703998438E0,3.395648479E0,2.300023556E0,-8.021160126E0
7.723998438E0,3.739685535E0,1.627520919E0,-8.565821648E0
7.743998438E0,3.802720308E0,2.883978844E0,-8.282166481E0
7.763998438E0,3.920505285E0,3.198097944E0,-8.801468849E0
7.783998438E0,4.673156261E0,2.560550690E0,-8.965558052E0
7.803998438E0,3.843220472E0,3.296892405E0,-8.549666405E0
7.823998438E0,3.909865379E0,2.429195404E0,-7.927048683E0
7.843998438E0,4.528766632E0,2.246182680E0,-8.647866249E0
7.863998438E0,4.839026451E0,2.951064110E0,-8.380558968E0
7.884000000E0,5.148912430E0,3.677072525E0,-9.514634132E0
7.904000000E0,4.647720337E0,3.382940054E0,-9.422255516E0
7.926000000E0,3.787521839E0,3.046612024E0,-8.436707497E0
7.946000000E0,3.508645058E0,2.610302210E0,-8.025996208E0
7.967998438E0,5.076913834E0,3.181798458E0,-8.335681915E0
7.987998438E0,5.287967682E0,3.680558443E0,-8.282155991E0
8.008004688E0,4.446588039E0,2.175563335E0,-6.768485069E0
8.029998438E0,4.987763882E0,4.122336388E0,-8.890628815E0
8.049998438E0,4.654672623E0,2.380229235E0,-9.155542374E0
8.070000000E0,4.791305065E0,3.544826508E0,-9.532178879E0
8.091998438E0,4.812450886E0,2.940740585E0,-9.177080154E0
8.111998438E0,4.842023849E0,4.016378880E0,-8.621185303E0
8.131998438E0,4.158929825E0,3.691169500E0,-7.085697174E0
8.151998438E0,4.159187794E0,2.386559248E0,-6.455965042E0
8.171998438E0,4.834209442E0,2.894877195E0,-7.945790291E0
8.191998438E0,4.859942436E0,4.686965942E0,-9.374133110E0
8.211998438E0,4.265892506E0,3.621345043E0,-8.707501411E0
8.231998438E0,3.517810106E0,3.425805569E0,-7.225269318E0
8.251998438E0,3.601022959E0,3.630088568E0,-7.737638474E0
8.271998438E0,3.683172941E0,2.724160910E0,-7.832745552E0
8.291998438E0,5.431993484E0,3.948086500E0,-9.076839447E0
8.311998438E0,5.989229679E0,3.616001129E0,-9.052342415E0
8.331998438E0,5.756915569E0,3.933127403E0,-8.904007912E0
8.351998438E0,4.742588043E0,2.691829681E0,-8.330624580E0
8.371998438E0,4.398081779E0,2.876614332E0,-7.671031952E0
8.391998438E0,4.551980972E0,3.307541847E0,-8.163394928E0
8.411998438E0,4.783432961E0,3.729649067E0,-7.985610962E0
8.431998438E0,4.280535698E0,3.041392803E0,-7.494521618E0
8.451998438E0,3.819240332E0,3.553780556E0,-7.363827229E0
8.471998438E0,3.444020748E0,3.135714531E0,-7.892629623E0
8.491998438E0,4.193827152E0,3.277211905E0,-9.493326187E0
8.511998438E0,5.672390461E0,4.005614281E0,-1.016373158E1
8.532000000E0,5.096173286E0,3.914845467E0,-8.203196526E0
8.552000000E0,4.283581257E0,2.953927755E0,-6.700977802E0
8.573998438E0,4.162549496E0,2.773912668E0,-7.282807350E0
8.593998438E0,4.732762337E0,2.761271238E0,-8.547194481E0
8.613998438E0,5.241597176E0,3.815476656E0,-9.260388374E0
8.633998438E0,4.799052715E0,3.168055773E0,-8.041462898E0
8.654003125E0,3.490420341E0,2.590315342E0,-7.319697380E0
8.676000000E0,3.698821306E0,3.213670015E0,-8.254900932E0
8.698000000E0,4.331177711E0,3.380957603E0,-8.066726685E0
8.719998438E0,5.100387096E0,4.174865246E0,-8.345056534E0
8.739998438E0,4.943710327E0,4.251518250E0,-8.549981117E0
8.759998438E0,4.538956642E0,3.152454853E0,-7.748728752E0
8.779998438E0,4.791506290E0,4.491378784E0,-8.997582436E0
8.799998438E0,5.244297981E0,3.643783331E0,-8.511837006E0
8.819998438E0,4.884966373E0,3.118802071E0,-6.479389668E0
8.839998438E0,5.315290451E0,3.195004702E0,-7.382779121E0
8.860000000E0,5.850796700E0,4.049380302E0,-8.591516495E0
8.880000000E0,5.068094254E0,3.219147921E0,-8.566213608E0
8.901998438E0,4.320499897E0,2.840930939E0,-7.849007130E0
8.921998438E0,3.597843409E0,2.493723869E0,-7.359517574E0
8.941998438E0,4.658330917E0,3.467550993E0,-8.534313202E0
8.961998438E0,4.848555088E0,3.902874231E0,-8.695903778E0
8.981998438E0,3.230946541E0,3.477807760E0,-7.316038609E0
9.001998438E0,2.590277433E0,3.006600142E0,-6.763141155E0
9.021998438E0,3.005192280E0,2.359275103E0,-7.517487049E0
9.041998438E0,5.184921265E0,2.847558022E0,-8.968459129E0
9.061998438E0,5.758447647E0,3.784303904E0,-9.149633408E0
9.082000000E0,5.226082325E0,3.053354263E0,-8.597655296E0
9.102000000E0,4.682560444E0,2.868885756E0,-8.250112534E0
9.122032813E0,4.106678009E0,2.389374971E0,-7.911629677E0
9.143998438E0,4.914424896E0,2.200826883E0,-8.762500763E0
9.163998438E0,4.690279484E0,3.021243095E0,-8.709454536E0
9.183998438E0,4.225459576E0,2.984946966E0,-8.074330330E0
9.204000000E0,3.662716866E0,2.769622087E0,-7.752262115E0
9.224000000E0,3.571861506E0,2.982064486E0,-8.454433441E0
9.246000000E0,3.591474771E0,3.296308041E0,-8.392884254E0
9.267998438E0,4.071340084E0,2.820053577E0,-8.198120117E0
9.287998438E0,4.764279366E0,3.342640877E0,-8.801717758E0
9.308001563E0,5.305819511E0,3.829295635E0,-9.884480476E0
9.330001563E0,4.029843807E0,3.702776670E0,-8.782746315E0
9.351998438E0,3.766816616E0,2.117125511E0,-8.079932213E0
9.371998438E0,5.126320839E0,3.244172096E0,-8.877163887E0
9.391998438E0,5.014234066E0,3.732704163E0,-8.731673241E0
9.412000000E0,4.275125027E0,2.917641163E0,-6.926224709E0
9.433998438E0,3.949379444E0,2.602094889E0,-7.010289669E0
9.453998438E0,4.700650692E0,2.969212294E0,-8.496514320E0
9.474000000E0,4.958899498E0,4.481744766E0,-9.049804688E0
9.495998438E0,4.281120300E0,3.666719913E0,-7.633826256E0
9.516000000E0,3.866702795E0,3.766644239E0,-7.261518002E0
9.537998438E0,4.366468430E0,3.764144659E0,-8.617402077E0
9.557998438E0,4.571000576E0,3.069395304E0,-8.389540672E0
9.578017188E0,4.621269226E0,3.090109825E0,-8.379236221E0
9.599998438E0,5.524438381E0,3.861962080E0,-9.223480225E0
9.619998438E0,5.072844028E0,3.076740742E0,-8.756821632E0
9.639998438E0,5.043922424E0,3.482462168E0,-7.933474541E0
9.659998438E0,3.971329451E0,3.190953732E0,-6.809875965E0
9.680001563E0,4.388993263E0,3.013409138E0,-7.407909393E0
9.701998438E0,4.424350739E0,2.876135349E0,-7.344347477E0
9.721998438E0,4.390199661E0,3.024776936E0,-8.517985344E0
9.741998438E0,3.775110006E0,2.286653996E0,-8.694591522E0
9.761998438E0,3.318603039E0,2.505666256E0,-9.279370308E0
9.781998438E0,2.593035460E0,1.528898954E0,-8.277981758E0
9.801998438E0,2.958045959E0,2.526275396E0,-8.564336777E0
9.821998438E0,4.592509747E0,2.861205101E0,-8.848950386E0
9.842010938E0,5.083943844E0,4.366717339E0,-9.461894989E0
9.863998438E0,4.946344376E0,3.677580118E0,-8.693365097E0
9.883998438E0,4.224731922E0,3.908457756E0,-7.618512630E0
9.903998438E0,4.068332672E0,4.193310261E0,-7.109112740E0
9.923998438E0,4.428143024E0,3.112701654E0,-7.572276115E0
9.943998438E0,5.208729267E0,3.901323080E0,-9.278470039E0
9.964000000E0,5.557487965E0,3.946324348E0,-9.197191238E0
9.984000000E0,5.034249306E0,4.523116112E0,-8.366978645E0
1.000600000E1,4.203049660E0,3.257387877E0,-6.606100559E0
1.002600000E1,4.835693836E0,4.097302914E0,-8.358090401E0
1.004799844E1,4.510743141E0,3.514860630E0,-9.048214912E0
1.006799844E1,4.792233944E0,4.440688610E0,-1.006725407E1
1.008799844E1,4.540469170E0,2.784427643E0,-8.349328041E0
1.010799844E1,4.280736923E0,3.671115637E0,-7.524784088E0
1.012800000E1,4.844025612E0,3.884946585E0,-7.601992607E0
1.014999844E1,4.888117313E0,3.897090197E0,-7.755815506E0
1.016999844E1,4.305693626E0,3.666576147E0,-7.789381981E0
1.018999844E1,4.528623104E0,3.088893890E0,-7.997476578E0
1.020999844E1,4.450868607E0,2.739799738E0,-8.425271988E0
1.023000313E1,4.852338314E0,2.969336987E0,-9.137786865E0
1.025200000E1,4.315433502E0,2.982907295E0,-8.564279556E0
1.027399844E1,3.060536861E0,2.198394299E0,-7.359871387E0
1.029399844E1,3.867210388E0,2.795632839E0,-7.711656570E0
1.031399844E1,5.148386002E0,3.087792158E0,-8.383986473E0
1.033399844E1,4.409219265E0,3.845624208E0,-8.717451096E0
1.035399844E1,4.091690540E0,3.449929714E0,-8.278067589E0
1.037399844E1,3.781181812E0,3.000528574E0,-7.694744110E0
1.039399844E1,3.881795883E0,3.125371933E0,-7.877335548E0
1.041399844E1,5.029815197E0,3.879315376E0,-9.597138405E0
1.043400000E1,4.222098351E0,2.134660721E0,-8.007991791E0
1.045600000E1,5.116686344E0,3.946966171E0,-8.491581917E0
1.047802344E1,5.523797035E0,3.765380144E0,-9.430147171E0
1.049999844E1,5.195685863E0,4.306421757E0,-9.466970444E0
1.052000000E1,3.629762888E0,2.905813932E0,-8.265665054E0
1.054199844E1,2.675491810E0,3.339786768E0,-6.848221302E0
1.056199844E1,2.201880455E0,2.258823872E0,-6.585117817E0
1.058199844E1,3.508616447E0,3.783231497E0,-7.682514668E0
1.060199844E1,3.570539951E0,2.790508986E0,-7.086750984E0
1.062199844E1,3.883222580E0,2.347055197E0,-8.332185745E0
1.064199844E1,6.696496010E0,3.781009436E0,-1.200045681E1
1.066199844E1,5.839160919E0,3.916119099E0,-1.116945934E1
1.068199844E1,5.042840004E0,3.482816458E0,-9.863766670E0
1.070199844E1,2.820455790E0,2.903524876E0,-6.598937035E0
1.072199844E1,1.866529226E0,3.456202745E0,-5.861618519E0
1.074199844E1,2.189487696E0,2.731496811E0,-6.552949429E0
1.076200000E1,3.212041855E0,3.270709515E0,-7.330566883E0
1.078400000E1,4.690681458E0,3.938643694E0,-8.838972092E0
1.080600000E1,4.417273521E0,2.435803413E0,-8.885945320E0
1.082800000E1,6.455888271E0,4.031548500E0,-1.311198902E1
1.084999844E1,5.898987293E0,3.626660109E0,-1.101136398E1
1.086999844E1,3.933079481E0,3.383916855E0,-8.210684776E0
1.088999844E1,2.960823059E0,3.734102249E0,-6.123256683E0
1.090999844E1,2.015467882E0,2.734915733E0,-5.510848999E0
1.092999844E1,2.107807398E0,3.596406937E0,-5.663579941E0
1.094999844E1,2.570003271E0,3.548072815E0,-6.299039364E0
1.096999844E1,3.988079309E0,3.083626509E0,-6.426133156E0
1.098999844E1,6.409430981E0,3.797596455E0,-1.176745319E1
1.100999844E1,7.662584782E0,5.485949039E0,-1.435371780E1
1.102999844E1,5.366124630E0,3.641379595E0,-9.984912872E0
1.104999844E1,3.526869774E0,2.620990038E0,-7.011170864E0
1.107000000E1,2.685154676E0,2.760562420E0,-6.290362835E0
1.109199844E1,2.780941963E0,3.051601648E0,-7.141453743E0
1.111200000E1,3.494576931E0,2.648169041E0,-8.115549088E0
1.113399844E1,2.332010031E0,2.003994703E0,-4.342871189E0
1.115399844E1,4.605725765E0,3.532386065E0,-1.148812675E1
1.117400156E1,4.739839554E0,3.073446274E0,-1.270252323E1
1.119599844E1,3.974863291E0,2.589195013E0,-1.046034336E1
1.121599844E1,2.887570143E0,1.977754235E0,-8.229703903E0
1.123600000E1,1.932733655E0,1.894895792E0,-6.559499741E0
1.125600000E1,2.225841522E0,1.737232804E0,-7.042428970E0
1.127600000E1,2.699902773E0,1.870360017E0,-8.172100067E0
1.129600000E1,3.133013964E0,1.998085856E0,-8.155550957E0
1.131600000E1,3.484406233E0,1.594567060E0,-7.608926296E0
1.133600000E1,4.417100906E0,3.648102522E0,-9.068748474E0
1.135600000E1,6.287135124E0,2.673604965E0,-1.119448280E1
1.137600000E1,5.232671261E0,4.308518887E0,-1.154978180E1
1.139600000E1,4.015469074E0,4.263441086E0,-8.932699203E0
1.141600000E1,3.131108046E0,3.420864105E0,-7.627859592E0
1.143799844E1,9.354528785E-1,2.189526081E0,-6.988291740E0
1.145799844E1,1.953094006E0,3.890386343E0,-6.869596481E0
1.147802500E1,3.646120071E0,4.476256847E0,-7.477226257E0
1.149999844E1,3.188004255E0,3.117413282E0,-4.279070377E0
1.151999844E1,5.338600636E0,3.829458475E0,-1.139987659E1
1.153999844E1,6.378354549E0,3.430814505E0,-1.590465355E1
1.155999844E1,5.496177197E0,3.399210930E0,-1.308540440E1
1.158000000E1,4.056400299E0,3.197398901E0,-9.375051498E0
1.160199844E1,2.342304945E0,2.366630077E0,-4.727035046E0
1.162199844E1,1.895776749E0,2.940702200E0,-5.822995663E0
1.164199844E1,3.537337065E0,3.178599596E0,-6.886241436E0
1.166199844E1,3.272299051E0,4.054848671E0,-7.121907234E0
1.168199844E1,2.314877033E0,2.841486454E0,-6.545354843E0
1.170199844E1,3.575520039E0,2.823194742E0,-1.103290272E1
1.172199844E1,5.700575352E0,3.510732889E0,-1.428633595E1
1.174199844E1,3.985215902E0,2.779026508E0,-1.091957092E1
1.176199844E1,2.753734112E0,2.364523172E0,-8.175767899E0
1.178199844E1,1.797231436E0,1.881430745E0,-7.263289452E0
1.180199844E1,1.798026323E0,1.853744149E0,-6.585519791E0
1.182199844E1,1.642307520E0,2.372079372E0,-6.941585541E0
1.184201250E1,2.450829268E0,2.018264055E0,-6.798077106E0
1.186399844E1,3.245579720E0,2.356411695E0,-7.694810867E0
1.188399844E1,4.233082294E0,2.393406630E0,-1.069328022E1
1.190399844E1,6.603840351E0,3.844656944E0,-1.546012688E1
1.192399844E1,6.005261421E0,2.927217960E0,-1.328701496E1
1.194399844E1,4.856705189E0,4.388543129E0,-1.059808731E1
1.196399844E1,2.682492495E0,2.337679386E0,-6.948719978E0
1.198399844E1,1.475125074E0,3.341644764E0,-5.741956711E0
1.200399844E1,6.442126632E-1,1.471351862E0,-5.597614765E0
1.202399844E1,2.916683674E0,3.698285103E0,-6.450429916E0
1.204399844E1,4.523001671E0,3.910947561E0,-8.103587151E0
1.206399844E1,5.771471977E0,4.486599922E0,-5.955844879E0
1.208399844E1,6.033263683E0,4.677829742E0,-1.198405170E1
1.210399844E1,6.557613373E0,5.041585445E0,-1.297412109E1
1.212399844E1,4.805268288E0,4.697011948E0,-1.141445255E1
1.214399844E1,2.288119316E0,2.478132725E0,-7.002925396E0
1.216399844E1,2.349315166E0,4.613234043E0,-6.791718483E0
1.218399844E1,2.356191397E0,3.361200571E0,-5.683068752E0
1.220399844E1,2.961493492E0,5.256191730E0,-6.157024860E0
1.222399844E1,3.257617950E0,4.685270786E0,-6.476200581E0
1.224399844E1,3.151823044E0,4.618051052E0,-4.991067886E0
1.226399844E1,5.426506042E0,5.445966244E0,-1.080761814E1
1.228399844E1,6.189250946E0,4.626450062E0,-1.367290306E1
1.230399844E1,6.004466534E0,4.879948139E0,-1.348024654E1
1.232399844E1,3.351269484E0,2.941363096E0,-8.845722198E0
1.234399844E1,2.664449692E0,3.564630985E0,-5.275029659E0
1.236399844E1,2.347830772E0,2.642873049E0,-4.926242352E0
1.238400000E1,3.077975988E0,2.931518078E0,-5.746275425E0
1.240599844E1,3.624361515E0,2.153910160E0,-6.180037975E0
1.242599844E1,4.777657986E0,2.010890007E0,-8.631441116E0
1.244600000E1,4.653715134E0,2.089659214E0,-9.092832565E0
1.246799844E1,4.873416424E0,3.152876139E0,-1.446501923E1
1.248799844E1,2.953343391E0,1.665349245E0,-1.353593540E1
1.250799844E1,1.951982975E0,1.062738299E0,-9.704034805E0
1.252799844E1,1.340149641E0,1.462493300E0,-6.952981949E0
1.254799844E1,3.150759697E0,2.737128019E0,-7.220567226E0
1.256799844E1,3.806828499E0,3.745489359E0,-7.366211414E0
1.258800000E1,4.162434578E0,3.530805826E0,-6.798556328E0
1.260800000E1,4.347937584E0,3.843814135E0,-7.512899399E0
1.262800000E1,4.085532665E0,3.324837446E0,-8.569881439E0
1.264999844E1,3.522943258E0,3.580442429E0,-8.974051476E0
1.266999844E1,3.995625734E0,3.429579020E0,-1.087647533E1
1.268999844E1,4.716807365E0,3.761070490E0,-1.115876102E1
1.270999844E1,4.132037640E0,3.401356220E0,-9.427639008E0
1.272999844E1,3.898296595E0,3.884505987E0,-8.040504456E0
1.274999844E1,3.511096716E0,4.242419720E0,-7.617631435E0
1.276999844E1,2.908026218E0,2.817113638E0,-7.232528687E0
1.279000000E1,2.627463818E0,3.243788958E0,-7.377511978E0
1.281199844E1,2.430775642E0,3.024901390E0,-7.180249214E0
1.283199844E1,1.999704361E0,2.907652617E0,-7.047342300E0
1.285199844E1,3.713310957E0,2.975552320E0,-1.058114529E1
1.287199844E1,5.470587730E0,3.126195431E0,-1.318686008E1
1.289199844E1,6.451894760E0,2.978271961E0,-1.359642315E1
1.291199844E1,4.522771358E0,2.854635477E0,-9.594887733E0
1.293199844E1,2.348165989E0,1.774247050E0,-6.382003307E0
1.295199844E1,7.785848379E-1,2.302867651E0,-5.581353664E0
1.297199844E1,9.952409267E-1,1.714832664E0,-6.051392555E0
1.299199844E1,2.412579536E0,3.051936865E0,-8.649044037E0
1.301199844E1,2.714373589E0,3.189277887E0,-6.218249321E0
1.303200625E1,4.486868382E0,4.121618271E0,-1.167777634E1
1.305399844E1,6.320424080E0,4.290514469E0,-1.303974247E1
1.307399844E1,6.033560753E0,4.845480919E0,-1.137599182E1
1.309399844E1,5.087544441E0,4.537624836E0,-8.735436440E0
1.311400000E1,3.188865900E0,3.543801546E0,-5.681833267E0
1.313400000E1,2.178991795E0,4.194583893E0,-5.519545078E0
1.315600000E1,3.217625141E0,4.262569904E0,-6.228247643E0
1.317600000E1,3.016378164E0,4.365568161E0,-7.927278519E0
1.319600000E1,3.160987854E0,4.016541481E0,-8.838655472E0
1.321600000E1,3.930034161E0,3.499087334E0,-9.168289185E0
1.323600000E1,4.995099545E0,3.894006252E0,-1.145747185E1
1.325799844E1,5.775226116E0,4.391904354E0,-1.290704632E1
1.327801875E1,4.394154549E0,3.842406511E0,-1.000964069E1
1.329999844E1,1.176817179E0,3.150108576E0,-5.563856602E0
1.331999844E1,5.679621100E-1,2.080992222E0,-5.517533779E0
1.333999844E1,1.514303803E0,3.548790932E0,-7.511654854E0
1.335999844E1,2.326263905E0,2.793516397E0,-7.819797993E0
1.337999844E1,4.150635719E0,4.188636780E0,-9.493105888E0
1.339999844E1,3.060306787E0,3.025006771E0,-4.744493484E0
1.341999844E1,3.801283598E0,3.028109550E0,-8.410418510E0
1.343999844E1,5.519429684E0,3.670857191E0,-1.360818291E1
1.345999844E1,5.348388195E0,3.104388952E0,-1.277879333E1
1.347999844E1,3.112778425E0,2.895365477E0,-9.640454292E0
1.349999844E1,1.411726713E0,2.276655912E0,-6.424189091E0
1.351999844E1,1.046055436E0,2.228158951E0,-5.963008404E0
1.353999844E1,2.518566132E0,2.294392347E0,-7.443630219E0
1.355999844E1,3.894111633E0,3.567293406E0,-9.365581512E0
1.357999844E1,3.999284267E0,3.388456345E0,-9.744439125E0
1.359999844E1,1.944053411E0,2.310280085E0,-3.309390068E0
1.361999844E1,3.022976637E0,2.609966993E0,-9.529200554E0
1.363999844E1,5.662287235E0,4.387681007E0,-1.435744381E1
1.365999844E1,6.864750862E0,5.146441936E0,-1.442539024E1
1.367999844E1,4.546531677E0,4.079269409E0,-9.004171371E0
1.369999844E1,1.767313480E0,3.330468655E0,-5.080304623E0
1.371999844E1,1.380113661E-1,2.560713530E0,-4.513002872E0
1.373999844E1,5.902377367E-1,4.058277130E0,-5.940579414E0
1.375999844E1,1.981077433E0,2.932571650E0,-8.902426720E0
1.377999844E1,3.174969912E0,2.867142916E0,-9.209938049E0
1.379999844E1,3.317405701E0,3.207627058E0,-4.640585423E0
1.381999844E1,5.011131287E0,3.695603609E0,-1.124289322E1
1.383999844E1,7.228870392E0,4.962030888E0,-1.651482964E1
1.385999844E1,5.525760174E0,3.767860651E0,-1.292166901E1
1.387999844E1,3.203882217E0,2.269435167E0,-8.027432442E0
1.389999844E1,2.263861418E0,2.152032852E0,-5.175000191E0
1.391999844E1,2.672685623E0,2.370614052E0,-4.966503620E0
1.393999844E1,3.392861605E0,3.537375450E0,-7.211479187E0
1.395999844E1,3.301489353E0,2.320268869E0,-9.207056046E0
1.397999844E1,1.250587225E0,1.288789153E0,-2.068475246E0
1.399999844E1,1.585344523E-1,1.029554605E0,-7.200235844E0
1.401999844E1,2.292486429E0,4.826710522E-1,-1.248175907E1
1.403999844E1,6.196222782E0,9.792093635E-1,-1.572291374E1
1.405999844E1,6.718407631E0,1.534223676E0,-1.400564003E1
1.408000313E1,4.912576199E0,2.306631327E0,-9.926791191E0
1.410199844E1,7.635971308E-1,1.362597704E0,-6.504097939E0
1.412199844E1,-4.768196344E-1,5.037112832E-1,-5.403368473E0
1.414199844E1,3.070994616E-1,1.930808663E0,-5.786421299E0
1.416199844E1,3.502123356E0,3.048910379E0,-8.241847992E0
1.418199844E1,5.803334236E0,4.178360939E0,-9.471442223E0
1.420199844E1,5.263000965E0,3.973723650E0,-1.002516365E1
1.422199844E1,3.602622271E0,1.974699259E0,-9.488431931E0
1.424199844E1,2.121147633E0,2.598082304E0,-1.068094540E1
1.426199844E1,1.532174230E0,1.124843836E0,-8.360034943E0
1.428199844E1,2.435918331E0,2.669611454E0,-8.959534645E0
1.430199844E1,3.659125566E0,2.037896633E0,-7.319677830E0
1.432199844E1,3.511498928E0,3.494538546E0,-7.547012329E0
1.434201250E1,3.963351727E0,3.057922363E0,-8.588384628E0
1.436399844E1,3.787320614E0,3.220641851E0,-9.455008507E0
1.438399844E1,3.730080128E0,3.757211208E0,-1.060377502E1
1.440399844E1,3.486235380E0,4.837905884E0,-9.587485313E0
1.442399844E1,3.395763397E0,3.464007616E0,-8.483719826E0
1.444399844E1,3.737195492E0,4.139555454E0,-8.218154907E0
1.446399844E1,3.992542028E0,3.845538139E0,-7.700499535E0
1.448399844E1,4.743679523E0,3.077660084E0,-8.421767235E0
1.450400000E1,3.795796156E0,3.895414114E0,-9.260197639E0
1.452600000E1,2.940788269E0,2.471132040E0,-8.955923080E0
1.454799844E1,3.560695171E0,1.470959187E0,-8.200562477E0
1.456799844E1,4.222260952E0,1.764201045E0,-7.882296562E0
1.458799844E1,4.437825203E0,2.578162670E0,-9.264908791E0
1.460800000E1,3.989448786E0,1.461181283E0,-8.474574089E0
1.462800625E1,3.736803055E0,2.182841539E0,-1.022641087E1
1.464999844E1,3.066656351E0,2.508385897E0,-8.617976189E0
1.466999844E1,3.271533012E0,2.413929939E0,-7.157973766E0
1.468999844E1,3.454919100E0,3.051879406E0,-8.221975327E0
1.470999844E1,3.549212456E0,1.931297064E0,-8.507144928E0
1.472999844E1,4.042235851E0,2.284940004E0,-1.090540695E1
1.474999844E1,4.444184303E0,2.437785625E0,-9.373826027E0
1.476999844E1,4.948192596E0,3.707852364E0,-8.612298012E0
1.479000000E1,4.491053104E0,3.524552345E0,-7.041596413E0
1.481199844E1,3.802365780E0,3.657018661E0,-6.162455082E0
1.483200625E1,4.956332684E0,3.711031675E0,-7.537713051E0
1.485399844E1,6.366986752E0,4.846879482E0,-1.030088997E1
1.487399844E1,5.974893093E0,4.525434017E0,-8.900156975E0
1.489399844E1,5.935311794E0,3.458223104E0,-8.520034790E0
1.491399844E1,5.555265903E0,4.186826706E0,-8.247335434E0
1.493399844E1,4.602670670E0,4.084172726E0,-7.713667870E0
1.495399844E1,3.948153496E0,3.230525255E0,-7.062234402E0
1.497399844E1,3.157109261E0,1.593341231E0,-8.153932571E0
1.499399844E1,3.162328720E0,1.729284048E0,-9.030306816E0
1.501399844E1,4.258566380E0,2.924306631E0,-1.057417393E1
1.503399844E1,4.840319157E0,2.840729952E0,-9.415246010E0
1.505399844E1,4.048020363E0,3.254792690E0,-6.778722763E0
1.507399844E1,4.357475758E0,4.554585457E0,-6.326926708E0
1.509399844E1,5.598486423E0,4.910267830E0,-7.577782154E0
1.511399844E1,5.471814156E0,6.461471558E0,-8.544781685E0
1.513399844E1,5.340027332E0,5.492461205E0,-7.543373108E0
1.515399844E1,6.074099064E0,6.390612602E0,-7.958747864E0
1.517399844E1,5.582339764E0,5.321592331E0,-8.446542740E0
1.519399844E1,5.417216301E0,5.464726925E0,-7.427464962E0
1.521399844E1,5.949849606E0,6.246424198E0,-7.418271065E0
1.523399844E1,5.797358513E0,6.305532455E0,-7.671156406E0
1.525399844E1,3.762794495E0,5.325959206E0,-5.701753139E0
1.527399844E1,4.915143013E0,5.493639469E0,-5.943452835E0
1.529399844E1,3.628556490E0,3.881221294E0,-7.787696362E0
1.531399844E1,2.278217077E0,3.749913692E0,-8.489695549E0
1.533399844E1,2.429013491E0,1.239822984E0,-8.682161331E0
1.535399844E1,2.906637430E0,2.280745268E0,-7.939776421E0
1.537399844E1,4.431533337E0,2.903132439E0,-9.715105057E0
1.539399844E1,3.567494631E0,1.880329370E0,-7.917922020E0
1.541399844E1,2.572387695E0,2.046094418E0,-6.335038662E0
1.543399844E1,3.598322153E0,1.869402170E0,-7.479859352E0
1.545399844E1,3.794704437E0,2.570194483E0,-9.339330673E0
1.547399844E1,4.447488308E0,2.646071672E0,-1.068196106E1
1.549399844E1,4.480327129E0,2.852595568E0,-9.415562630E0
1.551399844E1,3.352725029E0,3.450331926E0,-8.071678162E0
1.553399844E1,2.743783951E0,2.474589348E0,-6.790865898E0
1.555399844E1,2.128828287E0,2.517828703E0,-6.273315907E0
1.557399844E1,3.628862858E0,3.193213940E0,-8.662039757E0
1.559399844E1,5.014961720E0,3.350656509E0,-9.819770813E0
1.561399844E1,6.073620796E0,3.030120850E0,-1.084666348E1
1.563400000E1,7.625542164E0,4.336052895E0,-1.187287521E1
1.565599844E1,7.821406841E0,5.635050774E0,-1.250275135E1
1.567600000E1,4.780157566E0,4.599797726E0,-8.456109047E0
1.569600000E1,2.280649424E0,3.216274977E0,-2.964337587E0
1.571600000E1,2.723452330E0,4.191212654E0,-3.741658449E0
1.573600000E1,3.214742422E0,3.361267567E0,-5.432147026E0
1.575799844E1,4.296605587E0,5.181962490E0,-1.035340881E1
1.577801875E1,3.908783197E0,2.462072611E0,-9.194959641E0
1.579999844E1,2.443072319E0,4.263862133E0,-6.778061390E0
1.581999844E1,2.979660749E0,1.107682228E0,-3.608531237E0
1.583999844E1,3.858648777E0,4.614153385E0,-6.162129402E0
1.586000000E1,5.283342361E0,4.440046787E0,-1.043089581E1
1.588199844E1,4.323334694E0,1.840604901E0,-9.392137527E0
1.590199844E1,6.889650345E0,2.079709053E0,-1.307717800E1
1.592199844E1,6.855021000E0,3.080992937E0,-1.188272953E1
1.594199844E1,6.189030647E0,5.709107876E0,-1.249157524E1
1.596199844E1,4.932534218E0,2.433217525E0,-7.347805023E0
1.598199844E1,3.780233860E0,3.178819895E0,-4.657440662E0
1.600199844E1,2.322567225E0,1.851809740E0,-5.221973896E0
1.602199844E1,2.361947060E0,3.613597393E0,-8.175230980E0
1.604199844E1,3.250511885E0,1.723298430E0,-1.022308826E1
1.606199844E1,4.003948212E0,1.731457829E0,-9.608553886E0
1.608199844E1,5.169129372E0,3.904799223E0,-9.992200851E0
1.610199844E1,5.654711723E0,5.289175034E0,-9.437081337E0
1.612199844E1,4.399891376E0,5.781498909E0,-8.242461205E0
1.614199844E1,2.068197489E0,3.680242538E0,-5.810669899E0
1.616199844E1,2.132898331E0,3.507792711E0,-5.542672634E0
1.618199844E1,3.830492973E0,3.162405252E0,-6.388132095E0
1.620199844E1,5.826950550E0,5.593315125E0,-8.553888321E0
1.622199844E1,5.999725819E0,6.512209415E0,-9.493316650E0
1.624199844E1,4.198127270E0,5.360559940E0,-7.341762066E0
1.626199844E1,3.816539526E0,5.063822746E0,-7.471613884E0
1.628199844E1,3.559794903E0,4.374953747E0,-6.025065899E0
1.630199844E1,3.294277906E0,4.189958572E0,-7.995110989E0
1.632199844E1,3.697796583E0,3.277920723E0,-5.843834400E0
1.634201094E1,5.932305336E0,2.862277508E0,-8.578941345E0
1.636399844E1,6.544454575E0,3.738833189E0,-1.210808086E1
1.638399844E1,5.087467670E0,3.747768402E0,-1.176946449E1
1.640399844E1,4.089507103E0,3.248797655E0,-8.769979477E0
1.642399844E1,2.931470156E0,2.985100269E0,-6.584811211E0
1.644399844E1,2.797404528E0,4.082382202E0,-5.704262257E0
1.646399844E1,1.856492639E0,5.054964542E0,-5.494740486E0
1.648399844E1,-1.658128351E-1,3.220680237E0,-2.936478853E0
1.650399844E1,3.332230806E0,2.602669716E0,-4.588401318E0
1.652399844E1,5.693162441E0,2.303404093E0,-1.033599949E1
1.654399844E1,5.934306622E0,3.473009825E0,-1.506113815E1
1.656399844E1,4.002070904E0,3.211141586E0,-4.611720562E0
1.658399844E1,5.566547871E0,4.976644993E0,-9.244769096E0
1.660399844E1,6.215759277E0,1.830980062E0,-1.200978470E1
1.662400156E1,6.997648239E0,3.782101393E0,-1.425560379E1
1.664600000E1,8.420139313E0,2.760361433E0,-1.636027908E1
1.666600000E1,6.894831657E0,5.692234039E0,-1.362266350E1
1.668799844E1,3.834007502E0,3.116647243E0,-7.582235813E0
1.670800000E1,1.795823574E0,5.427387238E0,-3.324952364E0
1.672999844E1,-1.106159568E0,3.376159668E0,-2.387478828E0
1.674999844E1,-2.217059612E0,2.903180122E0,2.050423145E0
1.676999844E1,3.943575859E0,2.968149424E0,-5.004858494E0
1.679000000E1,6.875773907E0,3.134182453E0,-1.432221985E1
1.681000000E1,5.499874115E0,4.199171543E0,-1.029770088E1
1.683199844E1,4.596235275E0,6.594005108E0,-9.813535690E0
1.685199844E1,3.789925575E0,4.322290421E0,-1.118398666E1
1.687199844E1,1.319808483E0,1.085425615E0,-2.471630096E0
1.689199844E1,4.731066704E0,6.766320229E0,-2.964241982E0
1.691199844E1,6.354125023E0,3.302398920E0,-1.157983398E1
1.693199844E1,1.654201746E0,2.728125811E0,-8.198052406E0
1.695200000E1,3.554192305E0,4.946784496E0,-9.179416656E0
1.697200000E1,3.304295063E0,5.147523880E0,-8.416873932E0
1.699399844E1,9.979702830E-1,4.095847130E0,-5.473049283E-1
1.701399844E1,4.932180405E0,3.187803030E0,-3.392976522E0
1.703399844E1,6.089575291E0,5.407448411E-1,-9.404462814E0
1.705399844E1,5.456931591E0,1.471256137E0,-1.123056793E1
1.707399844E1,9.855567932E0,4.893451214E0,-1.380679607E1
1.709400000E1,7.880754471E0,2.579800367E0,-9.811524391E0
1.711400000E1,6.930294514E0,4.280938148E0,-8.419775009E0
1.713400000E1,3.033242941E0,2.841084242E0,-1.029275990E1
1.715600000E1,2.256582975E-1,1.987800241E0,-5.878014088E0
1.717600000E1,8.671798557E-2,3.145722389E0,-6.003565788E0
1.719799844E1,3.241356373E0,3.681142569E0,-6.321582794E0
1.721799844E1,2.916415215E0,3.968657494E0,-1.016293621E1
1.723800000E1,-5.949112400E-2,7.875774503E-1,-2.471017361E0
1.725999844E1,5.660783768E0,2.296930075E0,-7.829748154E0
1.727999844E1,7.698622704E0,2.260557413E0,-1.429050159E1
1.730000469E1,3.705563545E0,2.247954369E0,-8.649111748E0
1.732199844E1,7.564240694E-1,2.403491259E0,-8.186598778E0
1.734201406E1,1.672369003E0,-1.803149939E0,-6.788577080E0
1.736399844E1,8.161334991E0,5.763312817E0,-1.325209808E1
1.738399844E1,6.886633873E0,2.995376110E0,-1.114587116E1
1.740399844E1,6.237738132E0,2.782914877E0,-6.437788010E0
1.742400000E1,2.069136143E0,2.158564568E0,-1.043281078E1
1.744600000E1,2.863733292E0,2.091555357E0,-9.587973595E0
1.746600000E1,3.080130816E0,2.017785311E0,-1.002090263E1
1.748800000E1,4.338054180E0,2.545764208E0,-8.699216843E0
1.751000000E1,3.028789520E0,3.667907476E0,-7.106325626E0
1.753199844E1,3.575270891E0,4.131980419E0,-6.631507874E0
1.755199844E1,3.836698771E0,2.525777340E0,-7.003729343E0
1.757199844E1,4.861263752E0,4.051401138E0,-9.816188812E0
1.759199844E1,3.868273497E0,5.142860413E0,-1.150743389E1
1.761199844E1,2.943776369E0,4.965995789E0,-9.104412079E0
1.763199844E1,3.531476259E0,4.749291420E0,-4.572609425E0
1.765199844E1,3.232316017E0,3.384309292E0,-3.483467817E0
1.767199844E1,5.523087978E0,2.206630468E0,-7.948328018E0
1.769199844E1,8.694629669E0,3.625156403E0,-1.491708279E1
1.771199844E1,1.077618694E1,9.832316399E0,-1.782294464E1
1.773200000E1,5.749282837E0,7.497883320E0,-9.977634430E0
1.775200000E1,-9.299366474E-1,1.647172451E0,-2.498282433E0
1.777399844E1,4.772620678E0,6.228965759E0,-5.157186985E0
1.779399844E1,7.095331669E0,9.886960983E0,-1.247616577E1
1.781399844E1,-2.002222985E-1,1.293501019E0,-6.317800522E0
1.783399844E1,5.461078167E0,6.463319778E0,-9.307967186E0
1.785399844E1,2.996745586E0,4.058076382E0,-8.097305298E0
1.787399844E1,-3.732665777E0,1.592900753E0,2.778298616E0
1.789399844E1,1.007518387E1,6.795731068E0,-9.789325714E0
1.791399844E1,1.053623009E1,3.967709541E0,-1.573529720E1
1.793399844E1,-2.101994038E0,1.524627686E0,1.715014577E0
1.795399844E1,3.591120720E0,5.817239881E-1,-5.655171394E0
1.797399844E1,1.310460567E1,3.714872122E0,-1.549918079E1
1.799399844E1,9.356396675E0,5.584772587E0,-1.848146439E1
1.801399844E1,2.500628710E0,7.238667965E0,-7.878130436E0
1.803399844E1,-6.968822479E0,1.626524776E-1,4.856906414E0
1.805399844E1,-1.443387628E0,-6.983417034E0,8.435041428E0
1.807399844E1,1.226059151E1,1.226003647E1,-2.067314720E1
1.809400000E1,7.597405434E0,7.593794823E0,-2.105519295E1
1.811600000E1,-3.516986609E0,2.132343054E0,9.426929951E-1
1.813600000E1,-4.206037819E-1,-2.787999809E-1,1.508529067E0
1.815600000E1,4.044476986E0,1.053908467E0,-1.672416925E0
1.817600000E1,7.345698476E-1,5.478833675E0,-9.756209373E0
1.819800000E1,1.920561552E0,-1.039725184E0,-5.365530491E0
1.821999844E1,2.294287872E1,5.532042503E0,-2.233975029E1
1.823999844E1,1.597833729E1,9.895418167E0,-2.487190628E1
1.825999844E1,6.467485905E0,3.959961653E0,-8.617238998E0
1.827999844E1,1.148402810E0,2.321111679E0,1.373352408E0
1.830000000E1,-9.064064622E-1,-4.006361365E-1,6.163154244E-1
1.832199844E1,2.557419300E0,2.343664885E0,-1.239137268E1
1.834201094E1,5.017375469E0,9.385644913E0,-1.013553715E1
1.836399844E1,2.233665705E0,8.505038261E0,-7.308166504E0
1.838399844E1,-4.605390549E0,-4.353022575E0,3.919853926E0
1.840399844E1,3.502975702E0,-5.750920296E0,1.929123282E0
1.842400156E1,9.970950127E0,5.763916016E0,-1.379697037E1
1.844600000E1,8.403254509E0,3.263086081E0,-1.944779587E1
1.846799844E1,2.094149780E1,6.677361488E0,-1.969037437E1
1.848799844E1,1.091309643E1,2.384730339E0,-1.493392849E1
1.850799844E1,-2.035090685E0,-3.155893087E0,5.141557693E0
1.852800000E1,-5.674190998E0,7.569440842E0,-4.432605743E0
1.854800156E1,-8.554721832E0,1.075178504E0,1.038614273E0
1.856999844E1,-1.000633621E1,-1.157491207E0,4.047493458E0
1.858999844E1,1.356343985E0,-2.935339212E0,-3.928224087E0
1.860999844E1,2.032210922E1,1.320703888E1,-2.028739166E1
1.862999844E1,1.397496510E1,1.159484100E1,-2.790468025E1
1.864999844E1,1.302641106E1,-2.945299149E0,-1.494052696E1
1.866999844E1,1.009096718E1,-5.430269718E0,5.800978661E0
1.868999844E1,7.064140320E0,9.187864304E0,-1.770796585E1
1.870999844E1,-4.246088028E0,-1.240091205E0,2.750928164E0
1.872999844E1,-4.156678677E0,5.528575897E0,-4.285630703E0
1.875000000E1,4.181865692E0,-4.915181160E0,-1.414896607E0
1.877199844E1,1.388176346E1,8.491659164E0,-8.344061852E0
1.879200000E1,1.531035423E1,9.019828796E0,-2.565749168E1
1.881399844E1,5.629294872E0,7.139097691E0,-7.338438988E0
1.883399844E1,-8.960491180E0,-2.186231613E0,5.877812862E0
1.885400000E1,7.436725616E0,5.497316837E0,-3.755707502E0
1.887600000E1,1.584060383E1,5.355330944E0,-2.482136917E1
1.889600000E1,1.005533123E1,-1.966616511E0,-1.491018772E1
1.891800313E1,2.190502882E0,4.509249210E0,-3.761156797E0
1.893999844E1,3.372893810E0,1.643121481E0,-5.850653172E0
1.895999844E1,-2.683631897E0,2.631045580E0,1.388167739E0
1.898000625E1,-5.204170704E0,5.737455368E0,4.313882351E0
1.900199844E1,9.899985313E0,8.065184593E0,-1.083699989E1
1.902199844E1,9.932632446E0,4.844954491E0,-1.798660278E1
1.904200000E1,-1.476197720E0,1.957001328E0,-9.035190582E0
1.906399844E1,-3.222021103E0,6.702874184E0,-3.859998941E0
1.908399844E1,6.921732903E0,6.200025082E-1,-7.388554096E0
1.910399844E1,7.220615387E0,-4.216993809E0,-4.313393831E-1
1.912399844E1,4.123428345E0,1.204524803E1,-8.151778221E0
1.914399844E1,1.109905910E1,4.195014477E0,-1.132350063E1
1.916399844E1,1.355569267E1,6.513109684E0,-2.203326416E1
1.918399844E1,2.272557020E0,-1.624015689E0,-6.496522427E0
1.920399844E1,-8.567698479E0,4.121254444E0,5.871157169E0
1.922400156E1,-6.295793056E-1,8.774461746E0,-4.616988182E0
1.924600000E1,2.407283783E0,-4.514554501E0,-2.325756311E0
1.926800000E1,-4.810851574E0,5.979461193E0,4.351892471E0
1.928999844E1,1.505530548E1,8.028237224E-1,-2.467432594E1
1.930999844E1,2.448747253E1,-1.111313725E1,-1.438329124E1
1.932999844E1,1.169177723E1,1.523509121E1,-3.026418304E1
1.934999844E1,1.598192883E1,3.309955120E0,-1.478639889E1
1.936999844E1,5.582703590E0,7.077949524E0,-2.332038641E0
1.938999844E1,-6.164791584E0,1.417942047E-1,3.222327471E0
1.941000000E1,-1.167001820E1,2.101534367E0,3.302054167E0
1.943001563E1,-7.061410427E0,1.947798014E0,-8.925086021E0
1.945199844E1,2.329730749E0,-4.006265700E-1,-1.372269249E1
1.947199844E1,8.631402969E0,3.774382353E0,-1.230181026E1
1.949199844E1,1.122326088E1,9.268357277E0,-9.981790543E0
1.951199844E1,8.493795395E0,7.666090488E0,-6.714624882E0
1.953199844E1,2.701109648E0,5.370098948E-1,2.120965719E0
1.955199844E1,4.396578312E0,2.962403297E0,-3.451509953E0
1.957199844E1,5.075899124E0,3.559928894E0,-1.024885941E1
1.959199844E1,6.655401707E0,8.287481070E-1,-1.362173462E1
1.961199844E1,5.585624695E0,1.666919827E0,-9.503984451E0
1.963199844E1,7.859551430E0,3.617341757E0,-1.364378929E1
1.965199844E1,8.804878235E0,6.165442944E0,-8.677305222E0
1.967199844E1,4.037227154E0,7.572821617E0,-8.157256126E0
1.969199844E1,-6.598515511E-1,7.923878670E0,9.020394087E-2
1.971199844E1,-4.982094288E0,1.190281296E1,-2.338158131E0
1.973199844E1,1.293740392E0,2.385994434E0,-8.139347076E0
1.975199844E1,3.321715355E0,-3.356393099E0,-8.205484390E0
1.977199844E1,7.161928654E0,1.002931118E0,-3.601233721E0
1.979199844E1,1.372336292E1,8.363023758E0,-1.722543716E1
1.981199844E1,1.746465874E1,1.058353996E1,-1.578172588E1
1.983199844E1,6.992831230E0,7.162110806E0,-4.069462776E0
1.985199844E1,1.086603642E0,1.907460451E0,1.747633219E0
1.987199844E1,-2.024546623E0,2.371313125E-1,-2.153239727E0
1.989199844E1,2.926289141E-1,1.161494255E0,-7.383469105E0
1.991199844E1,4.259428501E0,6.357745171E0,-1.299993038E1
1.993199844E1,5.265893459E0,6.506645679E0,-1.093591881E1
1.995199844E1,4.015555382E0,6.088789940E0,-8.284148216E0
1.997199844E1,3.086154699E0,3.006992817E0,-5.820007324E0
1.999199844E1,2.847041130E0,2.267385721E0,-5.825896740E0
2.001199844E1,4.977890015E0,5.841938496E0,-9.296407700E0
2.003200000E1,6.171016693E0,5.907922268E0,-1.069056988E1
2.005399844E1,6.477780819E0,2.175132275E0,-6.290659904E0
2.007399844E1,6.550325394E0,2.446749687E0,-7.064417839E0
2.009400000E1,5.300130367E0,3.579159260E0,-8.741240501E0
2.011599844E1,4.912394524E0,3.866903782E0,-1.035152245E1
2.013600000E1,2.447314739E0,4.197687149E0,-9.772949219E0
2.015799844E1,-8.742284179E-1,3.341347933E0,-6.223708153E0
2.017801719E1,-2.424598455E0,3.551903486E0,-4.240600586E0
2.019999844E1,9.662041068E-2,3.108909130E0,-5.286617756E0
2.022000000E1,3.776460409E0,3.343090773E0,-7.253157139E0
2.024199844E1,6.918170452E0,4.160672188E0,-1.076359367E1
2.026199844E1,8.267619133E0,3.412513256E0,-1.137792683E1
2.028199844E1,7.498026848E0,3.304515362E0,-1.093980694E1
2.030199844E1,6.469056129E0,3.336205006E0,-1.047857857E1
2.032199844E1,5.266707420E0,3.485383034E0,-9.214918137E0
2.034201094E1,2.466860771E0,2.799367666E0,-7.423318386E0
2.036399844E1,2.172680616E0,3.329376936E0,-7.161507130E0
2.038399844E1,1.034534574E0,3.851130962E0,-7.884584904E0
2.040400469E1,5.635184646E-1,4.894456863E0,-6.376381874E0
2.042600000E1,3.094007730E0,4.478517056E0,-4.736314774E0
2.044600000E1,3.711338043E0,5.513252735E0,-6.063621998E0
2.046799844E1,5.719154358E0,5.171006203E0,-7.029596806E0
2.048799844E1,5.665687084E0,5.640356064E0,-6.975219250E0
2.050799844E1,4.280257702E0,4.822793961E0,-7.000281811E0
2.052799844E1,3.214033842E0,3.967010260E0,-6.685741425E0
2.054800000E1,3.302370310E0,5.332490921E0,-9.260485649E0
2.056999844E1,3.247811317E0,6.211545467E0,-1.188772869E1
2.058999844E1,3.204935789E0,4.157128811E0,-1.060060501E1
2.060999844E1,4.291673660E0,3.771940231E0,-9.746776581E0
2.062999844E1,5.547624111E0,3.797826529E0,-7.527399063E0
2.065000000E1,7.361327648E0,4.102598667E0,-7.435451984E0
2.067199844E1,7.448102951E0,4.068716049E0,-7.654482841E0
2.069199844E1,6.008287430E0,3.284662724E0,-7.589523315E0
2.071199844E1,5.704415321E0,1.986038208E0,-6.722190380E0
2.073199844E1,3.731947422E0,2.802278996E0,-6.124914169E0
2.075199844E1,3.875570774E0,2.374540567E0,-6.559787273E0
2.077199844E1,4.578834057E0,1.327939153E0,-8.249681473E0
2.079200000E1,6.308922291E0,1.303192735E0,-1.082208920E1
2.081399844E1,5.927162170E0,2.605350971E0,-1.107264614E1
2.083400000E1,3.539731503E0,2.728901625E0,-7.933656693E0
2.085600781E1,1.604795098E0,3.815524340E0,-7.293591022E0
2.087802656E1,1.537518024E0,4.231560230E0,-7.315990925E0
2.089999844E1,5.011945248E0,5.532712936E0,-8.809283257E0
2.092000312E1,7.180459976E0,6.762882233E0,-9.525523186E0
2.094199844E1,6.917576790E0,7.435059071E0,-8.405094147E0
2.096199844E1,5.593851089E0,6.124444485E0,-6.791670322E0
2.098199844E1,4.273688316E0,4.641629219E0,-4.354315281E0
2.100199844E1,4.779410839E0,5.324168682E0,-6.067615509E0
2.102199844E1,4.484540939E0,4.937638760E0,-7.987535477E0
2.104199844E1,5.883779526E0,4.739188194E0,-9.414298058E0
2.106199844E1,6.721731186E0,4.211467743E0,-8.895052910E0
2.108199844E1,5.920841694E0,4.412006378E0,-8.081608772E0
2.110200000E1,4.682311535E0,3.248625278E0,-6.177289486E0
2.112399844E1,4.071359158E0,3.368287325E0,-6.921598434E0
2.114399844E1,4.216629982E0,2.618452072E0,-8.669451714E0
2.116399844E1,2.969959259E0,2.384596109E0,-8.602423668E0
2.118399844E1,3.396156073E0,2.357072592E0,-8.431076050E0
2.120400000E1,3.114942551E0,2.309006453E0,-8.150207520E0
2.122600000E1,3.075304270E0,2.296374559E0,-7.102360725E0
2.124600000E1,4.054906368E0,3.124117136E0,-7.946374416E0
2.126799844E1,5.355388641E0,2.667255640E0,-8.996117592E0
2.128799844E1,5.083196640E0,4.145301819E0,-9.006374359E0
2.130799844E1,4.131769657E0,4.573423386E0,-8.074005127E0
2.132799844E1,5.728376389E0,3.831517696E0,-7.071207523E0
2.134799844E1,5.044286251E0,6.117980003E0,-8.129828453E0
2.136799844E1,4.476870060E0,4.710754871E0,-8.454279900E0
2.138799844E1,4.760764599E0,4.228562355E0,-7.781385422E0
2.140800000E1,3.719555140E0,4.941248894E0,-8.172301292E0
2.142999844E1,2.809346676E0,4.415300846E0,-7.668982506E0
2.144999844E1,4.390305042E0,4.191432953E0,-6.520349503E0
2.146999844E1,4.773520947E0,5.134787083E0,-7.062397003E0
2.148999844E1,6.314678192E0,4.506385803E0,-7.343217850E0
2.150999844E1,6.072978973E0,4.400590897E0,-8.616157532E0
2.152999844E1,5.719077587E0,2.837090731E0,-8.391839981E0
2.154999844E1,3.145511627E0,3.495122671E0,-9.007417679E0
2.156999844E1,2.694415569E0,3.077621937E0,-8.617718697E0
2.158999844E1,4.092935562E0,3.553177357E0,-8.769625664E0
2.160999844E1,3.594414949E0,4.083205700E0,-8.384493828E0
2.162999844E1,5.273506641E0,3.777667284E0,-7.436476707E0
2.164999844E1,5.254554749E0,4.896084785E0,-7.865795612E0
2.166999844E1,6.825332642E0,3.191748619E0,-7.881127834E0
2.168999844E1,4.546129227E0,3.984468699E0,-7.942055702E0
2.170999844E1,4.036202431E0,3.643716335E0,-7.214189529E0
2.172999844E1,4.426907539E0,4.673759460E0,-8.351636887E0
2.174999844E1,4.151794910E0,3.501586914E0,-7.051019669E0
2.176999844E1,4.430125713E0,3.248491287E0,-7.881616116E0
2.179000000E1,3.673730135E0,2.759997368E0,-8.652960777E0
2.181000000E1,4.442201614E0,2.620808125E0,-1.073130035E1
2.183199844E1,4.406250477E0,2.710945129E0,-1.062827301E1
2.185199844E1,4.445735931E0,2.867372513E0,-9.083581924E0
2.187199844E1,3.699175835E0,2.584818363E0,-8.930467606E0
2.189199844E1,2.558348179E0,1.683842063E0,-6.102810383E0
2.191199844E1,3.139085770E0,1.769094825E0,-6.494846821E0
2.193199844E1,2.725999832E0,2.066646338E0,-8.486066818E0
2.195199844E1,3.352916718E0,2.209177732E0,-1.038518524E1
2.197199844E1,4.279443741E0,2.112164736E0,-1.084970760E1
2.199199844E1,4.819346428E0,2.476945400E0,-9.362879753E0
2.201199844E1,3.354525566E0,2.549058676E0,-8.916648865E0
2.203199844E1,2.229595423E0,1.783440828E0,-7.563292980E0
2.205199844E1,3.113764763E0,2.692739487E0,-7.514632702E0
2.207199844E1,3.537404299E0,3.610283613E0,-8.176342010E0
2.209200000E1,4.893260002E0,3.836574316E0,-8.772412300E0
2.211399844E1,5.181024075E0,3.837723494E0,-9.050053596E0
2.213399844E1,4.642060280E0,3.534109831E0,-8.689324379E0
2.215399844E1,4.773032665E0,4.375327110E0,-8.376679420E0
2.217399844E1,4.753228188E0,4.240523815E0,-7.847388744E0
2.219399844E1,4.898450851E0,3.254831076E0,-7.247478485E0
2.221399844E1,4.782772541E0,3.462733984E0,-7.554683208E0
2.223399844E1,4.251843929E0,3.508444071E0,-9.364939690E0
2.225399844E1,3.458491564E0,2.127956867E0,-9.530379295E0
2.227399844E1,2.878673077E0,2.219530344E0,-9.358235359E0
2.229399844E1,2.388120413E0,1.775539994E0,-8.628128052E0
2.231399844E1,3.095511198E0,1.487143993E0,-8.163930893E0
2.233399844E1,4.079461098E0,1.994398832E0,-8.340001106E0
2.235399844E1,4.504240036E0,1.893277168E0,-8.892667770E0
2.237399844E1,3.744445324E0,1.853667617E0,-9.109008789E0
2.239399844E1,2.439088106E0,1.471284747E0,-9.556542397E0
2.241399844E1,2.360749960E0,9.431143999E-1,-1.009453773E1
2.243399844E1,2.633008957E0,1.632682681E0,-1.045477962E1
2.245399844E1,3.370997906E0,2.196009874E0,-1.014708710E1
2.247399844E1,4.015689373E0,2.844713926E0,-8.269391060E0
2.249399844E1,4.438859463E0,2.563040733E0,-6.697300434E0
2.251399844E1,5.422617912E0,3.629169226E0,-7.687446117E0
2.253399844E1,5.544693470E0,3.805047274E0,-8.554550171E0
2.255399844E1,4.669248581E0,2.610340595E0,-8.808297157E0
2.257399844E1,3.950748682E0,2.026528835E0,-8.904926300E0
2.259399844E1,3.045290470E0,2.007624149E0,-8.657969475E0
2.261399844E1,3.981950283E0,1.679503798E0,-8.266795158E0
2.263399844E1,4.455733776E0,1.949991107E0,-8.270865440E0
2.265399844E1,4.860487938E0,1.508155465E0,-8.049679756E0
2.267399844E1,4.014894485E0,2.152109623E0,-9.586076736E0
2.269399844E1,2.559200525E0,1.387478113E0,-9.486458778E0
2.271399844E1,1.688209057E0,1.336117744E0,-1.027537727E1
2.273399844E1,2.065515995E0,7.456310391E-1,-1.034797955E1
2.275399844E1,2.641675949E0,1.303480029E0,-8.633012772E0
2.277399844E1,4.561241627E0,2.040865421E0,-7.578883648E0
2.279399844E1,6.155377388E0,2.388474941E0,-7.201308727E0
2.281399844E1,6.924740314E0,2.713425398E0,-8.923946381E0
2.283399844E1,5.961801529E0,2.889897108E0,-9.399195671E0
2.285399844E1,4.687626362E0,3.484435081E0,-9.336448669E0
2.287399844E1,4.273755550E0,3.242572784E0,-7.890340805E0
2.289399844E1,5.102790833E0,3.371581793E0,-7.312045574E0
2.291399844E1,6.292086601E0,4.853487492E0,-8.233200073E0
2.293399844E1,6.491293907E0,3.978856802E0,-8.253244400E0
2.295399844E1,6.096499443E0,3.557563543E0,-8.469947815E0
2.297399844E1,4.989133358E0,3.015995026E0,-7.072136879E0
2.299399844E1,4.789696217E0,4.191088200E0,-7.849476337E0
2.301399844E1,4.876586437E0,2.988681793E0,-7.404289246E0
2.303399844E1,4.698458195E0,3.165431738E0,-7.008393764E0
2.305399844E1,5.085590839E0,3.425058842E0,-8.443870544E0
2.307399844E1,4.891526222E0,3.045549154E0,-9.142297745E0
2.309400000E1,4.553666592E0,3.234805822E0,-8.491025925E0
2.311600469E1,4.924891949E0,3.672006369E0,-7.310081959E0
2.313799844E1,5.434923649E0,3.447688818E0,-6.819577217E0
2.315799844E1,5.929681301E0,4.071205616E0,-7.928992748E0
2.317801875E1,5.587913513E0,3.426303625E0,-7.517534733E0
2.319999844E1,5.375423431E0,3.055604696E0,-7.725188255E0
2.322000000E1,4.928320408E0,3.123973608E0,-8.219630241E0
2.324001094E1,4.396941662E0,2.804749727E0,-8.398486137E0
2.326199844E1,4.217778683E0,3.106514931E0,-8.440662384E0
2.328199844E1,4.715945244E0,2.769660473E0,-7.996815205E0
2.330199844E1,6.063947678E0,4.300302029E0,-9.036579132E0
2.332199844E1,6.163182735E0,5.026511669E0,-8.220204353E0
2.334201094E1,5.986433029E0,5.182307243E0,-6.763274670E0
2.336399844E1,5.316545010E0,4.082104206E0,-5.169608593E0
2.338399844E1,4.809951305E0,4.662219048E0,-5.012184620E0
2.340399844E1,5.232202053E0,4.619880199E0,-7.439713955E0
2.342400000E1,6.105252266E0,5.185314178E0,-8.837343216E0
2.344599844E1,5.501636028E0,4.083043098E0,-9.095418930E0
2.346599844E1,5.570407391E0,4.164541721E0,-8.395814896E0
2.348599844E1,5.566269875E0,4.147341251E0,-6.971254349E0
2.350599844E1,7.067166328E0,4.704347610E0,-8.015777588E0
2.352600000E1,6.277165890E0,3.543341875E0,-7.373672009E0
2.354799844E1,5.922718525E0,3.960459709E0,-7.974760056E0
2.356799844E1,6.108470440E0,4.105481625E0,-8.024818420E0
2.358799844E1,4.764748573E0,3.830952644E0,-6.661990643E0
2.360799844E1,4.910957813E0,3.400561333E0,-6.564422131E0
2.362800000E1,4.233302593E0,3.061168909E0,-6.236904621E0
2.364999844E1,4.155596733E0,3.483496428E0,-6.888884068E0
2.366999844E1,4.573404312E0,2.946754694E0,-8.225806236E0
2.368999844E1,5.115164280E0,3.708130121E0,-8.461549759E0
2.370999844E1,5.837523460E0,3.826413155E0,-8.490424156E0
2.372999844E1,5.413749695E0,3.738306522E0,-6.773952961E0
2.374999844E1,4.902836323E0,4.007386208E0,-6.402890205E0
2.376999844E1,3.810534954E0,2.885214090E0,-5.662593365E0
2.378999844E1,3.949915886E0,3.947530985E0,-7.595940113E0
2.381000000E1,4.565455437E0,3.014989614E0,-8.236351013E0
2.383002813E1,5.142591953E0,4.124041080E0,-8.710134506E0
2.385199844E1,4.965746403E0,2.892482996E0,-7.581536770E0
2.387199844E1,5.687167645E0,3.815016747E0,-8.256050110E0
2.389199844E1,5.688288212E0,3.456575871E0,-7.361777306E0
2.391199844E1,4.452640533E0,4.027506828E0,-7.833732605E0
2.393199844E1,4.259753704E0,2.391137123E0,-7.516950607E0
2.395199844E1,3.560015202E0,2.953678608E0,-8.262160301E0
2.397199844E1,4.037763596E0,3.218860626E0,-8.087134361E0
2.399199844E1,3.774430275E0,2.960650682E0,-6.620187759E0
2.401199844E1,4.314198017E0,2.687194586E0,-6.376247406E0
2.403199844E1,5.276983261E0,2.453280926E0,-7.692914963E0
2.405199844E1,5.404402733E0,2.436607838E0,-8.855577469E0
2.407199844E1,4.658407688E0,1.996524811E0,-8.742772102E0
2.409199844E1,4.672648430E0,1.460970640E0,-9.247058868E0
2.411199844E1,4.732771873E0,5.678759217E-1,-8.889671326E0
2.413199844E1,4.149429321E0,2.560455084E0,-9.661312103E0
2.415199844E1,3.007127047E0,2.410099030E0,-9.176764488E0
2.417199844E1,1.947443604E0,1.487843156E0,-7.758793354E0
2.419199844E1,2.183770418E0,1.016137481E0,-7.372819901E0
2.421199844E1,4.016081810E0,1.997405887E0,-7.738826275E0
2.423199844E1,5.152474880E0,3.013026237E0,-8.561157227E0
2.425199844E1,5.740510464E0,1.956445813E0,-8.925967216E0
2.427199844E1,6.501550198E0,2.215431452E0,-9.330778122E0
2.429199844E1,5.450131893E0,1.553472996E0,-9.374832153E0
2.431199844E1,5.326696873E0,2.967746973E0,-9.846345901E0
2.433199844E1,4.212894440E0,2.320019722E0,-9.297873497E0
2.435199844E1,3.306804419E0,2.160604239E0,-7.760393143E0
2.437199844E1,4.044946194E0,2.645784378E0,-7.663609982E0
2.439199844E1,4.492738724E0,2.180571795E0,-7.403838634E0
2.441199844E1,4.778596878E0,2.186078548E0,-7.649579525E0
2.443200469E1,4.767392159E0,1.854998827E0,-7.135889530E0
2.445399844E1,4.714326859E0,1.065984726E0,-7.731652737E0
2.447399844E1,4.801092625E0,1.627463341E0,-8.584946632E0
2.449399844E1,5.276609898E0,1.525594831E0,-9.399051666E0
2.451399844E1,5.903162956E0,1.852968454E0,-1.047671986E1
2.453399844E1,4.829047203E0,1.773624659E0,-9.479401588E0
2.455399844E1,4.992264748E0,1.543331146E0,-8.839210510E0
2.457399844E1,6.091059685E0,2.560081482E0,-8.946997643E0
2.459399844E1,6.276400089E0,2.436311007E0,-9.148397446E0
2.461399844E1,7.112818718E0,3.283848524E0,-9.184454918E0
2.463399844E1,5.605984688E0,2.745871544E0,-7.311604500E0
2.465399844E1,4.916800022E0,2.877706051E0,-6.462199211E0
2.467399844E1,4.400398731E0,2.953879833E0,-6.350399971E0
2.469399844E1,4.783892632E0,2.336865425E0,-7.205321312E0
2.471399844E1,5.719948769E0,2.709077597E0,-7.908756733E0
2.473399844E1,7.398628712E0,3.752509117E0,-1.018903351E1
2.475399844E1,6.192305565E0,2.709968328E0,-9.549302101E0
2.477399844E1,4.803793430E0,2.972966671E0,-9.259786606E0
2.479399844E1,4.082056522E0,2.072248459E0,-8.805778503E0
2.481399844E1,3.657832623E0,2.399363518E0,-8.746047974E0
2.483400000E1,4.763761997E0,2.625720978E0,-7.662335873E0
2.485400000E1,5.726049423E0,1.990635037E0,-6.565092564E0
2.487599844E1,1.082310390E1,5.022958279E0,-8.863496780E0
2.489600000E1,1.124920368E1,6.690721035E0,-9.480186462E0
2.491600000E1,8.974444389E0,6.381198883E0,-9.717978477E0
2.493799844E1,4.356939316E0,4.210844994E0,-5.000529766E0
2.495799844E1,3.620435238E0,4.518500328E0,-4.610399246E0
2.497801875E1,4.960172653E0,2.606423855E0,-9.332023621E0
2.499999844E1,4.188263416E0,5.734534740E0,-7.967194557E0
2.501999844E1,3.668539524E0,4.076281548E0,-5.015661240E0
2.503999844E1,7.503897667E0,5.531113148E0,-3.650898933E0
2.505999844E1,4.751350403E0,3.171512604E0,-4.441550732E0
2.508000000E1,4.042877674E0,3.280133009E0,-7.443573475E0
2.510199844E1,5.469974995E0,4.237784863E0,-8.305964470E0
2.512199844E1,6.401463509E0,6.012568474E0,-8.192134857E0
2.514200000E1,5.402065754E0,4.041412354E0,-7.580722809E0
2.516399844E1,3.520156384E0,3.635183573E0,-6.762125969E0
2.518399844E1,4.507946968E0,4.423335552E0,-7.233141899E0
2.520399844E1,5.660735130E0,4.840232849E0,-7.131637096E0
2.522399844E1,6.351998806E0,4.507017612E0,-7.665362358E0
2.524399844E1,6.169953823E0,3.606299877E0,-7.773924828E0
2.526399844E1,5.825130939E0,3.802298784E0,-7.481286526E0
2.528399844E1,5.493543625E0,4.026348114E0,-8.221238136E0
2.530399844E1,4.824862480E0,4.462830067E0,-9.098349571E0
2.532399844E1,3.181779146E0,2.633056879E0,-7.682380199E0
2.534399844E1,3.594041586E0,2.535086155E0,-6.959312439E0
2.536399844E1,3.511498928E0,2.519705772E0,-6.911332607E0
2.538399844E1,2.117709637E0,6.944621801E-1,-6.601627827E0
2.540399844E1,3.022650957E0,8.125824332E-1,-7.555420399E0
2.542399844E1,3.859941721E0,-4.349785671E-2,-7.065193176E0
2.544399844E1,4.670962811E0,9.003634453E-1,-9.246417046E0
2.546399844E1,5.488544464E0,4.778826609E-3,-1.012433243E1
2.548399844E1,4.868350506E0,2.817841291E0,-1.326180840E1
2.550399844E1,2.771642923E0,1.837425351E0,-1.230169487E1
2.552399844E1,2.245876312E0,2.193404675E0,-7.863429546E0
2.554399844E1,4.828530312E0,2.670032978E0,-6.744140625E0
2.556399844E1,5.226437092E0,4.890521049E0,-5.836345673E0
2.558399844E1,5.275815010E0,2.928625822E0,-5.289998055E0
2.560399844E1,4.302811623E0,3.730108976E0,-6.767326355E0
2.562399844E1,3.473431110E0,2.401020527E0,-7.860710144E0
2.564399844E1,4.481006622E0,3.154312849E0,-9.853222847E0
2.566399844E1,5.441349983E0,3.939448357E0,-1.035167599E1
2.568399844E1,4.904369354E0,3.052654982E0,-7.660468578E0
2.570399844E1,5.609623909E0,3.877218008E0,-7.149938583E0
2.572399844E1,4.957098484E0,2.330841541E0,-6.750777245E0
2.574399844E1,4.098021030E0,3.216054440E0,-8.353829384E0
2.576399844E1,4.368862629E0,1.790106297E0,-9.478223801E0
2.578399844E1,4.484282017E0,2.357493877E0,-9.983486176E0
2.580399844E1,4.466392994E0,1.509649515E0,-8.644887924E0
2.582399844E1,4.628978729E0,2.449076891E0,-7.722516537E0
2.584399844E1,5.080726147E0,2.184431314E0,-6.497729301E0
2.586399844E1,6.076244831E0,4.314485550E0,-7.616271496E0
2.588400000E1,7.214898109E0,4.594549656E0,-8.598249435E0
2.590599844E1,6.102312565E0,4.009665489E0,-8.811648369E0
2.592599844E1,4.248788357E0,4.197983742E0,-8.376699448E0
2.594599844E1,3.563912868E0,4.711338997E0,-7.267024517E0
2.596599844E1,3.806522131E0,3.708532333E0,-5.771318913E0
2.598599844E1,4.971052170E0,4.060374737E0,-6.529466629E0
2.600599844E1,6.731623650E0,4.065651417E0,-7.531306267E0
2.602600000E1,7.718752861E0,4.762105465E0,-9.057571411E0
2.604799844E1,8.644523621E0,3.894954443E0,-9.581538200E0
2.606799844E1,7.743576050E0,3.862192154E0,-9.154039383E0
2.608799844E1,5.294192791E0,3.212942123E0,-7.487348557E0
2.610799844E1,3.113735914E0,3.174385786E0,-5.918274879E0
2.612799844E1,3.036106348E0,2.340236425E0,-6.733271122E0
2.614799844E1,3.990904331E0,2.782043219E0,-7.796248436E0
2.616799844E1,5.592395306E0,2.495323181E0,-8.876195908E0
2.618799844E1,6.625905037E0,2.888499022E0,-9.538796425E0
2.620799844E1,5.038329124E0,1.831784487E0,-8.001757622E0
2.622799844E1,3.776077509E0,2.467339754E0,-8.269554138E0
2.624799844E1,3.055815458E0,3.828040957E-1,-7.996269703E0
2.626800000E1,4.064013481E0,1.851177573E0,-8.276200294E0
2.628999844E1,5.745059490E0,2.626142263E0,-8.354260445E0
2.630999844E1,6.824853897E0,2.777791023E0,-8.809723854E0
2.632999844E1,5.993970394E0,3.157741547E0,-9.460430145E0
2.634999844E1,4.409516335E0,2.519456863E0,-9.240221024E0
2.636999844E1,3.319646835E0,2.140272617E0,-8.109391212E0
2.638999844E1,4.136510372E0,2.989993811E0,-9.327225685E0
2.641000000E1,3.917775869E0,3.585738420E0,-7.668637753E0
2.643199844E1,2.469532967E0,4.188043118E0,-5.966819763E0
2.645199844E1,2.080982685E0,1.748179078E0,-4.237967014E0
2.647199844E1,3.713904858E0,2.856694221E0,-6.014091015E0
2.649199844E1,5.730416298E0,2.730232716E0,-7.999545097E0
2.651199844E1,7.673713207E0,3.642596006E0,-1.084365559E1
2.653199844E1,8.248369217E0,4.025074482E0,-1.291598988E1
2.655199844E1,5.358893394E0,3.525318384E0,-1.057563877E1
2.657199844E1,3.606271029E0,2.897051096E0,-7.486707211E0
2.659199844E1,4.108047962E0,4.079892159E0,-6.542883873E0
2.661200000E1,4.847061634E0,4.893307686E0,-6.289941311E0
2.663401250E1,6.075861454E0,5.721558094E0,-6.709280968E0
2.665599844E1,4.568558216E0,4.165020466E0,-6.456319332E0
2.667600000E1,4.174300194E0,3.691658020E0,-8.050551414E0
2.669799844E1,4.009895325E0,3.757661343E0,-8.006899834E0
2.671799844E1,4.620933533E0,3.589071035E0,-8.143350601E0
2.673799844E1,5.586122513E0,3.374866724E0,-7.483288288E0
2.675799844E1,6.765525341E0,3.697279453E0,-8.997735023E0
2.677801875E1,6.382998943E0,3.947416067E0,-9.358800888E0
2.679999844E1,4.084613323E0,3.596981764E0,-7.536956310E0
2.681999844E1,2.637088537E0,3.244756222E0,-6.019827843E0
2.683999844E1,2.873903990E0,1.848189712E0,-5.336053371E0
2.685999844E1,4.297879219E0,3.390065193E0,-7.282538891E0
2.687999844E1,4.831307411E0,3.246039629E0,-9.486832619E0
2.689999844E1,4.634082317E0,2.633995295E0,-9.371642113E0
2.691999844E1,4.655323982E0,4.353760242E0,-1.054264641E1
2.693999844E1,3.332604170E0,2.647220850E0,-7.708275795E0
2.695999844E1,2.855171680E0,3.115143776E0,-6.632542133E0
2.697999844E1,4.065785408E0,2.413058281E0,-7.021513462E0
2.699999844E1,4.473690510E0,2.914528847E0,-8.245860100E0
2.702000000E1,5.412782669E0,2.998526812E0,-9.642963409E0
2.704199844E1,5.563416004E0,3.010440350E0,-9.853500366E0
2.706199844E1,5.126464844E0,3.450159550E0,-8.216948509E0
2.708199844E1,4.197878361E0,2.951715469E0,-6.202227592E0
2.710199844E1,3.843182087E0,2.908409119E0,-7.352105141E0
2.712199844E1,4.243272305E0,2.852059364E0,-9.473099709E0
2.714199844E1,4.054072857E0,3.175783873E0,-9.697972298E0
2.716199844E1,3.798400879E0,2.708991528E0,-8.644696236E0
2.718199844E1,4.567571640E0,3.227450848E0,-8.284704208E0
2.720199844E1,4.900672436E0,3.282402515E0,-7.477992058E0
2.722199844E1,4.792607307E0,3.900460958E0,-8.908278465E0
2.724199844E1,4.633623123E0,3.563376427E0,-8.567086220E0
2.726199844E1,3.806167841E0,3.525596142E0,-8.298083305E0
2.728199844E1,4.121972561E0,2.782062292E0,-9.073938370E0
2.730199844E1,3.913609982E0,3.563903332E0,-8.094192505E0
2.732199844E1,4.948144436E0,3.588180304E0,-8.622104645E0
2.734201094E1,4.510340691E0,3.127076387E0,-7.367561817E0
2.736399844E1,4.148682117E0,3.046372652E0,-7.133830547E0
2.738399844E1,5.214197636E0,2.666757584E0,-7.639820576E0
2.740399844E1,5.444136620E0,3.510665655E0,-8.269093513E0
2.742399844E1,5.308874130E0,3.014137268E0,-8.716005325E0
2.744399844E1,3.975370884E0,3.219291449E0,-7.328402519E0
2.746399844E1,3.628747702E0,3.280410528E0,-7.032632351E0
2.748399844E1,4.475720882E0,2.479281902E0,-6.607450485E0
2.750399844E1,5.645594597E0,3.962384701E0,-8.774701118E0
2.752399844E1,6.394922256E0,4.610034943E0,-8.928447723E0
2.754399844E1,4.964367867E0,4.322165966E0,-8.359939575E0
2.756399844E1,3.306267977E0,3.039237976E0,-8.413463593E0
2.758399844E1,3.017000437E0,2.506863356E0,-8.697196007E0
2.760399844E1,3.968724728E0,3.129604816E0,-9.025212288E0
2.762400625E1,6.009379387E0,3.717706680E0,-9.211671829E0
2.764600000E1,6.762489796E0,4.808983803E0,-8.468425751E0
2.766600625E1,5.337097168E0,4.211056232E0,-7.680455685E0
2.768799844E1,3.232948065E0,3.598973751E0,-6.504988670E0
2.770800000E1,3.293099880E0,3.545487165E0,-7.727908611E0
2.773000000E1,4.438868999E0,4.387307644E0,-8.855232239E0
2.775199844E1,5.350427628E0,4.766769409E0,-8.115262032E0
2.777199844E1,5.661023140E0,4.429014683E0,-7.829939842E0
2.779199844E1,5.414841175E0,3.998872280E0,-6.938252926E0
2.781199844E1,5.081616879E0,4.701972485E0,-8.067377090E0
2.783200000E1,4.673261166E0,3.976788044E0,-8.108136177E0
2.785399844E1,4.413672447E0,3.693257332E0,-7.650805473E0
2.787399844E1,3.190944195E0,3.818703890E0,-6.001947880E0
2.789399844E1,4.769546986E0,4.138952255E0,-7.472629070E0
2.791399844E1,6.072911739E0,3.848726988E0,-8.260350227E0
2.793399844E1,5.618846893E0,4.322146893E0,-8.233219147E0
2.795399844E1,4.832791805E0,3.352638960E0,-6.923734188E0
2.797399844E1,3.672399044E0,3.734648228E0,-6.621969223E0
2.799399844E1,4.800211430E0,3.653771877E0,-7.870142937E0
2.801399844E1,5.008382797E0,3.739647150E0,-7.856477261E0
2.803399844E1,5.590757847E0,4.032822132E0,-8.820468903E0
2.805399844E1,5.941623688E0,4.643688679E0,-8.798834801E0
2.807399844E1,5.118305206E0,4.219186306E0,-8.445585251E0
2.809400000E1,5.224368095E0,3.551060677E0,-8.279944420E0
2.811599844E1,4.181463718E0,3.277786732E0,-7.072672844E0
2.813599844E1,3.754644632E0,3.322960377E0,-7.127069473E0
2.815600000E1,4.589703560E0,3.624524355E0,-8.128037453E0
2.817600000E1,4.718952656E0,2.531705618E0,-7.667201042E0
2.819600000E1,5.252763748E0,3.810630560E0,-7.498601437E0
2.821600000E1,6.161994934E0,2.897587299E0,-6.843585968E0
2.823600000E1,6.186607361E0,3.482375860E0,-8.278067589E0
2.825600000E1,5.276226521E0,2.787473440E0,-9.441956520E0
2.827801875E1,3.695210934E0,1.159646034E0,-8.494637489E0
2.829999844E1,3.012384415E0,2.021386147E0,-8.732236862E0
2.831999844E1,3.504287481E0,1.307243705E0,-8.507124901E0
2.833999844E1,3.757316351E0,1.063169241E0,-7.684420586E0
2.835999844E1,3.429674864E0,5.072834492E-1,-6.643268108E0
2.837999844E1,4.634542465E0,1.309676290E0,-7.516615391E0
2.839999844E1,5.979939938E0,9.142307043E-1,-8.423959732E0
2.841999844E1,6.567726135E0,2.780606747E0,-1.190989876E1
2.844000000E1,5.622571945E0,1.404917598E0,-1.213505936E1
2.846199844E1,4.035963535E0,1.813157678E0,-1.183913612E1
2.848199844E1,4.200090885E0,2.708052635E0,-9.750625610E0
2.850199844E1,3.251153469E0,3.164521694E0,-7.531612873E0
2.852199844E1,4.169636250E0,2.801263809E0,-5.880704880E0
2.854199844E1,5.066380024E0,3.073810339E0,-6.102235794E0
2.856199844E1,5.938539505E0,3.803055525E0,-7.911314011E0
2.858199844E1,5.484933853E0,3.880502939E0,-7.506521702E0
2.860199844E1,5.814414501E0,5.283380985E0,-7.873983383E0
2.862199844E1,5.496187210E0,5.048107624E0,-8.944334984E0
2.864199844E1,3.495180130E0,4.091595173E0,-7.769002438E0
2.866199844E1,4.351729870E0,3.944159985E0,-6.987362862E0
2.868199844E1,3.917009830E0,3.332412958E0,-6.642166615E0
2.870199844E1,4.826892376E0,2.957471132E0,-7.532628059E0
2.872199844E1,6.811408043E0,3.872429609E0,-8.567536354E0
2.874199844E1,5.307916641E0,4.446300983E0,-8.119627953E0
2.876199844E1,4.643161774E0,2.631495953E0,-7.299729347E0
2.878199844E1,3.306267977E0,2.594481468E0,-6.028408051E0
2.880199844E1,4.771260738E0,3.528593540E0,-7.219782352E0
2.882199844E1,5.876098633E0,4.056764126E0,-9.037498474E0
2.884201250E1,6.617736340E0,3.788077116E0,-9.494609833E0
2.886399844E1,5.211889744E0,2.636973619E0,-1.028528881E1
2.888399844E1,5.457582951E0,2.650496006E0,-1.043695736E1
2.890399844E1,7.419381618E0,2.981173754E0,-7.269179344E0
2.892399844E1,1.060566235E1,4.680568218E0,-3.867918968E0
2.894399844E1,1.018002129E1,3.898708582E0,-3.261812449E0
2.896399844E1,1.091234112E1,3.251555681E0,-1.035128355E0
2.898399844E1,7.506521702E0,3.699807882E0,-6.247794151E0
2.900399844E1,5.754540443E0,2.547286749E0,-5.718665600E0
2.902399844E1,6.815535545E0,5.289385319E0,-5.814721107E0
2.904399844E1,5.435690403E0,2.146593332E0,-5.937639236E0
2.906399844E1,4.419505119E0,2.678585052E0,-7.002025127E0
2.908399844E1,6.835244656E0,3.148174047E0,-7.693345547E0
2.910399844E1,7.980238438E0,2.649030924E0,-7.335479259E0
2.912399844E1,7.362658501E0,2.781870842E0,-6.024644375E0
2.914399844E1,6.422752380E0,2.409084082E0,-6.078083038E0
2.916399844E1,5.365980625E0,1.024929047E0,-6.774613857E0
2.918399844E1,4.782063484E0,1.943641782E0,-7.748747349E0
2.920399844E1,3.684561491E0,1.479137838E-1,-9.475790977E0
2.922399844E1,3.757938862E0,-1.689731777E-1,-9.671952248E0
2.924399844E1,3.450063705E0,7.770908475E-1,-8.387799263E0
2.926399844E1,4.348895073E0,7.201375961E-1,-9.094835281E0
2.928399844E1,6.330623627E0,1.596434593E0,-1.076140022E1
2.930399844E1,6.557296753E0,2.880645990E0,-1.140065193E1
2.932399844E1,4.617964745E0,7.383909225E-1,-9.682266235E0
2.934399844E1,2.987264633E0,4.317799211E-1,-5.801668167E0
2.936399844E1,3.015650272E0,9.151405096E-1,-4.904158115E0
2.938399844E1,5.407045841E0,2.028453827E0,-6.440498352E0
2.940399844E1,7.715238094E0,3.103708982E0,-9.846279144E0
2.942399844E1,7.224340916E0,2.516918898E0,-9.110742569E0
2.944399844E1,6.071283817E0,2.838891029E0,-7.950167179E0
2.946399844E1,4.132440090E0,1.982992768E0,-6.553916454E0
2.948399844E1,2.952816963E0,1.115515947E0,-6.593755722E0
2.950399844E1,3.021980524E0,1.384490252E0,-6.658763409E0
2.952399844E1,4.270221710E0,1.918330193E0,-7.501273632E0
2.954399844E1,4.825216770E0,1.437325478E0,-7.595231533E0
2.956399844E1,3.793449640E0,-1.482776999E-1,-8.261662483E0
2.958399844E1,4.525405407E0,-9.222465008E-2,-7.423778057E0
2.960399844E1,5.727983952E0,1.784369707E0,-8.946183205E0
2.962399844E1,8.856075287E0,3.836746693E0,-1.018689728E1
2.964399844E1,9.581508636E0,4.348368168E0,-1.060852528E1
2.966399844E1,7.750663280E0,2.988433123E0,-8.021829605E0
2.968399844E1,4.931461811E0,3.516900301E0,-6.943012714E0
2.970399844E1,4.321984291E0,4.044802666E0,-6.908430576E0
2.972399844E1,2.695689201E0,2.402045250E0,-7.386178970E0
2.974399844E1,6.681805134E0,4.374570370E0,-7.842284203E0
2.976399844E1,9.681308746E0,4.558665752E0,-8.618742943E0
2.978399844E1,6.695184231E0,2.541243792E0,-8.357382774E0
2.980399844E1,3.440707207E0,6.921541095E-1,-7.483163357E0
2.982399844E1,2.393502712E0,8.617306352E-1,-6.776117802E0
2.984399844E1,4.938950539E0,1.565664291E0,-7.268623829E0
2.986399844E1,8.006708145E0,3.261592388E0,-8.822413445E0
2.988399844E1,6.639619350E0,1.343415260E0,-8.442041397E0
2.990399844E1,2.077286005E0,-1.409409046E0,-7.991232395E0
2.992399844E1,5.505533695E0,2.779716015E0,-9.180795670E0
2.994399844E1,4.151689529E0,7.514441609E-1,-7.687599659E0
2.996399844E1,3.808092833E0,1.335792065E0,-8.193380356E0
2.998399844E1,4.653705597E0,1.414082527E0,-8.504261971E0
3.000400000E1,7.109399796E0,2.490199804E0,-7.554309368E0
3.002600000E1,9.068172455E0,3.950375319E0,-8.611196518E0
3.004799844E1,8.968545914E0,4.673788071E0,-9.120739937E0
3.006799844E1,8.262418747E0,4.537012100E0,-8.335259438E0
3.008799844E1,5.757968903E0,3.544893265E0,-9.396178246E0
3.010799844E1,5.431878567E0,3.328438520E0,-6.675675869E0
3.012800000E1,6.008373737E0,4.652106285E0,-7.061630726E0
3.014999844E1,5.527867317E0,2.288062096E0,-7.893357277E0
3.016999844E1,6.856916904E0,3.610379696E0,-1.009220219E1
3.018999844E1,5.084345818E0,3.098039627E0,-8.899152756E0
3.020999844E1,4.712085724E0,2.581686735E0,-3.743113995E0
3.023001094E1,5.517523766E0,3.749348640E0,-4.479378700E0
3.025199844E1,6.403876305E0,4.225018978E0,-7.249978065E0
3.027199844E1,6.981214523E0,4.347678661E0,-1.130317974E1
3.029199844E1,6.721951008E0,3.482442856E0,-1.159277248E1
3.031199844E1,6.036663532E0,2.731583118E0,-8.212580681E0
3.033199844E1,5.277940750E0,4.126483440E0,-5.251011372E0
3.035199844E1,5.517610550E0,3.805727243E0,-3.986977816E0
3.037199844E1,4.827017307E0,3.085982323E0,-4.196221828E0
3.039199844E1,6.164494514E0,4.550745487E0,-7.193388462E0
3.041199844E1,6.660219193E0,4.550918102E0,-8.620150566E0
3.043199844E1,6.926693916E0,3.877237320E0,-7.170863628E0
3.045199844E1,4.855115414E0,2.548177481E0,-5.253558636E0
3.047199844E1,4.413222790E0,3.106045723E0,-6.143703461E0
3.049199844E1,4.597767353E0,2.493752718E0,-6.449002266E0
3.051199844E1,4.278074741E0,1.076682091E0,-7.068545341E0
3.053199844E1,6.119263649E0,9.700826406E-1,-7.868083954E0
3.055199844E1,4.710888863E0,-3.075782955E-1,-9.250926971E0
3.057199844E1,5.772554398E0,1.635143995E0,-9.313779831E0
3.059199844E1,5.459124565E0,1.057806134E0,-7.843251228E0
3.061199844E1,4.481849670E0,1.771546483E0,-7.910030842E0
3.063199844E1,2.999369621E0,-2.809739411E-1,-8.177779198E0
3.065199844E1,2.334681988E0,1.313181281E0,-9.557327271E0
3.067199844E1,3.015066147E0,2.187036037E0,-1.086868000E1
3.069199844E1,2.686686993E0,1.629867196E0,-1.058330917E1
3.071199844E1,3.721441984E0,1.705227017E0,-8.956900597E0
3.073199844E1,2.991574287E0,9.679948688E-1,-7.718695641E0
3.075199844E1,5.193540573E0,2.967728138E0,-8.593096733E0
3.077199844E1,6.550392151E0,4.266515255E0,-8.847092628E0
3.079199844E1,5.133599758E0,3.423353910E0,-9.813181877E0
3.081199844E1,5.374992371E0,2.078483105E0,-9.446504593E0
3.083199844E1,6.489953041E0,3.337929010E0,-8.773035049E0
3.085199844E1,5.904877186E0,5.090522766E0,-7.268308163E0
3.087199844E1,5.983378410E0,2.887550831E0,-6.956448555E0
3.089199844E1,5.745030880E0,2.559449434E0,-6.382367134E0
3.091199844E1,6.155913830E0,4.235266209E0,-8.432713509E0
3.093199844E1,6.027134895E0,3.823319912E0,-9.144978523E0
3.095199844E1,5.906112194E0,2.549853563E0,-8.200006485E0
3.097199844E1,5.160021782E0,3.303979158E0,-6.180142879E0
3.099199844E1,4.375757694E0,2.408729792E0,-5.164791107E0
3.101199844E1,7.017826557E0,3.752097130E0,-6.287776947E0
3.103199844E1,6.740559101E0,5.578097343E0,-6.949342728E0
3.105200000E1,4.777495384E0,3.023599148E0,-8.269017220E0
3.107200000E1,3.874373674E0,3.040952206E0,-8.173105240E0
3.109399844E1,3.673988819E0,1.220621467E0,-7.498438358E0
3.111399844E1,3.080973625E0,1.631801605E0,-6.088349819E0
3.113399844E1,3.610312462E0,-7.775697112E-1,-7.765669823E0
3.115400000E1,1.399447250E1,5.603992939E0,-8.255015373E0
3.117600000E1,5.093367100E0,2.061378956E0,-9.189137459E0
3.119800313E1,3.070649862E0,2.282814026E0,-8.194538116E0
3.121999844E1,5.281934738E0,3.166465759E0,-8.393103600E0
3.123999844E1,4.410885811E0,2.796485186E0,-7.953174114E0
3.125999844E1,5.845405102E0,3.651645899E0,-6.680052757E0
3.127999844E1,3.555111885E0,3.378208876E0,-7.441341877E0
3.129999844E1,6.217847347E0,3.890577793E0,-7.471910477E0
3.131999844E1,3.237640619E0,2.179882288E0,-8.124406815E0
3.133999844E1,7.725552559E0,4.095664978E0,-8.318960190E0
3.135999844E1,1.008672333E1,4.127584457E0,-9.179771423E0
3.138000000E1,7.115212917E0,2.970533848E0,-9.073420525E0
3.140199844E1,7.853010178E0,4.801514149E0,-7.824279785E0
3.142199844E1,3.801695347E0,3.681736231E0,-8.549177170E0
3.144199844E1,4.348598003E0,2.837741852E0,-6.539598942E0
3.146199844E1,3.721384287E0,4.800671577E0,-6.515954018E0
3.148200469E1,5.123840809E0,5.896305561E0,-7.100474834E0
3.150399844E1,5.877429962E0,3.874412060E0,-6.694139957E0
3.152400313E1,7.278516769E0,6.251375675E0,-6.068429470E0
3.154599844E1,5.110098362E0,4.407016754E0,-6.834555149E0
3.156599844E1,6.140141010E0,4.534704208E0,-7.309593678E0
3.158599844E1,7.260905266E0,4.905594826E0,-7.719020844E0
3.160600000E1,6.604280949E0,5.100952148E0,-7.305638313E0
3.162600156E1,7.609558105E0,3.098978043E0,-6.593995571E0
3.164800156E1,3.989381552E0,3.388848782E0,-7.313127518E0
3.166999844E1,6.311604023E0,1.694615960E0,-7.821301460E0
3.168999844E1,4.751264572E0,1.772149801E0,-6.759310246E0
3.170999844E1,4.230477810E0,8.236054182E-1,-7.038646698E0
3.172999844E1,5.104993820E0,1.497218847E0,-8.693480492E0
3.174999844E1,5.604969501E0,1.995059609E0,-9.706418991E0
3.176999844E1,5.545823097E0,4.003995895E0,-7.584064960E0
3.178999844E1,3.580203056E0,3.057778597E0,-5.170020103E0
3.181000000E1,4.992676735E0,2.708684921E0,-6.607613564E0
3.183002031E1,6.535845280E0,4.685040951E0,-1.011093330E1
3.185199844E1,6.393486023E0,4.585509300E0,-8.450458527E0
3.187199844E1,5.209572315E0,4.989219189E0,-6.261220932E0
3.189199844E1,5.077776432E0,3.871213436E0,-5.675330639E0
3.191199844E1,6.723809242E0,4.990081310E0,-7.447901726E0
3.193199844E1,5.543553829E0,3.742041588E0,-8.573637009E0
3.195199844E1,5.088655472E0,4.176876545E0,-7.546437263E0
3.197199844E1,5.914999962E0,4.698812485E0,-7.111344337E0
3.199199844E1,4.051764965E0,2.511967659E0,-6.736546516E0
3.201199844E1,4.269091129E0,3.648926258E0,-7.048567772E0
3.203200312E1,2.986096144E0,2.402657986E0,-6.298455238E0
3.205399844E1,3.496750832E0,1.965409756E0,-6.834545612E0
3.207399844E1,4.828501701E0,1.901551604E0,-7.790444851E0
3.209399844E1,6.846803665E0,5.058038712E0,-9.262773514E0
3.211399844E1,6.058938980E0,4.552248955E0,-9.499493599E0
3.213399844E1,4.299928665E0,1.981393456E0,-7.231801033E0
3.215399844E1,5.394931316E0,4.320087910E0,-7.805336952E0
3.217399844E1,5.279875278E0,3.743583202E0,-8.236695290E0
3.219399844E1,5.535490036E0,4.345476151E0,-8.348973274E0
3.221399844E1,4.971492767E0,3.014453173E0,-7.353703976E0
3.223400781E1,5.191807270E0,3.453511477E0,-6.945396900E0
3.225600000E1,5.118219376E0,3.466334820E0,-7.988426208E0
3.227801875E1,5.411451340E0,5.117864609E0,-7.609424114E0
3.229999844E1,3.411536455E0,2.685183287E0,-7.559653282E0
3.231999844E1,3.575558424E0,2.728135347E0,-8.083686829E0
3.233999844E1,4.514727116E0,2.549700260E0,-8.718935966E0
3.235999844E1,5.621518612E0,3.184987307E0,-7.904686451E0
3.237999844E1,5.180133343E0,3.552899599E0,-7.935303688E0
3.239999844E1,4.768407345E0,5.518922210E-1,-7.111305714E0
3.241999844E1,3.100280523E0,2.654662132E0,-8.809877396E0
3.243999844E1,4.350934982E0,1.649605036E0,-8.073621750E0
3.245999844E1,6.785407066E0,2.739608288E0,-7.849936008E0
3.247999844E1,8.340115547E0,1.729140401E0,-8.208807945E0
3.249999844E1,7.382089615E0,3.519237041E0,-8.457182884E0
3.251999844E1,6.139193058E0,2.329969883E0,-8.019301414E0
3.253999844E1,3.829152107E0,2.230036020E0,-5.510120869E0
3.255999844E1,1.401307106E0,4.441445351E0,-7.722430706E0
3.257999844E1,9.508619905E-1,3.163698018E-1,-9.711016655E0
3.259999844E1,2.466324806E0,2.266294003E0,-9.476862907E0
3.261999844E1,4.786411762E0,1.009606123E0,-9.351196289E0
3.263999844E1,7.571796894E0,2.508701801E0,-6.353732586E0
3.265999844E1,1.018470383E1,4.542365551E0,-8.824242592E0
3.267999844E1,8.402259827E0,4.154208183E0,-7.729038715E0
3.269999844E1,6.234549522E0,5.589263439E0,-9.780370712E0
3.271999844E1,2.412991524E0,1.419675469E0,-8.855654716E0
3.273999844E1,3.540354073E-1,1.771517754E0,-8.332252502E0
3.275999844E1,-1.009711504E0,3.171838522E-1,-8.268471718E0
3.277999844E1,3.360683441E0,2.589013100E0,-9.049230576E0
3.279999844E1,6.921713829E0,4.483497143E0,-9.337060928E0
3.281999844E1,7.479064941E0,4.843671322E0,-6.484963417E0
3.283999844E1,5.994439602E0,4.392765999E0,-5.527407169E0
3.285999844E1,4.820112228E0,1.236911654E0,-4.973599434E0
3.287999844E1,5.368422985E0,4.002042294E0,-8.605153084E0
3.289999844E1,5.308596134E0,1.822878122E0,-9.309164047E0
3.291999844E1,6.921991825E0,5.265012264E0,-1.127640247E1
3.293999844E1,6.890608311E0,2.419829369E0,-8.908595085E0
3.295999844E1,5.271351814E0,3.558224440E0,-6.409986973E0
3.298000938E1,3.303385496E0,3.510742426E0,-5.488295555E0
3.300199844E1,3.729017019E0,2.330266953E0,-6.160932064E0
3.302199844E1,4.349718571E0,2.129259348E0,-9.439245224E0
3.304199844E1,5.013027191E0,2.566364050E0,-1.099609947E1
3.306199844E1,5.218909740E0,4.492566586E0,-1.055579567E1
3.308199844E1,5.404249668E0,3.038931370E0,-6.676825047E0
3.310202969E1,4.132344246E0,3.707785130E0,-4.775120735E0
3.312399844E1,3.027832031E0,2.634521961E0,-5.921195984E0
3.314400000E1,4.486638069E0,3.019308567E0,-8.608112335E0
3.316599844E1,5.270853996E0,3.021338940E0,-9.551159859E0
3.318599844E1,6.898758411E0,4.943317890E0,-9.199681282E0
3.320599844E1,7.795061111E0,4.109226227E0,-6.356729984E0
3.322599844E1,4.888117313E0,2.168600798E0,-5.848891258E0
3.324600000E1,4.300972462E0,2.859318256E0,-7.061372280E0
3.326600313E1,4.418278694E0,2.352762938E0,-8.518799782E0
3.328799844E1,4.411709309E0,2.522550106E0,-8.616338730E0
3.330799844E1,4.732407570E0,1.898372054E0,-8.338822365E0
3.332799844E1,5.023217201E0,1.382431269E0,-8.143944740E0
3.334799844E1,6.475645065E0,3.742156506E0,-8.998847008E0
3.336799844E1,4.303778648E0,1.715608239E0,-8.115319252E0
3.338799844E1,3.441185951E0,2.976921558E0,-8.440039635E0
3.340800156E1,1.512005329E0,1.306602001E0,-7.757557869E0
3.343001406E1,2.862229824E0,2.614180803E0,-9.191474915E0
3.345199844E1,4.881547451E0,3.051314116E0,-9.242403984E0
3.347199844E1,5.987658978E0,4.863753796E0,-8.327953339E0
3.349199844E1,5.517380238E0,3.996966600E0,-7.372369766E0
3.351199844E1,5.266199589E0,2.519006491E0,-6.925706863E0
3.353199844E1,5.556051254E0,4.674353123E0,-8.064552307E0
3.355199844E1,6.390258312E0,3.589320183E0,-8.947648048E0
3.357199844E1,7.265387058E0,5.677418232E0,-7.733779430E0
3.359199844E1,7.526805401E0,3.027008295E0,-6.873858452E0
3.361200000E1,6.524716854E0,3.431092024E0,-6.823388577E0
3.363399844E1,5.726403713E0,3.410635948E0,-8.207630157E0
3.365399844E1,5.277921677E0,3.556538820E0,-7.062157631E0
3.367399844E1,3.685184002E0,3.273055553E0,-7.565045357E0
3.369399844E1,4.390103817E0,1.924172044E0,-7.268968582E0
3.371401094E1,5.220355511E0,2.376044273E0,-7.467697144E0
3.373599844E1,4.974519253E0,2.639387131E0,-7.697751045E0
3.375600000E1,5.977306843E0,4.470549107E0,-9.538910866E0
3.377600000E1,3.265279293E0,1.669859886E0,-8.701563835E0
3.379600000E1,2.746465445E0,3.202512980E0,-8.345143318E0
3.381600000E1,3.583784580E0,3.172796249E0,-8.165731430E0
3.383799844E1,5.030371189E0,3.566422224E0,-7.636631966E0
3.385799844E1,5.666289806E0,3.520424604E0,-7.606091499E0
3.387801719E1,5.525146961E0,3.804348230E0,-7.929978848E0
3.389999844E1,6.510562420E0,2.013303280E0,-8.018995285E0
3.391999844E1,9.212668419E0,5.286857128E0,-9.012847900E0
3.393999844E1,6.007607460E0,4.078819752E0,-7.220136642E0
3.395999844E1,3.209369898E0,3.190675974E0,-5.696840286E0
3.397999844E1,2.025034904E0,1.748926044E0,-6.707087994E0
3.399999844E1,3.728787184E0,2.093116522E0,-8.757807732E0
3.402000000E1,5.345189571E0,3.416229010E0,-9.676769257E0
3.404199844E1,5.020803928E0,4.373727322E0,-8.453811646E0
3.406199844E1,5.048270226E0,3.013868809E0,-7.001680374E0
3.408200000E1,3.964309454E0,2.002634764E0,-7.653880119E0
3.410399844E1,4.690346718E0,3.832389116E0,-8.523884773E0
3.412399844E1,5.290218353E0,3.170353889E0,-6.860144615E0
3.414399844E1,5.430624008E0,3.417033434E0,-7.309535980E0
3.416399844E1,5.762537003E0,2.330985069E0,-9.213922501E0
3.418399844E1,5.231819153E0,2.958227873E0,-9.710871696E0
3.420399844E1,5.603773117E0,2.549863100E0,-9.017703056E0
3.422399844E1,5.347497463E0,4.117443085E0,-7.260895729E0
3.424399844E1,3.018006086E0,3.665657043E0,-6.393571854E0
3.426399844E1,3.077056646E0,2.741360903E0,-6.821597576E0
3.428399844E1,2.864078045E0,2.844551086E0,-8.039470673E0
3.430399844E1,3.202455521E0,2.781018496E0,-8.548315048E0
3.432399844E1,4.888021469E0,3.572531939E0,-8.574057579E0
3.434399844E1,6.728156567E0,4.441617489E0,-8.509088516E0
3.436399844E1,6.279215336E0,3.511805534E0,-7.850396156E0
3.438399844E1,5.972632885E0,4.156219006E0,-7.645356655E0
3.440399844E1,5.876098633E0,3.435248613E0,-8.032834053E0
3.442399844E1,5.282518387E0,3.885023117E0,-7.747071743E0
3.444399844E1,4.820322990E0,3.801015377E0,-6.830284119E0
3.446399844E1,1.926508784E0,2.764488935E0,-5.824058533E0
3.448399844E1,3.513567686E0,1.306506395E0,-7.065614700E0
3.450399844E1,6.806188583E0,3.459248066E0,-8.881358147E0
3.452399844E1,7.043827534E0,2.654901505E0,-1.018442631E1
3.454399844E1,7.534926414E0,3.634407759E0,-9.037067413E0
3.456399844E1,4.655621052E0,3.385008574E0,-7.672420502E0
3.458399844E1,1.459323406E0,1.079239130E0,-6.721453190E0
3.460399844E1,2.883710623E0,2.401710033E0,-7.139097691E0
3.462399844E1,4.302303791E0,2.671996117E0,-8.945379257E0
3.464399844E1,6.933100700E0,4.282163620E0,-8.770937920E0
3.466399844E1,5.884488106E0,3.961168528E0,-8.537972450E0
3.468399844E1,6.092486858E0,3.437297821E0,-8.092469215E0
3.470399844E1,4.169272423E0,2.045730352E0,-7.312093258E0
3.472399844E1,4.657784939E0,2.188827038E0,-7.352775574E0
3.474399844E1,6.520656109E0,2.852672100E0,-8.531479836E0
3.476399844E1,5.574017525E0,3.117872953E0,-9.108184814E0
3.478399844E1,4.865736485E0,3.702460527E0,-8.409633636E0
3.480399844E1,4.331876755E0,3.404104710E0,-7.328431129E0
3.482399844E1,3.640316725E0,3.485727787E0,-7.769519329E0
3.484399844E1,3.375613689E0,1.832943320E0,-8.138092995E0
3.486399844E1,4.149151325E0,2.560407162E0,-8.982068062E0
3.488399844E1,6.251997948E0,3.098566055E0,-9.220195770E0
3.490399844E1,7.784201145E0,4.535106659E0,-7.754062653E0
3.492399844E1,6.469362736E0,2.927390337E0,-7.827670097E0
3.494399844E1,5.042016506E0,3.501137018E0,-7.485404968E0
3.496399844E1,3.538908005E0,2.171282530E0,-7.749791622E0
3.498399844E1,3.734092712E0,2.382134914E0,-7.322177410E0
3.500399844E1,3.997531414E0,2.978023052E0,-7.759837627E0
3.502399844E1,4.854646206E0,1.618949533E0,-8.733138084E0
3.504399844E1,6.109878540E0,2.326292515E0,-9.170213699E0
3.506399844E1,5.057732105E0,2.584483147E0,-9.120711327E0
3.508399844E1,5.962155819E0,2.651568890E0,-9.570610046E0
3.510399844E1,4.581362247E0,3.569984674E0,-8.322915077E0
3.512399844E1,1.521955729E0,2.726708353E-1,-7.512736797E0
3.514399844E1,3.543361187E0,1.634310842E0,-8.563551903E0
3.516399844E1,4.965583801E0,2.766337156E0,-9.212687492E0
3.518399844E1,5.401596546E0,2.378409386E0,-9.186236382E0
3.520399844E1,6.604463100E0,4.150779724E0,-9.726769447E0
3.522399844E1,5.009081364E0,3.761999607E0,-8.473424911E0
3.524399844E1,3.640173197E0,4.094783783E0,-8.168173790E0
3.526399844E1,3.508022785E0,3.348587990E0,-7.704244137E0
3.528399844E1,3.639550447E0,4.366343975E0,-8.402853966E0
3.530399844E1,4.631908894E0,3.232383013E0,-7.656944275E0
3.532399844E1,7.793423176E0,5.095263481E0,-7.627112865E0
3.534399844E1,8.794994354E0,5.768331051E0,-7.868400574E0
3.536399844E1,6.663149357E0,3.895912170E0,-7.873437405E0
3.538399844E1,5.742081165E0,3.979105711E0,-7.783798695E0
3.540399844E1,6.076014519E0,5.648898602E0,-7.416604996E0
3.542399844E1,4.685270786E0,4.456605434E0,-7.137201786E0
3.544399844E1,5.241721630E0,4.810525894E0,-6.564929485E0
3.546399844E1,5.673549175E0,4.905355453E0,-6.446014881E0
3.548399844E1,5.550181389E0,4.756867409E0,-5.965038776E0
3.550399844E1,4.453990936E0,4.525596619E0,-5.871482849E0
3.552399844E1,5.870802879E0,3.235524178E0,-6.110242367E0
3.554399844E1,7.270625591E0,5.265184402E0,-7.446216106E0
3.556399844E1,7.556052685E0,3.486216307E0,-7.150560856E0
3.558399844E1,6.681815147E0,4.082583427E0,-6.552240849E0
3.560399844E1,4.918753624E0,2.711203575E0,-7.529764175E0
3.562399844E1,4.732771873E0,2.457322598E0,-8.040705681E0
3.564399844E1,5.010585308E0,2.971453428E0,-7.561884880E0
3.566399844E1,3.155576944E0,2.196852446E0,-7.127232075E0
3.568400000E1,4.957481861E0,1.907240272E0,-6.932765007E0
3.570599844E1,4.597834587E0,2.979181767E0,-8.378853798E0
3.572600000E1,3.252848625E0,1.266139984E0,-7.675801277E0
3.574799844E1,2.948871136E0,1.474292040E0,-7.433862209E0
3.576800000E1,3.605399609E0,-3.977535069E-1,-7.680417061E0
3.578800000E1,5.907922268E0,2.246862650E0,-8.641803741E0
3.580800156E1,5.900280476E0,2.128991127E0,-8.856822014E0
3.583002813E1,5.145349979E0,2.988356352E0,-9.777718544E0
3.585199844E1,3.521056652E0,2.822447777E0,-9.575331688E0
3.587199844E1,1.718577147E0,1.877839446E0,-9.036455154E0
3.589199844E1,1.789809465E0,1.367577672E0,-8.574689865E0
3.591199844E1,3.490899324E0,1.345196486E0,-8.524918556E0
3.593199844E1,6.379130363E0,2.876345873E0,-8.655699730E0
3.595199844E1,9.094183922E0,3.789523125E0,-7.595107079E0
3.597199844E1,7.750749111E0,2.706223726E0,-8.379485130E0
3.599199844E1,5.426563263E0,3.729783297E0,-7.849553108E0
3.601199844E1,3.156821966E0,2.631122351E0,-8.239884377E0
3.603199844E1,2.501318455E0,7.697454095E-1,-8.325022697E0
3.605199844E1,3.575270891E0,2.248452425E0,-8.226161003E0
3.607199844E1,5.908459187E0,2.691657305E0,-8.443228722E0
3.609200000E1,5.883817673E0,4.670455456E0,-8.648996353E0
3.611399844E1,4.420289993E0,2.815226793E0,-1.051405048E1
3.613399844E1,4.027641296E0,3.548848629E0,-1.180078983E1
3.615399844E1,4.179213524E0,3.728700876E0,-1.103529644E1
3.617399844E1,3.736870050E0,2.821547508E0,-5.751830101E0
3.619399844E1,4.641839981E0,5.205492496E0,-4.103766918E0
3.621399844E1,4.400514126E0,2.746474743E0,-5.379416943E0
3.623399844E1,6.085227489E0,3.502238274E0,-6.884067535E0
3.625400000E1,7.483335972E0,4.080821037E0,-9.164927483E0
3.627400000E1,5.319130898E0,2.133645535E0,-9.924320221E0
3.629600000E1,5.218114853E0,2.695966721E0,-9.753460884E0
3.631600000E1,3.302217007E0,7.091817260E-1,-6.980582714E0
3.633799844E1,3.215498924E0,1.924545527E0,-6.886394501E0
3.635799844E1,4.513932228E0,1.273466349E0,-8.407018661E0
3.637801719E1,4.186089516E0,2.772993088E0,-1.004946136E1
3.639999844E1,5.056094170E0,2.027639866E0,-1.087789249E1
3.641999844E1,2.489012241E0,1.597641230E0,-8.001757622E0
3.643999844E1,3.730922937E0,2.580987692E0,-7.784181595E0
3.645999844E1,5.597250938E0,1.883987784E0,-7.676940918E0
3.648000625E1,3.578756809E0,2.245205879E0,-1.099205780E1
3.650199844E1,2.591981888E0,1.985702991E0,-9.666091919E0
3.652199844E1,2.384107590E0,1.728307128E0,-7.595767498E0
3.654200000E1,3.697825432E0,2.331004381E0,-7.602921486E0
3.656399844E1,3.650286198E0,2.061398268E0,-7.228563786E0
3.658399844E1,3.513021708E0,3.222011328E0,-1.056757545E1
3.660399844E1,4.468365669E0,3.797960520E0,-1.018591118E1
3.662399844E1,4.288896561E0,2.840691566E0,-1.057579231E1
3.664399844E1,5.410273552E0,3.088778734E0,-8.966591835E0
3.666399844E1,6.753343582E0,4.171666622E0,-7.470895290E0
3.668399844E1,5.622217655E0,4.997378826E0,-7.254325867E0
3.670399844E1,5.637310505E0,4.292448997E0,-6.718005180E0
3.672399844E1,6.042534351E0,3.179547787E0,-8.726855278E0
3.674399844E1,6.714222431E0,4.699894428E0,-1.059179497E1
3.676399844E1,4.265395164E0,2.824372768E0,-6.157666683E0
3.678399844E1,2.972573757E0,3.196987152E0,-5.138225079E0
3.680399844E1,5.332777977E0,4.740825653E0,-9.346101761E0
3.682399844E1,6.476555347E0,4.090742588E0,-9.592990875E0
3.684399844E1,5.512936592E0,4.911800861E0,-7.844094276E0
3.686399844E1,3.156170607E0,3.297763824E0,-5.458645821E0
3.688399844E1,5.732657433E0,4.963821888E0,-9.606840134E0
3.690399844E1,1.189114761E1,7.260004997E0,-9.061009407E0
3.692399844E1,4.200080872E0,1.182132363E0,-5.885790348E0
3.694399844E1,2.617235899E0,2.667236567E0,-4.591897011E0
3.696399844E1,2.925513506E0,2.049819708E0,-6.937726021E0
3.698399844E1,3.521698236E0,3.938911915E0,-8.065433502E0
3.700399844E1,5.661080360E0,3.063390732E0,-7.805797100E0
3.702400312E1,5.923101425E0,3.551051378E0,-7.822795391E0
3.704600000E1,6.552230835E0,3.173236609E0,-8.809771538E0
3.706799844E1,3.462867975E0,9.196128249E-1,-7.390430927E0
3.708800000E1,5.142046452E0,1.028309584E0,-7.750644207E0
3.710999844E1,5.234720707E0,3.515262902E-1,-7.832171440E0
3.712999844E1,3.580317974E0,3.915286064E-1,-8.399683952E0
3.714999844E1,2.926432610E0,1.537211537E0,-1.050804615E1
3.716999844E1,9.162130952E-2,1.449239016E0,-1.084648991E1
3.718999844E1,-1.051437616E0,2.229547501E0,-1.015445137E1
3.720999844E1,1.676841378E0,1.452839851E0,-1.014503670E1
3.723000781E1,2.146919012E0,1.727924109E0,-8.324342728E0
3.725199844E1,4.516690254E0,3.137744904E0,-7.233419418E0
3.727199844E1,9.068249702E0,4.201785564E0,-6.051182270E0
3.729199844E1,9.844851494E0,6.386820316E0,-7.548602104E0
3.731199844E1,8.408665657E0,4.536360741E0,-8.233170509E0
3.733199844E1,4.409860611E0,3.718578339E0,-8.879059792E0
3.735199844E1,4.348847389E0,3.874881268E0,-1.047416306E1
3.737199844E1,3.631036520E0,2.400120020E0,-7.373135567E0
3.739199844E1,4.193444252E0,4.362024784E0,-6.927239895E0
3.741199844E1,6.329953194E0,4.220412731E0,-7.197133064E0
3.743200469E1,5.193291664E0,4.653217316E0,-7.116103649E0
3.745399844E1,5.196384907E0,4.364974499E0,-1.058278275E1
3.747399844E1,3.874929190E0,4.496770382E0,-9.949545860E0
3.749399844E1,3.107051373E0,4.394154549E0,-8.615736008E0
3.751399844E1,4.967259884E0,4.935464859E0,-6.385709286E0
3.753399844E1,4.783346653E0,4.882983685E0,-3.878894091E0
3.755399844E1,5.056228638E0,3.050662994E0,-6.601809978E0
3.757399844E1,6.494952202E0,3.443005562E0,-7.242986679E0
3.759399844E1,4.023465633E0,9.967731833E-1,-8.089557648E0
3.761399844E1,4.628882408E0,3.238875866E0,-9.808555603E0
3.763399844E1,7.468338966E0,-2.610838652E0,-7.693614006E0
3.765399844E1,3.617581367E0,2.734235764E0,-8.507910728E0
3.767399844E1,8.238879204E0,4.982439041E0,-7.764578342E0
3.769399844E1,5.195714474E0,2.179221392E0,-9.155063629E0
3.771399844E1,5.569200516E-1,-2.350818813E-1,-1.119354439E1
3.773399844E1,-1.285494864E-1,1.391529202E0,-1.038971519E1
3.775399844E1,4.932553768E0,3.538141489E0,-6.315109253E0
3.777399844E1,7.262130737E0,5.251614094E0,-7.206077576E0
3.779400000E1,4.611845016E0,3.187324286E0,-7.846842766E0
3.781600000E1,1.240876436E0,1.723537922E0,-7.493267059E0
3.783799844E1,5.065020084E0,3.689388275E0,-7.954217911E0
3.785799844E1,5.627446651E0,5.447718620E0,-9.340709686E0
3.787801719E1,8.293524742E0,4.064052105E0,-9.448554993E0
3.789999844E1,3.887925148E0,2.018924952E0,-7.440661430E0
3.791999844E1,5.045646191E0,-1.324462771E0,-6.251595497E0
3.793999844E1,4.936077595E0,-3.784179389E-1,-7.769261360E0
3.795999844E1,4.075611115E0,4.652412832E-1,-9.285548210E0
3.797999844E1,3.172987700E-1,1.425996065E0,-9.794717789E0
3.799999844E1,2.444958687E-2,2.265470266E0,-9.418272018E0
3.802000000E1,1.935941935E0,4.307666779E0,-1.120358086E1
3.804199844E1,4.216188908E0,7.205761909E0,-1.202772236E1
3.806199844E1,6.643258095E0,8.564633369E0,-9.984941483E0
3.808199844E1,8.157322884E0,8.703669548E0,-6.346186161E0
3.810199844E1,6.076915264E0,4.811742306E0,-5.675426483E0
3.812199844E1,7.379705429E0,7.305963993E0,-5.891594410E0
3.814199844E1,5.502182007E0,5.232814789E0,-3.446079731E0
3.816199844E1,6.762614250E0,6.084920883E0,-4.899484634E0
3.818199844E1,7.703813076E0,5.845318794E0,-8.087210655E0
3.820199844E1,8.783004761E0,6.092257023E0,-8.846700668E0
3.822199844E1,8.254220963E0,6.919070244E0,-7.706562042E0
3.824199844E1,2.780252457E0,2.791648626E0,-3.427644491E0
3.826199844E1,9.034759402E-1,5.078963637E-1,-3.871462345E0
3.828199844E1,1.657630324E0,-1.619083762E0,-7.368261337E0
3.830199844E1,5.042217255E0,-1.317395091E0,-9.819952011E0
3.832199844E1,8.868208885E0,9.635033607E-1,-1.017280960E1
3.834201406E1,4.747031689E0,-7.386686802E-1,-8.819874763E0
3.836399844E1,3.091201544E0,-6.945770979E-1,-6.697137833E0
3.838399844E1,2.437057972E0,2.735136151E-1,-7.457746506E0
3.840399844E1,2.207952023E0,-2.835788131E-1,-1.052939224E1
3.842402188E1,3.271714926E0,1.589682817E0,-1.252386856E1
3.844600000E1,6.453484535E0,4.119434357E0,-7.991136551E0
3.846799844E1,3.704375982E0,3.563060522E0,-8.006316185E0
3.848800000E1,7.446407795E0,4.478909492E0,-1.188188648E1
3.850999844E1,6.700853348E0,3.719382763E0,-6.958775997E0
3.852999844E1,3.897798538E0,6.102283478E0,-6.870640755E0
3.854999844E1,6.658830643E0,4.953766346E0,-9.078880310E0
3.856999844E1,6.035725117E0,6.248722553E0,-1.033623791E1
3.858999844E1,7.077154636E0,2.627636433E0,-1.060083580E1
3.861000000E1,5.317167282E0,2.715407610E0,-7.619968414E0
3.863199844E1,4.813389301E0,2.491703033E0,-4.973570824E0
3.865199844E1,2.079996347E0,3.508922815E0,-4.849072456E0
3.867199844E1,1.541703105E0,2.868780375E0,-5.671950340E0
3.869199844E1,6.654348373E-1,6.406596899E-1,-9.694602013E0
3.871199844E1,5.705956817E-1,1.545600772E0,-1.274442196E1
3.873199844E1,1.681783050E-1,9.859322011E-2,-8.646122932E0
3.875199844E1,1.998239040E0,3.132276535E0,-7.025190830E0
3.877199844E1,8.579219818E0,4.167040825E0,-5.266506195E0
3.879199844E1,7.827976704E0,4.790385723E0,-1.086959839E1
3.881199844E1,7.505286217E0,4.061179161E0,-7.920555592E0
3.883199844E1,5.852903843E0,7.465063572E0,-9.388880730E0
3.885199844E1,3.754405022E0,6.530778885E0,-1.044863224E1
3.887199844E1,1.044934988E0,-5.304689407E-1,-7.376391411E0
3.889199844E1,1.458384871E0,2.112854242E0,-4.864950657E0
3.891199844E1,5.418432713E0,4.389921665E0,-7.218106270E0
3.893199844E1,7.405457497E0,5.590691090E0,-9.872175217E0
3.895199844E1,5.825227261E0,3.911579609E0,-9.622181892E0
3.897199844E1,1.697106004E0,1.214090109E0,-8.265712738E0
3.899199844E1,5.534149408E-1,1.688774079E-1,-7.518636227E0
3.901199844E1,1.241728783E0,-1.581705511E-1,-9.047698021E0
3.903200312E1,4.324320793E0,1.731888890E0,-1.066821766E1
3.905399844E1,6.672343254E0,2.739129543E0,-9.574949265E0
3.907399844E1,5.744628429E0,2.371993065E0,-6.368930817E0
3.909399844E1,5.920352936E0,3.676411629E0,-7.365665436E0
3.911399844E1,8.227492332E0,3.460234404E0,-7.919578552E0
3.913399844E1,8.323241234E0,6.854772091E0,-8.480280876E0
3.915399844E1,5.767143726E0,5.832505226E0,-9.322350502E0
3.917399844E1,5.410933971E0,5.102474689E0,-8.243897438E0
3.919400000E1,7.566606522E0,5.305330753E0,-6.798412323E0
3.921400000E1,7.242718697E0,4.589301586E0,-5.648352623E0
3.923599844E1,5.863639355E0,3.854233980E0,-6.443218231E0
3.925600000E1,6.024759769E0,3.144764900E0,-7.065250874E0
3.927801875E1,6.435259819E0,3.901255846E0,-7.240429878E0
3.929999844E1,2.173753262E0,1.149360418E0,-4.552085876E0
3.931999844E1,4.753524780E0,2.851886988E0,-5.034814358E0
3.933999844E1,5.783864975E0,3.069155931E0,-7.786748409E0
3.935999844E1,7.015652657E0,4.723013401E0,-9.304537773E0
3.938000000E1,7.253971577E0,5.580893517E0,-8.802263260E0
3.940199844E1,8.010434151E0,6.797205448E0,-6.351749897E0
3.942199844E1,6.444644928E0,4.727370739E0,-6.490154266E0
3.944199844E1,3.218812704E0,2.530134916E0,-7.396014690E0
3.946199844E1,3.694722414E0,2.447237968E0,-8.241158485E0
3.948199844E1,4.789858818E0,1.273054600E0,-7.421278477E0
3.950199844E1,6.491676807E0,2.912316322E0,-6.863841534E0
3.952199844E1,4.706588745E0,1.717542887E0,-7.383957386E0
3.954199844E1,5.305713654E0,1.846475363E0,-8.308511734E0
3.956199844E1,5.400207996E0,2.685403585E0,-8.531039238E0
3.958199844E1,2.771393776E0,2.466937542E0,-7.810307026E0
3.960199844E1,9.707434773E-1,1.721057534E0,-6.973351955E0
3.962199844E1,1.017545342E0,9.483050108E-1,-7.852723122E0
3.964199844E1,2.981403589E0,3.406556368E0,-9.635895729E0
3.966199844E1,6.107704163E0,1.992119551E0,-9.894000053E0
3.968199844E1,7.067568302E0,4.180199623E0,-9.023478508E0
3.970199844E1,5.000079632E0,3.056246281E0,-8.170538902E0
3.972199844E1,4.019069672E0,3.617418528E0,-7.887199879E0
3.974199844E1,4.579226494E0,2.357675791E0,-8.884461403E0
3.976199844E1,4.399843693E0,1.528209329E0,-7.929193974E0
3.978199844E1,3.757086754E0,1.644385576E0,-7.249451160E0
3.980199844E1,4.541867733E0,1.000948668E0,-7.820257664E0
3.982199844E1,7.795252323E0,5.138445377E0,-9.857349396E0
3.984201250E1,6.788452625E0,3.679093122E0,-8.079032898E0
3.986399844E1,5.332088470E0,3.687808037E0,-7.661560535E0
3.988399844E1,4.591361046E0,2.541330099E0,-9.224572182E0
3.990399844E1,4.232402802E0,1.642163873E0,-9.918526649E0
3.992399844E1,5.349077702E0,3.472703457E0,-1.128280926E1
3.994399844E1,5.122221947E0,3.325670719E0,-7.532005310E0
3.996399844E1,5.777314186E0,4.198491096E0,-6.264285088E0
3.998399844E1,4.919777870E0,2.491109371E0,-6.667047501E0
4.000399844E1,4.664718628E0,2.349842072E0,-7.746908665E0
4.002399844E1,6.952244759E0,4.341137886E0,-8.774672508E0
4.004399844E1,7.202036858E0,5.516422749E0,-9.246148109E0
4.006400000E1,5.753228664E0,4.284931660E0,-6.865890503E0
4.008599844E1,5.365712166E0,2.419206858E0,-6.296798229E0
4.010600000E1,5.575348854E0,3.648294210E0,-7.541917324E0
4.012600000E1,4.823856831E0,3.989831686E0,-8.539667130E0
4.014799844E1,4.669842720E0,4.013812065E0,-7.305418015E0
4.016799844E1,3.918159008E0,4.126885414E0,-7.279331207E0
4.018799844E1,3.662783861E0,1.295847297E0,-6.733328342E0
4.020800156E1,5.306096554E0,3.298635244E0,-8.232204437E0
4.023003125E1,5.105146408E0,3.354813099E0,-8.013747215E0
4.025199844E1,5.891814232E0,2.356526613E0,-6.779995918E0
4.027199844E1,7.097457409E0,1.811922193E0,-8.478672981E0
4.029199844E1,5.604739666E0,1.913177848E0,-9.230729103E0
4.031199844E1,5.055327892E0,2.808753014E0,-8.867519379E0
4.033200000E1,2.685518503E0,3.333418131E0,-8.722067833E0
4.035200000E1,3.697298527E0,3.246518373E0,-8.760240555E0
4.037399844E1,3.464515209E0,4.402573109E0,-7.315809250E0
4.039399844E1,2.948574305E0,8.090965152E-1,-6.502814293E0
4.041399844E1,3.836947680E0,2.402485609E0,-9.011448860E0
4.043400000E1,5.614680767E0,2.779294729E0,-9.431842804E0
4.045600000E1,9.421527863E0,5.764682293E0,-8.856324196E0
4.047600000E1,8.028687477E0,3.416535378E0,-7.140563011E0
4.049799844E1,4.910757065E0,2.801445723E0,-8.050493240E0
4.051799844E1,2.743803024E0,1.532672167E0,-7.150254726E0
4.053799844E1,4.031720638E0,3.591542006E0,-6.351434231E0
4.055799844E1,5.625790119E0,3.495534420E0,-7.010500431E0
4.057801875E1,6.214581490E0,3.826575994E0,-8.939249992E0
4.059999844E1,6.063181877E0,1.486138463E0,-8.471364975E0
4.061999844E1,6.175211430E0,3.132487297E0,-7.378096581E0
4.063999844E1,5.123122692E0,3.457514763E0,-6.825189114E0
4.065999844E1,4.337843418E0,2.248423576E0,-8.059993744E0
4.068000156E1,4.949408531E0,3.418805122E0,-9.332196236E0
4.070000469E1,5.306211948E0,3.316179991E0,-7.718868256E0
4.072199844E1,4.703074455E0,2.865399599E0,-6.733558178E0
4.074199844E1,5.983358860E0,2.793037415E0,-7.077959538E0
4.076199844E1,7.753143787E0,2.971759796E0,-8.429917336E0
4.078199844E1,5.388409615E0,2.443685055E0,-8.061161995E0
4.080199844E1,3.996880293E0,3.454267979E0,-7.276180267E0
4.082199844E1,3.188952208E0,3.286185503E0,-6.930083752E0
4.084201094E1,3.884324312E0,2.875857592E0,-7.019674778E0
4.086399844E1,4.020726681E0,1.862947464E0,-8.212781906E0
4.088399844E1,8.019656181E0,3.501711369E0,-9.287117958E0
4.090399844E1,5.422014713E0,3.044543505E0,-9.297192574E0
4.092400000E1,3.408557892E0,3.253892660E0,-7.163393974E0
4.094599844E1,2.209512949E0,2.119472027E0,-6.299019814E0
4.096599844E1,5.151297569E0,2.554450512E0,-7.614011765E0
4.098599844E1,7.542999744E0,3.524810791E0,-9.853384972E0
4.100600000E1,7.883646488E0,3.094362020E0,-9.147727966E0
4.102800469E1,5.825906754E0,3.510493517E0,-8.481440544E0
4.104999844E1,2.943891287E0,6.718896031E-1,-6.653505802E0
4.106999844E1,2.713827610E0,1.750439167E0,-7.668838978E0
4.108999844E1,3.506375551E0,2.257511854E0,-9.222167969E0
4.110999844E1,4.502918720E0,2.433638811E0,-8.469334602E0
4.112999844E1,5.969846249E0,3.888241053E0,-6.935092449E0
4.114999844E1,5.410033703E0,4.199563980E0,-6.856093407E0
4.116999844E1,4.429436207E0,3.249898911E0,-7.214936733E0
4.118999844E1,4.113812923E0,2.043632984E0,-7.269677162E0
4.120999844E1,4.368805408E0,3.333073378E0,-9.287578583E0
4.123002031E1,5.478948593E0,2.054828405E0,-9.761801720E0
4.125199844E1,5.655314922E0,2.074834347E0,-9.574537277E0
4.127199844E1,7.605957508E0,3.220498085E0,-8.608755112E0
4.129199844E1,8.415848732E0,3.754357100E0,-7.979462624E0
4.131200000E1,4.340362072E0,2.354256868E0,-6.655564308E0
4.133399844E1,3.326350689E0,2.536312103E0,-6.515551567E0
4.135399844E1,4.414639473E0,3.808399200E0,-8.248082161E0
4.137399844E1,4.837235451E0,4.336732388E0,-9.021093369E0
4.139399844E1,5.633144855E0,2.001380205E0,-8.386333466E0
4.141399844E1,7.076781273E0,5.078111172E0,-8.693940163E0
4.143399844E1,4.692453384E0,3.227029562E0,-7.528997898E0
4.145399844E1,2.551797628E0,2.961531639E0,-6.431381226E0
4.147399844E1,1.453270912E0,3.488878727E0,-7.105818272E0
4.149399844E1,2.723452330E0,2.649414062E0,-8.275959969E0
4.151399844E1,5.914185524E0,2.043623447E0,-8.713017464E0
4.153399844E1,8.582849503E0,3.240561485E0,-9.186244965E0
4.155399844E1,7.431496620E0,4.288857937E0,-9.438698769E0
4.157399844E1,4.169981003E0,2.041449547E0,-7.121782780E0
4.159399844E1,8.497117162E-1,2.775454283E0,-6.827008724E0
4.161399844E1,1.095883489E0,6.512516141E-1,-6.706302643E0
4.163400000E1,4.143625259E0,2.155959368E0,-8.100944519E0
4.165600000E1,8.240985870E0,2.074489594E0,-8.574000359E0
4.167600000E1,7.969292164E0,5.588737488E0,-9.362524986E0
4.169600000E1,4.298099518E0,8.435347080E-1,-7.071025848E0
4.171799844E1,3.166264534E0,1.792107940E0,-7.276869774E0
4.173799844E1,6.240323544E0,1.308919668E0,-7.478604794E0
4.175799844E1,6.960949898E0,5.230430603E0,-8.838788986E0
4.177801875E1,7.326755524E0,4.107865810E0,-9.100571632E0
4.179999844E1,5.650842667E0,3.240532875E0,-8.365637779E0
4.182000000E1,5.944553852E0,3.539444208E0,-8.528050423E0
4.184201094E1,6.380939960E0,4.739111900E0,-8.132155418E0
4.186399844E1,4.579035282E0,3.198825836E0,-7.315253258E0
4.188399844E1,4.592413902E0,2.910755634E0,-7.084615231E0
4.190399844E1,4.836297035E0,2.728843927E0,-8.217464447E0
4.192399844E1,8.364747047E0,3.405818939E0,-8.022520065E0
4.194399844E1,8.028389931E0,3.733163834E0,-8.777842522E0
4.196399844E1,6.029864311E0,4.474466324E0,-7.164907455E0
4.198399844E1,4.308911800E0,4.907319069E0,-6.201461315E0
4.200399844E1,2.828902483E0,1.812564015E0,-5.117625713E0
4.202399844E1,4.196815491E0,3.170009375E0,-7.488105297E0
4.204399844E1,8.424238205E0,3.843574762E0,-9.303609848E0
4.206399844E1,9.001049042E0,5.485901356E0,-9.075594902E0
4.208399844E1,5.321180344E0,3.034104824E0,-6.153816223E0
4.210399844E1,3.104350567E0,3.031222105E0,-4.823789597E0
4.212400000E1,5.239317894E0,2.065161943E0,-6.776596069E0
4.214599844E1,7.861045361E0,4.135207653E0,-8.439426422E0
4.216600000E1,7.271966457E0,3.906762362E0,-8.859858513E0
4.218600000E1,5.336848259E0,3.718128204E0,-7.215894222E0
4.220799844E1,2.660676241E0,1.903352022E0,-6.051373482E0
4.222799844E1,3.145942688E0,2.826738358E0,-6.363960266E0
4.224799844E1,4.238972664E0,2.422932148E0,-7.349547863E0
4.226799844E1,5.188790321E0,3.086537838E0,-6.855374813E0
4.228799844E1,5.148241997E0,1.989706039E0,-8.386113167E0
4.230799844E1,7.579946995E0,2.060076475E0,-9.320608139E0
4.232799844E1,7.038426399E0,2.857307434E0,-9.394033432E0
4.234799844E1,4.405091763E0,1.584817886E0,-7.181360245E0
4.236800156E1,2.731630802E0,2.463193178E0,-6.510696411E0
4.238999844E1,2.325306177E0,7.750414014E-1,-7.148138046E0
4.241000000E1,5.774029255E0,2.643112659E0,-8.566290855E0
4.243199844E1,5.985848904E0,2.703666687E0,-9.869272232E0
4.245199844E1,5.431246758E0,1.985386968E0,-8.339914322E0
4.247200000E1,3.550304174E0,1.502227545E0,-7.530693531E0
4.249399844E1,3.962719679E0,2.074757814E0,-7.724106312E0
4.251399844E1,4.476122856E0,3.342956781E0,-8.838386536E0
4.253399844E1,5.110864162E0,1.489021063E0,-8.776127815E0
4.255399844E1,5.121589661E0,1.676123142E0,-9.610976219E0
4.257399844E1,6.255790710E0,2.513758659E0,-9.510947227E0
