"Time (s)","Gyroscope x (rad/s)","Gyroscope y (rad/s)","Gyroscope z (rad/s)"
3.480000000E-3,-3.815464377E-1,-6.394711733E-1,-3.313856721E-1
2.348000000E-2,-5.254662633E-1,-1.180505753E0,-2.747497261E-1
4.348000000E-2,-5.030388236E-1,-1.359698772E0,-2.179392576E-1
6.348000000E-2,-3.053453565E-1,-8.178612590E-1,-1.724734306E-1
8.348000000E-2,-1.310916841E-1,-2.236464918E-1,-2.118829638E-1
1.034800000E-1,-1.078089848E-1,-6.681120396E-2,-7.459536940E-2
1.234800000E-1,-2.528283894E-1,-2.760063708E-1,1.274788529E-1
1.434800000E-1,-3.438996673E-1,-5.316970944E-1,8.466592431E-2
1.654909380E-1,-1.913578957E-1,-7.838273644E-1,-1.916546077E-1
1.874784380E-1,5.026548170E-3,-8.118748069E-1,-3.531150222E-1
2.074878130E-1,-2.347467840E-2,-8.263959289E-1,-3.077364564E-1
2.294800000E-1,-1.821774691E-1,-7.766889930E-1,-2.274862081E-1
2.494862500E-1,-2.016029805E-1,-6.091024280E-1,-2.436305135E-1
2.714784380E-1,-1.547932476E-1,-5.150117278E-1,-3.475823104E-1
2.914800000E-1,-1.858251989E-1,-5.622752905E-1,-3.726626933E-1
3.134784380E-1,-2.743657529E-1,-6.098180413E-1,-3.313333094E-1
3.334784380E-1,-2.415012121E-1,-4.645193815E-1,-2.185675800E-1
3.534800000E-1,-1.870643944E-1,-2.556907237E-1,-6.183701381E-2
3.734893750E-1,-2.290221006E-1,-1.647416204E-1,7.817329466E-2
3.954784380E-1,-4.808731079E-1,-1.325228512E-1,-2.490584925E-2
4.154831250E-1,-7.449239492E-1,-9.812241048E-2,-3.180513382E-1
4.374784380E-1,-8.069180846E-1,3.310889751E-2,-6.760882139E-1
4.574878130E-1,-6.010913849E-1,1.792976707E-1,-8.170759082E-1
4.794971880E-1,-5.290092826E-1,1.114043668E-1,-6.170960665E-1
5.014800000E-1,-7.821867466E-1,-1.504473835E-1,-4.884129465E-1
5.234893750E-1,-1.164745450E0,-2.068913281E-1,-7.382742763E-1
5.454784380E-1,-1.522921920E0,-7.232644409E-2,-8.880060911E-1
5.654784380E-1,-1.738993645E0,-9.084438533E-2,-6.698748469E-1
5.854784380E-1,-1.899948001E0,4.429645464E-2,-3.319092691E-1
6.054784380E-1,-2.292734385E0,7.984706759E-1,-3.591015041E-1
6.255065630E-1,-3.004374743E0,7.734252214E-1,-8.170409799E-1
6.474784380E-1,-3.535321474E0,3.854210675E-1,-1.190332055E0
6.674800000E-1,-3.321867704E0,1.692428350E0,-1.098056436E0
6.894800000E-1,-2.368097544E0,2.406669378E0,-7.551690340E-1
7.094800000E-1,-8.981115222E-1,1.259132862E0,-6.930004358E-1
7.314784380E-1,1.111024261E0,-1.189494252E0,-1.244454622E0
7.514784380E-1,2.334168434E0,-4.339324951E0,-1.746498585E0
7.714784380E-1,1.545646071E0,-6.833121300E0,-2.688173532E0
7.914800000E-1,1.297966480E0,-3.468929052E0,-2.461263418E0
8.134784380E-1,1.469706893E0,8.594001085E-2,-1.411447763E0
8.334784380E-1,1.209181547E0,-1.408480704E-1,-6.717597842E-1
8.534784380E-1,1.270861506E0,-2.051110983E0,1.026428118E-1
8.734784380E-1,1.898394585E0,-5.005324841E0,9.383588433E-1
8.934784380E-1,3.308044672E0,-6.761143684E0,1.174327374E0
9.134784380E-1,4.631178856E0,-7.192711353E0,6.410070658E-1
9.334784380E-1,5.136416912E0,-7.757883549E0,-4.004308879E-1
9.534784380E-1,4.510349751E0,-8.843879700E0,-9.423207045E-1
9.734784380E-1,4.415840149E0,-9.857602119E0,-5.217137933E-1
9.934784380E-1,5.283443451E0,-1.054583740E1,-7.689920664E-1
1.013478438E0,5.446805954E0,-1.060978699E1,-1.191169739E0
1.033478438E0,4.618909359E0,-8.442768097E0,-1.082243800E0
1.053481563E0,3.978687525E0,-6.116576195E0,-1.161080241E0
1.075478438E0,4.441182137E0,-5.779552937E0,-1.617361665E0
1.095478438E0,5.146417618E0,-6.574149132E0,-2.130523443E0
1.115478438E0,5.305800915E0,-5.917015076E0,-2.373228788E0
1.135478438E0,4.683014870E0,-4.333670139E0,-2.184227228E0
1.155478438E0,3.970344782E0,-2.751738548E0,-1.593311071E0
1.175478438E0,2.935277224E0,-1.328544617E0,-9.880309105E-1
1.195478438E0,2.171608448E0,-1.570447236E-1,-8.059581518E-1
1.215478438E0,1.064703226E0,7.028091550E-1,-4.264188409E-1
1.235478438E0,5.384689569E-1,6.386857629E-1,1.776745170E-2
1.255478438E0,-4.736823589E-2,3.414946079E0,1.915498853E0
1.275478438E0,-1.823450208E0,-8.377579972E-3,9.793217182E-1
1.295480000E0,-2.738631010E0,-2.793853283E0,2.728822231E-1
1.317480000E0,-2.341306925E0,-8.686503768E-1,1.145267606E0
1.339478438E0,-1.804984570E0,2.091480494E0,1.427260399E0
1.359478438E0,1.441327810E0,4.467693865E-1,1.034264684E0
1.379497188E0,1.814007998E0,-1.027824402E0,1.018835902E0
1.401478438E0,3.990695179E-1,2.985560298E-1,1.027248383E0
1.421478438E0,-4.293684363E-1,9.237155318E-1,8.170759082E-1
1.441478438E0,-6.739414334E-1,7.305424809E-1,9.262811542E-1
1.461478438E0,-1.088230252E0,5.536882281E-1,7.693237066E-1
1.481486250E0,-1.432479024E0,8.309338093E-1,5.082398653E-2
1.503478438E0,-4.760036469E-1,5.872160196E-1,-7.072248459E-1
1.523478438E0,-3.256435394E-1,2.991668880E-1,-8.917410970E-1
1.543478438E0,-1.037249207E0,6.856351495E-1,-8.208283186E-1
1.563478438E0,-1.245833516E0,6.373942494E-1,-9.261938930E-1
1.583478438E0,-8.828399181E-1,1.275486648E-1,-1.166787505E0
1.603478438E0,-5.518905520E-1,3.335324302E-2,-1.075035572E0
1.623478438E0,-3.405660987E-1,4.886921961E-4,-7.901105285E-1
1.643478438E0,-4.829500616E-1,1.012465507E-1,-4.714134336E-1
1.663478438E0,-3.826459944E-1,2.401398569E-1,-3.850545287E-1
1.683478438E0,4.747295380E-2,1.039169058E-1,-1.276533753E-1
1.703478438E0,2.657612860E-1,1.706932038E-1,-1.802227050E-1
1.723478438E0,1.869247667E-2,2.076243609E-1,-2.850995362E-1
1.743478438E0,-1.535715163E-1,9.555677325E-2,-4.263664782E-1
1.763480000E0,1.039692611E-1,-2.090904489E-2,-1.828406900E-1
1.785478438E0,-1.795071065E-1,-3.988077492E-2,-9.140289575E-2
1.805478438E0,-2.431418151E-1,1.208640486E-1,-6.558947265E-2
1.825478438E0,-9.457939118E-2,-2.035577446E-1,4.134684801E-2
1.845478438E0,-6.925466657E-2,-1.938362718E-1,7.443828881E-2
1.865478438E0,-9.281660616E-2,-9.833184630E-2,3.665191354E-3
1.885478438E0,7.000515610E-2,-2.909114659E-1,1.911310107E-1
1.905478438E0,2.611187100E-1,-4.515864849E-1,2.805965841E-1
1.925478438E0,8.094836771E-2,-3.311587572E-1,2.046224028E-1
1.945478438E0,-9.234537184E-2,1.115265395E-2,2.643301189E-1
1.965478438E0,1.234645918E-1,-1.390503794E-1,3.302162886E-1
1.985478438E0,3.585604429E-1,-2.382723540E-1,5.847725868E-1
2.005478438E0,3.681423068E-1,-6.359979510E-2,7.894647717E-1
2.025478438E0,9.372418374E-2,2.474004179E-1,7.310485840E-1
2.045478438E0,1.314931065E-1,4.417777359E-1,7.224266529E-1
2.065478438E0,7.425154448E-1,-4.293509945E-2,8.572708368E-1
2.085478438E0,9.320407510E-1,-1.945343912E-1,9.057560563E-1
2.105478438E0,1.046935797E0,1.088736355E-1,1.146052957E0
2.125478438E0,9.051452279E-1,3.295705318E-1,1.240824342E0
2.145478438E0,5.488013029E-1,2.750464380E-1,1.326153517E0
2.165478438E0,5.968328118E-1,7.142061591E-1,1.617780566E0
2.185478438E0,3.618591130E-1,1.021680832E0,1.479899526E0
2.205478438E0,9.089674801E-2,1.443073153E0,1.375179768E0
2.225478438E0,-2.072229385E-1,1.129629493E0,8.772548437E-1
2.245478438E0,2.445206232E-2,5.052204728E-1,4.410970509E-1
2.265478438E0,6.239028573E-1,1.705186628E-2,1.905899495E-1
2.285478438E0,4.564734101E-1,3.649483323E-1,2.069785893E-1
2.305480000E0,5.757841095E-2,7.576648593E-1,3.502352238E-1
2.327480000E0,2.677335031E-2,6.100623608E-1,3.928212523E-1
2.347480000E0,5.849471092E-1,-9.590584040E-2,4.159643054E-1
2.367480000E0,7.370525599E-1,-6.832963824E-1,5.024279356E-1
2.389478438E0,-1.456302702E-1,-1.204277156E-3,3.025353849E-1
2.409489375E0,-5.311036706E-1,9.616763890E-2,2.056172341E-1
2.431480000E0,-7.671419978E-1,2.352703810E-1,1.742536724E-1
2.453478438E0,-5.829050541E-1,2.868274152E-1,1.711993515E-1
2.473478438E0,-4.831420481E-1,-2.172062248E-1,-1.005309634E-2
2.493480000E0,-6.820572019E-1,-7.209955156E-2,-3.380702734E-1
2.515480000E0,-3.603057563E-1,-3.205820620E-1,-2.168397009E-1
2.537480000E0,-1.858251989E-1,-5.067738295E-1,-1.396088898E-1
2.557480000E0,2.478716522E-1,-5.715953112E-1,1.855459511E-1
2.579497188E0,4.623551667E-1,-8.475144506E-1,8.944812417E-2
2.601478438E0,2.158448696E-1,-5.789780617E-1,-8.332201838E-2
2.621478438E0,1.517214775E-1,-9.793042541E-1,2.515019476E-2
2.641480000E0,-2.233323306E-1,-6.867521405E-1,4.122467637E-1
2.663478438E0,-8.181056380E-1,-3.329215646E-1,4.768588543E-1
2.683478438E0,-1.399911165E0,1.470614374E-1,5.727472305E-1
2.703478438E0,-1.775645614E0,2.148325741E-1,3.616322279E-1
2.723478438E0,-2.031877518E0,-1.631010175E-1,-2.019869536E-1
2.743478438E0,-2.203530550E0,-2.893406749E-1,-7.237531543E-1
2.763478438E0,-2.750429392E0,3.753330410E-1,-1.369053721E0
2.783478438E0,-1.977807045E0,1.183298349E0,-1.306710601E0
2.803478438E0,-8.401665688E-1,5.727821589E-1,-8.543212414E-1
2.823478438E0,-5.517334938E-1,3.079458773E-1,-7.077659369E-1
2.843490938E0,-1.037947297E0,7.582408190E-1,-7.030011415E-1
2.865478438E0,-1.157153249E0,7.230375409E-1,-6.572735310E-1
2.885478438E0,-5.768313408E-1,2.884156704E-1,-6.078632474E-1
2.905478438E0,-1.302015632E-1,-6.098180264E-2,-4.499458671E-1
2.925478438E0,-1.212305725E-1,1.439896598E-2,-3.188018501E-1
2.945478438E0,-1.109505817E-1,-4.045673087E-2,-1.936966330E-1
2.965478438E0,4.850269854E-2,-1.102000922E-1,-6.396631896E-2
2.985478438E0,1.323483139E-1,-1.613207757E-1,1.927716136E-1
3.005478438E0,4.132590592E-1,-3.508111835E-1,2.641032338E-1
3.025478438E0,5.927138329E-1,-3.917915225E-1,2.370680720E-1
3.045478438E0,6.275506020E-1,-4.216017425E-1,1.844987571E-1
3.065478438E0,4.659505486E-1,-1.881988496E-1,-2.242748067E-2
3.085478438E0,4.582885504E-1,-2.438923120E-1,1.610938832E-2
3.105478438E0,3.423987031E-1,-1.226442829E-1,-1.986708343E-1
3.125480000E0,5.498659611E-1,-1.801005304E-1,3.258529678E-2
3.147480000E0,2.454805523E-1,-1.903456002E-1,-2.840697765E-1
3.167480000E0,2.918190509E-2,-6.503096968E-2,-2.204350829E-1
3.189480000E0,-3.698352724E-2,-1.034980267E-1,-2.482556254E-1
3.211480000E0,0.000000000E0,-1.414589286E-1,-2.199114859E-2
3.233478438E0,-1.763306111E-1,7.599163800E-2,-1.815840602E-1
3.253478438E0,-3.239331022E-2,-4.860742018E-2,-1.147903055E-1
3.273480000E0,3.684389964E-2,-3.380702734E-1,2.024581842E-2
3.293480000E0,-2.631433010E-1,-9.649925679E-2,-6.342526525E-2
3.315478438E0,-2.014109939E-1,7.574729156E-3,9.704030305E-2
3.335480000E0,9.627236426E-2,-2.484825253E-1,3.018546999E-1
3.357480000E0,-1.949707270E-1,-1.233947743E-2,3.546509147E-2
3.377480000E0,-2.630385756E-1,1.370432526E-1,2.126683742E-1
3.397480000E0,2.097536623E-1,-2.855707705E-1,5.310164094E-1
3.417480000E0,4.043927789E-2,-1.005658731E-1,5.030038953E-1
3.437480000E0,-1.801703423E-1,3.399377763E-1,5.302833915E-1
3.457480000E0,-1.190314535E-2,2.819230258E-1,6.231872439E-1
3.479509688E0,1.656317525E-2,8.808676898E-2,2.189341038E-1
3.501478438E0,-1.161691174E-1,-4.558800161E-2,5.288347602E-2
3.521480000E0,9.915215522E-2,-1.989849806E-1,6.593853980E-2
3.541480000E0,1.064825356E-1,-2.603332996E-1,1.024857312E-1
3.563478438E0,-8.326965570E-2,-1.413542181E-1,1.948660165E-1
3.583478438E0,-2.425309569E-1,-2.639461458E-1,1.688082516E-1
3.603480000E0,-4.586376250E-1,-2.859722078E-1,2.384119667E-2
3.623480000E0,-3.076666296E-1,-2.274862081E-1,-8.063420653E-3
3.643480000E0,-2.102598101E-1,-3.800978065E-1,-2.615550458E-1
3.665478438E0,-1.536762416E-1,-2.624975145E-1,-3.275110424E-1
3.685478438E0,-1.025555432E-1,-9.159488231E-2,-2.581691146E-1
3.705478438E0,7.679449022E-2,8.508480340E-2,-2.375044078E-1
3.725478438E0,-1.130100712E-1,1.452462971E-1,-5.669527650E-1
3.745478438E0,-1.130449772E-1,2.607172728E-1,-6.856700182E-1
3.765478438E0,2.145358771E-1,1.243547052E-1,-8.214741349E-1
3.785478438E0,4.321958721E-1,3.296926990E-2,-4.018445909E-1
3.805478438E0,5.611233711E-1,1.648463458E-1,-2.190213650E-1
3.825478438E0,3.483677208E-1,2.661627233E-1,-1.572716236E-1
3.845478438E0,1.920211166E-1,1.702394187E-1,-2.499835044E-1
3.865478438E0,1.808859259E-1,-3.658210114E-2,-6.006201506E-1
3.885478438E0,4.442037344E-1,-1.540427655E-1,-5.876872540E-1
3.905478438E0,5.541071296E-1,-1.824218184E-1,-5.109626055E-1
3.925478438E0,4.617443085E-1,-7.033676840E-3,-3.987728357E-1
3.945478438E0,4.489859343E-1,-3.523819894E-2,-7.588691264E-2
3.965478438E0,3.381401002E-1,-7.197737694E-2,2.375393175E-2
3.985480000E0,4.173082113E-1,3.654719293E-1,6.129596233E-1
4.007478438E0,5.303183198E-1,8.698546290E-1,9.461081028E-1
4.027480000E0,6.327516437E-1,9.431235790E-1,8.853356838E-1
4.049478438E0,7.080451846E-1,8.876395226E-1,7.044497728E-1
4.069478438E0,1.176177382E0,1.345648915E-1,5.661848187E-1
4.089478438E0,7.630579472E-1,-2.692868412E-1,7.513118982E-1
4.109480000E0,3.161314726E-1,1.295034289E-1,7.672641873E-1
4.129480000E0,4.563512504E-1,-2.408379763E-1,8.323300481E-1
4.151478438E0,2.018298805E-1,-5.082747936E-1,6.223145723E-1
4.171480000E0,-3.740589619E-1,2.118829638E-2,3.597472608E-1
4.193478438E0,-4.909960330E-1,-3.156951666E-1,7.908784747E-1
4.213480000E0,-3.132342398E-1,-6.634345651E-1,1.300758958E0
4.233480000E0,-3.617194891E-1,-2.404365540E-1,1.082435727E0
4.255478438E0,-3.453482985E-1,-3.163409233E-1,4.734729230E-1
4.275478438E0,5.654866807E-3,-5.857150555E-1,4.736300111E-1
4.295478438E0,1.553866565E-1,-3.167248964E-1,7.077833414E-1
4.315478438E0,3.626619577E-1,-3.664144278E-1,1.161603928E0
4.335480000E0,4.330860078E-1,-8.471653461E-1,1.502327085E0
4.357480000E0,-1.685813516E-1,-5.949478149E-1,1.100639582E0
4.377480000E0,-1.290199757E0,-8.288568258E-2,6.082646847E-1
4.397480000E0,-1.953250289E0,4.733332992E-1,3.005805910E-1
4.417480000E0,-1.676894903E0,-7.663740963E-2,2.019345909E-1
4.439478438E0,-1.298036218E0,-4.434707165E-1,-2.221280485E-1
4.459478438E0,-9.466316700E-1,-9.674359858E-2,-8.362221718E-1
4.479498750E0,-5.124635696E-1,-5.106833205E-2,-1.200280428E0
4.501478438E0,-8.405505866E-2,-3.681423068E-1,-9.353219271E-1
4.521478438E0,6.457718089E-3,-1.456826329E-1,-5.589242578E-1
4.541478438E0,3.721914589E-1,-1.316850930E-1,-9.147270769E-2
4.561478438E0,5.499183536E-1,-1.229759008E-1,9.859365225E-2
4.581478438E0,3.767118752E-1,-1.467996389E-1,-2.937912643E-1
4.601478438E0,-3.525565192E-2,7.134906203E-2,-8.115431666E-1
4.621486250E0,-6.300638616E-2,-2.885901928E-1,-6.265208125E-1
4.643478438E0,9.948377265E-4,-7.661995478E-3,-6.189112067E-1
4.663478438E0,5.733406544E-2,-6.492624991E-3,-4.269773364E-1
4.683480000E0,2.462834120E-1,-1.462760419E-1,-1.967509687E-1
4.705478438E0,1.758593768E-1,-9.546951391E-3,-1.605877429E-1
4.725478438E0,1.719323844E-1,4.520402849E-2,-1.040565297E-1
4.745478438E0,1.330464482E-1,1.556833647E-2,-9.267698228E-2
4.765478438E0,1.279326342E-2,1.047197543E-2,-2.651678622E-1
4.785478438E0,-1.389282104E-2,1.430297345E-1,-1.785995364E-1
4.805478438E0,2.476796806E-1,1.218239777E-2,8.421213925E-2
4.825478438E0,3.479662836E-1,6.948155910E-2,-8.218755573E-2
4.845478438E0,1.042834222E-1,6.109699607E-1,-5.719792843E-1
4.865478438E0,3.331659138E-1,3.839375377E-1,-5.625370741E-1
4.885478438E0,4.572413564E-1,6.393141299E-2,-2.886425555E-1
4.905478438E0,2.816612422E-1,1.734508276E-1,1.166403517E-1
4.925478438E0,-1.403244678E-2,8.861036599E-2,1.523846984E-1
4.945478438E0,-2.417455465E-1,-1.214749180E-2,2.010444701E-1
4.965478438E0,-2.615201473E-1,-6.562437862E-3,1.583537161E-1
4.985478438E0,-1.512851417E-1,-9.145525284E-3,1.062381938E-1
5.005480000E0,-1.773952693E-1,8.866272867E-2,-8.932594955E-2
5.027480000E0,-2.826211751E-1,2.450442314E-1,-3.787364364E-1
5.049478438E0,1.308822334E-1,1.771858186E-1,-1.826138049E-1
5.069478438E0,2.302961946E-1,-7.609635592E-3,-1.698030829E-1
5.089480000E0,-5.024803057E-2,1.581442803E-1,-1.245641485E-1
5.109480000E0,8.538150787E-2,9.162978828E-2,5.600761622E-2
5.129480000E0,6.270968169E-2,9.780824929E-2,8.367108554E-2
5.149480000E0,9.430013597E-2,4.139921069E-2,-3.597123548E-2
5.169480000E0,2.120749503E-1,-1.605702937E-2,-1.492256485E-2
5.189480000E0,1.550725102E-1,-1.361182332E-1,-2.105216086E-1
5.211480000E0,4.785692692E-2,-5.543165654E-2,-2.794097662E-1
5.233478438E0,5.239478499E-2,3.061307408E-2,-1.283689588E-1
5.253478438E0,2.228785455E-1,-1.216669008E-1,3.797836602E-2
5.273478438E0,8.377579972E-3,7.419394702E-2,-2.199289352E-1
5.293478438E0,1.832421124E-1,7.714355364E-3,-2.985211015E-1
5.313480000E0,2.816786766E-1,7.773696631E-2,-3.734655380E-1
5.333480000E0,1.798212677E-1,2.417106479E-1,-4.540299475E-1
5.355478438E0,2.800904512E-1,1.309869587E-1,-1.586853415E-1
5.375478438E0,1.855634004E-1,6.714281440E-2,-8.986700326E-2
5.395478438E0,3.347541392E-2,1.001120880E-1,-3.073350191E-1
5.415478438E0,-4.462806880E-2,6.426302344E-2,-4.355294704E-1
5.435498750E0,1.139525473E-1,-3.570943698E-2,-2.417455465E-1
5.457480000E0,1.926494390E-1,-1.914626174E-2,-7.686430216E-2
5.479498750E0,2.013760954E-1,-3.145083413E-2,-1.075820923E-1
5.501480000E0,-1.488765888E-2,-1.701696031E-2,-3.672521710E-1
5.523478438E0,-2.314306609E-2,1.648637950E-1,-6.077236310E-2
5.543478438E0,3.368136287E-1,-2.246762365E-1,1.817760468E-1
5.563478438E0,-4.864232615E-2,2.260201424E-2,-1.903630644E-1
5.583478438E0,-1.732413769E-1,6.801547855E-2,-1.505695581E-1
5.603478438E0,-2.425134927E-1,-5.443681777E-2,-2.360034138E-1
5.623478438E0,-1.536936909E-1,2.410474271E-1,-7.038912922E-2
5.643478438E0,2.379930913E-1,-6.883578748E-2,1.813047975E-1
5.663478438E0,-2.703515068E-2,1.334129721E-1,9.697049111E-2
5.683478438E0,-1.243197992E-1,1.811477244E-1,4.572762549E-2
5.703478438E0,-1.818982214E-1,1.980075985E-1,-1.876054406E-1
5.723478438E0,1.446179748E-1,-3.145083413E-2,-7.347836159E-3
5.743478438E0,1.278628260E-1,8.969247341E-2,3.269001842E-2
5.763478438E0,7.375761122E-2,1.168847010E-1,4.143411666E-2
5.783478438E0,-7.079055160E-2,4.918337986E-2,-2.528109550E-1
5.803478438E0,8.801695704E-2,-9.473647177E-2,-2.332807034E-1
5.823478438E0,1.766622216E-1,-1.658760905E-1,-2.126509100E-1
5.843490938E0,-7.609635592E-3,-2.736676298E-2,-2.416408360E-1
5.865478438E0,-1.376192123E-1,-1.079835221E-1,-3.226241171E-1
5.885478438E0,-1.457175314E-1,-3.417354822E-2,-2.676113248E-1
5.905478438E0,-7.007496804E-2,-2.357939817E-2,-4.428423941E-1
5.925478438E0,9.363691509E-2,-2.932153083E-2,-2.827607989E-1
5.945478438E0,-1.475326866E-1,3.007551432E-1,-2.304358184E-1
5.965478438E0,-8.079652786E-1,1.207069755E0,-3.220655918E-1
5.985478438E0,-1.456110716E0,2.578758955E0,-6.167470217E-1
6.005478438E0,-1.643419504E0,3.385450125E0,-6.203249097E-1
6.025478438E0,-2.297359467E0,3.660374403E0,6.149318814E-1
6.045478438E0,-4.503036499E0,4.316216469E0,1.967055917E0
6.065478438E0,-6.732485294E0,7.231073380E0,2.629687548E0
6.085478438E0,-7.921264172E0,1.091542912E1,2.385882616E0
6.105478438E0,-7.106457233E0,1.432805347E1,2.477494955E0
6.125478438E0,-4.716385841E0,1.596353149E1,2.619233131E0
6.145478438E0,-1.750216126E0,1.492781830E1,2.009676695E0
6.165480000E0,1.298350453E0,1.160746956E1,1.128355384E0
6.185480000E0,3.072948933E0,6.573485851E0,5.179439187E-1
6.207480000E0,2.872864246E0,2.963446856E0,7.505788207E-1
6.227481563E0,1.980756760E0,2.145393610E0,1.276638508E0
6.249478438E0,1.174973130E0,2.248088837E0,1.540061116E0
6.269480000E0,9.840166569E-1,1.949846983E0,1.429721355E0
6.291480000E0,1.364323854E0,7.399497628E-1,1.236129403E0
6.313478438E0,1.619141936E0,1.676912308E-1,1.028470159E0
6.333480000E0,1.226425409E0,4.090353549E-1,9.851511121E-1
6.355478438E0,7.349930406E-1,8.920552135E-1,8.759981990E-1
6.375478438E0,6.724753380E-1,6.565230489E-1,6.690719724E-1
6.395478438E0,7.821169496E-1,-1.579522938E-1,3.681423068E-1
6.415478438E0,7.610857487E-1,-5.661150217E-1,2.435083389E-1
6.435478438E0,6.252467632E-1,-2.906496823E-1,1.953547001E-1
6.455478438E0,4.949404597E-1,1.183333248E-1,1.820029318E-1
6.475478438E0,4.141491652E-1,-4.780456796E-2,1.834515631E-1
6.495478438E0,2.483079880E-1,-2.953620553E-1,1.063080058E-1
6.515478438E0,1.858950108E-1,-4.527907670E-1,1.193805225E-2
6.535478438E0,3.091501594E-1,-4.599466026E-1,-2.851868048E-2
6.555478438E0,4.310265183E-1,-3.731339276E-1,-3.141592606E-4
6.575478438E0,1.496794373E-1,-2.296155095E-1,7.902850956E-2
6.595478438E0,-4.097160399E-1,-1.775174439E-1,4.164355621E-2
6.615478438E0,-7.091621757E-1,-4.605749249E-1,1.213003788E-2
6.635478438E0,-6.967877746E-1,-8.870810270E-1,2.214822732E-2
6.655478438E0,-6.712186933E-1,-9.289863706E-1,9.075712296E-4
6.675478438E0,-1.014018893E0,-4.749215543E-1,-2.710496262E-2
6.695478438E0,-1.378111959E0,-4.451287687E-1,-2.834414691E-2
6.715478438E0,-1.432967663E0,-1.472604156E0,-6.846926361E-2
6.735478438E0,-1.256287932E0,-2.687545300E0,2.116037160E-1
6.755478438E0,-1.121182084E0,-3.140074253E0,5.840395093E-1
6.775478438E0,-9.106779099E-1,-3.155031681E0,4.217762649E-1
6.795478438E0,-8.017693758E-1,-3.563962221E0,1.902059764E-1
6.815478438E0,-5.973563790E-1,-4.469753265E0,2.417630106E-1
6.835478438E0,4.239404574E-2,-6.041509628E0,4.742408693E-1
6.855478438E0,1.948311031E-1,-6.430299282E0,7.506660819E-1
6.875478438E0,-7.327241302E-1,-4.904218197E0,6.833487749E-1
6.895478438E0,-1.409440637E0,-4.418877125E0,-3.041934371E-1
6.915480000E0,4.063126445E-2,-7.169079304E0,-7.336142659E-1
6.937478438E0,2.517899275E0,-9.888755798E0,-7.301759720E-1
6.957480000E0,3.454128742E0,-9.169192314E0,1.041961536E-1
6.979498750E0,2.461245775E0,-7.239608288E0,4.805240333E-1
7.001480000E0,1.597517371E0,-4.562482834E0,-5.893976986E-2
7.021498750E0,2.379878521E0,-4.742181778E0,-6.776415110E-1
7.043478438E0,3.749543190E0,-4.642191887E0,-8.887740374E-1
7.063478438E0,3.998461962E0,-4.096497059E0,-6.418622732E-1
7.083478438E0,3.609986544E0,-3.720134497E0,-6.341828108E-1
7.103478438E0,3.149551392E0,-3.173881292E0,-5.606870055E-1
7.123478438E0,2.538581371E0,-2.435537100E0,-5.321334600E-1
7.143478438E0,1.837377906E0,-1.945466161E0,-4.317072034E-1
7.163478438E0,1.068979263E0,-1.345509171E0,-5.862560868E-2
7.183478438E0,2.248507738E0,-1.298821688E0,8.064991832E-1
7.203478438E0,4.218460917E-1,-1.327829003E0,8.210029006E-1
7.223478438E0,-1.056482673E0,-1.359210014E0,-1.369210780E-1
7.243478438E0,-1.801162362E0,-1.281246245E-1,-4.758116603E-1
7.263478438E0,-1.266376019E0,4.558974504E-1,-1.521577984E-1
7.283478438E0,-3.636218905E-1,-2.739992440E-1,3.054326167E-3
7.303480000E0,1.463633180E-1,-5.243842006E-1,4.567526653E-2
7.325478438E0,3.882834017E-1,-7.219554186E-1,-1.347219646E-1
7.345478438E0,1.921782047E-1,-6.654591560E-1,-1.689653248E-1
7.365478438E0,-1.913753450E-1,-2.007652223E-1,3.523819894E-2
7.385478438E0,-3.667460382E-1,1.184031367E-1,1.295732409E-1
7.405478438E0,-4.848349988E-1,1.434311569E-1,1.214923710E-1
7.425478438E0,-5.135456920E-1,2.376265824E-1,4.965461791E-2
7.445478438E0,-2.661801577E-1,9.014625847E-2,1.396263391E-2
7.465478438E0,-2.075720131E-1,-1.075297371E-1,-9.777334332E-2
7.485478438E0,-2.017600648E-2,-1.120326817E-1,-8.389797807E-2
7.505478438E0,8.609709144E-2,-1.681450158E-1,3.433062509E-2
7.525478438E0,3.342305496E-2,-2.524444163E-1,1.998401992E-2
7.545478438E0,-1.222079545E-1,-5.483824387E-2,3.645992652E-2
7.565478438E0,-3.496592641E-1,-1.022762898E-2,-7.173303049E-3
7.585478438E0,-3.549999595E-1,-4.392993823E-2,-2.434734255E-2
7.605478438E0,-4.167671800E-1,1.628392190E-2,-1.188569237E-2
7.625478438E0,-5.529726744E-1,-2.181661548E-3,-8.552113175E-2
7.645478438E0,-5.338089466E-1,2.398082428E-2,8.970992640E-3
7.665478438E0,-5.416978598E-1,1.380904466E-1,-3.141592816E-2
7.685478438E0,-4.992339909E-1,1.520879865E-1,-8.939576149E-2
7.705478438E0,-3.152413666E-1,1.228711754E-1,5.953317881E-2
7.725478438E0,-2.225643843E-1,5.419247225E-2,1.405862719E-1
7.745478438E0,-1.943598688E-1,2.275036722E-1,1.810953617E-1
7.765478438E0,-5.096361507E-3,1.334478706E-1,2.572615445E-1
7.785478438E0,-1.786344498E-1,5.976007506E-2,1.631010175E-1
7.805478438E0,-2.079036236E-1,1.152789965E-1,1.445830762E-1
7.825478438E0,-8.555603772E-2,2.855358645E-2,2.277131081E-1
7.845478438E0,7.365289330E-2,1.417207345E-2,3.937986493E-1
7.865478438E0,2.750638872E-2,1.115265414E-1,2.741388679E-1
7.885480000E0,-3.340560198E-2,4.300491139E-2,6.562437862E-2
7.905480000E0,-2.350609452E-1,9.435249865E-2,-1.498888731E-1
7.927480000E0,-2.755700350E-1,2.107310593E-1,-4.085815698E-2
7.947480000E0,-2.626022398E-1,2.808409333E-1,7.145377994E-2
7.969478438E0,-3.734306395E-1,2.252696455E-1,1.243023500E-1
7.989478438E0,-3.677408695E-1,2.578025758E-1,2.029817924E-2
8.009484688E0,-3.462558687E-1,2.931804061E-1,-8.075638115E-2
8.031478438E0,-1.311789453E-1,1.918116808E-1,-4.986405745E-2
8.051478438E0,-1.342158169E-1,9.101892263E-2,2.014109865E-2
8.071480000E0,-9.435249865E-2,3.454006463E-2,1.692969352E-3
8.093478438E0,-2.367539108E-1,-3.508111695E-3,-1.541125681E-2
8.113478438E0,-3.544589281E-1,-1.075122785E-2,-1.114392728E-1
8.133478438E0,-2.775073647E-1,8.873254061E-2,-4.644321278E-2
8.153478438E0,-1.039343551E-1,2.000147291E-2,-3.068288788E-2
8.173478438E0,6.894050539E-2,-7.164576650E-2,3.672172874E-2
8.193478438E0,1.481784508E-2,-9.152506292E-2,-4.897394031E-2
8.213478438E0,-7.148868591E-2,-5.358160660E-2,-6.960373372E-2
8.233478438E0,-1.195550524E-2,-3.769911081E-2,-4.054399952E-2
8.253478438E0,1.787217148E-2,-3.494149074E-2,2.495820867E-3
8.273478438E0,1.170941368E-1,2.598795295E-2,2.462136000E-1
8.293478438E0,1.887922585E-1,-1.693667471E-1,2.994635999E-1
8.313478438E0,2.460914198E-3,-9.908234328E-2,7.244861871E-2
8.333478438E0,-7.305948436E-2,-9.054768085E-2,-1.143365204E-1
8.353478438E0,-8.801695704E-2,-7.853982039E-3,-1.052608043E-1
8.373478438E0,-3.014183603E-2,-1.741838641E-2,-5.930628628E-2
8.393478438E0,2.865830623E-2,-6.356488913E-2,1.923352852E-2
8.413478438E0,-3.647737950E-2,-1.972221956E-2,-7.923794538E-2
8.433478438E0,-7.566002011E-2,-3.944444004E-3,-1.635373533E-1
8.453478438E0,6.709045917E-2,5.777039751E-2,-1.031664088E-1
8.473478438E0,2.154434472E-1,-1.567305624E-2,-3.495894372E-2
8.493478438E0,2.321636975E-1,-2.747148275E-2,1.648812592E-1
8.513478438E0,-4.204498231E-2,-2.036973834E-1,7.822565734E-2
8.533480000E0,-3.094294071E-1,-3.780383244E-2,-1.010720134E-1
8.553480000E0,-1.594183743E-1,-8.658578247E-2,-1.321214288E-1
8.575478438E0,8.412487060E-2,-2.635447076E-3,6.033603102E-2
8.595478438E0,7.543312758E-2,-1.417207345E-2,1.474628747E-1
8.615478438E0,-4.214970022E-2,-6.637486815E-2,-1.888446324E-2
8.635478438E0,-1.416334659E-1,-1.771509275E-2,-1.464505792E-1
8.655483125E0,1.014036313E-2,5.302310362E-2,-5.024803057E-2
8.677480000E0,1.292939931E-1,-3.597123548E-2,9.868091345E-2
8.699480000E0,7.190756500E-2,1.953023486E-2,1.426806599E-1
8.721478438E0,1.124690175E-1,-5.890486389E-2,5.384340882E-2
8.741478438E0,1.757546514E-2,2.869321220E-2,-7.644542307E-2
8.761478438E0,2.607521974E-2,7.642796636E-2,-8.246680349E-2
8.781478438E0,4.862487316E-2,-1.222777665E-1,-7.475244999E-2
8.801478438E0,-1.372003257E-1,-1.221730467E-2,-7.562511414E-2
8.821478438E0,-5.201081187E-2,2.066469751E-2,-1.485275179E-1
8.841478438E0,2.124065757E-1,-1.071632132E-1,-6.639232486E-2
8.861480000E0,2.673495412E-1,-5.405284837E-2,-1.190140024E-1
8.881480000E0,2.600540593E-2,4.101523664E-3,-3.461162448E-1
8.903478438E0,8.257152885E-2,-8.384561539E-2,-3.415434659E-1
8.923478438E0,1.932253987E-1,5.434955284E-2,-1.842020452E-1
8.943478438E0,2.903529704E-1,-7.197737694E-2,-9.215338528E-2
8.963478438E0,4.103269055E-2,-6.309365481E-2,-3.423987031E-1
8.983478438E0,1.740093343E-2,1.247386783E-1,-3.145781457E-1
9.003478438E0,1.862266362E-1,-8.587019518E-3,-1.986533701E-1
9.023478438E0,2.251649201E-1,8.906415105E-2,2.928662486E-2
9.043478438E0,2.450442314E-1,-6.455972791E-2,1.699950695E-1
9.063478438E0,1.571668983E-1,-4.691445082E-2,1.253146399E-2
9.083480000E0,-7.051130384E-2,-3.591887653E-2,-2.324604094E-1
9.103480000E0,-3.024655581E-2,-8.381070942E-2,-1.886177361E-1
9.123512813E0,5.162683874E-2,3.834488243E-2,-4.892157763E-2
9.145478438E0,3.157300502E-2,2.450442314E-2,-3.120648675E-2
9.165478438E0,-2.176425606E-2,2.019345947E-2,-1.287180334E-1
9.185478438E0,8.011061698E-3,8.909905702E-2,-9.332275391E-2
9.205480000E0,6.839945167E-2,1.097637564E-1,-8.972737938E-2
9.225480000E0,1.122944802E-1,1.411447823E-1,-4.136430100E-3
9.247480000E0,9.005898982E-2,1.283689588E-1,2.932153083E-2
9.269478438E0,1.122595742E-1,9.030333161E-2,1.154011711E-1
9.289478438E0,1.990722567E-1,3.534291685E-2,1.542172879E-1
9.309481563E0,2.251474652E-3,-1.134464052E-3,-5.803219602E-2
9.331481563E0,-1.603433937E-1,5.681046844E-2,-1.585631669E-1
9.353478438E0,-5.873033032E-2,1.774999872E-2,3.438298777E-2
9.373478438E0,-7.744026184E-2,-8.850564808E-2,8.658578247E-2
9.393478438E0,-2.448173314E-1,-1.949532703E-2,-7.061602175E-2
9.413480000E0,-2.246936858E-1,2.080432512E-2,-1.251924634E-1
9.435478438E0,1.182460561E-1,-1.745329238E-3,3.874630854E-2
9.455478438E0,1.182809621E-1,2.241002768E-2,6.173229590E-2
9.475480000E0,-1.822123677E-2,4.267330095E-2,-8.463101834E-2
9.497478438E0,-3.604104742E-2,1.593485624E-1,-1.130973324E-1
9.517480000E0,1.447401494E-1,1.507091820E-1,-9.053023160E-2
9.539478438E0,1.088736355E-1,7.106980681E-2,-6.789331138E-2
9.559478438E0,7.040657848E-2,5.729915947E-2,-6.663667411E-2
9.579497188E0,7.138396800E-2,-4.096287861E-2,-8.810421824E-2
9.601478438E0,1.460840553E-2,-1.335525960E-1,-1.088038236E-1
9.621478438E0,-2.003463507E-1,4.886921961E-3,-1.907121241E-1
9.641478438E0,-1.659982651E-1,-1.085420251E-1,-2.348165959E-1
9.661478438E0,-2.968805097E-2,2.000147291E-2,-1.565036774E-1
9.681481563E0,1.400277615E-1,-2.715732343E-2,-7.063347101E-2
9.703478438E0,2.312037647E-1,2.895501256E-2,-7.482226193E-2
9.723478438E0,2.408205271E-1,1.935570128E-2,-7.684684545E-2
9.743478438E0,2.092300653E-1,-1.780235791E-3,-8.948303014E-2
9.763478438E0,7.216936350E-2,-2.830924094E-2,-7.559020817E-2
9.783478438E0,-7.052875310E-2,9.850638360E-2,5.419247225E-2
9.803478438E0,1.942551509E-2,-1.909390278E-2,2.611885071E-1
9.823478438E0,-2.778564207E-2,2.438225038E-2,2.777691483E-1
9.843490938E0,-1.045452207E-1,3.218387067E-2,8.693484962E-2
9.865478438E0,-3.380179107E-1,8.183848858E-2,-9.602801502E-2
9.885478438E0,-2.344675362E-1,1.446528882E-1,-5.717698485E-2
9.905478438E0,-2.862340072E-3,5.714207888E-2,1.036725566E-2
9.925478438E0,1.425061375E-1,1.138303727E-1,8.583529294E-2
9.945478438E0,1.752485037E-1,-1.075820923E-1,6.721262634E-2
9.965480000E0,-1.886700839E-2,-1.417207345E-2,-4.478514940E-2
9.985480000E0,-8.524188399E-2,-3.005456924E-2,-1.211607531E-1
1.000748000E1,4.961971194E-2,4.614650458E-2,-7.140141726E-2
1.002748000E1,2.877873480E-1,-9.784315526E-2,-6.133086979E-2
1.004947844E1,1.613731384E-1,1.200262904E-1,-1.171115935E-1
1.006947844E1,3.616322204E-2,-9.245008975E-2,-1.966811568E-1
1.008947844E1,-1.776745170E-1,1.663298719E-2,-2.596351802E-1
1.010947844E1,-7.319910824E-2,-3.141592606E-4,-1.940980703E-1
1.012948000E1,1.176351868E-2,-5.391322076E-2,-2.268404365E-1
1.015147844E1,5.108578876E-2,3.556980938E-2,-2.434559762E-1
1.017147844E1,1.364847422E-1,1.942551509E-2,-2.633876503E-1
1.019147844E1,2.095442265E-1,1.019272301E-2,-1.512502283E-1
1.021147844E1,1.737649739E-1,-1.890191622E-2,-1.665044129E-1
1.023148312E1,9.471901506E-2,-7.876671106E-2,-1.789311469E-1
1.025348000E1,-1.312138587E-1,-1.481784508E-2,-3.539004028E-1
1.027547844E1,-6.817255914E-2,5.181882530E-2,-1.652826816E-1
1.029547844E1,1.902408898E-1,-1.291543618E-2,2.244493365E-2
1.031547844E1,1.738696992E-1,2.979277074E-2,3.502875939E-2
1.033547844E1,1.125737373E-2,1.428551972E-1,-1.798038185E-1
1.035547844E1,1.162389293E-2,1.934173852E-1,-1.537286043E-1
1.037547844E1,9.939649701E-2,9.669124335E-2,-1.043532342E-1
1.039547844E1,1.836435497E-1,4.565781355E-2,-4.223696887E-3
1.041547844E1,9.646435082E-2,-1.906597614E-1,-1.694191098E-1
1.043548000E1,-8.785987645E-2,1.298524998E-2,-1.835039109E-1
1.045748000E1,9.566149861E-2,-1.769589335E-1,-9.857619554E-2
1.047950344E1,7.093018293E-2,-1.992642432E-1,-2.012190074E-1
1.050147844E1,-1.558753550E-1,-2.143962383E-1,-4.726351500E-1
1.052148000E1,-2.166651785E-1,-1.550375968E-1,-4.795466661E-1
1.054347844E1,-9.822712839E-2,-1.919862255E-2,-3.391000330E-1
1.056347844E1,1.277930140E-1,8.738863468E-2,-4.380776547E-3
1.058347844E1,3.565882146E-1,5.101597309E-2,2.012364566E-1
1.060347844E1,4.316548407E-1,3.354522884E-1,2.361255884E-1
1.062347844E1,7.418522239E-1,3.680724800E-1,3.210707605E-1
1.064347844E1,3.815464377E-1,-1.843591332E-1,3.361504152E-2
1.066347844E1,-1.753532290E-1,-2.872812003E-2,-2.586927116E-1
1.068347844E1,-4.808905721E-1,-2.583785355E-1,-5.271592736E-1
1.070347844E1,-5.187293291E-1,2.916445211E-2,-4.532794654E-1
1.072347844E1,-1.540078521E-1,4.377285764E-2,-2.103470862E-1
1.074347844E1,1.307949722E-1,4.937536269E-2,7.143632323E-2
1.076348000E1,3.976209164E-1,-9.424777701E-3,2.080956101E-1
1.078548000E1,4.898091853E-1,2.375393175E-2,2.982767820E-1
1.080748000E1,6.910107732E-1,1.984788477E-1,1.998576522E-1
1.082948000E1,3.150842786E-1,-3.985110223E-1,-8.152432740E-2
1.085147844E1,-4.912403822E-1,-2.083224952E-1,-4.543441236E-1
1.087147844E1,-7.003831863E-1,-9.670869261E-2,-5.304579139E-1
1.089147844E1,-3.529579341E-1,-1.718102098E-1,-4.254240096E-1
1.091147844E1,-1.185951233E-1,-1.715658605E-2,-2.950479090E-1
1.093147844E1,1.355771720E-1,1.006531343E-1,-5.349434167E-2
1.095147844E1,5.532693863E-1,-6.579891313E-3,9.929177910E-2
1.097147844E1,1.093885064E0,1.877625138E-1,3.149097562E-1
1.099147844E1,8.038113713E-1,8.534659632E-3,3.045599535E-2
1.101147844E1,1.165007278E-1,-3.052406311E-1,-3.992091715E-1
1.103147844E1,-6.650227904E-1,6.387905218E-3,-8.379849195E-1
1.105147844E1,-5.447172523E-1,-8.845328540E-2,-7.349407077E-1
1.107148000E1,-8.705702424E-2,-1.979028881E-1,-4.699124396E-1
1.109347844E1,1.999100149E-1,1.128878966E-1,-1.736253500E-1
1.111348000E1,3.785270154E-1,7.382742595E-3,-1.024682820E-1
1.113547844E1,4.889539778E-1,4.527035058E-1,-1.710946262E-1
1.115547844E1,6.698049903E-1,1.766273193E-2,-1.754230410E-1
1.117548156E1,5.007349700E-2,-1.358215213E-1,-4.249353111E-1
1.119747844E1,-3.901160061E-1,2.515019476E-2,-4.465075731E-1
1.121747844E1,-4.995481372E-1,-6.005677953E-2,-4.779235125E-1
1.123748000E1,-2.286555916E-1,-1.217890754E-1,-2.486745119E-1
1.125748000E1,4.639085010E-2,6.602580845E-2,3.483677283E-2
1.127748000E1,8.068656921E-2,3.726976216E-1,2.100329250E-1
1.129748000E1,1.951976269E-1,1.821949184E-1,2.892883122E-1
1.131748000E1,2.907893062E-1,2.279923558E-1,3.564311266E-1
1.133748000E1,4.109901190E-1,1.980250627E-1,3.724358082E-1
1.135748000E1,1.869422197E-1,7.567747682E-2,2.604380250E-1
1.137748000E1,-3.224146664E-1,-2.295107953E-2,-1.146681309E-1
1.139748000E1,-6.181432605E-1,1.092401594E-1,-2.517637312E-1
1.141748000E1,-4.485670626E-1,2.434734255E-2,-2.766870558E-1
1.143947844E1,-2.939832509E-1,1.993864179E-1,-3.176499158E-2
1.145947844E1,1.588249579E-3,1.709375530E-1,3.779859543E-1
1.147950500E1,2.392322868E-1,3.748967126E-2,4.111995697E-1
1.150147844E1,8.632572889E-1,6.058561206E-1,4.284957945E-1
1.152147844E1,1.139734864E0,3.298672382E-3,3.608991802E-1
1.154147844E1,2.876127958E-1,-4.895125031E-1,-4.321435094E-2
1.156147844E1,-7.239800096E-1,-1.797340065E-1,-2.808060348E-1
1.158148000E1,-1.109313846E0,-2.899864614E-1,-4.741710424E-1
1.160347844E1,-7.074517608E-1,-1.489638537E-1,-2.330887169E-1
1.162347844E1,-1.855634004E-1,6.419321150E-2,1.605702937E-2
1.164347844E1,5.119050667E-2,1.182635128E-1,1.736079007E-1
1.166347844E1,2.934596539E-1,1.907819360E-1,1.210734919E-1
1.168347844E1,5.725029111E-1,3.190287352E-1,1.923178285E-1
1.170347844E1,6.719866395E-1,2.972295694E-2,2.769139409E-1
1.172347844E1,1.231853366E-1,-3.614576757E-1,1.299921274E-1
1.174347844E1,-7.378205061E-1,-9.721484035E-3,-2.447126210E-1
1.176347844E1,-6.901206374E-1,-1.444958150E-1,-1.284213215E-1
1.178347844E1,-4.780980349E-1,-4.982216954E-1,-9.793042392E-2
1.180347844E1,-2.827433348E-1,-1.624726951E-1,2.112895548E-1
1.182347844E1,-9.827949107E-2,1.559975296E-1,4.358436167E-1
1.184349250E1,1.691922098E-1,2.950479090E-1,6.314949989E-1
1.186547844E1,4.623900652E-1,2.711543441E-1,7.073993683E-1
1.188547844E1,7.733379602E-1,1.533795297E-1,7.864453793E-1
1.190547844E1,2.267880887E-1,-3.650705218E-1,5.589242578E-1
1.192547844E1,-6.834883690E-1,-2.981720567E-1,1.457873583E-1
1.194547844E1,-9.482722878E-1,-1.484577060E-1,6.642723083E-2
1.196547844E1,-1.071300507E0,-3.290818334E-1,-1.245990545E-1
1.198547844E1,-7.975107431E-1,5.215043947E-2,9.871581942E-2
1.200547844E1,-4.046545923E-1,2.213252038E-1,4.481307268E-1
1.202547844E1,5.705481395E-2,1.414414793E-1,8.431685567E-1
1.204547844E1,4.050211012E-1,4.291764647E-2,9.153728485E-1
1.206547844E1,3.381051719E-1,5.386086181E-2,6.648657322E-1
1.208547844E1,1.523672491E-1,-1.924749166E-1,4.365592003E-1
1.210547844E1,-4.005181491E-1,-5.584355593E-1,2.499311417E-2
1.212547844E1,-8.543561101E-1,-4.767366946E-1,-2.133839577E-1
1.214547844E1,-9.699318409E-1,-3.336371481E-1,-1.912706345E-1
1.216547844E1,-5.743878484E-1,-2.441715598E-1,1.244594306E-1
1.218547844E1,-4.028568864E-1,1.575159580E-1,1.865756959E-1
1.220547844E1,-7.588691264E-2,2.742261291E-1,2.283763289E-1
1.222547844E1,4.468566477E-1,8.799950033E-2,3.210358620E-1
1.224547844E1,9.333671927E-1,3.444232643E-1,4.101349115E-1
1.226547844E1,1.085716963E0,-1.025380939E-1,2.393544465E-1
1.228547844E1,4.236088693E-1,-2.690599561E-1,-1.326275766E-1
1.230547844E1,-3.586651683E-1,-3.926641643E-1,-4.902280867E-1
1.232547844E1,-9.672963619E-1,-1.259080470E-1,-6.344446540E-1
1.234547844E1,-6.750758886E-1,1.136209350E-2,-4.011290073E-1
1.236547844E1,-1.251052022E-1,-9.414306283E-2,-1.725083441E-1
1.238548000E1,1.818109453E-1,-9.424778074E-2,1.420698036E-2
1.240747844E1,5.229879022E-1,-3.347541392E-2,1.207244247E-1
1.242747844E1,8.975704908E-1,-1.925447285E-1,2.684141994E-1
1.244748000E1,9.861459136E-1,7.126179338E-2,1.708328277E-1
1.246947844E1,4.823042750E-1,-3.511427939E-1,-1.302364618E-1
1.248947844E1,-3.491182029E-1,-3.714584112E-1,-3.200235665E-1
1.250947844E1,-8.871857524E-1,4.825835302E-2,-1.751786917E-1
1.252947844E1,-6.506412625E-1,2.093871534E-1,2.863910794E-1
1.254947844E1,-3.707253933E-1,1.343903542E-1,4.238182902E-1
1.256947844E1,-3.491007686E-1,3.315950930E-1,3.885102868E-1
1.258948000E1,-5.529202893E-2,2.556034625E-1,3.630982935E-1
1.260948000E1,4.588121474E-1,-1.037772745E-1,3.006155193E-1
1.262948000E1,4.011290073E-1,-6.642723083E-2,2.057219595E-1
1.265147844E1,3.447374403E-1,6.213372108E-3,2.278876454E-1
1.267147844E1,2.531251013E-1,-4.385663271E-1,2.039940804E-1
1.269147844E1,-1.893158704E-1,-3.417878151E-1,5.352924764E-2
1.271147844E1,-4.744502902E-1,-1.956863105E-1,-7.780677825E-2
1.273147844E1,-4.728794992E-1,-1.139350906E-1,-4.454080388E-2
1.275147844E1,-4.726526141E-1,6.825982779E-2,-1.172512174E-1
1.277147844E1,-2.580992877E-1,1.464680284E-1,-1.172861271E-2
1.279148000E1,1.584060788E-1,-1.377937496E-1,6.464699656E-2
1.281347844E1,3.304955363E-1,-3.455751762E-2,1.831199378E-1
1.283347844E1,8.922123313E-1,5.384340882E-2,3.794171214E-1
1.285347844E1,9.379050136E-1,-2.948733866E-1,4.541346729E-1
1.287347844E1,3.570070863E-1,-3.763453364E-1,3.106686175E-1
1.289347844E1,-3.602708578E-1,-4.427551329E-1,-4.878195375E-2
1.291347844E1,-8.718094230E-1,-1.591391265E-1,-3.125186563E-1
1.293347844E1,-8.160112500E-1,2.242224514E-1,-2.243446261E-1
1.295347844E1,-2.918713987E-1,2.631956637E-1,1.086292937E-1
1.297347844E1,2.971073985E-1,3.858922794E-2,4.598069787E-1
1.299347844E1,5.081351399E-1,-8.344419301E-2,6.347936988E-1
1.301347844E1,4.607669115E-1,2.304881811E-1,6.413212419E-1
1.303348625E1,5.741609335E-1,-1.046150327E-1,6.365565062E-1
1.305547844E1,-1.273043156E-1,-4.464377761E-1,2.288999259E-1
1.307547844E1,-7.238404155E-1,-7.766715437E-2,-9.039060026E-2
1.309547844E1,-7.562336922E-1,-3.242298067E-1,-3.565184176E-1
1.311548000E1,-6.744824648E-1,-5.866051465E-2,-3.755075932E-1
1.313548000E1,-2.037322819E-1,-1.342158206E-2,-1.360484213E-1
1.315748000E1,3.118030727E-1,-1.843242198E-1,2.972295694E-2
1.317748000E1,3.754552305E-1,-1.378810150E-3,2.930407785E-2
1.319748000E1,4.832816720E-1,4.764748737E-2,1.984962970E-1
1.321748000E1,7.186916471E-1,-6.635741889E-2,1.807288378E-1
1.323748000E1,5.119923353E-1,-3.142116368E-1,6.358234584E-2
1.325947844E1,-1.398532391E-1,-4.221602380E-1,-3.554013968E-1
1.327949875E1,-7.128448486E-1,-1.795420200E-1,-7.435451746E-1
1.330147844E1,-7.009067535E-1,1.086991057E-1,-7.389374971E-1
1.332147844E1,-6.515314430E-2,5.434955284E-2,-3.102322817E-1
1.334147844E1,4.582012892E-1,-2.138377428E-1,7.026695460E-2
1.336147844E1,4.511501491E-1,-5.895722285E-2,1.836784482E-1
1.338147844E1,4.853935242E-1,-3.173008561E-2,2.168746144E-1
1.340147844E1,5.617167354E-1,3.586651683E-1,8.669050038E-2
1.342147844E1,1.041141272E0,3.733259439E-2,7.812093943E-2
1.344147844E1,9.022479653E-1,-7.984357476E-1,-1.295906901E-1
1.346147844E1,-3.981095925E-2,-4.550946057E-1,-4.801400900E-1
1.348147844E1,-6.360328794E-1,3.382448107E-2,-6.633821726E-1
1.350147844E1,-5.609488487E-1,3.433760703E-1,-4.724431634E-1
1.352147844E1,-3.251548484E-2,4.655665755E-1,-3.605850041E-2
1.354147844E1,4.981344342E-1,7.754497975E-2,2.431243658E-1
1.356147844E1,5.044699907E-1,2.752384171E-2,2.262819409E-1
1.358147844E1,1.803448647E-1,2.498787940E-1,2.453932911E-2
1.360147844E1,2.850646377E-1,6.161710620E-1,5.951572675E-3
1.362147844E1,8.038811684E-1,2.117084339E-2,2.662499845E-1
1.364147844E1,5.273512602E-1,-7.047464848E-1,1.640085876E-1
1.366147844E1,-4.437325001E-1,-5.743355155E-1,-3.722612858E-1
1.368147844E1,-1.181011915E0,-7.468263805E-2,-8.456993103E-1
1.370147844E1,-9.036267400E-1,1.698554456E-1,-8.010537624E-1
1.372147844E1,-2.414837480E-1,1.921956539E-1,-4.624075294E-1
1.374147844E1,5.073671937E-1,-2.350958437E-2,-5.876523629E-2
1.376147844E1,7.460584641E-1,-2.280098200E-1,1.366767287E-1
1.378147844E1,4.998622835E-1,2.192133479E-2,1.692096740E-1
1.380147844E1,1.186527133E0,4.809429348E-1,4.261570275E-1
1.382147844E1,1.416805863E0,-4.167148173E-1,1.894554943E-1
1.384147844E1,7.534586191E-1,-1.094321489E0,-2.326698452E-1
1.386147844E1,-3.946538568E-1,-5.424483418E-1,-7.618013024E-1
1.388147844E1,-9.628806710E-1,3.047868609E-1,-9.203819036E-1
1.390147844E1,-6.651275158E-1,3.978303373E-1,-6.620557308E-1
1.392147844E1,-1.307251584E-2,3.229731917E-1,-4.137302935E-1
1.394147844E1,6.821270585E-1,9.686577134E-3,-3.709348142E-1
1.396147844E1,6.434854269E-1,1.172512174E-1,-5.594478250E-1
1.398147844E1,5.616469383E-1,9.689369798E-1,-5.657833815E-1
1.400147844E1,1.140991569E0,8.975530267E-1,-1.789311469E-1
1.402147844E1,1.281769753E0,-3.886848316E-2,1.613033265E-1
1.404147844E1,6.599962711E-1,-5.024802685E-1,6.541494280E-2
1.406147844E1,-4.788834453E-1,-1.227839142E-1,-3.477742970E-1
1.408148312E1,-1.403105140E0,4.831245840E-1,-8.516857624E-1
1.410347844E1,-1.162371874E0,6.732607484E-1,-7.687302828E-1
1.412347844E1,-8.213694096E-1,5.341405869E-1,-3.817209601E-1
1.414347844E1,-1.035503820E-1,4.292113781E-1,3.061307371E-1
1.416347844E1,2.934422195E-1,1.875879914E-1,5.677207112E-1
1.418347844E1,1.400626749E-1,4.100301862E-1,3.234094977E-1
1.420347844E1,-1.874483563E-2,4.942597747E-1,-4.974188283E-2
1.422347844E1,-1.401499361E-1,3.398679495E-1,-2.676811516E-1
1.424347844E1,-2.251125723E-1,2.272069603E-1,-1.340936422E-1
1.426347844E1,-4.458967149E-1,3.426604867E-1,5.794493016E-3
1.428347844E1,-2.876477242E-1,3.133040667E-1,2.926044464E-1
1.430347844E1,-2.205921561E-1,2.784323692E-1,2.677684128E-1
1.432347844E1,1.722639985E-2,4.155628979E-1,2.244668007E-1
1.434349250E1,8.431685716E-2,3.380877376E-1,2.295980603E-1
1.436547844E1,4.625122622E-2,3.664318621E-1,1.552121341E-1
1.438547844E1,-4.344124347E-2,1.652652323E-1,1.700125188E-1
1.440547844E1,-8.916886896E-2,2.339264750E-1,2.793923020E-1
1.442547844E1,-3.204075396E-1,2.097885758E-1,1.232202426E-1
1.444547844E1,-2.295456976E-1,2.602809370E-1,1.566258520E-1
1.446547844E1,-2.343977243E-2,1.543569118E-1,1.537286043E-1
1.448547844E1,6.700319052E-2,7.120943163E-3,6.400122494E-2
1.450548000E1,8.258897811E-2,1.076519042E-1,-1.490511186E-2
1.452748000E1,-7.044149190E-2,6.962118298E-2,1.836086437E-2
1.454947844E1,-7.033676840E-3,1.426632106E-1,2.347293347E-1
1.456947844E1,2.530727303E-3,1.719847471E-1,2.671749890E-1
1.458947844E1,8.250171691E-2,8.178612590E-2,2.770361006E-1
1.460948000E1,-7.155850064E-3,2.656565607E-1,2.129650712E-1
1.462948625E1,-2.944021225E-1,1.406560838E-1,1.733286530E-1
1.465147844E1,-4.861789048E-1,2.860071063E-1,2.631956637E-1
1.467147844E1,-4.340459406E-1,2.497740686E-1,3.297625184E-1
1.469147844E1,-1.861219108E-1,2.044304162E-1,4.245164394E-1
1.471147844E1,-2.506292760E-1,1.654397547E-1,4.084419608E-1
1.473147844E1,-3.015928864E-1,-8.552113548E-3,5.364618301E-1
1.475147844E1,-6.487039924E-1,6.180210784E-2,5.378581285E-1
1.477147844E1,-6.821619272E-1,4.607669264E-2,4.605574906E-1
1.479148000E1,-7.321132421E-1,1.645496339E-1,2.594606578E-1
1.481347844E1,-4.403116703E-1,2.526189685E-1,3.667460382E-1
1.483348625E1,2.951351739E-2,-1.093797833E-1,4.632103741E-1
1.485547844E1,-1.561022550E-1,-5.829399824E-2,3.698876202E-1
1.487547844E1,-5.160065889E-1,5.361651629E-2,1.655793786E-1
1.489547844E1,-6.423160434E-1,-4.658283666E-2,2.007128671E-3
1.491547844E1,-5.707924962E-1,-1.204277202E-1,-4.883431271E-2
1.493547844E1,-4.449018836E-1,-2.130174339E-1,-5.438445881E-2
1.495547844E1,-3.324328661E-1,-8.176867664E-2,-5.576327071E-2
1.497547844E1,-1.563815027E-1,-1.639387757E-1,2.680825815E-2
1.499547844E1,-1.511804163E-1,-1.115614474E-1,2.759714723E-1
1.501547844E1,-3.812671602E-1,-3.720692992E-1,2.411346883E-1
1.503547844E1,-7.898836732E-1,-3.263765713E-3,1.937839091E-1
1.505547844E1,-9.075886607E-1,2.039766312E-1,2.373298705E-1
1.507547844E1,-5.063374639E-1,2.768092230E-2,3.632030189E-1
1.509547844E1,-1.830326766E-1,-1.884781122E-1,3.944269419E-1
1.511547844E1,-1.317549050E-1,-3.025702834E-1,1.288227588E-1
1.513547844E1,-1.799783558E-1,-1.861393601E-1,1.996656694E-2
1.515547844E1,-3.623303398E-2,-1.522799730E-1,2.408554312E-3
1.517547844E1,-1.530653704E-2,-1.768018454E-1,-1.737126261E-1
1.519547844E1,5.242969096E-2,-5.366887525E-2,-7.119198143E-2
1.521547844E1,1.008451208E-1,-2.014109939E-1,-1.910262853E-1
1.523547844E1,-6.644468755E-2,-1.120326817E-1,-4.391771853E-1
1.525547844E1,-1.296430528E-1,4.366813600E-2,-4.979947805E-1
1.527547844E1,4.663694203E-1,-3.255737126E-1,-4.024205506E-1
1.529547844E1,5.215392709E-1,-3.286280334E-1,-6.284406781E-1
1.531547844E1,4.496840835E-1,-1.216494516E-1,-3.730466664E-1
1.533547844E1,4.568224847E-1,-3.948632777E-1,-1.022588387E-1
1.535547844E1,3.138101995E-1,-9.681341052E-2,1.745503843E-1
1.537547844E1,8.016297221E-2,-2.780658603E-1,7.908086479E-2
1.539547844E1,-1.830850393E-1,-1.285958588E-1,-9.293878078E-2
1.541547844E1,3.254689872E-1,-9.976302087E-2,2.617470324E-1
1.543547844E1,6.368357539E-1,-1.307949722E-1,4.601036906E-1
1.545547844E1,5.562539101E-1,6.195918657E-3,4.718323052E-1
1.547547844E1,3.618591130E-1,-1.232726052E-1,4.811698198E-1
1.549547844E1,-3.642502055E-2,-7.147122920E-2,2.389181256E-1
1.551547844E1,-2.293013632E-1,1.343030781E-1,1.360135078E-1
1.553547844E1,-2.459692508E-1,2.387261391E-1,1.322959512E-1
1.555547844E1,8.745844662E-2,2.148674875E-1,3.671998084E-1
1.557547844E1,3.996804059E-1,2.967059612E-3,6.086486578E-1
1.559547844E1,2.322509587E-1,-1.085594762E-2,5.374916196E-1
1.561547844E1,7.878416032E-2,-9.424778074E-2,4.646241069E-1
1.563548000E1,-1.889318973E-1,-1.192059889E-1,2.988352776E-1
1.565747844E1,-9.080598950E-1,-1.871865690E-1,-3.497988880E-1
1.567748000E1,-1.302451968E0,5.311036855E-2,-6.966132522E-1
1.569748000E1,-9.329308271E-1,7.766715437E-2,-5.415582061E-1
1.571748000E1,4.665265232E-2,-1.460491568E-1,-6.632251199E-3
1.573748000E1,5.493598580E-1,-2.932153083E-2,1.663822383E-1
1.575947844E1,5.651724935E-1,-2.441191971E-1,9.779080003E-2
1.577949875E1,-2.450442314E-2,-1.434486061E-1,-9.033824503E-2
1.580147844E1,-2.123542130E-1,2.923426405E-2,-2.368411794E-2
1.582147844E1,1.229235381E-1,-3.316125658E-4,1.186823919E-1
1.584147844E1,9.236806035E-1,4.413937777E-2,4.614650607E-1
1.586148000E1,7.897614837E-1,-4.648684561E-1,1.595405489E-1
1.588347844E1,7.509802580E-1,3.903254271E-1,2.478716522E-1
1.590347844E1,7.607890368E-1,-2.961823642E-1,2.526189685E-1
1.592347844E1,-1.284562349E-1,-1.934522986E-1,4.118977115E-3
1.594347844E1,-9.073617458E-1,-8.176867664E-2,-4.907167852E-1
1.596347844E1,-1.229217887E0,8.663814515E-2,-7.200006843E-1
1.598347844E1,-8.336390853E-1,1.980948746E-1,-6.599613428E-1
1.600347844E1,-2.093696892E-1,2.345722541E-2,-3.978129029E-1
1.602347844E1,5.817182362E-2,2.150245570E-2,-1.282467991E-1
1.604347844E1,-7.627088577E-3,-1.745503843E-1,3.106686100E-2
1.606347844E1,-2.714161575E-1,-5.632177368E-2,2.045874894E-1
1.608347844E1,-2.494599074E-1,-2.458121777E-1,2.589195967E-1
1.610347844E1,-5.295154452E-1,-1.486671418E-1,-1.083500385E-1
1.612347844E1,-7.047814131E-1,9.145525284E-3,-5.711938739E-1
1.614347844E1,-5.844933391E-1,1.927890629E-1,-5.199685097E-1
1.616347844E1,7.679448463E-3,7.297221571E-2,-1.040565297E-1
1.618347844E1,3.716329634E-1,-2.178170905E-2,2.421818823E-1
1.620347844E1,5.096012354E-1,2.024581889E-3,1.747074574E-1
1.622347844E1,2.612932324E-1,4.344124347E-2,-1.856855750E-1
1.624347844E1,1.300968379E-1,1.674119830E-1,-3.132342398E-1
1.626347844E1,2.461437881E-1,-7.576474547E-2,-3.155031800E-1
1.628347844E1,1.870120317E-1,2.005383372E-2,-2.636319697E-1
1.630347844E1,1.625599712E-1,-2.570171952E-1,-3.584382534E-1
1.632347844E1,4.374144077E-1,7.899360359E-2,7.026695460E-2
1.634349094E1,9.416574836E-1,-6.606769562E-1,6.133086979E-2
1.636547844E1,5.805663466E-1,-4.217937291E-1,-2.331934422E-1
1.638547844E1,-2.680825815E-2,-3.090105355E-1,-4.843288660E-1
1.640547844E1,-4.121769667E-1,-1.492431015E-1,-5.932374001E-1
1.642547844E1,-3.704810441E-1,5.455899239E-2,-4.829674959E-1
1.644547844E1,-1.099906489E-1,1.699950695E-1,-3.049439192E-1
1.646547844E1,-3.148922920E-1,3.832219541E-1,-5.494296551E-1
1.648547844E1,2.764950693E-1,6.472553611E-1,4.199262336E-2
1.650547844E1,1.922218323E0,-3.782826662E-1,5.900085568E-1
1.652547844E1,2.478681803E0,-4.204323590E-1,7.415031195E-1
1.654547844E1,3.401995897E-1,5.063723922E-1,9.752900153E-2
1.656547844E1,-1.455779076E-1,1.217000604E0,9.128072299E-3
1.658547844E1,1.409876943E0,-2.247809470E-1,1.882686615E-1
1.660547844E1,6.935414672E-1,-9.622000158E-2,-1.970127672E-1
1.662548156E1,3.393269181E-1,2.199812979E-1,-6.414084882E-2
1.664748000E1,2.494075522E-2,-7.323401570E-1,-3.588745892E-1
1.666748000E1,-1.122037292E0,-2.628291249E-1,-9.543111324E-1
1.668947844E1,-1.729830742E0,2.063328177E-1,-1.003319979E0
1.670948000E1,-1.230352402E0,8.885471523E-2,-1.015415072E0
1.673147844E1,-1.313098431E0,-6.450736523E-2,-1.211782098E0
1.675147844E1,2.924997211E-1,7.947531343E-1,3.400774002E-1
1.677147844E1,2.722486734E0,-1.037650585E0,9.182177186E-1
1.679148000E1,1.320777893E0,-3.224321306E-1,2.223200351E-1
1.681148000E1,-6.048787832E-1,1.226704717E0,-3.356093466E-1
1.683347844E1,3.262020350E-1,-4.011464715E-1,-5.710368156E-1
1.685347844E1,-4.598593414E-1,-2.153561711E-1,-7.370874286E-1
1.687347844E1,-1.194625497E0,1.135389090E0,-3.741462231E-1
1.689347844E1,7.454999089E-1,-3.165154457E-1,-1.418778151E-1
1.691347844E1,1.014367938E0,-8.982860446E-1,-7.383092046E-1
1.693347844E1,-7.685208321E-1,1.507004499E0,-6.822317243E-1
1.695348000E1,-1.899965405E-1,1.040565297E-1,-3.253293633E-1
1.697348000E1,-9.920451641E-1,-1.611287892E-1,-7.843160629E-1
1.699547844E1,-7.826754451E-1,1.071300507E0,-2.520604432E-1
1.701547844E1,1.626367569E0,-5.291140079E-1,3.837978840E-2
1.703547844E1,1.610642195E0,-3.429571912E-2,-2.338741207E-3
1.705547844E1,4.449891448E-1,8.895070553E-1,-4.064871743E-2
1.707547844E1,7.743327618E-1,-6.339035928E-2,3.673918173E-2
1.709548000E1,-1.762607992E-1,5.699198246E-1,-5.749288797E-1
1.711548000E1,-1.854237765E-1,5.390973091E-1,-1.001714230E0
1.713548000E1,-2.137155682E-1,8.908160776E-2,-1.185357809E0
1.715748000E1,-3.123092055E-1,8.110021353E-1,-5.787860751E-1
1.717748000E1,3.982841372E-1,1.939758956E-1,-5.562364310E-2
1.719947844E1,4.572413564E-1,2.987130880E-1,8.751080930E-2
1.721947844E1,-6.407103688E-2,5.991715193E-2,-3.915820718E-1
1.723948000E1,-6.581636518E-2,6.108826995E-1,7.422885299E-2
1.726147844E1,1.461538672E0,-3.738320768E-1,8.059406877E-1
1.728147844E1,6.831043959E-1,-4.455825686E-2,1.774999797E-1
1.730148469E1,-9.972636700E-1,1.001941204E0,-6.026447415E-1
1.732347844E1,-2.488664985E-1,-2.009572089E-1,-6.862634420E-2
1.734349406E1,4.278500080E-1,-2.009048462E-1,9.468934536E-1
1.736547844E1,3.346319795E-1,-1.739220619E-1,8.318762779E-1
1.738547844E1,-4.110948443E-1,8.752825856E-2,2.594606578E-1
1.740547844E1,-7.055493593E-1,4.606098533E-1,-5.079955459E-1
1.742548000E1,-1.173733920E-1,-1.340412796E-1,-1.128006279E-1
1.744748000E1,-3.948109150E-1,4.349185824E-1,1.635548025E-1
1.746748000E1,-4.339237511E-1,-1.374621242E-1,2.685188949E-1
1.748948000E1,-6.190857291E-1,6.726498902E-2,3.504272103E-1
1.751148000E1,-7.949625850E-1,1.894554943E-1,1.313011199E-1
1.753347844E1,-4.013384581E-1,1.863662601E-1,5.201430321E-1
1.755347844E1,-1.481435448E-1,1.743583940E-2,3.212802112E-1
1.757347844E1,9.930923581E-2,7.262314856E-2,5.550845265E-1
1.759347844E1,-3.822969198E-1,-6.108652335E-3,1.960702837E-1
1.761347844E1,-8.663465381E-1,3.518583775E-1,3.889466226E-1
1.763347844E1,-5.769534707E-1,5.314527452E-2,3.073350191E-1
1.765347844E1,2.787465453E-1,1.718974710E-1,5.322032571E-1
1.767347844E1,1.290513873E0,-8.386307210E-2,1.094897389E0
1.769347844E1,7.669674754E-1,4.417428374E-2,7.848396301E-1
1.771347844E1,-9.393013120E-1,1.106538717E-2,-2.097187638E-1
1.773348000E1,-2.068180323E0,1.624901593E-2,-1.478590608E0
1.775348000E1,-7.167892456E-1,-1.188918278E-1,-1.181413382E-1
1.777547844E1,7.206289768E-1,-2.371204346E-1,7.497236133E-1
1.779547844E1,-2.992716134E-1,-3.515093029E-1,-6.493322849E-1
1.781547844E1,-7.696378231E-1,5.271068811E-1,-6.865776181E-1
1.783547844E1,3.895225823E-1,-6.914470792E-1,2.113070190E-1
1.785547844E1,-1.297983885E0,-1.319468953E-2,-7.976503968E-1
1.787547844E1,-8.051203936E-2,9.852907062E-1,5.665338635E-1
1.789547844E1,2.644173861E0,-1.822018981E0,1.499901056E0
1.791547844E1,-3.619463742E-1,-9.819222242E-2,-6.391569972E-1
1.793547844E1,-1.519012451E0,1.962710023E0,-9.662666321E-1
1.795547844E1,2.084691048E0,-1.280007005E0,1.169667244E0
1.797547844E1,1.993026376E0,-1.077217221E0,8.019264340E-1
1.799547844E1,-1.572681308E0,6.583032608E-1,-1.161586404E0
1.801547844E1,-2.388186455E0,4.676784277E-1,-1.835178852E0
1.803547844E1,-1.003285050E0,-1.096066739E-2,-1.067146659E0
1.805547844E1,1.403314471E0,-4.652524292E-1,1.354899049E0
1.807547844E1,2.735244989E0,-5.598492622E-1,1.296290994E0
1.809548000E1,-1.527407408E0,5.112767220E-1,-8.570264578E-1
1.811748000E1,-1.859054923E0,1.475239515E0,-1.124445796E0
1.813748000E1,9.839817286E-1,-7.555879354E-1,6.297845840E-1
1.815748000E1,1.491942286E0,-1.677261442E-1,4.623726308E-1
1.817748000E1,2.932851315E-1,7.667406201E-1,2.435432374E-1
1.819948000E1,2.352808475E0,6.285105348E-1,2.129354000E0
1.822147844E1,2.818549633E0,-1.443038225E0,1.282502890E0
1.824147844E1,-2.016867638E0,7.927460074E-1,-1.124672771E0
1.826147844E1,-2.415361166E0,6.271491647E-1,-2.171538591E0
1.828147844E1,-1.453876734E0,-4.061381221E-1,-2.399251699E0
1.830148000E1,3.555410206E-1,3.348588645E-1,-3.064274490E-1
1.832347844E1,5.368109345E-1,-2.278003693E-1,5.230053663E-1
1.834349094E1,-5.959252119E-1,3.126233816E-1,-1.159596741E-1
1.836547844E1,-1.776448488E0,-3.798010945E-1,-1.081894636E0
1.838547844E1,-2.715732343E-2,6.930702180E-2,-6.457717973E-4
1.840547844E1,1.544930577E0,-6.574131846E-1,1.766988754E0
1.842548156E1,2.256256819E0,5.565854907E-2,1.601549029E0
1.844748000E1,7.098253965E-1,9.754295945E-1,1.301544428E0
1.846947844E1,-3.189065456E-1,-1.482133567E-1,3.537782282E-2
1.848947844E1,-2.348689556E0,-1.539554894E-1,-2.649619341E0
1.850947844E1,-1.696652055E0,9.030857086E-1,-1.766028881E0
1.852948000E1,1.893333197E-1,-5.317145586E-1,-1.362822890E0
1.854948156E1,-2.246762365E-1,-1.989326328E-1,-7.397229075E-1
1.857147844E1,4.613603354E-1,6.086661220E-1,1.069712281E0
1.859147844E1,2.334866524E0,-6.101496220E-1,3.274778605E0
1.861147844E1,3.146444559E0,-1.522974372E-1,2.769453526E0
1.863147844E1,-4.552167654E-1,1.459269822E-1,3.926991019E-3
1.865147844E1,-2.734093189E0,4.484972656E-1,-1.111774683E0
1.867147844E1,-1.436545610E0,-2.040289901E-2,-9.970368147E-1
1.869147844E1,-9.202771783E-1,-8.334994316E-1,-1.401394606E0
1.871147844E1,-1.992991447E0,-2.690948546E-1,-1.862545609E0
1.873147844E1,2.931978703E-1,-2.540501356E-1,5.388355255E-1
1.875148000E1,6.129770875E-1,-4.213748276E-1,1.523829460E0
1.877347844E1,2.497234583E0,9.147968888E-1,2.235697031E0
1.879348000E1,8.145102262E-1,-6.528229713E-1,-5.019043088E-1
1.881547844E1,-1.951225758E0,8.261864781E-1,-1.896945953E0
1.883547844E1,-1.423438191E0,5.371774435E-1,-1.125545382E0
1.885548000E1,2.339125156E0,-3.896273077E-1,1.651866913E0
1.887748000E1,1.562942386E0,-1.126941681E0,4.113740847E-2
1.889748000E1,-2.307604551E0,4.571366310E-1,-1.511612177E0
1.891948313E1,-1.303481698E0,4.090528190E-1,-7.711039186E-1
1.894147844E1,-1.151079535E0,-1.374568939E0,-1.120658398E0
1.896147844E1,-2.069192648E0,4.470486343E-1,-1.086135864E0
1.898148625E1,1.319992542E-1,2.486395985E-1,7.346614599E-1
1.900347844E1,3.066613197E0,-1.796380162E0,1.247735858E0
1.902347844E1,6.888989210E-1,1.960353851E-1,-3.248406649E-1
1.904348000E1,-1.648131847E0,1.281246185E0,-9.465967417E-1
1.906547844E1,5.053251982E-1,-3.583509922E-1,7.782248855E-1
1.908547844E1,5.010840297E-2,-1.207017303E0,2.315004766E-1
1.910547844E1,-6.957405806E-1,4.656713009E-1,1.133591309E-1
1.912547844E1,9.693558812E-1,6.309016347E-1,5.217661858E-1
1.914547844E1,1.768280268E0,-6.871361136E-1,3.974987268E-1
1.916547844E1,9.401041269E-1,8.946557343E-2,-4.645542800E-1
1.918547844E1,-2.837120056E0,2.085493952E-1,-2.038596869E0
1.920547844E1,-1.141846776E0,1.465936899E0,-4.366464615E-1
1.922548156E1,1.992328286E0,-1.908081174E0,1.001487374E0
1.924748000E1,2.738770545E-1,-3.109129667E-1,2.415012121E-1
1.926948000E1,1.911152959E0,1.874815226E0,1.723582387E0
1.929147844E1,3.025179148E0,-1.500319958E0,1.910821319E0
1.931147844E1,3.036087513E0,-2.581603765E0,1.863610268E0
1.933147844E1,-7.110297084E-1,7.387455106E-1,-2.268928074E-4
1.935147844E1,-3.388103008E0,9.816604257E-1,-1.833293796E0
1.937147844E1,-3.119182587E0,1.192705631E0,-3.739385366E0
1.939147844E1,-1.590570927E0,1.099278212E0,-2.762629271E0
1.941148000E1,5.633922815E-1,4.749913514E-1,-8.355065584E-1
1.943149562E1,1.383243203E0,9.674359858E-2,8.645139337E-1
1.945347844E1,2.790257931E-1,2.367364615E-1,1.626995921E0
1.947347844E1,-3.960151970E-1,6.806783844E-3,1.638096213E0
1.949347844E1,-7.853457928E-1,-2.141693532E-1,6.766467094E-1
1.951347844E1,-1.175357103E0,-2.699151635E-1,-5.917539001E-1
1.953347844E1,-5.424832106E-1,2.606649101E-1,-4.165751934E-1
1.955347844E1,1.156786799E0,-1.968207806E-1,1.620189101E-1
1.957347844E1,1.002621889E0,-9.224065393E-2,1.332733482E-1
1.959347844E1,9.253735840E-2,-6.492624432E-2,-4.747295380E-2
1.961347844E1,3.404962718E-1,1.363625675E-1,3.281742632E-1
1.963347844E1,2.110452056E-1,-3.296577930E-1,2.019869536E-1
1.965347844E1,-1.154360771E-1,-7.051130291E-3,-8.726646047E-5
1.967347844E1,-8.362919688E-1,1.661029905E-1,-1.006391764E0
1.969347844E1,-4.795292020E-1,5.778086782E-1,-8.412661552E-1
1.971347844E1,4.553214908E-1,-3.949505687E-1,-5.915444493E-1
1.973347844E1,7.208733559E-1,-9.957627058E-1,-7.138396800E-2
1.975347844E1,-5.791177154E-1,-2.162986547E-1,5.680697560E-1
1.977347844E1,9.794438481E-1,-2.107135952E-1,1.081824899E0
1.979347844E1,2.529156506E-1,-3.667635024E-1,8.245284557E-1
1.981347844E1,-1.013285756E0,-3.312984109E-1,-1.156769276E0
1.983347844E1,-1.618792892E0,7.038214803E-1,-2.302927017E0
1.985347844E1,-1.631359309E-1,3.060609400E-1,-2.139773607E0
1.987347844E1,1.211206079E0,-4.886921961E-4,-1.044666767E0
1.989347844E1,1.446685910E0,2.315004766E-1,3.331833705E-2
1.991347844E1,9.131911397E-1,1.114392728E-1,-5.557128415E-2
1.993347844E1,5.436700583E-2,2.514670491E-1,-3.001093566E-1
1.995347844E1,-1.816538721E-1,1.594009250E-1,-6.727371812E-1
1.997347844E1,-6.359979510E-2,-1.247386783E-1,-5.939180851E-1
1.999347844E1,2.036624700E-1,-1.951627135E-1,-3.630808294E-1
2.001347844E1,5.075941086E-1,-3.247185051E-1,-9.602801502E-2
2.003348000E1,-7.586946338E-2,-1.573588848E-1,-3.717376888E-1
2.005547844E1,-1.058891267E-1,7.159340382E-2,-3.991917074E-1
2.007547844E1,2.821324766E-1,-1.233075112E-1,-4.813967049E-1
2.009548000E1,2.250078470E-1,1.136383861E-1,-5.859593749E-1
2.011747844E1,1.939409822E-1,3.761184588E-2,-8.459610939E-1
2.013748000E1,1.085594762E-2,1.194503307E-1,-1.063306928E0
2.015947844E1,-9.834930301E-2,3.969925940E-1,-8.470432162E-1
2.017949719E1,2.408728898E-1,5.358335376E-1,-2.694090307E-1
2.020147844E1,8.200429678E-1,1.645147353E-1,4.371351600E-1
2.022148000E1,1.032746196E0,1.178097278E-1,6.561216116E-1
2.024347844E1,8.107054234E-1,1.112647429E-1,3.687008023E-1
2.026347844E1,1.251052022E-1,2.376789302E-1,9.471901506E-2
2.028347844E1,-3.373372257E-1,1.715484113E-1,-1.251226515E-1
2.030347844E1,-5.355891585E-1,-2.197718620E-1,-3.314554691E-1
2.032347844E1,-8.642346859E-1,-1.226617396E-1,-6.239551902E-1
2.034349094E1,-8.223468065E-1,4.623377323E-2,-6.886022091E-1
2.036547844E1,-4.760734439E-1,2.096315026E-1,-4.978726208E-1
2.038547844E1,-3.407406211E-1,-3.289945796E-2,-3.739368021E-1
2.040548469E1,-1.899616420E-1,1.044579521E-1,-3.949680179E-2
2.042748000E1,3.860842884E-1,1.796118319E-1,3.044726849E-1
2.044748000E1,6.532767415E-1,2.803347707E-1,2.983116806E-1
2.046947844E1,7.683463097E-1,3.292912543E-1,1.673596203E-1
2.048947844E1,8.035495877E-1,5.332329869E-1,6.178465672E-3
2.050947844E1,8.218755126E-1,4.978726208E-1,-1.990198940E-1
2.052947844E1,1.021628499E0,4.132590592E-1,-1.815142483E-1
2.054948000E1,1.226652265E0,1.954419762E-1,-9.786061198E-2
2.057147844E1,8.453676701E-1,-4.310963303E-2,-2.122494876E-1
2.059147844E1,2.042733282E-1,1.167974323E-1,-1.395041645E-1
2.061147844E1,-1.268330812E-1,9.180432186E-3,-4.314453900E-2
2.063147844E1,-1.474454105E-1,6.888814270E-2,1.308473349E-1
2.065148000E1,8.709193207E-3,-1.152091846E-1,-1.294161677E-1
2.067347844E1,1.075297371E-1,-4.386012256E-2,-3.653497696E-1
2.069347844E1,5.866051465E-2,8.360127360E-2,-4.992688894E-1
2.071347844E1,3.124139272E-3,2.863038182E-1,-5.656263232E-1
2.073347844E1,2.429847419E-1,3.878994286E-1,-5.652248859E-1
2.075347844E1,6.087184548E-1,4.184426963E-1,-3.385066092E-1
2.077347844E1,6.253863573E-1,4.316897392E-1,-2.054950595E-1
2.079348000E1,4.697204530E-1,2.927615345E-1,-2.302089334E-1
2.081547844E1,1.272868663E-1,1.885479242E-1,-3.749490678E-1
2.083548000E1,-1.699950695E-1,5.205968022E-1,-5.600237846E-1
2.085748781E1,-7.609635592E-2,3.231128156E-1,-4.587597847E-1
2.087950656E1,1.222603172E-1,2.487792373E-1,-4.059635848E-2
2.090147844E1,3.641105890E-1,-1.133591309E-1,2.668433785E-1
2.092148312E1,1.279675364E-1,6.551966071E-2,2.426007576E-2
2.094347844E1,-2.111150324E-1,1.705884784E-1,-5.238082409E-1
2.096347844E1,-2.723237276E-1,1.474803220E-2,-8.377754688E-1
2.098347844E1,2.122669369E-1,-1.177748144E-1,-7.073644996E-1
2.100347844E1,5.735675693E-1,-1.212654784E-1,-5.832017660E-1
2.102347844E1,5.715255141E-1,-4.740314186E-2,-5.942147970E-1
2.104347844E1,4.909611046E-1,-2.564237714E-1,-5.904623270E-1
2.106347844E1,1.585282534E-1,-1.290496439E-1,-6.998770237E-1
2.108347844E1,-3.471459821E-2,1.303760987E-2,-9.605070353E-1
2.110348000E1,1.022588387E-1,-3.038618155E-2,-9.030507803E-1
2.112547844E1,4.964763522E-1,-1.098335683E-1,-8.230274320E-1
2.114547844E1,3.461511433E-1,-2.286381274E-2,-8.808851242E-1
2.116547844E1,1.109680310E-1,1.501855850E-1,-7.324274182E-1
2.118547844E1,2.657961845E-1,-1.427504718E-1,-4.784645736E-1
2.120548000E1,9.721484035E-2,1.033758521E-1,-4.805763960E-1
2.122748000E1,2.348689586E-1,1.322785020E-1,-1.497143358E-1
2.124748000E1,4.873133898E-1,2.153736353E-2,-5.464625731E-2
2.126947844E1,3.866078854E-1,-2.462659590E-2,-4.693190381E-2
2.128947844E1,1.573937982E-1,1.899790913E-1,-2.513099611E-1
2.130947844E1,8.862782270E-2,4.724606127E-2,-3.009122014E-1
2.132947844E1,2.072229385E-1,1.111600175E-1,-2.490759343E-1
2.134947844E1,2.722190022E-1,2.383770645E-1,-6.034999490E-1
2.136947844E1,2.737723589E-1,3.665191308E-2,-7.155849934E-1
2.138947844E1,1.467472762E-1,2.805965841E-1,-8.365712166E-1
2.140948000E1,3.238981962E-1,1.412320435E-1,-8.249822259E-1
2.143147844E1,1.486845911E-1,2.046398520E-1,-7.294778228E-1
2.145147844E1,3.174579442E-1,1.696460098E-1,-5.410346389E-1
2.147147844E1,5.052553415E-1,3.481931984E-2,-4.433834553E-1
2.149147844E1,5.785417557E-1,1.038470864E-2,-6.162059307E-1
2.151147844E1,5.344721675E-1,1.008974835E-1,-8.427845836E-1
2.153147844E1,4.641528726E-1,1.963320822E-1,-9.704903364E-1
2.155147844E1,2.948384583E-1,2.418851852E-1,-9.764244556E-1
2.157147844E1,2.478716522E-1,9.149015695E-2,-7.598814368E-1
2.159147844E1,2.760587335E-1,6.143558770E-2,-6.115459204E-1
2.161147844E1,6.630505621E-2,1.867153198E-1,-5.930279493E-1
2.163147844E1,2.290570140E-1,5.417501926E-2,-4.941027164E-1
2.165147844E1,2.017949671E-1,1.640783995E-1,-7.880685329E-1
2.167147844E1,2.914176285E-1,2.347467840E-1,-9.606292248E-1
2.169147844E1,2.818532288E-1,3.464303911E-1,-1.056657195E0
2.171147844E1,3.451039493E-1,3.396934271E-1,-9.947329760E-1
2.173147844E1,3.957010508E-1,3.233397007E-1,-9.660048485E-1
2.175147844E1,3.736051917E-1,5.001590252E-1,-9.997245669E-1
2.177147844E1,6.570815444E-1,3.238458335E-1,-8.735896349E-1
2.179148000E1,6.520200968E-1,3.164980114E-1,-7.166147232E-1
2.181148000E1,4.354247451E-1,9.262461960E-2,-7.642447948E-1
2.183347844E1,5.579817668E-2,3.368485486E-3,-6.539574265E-1
2.185347844E1,-1.009498462E-1,1.221730486E-1,-6.890734434E-1
2.187347844E1,-2.190562785E-1,8.215264976E-2,-7.020761371E-1
2.189347844E1,-2.910336554E-1,4.151614606E-1,-6.527357101E-1
2.191347844E1,3.671649098E-1,4.047418386E-2,-3.233397007E-1
2.193347844E1,5.186420679E-1,2.239781022E-1,-2.143787891E-1
2.195347844E1,3.604977429E-1,2.574011683E-1,-1.460316926E-1
2.197347844E1,7.517132908E-2,1.675865203E-1,-1.110029370E-1
2.199347844E1,-1.277581006E-1,2.110975683E-1,-2.699849904E-1
2.201347844E1,-1.705710292E-1,2.278003693E-1,-3.992440701E-1
2.203347844E1,-1.602735817E-1,3.391523659E-1,-2.053030729E-1
2.205347844E1,5.998696759E-2,2.424785942E-1,-4.513421282E-2
2.207347844E1,7.644542307E-2,2.652027905E-1,-6.007423252E-2
2.209348000E1,1.634849906E-1,3.268128932E-1,-1.420174390E-1
2.211547844E1,1.910960972E-1,4.185124934E-1,-2.393020988E-1
2.213547844E1,5.338962004E-2,5.605997443E-1,-3.587698936E-1
2.215547844E1,4.129448906E-2,4.824613631E-1,-3.454704583E-1
2.217547844E1,1.098161191E-1,3.802025318E-1,-3.679328561E-1
2.219547844E1,1.520879865E-1,3.692243993E-1,-3.987204731E-1
2.221547844E1,3.729943037E-1,3.057991266E-1,-4.517261088E-1
2.223547844E1,5.221326947E-1,1.468345523E-1,-4.393168390E-1
2.225547844E1,3.341258168E-1,1.409004331E-1,-4.801051617E-1
2.227547844E1,1.952325255E-1,1.155233458E-1,-4.235041440E-1
2.229547844E1,1.347394139E-1,1.239881888E-1,-2.310815901E-1
2.231547844E1,1.338318437E-1,2.093173414E-1,-3.722787276E-2
2.233547844E1,1.496096253E-1,1.669232845E-1,9.232792072E-3
2.235547844E1,1.370956153E-1,1.652652323E-1,-6.066764519E-2
2.237547844E1,8.616690338E-2,1.815142483E-1,-1.860346496E-1
2.239547844E1,6.935938448E-2,1.411447823E-1,-1.083500385E-1
2.241547844E1,-5.235987919E-5,2.880840600E-1,1.825788915E-1
2.243547844E1,-1.675516069E-1,2.309768796E-1,2.437003255E-1
2.245547844E1,-4.503647685E-1,1.877974272E-1,2.807362080E-1
2.247547844E1,-5.962742567E-1,3.195697963E-1,2.988527119E-1
2.249547844E1,-4.920257628E-1,4.108679593E-1,2.556383610E-1
2.251547844E1,-2.729171216E-1,2.915223539E-1,1.838704348E-1
2.253547844E1,-1.253320873E-1,3.313856721E-1,2.097885683E-2
2.255547844E1,-2.453758419E-1,3.443709016E-1,-1.574985087E-1
2.257547844E1,-2.352529317E-1,2.356194556E-1,-1.511455141E-2
2.259547844E1,-2.822022736E-1,1.420174390E-1,1.197819486E-1
2.261547844E1,-1.897696555E-1,6.373942643E-2,4.155454338E-1
2.263547844E1,-1.278279126E-1,1.168672442E-1,4.722337425E-1
2.265547844E1,-1.216669008E-1,2.129127085E-1,3.716678619E-1
2.267547844E1,-3.562216833E-2,2.025803626E-1,3.294134438E-1
2.269547844E1,-1.778839529E-1,1.560847908E-1,2.538232207E-1
2.271547844E1,-3.084869385E-1,9.025097638E-2,4.621282816E-1
2.273547844E1,-6.193301082E-1,5.534439161E-2,6.569768190E-1
2.275547844E1,-7.615395188E-1,2.910511196E-1,9.774541855E-1
2.277547844E1,-4.906818569E-1,1.638689637E-1,1.209914565E0
2.279547844E1,-2.950828075E-1,2.805267572E-1,1.156053782E0
2.281547844E1,-2.109404951E-1,1.840275228E-1,8.874824643E-1
2.283547844E1,-4.425107837E-1,1.976585388E-1,5.889089704E-1
2.285547844E1,-5.988399386E-1,7.785914093E-2,4.926366210E-1
2.287547844E1,-5.523792505E-1,6.476917118E-2,6.602580547E-1
2.289547844E1,-5.314003825E-1,1.199215725E-1,6.287373900E-1
2.291547844E1,-3.769736588E-1,1.120152324E-1,5.479286909E-1
2.293547844E1,-3.986681104E-1,1.599768847E-1,3.238632977E-1
2.295547844E1,-3.929434121E-1,8.789478242E-2,2.427578419E-1
2.297547844E1,-4.587597847E-1,1.400626749E-1,2.017775178E-1
2.299547844E1,-3.647389114E-1,-7.283259183E-2,2.811725438E-1
2.301547844E1,-4.889016151E-1,-7.333873212E-2,1.882337630E-1
2.303547844E1,-3.063052893E-1,-8.660323918E-2,3.005980551E-1
2.305547844E1,-1.049990058E-1,-2.763205171E-1,3.325550258E-1
2.307547844E1,-3.096563220E-1,-1.592089385E-1,2.472957075E-1
2.309548000E1,-3.680899441E-1,-1.633453667E-1,3.178069890E-1
2.311748469E1,-3.585779071E-1,-6.979571283E-2,3.500083387E-1
2.313947844E1,-1.429599226E-1,-2.825688012E-2,3.396061659E-1
2.315947844E1,-9.723228961E-2,-9.169960022E-2,1.799259931E-1
2.317949875E1,-6.263986975E-2,6.225589290E-2,1.519483626E-1
2.320147844E1,-2.460914198E-3,-2.373647690E-2,6.581636518E-2
2.322148000E1,-1.877974346E-2,-5.230751634E-2,6.995279342E-2
2.324149094E1,-1.415811032E-1,-1.119279638E-1,7.524114102E-2
2.326347844E1,-1.245466918E-1,-1.920560300E-1,2.207666934E-1
2.328347844E1,-1.039692611E-1,-1.912880838E-1,3.743207753E-1
2.330347844E1,-1.139176413E-1,-2.729520500E-1,2.956238687E-1
2.332347844E1,-2.519208193E-1,-1.444259882E-1,1.911135577E-2
2.334349094E1,-1.483704448E-1,-2.270673402E-2,-1.652128696E-1
2.336547844E1,9.180432186E-3,3.107384145E-1,-2.868623137E-1
2.338547844E1,4.852015376E-1,5.523269176E-1,-1.489464045E-1
2.340547844E1,6.902428269E-1,3.719994724E-1,-1.391376406E-1
2.342548000E1,5.573534369E-1,2.840523422E-1,-1.763480604E-1
2.344747844E1,2.679429352E-1,8.375835419E-2,-1.768367589E-1
2.346747844E1,3.780383244E-2,-1.789835095E-1,-1.912880838E-1
2.348747844E1,2.679080330E-2,-2.812598050E-1,-4.398229718E-2
2.350747844E1,6.466444582E-2,-4.608367383E-1,-2.116909772E-1
2.352748000E1,-6.990043819E-2,-3.146130443E-1,-3.860493898E-1
2.354947844E1,3.668681905E-2,-4.908040464E-1,-4.177096486E-1
2.356947844E1,-2.736676298E-2,-4.881162345E-1,-4.886049330E-1
2.358947844E1,-1.370083392E-1,-2.728996873E-1,-6.051754355E-1
2.360947844E1,5.982988700E-2,-3.135134876E-1,-4.838925302E-1
2.362948000E1,1.007404029E-1,-1.745329201E-1,-5.316621661E-1
2.365147844E1,3.484724462E-1,-1.763131618E-1,-3.278600872E-1
2.367147844E1,2.858325839E-1,-1.709899008E-1,-2.638937831E-1
2.369147844E1,2.671749890E-1,-2.278352827E-1,-1.500284970E-1
2.371147844E1,8.974482864E-2,-3.093596101E-1,-3.460638821E-1
2.373147844E1,2.693043090E-2,4.483750835E-2,-4.932475090E-1
2.375147844E1,2.263517529E-1,-6.684611086E-3,-5.641078949E-1
2.377147844E1,4.083721340E-1,9.985028952E-2,-5.154306293E-1
2.379147844E1,6.359979510E-1,-5.091125518E-2,-3.776892424E-1
2.381148000E1,4.619886577E-1,1.408306211E-1,-2.746799290E-1
2.383150813E1,2.891312540E-1,1.062207371E-1,-3.481582701E-1
2.385347844E1,3.385764062E-1,3.804817796E-2,-1.846034676E-1
2.387347844E1,3.614053130E-1,-1.211083978E-1,-2.819579542E-1
2.389347844E1,1.798910797E-1,2.049540132E-1,-4.153185487E-1
2.391347844E1,2.641381323E-1,1.161342114E-1,-4.868421257E-1
2.393347844E1,2.172411382E-1,1.262571216E-1,-4.791801572E-1
2.395347844E1,3.036000133E-1,1.448274255E-1,-2.787814438E-1
2.397347844E1,1.737824380E-1,1.011418328E-1,-2.423040569E-1
2.399347844E1,2.123367488E-1,2.369808108E-1,-1.842544079E-1
2.401347844E1,4.347091615E-1,2.113768309E-1,-1.341634542E-1
2.403347844E1,5.921902061E-1,2.005732358E-1,-5.735151842E-2
2.405347844E1,4.631056488E-1,1.825963408E-1,-1.281769872E-1
2.407347844E1,4.062428474E-1,1.617396623E-1,-1.258207858E-1
2.409347844E1,2.740166783E-1,1.063952744E-1,-7.450810820E-2
2.411347844E1,8.529423922E-2,1.286656708E-1,-7.609635592E-2
2.413347844E1,7.323401421E-2,9.389871731E-3,-1.427504718E-1
2.415347844E1,-1.080358773E-2,1.403593719E-1,-2.234545052E-1
2.417347844E1,-1.060462072E-1,4.828104377E-1,-7.403686643E-2
2.419347844E1,5.963790044E-2,4.138001204E-1,2.600016892E-1
2.421347844E1,1.715658605E-1,3.833092153E-1,4.807858467E-1
2.423347844E1,1.825788915E-1,3.509508073E-1,4.768588543E-1
2.425347844E1,1.687384248E-1,2.157576084E-1,4.183554053E-1
2.427347844E1,1.157153305E-2,1.598896086E-1,2.753256857E-1
2.429347844E1,-1.626472324E-1,2.009222955E-1,1.991071552E-1
2.431347844E1,-3.430793583E-1,2.865830623E-2,6.579891592E-2
2.433347844E1,-6.084741354E-1,8.936085552E-2,-2.206096239E-2
2.435347844E1,-5.534613729E-1,1.404466480E-1,1.712516993E-1
2.437347844E1,-3.028320670E-1,2.672099136E-2,3.889117241E-1
2.439347844E1,-2.858151197E-1,2.130348831E-1,3.848276436E-1
2.441347844E1,-1.247561350E-1,1.599245220E-1,5.041208863E-1
2.443348469E1,-5.607742816E-2,1.905026883E-1,4.822868407E-1
2.445547844E1,1.181064323E-1,1.476548612E-1,5.965535641E-1
2.447547844E1,1.996831149E-1,2.157750577E-1,7.240324020E-1
2.449547844E1,2.169793248E-1,1.019097716E-1,7.336316705E-1
2.451547844E1,-4.951499030E-2,1.090830788E-1,6.403961778E-1
2.453547844E1,-4.225442111E-1,2.633178234E-1,5.456248522E-1
2.455547844E1,-4.647113681E-1,1.028173491E-1,6.330308914E-1
2.457547844E1,-5.188514590E-1,6.243042648E-2,5.867273211E-1
2.459547844E1,-6.293482780E-1,6.176720187E-2,4.993736148E-1
2.461547844E1,-7.521321774E-1,-5.658357590E-2,3.180164397E-1
2.463547844E1,-7.898836732E-1,1.069537774E-1,1.637118906E-1
2.465547844E1,-5.713335276E-1,9.611528367E-2,2.050412744E-1
2.467547844E1,-1.842369586E-1,1.453161091E-1,4.758640230E-1
2.469547844E1,4.763003439E-2,-8.208283782E-2,5.842664242E-1
2.471547844E1,8.974482864E-2,-5.026548356E-2,7.230550051E-1
2.473547844E1,-9.196139872E-2,-8.274605870E-2,4.836656451E-1
2.475547844E1,-4.086339474E-1,-3.839724232E-3,1.384046078E-1
2.477547844E1,-3.161838353E-1,-2.889043391E-1,1.748819947E-1
2.479547844E1,-5.113989115E-1,-1.777966917E-1,2.065073550E-1
2.481547844E1,-5.359557271E-1,-2.782229483E-1,4.499633312E-1
2.483548000E1,-7.534237504E-1,-2.814517915E-1,5.192528963E-1
2.485548000E1,-4.298920333E-1,-5.477017760E-1,9.096830487E-1
2.487747844E1,-2.485348880E-1,-5.231100917E-1,6.393315792E-1
2.489748000E1,-5.615946054E-1,2.614503168E-2,-8.859290928E-2
2.491748000E1,-8.052774668E-1,-1.241627261E-1,-9.497034550E-1
2.493947844E1,-8.029386997E-1,-7.417649496E-3,-1.134149909E0
2.495947844E1,-1.492256522E-1,-4.694935679E-2,-6.365565062E-1
2.497949875E1,-5.244714394E-2,-6.681643724E-1,-4.957433045E-1
2.500147844E1,-3.775670826E-1,3.965387866E-2,-3.014008999E-1
2.502147844E1,-4.432612658E-1,-3.852988780E-1,-4.989896342E-2
2.504147844E1,1.358215213E-1,-2.908067703E-1,-3.458369970E-1
2.506147844E1,6.012484431E-1,-1.764702350E-1,-5.676334500E-1
2.508148000E1,6.324723959E-1,-7.272786647E-2,-3.591713011E-1
2.510347844E1,4.570319057E-1,-1.053655297E-1,-2.082701325E-1
2.512347844E1,4.158246815E-1,-6.150540337E-2,-5.052728057E-1
2.514348000E1,2.794272006E-1,5.839871615E-2,-7.400544882E-1
2.516547844E1,3.514569402E-1,8.009316027E-2,-5.104389787E-1
2.518547844E1,5.523443222E-1,-1.415112913E-1,-2.650631666E-1
2.520547844E1,4.538379610E-1,3.972369432E-2,-3.355570138E-1
2.522547844E1,4.906469584E-1,2.316051908E-2,-3.951948881E-1
2.524547844E1,5.305975676E-1,-2.024407387E-1,-4.629660249E-1
2.526547844E1,4.904898703E-1,-6.665412337E-2,-4.494571984E-1
2.528547844E1,4.932475090E-1,-1.110727564E-1,-6.331356168E-1
2.530547844E1,3.539353311E-1,-6.003932655E-2,-7.992560863E-1
2.532547844E1,5.145230517E-2,1.740616858E-1,-7.516609430E-1
2.534547844E1,2.134188563E-1,1.450368576E-2,-6.221575141E-1
2.536547844E1,2.615201473E-1,1.591914743E-1,-5.265134573E-1
2.538547844E1,3.624350727E-1,1.894205809E-1,-2.452362180E-1
2.540547844E1,6.330308914E-1,-2.468419224E-1,1.939060725E-2
2.542547844E1,8.793841600E-1,-4.040437192E-2,2.709099948E-1
2.544547844E1,7.652395964E-1,2.687807083E-1,3.723834455E-1
2.546547844E1,4.967032373E-1,3.455577493E-1,3.008598685E-1
2.548547844E1,1.226442829E-1,-6.738716364E-2,-1.103048120E-2
2.550547844E1,-6.294180751E-1,1.145459563E-1,-9.937904775E-2
2.552547844E1,-8.983733058E-1,2.808758318E-1,1.772207320E-1
2.554547844E1,-5.964313745E-1,-3.920009360E-2,3.703239560E-1
2.556547844E1,-4.753404260E-1,3.664318621E-1,2.935120165E-1
2.558547844E1,-2.307325304E-1,2.388657629E-1,9.930923581E-2
2.560547844E1,6.492624432E-2,1.931905001E-1,1.002517119E-1
2.562547844E1,8.314748853E-2,1.681799293E-1,2.311688513E-1
2.564547844E1,-3.508111835E-2,2.120575123E-2,3.645469248E-1
2.566547844E1,-2.510481477E-1,-1.452812105E-1,2.963219881E-1
2.568547844E1,-4.250574708E-1,1.785646379E-1,2.623055279E-1
2.570547844E1,-1.918291301E-1,-1.250877529E-1,1.258207858E-1
2.572547844E1,-1.249481216E-1,1.738173366E-1,2.455678210E-2
2.574547844E1,1.922305673E-1,-2.415535599E-2,1.728574038E-1
2.576547844E1,9.798278660E-2,-5.626941472E-2,2.298598588E-1
2.578547844E1,-7.581710070E-2,7.649777830E-2,4.067664444E-1
2.580547844E1,-2.141693532E-1,-3.616322204E-2,4.336445034E-1
2.582547844E1,-2.236115783E-1,8.157669008E-2,5.936039090E-1
2.584547844E1,-1.093099713E-1,1.104095280E-1,6.246708035E-1
2.586547844E1,-5.749114603E-2,2.805791199E-1,6.655114889E-1
2.588548000E1,-2.174854726E-1,3.090977967E-1,2.842617631E-1
2.590747844E1,-5.001764297E-1,3.599217832E-1,-7.141887397E-2
2.592747844E1,-4.549898803E-1,4.349360615E-2,-8.339183033E-2
2.594747844E1,-3.150668442E-1,-5.808455870E-2,1.569923609E-1
2.596747844E1,-5.792747810E-2,6.908012927E-2,3.255213499E-1
2.598747844E1,4.422140718E-1,-1.616524011E-1,5.694136620E-1
2.600747844E1,5.940402746E-1,-3.243170679E-1,4.478863776E-1
2.602748000E1,4.964414537E-1,-2.248333097E-1,3.092723489E-1
2.604947844E1,2.399304062E-1,-3.577401340E-1,-6.998769939E-2
2.606947844E1,-1.836086437E-2,-2.223723978E-1,-3.931703269E-1
2.608947844E1,-1.186649352E-1,-7.325147092E-2,-5.915269852E-1
2.610947844E1,5.951572582E-2,1.694714651E-2,-4.494571984E-1
2.612947844E1,3.425732255E-1,-2.382025421E-1,-1.907819360E-1
2.614947844E1,5.108753443E-1,-2.434559762E-1,7.478735596E-2
2.616947844E1,3.741287887E-1,-3.160442114E-1,3.185226023E-2
2.618947844E1,2.436479554E-2,-7.122688740E-2,-1.550899595E-1
2.620947844E1,-2.082177848E-1,-2.666863054E-2,-4.223871231E-1
2.622947844E1,-1.014559865E-1,-2.152339965E-1,-3.019768596E-1
2.624947844E1,-5.930628628E-2,-2.466848344E-1,-4.461061582E-2
2.626948000E1,-7.209955156E-2,-2.203303576E-1,2.306278050E-1
2.629147844E1,-1.029744279E-2,-1.934871972E-1,4.039913714E-1
2.631147844E1,-1.221730486E-1,-3.902556375E-2,8.288568258E-2
2.633147844E1,-2.972470224E-1,1.909390278E-2,-2.664245069E-1
2.635147844E1,-4.609588981E-1,4.792674258E-2,-3.540051281E-1
2.637147844E1,-3.602010608E-1,1.258556992E-1,-5.736897141E-2
2.639147844E1,-4.262443185E-1,-6.290166825E-2,3.675663471E-2
2.641148000E1,-8.741132617E-1,3.023084700E-1,-1.194503307E-1
2.643347844E1,-5.783148408E-1,1.632231921E-1,-1.089259982E-1
2.645347844E1,-7.291985303E-2,6.832963973E-2,2.896373868E-1
2.647347844E1,5.190958381E-1,-2.333330661E-1,6.204994321E-1
2.649347844E1,7.497061491E-1,-3.398679495E-1,6.944665313E-1
2.651347844E1,6.632600427E-1,-3.900287151E-1,4.984485805E-1
2.653347844E1,-1.553343027E-3,-2.122320384E-1,-8.306021988E-2
2.655347844E1,-6.398726106E-1,1.396612525E-1,-3.754377663E-1
2.657347844E1,-7.341378331E-1,2.972295694E-2,-2.525840402E-1
2.659347844E1,-3.862588108E-1,-1.712516993E-1,6.150540337E-2
2.661348000E1,-3.018895984E-1,-1.043357849E-1,3.508111835E-2
2.663549250E1,-1.115788966E-1,-7.386233658E-2,-1.494525373E-1
2.665747844E1,1.092576087E-1,1.195899621E-1,-3.477568626E-1
2.667748000E1,3.082425892E-1,-9.409070015E-2,-1.853365153E-1
2.669947844E1,2.192482650E-1,3.607595712E-2,-1.329940930E-2
2.671947844E1,6.684610993E-2,-6.049311161E-2,1.858775690E-2
2.673947844E1,1.112821922E-1,-3.211405873E-2,6.270968169E-2
2.675947844E1,1.617571115E-1,-2.970725000E-1,-1.205848008E-1
2.677949875E1,-2.180963457E-1,-4.218460619E-2,-3.470063508E-1
2.680147844E1,-4.287575781E-1,1.727875904E-3,-5.614724159E-1
2.682147844E1,-1.453161091E-1,-4.611159861E-2,-3.555061221E-1
2.684147844E1,1.250179410E-1,1.025555432E-1,-1.102000922E-1
2.686147844E1,4.876100719E-1,1.314232964E-2,3.570943698E-2
2.688147844E1,3.711268008E-1,-2.157226950E-2,-7.426375896E-2
2.690147844E1,1.384046078E-1,9.927432984E-2,-1.128878966E-1
2.692147844E1,3.171263263E-2,-2.080257982E-1,-1.493827254E-1
2.694147844E1,-3.536560535E-1,2.121796757E-1,-1.730144918E-1
2.696147844E1,-2.752384171E-2,-6.421066076E-2,4.485496134E-2
2.698147844E1,2.183406949E-1,-2.582214475E-1,1.511106044E-1
2.700147844E1,3.090803623E-1,-2.212553918E-1,1.877974272E-1
2.702148000E1,2.840697765E-1,-3.718598485E-1,1.476548612E-1
2.704347844E1,-5.555383116E-2,-1.708677262E-1,7.459536940E-2
2.706347844E1,-3.765373230E-1,1.304633617E-1,-9.937904775E-2
2.708347844E1,-1.285085976E-1,1.874309033E-1,-1.112821922E-1
2.710347844E1,2.474178672E-1,4.630358517E-2,1.033234876E-2
2.712347844E1,2.161590308E-1,1.079835221E-1,8.002334833E-2
2.714347844E1,-2.993239649E-2,2.215870023E-1,8.841837943E-2
2.716347844E1,-1.378286481E-1,1.404466480E-1,1.409353316E-1
2.718347844E1,-1.387187690E-1,7.103490084E-2,2.554638386E-1
2.720347844E1,-1.245641485E-1,1.149822921E-1,1.581093818E-1
2.722347844E1,3.405137360E-2,-2.202605456E-2,1.623505205E-1
2.724347844E1,-1.801354289E-1,-2.155481651E-2,2.862340072E-3
2.726347844E1,-1.079311594E-1,-2.813470736E-2,-1.626646891E-2
2.728347844E1,-1.657539159E-1,-1.559800804E-1,-2.581341937E-2
2.730347844E1,-2.501056790E-1,1.593485624E-1,-2.216568217E-3
2.732347844E1,-2.588497698E-1,-1.378810150E-3,-9.332275391E-2
2.734349094E1,-3.844087720E-1,3.101450205E-1,-1.703266799E-1
2.736547844E1,-2.232625186E-1,1.772730947E-1,-6.290166825E-2
2.738547844E1,-4.045673087E-2,-4.363323096E-4,6.171484292E-2
2.740547844E1,4.993386939E-2,3.466223925E-2,7.951720059E-2
2.742547844E1,-1.250004768E-1,5.996951461E-2,-4.684463516E-2
2.744547844E1,-2.590243220E-1,2.642079294E-1,-3.776892647E-2
2.746547844E1,1.785471849E-2,4.848524556E-2,1.559800804E-1
2.748547844E1,1.443038285E-1,5.635667965E-2,3.054849803E-1
2.750547844E1,4.102221727E-1,-2.400874943E-1,4.224918485E-1
2.752547844E1,1.537635028E-1,-2.503325641E-1,1.096764877E-1
2.754547844E1,-6.089453772E-2,6.862634420E-2,-2.239082903E-1
2.756547844E1,-2.307325229E-2,2.335250564E-2,-2.004336119E-1
2.758547844E1,-7.545058429E-2,6.291911751E-2,6.410594285E-2
2.760547844E1,-1.814444214E-1,2.050761878E-2,2.259852290E-1
2.762548625E1,-2.077290863E-1,-7.126179338E-2,2.951002717E-1
2.764748000E1,-2.258106917E-1,-1.647590846E-2,4.869468510E-3
2.766748625E1,-3.523470759E-1,1.077566296E-1,-2.766695917E-1
2.768947844E1,-1.546536237E-1,1.186125726E-1,-1.659284532E-1
2.770948000E1,1.787915230E-1,-1.967335194E-1,7.927285135E-2
2.773148000E1,4.345869645E-3,-7.438593358E-2,1.965938807E-1
2.775347844E1,-7.967428118E-2,-4.012512043E-2,9.065239877E-2
2.777347844E1,-1.117010694E-2,-4.258603230E-2,-2.284635976E-2
2.779347844E1,-9.320057929E-3,9.105382860E-2,-1.267632693E-1
2.781347844E1,1.905201375E-1,-7.066838443E-2,-1.620887220E-1
2.783348000E1,-5.044001620E-3,2.277654596E-2,-2.092998773E-1
2.785547844E1,4.183554277E-2,-7.269296050E-2,-1.426806599E-1
2.787547844E1,4.445353523E-2,1.253495514E-1,-1.502728462E-2
2.789547844E1,4.124038517E-1,-1.822123677E-1,1.654572189E-1
2.791547844E1,2.271022350E-1,-1.086118370E-1,-2.682571113E-2
2.793547844E1,1.492256485E-2,9.681341052E-2,-1.703790426E-1
2.795547844E1,1.120675877E-1,5.133013427E-2,-2.298424095E-1
2.797547844E1,2.470688075E-1,1.755452156E-1,-8.307766914E-2
2.799547844E1,4.323529601E-1,-1.905899495E-2,2.200860158E-2
2.801547844E1,3.341781795E-1,1.757372022E-1,1.973967440E-2
2.803547844E1,3.322932422E-1,5.340707488E-3,-2.047271281E-2
2.805547844E1,3.080680668E-1,4.768239334E-2,-1.102175415E-1
2.807547844E1,1.527512223E-1,1.299572140E-1,-2.391973734E-1
2.809548000E1,6.398376822E-2,5.803219602E-2,-2.931629419E-1
2.811747844E1,6.934192777E-2,1.384918690E-1,-3.206518888E-1
2.813747844E1,1.644100100E-1,1.327497363E-1,-1.632755548E-1
2.815748000E1,2.617644668E-1,2.054252476E-2,-9.494590759E-2
2.817748000E1,2.593908310E-1,1.498714238E-1,1.528908405E-2
2.819748000E1,2.981196940E-1,3.141592816E-2,6.997025013E-2
2.821748000E1,2.860943675E-1,1.059065759E-1,-7.538077235E-2
2.823748000E1,4.230503440E-1,6.213372201E-2,-2.221280485E-1
2.825748000E1,2.746275663E-1,1.455953717E-1,-3.324677646E-1
2.827949875E1,4.590216093E-3,2.886425555E-1,-2.876826227E-1
2.830147844E1,4.003785178E-2,1.160643995E-2,-5.825908855E-2
2.832147844E1,-5.496041849E-2,3.211405827E-3,8.840092272E-2
2.834147844E1,-4.153883457E-2,3.232349828E-2,3.254166245E-1
2.836147844E1,2.036624700E-1,-8.625417203E-2,5.938482881E-1
2.838147844E1,5.026373863E-1,-1.673072577E-1,8.465545177E-1
2.840147844E1,5.498834252E-1,-7.618362457E-2,8.496263027E-1
2.842147844E1,1.651081443E-1,-9.047786891E-2,5.125508308E-1
2.844148000E1,-3.790506124E-1,1.555088349E-2,2.625847757E-1
2.846347844E1,-8.157494068E-1,-2.152165473E-1,3.682295680E-1
2.848347844E1,-1.141201019E0,-1.862789840E-1,2.704562247E-1
2.850347844E1,-1.067251325E0,-1.973967440E-2,3.155380785E-1
2.852347844E1,-6.473251581E-1,-1.251750141E-1,4.400498569E-1
2.854347844E1,-3.675314188E-1,2.417281084E-2,4.172558486E-1
2.856347844E1,-1.993340552E-1,-5.590289459E-2,3.299195766E-1
2.858347844E1,-9.143780172E-2,3.288200125E-2,4.093146026E-1
2.860347844E1,8.899433911E-2,-9.183922410E-2,3.782303035E-1
2.862347844E1,-7.230898738E-2,-7.564257085E-2,6.869615614E-2
2.864347844E1,-2.049016580E-2,-5.808455870E-2,2.378185689E-1
2.866347844E1,1.880592257E-1,-2.736327052E-1,3.815988004E-1
2.868347844E1,2.073625624E-1,1.705186628E-2,4.368210137E-1
2.870347844E1,4.134161472E-1,-1.647416204E-1,6.812543869E-1
2.872347844E1,3.876201808E-1,-3.370928764E-1,4.812570810E-1
2.874347844E1,1.409004331E-1,-3.963642567E-2,2.192482650E-1
2.876347844E1,1.802576035E-1,1.523846984E-1,2.595304549E-1
2.878347844E1,4.394389987E-1,2.971772254E-1,6.772924662E-1
2.880347844E1,5.726251006E-1,3.526088595E-1,8.991237879E-1
2.882347844E1,4.811523557E-1,4.088608325E-1,8.817577958E-1
2.884349250E1,1.692969352E-1,7.025125027E-1,8.076511025E-1
2.886547844E1,-5.971818566E-1,1.663682699E0,8.400618434E-1
2.888547844E1,-1.237630367E0,1.923038721E0,1.046097994E0
2.890547844E1,-1.523201227E0,1.449111938E0,1.092139721E0
2.892547844E1,-1.118023038E0,1.539258242E0,6.556503773E-1
2.894547844E1,-6.062924862E-1,1.296727300E0,1.660331786E-1
2.896547844E1,-1.268505305E-1,1.074826121E0,-3.012787402E-1
2.898547844E1,8.201127648E-1,-3.668681979E-1,-7.115532756E-1
2.900547844E1,7.290589213E-1,-7.038738132E-1,-8.747764826E-1
2.902547844E1,1.032083035E0,-1.183246017E0,-8.133409023E-1
2.904547844E1,8.573755622E-1,-3.638662398E-1,-7.089003921E-1
2.906547844E1,7.044323087E-1,-3.842516840E-1,-3.984062970E-1
2.908547844E1,8.057137728E-1,-1.013896704E0,-2.671051919E-1
2.910547844E1,5.280318856E-1,-7.536331415E-1,-5.291664004E-1
2.912547844E1,5.794842243E-1,-1.064912677E0,-6.627189517E-1
2.914547844E1,7.430390120E-1,-1.116871119E0,-8.247204423E-1
2.916547844E1,8.156272769E-1,-1.073010921E0,-8.944637775E-1
2.918547844E1,8.685281873E-1,-8.653691411E-1,-7.265282273E-1
2.920547844E1,7.079753280E-1,-7.593404055E-1,-6.226462126E-1
2.922547844E1,2.556209266E-1,-5.799554586E-1,-3.445628881E-1
2.924547844E1,1.424188614E-1,-2.045874894E-1,-2.053030729E-1
2.926547844E1,1.220334172E-1,-2.175029367E-1,-8.890707046E-2
2.928547844E1,-7.860963047E-2,-3.455751808E-3,-1.900838017E-1
2.930547844E1,-5.656437278E-1,3.134611249E-2,-6.552489400E-1
2.932547844E1,-8.173726201E-1,-5.822418258E-2,-7.423059940E-1
2.934547844E1,-6.795265079E-1,2.545039058E-1,-3.535164297E-1
2.936547844E1,-4.006927013E-1,5.136329532E-1,-1.261873096E-1
2.938547844E1,1.078438908E-1,4.191931784E-1,2.130523473E-1
2.940547844E1,1.153139025E-1,1.674992442E-1,2.249729447E-2
2.942547844E1,-3.487342298E-1,4.682194889E-1,-2.502802014E-1
2.944547844E1,-4.957084060E-1,6.935065985E-1,-3.650181592E-1
2.946547844E1,-2.653947771E-1,4.701218903E-1,-1.960528344E-1
2.948547844E1,-3.134611249E-2,2.690424919E-1,3.281218931E-2
2.950547844E1,2.276258469E-1,1.156106070E-1,4.433136284E-1
2.952547844E1,3.254166245E-1,1.710422686E-3,4.852713346E-1
2.954547844E1,4.983787537E-1,-1.019795910E-1,5.956285000E-1
2.956547844E1,5.372647047E-1,-7.257079333E-2,8.304101825E-1
2.958547844E1,5.405808091E-1,4.113740847E-2,1.085926414E0
2.960547844E1,6.568372250E-1,-3.741985932E-2,1.189790964E0
2.962547844E1,3.744429350E-1,-5.120795965E-2,8.172155023E-1
2.964547844E1,-1.359262466E-1,3.138625622E-1,3.126059175E-1
2.966547844E1,-4.826882482E-1,6.058910489E-1,-1.333606094E-1
2.968547844E1,-3.351904750E-1,4.643448591E-1,-1.841147840E-1
2.970547844E1,-3.723310828E-1,5.673716068E-1,-1.659633517E-1
2.972547844E1,-1.480039209E-2,1.237612963E-1,2.105914205E-1
2.974547844E1,1.193107069E-1,4.323180392E-2,4.437325001E-1
2.976547844E1,-1.134114936E-1,3.643200397E-1,-3.436553106E-2
2.978547844E1,-3.946712911E-1,4.053876102E-1,-4.750960767E-1
2.980547844E1,-3.784920871E-1,3.246312439E-1,-2.761285305E-1
2.982547844E1,-1.619665474E-1,2.738945186E-1,2.835985422E-1
2.984547844E1,-5.035274848E-2,2.027897984E-1,4.928635359E-1
2.986547844E1,-1.422443390E-1,1.271821409E-1,2.716605067E-1
2.988547844E1,-4.780456722E-1,2.868972123E-1,-2.867750525E-1
2.990547844E1,-2.931280434E-1,7.063347101E-2,1.985661089E-1
2.992547844E1,-3.770260215E-1,5.642649531E-2,4.717625082E-1
2.994547844E1,-5.063898563E-1,3.797487319E-1,2.842792273E-1
2.996547844E1,-3.639535010E-1,1.407957077E-1,4.666486681E-1
2.998547844E1,-4.625820518E-1,2.433338016E-1,5.828875899E-1
3.000548000E1,-4.138175547E-1,2.212204784E-1,5.341231227E-1
3.002748000E1,-3.174753785E-1,-1.888446324E-2,2.561096251E-1
3.004947844E1,-3.911632001E-1,-1.330988109E-1,-1.943598688E-1
3.006947844E1,-5.328490138E-1,6.126105785E-2,-4.948706627E-1
3.008947844E1,-6.924419403E-1,-3.986855447E-1,-7.017270923E-1
3.010947844E1,-4.189139307E-1,-1.039169073E0,-5.159193277E-1
3.012948000E1,-1.945867538E-1,-6.124534607E-1,-4.803669751E-1
3.015147844E1,-1.986184716E-2,-4.426678419E-1,-3.878645301E-1
3.017147844E1,7.766715251E-3,-4.559149146E-1,-2.133490443E-1
3.019147844E1,-7.578219771E-1,-2.098933011E-1,-3.321361542E-1
3.021147844E1,-3.929957747E-1,-2.027025372E-1,2.124938369E-1
3.023149094E1,2.603856623E-1,-5.145056248E-1,2.525666058E-1
3.025347844E1,4.455476403E-1,-2.580818236E-1,1.667312980E-1
3.027347844E1,4.743979275E-1,-5.465673208E-1,2.004859746E-1
3.029347844E1,-2.392322868E-1,-6.010390520E-1,-1.025031880E-1
3.031347844E1,-8.141611814E-1,-1.328370124E-1,-1.690176874E-1
3.033347844E1,-7.701439857E-1,1.637118906E-1,-2.502104044E-1
3.035347844E1,-3.493276536E-1,2.293711752E-1,-1.783552021E-1
3.037347844E1,3.671649098E-1,-3.057991266E-1,-1.832944751E-1
3.039347844E1,7.261093259E-1,-3.669903874E-1,-1.484053433E-1
3.041347844E1,2.870891988E-1,1.226966456E-2,-3.999421895E-1
3.043347844E1,8.405505866E-2,8.391542733E-2,-6.876946092E-1
3.045347844E1,3.974463642E-1,-8.480554819E-2,-4.924097359E-1
3.047347844E1,6.554234624E-1,-1.812175363E-1,-4.208861589E-1
3.049347844E1,7.007671595E-1,-5.492551252E-2,-3.689102530E-1
3.051347844E1,8.996648788E-1,-2.818532288E-1,1.520181727E-2
3.053347844E1,7.652047276E-1,-3.225368261E-2,2.350085825E-1
3.055347844E1,4.654269516E-1,7.394959778E-2,1.784424633E-1
3.057347844E1,1.689478755E-1,3.046297729E-1,3.504795730E-1
3.059347844E1,-1.888795346E-1,4.437848628E-1,-3.028146178E-2
3.061347844E1,2.583261728E-1,5.534439161E-2,-1.426457614E-1
3.063347844E1,4.331907332E-1,-3.717551380E-2,-7.773696631E-2
3.065347844E1,2.944195867E-1,1.421047002E-1,9.133307636E-2
3.067347844E1,5.256931856E-2,-8.290314116E-3,7.272786647E-2
3.069347844E1,-3.275808394E-1,1.596103609E-1,2.824466228E-1
3.071347844E1,-6.631901860E-1,3.274063170E-1,2.481334656E-1
3.073347844E1,-4.659330845E-1,2.503500283E-1,5.049062967E-1
3.075347844E1,-2.958158553E-1,-3.454006463E-2,6.486865282E-1
3.077347844E1,-5.492551327E-1,2.098060250E-1,3.051882684E-1
3.079347844E1,-5.486791730E-1,-4.991641734E-3,1.167276204E-1
3.081347844E1,-8.669224977E-1,-1.739220619E-1,2.537708580E-1
3.083347844E1,-9.765466452E-1,7.997098565E-2,1.746550947E-1
3.085347844E1,-7.152882814E-1,5.536184460E-2,1.203055456E-1
3.087347844E1,-8.328012824E-1,1.022239327E-1,-2.317971736E-1
3.089347844E1,-5.068959594E-1,3.106336892E-1,-7.866198570E-2
3.091347844E1,-1.797165573E-1,4.014257342E-2,-1.570447236E-1
3.093347844E1,-3.515616655E-1,2.590068579E-1,-1.801354289E-1
3.095347844E1,-5.109102130E-1,2.401049435E-1,-1.511629671E-1
3.097347844E1,-6.228207350E-1,4.782551229E-1,-2.012888193E-1
3.099347844E1,-1.995609403E-1,1.927716136E-1,1.504648328E-1
3.101347844E1,7.682939619E-2,-7.761479169E-2,5.843362212E-2
3.103347844E1,1.769065708E-1,3.351032268E-3,-1.694540232E-1
3.105348000E1,7.761479169E-2,-1.661902517E-1,-4.016875327E-1
3.107348000E1,7.110471278E-2,-3.577924892E-2,-2.710496187E-1
3.109547844E1,-1.864709705E-1,1.732064784E-1,-6.550220400E-2
3.111547844E1,-1.777617782E-1,2.075022012E-1,9.508553892E-2
3.113547844E1,6.944490671E-1,-6.617066860E-1,1.054388285E0
3.115548000E1,1.840449721E-1,2.210983038E-1,3.896796703E-1
3.117748000E1,-4.317246377E-1,4.334699810E-1,-6.138497591E-1
3.119948312E1,3.420845373E-3,-3.321536183E-1,2.848202884E-1
3.122147844E1,-1.870294809E-1,4.586725309E-2,3.219608963E-1
3.124147844E1,-2.782403827E-1,1.020494029E-1,3.600963354E-1
3.126147844E1,-3.822096586E-1,1.957910359E-1,1.996133029E-1
3.128147844E1,-4.499458894E-2,-2.649933398E-1,3.563264310E-1
3.130147844E1,-2.608918250E-1,1.391027402E-2,2.055648714E-1
3.132147844E1,-2.141344398E-1,-1.861393601E-1,5.423959494E-1
3.134147844E1,1.391900033E-1,-5.535835028E-1,8.395208120E-1
3.136147844E1,-2.735803723E-1,-3.010693006E-2,2.958333194E-1
3.138148000E1,-3.347541392E-1,-2.028770745E-1,2.954842336E-2
3.140347844E1,-4.977853596E-1,-9.267698042E-3,-2.421993464E-1
3.142347844E1,-5.021486878E-1,-1.475326866E-1,-2.990098000E-1
3.144347844E1,-2.881538570E-1,-3.934146762E-1,-6.649704650E-3
3.146347844E1,-1.409702450E-1,-2.258979678E-1,8.613199741E-2
3.148348469E1,4.290019348E-2,-2.921332121E-1,9.658651799E-2
3.150547844E1,4.331907257E-2,-1.881115884E-1,1.080882400E-1
3.152548312E1,2.457947135E-1,-1.660506278E-1,5.314527452E-2
3.154747844E1,3.392570913E-1,-3.830997646E-1,4.283038154E-2
3.156747844E1,4.892681539E-1,-5.256407857E-1,6.796312332E-2
3.158747844E1,2.198765725E-1,-2.089508176E-1,5.235987715E-3
3.160748000E1,-8.513715863E-2,-2.366666496E-2,-4.089829922E-1
3.162748156E1,1.524545103E-1,-4.643622935E-1,-4.590215981E-1
3.164948156E1,8.600982279E-2,-1.834864616E-1,-4.246560633E-1
3.167147844E1,7.131415606E-2,-4.697204530E-1,-1.888795346E-1
3.169147844E1,-6.777113676E-2,-1.823869050E-1,-1.342856288E-1
3.171147844E1,2.492853701E-1,-5.246459842E-1,7.627088577E-3
3.173147844E1,3.203551769E-1,-4.391422868E-1,1.242150813E-1
3.175147844E1,-9.225810319E-2,-1.160469428E-1,-1.189790964E-1
3.177147844E1,-2.771757245E-1,1.850747168E-1,-1.943249553E-1
3.179147844E1,-6.379178166E-2,7.419394702E-2,-1.964717060E-1
3.181148000E1,5.495518446E-1,-4.003087282E-1,-3.342305496E-2
3.183150031E1,3.763279021E-1,-2.776644230E-1,-1.226791963E-1
3.185347844E1,-2.139599174E-1,1.437453181E-1,-2.970201373E-1
3.187347844E1,-2.682222128E-1,1.411447823E-1,-3.749490678E-1
3.189347844E1,2.406459898E-1,-2.090031803E-1,-1.447750628E-1
3.191347844E1,4.526686072E-1,-2.686934471E-1,-2.823942602E-1
3.193347844E1,2.028247118E-1,-1.543743759E-1,-5.134932995E-1
3.195347844E1,9.351474047E-2,3.223622963E-2,-6.106907129E-1
3.197347844E1,1.082627699E-1,1.568178385E-1,-6.327865720E-1
3.199347844E1,2.194577008E-1,-2.914699912E-2,-6.188588142E-1
3.201347844E1,2.318844497E-1,-4.597197101E-2,-4.376762211E-1
3.203348313E1,3.104242682E-1,-1.600466967E-1,-3.259402514E-1
3.205547844E1,4.756022096E-1,-1.407258958E-1,2.141519077E-2
3.207547844E1,5.995380282E-1,-1.830850393E-1,3.624001741E-1
3.209547844E1,4.335921407E-1,-4.488986731E-2,1.173733920E-1
3.211547844E1,8.885471523E-2,5.496041849E-2,-2.279574573E-1
3.213547844E1,-1.433613449E-1,7.501424849E-2,-2.550100684E-1
3.215547844E1,1.500808597E-1,-9.304349869E-2,-5.223770440E-2
3.217547844E1,2.125810981E-1,-9.272934496E-2,-5.195845291E-2
3.219547844E1,-9.096655995E-2,1.459444314E-1,-3.881088495E-1
3.221547844E1,5.010840297E-2,5.119050667E-2,-2.803173363E-1
3.223548781E1,1.986708343E-1,1.244419720E-2,-1.990548074E-1
3.225748000E1,3.302337527E-1,-1.291543692E-1,-1.461887807E-1
3.227949875E1,1.153662652E-1,2.948733866E-1,-4.361752272E-1
3.230147844E1,1.990548074E-1,-4.152138159E-2,-4.784820080E-1
3.232147844E1,4.294033647E-1,-1.619141996E-1,-1.460840553E-1
3.234147844E1,1.162563786E-1,1.555088311E-1,-1.295383424E-1
3.236147844E1,3.167772666E-2,2.062455565E-1,-1.666265875E-1
3.238147844E1,2.532472648E-2,2.240828276E-1,-4.053527117E-1
3.240147844E1,3.466223776E-1,-6.654940546E-2,-2.315528244E-1
3.242147844E1,1.638689637E-1,1.753357798E-1,-2.038020939E-1
3.244147844E1,1.081580520E-1,1.275661141E-1,1.502204835E-1
3.246147844E1,1.385267824E-1,1.387536824E-1,2.705434859E-1
3.248147844E1,1.696809083E-1,2.914699726E-3,6.152285635E-2
3.250147844E1,1.367640048E-1,1.310218722E-1,-2.204525322E-1
3.252147844E1,-1.137605608E-1,2.608045638E-1,-5.047143102E-1
3.254147844E1,-5.619960278E-2,5.870414972E-1,-6.113364697E-1
3.256147844E1,3.386636972E-1,3.375292122E-1,-5.054124594E-1
3.258147844E1,3.227288425E-1,-1.944296807E-1,-1.246339604E-1
3.260147844E1,4.258603323E-3,1.716007739E-1,4.247956872E-1
3.262147844E1,-8.620180935E-2,-1.382649839E-1,7.607366443E-1
3.264147844E1,-2.062979154E-2,-8.848818950E-3,7.665137053E-1
3.266147844E1,7.808603346E-2,-2.907718532E-2,1.602910310E-1
3.268147844E1,-2.298598550E-2,2.819230258E-1,-5.112941861E-1
3.270147844E1,-5.637413356E-3,1.850398034E-1,-1.029325366E0
3.272147844E1,-1.232027933E-1,7.578219473E-2,-9.996722341E-1
3.274147844E1,-2.482905388E-1,2.600889504E-1,-5.327617526E-1
3.276147844E1,-1.708851904E-1,5.220279843E-2,2.572615445E-1
3.278147844E1,-3.324852139E-2,-2.599842548E-1,8.227481842E-1
3.280147844E1,-4.058763087E-1,-3.211405873E-2,5.561665893E-1
3.282147844E1,-4.534365237E-1,3.210183978E-1,2.272244096E-1
3.284147844E1,-2.152689099E-1,1.650906950E-1,-1.687558889E-1
3.286147844E1,2.410299629E-1,4.466297477E-2,4.064871743E-2
3.288147844E1,5.428671837E-1,-1.653001308E-1,1.420872509E-1
3.290147844E1,2.600540519E-1,-9.978047013E-2,1.519832760E-1
3.292147844E1,-3.810053691E-2,-2.832669392E-2,-2.268928103E-3
3.294147844E1,-4.595277309E-1,-8.307767101E-3,-2.442937344E-1
3.296147844E1,-5.168443322E-1,1.902234405E-1,-3.809530139E-1
3.298148938E1,-2.149023861E-1,1.265363693E-1,-2.998999357E-1
3.300347844E1,3.572340012E-1,-1.333606094E-1,1.337096691E-1
3.302347844E1,4.441164732E-1,-2.107135952E-1,1.614255011E-1
3.304347844E1,1.550026834E-1,-1.076519042E-1,1.864011586E-1
3.306347844E1,-2.664943337E-1,1.850049011E-3,-2.024581889E-3
3.308347844E1,-4.256334305E-1,1.550725102E-1,-1.169370562E-1
3.310350969E1,-1.363276690E-1,2.494250089E-1,-1.389805675E-1
3.312547844E1,3.638837039E-1,-7.023204863E-2,2.363175713E-2
3.314548000E1,5.228483081E-1,-2.131221592E-1,2.792003155E-1
3.316747844E1,5.227261037E-2,-5.969025940E-2,1.803448647E-1
3.318747844E1,-1.699950695E-1,1.980948634E-2,8.934340626E-2
3.320747844E1,-3.928561509E-1,3.153984547E-1,-3.766071498E-1
3.322747844E1,-8.855800331E-2,1.143016145E-1,-4.490382969E-1
3.324748000E1,2.598097026E-1,-1.151568219E-1,-2.245016992E-1
3.326748313E1,1.773603559E-1,-5.345943570E-2,-1.860520989E-1
3.328947844E1,9.215338156E-3,1.034456640E-1,-9.311331809E-2
3.330947844E1,-1.080882400E-1,1.200961024E-1,-1.429948211E-1
3.332947844E1,2.446951531E-2,3.858922794E-2,7.766715437E-2
3.334947844E1,-7.504915702E-4,8.742354065E-2,-5.859070271E-2
3.336947844E1,-1.226966456E-1,2.104517967E-1,-2.445031703E-1
3.338947844E1,-2.467895485E-2,1.389456540E-1,-2.012888193E-1
3.340948156E1,-7.087782025E-2,2.041511685E-1,5.859070271E-2
3.343149406E1,1.137081981E-1,-3.741985932E-2,5.314701796E-1
3.345347844E1,-1.649859697E-1,1.769763790E-2,5.132489800E-1
3.347347844E1,-2.581865489E-1,1.054353416E-1,4.417602718E-1
3.349347844E1,-2.918713987E-1,-1.101302728E-2,1.516865641E-1
3.351347844E1,-1.624028832E-1,-5.640904233E-2,1.826661527E-1
3.353347844E1,6.981316954E-2,-1.072679386E-1,3.648959994E-1
3.355347844E1,-3.680899367E-2,-2.317273617E-1,2.678731382E-1
3.357347844E1,-3.191334605E-1,1.751437932E-1,-1.138827354E-1
3.359347844E1,-1.190140024E-1,-5.522221699E-2,-2.539977729E-1
3.361348000E1,1.478991956E-1,-8.683013171E-2,-1.655444801E-1
3.363547844E1,2.373647876E-3,-4.485496320E-3,-2.929011583E-1
3.365547844E1,2.961823717E-2,1.303760987E-2,-2.874731719E-1
3.367547844E1,1.332558841E-1,-7.342600077E-2,-2.372775078E-1
3.369547844E1,1.425410360E-1,-3.031636961E-2,-3.642502055E-2
3.371549094E1,1.797863692E-1,-2.617993741E-4,5.969026126E-3
3.373747844E1,1.524370611E-1,8.215264976E-2,-2.471386269E-2
3.375748000E1,2.103470862E-1,-1.415985674E-1,-2.303834558E-1
3.377748000E1,-8.653342724E-2,5.965535343E-2,-2.673495412E-1
3.379748000E1,-6.770132482E-2,1.645845547E-2,-4.939281940E-2
3.381748000E1,-1.301841140E-1,-5.134758726E-2,5.614724010E-2
3.383947844E1,-1.435184181E-1,2.399827726E-2,1.157676876E-1
3.385947844E1,3.604104742E-2,-3.262020275E-2,1.941853315E-1
3.387949719E1,-1.076169983E-1,1.812873483E-1,-9.534733742E-2
3.390147844E1,2.228959948E-1,-1.752136052E-1,3.130597174E-1
3.392147844E1,-3.382448107E-2,8.354891092E-2,-1.282816976E-1
3.394147844E1,-1.713564247E-1,1.155058891E-1,-6.031857729E-1
3.396147844E1,1.279326379E-1,-1.159073189E-1,-4.987801909E-1
3.398147844E1,3.199188411E-1,-1.208465993E-1,-1.615825742E-1
3.400147844E1,4.214621186E-1,-1.696983576E-1,2.860420048E-1
3.402148000E1,1.136209350E-2,-7.801621687E-3,1.063603610E-1
3.404347844E1,-1.749867052E-1,1.700474322E-1,-6.761405617E-2
3.406347844E1,-6.993534416E-2,6.799802929E-2,-2.214124650E-1
3.408348000E1,2.476622164E-2,-3.576179594E-2,-1.816538721E-1
3.410547844E1,-5.312782153E-2,5.106833205E-2,-3.523819894E-2
3.412547844E1,-1.810779124E-1,1.323308647E-1,-8.611454815E-2
3.414547844E1,2.467895597E-1,-2.899689972E-1,-9.878563695E-3
3.416547844E1,2.794272006E-1,-2.561096251E-1,-7.705628872E-2
3.418547844E1,-6.972590089E-2,-2.651155181E-2,-1.310742199E-1
3.420547844E1,-2.516590357E-1,-9.756390937E-3,-1.371828746E-2
3.422547844E1,-3.964340985E-1,2.656740248E-1,-2.879444063E-1
3.424547844E1,-1.797689125E-3,-1.207767799E-2,-2.426880300E-1
3.426547844E1,2.074323744E-1,-1.530653704E-2,-5.740387738E-2
3.428547844E1,2.451489419E-1,4.180063680E-2,1.340587437E-1
3.430547844E1,7.372270525E-2,5.558873713E-2,2.738072574E-1
3.432547844E1,1.065348983E-1,9.843656793E-3,4.537506998E-1
3.434547844E1,-1.946042106E-2,1.220683306E-1,2.153387219E-1
3.436547844E1,-1.398706883E-1,2.136457562E-1,-5.475097895E-2
3.438547844E1,1.199041214E-2,1.617920212E-2,-9.866346419E-2
3.440547844E1,6.387905218E-3,4.642575979E-3,-1.284562349E-1
3.442547844E1,-1.327846497E-1,1.237612963E-1,-2.019869536E-1
3.444547844E1,-9.375908971E-2,1.210211292E-1,-1.874832660E-1
3.446547844E1,-1.251052022E-1,2.970375717E-1,-2.187770158E-1
3.448547844E1,4.707327485E-1,-3.791902363E-1,4.483750761E-1
3.450547844E1,3.027273715E-1,1.459095255E-2,3.525564969E-1
3.452547844E1,1.287703961E-1,-3.494149074E-2,7.410667837E-2
3.454547844E1,-1.747598201E-1,2.315528244E-1,-2.670004666E-1
3.456547844E1,-2.325651199E-1,2.153561711E-1,-5.200383067E-1
3.458547844E1,-5.899212789E-3,5.761331692E-2,-1.411971301E-1
3.460547844E1,1.859299242E-1,2.691297606E-2,2.179916203E-1
3.462547844E1,1.838180721E-1,-3.117158078E-2,4.528431296E-1
3.464547844E1,2.949606394E-3,1.459095180E-1,2.724808156E-1
3.466547844E1,-1.445132587E-2,2.672099136E-2,1.265363675E-2
3.468547844E1,-1.499063224E-1,1.189092845E-1,-1.011941880E-1
3.470547844E1,-1.587551534E-1,1.385267824E-1,-5.724680144E-3
3.472547844E1,1.424886733E-1,-6.339035928E-2,2.548355162E-1
3.474547844E1,9.560913593E-2,-5.550147034E-3,8.798204362E-2
3.476547844E1,9.354964830E-3,3.178244457E-2,2.581341937E-2
3.478547844E1,-1.384046078E-1,1.335700452E-1,-4.832816496E-2
3.480547844E1,-1.226617396E-1,1.863313466E-1,-1.025031880E-1
3.482547844E1,7.696901914E-3,9.890780598E-2,-3.426081315E-2
3.484547844E1,-3.228859045E-3,2.583087189E-3,1.365545541E-1
3.486547844E1,5.701990798E-2,-1.638864167E-2,4.320562482E-1
3.488547844E1,-1.429773718E-1,-1.527163107E-2,3.939382732E-1
3.490547844E1,-3.765024245E-1,4.054050744E-1,1.451241225E-1
3.492547844E1,-9.042550623E-2,-6.229080260E-2,-7.072073966E-2
3.494547844E1,-6.660176069E-2,8.681267500E-2,-2.376091182E-1
3.496547844E1,-9.391617030E-2,3.848451003E-2,-1.676912308E-1
3.498547844E1,-2.412045002E-2,6.092944369E-2,1.223824844E-1
3.500547844E1,3.918264061E-2,3.796090931E-2,1.759990007E-1
3.502547844E1,6.024876609E-2,-1.045801267E-1,3.168121576E-1
3.504547844E1,-1.037074625E-1,-6.494370103E-2,1.792453080E-1
3.506547844E1,-2.256885320E-1,5.626941472E-2,2.224073112E-1
3.508547844E1,-2.326349318E-1,-8.089601249E-2,1.396263391E-1
3.510547844E1,-4.574508071E-1,1.170592308E-1,-1.315454692E-1
3.512547844E1,-2.904402316E-1,-1.456826329E-1,1.698030829E-1
3.514547844E1,-6.161012128E-2,-4.682020247E-1,5.742831230E-1
3.516547844E1,-1.378984600E-1,-3.792774975E-1,6.466270089E-1
3.518547844E1,-2.416931987E-1,-1.774999797E-1,7.340331078E-1
3.520547844E1,-3.005805910E-1,-2.086192071E-1,4.570319057E-1
3.522547844E1,-4.312883019E-1,1.398008689E-2,2.521651685E-1
3.524547844E1,-3.854559660E-1,-9.574875981E-2,1.410226077E-1
3.526547844E1,-2.498962432E-1,-1.599768847E-1,2.624451518E-1
3.528547844E1,-2.182883322E-1,-1.744107455E-1,3.905523121E-1
3.530547844E1,-2.029643357E-1,-1.766447723E-1,7.171558142E-1
3.532547844E1,-9.466665983E-2,-1.851794273E-1,7.307868004E-1
3.534547844E1,-1.448448747E-1,-1.206371561E-1,2.045874894E-1
3.536547844E1,-1.043008789E-1,-3.568325639E-1,-1.337271333E-1
3.538547844E1,-9.861110151E-2,-2.445380837E-1,-1.239532828E-1
3.540547844E1,-1.479690075E-1,-6.038839370E-2,-3.208089769E-1
3.542547844E1,-8.831366152E-2,-6.035348400E-2,-3.597123623E-1
3.544547844E1,2.096140385E-2,-4.551818594E-2,-2.425484061E-1
3.546547844E1,1.190838143E-1,-8.279842138E-2,-3.843215108E-1
3.548547844E1,1.862615347E-1,3.300417587E-2,-4.311835766E-1
3.550547844E1,2.216917276E-1,6.012659147E-2,-3.869569600E-1
3.552547844E1,4.883780181E-1,-2.046573013E-1,-1.952325255E-1
3.554547844E1,4.862487316E-1,-5.089380220E-2,-2.329141945E-1
3.556547844E1,3.992964327E-1,-5.309291556E-2,-5.218709111E-1
3.558547844E1,4.631754756E-1,-3.403392062E-2,-7.027917504E-1
3.560547844E1,4.971046746E-1,-1.749168932E-1,-7.328288555E-1
3.562547844E1,4.187568426E-1,-9.501572698E-2,-5.749114752E-1
3.564547844E1,2.441366613E-1,8.744099736E-2,-5.553288460E-1
3.566547844E1,3.329215646E-1,-7.714355364E-3,-3.733782768E-1
3.568548000E1,5.585402846E-1,-1.014559865E-1,-1.686337143E-1
3.570747844E1,4.601211548E-1,-6.483898312E-2,-3.905523121E-1
3.572748000E1,4.381125569E-1,-7.766715251E-3,-2.336472273E-1
3.574947844E1,4.184426963E-1,4.152138159E-2,-1.256637089E-2
3.576948000E1,5.837079287E-1,-9.126326442E-2,4.218635261E-1
3.578948000E1,6.788981557E-1,-2.771059275E-1,4.341157377E-1
3.580948156E1,5.616469383E-1,-1.789660603E-1,9.965830296E-2
3.583150812E1,3.116983473E-1,7.503170520E-2,-1.921432912E-1
3.585347844E1,7.684684545E-2,1.591042131E-1,-2.850820720E-1
3.587347844E1,-5.220279843E-2,3.317870945E-2,-1.141096279E-1
3.589347844E1,-1.814269722E-1,3.272492439E-2,2.247111350E-1
3.591347844E1,-2.424436808E-1,1.101302728E-2,5.168094635E-1
3.593347844E1,-7.239625603E-2,-8.440412581E-2,6.853733659E-1
3.595347844E1,-1.148775741E-1,1.307426095E-1,2.998126447E-1
3.597347844E1,5.801474303E-2,2.996730246E-2,-2.345722541E-2
3.599347844E1,-4.625122622E-2,2.118131518E-1,-3.230429888E-1
3.601347844E1,-3.879866749E-2,6.642723083E-2,-3.864856958E-1
3.603347844E1,-2.234021388E-2,-1.158898622E-1,-1.463807672E-1
3.605347844E1,4.448844120E-2,-1.606750041E-1,1.241801754E-1
3.607347844E1,3.088883758E-1,-3.278775513E-1,2.457598150E-1
3.609348000E1,2.124763876E-1,-3.298672289E-2,-1.926668882E-1
3.611547844E1,7.288494706E-2,1.022413895E-1,-3.689975142E-1
3.613547844E1,-1.694889218E-1,-4.148647562E-2,-3.003537059E-1
3.615547844E1,-7.642447948E-1,-7.501424849E-2,-3.576528728E-1
3.617547844E1,-1.098300815E0,3.959104717E-1,-2.199289352E-1
3.619547844E1,-7.055318952E-1,6.444453597E-1,-6.658431143E-2
3.621547844E1,3.462733328E-2,7.993607968E-2,1.322261393E-1
3.623547844E1,4.256857932E-1,-9.063494951E-2,1.964542568E-1
3.625548000E1,2.493202835E-1,-1.453859266E-2,-1.823170930E-1
3.627548000E1,2.255838066E-1,-1.450368613E-1,-2.230007201E-1
3.629748000E1,-2.054077983E-1,8.993681520E-2,-3.667984009E-1
3.631748000E1,-2.494075447E-1,7.257079333E-2,-3.001791835E-1
3.633947844E1,2.020567656E-1,-1.417032778E-1,-7.609635592E-3
3.635947844E1,3.099704683E-1,-2.020218670E-1,4.426154867E-2
3.637949719E1,3.652450442E-1,-2.141868025E-1,6.096434966E-2
3.640147844E1,-1.345823407E-1,-2.233846933E-1,-2.429149300E-1
3.642147844E1,-4.756022096E-1,3.786142766E-1,-5.089380220E-2
3.644147844E1,-4.658283666E-2,-1.132195070E-1,1.809033751E-1
3.646147844E1,7.660250366E-2,-1.423665136E-1,-1.385791413E-2
3.648148625E1,-6.407103688E-2,-6.248278543E-2,8.908160776E-2
3.650347844E1,-4.861614704E-1,8.969247341E-2,2.203129083E-1
3.652347844E1,-4.520751834E-1,1.519832760E-1,3.505493701E-1
3.654348000E1,-1.967684180E-1,-2.715732343E-2,5.507386327E-1
3.656547844E1,2.377138473E-2,3.288723826E-1,6.179338098E-1
3.658547844E1,1.573239714E-1,3.995058686E-2,7.587993145E-1
3.660547844E1,-2.494948208E-1,4.010766745E-2,5.778261423E-1
3.662547844E1,-5.002637506E-1,9.395107627E-2,6.592457891E-1
3.664547844E1,-6.279519796E-1,-1.703964919E-1,6.296100616E-1
3.666547844E1,-6.499257088E-1,8.941321820E-2,5.886297226E-1
3.668547844E1,-3.468667269E-1,-3.647737950E-2,3.786142766E-1
3.670547844E1,-1.487369537E-1,-8.218755573E-2,1.596627235E-1
3.672547844E1,2.381152660E-1,-1.661902517E-1,2.328618318E-1
3.674547844E1,3.300417587E-2,-4.116882682E-1,-8.220500313E-3
3.676547844E1,-6.007074118E-1,2.483429015E-1,-2.455678284E-1
3.678547844E1,-4.799655639E-3,1.206197068E-1,5.708971992E-2
3.680547844E1,5.402840972E-1,-5.695358515E-1,2.091777027E-1
3.682547844E1,-4.272565991E-2,-1.155058891E-1,-1.340238303E-1
3.684547844E1,-3.582637310E-1,1.331511736E-1,-2.929011583E-1
3.686547844E1,-1.832421124E-1,1.783901006E-1,-2.030341476E-1
3.688547844E1,7.418870926E-1,-3.458369970E-1,3.617892861E-1
3.690547844E1,-2.271895111E-1,1.901885271E-1,-6.455100179E-1
3.692547844E1,-5.556255579E-1,5.576850772E-1,-1.116766334E0
3.694547844E1,2.097013146E-1,-1.750914305E-1,-5.701292753E-1
3.696547844E1,3.351032138E-1,-1.352281123E-1,-2.877698839E-1
3.698547844E1,5.594303608E-1,-1.896125674E-1,5.349434167E-2
3.700547844E1,3.071953952E-1,1.870818436E-1,-6.789330859E-3
3.702548312E1,5.114861727E-1,1.534144394E-2,-1.021192148E-1
3.704748000E1,1.196772233E-1,1.768542081E-1,-4.729143977E-1
3.706947844E1,6.045820564E-2,-1.925098151E-2,-4.463330507E-1
3.708948000E1,2.828305960E-1,-3.035302162E-1,-2.666339576E-1
3.711147844E1,4.666486681E-1,-4.073074758E-1,-3.539004028E-1
3.713147844E1,4.284957945E-1,-9.548696131E-2,-2.729345858E-1
3.715147844E1,2.282541543E-1,9.588839114E-2,-3.257133365E-1
3.717147844E1,-1.313709319E-1,3.100053668E-1,-3.468492925E-1
3.719147844E1,-1.974141896E-1,3.199014068E-1,1.863313466E-1
3.721147844E1,-1.955990493E-1,-5.429719388E-2,5.064945221E-1
3.723148781E1,-5.169665217E-1,1.279850006E-1,8.467639089E-1
3.725347844E1,-4.044800401E-1,-1.193805225E-2,1.219618678E0
3.727347844E1,-1.696460098E-1,-1.533271670E-1,9.785537720E-1
3.729347844E1,1.171115879E-2,-1.078613475E-2,2.474178672E-1
3.731347844E1,-5.258677155E-2,5.443681777E-2,-3.359758854E-1
3.733347844E1,3.166027367E-2,1.745154709E-1,-2.601587772E-1
3.735347844E1,-2.279400080E-2,-3.337767720E-1,-2.135759443E-1
3.737347844E1,-3.779161274E-1,9.438740462E-2,-5.415756628E-2
3.739347844E1,7.281513512E-2,-9.060004354E-2,2.085319310E-1
3.741347844E1,1.285958588E-1,-2.049365640E-1,5.394812673E-2
3.743348469E1,9.543460608E-2,2.033483088E-1,-2.659009099E-1
3.745547844E1,2.793748379E-1,-2.543642819E-1,-3.754203320E-1
3.747547844E1,-7.264060527E-2,-6.072000414E-2,-2.207492441E-1
3.749547844E1,-2.678731382E-1,-1.071632188E-2,3.635520861E-2
3.751547844E1,-2.662674189E-1,-3.579670191E-2,-2.570869960E-2
3.753547844E1,-3.237934709E-1,4.942248762E-1,-3.133913279E-1
3.755547844E1,5.722934604E-1,-2.611187100E-1,-1.223475784E-1
3.757547844E1,4.597197175E-1,1.750565320E-2,-3.499385118E-1
3.759547844E1,5.228308439E-1,-1.191361770E-1,-1.855983138E-1
3.761547844E1,6.541144848E-1,-1.612684280E-1,-3.077015467E-2
3.763547844E1,-2.244318873E-1,3.194650710E-1,-3.378957510E-1
3.765547844E1,2.814692557E-1,5.508258939E-2,4.785692692E-2
3.767547844E1,2.925869823E-1,2.403318435E-1,8.018042892E-2
3.769547844E1,5.675810575E-1,-3.113667369E-1,-7.010638714E-1
3.771547844E1,9.154251963E-2,2.401049435E-1,-5.545958281E-1
3.773547844E1,-3.961548209E-1,1.021017581E-1,1.581268311E-1
3.775547844E1,-4.557054639E-1,3.619638383E-1,6.270793676E-1
3.777547844E1,-1.352630109E-1,3.830997646E-1,-2.876302600E-2
3.779548000E1,-1.176875532E-1,1.108633131E-1,-3.870616555E-1
3.781748000E1,-1.732413769E-1,6.970845163E-2,1.082802266E-1
3.783947844E1,9.704031050E-3,-6.106907129E-2,7.391644120E-1
3.785947844E1,-2.033308521E-2,-2.672099136E-2,3.384542465E-1
3.787949719E1,-3.870616555E-1,3.682644665E-2,-1.834864616E-1
3.790147844E1,-3.381575346E-1,1.129228063E-2,-3.954043388E-1
3.792147844E1,-5.920156837E-2,-5.340707675E-2,-3.139498234E-1
3.794147844E1,2.491282970E-1,-3.663446009E-2,1.399754081E-2
3.796147844E1,2.269626111E-1,2.071705833E-2,-9.339256585E-2
3.798147844E1,3.328342736E-2,3.252421021E-1,2.809630930E-1
3.800147844E1,1.894903928E-1,2.172585875E-1,7.453428507E-1
3.802148000E1,4.398229532E-3,-6.728244573E-2,1.013041496E0
3.804347844E1,-4.926715493E-1,-3.063401878E-1,8.976752162E-1
3.806347844E1,-7.985928655E-1,-3.161838353E-1,5.318018198E-1
3.808347844E1,-6.826156974E-1,7.742280513E-2,-1.858950108E-1
3.810347844E1,-3.430444598E-1,1.368163526E-1,-7.763224840E-2
3.812347844E1,-1.355771720E-1,-1.676737815E-1,-1.071981192E-1
3.814347844E1,-3.573386967E-1,1.964542568E-1,-1.573937982E-1
3.816347844E1,3.704461455E-1,-2.043955028E-1,-8.410741389E-2
3.818347844E1,5.430243015E-1,-5.807757378E-1,-3.593283892E-1
3.820347844E1,3.627841473E-1,-9.105382860E-2,-5.273686647E-1
3.822347844E1,-4.168544412E-1,5.100201368E-1,-1.401621580E0
3.824347844E1,5.766567960E-2,4.418649971E-1,-1.467158675E0
3.826347844E1,9.570164084E-1,-6.729989499E-2,-9.788678885E-1
3.828347844E1,1.051613212E0,-5.516985804E-2,-3.935019374E-1
3.830347844E1,1.073360085E0,-3.616845906E-1,2.217266262E-1
3.832347844E1,4.570144713E-1,-7.934267074E-2,7.897614688E-2
3.834349406E1,2.481334656E-1,-2.562143207E-1,-1.657190174E-1
3.836547844E1,3.799232841E-1,-1.675341576E-1,1.132544130E-1
3.838547844E1,5.204920769E-1,1.011941880E-1,8.377580345E-2
3.840547844E1,5.294456482E-1,-3.961897269E-2,3.773925304E-1
3.842550188E1,3.261496723E-1,-5.539675057E-2,7.945087552E-1
3.844748000E1,-4.430867434E-1,3.627841473E-1,3.651577830E-1
3.846947844E1,2.576106042E-2,5.022359490E-1,3.922452927E-1
3.848948000E1,-3.543018550E-2,-4.686208963E-1,1.621236354E-1
3.851147844E1,-1.026218653E0,6.670648456E-1,-2.734581828E-1
3.853147844E1,-3.751236200E-1,4.460538030E-1,-1.812175363E-1
3.855147844E1,2.644173801E-1,-4.244291782E-1,-1.988104582E-1
3.857147844E1,-1.533446312E-1,1.413367689E-1,-5.830621123E-1
3.859147844E1,-6.286326647E-1,1.570796361E-3,-7.625169158E-1
3.861148000E1,-9.875072837E-1,2.583436370E-1,-6.152459979E-1
3.863347844E1,-8.622624874E-1,4.583409131E-1,-8.335866928E-1
3.865347844E1,-1.453859266E-2,-6.408849359E-2,-6.292260885E-1
3.867347844E1,4.025252759E-1,1.671501845E-1,-5.277701020E-1
3.869347844E1,6.891432405E-1,9.878563881E-2,7.054620981E-2
3.871347844E1,1.761735380E-1,-2.056521475E-1,4.382521808E-1
3.873347844E1,-6.708347201E-1,1.364672929E-1,7.590960264E-1
3.875347844E1,-1.813396998E-2,-3.404090106E-1,1.360711098E0
3.877347844E1,-4.537856206E-3,3.035127521E-1,7.807730436E-1
3.879347844E1,2.949082851E-1,-2.496868074E-1,7.051828504E-1
3.881347844E1,-4.819028676E-1,5.036496520E-1,-5.773549154E-2
3.883347844E1,-8.360126987E-3,8.761553094E-3,-1.486496925E-1
3.885347844E1,-1.703964919E-1,-6.702063978E-2,-6.207612753E-1
3.887347844E1,-7.199134231E-1,4.244640768E-1,-1.826487035E-1
3.889347844E1,-2.718001306E-1,2.744181156E-1,6.506761909E-1
3.891347844E1,4.103967249E-1,-2.493377328E-1,8.356985450E-1
3.893347844E1,3.738844395E-1,-1.040390730E-1,5.970247984E-1
3.895347844E1,-1.564338654E-1,2.297376841E-1,-1.119977757E-1
3.897347844E1,-2.745577395E-1,1.879545003E-1,-6.914994121E-2
3.899347844E1,-3.752457723E-2,-2.094918638E-1,3.398505151E-1
3.901347844E1,2.081130594E-1,-2.899864614E-1,9.393361807E-1
3.903348313E1,-3.118903376E-2,-8.518952131E-2,1.174344778E0
3.905547844E1,-5.566204190E-1,1.395565271E-1,8.201825619E-1
3.907547844E1,-5.437922478E-1,4.103967249E-1,6.583731174E-1
3.909547844E1,5.976007506E-2,-1.463807672E-1,6.169564128E-1
3.911547844E1,1.347917765E-1,8.435176313E-2,4.761432707E-1
3.913547844E1,-6.089453772E-2,6.102543473E-1,-1.525417715E-2
3.915547844E1,-1.291543692E-1,2.861816287E-1,-3.123092055E-1
3.917547844E1,-5.745624006E-2,-7.717845589E-2,-4.188790335E-4
3.919548000E1,-3.635869920E-1,2.693915665E-1,-1.038994491E-1
3.921548000E1,-2.785196304E-1,1.751088798E-1,-2.712416053E-1
3.923747844E1,-1.283864230E-1,4.975933582E-2,-4.592135847E-1
3.925748000E1,2.713637948E-1,-3.131818771E-1,-1.656317413E-1
3.927949875E1,-3.913726211E-1,3.507762849E-1,-6.099576354E-1
3.930147844E1,-3.565707803E-2,1.347394194E-2,-2.643650174E-1
3.932147844E1,4.365940988E-1,-2.047096640E-1,3.277728334E-2
3.934147844E1,6.533290744E-1,-3.341258168E-1,-6.881833076E-2
3.936147844E1,6.141464710E-1,-3.022212088E-1,2.452187613E-2
3.938148000E1,1.140223593E-1,2.857103944E-2,-3.649657965E-1
3.940347844E1,-8.438666910E-2,4.347789586E-1,-8.867319822E-1
3.942347844E1,6.258750707E-2,3.990520835E-1,-1.382562518E0
3.944347844E1,3.597472608E-1,6.333799660E-2,-1.199756742E0
3.946347844E1,2.848726511E-1,2.343977243E-2,-6.541842818E-1
3.948347844E1,6.754424423E-2,1.249830276E-1,-2.542071939E-1
3.950347844E1,-4.632103816E-2,1.913229972E-1,-2.509783506E-1
3.952347844E1,1.206197068E-1,-1.277231872E-1,-1.062207371E-1
3.954347844E1,1.891936958E-1,-2.052158117E-1,2.953097038E-2
3.956347844E1,1.932079531E-2,-4.660028964E-3,-1.659982651E-1
3.958347844E1,6.122614816E-2,-5.105087906E-2,-2.047794759E-1
3.960347844E1,1.528210342E-1,1.302015595E-2,-3.132865950E-2
3.962347844E1,3.013485372E-1,-8.635888994E-2,4.879766107E-1
3.964347844E1,2.889741659E-1,-7.216936350E-2,7.144680023E-1
3.966347844E1,4.529129341E-2,-5.222025141E-2,7.786611915E-1
3.968347844E1,-1.814095229E-1,1.838355362E-1,4.099778533E-1
3.970347844E1,-2.473829687E-1,1.569574624E-1,8.318239450E-2
3.972347844E1,-6.323327869E-2,5.810201168E-2,2.517811954E-1
3.974347844E1,-1.744980216E-1,-7.717845589E-2,3.369532526E-1
3.976347844E1,-2.904751599E-1,5.286602303E-2,4.404163957E-1
3.978347844E1,-1.931905001E-1,5.462880433E-2,6.819699407E-1
3.980347844E1,1.570621729E-1,-2.827258706E-1,1.148287058E0
3.982347844E1,2.697930038E-1,-4.784471095E-1,9.260193110E-1
3.984349250E1,-1.459618807E-1,-7.471754402E-2,4.430867434E-1
3.986547844E1,-1.443212777E-1,7.717845589E-2,5.895722285E-2
3.988547844E1,5.201081187E-2,-1.074075624E-1,-7.731808349E-3
3.990547844E1,7.984881103E-2,-1.504997462E-1,2.157226950E-1
3.992547844E1,-3.415958285E-1,-1.268330812E-1,1.818109453E-1
3.994547844E1,-6.293832064E-1,1.663298756E-1,1.586853415E-1
3.996547844E1,-3.827506900E-1,1.859648377E-1,-3.871140257E-2
3.998547844E1,6.087708473E-2,-1.340761930E-1,9.733701497E-2
4.000547844E1,1.304459125E-1,-3.321361542E-1,3.448944986E-1
4.002547844E1,1.422966868E-1,-3.417529166E-1,4.647288322E-1
4.004547844E1,-2.040115297E-1,-2.171887755E-1,3.757693991E-2
4.006548000E1,-3.066543341E-1,8.189085126E-2,-1.691747606E-1
4.008747844E1,6.059783325E-2,-2.297027856E-1,-5.042256042E-2
4.010748000E1,1.735206395E-1,-2.380803674E-1,-1.189441904E-1
4.012748000E1,8.220500499E-2,-1.432915330E-1,-1.651779562E-1
4.014947844E1,-1.532224566E-1,8.796459436E-2,-2.923600972E-1
4.016947844E1,4.021238536E-2,-1.107062325E-1,-3.176848292E-1
4.018947844E1,8.424704522E-2,-5.220279843E-2,4.328416660E-3
4.020948156E1,1.862964481E-1,-2.028247118E-1,1.428551972E-1
4.023151125E1,8.119271696E-2,2.359685116E-2,1.664171368E-1
4.025347844E1,8.021533489E-2,-5.597271025E-2,5.628686771E-2
4.027347844E1,5.742133036E-2,-2.301042080E-1,-4.824090004E-2
4.029347844E1,6.373942643E-2,-2.765125036E-1,-2.722713631E-3
4.031347844E1,-1.399754081E-2,-9.717993438E-2,-6.901031733E-2
