"Time (s)","Linear Acceleration x (m/s^2)","Linear Acceleration y (m/s^2)","Linear Acceleration z (m/s^2)"
4.000000000E-3,-6.999999750E-4,-8.957999945E-1,-8.483999968E-1
2.400000000E-2,1.940999925E-1,-9.702000022E-1,2.375999987E-1
4.400000000E-2,6.747999787E-1,-8.367999792E-1,2.583999872E0
6.400000000E-2,1.417699933E0,-9.645999670E-1,3.815099955E0
8.400000000E-2,1.294999957E0,-1.572499990E0,2.349599838E0
1.040000000E-1,2.022999972E-1,-1.269099951E0,-1.388999969E-1
1.240000000E-1,9.049999714E-2,-3.107999861E-1,-1.506899953E0
1.440000000E-1,5.164999962E-1,4.971999824E-1,-1.277199984E0
1.640109380E-1,6.620000005E-1,3.716000021E-1,1.771000028E-1
1.939984380E-1,-1.708000004E-1,-5.473999977E-1,-1.938999891E-1
2.140156250E-1,-3.218999803E-1,-6.650999784E-1,-4.685999751E-1
2.439984380E-1,-2.169999927E-1,-1.433999985E-1,4.170999825E-1
2.640078130E-1,-1.623999923E-1,-5.979999900E-2,2.474000007E-1
2.939984380E-1,-6.552999616E-1,-1.397999972E-1,-5.648999810E-1
3.140031250E-1,-4.765999913E-1,-1.994999945E-1,3.739999980E-2
3.440000000E-1,-3.722999990E-1,-4.083999991E-1,4.713999927E-1
3.640031250E-1,-1.206999943E-1,-3.698999882E-1,-5.184000134E-1
3.939984380E-1,4.093999863E-1,8.033999801E-1,-1.781399965E0
4.140031250E-1,5.216999650E-1,1.547699928E0,-1.314599991E0
4.439984380E-1,8.079999685E-1,6.683999896E-1,-4.092999995E-1
4.640093750E-1,4.035999775E-1,-1.054499984E0,-1.491999984E0
4.939984380E-1,-1.395999938E-1,-1.653999984E-1,-2.027600050E0
5.140000000E-1,1.415999979E-1,9.440000057E-1,-1.134500027E0
5.439984380E-1,1.509999949E-2,-4.219000041E-1,-4.546999931E-1
5.639984380E-1,-3.364999890E-1,-1.616799951E0,-7.583999634E-1
5.839984380E-1,-1.937000006E-1,-7.285999656E-1,-1.070599914E0
6.039984380E-1,-1.140999943E-1,1.124300003E0,-1.537899971E0
6.240265630E-1,2.777999938E-1,2.188499928E0,-2.682699919E0
6.539984380E-1,1.765599966E0,4.233999848E-1,2.077600002E0
6.739984380E-1,2.596299887E0,-7.501999736E-1,5.349599838E0
6.939984380E-1,3.019500017E0,1.294099927E0,3.386699915E0
7.139984380E-1,4.401000023E0,3.432399988E0,1.130299926E0
7.339984380E-1,5.511499882E0,2.692499876E0,-6.394999623E-1
7.539984380E-1,3.609799862E0,3.240199804E0,-5.713799953E0
7.739984380E-1,2.669899940E0,1.486499906E0,4.463299751E0
7.939984380E-1,-8.869999647E-1,-2.392999977E-1,1.022559929E1
8.139984380E-1,-1.804399967E0,-3.429999948E-1,1.228199959E0
8.339984380E-1,-1.224599957E0,-2.081999928E-1,-3.786399841E0
8.539984380E-1,-3.014299870E0,1.482999921E-1,-7.736699581E0
8.739984380E-1,-6.687999964E-1,5.159000158E-1,-5.227200031E0
8.939984380E-1,1.956999898E-1,6.434000134E-1,1.026099920E0
9.139984380E-1,-5.381999612E-1,2.379400015E0,6.534999609E-1
9.339984380E-1,4.366999865E-1,3.183899879E0,-3.588399887E0
9.539984380E-1,-8.834999800E-1,-9.298999906E-1,-4.046899796E0
9.739984380E-1,-1.318899989E0,-1.556699991E0,-2.458999902E-1
9.939984380E-1,1.037799954E0,-4.199999943E-2,2.167500019E0
1.013998438E0,2.653199911E0,-1.071999967E-1,3.622099876E0
1.033998438E0,3.300299883E0,-1.199899912E0,7.726799965E0
1.053998438E0,3.889699936E0,-6.396999955E-1,7.154699802E0
1.073998438E0,3.542099953E0,-1.020799994E0,5.147699833E0
1.093998438E0,3.720399857E0,-8.416000009E-1,5.015500069E0
1.113998438E0,3.032299995E0,-1.506999969E0,6.062999725E0
1.133998438E0,7.245999575E-1,-3.107899904E0,5.009999752E0
1.153998438E0,-5.256999731E-1,-3.239399910E0,3.239300013E0
1.173998438E0,2.923399925E0,-2.219999880E-1,7.366999984E-1
1.193998438E0,3.586799860E0,-8.856999874E-1,4.600000102E-3
1.213998438E0,-5.546000004E-1,-2.315399885E0,-2.843400002E0
1.233998438E0,-1.477299929E0,-1.090600014E0,-4.156499863E0
1.253998438E0,-2.619199991E0,4.452300072E0,-1.289669991E1
1.273998438E0,5.610599995E0,3.926999807E0,-2.674559975E1
1.294000000E0,1.556699991E0,-2.088500023E0,-1.899199963E0
1.323998438E0,-7.119999826E-2,-4.100500107E0,1.318779945E1
1.343998438E0,1.313399911E0,-8.675999641E-1,1.793330002E1
1.363998438E0,-9.402999878E-1,-5.489999652E-1,-1.040699959E0
1.383998438E0,9.902999997E-1,-1.152199984E0,-3.730299950E0
1.403998438E0,2.330199957E0,-3.240000010E-1,-4.435999870E0
1.423998438E0,5.749999881E-1,-1.291800022E0,-3.092099905E0
1.443998438E0,8.324999809E-1,-6.492999792E-1,-2.865000010E0
1.463998438E0,4.587599754E0,1.810499907E0,-2.123800039E0
1.483998438E0,5.775399685E0,3.470999956E0,4.147699833E0
1.503998438E0,1.945599914E0,1.436200023E0,1.244199991E0
1.523998438E0,-3.559999764E-1,9.851999879E-1,-2.629299879E0
1.543998438E0,-6.061999798E-1,2.082399845E0,-3.056099892E0
1.563998438E0,2.409999967E-1,1.979399920E0,-8.080999851E-1
1.583998438E0,1.834899902E0,1.334999919E0,3.319000006E-1
1.603998438E0,-1.811899900E0,-1.185199976E0,1.635800004E0
1.623998438E0,-1.560699940E0,-4.649999738E-1,-2.309999913E-1
1.643998438E0,-8.546999693E-1,-2.210999876E-1,8.578999639E-1
1.663998438E0,-5.932999849E-1,-1.814000010E-1,2.422699928E0
1.683998438E0,1.507000029E-1,5.829999968E-2,1.906499982E0
1.703998438E0,6.789000034E-1,1.640999913E-1,-1.556999981E-1
1.723998438E0,4.660999775E-1,6.021999717E-1,-1.794600010E0
1.743998438E0,-9.429999441E-2,-5.893999934E-1,-1.455999911E-1
1.763998438E0,-7.098000050E-1,-1.074999928E0,-5.248999596E-1
1.783998438E0,2.789999917E-2,-5.837999582E-1,6.870000064E-2
1.803998438E0,-5.110999942E-1,1.042500019E0,7.768999934E-1
1.823998438E0,6.109999865E-2,7.861999869E-1,-3.050000072E-1
1.843998438E0,5.363999605E-1,6.841999888E-1,5.288000107E-1
1.863998438E0,3.833999932E-1,5.964999795E-1,4.736000001E-1
1.883998438E0,-1.229200006E0,-5.320000052E-1,7.261999846E-1
1.903998438E0,3.111999929E-1,1.809999906E-2,1.614999920E-1
1.923998438E0,1.850600004E0,5.320999622E-1,-9.305999875E-1
1.943998438E0,4.369999766E-1,-6.669999957E-1,1.284999967E0
1.963998438E0,-3.204999864E-1,-1.452799916E0,1.534899950E0
1.983998438E0,-9.427999854E-1,-1.655399919E0,1.257200003E0
2.003998438E0,4.829999804E-2,-7.996000051E-1,1.699999906E-3
2.023998438E0,6.338999867E-1,-2.320999950E-1,-4.171999991E-1
2.043998438E0,-1.650299907E0,-1.219999976E-2,1.600999951E0
2.063998438E0,-9.048999548E-1,-9.699999690E-1,1.169099927E0
2.083998438E0,-1.308799982E0,-1.177099943E0,1.474999905E0
2.103998438E0,-9.251999855E-1,-1.038999915E0,4.305000007E-1
2.123998438E0,-1.957999915E-1,-6.165999770E-1,-2.008800030E0
2.143998438E0,-9.259999990E-1,-6.092999578E-1,-9.344999790E-1
2.163998438E0,1.859999895E-1,6.316999793E-1,4.570999742E-1
2.183998438E0,1.598299980E0,1.597999930E-1,-4.526999891E-1
2.203998438E0,2.302899837E0,7.807999849E-1,-7.759000063E-1
2.223998438E0,2.776199818E0,1.663899899E0,-1.856799960E0
2.243998438E0,1.626899958E0,1.569099903E0,1.650999933E-1
2.263998438E0,1.154199958E0,1.213799953E0,9.628999829E-1
2.283998438E0,2.327999920E-1,-2.978999913E-1,2.065999955E-1
2.304000000E0,-7.432000041E-1,-7.411999702E-1,3.446999788E-1
2.333998438E0,-1.250800014E0,1.168999970E-1,-7.218999863E-1
2.353998438E0,-6.807000041E-1,1.857999921E0,-2.387199879E0
2.373998438E0,4.790999889E-1,1.758599997E0,-2.915799856E0
2.393998438E0,5.232999921E-1,1.189599991E0,-1.912699938E0
2.413998438E0,1.902000010E-1,5.106999874E-1,-1.239199996E0
2.433998438E0,8.739999682E-2,-5.518000126E-1,6.359999776E-1
2.453998438E0,4.301999807E-1,7.400000095E-1,1.122999936E-1
2.473998438E0,1.558499932E0,1.623099923E0,-1.262899995E0
2.494000000E0,1.676999927E-1,2.754999995E-1,7.924999595E-1
2.514000000E0,-1.205099940E0,-5.985000134E-1,1.024999976E0
2.543998438E0,-1.726300001E0,-2.290400028E0,2.726899862E0
2.563998438E0,-3.732999861E-1,-1.216099977E0,1.389999986E0
2.583998438E0,1.468299985E0,-1.670799971E0,-8.675999641E-1
2.603998438E0,-3.251999915E-1,-1.190199971E0,-1.333099961E0
2.623998438E0,-1.363499999E0,-2.420699835E0,-2.001800060E0
2.643998438E0,-7.631999850E-1,-1.102299929E0,-2.000999928E0
2.663998438E0,-6.039999798E-2,-1.976399899E0,-2.141299963E0
2.683998438E0,1.199999928E0,-7.427999973E-1,-1.724599957E0
2.703998438E0,2.501099825E0,-9.807999730E-1,-2.577299833E0
2.723998438E0,4.365099907E0,9.440000057E-1,-3.141000032E0
2.743998438E0,3.538899899E0,2.881099939E0,-1.036000013E0
2.763998438E0,1.110299945E0,1.066699982E0,1.938199997E0
2.783998438E0,-7.906999588E-1,-1.290999949E-1,3.962999821E0
2.803998438E0,-2.452899933E0,-6.667999625E-1,1.977699995E0
2.824000000E0,-1.204800010E0,8.161000013E-1,-1.628999949E0
2.853998438E0,-4.860000014E-1,6.895999908E-1,-1.420099974E0
2.873998438E0,-5.321999788E-1,3.373000026E-1,1.851199985E0
2.893998438E0,-1.176900029E0,-3.929999769E-1,1.366699934E0
2.913998438E0,-1.021799922E0,-1.369999945E-1,2.087999880E-1
2.933998438E0,-9.845999479E-1,-4.041999876E-1,-5.967999697E-1
2.953998438E0,-1.416599989E0,-1.069700003E0,1.268000007E-1
2.974000000E0,-1.581099987E0,-1.120499969E0,5.109999776E-1
2.994000000E0,-6.315000057E-1,-1.216400027E0,1.349499941E0
3.023998438E0,2.705999911E-1,-6.633999944E-1,1.930999905E-1
3.043998438E0,1.822199941E0,3.300999999E-1,9.539999813E-2
3.063998438E0,4.925999939E-1,-2.026999891E-1,-8.069999516E-2
3.083998438E0,1.029600024E0,1.762999892E-1,1.533999890E-1
3.103998438E0,3.143999875E-1,2.474999875E-1,5.072999597E-1
3.124000000E0,4.565999806E-1,5.598999858E-1,-5.539999902E-2
3.154000000E0,6.894999743E-1,3.247999847E-1,-1.124099970E0
3.174000000E0,6.060999632E-1,4.364999831E-1,-3.569999933E-1
3.203998438E0,-1.112999991E-1,-9.061999917E-1,1.671999991E-1
3.223998438E0,1.232900023E0,2.054999918E-1,3.364999890E-1
3.243998438E0,-4.695999920E-1,-9.585999846E-1,5.322999954E-1
3.264000000E0,-2.206999958E-1,-6.826999784E-1,-1.014400005E0
3.294000000E0,5.155999660E-1,-1.332199931E0,-2.833999991E-1
3.323998438E0,-1.029899955E0,-9.443999529E-1,1.265999973E-1
3.344000000E0,6.764999628E-1,-6.857999563E-1,-9.831999540E-1
3.373998438E0,-2.113999844E0,-2.057499886E0,8.209999800E-1
3.393998438E0,-1.212199926E0,-1.015499949E0,1.090000011E-2
3.414000000E0,8.271999955E-1,-2.236999869E-1,-1.152799964E0
3.434000000E0,-5.066999793E-1,-7.742999792E-1,6.456999779E-1
3.463998438E0,1.595799923E0,7.545999885E-1,-6.626999974E-1
3.483998438E0,1.418499947E0,1.416999936E0,-1.307099938E0
3.503998438E0,-7.619999647E-1,8.887999654E-1,2.793000042E-1
3.523998438E0,-4.350999892E-1,1.327700019E0,-1.546999961E-1
3.544000000E0,-6.877999902E-1,4.025999904E-1,-8.776999712E-1
3.573998438E0,5.780999660E-1,1.241999984E0,-1.777599931E0
3.593998438E0,1.157599926E0,1.486999989E0,-1.207499981E0
3.613998438E0,7.649999857E-1,8.133999705E-1,9.583999515E-1
3.634000000E0,1.485499978E0,2.143800020E0,2.387999892E-1
3.663998438E0,1.168099999E0,1.240100026E0,1.395399928E0
3.683998438E0,5.394999981E-1,3.251999915E-1,1.353699923E0
3.703998438E0,2.061499834E0,9.256999493E-1,8.179000020E-1
3.723998438E0,1.932500005E0,1.435599923E0,-7.660000026E-2
3.743998438E0,9.047999978E-1,1.431699991E0,2.097499847E0
3.763998438E0,-1.621299982E0,1.140299916E0,2.257099867E0
3.783998438E0,-1.926599979E0,-7.552999854E-1,1.783899903E0
3.803998438E0,-9.009999633E-1,-2.293999940E-1,1.178799987E0
3.823998438E0,-1.832000017E-1,-2.534999847E-1,-6.804999709E-1
3.843998438E0,2.461299896E0,1.406799912E0,-8.570999503E-1
3.863998438E0,1.778599977E0,4.096999764E-1,3.779999912E-1
3.883998438E0,6.477000117E-1,-7.900999784E-1,1.143800020E0
3.903998438E0,-6.430000067E-2,-9.907999635E-1,9.363999963E-1
3.923998438E0,-1.276799917E0,-9.617999792E-1,1.141399980E0
3.943998438E0,-9.332000017E-1,-4.975999892E-1,6.444000006E-1
3.963998438E0,1.152999997E-1,-2.090199947E0,1.166100025E0
3.984000000E0,-5.302999616E-1,-2.669100046E0,2.915599823E0
4.013998438E0,1.238499999E0,-1.774699926E0,1.533599973E0
4.033998438E0,1.543200016E0,-1.595899940E0,3.109999895E-1
4.054000000E0,9.662999511E-1,8.969999850E-2,8.076999784E-1
4.083998438E0,-2.510000020E-2,-1.737100005E0,-3.113199949E0
4.103998438E0,-7.532999516E-1,-1.019799948E0,-9.975999594E-1
4.123998438E0,-9.253999591E-1,-1.276199937E0,-9.462999701E-1
4.143998438E0,7.303999662E-1,-1.463999897E-1,-2.276499987E0
4.163998438E0,8.810999990E-1,4.561999738E-1,-1.645299911E0
4.183998438E0,-1.548900008E0,-7.876999974E-1,-1.247200012E0
4.203998438E0,-1.752299905E0,-2.062099934E0,7.648999691E-1
4.223998438E0,1.600099921E0,-1.803999990E-1,7.125999928E-1
4.243998438E0,1.932299972E0,1.703599930E0,-6.953999996E-1
4.264000000E0,-9.319999814E-2,-9.899999499E-1,1.058300018E0
4.293998438E0,-2.299399853E0,-1.177699924E0,2.151799917E0
4.313998438E0,-3.661999941E0,-7.397999763E-1,-2.944000065E-1
4.334000000E0,-9.251999855E-1,1.298200011E0,-1.831499934E0
4.363998438E0,3.881199837E0,1.848199964E0,-4.896500111E0
4.384000000E0,4.215499878E0,9.797999859E-1,-3.693399906E0
4.413998438E0,2.113899946E0,7.094999552E-1,-5.507000089E-1
4.434000000E0,3.615299940E0,2.749699831E0,1.346300006E0
4.463998438E0,2.454299927E0,3.031100035E0,3.370100021E0
4.484000000E0,-6.974999905E-1,6.703999639E-1,2.528899908E0
4.513998438E0,-2.364599943E0,-7.732999921E-1,2.544600010E0
4.533998438E0,-2.202699900E0,2.892999947E-1,2.483599901E0
4.553998438E0,5.180999637E-1,2.184000015E-1,8.016999960E-1
4.573998438E0,3.774299860E0,1.493699908E0,-1.269699931E0
4.593998438E0,2.856799841E0,1.144199967E0,-1.686599970E0
4.613998438E0,6.099999696E-2,-5.992000103E-1,-6.380999684E-1
4.633998438E0,3.416999876E-1,1.518999934E-1,1.828999996E0
4.653998438E0,-5.230999589E-1,-7.299000025E-1,1.124499917E0
4.673998438E0,-9.903999567E-1,-9.097999930E-1,8.919000030E-1
4.693998438E0,1.108999997E-1,-9.297999740E-1,5.163999796E-1
4.713998438E0,3.217000067E-1,-5.128999949E-1,-3.559999913E-2
4.733998438E0,8.427999616E-1,-5.418999791E-1,-5.202000141E-1
4.753998438E0,1.412400007E0,-5.938999653E-1,-8.454999924E-1
4.773998438E0,4.237999916E-1,-4.821999967E-1,2.043000013E-1
4.793998438E0,4.999999702E-2,-1.205199957E0,1.083599925E0
4.813998438E0,1.723599911E0,-2.757000029E-1,9.009999633E-1
4.834003125E0,2.670599937E0,1.078699946E0,5.135999918E-1
4.863998438E0,-6.994999647E-1,-9.156000018E-1,7.567999959E-1
4.883998438E0,-1.827799916E0,-1.213400006E0,1.248999983E-1
4.903998438E0,-2.053599834E0,-1.023299932E0,-5.812999606E-1
4.923998438E0,-2.128999978E-1,-3.046000004E-1,-1.776799917E0
4.943998438E0,6.444000006E-1,5.667999983E-1,-1.260900021E0
4.963998438E0,1.092100024E0,1.660999954E-1,-1.309999973E-1
4.983998438E0,1.532999992E0,1.983999908E-1,6.290000081E-1
5.004000000E0,1.847299933E0,1.664199948E0,4.587000012E-1
5.033998438E0,-4.519999772E-2,7.339999825E-2,1.753499985E0
5.053998438E0,-3.308999836E-1,3.299999982E-2,1.052600026E0
5.073998438E0,-1.833999902E-1,-2.775000036E-1,-4.463999867E-1
5.093998438E0,-7.885999680E-1,-5.889999866E-2,4.179999828E-1
5.114000000E0,2.467999905E-1,6.832000017E-1,1.542999893E-1
5.134000000E0,1.826499939E0,9.301999807E-1,3.077999949E-1
5.163998438E0,5.580999851E-1,-5.261999965E-1,1.344599962E0
5.183998438E0,1.616199970E0,1.214599967E0,-3.828999996E-1
5.203998438E0,7.141000032E-1,8.770999908E-1,-5.999999703E-4
5.223998438E0,-2.749999985E-2,-5.396000147E-1,6.911000013E-1
5.243998438E0,-3.649999946E-2,-5.444999933E-1,1.142899990E0
5.263998438E0,2.038899899E0,8.118999600E-1,2.014999986E-1
5.283998438E0,1.167799950E0,8.366000056E-1,1.107999921E0
5.303998438E0,8.156999946E-1,1.002900004E0,7.675999999E-1
5.323998438E0,4.596999884E-1,3.542000055E-1,4.452999830E-1
5.343998438E0,-8.863999844E-1,-1.762000024E-1,6.984999776E-1
5.363998438E0,-1.944999993E-1,-1.402999908E-1,-5.613999963E-1
5.383998438E0,1.112200022E0,1.225999951E0,-7.271999717E-1
5.403998438E0,8.613999486E-1,1.141199946E0,-4.669999778E-1
5.424000000E0,-5.514000058E-1,-6.789999604E-1,1.020599961E0
5.453998438E0,6.916999817E-1,-1.075399995E0,5.163999796E-1
5.474000000E0,1.167699933E0,9.109999985E-2,-2.453999966E-1
5.503998438E0,8.986999989E-1,1.058999971E-1,-4.086000025E-1
5.523998438E0,-1.772499919E0,-2.204799891E0,2.096199989E0
5.543998438E0,1.203499913E0,-5.541999936E-1,-4.875999987E-1
5.563998438E0,9.930999875E-1,2.568999827E-1,-1.056200027E0
5.583998438E0,-5.049999952E-1,-2.538000047E-1,-2.762999833E-1
5.603998438E0,5.599999800E-3,-4.699999839E-2,7.422999740E-1
5.623998438E0,-5.796999931E-1,-5.205999613E-1,1.629199982E0
5.643998438E0,-4.100000020E-3,-6.765999794E-1,-3.181000054E-1
5.663998438E0,1.589900017E0,1.477999985E-1,-5.909999609E-1
5.683998438E0,1.965899944E0,6.419000030E-1,-3.743000031E-1
5.703998438E0,5.112999678E-1,-8.208000064E-1,1.663100004E0
5.723998438E0,1.095499992E0,6.139000058E-1,2.717999816E-1
5.743998438E0,2.565000057E-1,-8.428999782E-1,9.569999576E-2
5.763998438E0,1.053499937E0,2.291999906E-1,-3.170999885E-1
5.783998438E0,1.251699924E0,8.233000040E-1,-1.972000003E-1
5.803998438E0,-5.005999804E-1,-3.700999916E-1,4.459999800E-1
5.823998438E0,2.142999917E-1,-4.975999892E-1,-4.381999969E-1
5.843998438E0,-8.379999548E-2,-4.430999756E-1,-9.348999858E-1
5.863998438E0,1.136799932E0,3.841999769E-1,-1.231599927E0
5.883998438E0,7.755999565E-1,2.293999940E-1,1.445000023E-1
5.903998438E0,8.929999918E-2,-4.239999875E-2,8.230999708E-1
5.923998438E0,-2.554999888E-1,-6.448999643E-1,1.402999908E-1
5.943998438E0,1.671399951E0,1.309999973E-1,-1.810400009E0
5.963998438E0,2.584899902E0,8.700000048E-1,-2.358799934E0
5.983998438E0,3.776700020E0,2.159800053E0,-1.138800025E0
6.003998438E0,2.274799824E0,1.467599988E0,-2.769899845E0
6.023998438E0,-2.589999884E-2,3.470199823E0,-3.934999943E0
6.043998438E0,2.428499937E0,5.107199669E0,-4.549900055E0
6.063998438E0,7.095599651E0,4.294499874E0,4.854199886E0
6.083998438E0,7.614899635E0,2.457399845E0,1.342000008E1
6.103998438E0,5.541599751E0,-4.318999946E-1,2.006189919E1
6.123998438E0,8.769399643E0,-1.483600020E0,1.973839951E1
6.143998438E0,1.285419941E1,-3.911099911E0,1.140559959E1
6.164000000E0,9.416600227E0,-3.319499969E0,-6.818999648E-1
6.184000000E0,2.493899822E0,-2.725399971E0,-1.066059971E1
6.213998438E0,-2.203999996E0,-3.550099850E0,-1.069659996E1
6.233998438E0,-4.966999888E-1,-2.782500029E0,-7.596999645E0
6.253998438E0,1.707899928E0,-2.122599840E0,-5.995299816E0
6.273998438E0,2.037499905E0,-8.278999925E-1,-5.078999996E0
6.293998438E0,2.945199966E0,-1.084800005E0,-4.130099773E0
6.313998438E0,2.157899857E0,-1.375399947E0,-3.986799955E0
6.334000000E0,2.504099846E0,-1.049499989E0,-4.034699917E0
6.363998438E0,2.862399817E0,-4.943999946E-1,-3.557999849E0
6.383998438E0,2.668499947E0,-1.049999967E-1,-4.254300117E0
6.403998438E0,2.086400032E0,-9.399999864E-3,-3.727899790E0
6.423998438E0,1.762599945E0,-2.049999982E-1,-2.095799923E0
6.444000000E0,1.519999981E0,-6.948999763E-1,-1.664499998E0
6.473998438E0,1.254599929E0,5.909999833E-2,-3.105000019E0
6.493998438E0,1.036800027E0,-2.107999921E-1,-2.530999899E0
6.513998438E0,9.637999535E-1,-7.260000110E-1,-1.412799954E0
6.533998438E0,5.769999623E-1,-1.118999958E0,-5.652999878E-1
6.553998438E0,4.494999945E-1,-1.312399983E0,-1.192199945E0
6.573998438E0,2.272999883E-1,-8.155999780E-1,-3.256699800E0
6.593998438E0,3.084000051E-1,-6.579999924E-1,-4.050300121E0
6.613998438E0,2.129999921E-2,-1.137300014E0,-3.233399868E0
6.633998438E0,1.158999950E-1,-1.845299959E0,-2.108799934E0
6.653998438E0,3.807999790E-1,-1.813499928E0,-1.705899954E0
6.673998438E0,3.930999935E-1,-1.867599964E0,-2.400599957E0
6.693998438E0,1.644999981E-1,-1.450299978E0,-3.332399845E0
6.713998438E0,-2.662000060E-1,-2.583199978E0,-5.311299801E0
6.733998438E0,-8.898999691E-1,-3.439800024E0,-4.037799835E0
6.753998438E0,1.124999970E-1,-3.587699890E0,-1.725199938E0
6.773998438E0,2.798099995E0,-1.626500010E0,-1.583400011E0
6.793998438E0,1.494499922E0,-7.112999558E-1,-2.753599882E0
6.813998438E0,4.062999785E-1,-1.773399949E0,-3.045799971E0
6.833998438E0,5.499999970E-3,-7.258999944E-1,-2.634199858E0
6.853998438E0,8.810999990E-1,1.812999994E-1,7.993999720E-1
6.873998438E0,4.039299965E0,9.686999917E-1,2.238299847E0
6.893998438E0,4.498300076E0,1.546999961E-1,2.837899923E0
6.914000000E0,1.725600004E0,-2.601999938E-1,4.010900021E0
6.943998438E0,1.893799901E0,-1.195500016E0,9.344799995E0
6.963998438E0,4.454299927E0,-4.027999938E-1,8.879699707E0
6.984000000E0,5.881199837E0,-3.685999811E-1,8.054100037E0
7.013998438E0,6.125599861E0,5.381999612E-1,7.671799660E0
7.034023438E0,4.947400093E0,-6.015999913E-1,8.823599815E0
7.064000000E0,3.115299940E0,-1.018800020E0,3.470000029E0
7.093998438E0,2.243999958E0,-1.294799924E0,6.416999698E-1
7.114000000E0,2.229300022E0,-1.010200024E0,-6.650999784E-1
7.143998438E0,1.071699977E0,-4.726999998E-1,-2.343299866E0
7.163998438E0,-3.926999867E-1,-1.061900020E0,-1.328400016E0
7.183998438E0,4.368099689E0,2.468099833E0,-9.067899704E0
7.203998438E0,7.568399906E0,5.313399792E0,-1.361439991E1
7.223998438E0,5.534100056E0,2.111000061E0,-3.622099876E0
7.243998438E0,1.247799993E0,-1.440699935E0,3.154999971E0
7.263998438E0,-1.227800012E0,-4.150999784E-1,6.048099995E0
7.284000000E0,-2.018999904E-1,-1.704999954E-1,2.850100040E0
7.314000000E0,1.277599931E0,6.539999843E-1,9.819999933E-1
7.343998438E0,-4.349999875E-2,-6.861999631E-1,-9.984999895E-1
7.363998438E0,-3.819999993E-1,-2.651000023E-1,-4.614999890E-1
7.383998438E0,2.859999835E-1,3.621999919E-1,-1.092000008E-1
7.403998438E0,1.554600000E0,-7.799999788E-3,6.502000093E-1
7.423998438E0,1.603299975E0,-2.344999909E-1,9.379999638E-1
7.443998438E0,1.535300016E0,-1.737999916E-1,8.050000072E-1
7.463998438E0,1.060199976E0,-8.992999792E-1,1.481599927E0
7.483998438E0,3.118000031E-1,4.925999939E-1,6.482999921E-1
7.503998438E0,2.979999967E-2,-1.649999976E0,6.184999943E-1
7.523998438E0,5.669000149E-1,5.340999961E-1,-7.543999553E-1
7.543998438E0,2.721999884E-1,-5.760999918E-1,-1.107499957E0
7.563998438E0,3.640999794E-1,-1.007399917E0,-6.642000079E-1
7.583998438E0,7.763999701E-1,-3.091999888E-1,-8.472999930E-1
7.603998438E0,2.648999989E-1,-1.006999984E-1,-6.135999560E-1
7.623998438E0,-2.379999906E-1,-6.121000051E-1,-2.274999917E-1
7.643998438E0,-1.392000020E-1,-1.727000028E-1,-2.899999963E-3
7.663998438E0,2.080000006E-2,2.654999793E-1,8.054999709E-1
7.683998438E0,-4.305999875E-1,9.649999440E-2,7.568999529E-1
7.703998438E0,-6.075999737E-1,-3.321999907E-1,5.518999696E-1
7.723998438E0,-3.120000064E-1,-1.020399928E0,-2.309999987E-2
7.743998438E0,-2.913999856E-1,2.401999980E-1,2.497999966E-1
7.763998438E0,-2.408999950E-1,5.659999847E-1,-3.084999919E-1
7.783998438E0,4.620999992E-1,-3.319999948E-2,-4.842999876E-1
7.803998438E0,-3.892000020E-1,7.001000047E-1,-7.699999958E-2
7.823998438E0,-3.463999927E-1,-1.754999906E-1,5.336999893E-1
7.843998438E0,2.433999926E-1,-3.395999968E-1,-1.941999942E-1
7.863998438E0,5.407999754E-1,4.106999934E-1,7.059999555E-2
7.884000000E0,8.093999624E-1,1.159799933E0,-1.068199992E0
7.904000000E0,2.930999994E-1,8.485999703E-1,-9.835000038E-1
7.933998438E0,-7.109000087E-1,-1.468999982E-1,7.189999521E-2
7.953998438E0,-3.646999896E-1,1.365000010E-1,-9.238999486E-1
7.973998438E0,5.351999998E-1,6.577999592E-1,2.259999886E-2
7.993998438E0,7.956999540E-1,1.407199979E0,-3.510999978E-1
8.013998438E0,-1.263999939E-1,3.390000015E-2,1.096300006E0
8.033998438E0,1.665999889E-1,4.296000004E-1,-4.968999922E-1
8.053998438E0,3.759999946E-2,1.552999914E-1,-1.464999914E-1
8.073998438E0,1.649999917E-1,1.044999957E0,-1.617100000E0
8.093998438E0,1.450999975E-1,-1.229999959E-1,-7.990999818E-1
8.114000000E0,8.949999511E-2,9.705999494E-1,-1.010999978E-1
8.143998438E0,-4.299999680E-3,-6.539999694E-2,8.813999891E-1
8.163998438E0,-7.799999788E-3,-2.762999833E-1,9.499999881E-1
8.183998438E0,1.551999897E-1,1.090999991E-1,-3.395999968E-1
8.203998438E0,-3.869999945E-1,3.604999781E-1,-7.727999687E-1
8.223998438E0,-6.425999999E-1,3.119999915E-2,4.732999802E-1
8.243998438E0,-9.526000023E-1,-1.785999984E-1,4.755999744E-1
8.263998438E0,-1.292599916E0,-1.014599919E0,7.074999809E-1
8.283998438E0,3.822999895E-1,1.789999940E-2,-4.924999774E-1
8.303998438E0,1.587499976E0,4.773999751E-1,-8.514999747E-1
8.323998438E0,1.128199935E0,1.367699981E0,-2.892999947E-1
8.343998438E0,4.499000013E-1,-1.459999941E-2,-7.629999518E-2
8.363998438E0,2.187999934E-1,-5.336999893E-1,4.693999887E-1
8.383998438E0,-6.819999963E-2,9.910000116E-2,-2.381999940E-1
8.403998438E0,6.146999598E-1,6.621999741E-1,-7.920999527E-1
8.423998438E0,-3.559999913E-2,6.882999539E-1,1.479000002E-1
8.443998438E0,-7.761999965E-1,-1.184999943E-1,1.496500015E0
8.463998438E0,-1.060500026E0,-7.050000131E-2,9.136999846E-1
8.483998438E0,-8.463999629E-1,-2.428999990E-1,-4.452999830E-1
8.503998438E0,6.405999660E-1,4.839999974E-2,-1.890399933E0
8.523998438E0,9.021999836E-1,1.083999947E-1,-4.105999768E-1
8.543998438E0,1.499999966E-2,4.540999830E-1,1.301599979E0
8.563998438E0,-3.956999779E-1,-6.881999969E-1,1.540499926E0
8.583998438E0,-4.259999841E-2,-6.322999597E-1,1.409000009E-1
8.603998438E0,7.453999519E-1,6.660999656E-1,-8.337000012E-1
8.623998438E0,8.026999831E-1,-6.099999696E-2,-7.806999683E-1
8.643998438E0,-5.378000140E-1,-6.882999539E-1,6.462999582E-1
8.664000000E0,-1.012699962E0,-5.557999611E-1,5.794000030E-1
8.693998438E0,-2.004999965E-1,2.364999950E-1,-1.814000010E-1
8.714000000E0,5.530999899E-1,8.892999887E-1,-1.090000011E-2
8.743998438E0,4.585999846E-1,5.974999666E-1,-6.899999827E-2
8.763998438E0,8.969999850E-2,-4.149999917E-1,3.838000000E-1
8.783998438E0,4.432999790E-1,3.073999882E-1,-5.493999720E-1
8.803998438E0,1.020900011E0,1.028499961E0,2.819999866E-2
8.823998438E0,3.885999918E-1,6.252999902E-1,1.515499949E0
8.844009375E0,9.878000021E-1,3.332999945E-1,5.904999971E-1
8.873998438E0,1.213899970E0,9.238999486E-1,-9.218999743E-1
8.893998438E0,3.109000027E-1,2.536000013E-1,-2.638999820E-1
8.914000000E0,-5.385999680E-1,-4.422999918E-1,7.899999619E-1
8.943998438E0,5.720999837E-1,2.576999962E-1,-6.259999871E-1
8.963998438E0,2.113999873E-1,5.848999619E-1,-1.349000037E-1
8.983998438E0,-1.000399947E0,1.829999872E-2,8.188999891E-1
9.003998438E0,-1.622200012E0,-1.528999954E-1,1.262599945E0
9.023998438E0,-1.208599925E0,-7.594000101E-1,8.794999719E-1
9.043998438E0,9.907999635E-1,-4.856999815E-1,-2.382999957E-1
9.063998438E0,1.528800011E0,8.065999746E-1,-1.113399982E0
9.083998438E0,6.523000002E-1,-3.359999955E-1,-1.621000022E-1
9.103998438E0,3.197000027E-1,-5.314999819E-1,3.718000054E-1
9.123998438E0,1.217999980E-1,-7.432000041E-1,-4.659999907E-2
9.143998438E0,6.834999919E-1,-9.623000026E-1,-4.742999971E-1
9.163998438E0,4.588999748E-1,-1.405999959E-1,-4.254999757E-1
9.183998438E0,-3.599999938E-3,-1.926999986E-1,1.961999983E-1
9.204000000E0,-5.688999891E-1,-4.004999995E-1,5.159000158E-1
9.224000000E0,-6.838999987E-1,-1.853999943E-1,-1.853999943E-1
9.253998438E0,-6.758999825E-1,-6.176999807E-1,6.419999897E-2
9.273998438E0,-2.768000066E-1,-2.106999904E-1,2.186999917E-1
9.293998438E0,5.433999896E-1,4.481999874E-1,-5.722999573E-1
9.313998438E0,6.093999743E-1,1.253999919E-1,-6.017000079E-1
9.333998438E0,-5.076999664E-1,1.799999923E-2,-2.542999983E-1
9.353998438E0,-4.152999818E-1,-1.377099991E0,1.040000003E-2
9.373998438E0,9.483000040E-1,-6.999999750E-4,-7.233999968E-1
9.393998438E0,6.245999932E-1,5.376999974E-1,-4.219999909E-1
9.413998438E0,-1.137999967E-1,-4.561999738E-1,1.336399913E0
9.433998438E0,-3.691000044E-1,-6.049999595E-1,1.206499934E0
9.453998438E0,3.757999837E-1,-2.062999904E-1,-2.739999890E-1
9.474000000E0,6.180999875E-1,1.323400021E0,-8.125000000E-1
9.503998438E0,-1.921999902E-1,-7.499999832E-3,1.120100021E0
9.523998438E0,-4.083999991E-1,1.129699945E0,1.679999977E-1
9.543998438E0,4.910000041E-2,8.337000012E-1,-2.190999985E-1
9.563998438E0,9.499999881E-2,7.482999563E-1,-1.366000026E-1
9.583998438E0,1.210999936E-1,4.693999887E-1,-2.782000005E-1
9.603998438E0,1.060400009E0,1.130900025E0,-1.302099943E0
9.623998438E0,6.164000034E-1,-1.630999893E-1,-2.732000053E-1
9.643998438E0,4.845999777E-1,1.255999953E-1,4.821999967E-1
9.663998438E0,9.999999404E-2,-5.266000032E-1,8.712999821E-1
9.684000000E0,4.057999849E-1,-9.993000031E-1,8.176999688E-1
9.704000000E0,1.045999974E-1,-3.497999907E-1,6.710000038E-1
9.733998438E0,-2.339999974E-1,-6.599000096E-1,-4.680999815E-1
9.753998438E0,-7.522999644E-1,-2.149999887E-2,-1.004799962E0
9.773998438E0,-1.459399939E0,-1.726199985E0,-2.798999846E-1
9.793998438E0,-1.619699955E0,-9.393999577E-1,-3.139999807E-1
9.813998438E0,-4.364999831E-1,-2.300000004E-2,-4.587999880E-1
9.833998438E0,9.666000009E-1,3.349999785E-1,-5.964999795E-1
9.853998438E0,7.277999520E-1,7.731999755E-1,-1.477399945E0
9.873998438E0,6.889999658E-2,-3.840999901E-1,6.110999584E-1
9.893998438E0,-4.460999966E-1,9.014999866E-1,1.075600028E0
9.913998438E0,-1.290999949E-1,6.030000001E-2,1.304399967E0
9.933998438E0,3.586999774E-1,1.002599955E0,-3.172999918E-1
9.953998438E0,1.180099964E0,9.178999662E-1,-1.341399908E0
9.973998438E0,7.336999774E-1,5.404999852E-1,-4.346999824E-1
9.994000000E0,-7.620000094E-2,3.802999854E-1,1.039199948E0
1.002399844E1,3.861999810E-1,1.084800005E0,6.859999895E-2
1.004399844E1,2.158999890E-1,2.477999926E-1,-2.520999908E-1
1.006399844E1,5.291999578E-1,8.613999486E-1,-1.830500007E0
1.008399844E1,2.973999977E-1,1.388999969E-1,-7.163999677E-1
1.010399844E1,7.239999622E-2,5.307999849E-1,2.111999989E-1
1.012400000E1,6.042999625E-1,5.999000072E-1,2.258999944E-1
1.015399844E1,3.849999905E-1,6.524999738E-1,8.908999562E-1
1.017399844E1,-1.454000026E-1,-1.423999965E-1,7.638999820E-1
1.019399844E1,3.132999837E-1,1.519999951E-1,-2.184000015E-1
1.021399844E1,1.697999984E-1,-6.771000028E-1,-4.705999792E-1
1.023400000E1,6.186000109E-1,1.383000016E-1,-1.290699959E0
1.026399844E1,-1.186100006E0,-1.079900026E0,4.936999977E-1
1.028399844E1,-1.052799940E0,-1.416800022E0,1.503299952E0
1.030399844E1,3.084000051E-1,-8.690999746E-1,1.171999946E-1
1.032399844E1,1.090299964E0,6.538999677E-1,-5.634999871E-1
1.034400000E1,-2.272999883E-1,-5.819999799E-2,4.499999806E-2
1.037399844E1,-4.892999828E-1,-2.897000015E-1,5.152999759E-1
1.039399844E1,-3.856000006E-1,-1.492999941E-1,3.416999876E-1
1.041399844E1,7.633000016E-1,6.352999806E-1,-1.371599913E0
1.043400000E1,-1.099999994E-2,-1.132399917E0,2.324000001E-1
1.046399844E1,1.067799926E0,3.059999943E-1,-3.998000026E-1
1.048400000E1,1.447499990E0,6.055999994E-1,-1.335399985E0
1.051399844E1,-1.234999970E-1,-5.145999789E-1,-9.499999881E-2
1.053399844E1,-1.144299984E0,2.243999988E-1,9.422000051E-1
1.055399844E1,-2.007799864E0,-1.010399938E0,1.857999921E0
1.057399844E1,-1.123299956E0,-5.787000060E-1,1.171899915E0
1.059399844E1,-2.701999843E-1,-7.970000058E-2,1.062699914E0
1.061399844E1,-3.058999777E-1,-2.615000010E-1,3.873899937E0
1.063399844E1,2.175699949E0,9.537999630E-1,-4.059700012E0
1.065399844E1,2.090899944E0,9.712999463E-1,-3.579599857E0
1.067399844E1,1.533899903E0,1.161899924E0,-2.463899851E0
1.069399844E1,-5.087000132E-1,-8.203999996E-1,9.296000004E-1
1.071399844E1,-1.848999977E0,-2.791999876E-1,2.317999840E0
1.073399844E1,-1.906799912E0,-9.256999493E-1,1.750399947E0
1.075399844E1,-1.175499916E0,-3.409999907E-1,1.725499988E0
1.077399844E1,-3.755999804E-1,-5.724999905E-1,1.297999918E-1
1.079399844E1,4.339999855E-1,4.594999850E-1,4.637899876E0
1.081399844E1,1.118899941E0,9.844999909E-1,-2.680599928E0
1.083399844E1,2.083099842E0,1.768199921E0,-4.791899681E0
1.085399844E1,1.470600009E0,5.379999876E-1,-1.849499941E0
1.087399844E1,-2.045999914E-1,7.141999602E-1,9.149000049E-1
1.089399844E1,-8.655999899E-1,3.883000016E-1,1.906599998E0
1.091399844E1,-1.800899982E0,-6.159999967E-1,2.275699854E0
1.093399844E1,-1.462899923E0,4.934999943E-1,2.662699938E0
1.095399844E1,-1.070599914E0,-2.698000073E-1,1.913699985E0
1.097399844E1,1.007399917E0,6.000000052E-3,-2.559999935E-2
1.099400000E1,2.631599903E0,1.318099976E0,-4.231999874E0
1.102399844E1,2.369799852E0,1.241299987E0,-3.093099833E0
1.104400000E1,2.080000006E-2,-1.396999955E-1,9.609999657E-1
1.107399844E1,-9.584999681E-1,-8.152999878E-1,1.969399929E0
1.109399844E1,-6.074000001E-1,-7.609999925E-2,9.947999716E-1
1.111400000E1,-6.599999964E-2,-4.057999849E-1,4.594999850E-1
1.114399844E1,-1.081999987E-1,-4.502999783E-1,-1.107999980E-1
1.116399844E1,8.912999630E-1,-9.299999475E-2,-4.191100121E0
1.118399844E1,2.574999928E-1,-7.612999678E-1,-2.606799841E0
1.120399844E1,-1.177999973E-1,-1.142300010E0,-6.664999723E-1
1.122399844E1,-1.540300012E0,-1.621999979E0,1.390599966E0
1.124399844E1,-1.898799896E0,-1.574800014E0,2.210799932E0
1.126399844E1,-1.145200014E0,-1.972799897E0,1.025399923E0
1.128400000E1,-7.834999561E-1,-9.592999816E-1,-2.951000035E-1
1.131400000E1,-2.018999904E-1,-1.678599954E0,8.096999526E-1
1.134400000E1,1.043900013E0,-7.313999534E-1,-1.438499928E0
1.137400000E1,1.553399920E0,1.106599927E0,-2.887300014E0
1.139400000E1,3.084000051E-1,1.157599926E0,-5.177999735E-1
1.142399844E1,-1.530499935E0,-1.228000000E-1,1.379699945E0
1.144399844E1,-2.994899988E0,-1.195400000E0,1.398399949E0
1.146399844E1,-1.146099925E0,8.134999871E-1,1.143499970E0
1.148399844E1,-1.594000012E-1,4.827999771E-1,4.879299641E0
1.150399844E1,-4.749999940E-1,3.032000065E-1,2.318300009E0
1.152399844E1,2.013200045E0,9.031999707E-1,-4.708899975E0
1.154399844E1,2.169999838E0,6.409999728E-1,-6.924299717E0
1.156399844E1,1.178200006E0,7.292999625E-1,-4.055399895E0
1.158399844E1,-3.258000016E-1,-3.508999944E-1,9.099999815E-2
1.160399844E1,-1.486799955E0,-8.230999708E-1,3.724099874E0
1.162399844E1,-1.835599899E0,-4.503999949E-1,2.234599829E0
1.164399844E1,-2.674999833E-1,-1.331999898E-1,1.604699969E0
1.166399844E1,-7.561999559E-1,5.218999982E-1,1.141600013E0
1.168399844E1,-1.525699973E0,-4.937999845E-1,1.718899965E0
1.170399844E1,-2.175999880E-1,-2.492999882E-1,-3.077699900E0
1.172400000E1,1.752499938E0,5.512999892E-1,-5.600499630E0
1.175399844E1,-1.047899961E0,-1.200199962E0,-4.199999869E-1
1.177399844E1,-1.164799929E0,-9.564999938E-1,2.620999813E-1
1.179399844E1,-2.439899921E0,-1.366799951E0,1.763799906E0
1.181399844E1,-1.907299995E0,-1.648699999E0,1.111899972E0
1.183399844E1,-1.243799925E0,-1.504799962E0,1.193099976E0
1.185401250E1,-8.953999877E-1,-6.955999732E-1,8.078999519E-1
1.188399844E1,1.597999930E-1,-7.770000100E-1,-2.333999872E0
1.190399844E1,2.470599890E0,8.531000018E-1,-7.069999695E0
1.192399844E1,1.923499942E0,-3.209999949E-2,-4.859899998E0
1.194399844E1,7.987999916E-1,1.314199924E0,-2.206500053E0
1.196399844E1,-1.332099915E0,-9.049999714E-1,1.399699926E0
1.198399844E1,-2.498100042E0,-8.659999818E-2,2.566299915E0
1.200399844E1,-3.361099958E0,-2.055399895E0,2.645099878E0
1.202399844E1,-1.178599954E0,1.744000018E-1,1.752799988E0
1.204399844E1,3.515000045E-1,4.851000011E-1,9.640000015E-2
1.206399844E1,1.540599942E0,1.205299973E0,2.282899857E0
1.208399844E1,1.763199925E0,1.493799925E0,-3.729799986E0
1.210399844E1,2.316299915E0,1.891099930E0,-4.690000057E0
1.212399844E1,6.602999568E-1,1.457399964E0,-3.120299816E0
1.214399844E1,-1.764499903E0,-9.401999712E-1,1.270999908E0
1.216399844E1,-1.642799973E0,1.046599984E0,1.439099908E0
1.218399844E1,-1.608399987E0,-2.881000042E-1,2.524299860E0
1.220399844E1,-1.064299941E0,1.576499939E0,2.020099878E0
1.222399844E1,-8.147999644E-1,1.037400007E0,1.672999978E0
1.224399844E1,-9.623000026E-1,1.078199983E0,3.191799879E0
1.226399844E1,1.229099989E0,2.104799986E0,-2.575899839E0
1.228399844E1,2.013799906E0,1.477800012E0,-5.356299877E0
1.230399844E1,1.879699945E0,1.750899911E0,-5.137099743E0
1.232399844E1,-6.829999685E-1,-3.290999830E-1,-5.054000020E-1
1.234399844E1,-1.311900020E0,9.449999779E-2,3.004499912E0
1.236399844E1,-1.597999930E0,-9.515999556E-1,3.321899891E0
1.238400000E1,-8.497999907E-1,-6.696999669E-1,2.503599882E0
1.241399844E1,-1.799999923E-2,-1.710599899E0,1.465899944E0
1.243399844E1,1.132599950E0,-9.988999963E-1,-9.014999866E-1
1.245399844E1,1.016199946E0,-1.698199987E0,-3.436599970E0
1.247399844E1,5.123999715E-1,1.850000024E-2,-6.172199726E0
1.249399844E1,-1.517399907E0,-1.117399931E0,-3.441900015E0
1.251399844E1,-2.380699873E0,-2.678499937E0,-8.799999952E-3
1.253399844E1,-1.499199986E0,-1.192299962E0,1.122599959E0
1.255399844E1,-4.918999970E-1,-5.139999837E-2,9.529999495E-1
1.257399844E1,3.579999879E-2,1.472999901E-1,1.125000000E0
1.259399844E1,3.558999896E-1,8.224999905E-1,1.796999931E0
1.261399844E1,5.689999834E-2,1.214599967E0,1.510999948E-1
1.263399844E1,-2.090999931E-1,1.763999909E-1,-2.071999907E-1
1.265399844E1,-7.146999836E-1,8.754000068E-1,-1.240999937E0
1.267399844E1,5.419999734E-2,5.511999726E-1,-2.602599859E0
1.269399844E1,6.455999613E-1,5.048999786E-1,-2.260900021E0
1.271399844E1,-8.349999785E-2,-2.489999868E-2,-7.707999945E-1
1.273399844E1,1.517999917E-1,3.231000006E-1,2.212999910E-1
1.275399844E1,-5.142999887E-1,5.228999853E-1,5.658000112E-1
1.277399844E1,-1.042199969E0,-1.242999956E-1,1.643899918E0
1.279399844E1,-1.358600020E0,-7.699999958E-3,7.863000035E-1
1.281399844E1,-1.772099972E0,-5.396000147E-1,5.501199722E0
1.283399844E1,-1.952600002E0,-1.405999959E-1,9.315999746E-1
1.285399844E1,-2.239999920E-2,-2.630000003E-2,-2.727900028E0
1.287399844E1,1.640599966E0,3.220999837E-1,-4.566999912E0
1.289399844E1,2.488299847E0,-9.119999409E-2,-4.520199776E0
1.291400000E1,5.205000043E-1,-1.829999983E-1,-5.543000102E-1
1.294399844E1,-2.688099861E0,-1.328499913E0,3.191399813E0
1.296399844E1,-2.924000025E0,-1.175599933E0,2.625000000E0
1.298399844E1,-1.878499985E0,3.610000014E-2,4.184999764E-1
1.300399844E1,-9.153999686E-1,7.663999796E-1,-1.839399934E0
1.302399844E1,1.099999994E-1,2.351000011E-1,-1.171899915E0
1.304399844E1,1.870599985E0,2.245199919E0,-5.070300102E0
1.306399844E1,2.305099964E0,1.985199928E0,-3.732800007E0
1.308399844E1,1.688499928E0,2.046299934E0,-1.237900019E0
1.310400000E1,2.768000066E-1,6.006999612E-1,1.600099921E0
1.312400000E1,-1.377699971E0,9.287999868E-1,2.930699825E0
1.314400000E1,-9.162999988E-1,2.481999993E-1,2.829200029E0
1.316400000E1,-5.516999960E-1,9.966999888E-1,1.776799917E0
1.318400000E1,-1.153399944E0,-3.590000048E-2,5.489999652E-1
1.320400000E1,-4.856999815E-1,6.859999895E-1,3.405699968E0
1.323399844E1,9.800999761E-1,5.439000130E-1,-2.246199846E0
1.325399844E1,2.183500051E0,1.410300016E0,-4.341599941E0
1.327399844E1,1.297199965E0,1.606699944E0,-2.075500011E0
1.329399844E1,-1.461599946E0,3.461999893E-1,2.064199924E0
1.331400000E1,-2.957099915E0,-6.104999781E-1,3.682600021E0
1.334399844E1,-1.583400011E0,5.072000027E-1,9.215999842E-1
1.336401094E1,-8.155999780E-1,-3.109999932E-2,3.790999949E-1
1.339399844E1,5.489999652E-1,5.519999862E-1,3.413299799E0
1.341401094E1,3.071999848E-1,3.039999865E-2,1.093699932E0
1.344399844E1,2.362200022E0,6.997999549E-1,-5.169300079E0
1.346400625E1,1.793299913E0,8.139999509E-1,-3.269899845E0
1.349399844E1,-1.562699914E0,-1.444000006E-1,2.028100014E0
1.351399844E1,-2.447700024E0,-1.206499934E0,3.818599939E0
1.353399844E1,-1.307899952E0,-1.006199956E0,1.784199953E0
1.355399844E1,3.076999784E-1,-2.637999952E-1,-1.779000014E-1
1.357399844E1,7.209999561E-1,1.074599981E0,-1.143299937E0
1.359399844E1,-7.299999706E-3,7.295999527E-1,7.759999484E-2
1.361399844E1,-8.337999582E-1,-4.117999971E-1,5.688999891E-1
1.363399844E1,1.363899946E0,8.531000018E-1,-4.182799816E0
1.365399844E1,3.346099854E0,2.625499964E0,-5.631299973E0
1.367399844E1,2.216899872E0,2.190799952E0,-2.003000021E0
1.369399844E1,-6.854999661E-1,4.095999897E-1,2.525899887E0
1.371399844E1,-2.828899860E0,-8.839999884E-2,4.473599911E0
1.373399844E1,-3.021600008E0,-1.759999990E-1,3.601899862E0
1.375399844E1,-1.867899895E0,4.357999861E-1,1.059199929E0
1.377399844E1,-5.372999907E-1,5.934000015E-1,-3.968999982E-1
1.379399844E1,-1.378700018E0,-2.899999917E-2,5.283499718E0
1.381399844E1,7.421000004E-1,1.301499963E0,-1.169999957E0
1.383399844E1,3.490000010E0,2.181400061E0,-7.248499870E0
1.385399844E1,3.254199982E0,1.887899995E0,-5.414499760E0
1.387399844E1,1.245399952E0,6.545000076E-1,-5.388999581E-1
1.389399844E1,-6.006000042E-1,4.615999758E-1,2.709699869E0
1.391399844E1,-6.020999551E-1,-4.431999922E-1,4.820399761E0
1.393399844E1,2.021999955E-1,8.575999737E-1,2.679800034E0
1.395399844E1,7.825999856E-1,1.336999983E-1,1.691000015E-1
1.397399844E1,-7.694999576E-1,-9.501999617E-1,8.213999867E-1
1.399399844E1,-3.097499847E0,-1.826200008E0,3.356999874E0
1.401399844E1,-1.872200012E0,-2.189199924E0,-1.875799894E0
1.403399844E1,2.132900000E0,-1.100399971E0,-5.580999851E0
1.405399844E1,3.909799814E0,-4.499999806E-3,-5.847300053E0
1.407399844E1,2.624199867E0,7.534999847E-1,-2.567899942E0
1.409399844E1,-1.173699975E0,-9.459999949E-2,2.272399902E0
1.411399844E1,-3.211199999E0,-1.112399936E0,2.387300014E0
1.413399844E1,-3.698299885E0,-2.344199896E0,4.082299709E0
1.415399844E1,-1.161800027E0,2.402999997E-1,1.195999980E0
1.417399844E1,1.566699982E0,1.410200000E0,-5.320000052E-1
1.419399844E1,1.855199933E0,1.518899918E0,-7.742999792E-1
1.421399844E1,9.226999879E-1,3.324999809E-1,-1.007300019E0
1.423399844E1,-1.437600017E0,-5.403999686E-1,-9.302999973E-1
1.425399844E1,-1.451499939E0,-1.023599982E0,-1.715099931E0
1.427399844E1,-1.759299994E0,-6.613000035E-1,1.542999893E-1
1.429399844E1,-3.931999803E-1,-6.959999800E-1,5.119000077E-1
1.431399844E1,-3.646999896E-1,5.625999570E-1,1.548499942E0
1.433399844E1,-4.772999883E-1,4.387999773E-1,2.979999781E-1
1.435399844E1,1.059999969E-2,3.461999893E-1,-3.227999806E-1
1.437399844E1,-6.323999763E-1,8.980000019E-1,-1.224799991E0
1.439399844E1,-7.182999849E-1,-8.760000020E-2,-8.215999603E-1
1.441399844E1,-3.892999887E-1,2.625900030E0,-1.601400018E0
1.443399844E1,-5.906000137E-1,9.769999981E-1,3.913999796E-1
1.445399844E1,-8.653999567E-1,1.105499983E0,7.245000005E-1
1.447399844E1,2.318999916E-1,8.968999982E-1,-1.307999939E-1
1.449399844E1,-9.579999745E-2,5.361999869E-1,1.779000014E-1
1.451399844E1,-1.498399973E0,7.924000025E-1,-1.496099949E0
1.453399844E1,-1.551899910E0,-8.290999532E-1,5.949999765E-2
1.455400000E1,-6.286999583E-1,-1.031899929E0,-1.066999957E-1
1.458399844E1,-2.935000062E-1,-4.320999980E-1,-3.892999887E-1
1.460400000E1,-2.542999983E-1,-1.614599943E0,-3.066000044E-1
1.463399844E1,-7.908999920E-1,-3.640999794E-1,-1.748199940E0
1.465399844E1,-1.551699996E0,7.746999860E-1,-8.262999654E-1
1.467399844E1,-1.464599967E0,-5.559999868E-2,7.251999974E-1
1.469399844E1,-1.163699985E0,5.264999866E-1,-6.202999949E-1
1.471400000E1,-1.440599918E0,-5.683000088E-1,-8.790999651E-1
1.474399844E1,-5.992999673E-1,-5.241000056E-1,-1.600399971E0
1.476399844E1,-1.252000034E-1,8.416000009E-1,-1.382900000E0
1.478399844E1,1.330000013E-1,1.002799988E0,-2.536999881E-1
1.480399844E1,-8.199999928E-1,4.759999737E-2,1.508399963E0
1.482399844E1,-4.441999793E-1,5.658999681E-1,6.243999600E-1
1.484399844E1,8.497999907E-1,8.847000003E-1,-1.271700025E0
1.486399844E1,1.340999961E0,1.533999920E0,-2.315199852E0
1.488399844E1,1.064599991E0,1.708199978E0,-1.321799994E0
1.490399844E1,9.413999915E-1,-1.239999942E-2,-5.990999937E-1
1.492399844E1,-5.299999937E-2,8.913999796E-1,-3.425000012E-1
1.494399844E1,-7.621999979E-1,1.741999984E-1,8.546999693E-1
1.496399844E1,-1.516199946E0,-5.559999943E-1,1.356000006E-1
1.498399844E1,-1.826900005E0,-2.585500002E0,-5.286999941E-1
1.500399844E1,-1.045499921E0,-1.762000024E-1,-3.006899834E0
1.502399844E1,-6.407999992E-1,-1.358000040E-1,-2.562799931E0
1.504399844E1,-4.287000000E-1,-9.268999696E-1,-3.953000009E-1
1.506399844E1,-9.846999645E-1,2.099999925E-3,1.959399939E0
1.508399844E1,-1.245999932E-1,-2.171999961E-1,1.481199980E0
1.510399844E1,7.421000004E-1,1.884899974E0,-3.941999972E-1
1.512399844E1,4.405999780E-1,1.773399949E0,-8.552999496E-1
1.514399844E1,2.229999900E-1,1.701900005E0,1.978999972E-1
1.516399844E1,8.679999709E-1,1.979900002E0,-1.762000024E-1
1.518399844E1,2.289999872E-1,1.452199936E0,3.199999928E-1
1.520399844E1,1.051900029E0,2.530999899E0,-1.727000028E-1
1.522399844E1,1.266699910E0,2.383999825E0,-3.429999948E-2
1.524399844E1,2.425999939E-1,2.377699852E0,3.197999895E-1
1.526399844E1,-1.858000010E-1,1.517399907E0,1.839399934E0
1.528399844E1,1.096999943E-1,2.224599838E0,5.575999618E-1
1.530399844E1,-2.338299990E0,-6.858999729E-1,3.488000035E-1
1.532399844E1,-2.513900042E0,-1.351699948E0,-4.412999749E-1
1.534399844E1,-1.961199999E0,-2.256899834E0,1.551000029E-1
1.536399844E1,-4.795999825E-1,-7.928999662E-1,-1.256999969E0
1.538399844E1,-2.339999974E-1,-1.059100032E0,-1.272699952E0
1.540399844E1,-2.163699865E0,-1.519199967E0,1.722999930E0
1.542399844E1,-1.086300015E0,-1.695699930E0,9.297999740E-1
1.544399844E1,-2.838999927E-1,-1.350499988E0,-6.674999595E-1
1.546399844E1,-3.416999876E-1,-7.723000050E-1,-2.068599939E0
1.548399844E1,5.429999828E-1,-1.021499991E0,-2.043499947E0
1.550399844E1,-3.799999952E-1,-2.595999837E-1,-1.867000014E-1
1.552399844E1,-1.078499913E0,-3.385999799E-1,2.250999957E-1
1.554399844E1,-2.297199965E0,-6.926999688E-1,2.033999920E0
1.556399844E1,-2.020999908E0,-5.787999630E-1,1.129299998E0
1.558399844E1,1.683999896E-1,-5.004999638E-1,-1.219499946E0
1.560399844E1,1.123999953E0,3.226999938E-1,-2.443599939E0
1.562399844E1,2.056400061E0,2.336999923E-1,-2.802999973E0
1.564399844E1,3.221099854E0,2.512399912E0,-3.976399899E0
1.566399844E1,2.197000027E0,1.993699908E0,-3.085899830E0
1.568399844E1,-7.990999818E-1,1.097399950E0,7.925999761E-1
1.570399844E1,-2.317199945E0,-8.108999729E-1,4.520800114E0
1.572399844E1,-8.385999799E-1,7.116000056E-1,2.848799944E0
1.574399844E1,-7.141999602E-1,1.355799913E0,7.193999887E-1
1.576399844E1,-2.487999946E-1,1.969799995E0,-2.540699959E0
1.578399844E1,-1.402599931E0,3.116999865E-1,-3.188999891E-1
1.580399844E1,-1.948199987E0,8.344999552E-1,1.628199935E0
1.582399844E1,-1.530799985E0,-2.727299929E0,4.989999771E0
1.584399844E1,-4.314000010E-1,1.624899983E0,7.501999736E-1
1.586399844E1,6.229000092E-1,3.093999922E-1,-1.550999999E0
1.588399844E1,-3.999999899E-4,-5.047999620E-1,-2.121500015E0
1.590399844E1,2.789999962E0,-1.490499973E0,-5.495999813E0
1.592399844E1,2.547499895E0,1.115199924E0,-3.651399851E0
1.594399844E1,1.780699968E0,2.505399942E0,-3.985299826E0
1.596399844E1,3.860999942E-1,-5.270999670E-1,1.320299983E0
1.598399844E1,-8.125000000E-1,-3.500000015E-2,3.739099979E0
1.600399844E1,-2.088000059E0,-1.406999946E0,2.828099966E0
1.602399844E1,-1.942399979E0,3.887999952E-1,-3.605999947E-1
1.604399844E1,-1.091899991E0,-1.664699912E0,-1.810400009E0
1.606399844E1,-3.283999860E-1,-1.556299925E0,-1.211699963E0
1.608399844E1,1.093599916E0,5.911999941E-1,-2.024100065E0
1.610399844E1,1.410899997E0,1.960899949E0,-1.436499953E0
1.612399844E1,-1.252999902E-1,2.045300007E0,-2.129999921E-2
1.614399844E1,-2.290999889E0,-1.278000027E-1,2.587499857E0
1.616399844E1,-2.042299986E0,-4.960999787E-1,2.441299915E0
1.618399844E1,-1.814000010E-1,-4.969999790E-1,1.698699951E0
1.620399844E1,1.804199934E0,1.823599935E0,-8.830999732E-1
1.622399844E1,1.731999993E0,2.579200029E0,-1.461099982E0
1.624399844E1,-2.329999954E-2,1.699800014E0,5.654999614E-1
1.626399844E1,-3.061999977E-1,1.193099976E0,2.982999980E-1
1.628399844E1,-6.493999958E-1,1.443399906E0,1.929299951E0
1.630399844E1,-1.000000000E0,1.169999968E-2,5.084999800E-1
1.632399844E1,1.399999950E-2,-1.483999938E-1,2.077899933E0
1.634399844E1,1.967599988E0,-6.473000050E-1,-4.527999759E-1
1.636399844E1,2.550999880E0,3.504000008E-1,-3.798899889E0
1.638399844E1,1.187600017E0,4.057999849E-1,-3.395799875E0
1.640399844E1,2.762999833E-1,-1.578999907E-1,-3.835999966E-1
1.642399844E1,-8.303999901E-1,-5.346999764E-1,1.783699989E0
1.644399844E1,-9.393999577E-1,4.854999781E-1,2.627399921E0
1.646399844E1,-1.896699905E0,1.401199937E0,2.820699930E0
1.648399844E1,-3.951399803E0,-5.018000007E-1,5.320499897E0
1.650399844E1,-5.669999719E-1,-1.009099960E0,3.675899982E0
1.652399844E1,1.862999916E0,-8.920999765E-1,-1.877399921E0
1.654399844E1,2.109200001E0,6.599999666E-1,-6.463899612E0
1.656399844E1,4.930000007E-2,4.077000022E-1,3.932699919E0
1.658399844E1,1.459299922E0,2.222499847E0,-7.615999579E-1
1.660399844E1,2.179299831E0,-6.583999991E-1,-3.413699865E0
1.662400156E1,2.932699919E0,1.357499957E0,-5.648299694E0
1.665399844E1,4.221099854E0,1.394899964E0,-6.239899635E0
1.667399844E1,1.159999967E0,1.144099951E0,-3.494599819E0
1.669399844E1,-5.029999837E-2,7.616999745E-1,2.415400028E0
1.671399844E1,-1.590199947E0,2.765599966E0,3.495599985E0
1.673400000E1,-6.592299938E0,-1.149199963E0,8.432099342E0
1.676399844E1,-1.871599913E0,-6.390000135E-2,6.543499947E0
1.678399844E1,4.065799713E0,-8.026999831E-1,-4.283199787E0
1.680400781E1,2.715899944E0,1.459900022E0,-4.749700069E0
1.683399844E1,7.591999769E-1,3.827999830E0,-1.574499965E0
1.685399844E1,3.474999964E-1,8.220999837E-1,-2.586499929E0
1.687399844E1,-1.955999970E0,-1.615099907E0,6.276199818E0
1.689399844E1,1.355599999E0,3.699800014E0,4.615200043E0
1.691399844E1,2.161399841E0,-1.039999947E-1,-3.099299908E0
1.693399844E1,-1.948699951E0,-9.849999845E-2,-1.265999973E-1
1.695399844E1,1.340000033E-1,1.644500017E0,-1.230199933E0
1.697399844E1,-6.933000088E-1,1.319800019E0,7.620999813E-1
1.699399844E1,-2.643499851E0,5.077999830E-1,7.839599609E0
1.701399844E1,1.158399940E0,-4.457999766E-1,4.915499687E0
1.703399844E1,2.409699917E0,-2.814199924E0,-9.378999472E-1
1.705399844E1,1.718599916E0,-1.681399941E0,-2.708400011E0
1.707399844E1,5.984999657E0,1.850099921E0,-5.309000015E0
1.709400000E1,4.032299995E0,-3.944999874E-1,-1.280399919E0
1.711400000E1,3.021299839E0,1.223299980E0,4.910000041E-2
1.713400000E1,-8.841999769E-1,-3.166999817E-1,-1.851399899E0
1.716401562E1,-3.685299873E0,-3.830000013E-2,2.026299953E0
1.719399844E1,-8.808999658E-1,-9.296000004E-1,2.655099869E0
1.721400000E1,-6.311999559E-1,1.525299907E0,-1.805899978E0
1.723400000E1,-4.440099716E0,-3.104300022E0,4.463399887E0
1.726399844E1,3.374199867E0,-1.164999977E-1,-1.367299914E0
1.728399844E1,3.567699909E0,-5.350999832E-1,-6.847199917E0
1.730399844E1,-2.230000019E0,-1.821699977E0,1.011099935E0
1.732399844E1,-3.509699821E0,-1.192700028E0,7.573999763E-1
1.734399844E1,-1.942799926E0,-4.528299809E0,1.464599967E0
1.736399844E1,3.878299952E0,2.867300034E0,-4.898999691E0
1.738399844E1,2.591899872E0,1.588999927E-1,-2.776999950E0
1.740399844E1,1.902300000E0,-1.374000013E-1,1.872299910E0
1.742400000E1,-2.299599886E0,-8.776999712E-1,-2.177199841E0
1.745399844E1,-1.134500027E0,6.140000001E-2,-2.971699953E0
1.747399844E1,-7.409999967E-1,-3.847999871E-1,-2.066699982E0
1.749399844E1,2.034000009E-1,6.935999990E-1,-9.858999848E-1
1.751399844E1,-1.875899911E0,1.525000036E-1,1.144699931E0
1.753399844E1,-4.517000020E-1,8.374999762E-1,7.269999981E-1
1.755399844E1,-9.430999756E-1,-1.102800012E0,9.653999805E-1
1.757399844E1,5.888000131E-1,8.615999818E-1,-2.362299919E0
1.759399844E1,-9.111999869E-1,1.752299905E0,-3.495399952E0
1.761399844E1,-1.616999984E0,1.679299951E0,-3.125999868E-1
1.763399844E1,-1.261399984E0,8.617999554E-1,3.638599873E0
1.765399844E1,-1.309700012E0,-4.728999734E-1,4.100800037E0
1.767399844E1,1.493099928E0,-8.180999756E-1,-9.351999760E-1
1.769399844E1,4.022099972E0,1.231699944E0,-7.931599617E0
1.771399844E1,5.557099819E0,6.929999828E0,-8.984399796E0
1.773400000E1,-4.828999937E-1,3.148799896E0,-2.529999912E-1
1.775400000E1,-4.686800003E0,-1.454699993E0,5.337899685E0
1.778399844E1,3.804600000E0,6.352200031E0,-4.084199905E0
1.780399844E1,-8.588999510E-1,-9.009999782E-2,-1.213099957E0
1.782399844E1,-3.620999813E0,-2.103899956E0,3.411099911E0
1.784399844E1,3.740999997E-1,2.560499907E0,-2.979799986E0
1.786399844E1,-6.661699772E0,-2.584800005E0,8.384300232E0
1.788399844E1,-3.330099821E0,-1.491999924E-1,5.980599880E0
1.790399844E1,8.901100159E0,2.499599934E0,-7.510099888E0
1.792399844E1,1.679499984E0,1.949599981E0,-2.809199810E0
1.794399844E1,-7.551699638E0,-2.699999884E-2,5.513499737E0
1.796400156E1,6.060699940E0,-2.474299908E0,-1.101999998E0
1.799399844E1,4.837699890E0,2.524999857E0,-1.031009960E1
1.801399844E1,-2.050299883E0,3.698199987E0,7.809999585E-2
1.803399844E1,-1.139079952E1,-3.841699839E0,1.263649940E1
1.805399844E1,-5.808899879E0,-1.107310009E1,1.618239975E1
1.807399844E1,7.785399914E0,8.677199364E0,-1.270399952E1
1.809400000E1,3.141799927E0,4.380199909E0,-1.291239929E1
1.812399844E1,-1.038850021E1,-3.014799833E0,9.952099800E0
1.814399844E1,-4.861999750E-1,-7.141399860E0,8.813099861E0
1.816399844E1,-3.201900005E0,4.246999919E-1,1.214900017E0
1.818399844E1,-4.100599766E0,-3.757699966E0,2.817499876E0
1.820399844E1,4.719500065E0,-6.269299984E0,-1.739199996E0
1.822399844E1,1.535349941E1,1.143700004E0,-1.729179955E1
1.824399844E1,9.440599442E0,7.759899616E0,-1.170429993E1
1.826399844E1,4.817999899E-1,2.063999921E-1,2.253700018E0
1.828399844E1,-8.300499916E0,-2.976599932E0,1.141449928E1
1.830399844E1,-5.057600021E0,-3.336699963E0,6.039000034E0
1.832399844E1,-1.438399911E0,-7.906000018E-1,-4.517899990E0
1.834399844E1,1.310000010E-2,6.155499935E0,-2.447599888E0
1.836399844E1,-2.540699959E0,4.928100109E0,4.831999838E-1
1.838399844E1,-9.233300209E0,-8.252300262E0,1.161559963E1
1.840399844E1,-1.169099927E0,-9.519800186E0,9.677100182E0
1.842400156E1,5.241799831E0,2.410599947E0,-5.866799831E0
1.845399844E1,9.554100037E0,7.703999877E-1,-1.290600014E1
1.847399844E1,1.504939938E1,6.225499630E0,-1.036880016E1
1.849399844E1,1.116799951E0,-5.028599739E0,-1.321499944E0
1.851399844E1,-6.840799809E0,-2.579299927E0,1.216629982E1
1.853399844E1,-1.105219936E1,3.039899826E0,2.997699976E0
1.855399844E1,-1.320479965E1,-3.509299994E0,8.724699974E0
1.857399844E1,-1.324039936E1,-5.185299873E0,1.032259941E1
1.859399844E1,5.210999846E-1,-8.210399628E0,4.681099892E0
1.861399844E1,1.511159992E1,9.241000175E0,-1.722439957E1
1.863399844E1,8.414599419E0,8.821700096E0,-1.790139961E1
1.865399844E1,7.028800011E0,-6.959399700E0,-2.814699888E0
1.867399844E1,3.088299990E0,-4.579299927E0,1.385229969E1
1.869399844E1,6.775999665E-1,3.764699936E0,-8.445300102E0
1.871399844E1,-1.126489925E1,-5.213500023E0,1.412479973E1
1.873399844E1,-7.041100025E0,2.841999829E-1,7.084999681E-1
1.875399844E1,5.902999640E-1,-7.838500023E0,6.657599926E0
1.877399844E1,1.078170013E1,7.464499950E0,-4.419199944E0
1.879399844E1,9.621500015E0,5.329199791E0,-1.741239929E1
1.881399844E1,6.707999706E-1,4.016799927E0,5.382999778E-1
1.883399844E1,-1.386889935E1,-5.802799702E0,1.353649998E1
1.885400000E1,2.419999838E0,1.783999920E0,3.829299927E0
1.888399844E1,8.351699829E0,-1.140000001E-1,-1.636789894E1
1.890399844E1,6.904999614E-1,-4.330199718E0,-2.999999821E-1
1.892399844E1,-9.101999998E-1,1.818199992E0,-6.542999744E-1
1.894399844E1,-2.189300060E0,-2.648599863E0,3.322299957E0
1.896399844E1,-9.438599586E0,-1.278900027E0,1.070489979E1
1.898399844E1,-8.791899681E0,2.361799955E0,1.178969955E1
1.900399844E1,5.790099621E0,3.549199820E0,-4.342599869E0
1.902399844E1,5.028199673E0,1.075500011E0,-1.106919956E1
1.904399844E1,-6.514699936E0,-1.819599986E0,-4.000999928E-1
1.906399844E1,-7.778199673E0,2.591599941E0,3.799700022E0
1.908399844E1,2.437399864E0,-3.312099934E0,4.205999970E-1
1.910399844E1,2.810499907E0,-8.157999992E0,7.402799606E0
1.912399844E1,-4.245999753E-1,8.063199997E0,-4.123999774E-1
1.914399844E1,6.505699635E0,4.619999826E-1,-3.483999968E0
1.916399844E1,9.017600060E0,3.066499949E0,-1.403669930E1
1.918399844E1,-2.153300047E0,-5.167399883E0,1.510900021E0
1.920399844E1,-1.296799946E1,-1.314000040E-1,1.353039932E1
1.922400156E1,-5.084099770E0,4.534199715E0,3.026599884E0
1.925399844E1,-4.664499760E0,-7.064499855E0,9.403200150E0
1.927399844E1,-4.591399670E0,2.976899862E0,4.034800053E0
1.929399844E1,1.272349930E1,-5.721099854E0,-1.511539936E1
1.931399844E1,1.989299965E1,-1.073890018E1,-7.058199883E0
1.933399844E1,9.094299316E0,1.058020020E1,-2.190040016E1
1.935399844E1,1.122270012E1,1.252799988E0,-3.274499893E0
1.937399844E1,-3.258499861E0,2.575299978E0,7.880099773E0
1.939399844E1,-1.223049927E1,-4.994699955E0,1.190329933E1
1.941399844E1,-1.593619919E1,-2.355999947E-1,9.107600212E0
1.943399844E1,-9.479499817E0,-3.091300011E0,-2.510499954E0
1.945399844E1,-1.409500003E0,-3.921499968E0,-5.868199825E0
1.947399844E1,4.470699787E0,8.428999782E-1,-4.285599709E0
1.949399844E1,6.392999649E0,6.217199802E0,-2.103800058E0
1.951399844E1,3.265499830E0,2.648599863E0,1.771799922E0
1.953399844E1,-2.240200043E0,-3.252199888E0,1.044549942E1
1.955399844E1,-2.991999984E-1,-7.367999554E-1,3.398199797E0
1.957399844E1,3.323999941E-1,2.089999914E-1,-2.999699831E0
1.959399844E1,1.608699918E0,-2.975199938E0,-4.954899788E0
1.961399844E1,1.298399925E0,-1.516999960E0,-2.219399929E0
1.963399844E1,3.467899799E0,7.999999798E-4,-5.570399761E0
1.965399844E1,4.367099762E0,3.755800009E0,-1.292799950E0
1.967399844E1,-9.742999673E-1,3.013499975E0,3.983999789E-1
1.969399844E1,-5.702300072E0,5.135900021E0,7.824999809E0
1.971399844E1,-9.844200134E0,8.957799911E0,4.701799870E0
1.973399844E1,-3.225399971E0,-2.215299845E0,-3.689999878E-2
1.975399844E1,1.510999948E-1,-9.139599800E0,7.714999914E-1
1.977399844E1,2.495100021E0,-1.480899930E0,3.393899918E0
1.979399844E1,1.030029964E1,4.731400013E0,-8.875000000E0
1.981399844E1,1.252869987E1,7.298799992E0,-7.023799896E0
1.983399844E1,2.125399828E0,2.919899940E0,4.691599846E0
1.985399844E1,-3.757299900E0,-2.580299854E0,9.683699608E0
1.987399844E1,-6.019700050E0,-4.157799721E0,5.130399704E0
1.989399844E1,-3.400199890E0,-2.524299860E0,-2.869999968E-2
1.991399844E1,1.576000005E-1,2.733399868E0,-5.182199955E0
1.993399844E1,1.482399940E0,2.650099993E0,-2.552599907E0
1.995399844E1,2.659999952E-2,2.047899961E0,-7.949999720E-2
1.997399844E1,-8.050000072E-1,-1.172199965E0,2.367399931E0
1.999399844E1,-1.200899959E0,-1.593599916E0,2.085999966E0
2.001399844E1,1.171899915E0,2.268599987E0,-1.691699982E0
2.003399844E1,2.297699928E0,1.390699983E0,-2.026000023E0
2.005399844E1,2.699800014E0,-1.807999969E0,1.855999947E0
2.007399844E1,2.793699980E0,-1.563399911E0,1.082800031E0
2.009400000E1,1.610199928E0,-4.324999750E-1,-5.687999725E-1
2.012399844E1,8.101999760E-1,-1.560000032E-1,-2.030099869E0
2.014399844E1,-2.327899933E0,-3.146999776E-1,-9.512999654E-1
2.016399844E1,-5.128799915E0,-8.000999689E-1,2.849799871E0
2.018399844E1,-5.677399635E0,-4.407999814E-1,3.737900019E0
2.020400000E1,-2.546799898E0,-1.251699924E0,2.558899879E0
2.023399844E1,3.190899849E0,2.522000074E-1,-1.562799931E0
2.025399844E1,4.220999718E0,2.444999963E-1,-3.416999817E0
2.027399844E1,4.076299667E0,-3.337000012E-1,-2.789199829E0
2.029399844E1,3.045799971E0,-1.894000024E-1,-2.217700005E0
2.031399844E1,2.084100008E0,-3.928999901E-1,-1.379299998E0
2.033399844E1,-2.267999947E-1,-5.985000134E-1,2.289999872E-1
2.035399844E1,-1.450899959E0,-1.341399908E0,1.324000001E0
2.037399844E1,-2.204499960E0,-5.252000093E-1,4.869999737E-2
2.039399844E1,-3.043599844E0,-1.526999921E-1,1.184000015E0
2.041402500E1,-2.604399920E0,4.271000028E-1,2.814599991E0
2.044399844E1,-4.069999978E-2,1.028900027E0,2.089999914E0
2.046399844E1,1.892099977E0,1.295799971E0,1.037599921E0
2.048399844E1,1.742499948E0,1.316100001E0,1.289199948E0
2.050399844E1,4.226000011E-1,1.434299946E0,1.124599934E0
2.052399844E1,-4.357999861E-1,2.381999940E-1,1.609399915E0
2.054399844E1,-7.903999686E-1,1.441999912E0,-4.641999900E-1
2.056399844E1,-8.327999711E-1,2.906399965E0,-3.425099850E0
2.058399844E1,-1.090199947E0,1.250000000E0,-2.531399965E0
2.060399844E1,1.904999912E-1,8.574000001E-1,-1.943300009E0
2.062399844E1,6.771000028E-1,2.872000039E-1,6.256999969E-1
2.064399844E1,3.437500000E0,9.078999758E-1,6.412999630E-1
2.066399844E1,3.120299816E0,7.315999866E-1,1.022799969E0
2.068399844E1,2.442800045E0,3.348999918E-1,7.857999802E-1
2.070399844E1,2.046200037E0,-9.688999653E-1,8.744999766E-1
2.072399844E1,5.223999619E-1,-6.207000017E-1,2.227900028E0
2.074399844E1,-7.003999949E-1,-1.291700006E0,2.532999992E0
2.076400000E1,3.026999831E-1,-1.511299968E0,6.146999598E-1
2.079399844E1,2.041899920E0,-1.988999963E0,-2.612099886E0
2.081399844E1,1.741299987E0,-5.594999790E-1,-2.767899990E0
2.083400000E1,-6.554999948E-1,-4.734999835E-1,3.509999812E-1
2.086399844E1,-3.044299841E0,4.310999811E-1,1.466899991E0
2.088399844E1,-2.147099972E0,1.275099993E0,3.233999908E-1
2.090399844E1,1.199899912E0,2.464299917E0,-9.256999493E-1
2.092399844E1,2.894899845E0,3.765599966E0,-1.263700008E0
2.094399844E1,2.345399857E0,4.315700054E0,-2.099999972E-2
2.096399844E1,1.127200007E0,2.598899841E0,1.782799959E0
2.098399844E1,-4.380000010E-2,1.310099959E0,3.789099932E0
2.100399844E1,7.390999794E-1,1.871699929E0,1.680899978E0
2.102399844E1,4.736999869E-1,1.432199955E0,-5.289999768E-2
2.104400156E1,1.933299899E0,1.449599981E0,-1.192499995E0
2.107399844E1,2.830099821E0,1.110000014E0,-1.112999991E-1
2.109399844E1,6.459000111E-1,4.203999937E-1,1.604999900E0
2.111399844E1,9.854999781E-1,-6.539999843E-1,2.305099964E0
2.113399844E1,1.125299931E0,1.675999910E-1,-8.720000088E-2
2.115399844E1,-3.154999912E-1,-1.167099953E0,-2.393999994E-1
2.117399844E1,-8.556999564E-1,-1.101300001E0,-4.799999762E-3
2.119399844E1,6.362999678E-1,-1.104200006E0,2.539999969E-2
2.121399844E1,-1.001999974E0,-8.743999600E-1,8.042999506E-1
2.123399844E1,1.116999984E-1,-1.202000022E0,1.497099996E0
2.125399844E1,1.256899953E0,-1.970000006E-2,-5.960999727E-1
2.127399844E1,2.497099876E0,-5.882999897E-1,-6.511999965E-1
2.129399844E1,1.215499997E0,1.603099942E0,-6.505999565E-1
2.131399844E1,1.176199913E0,9.932999611E-1,6.784999967E-1
2.133399844E1,2.561699867E0,9.253000021E-1,1.325199962E0
2.135399844E1,1.038900018E0,2.609299898E0,-1.099999994E-2
2.137399844E1,1.023299932E0,1.069199920E0,4.242999852E-1
2.139399844E1,6.209999919E-1,9.499999881E-1,6.692999601E-1
2.141399844E1,3.761999905E-1,1.835199952E0,-8.789999783E-2
2.143399844E1,-3.529999852E-1,9.009000063E-1,1.353399992E0
2.145399844E1,1.020200014E0,1.002099991E0,2.017799854E0
2.147399844E1,2.027799845E0,1.727699995E0,1.133899927E0
2.149399844E1,3.096400023E0,1.429000020E0,1.121099949E0
2.151399844E1,2.633100033E0,7.531999946E-1,4.609999806E-2
2.153399844E1,2.106999874E0,-3.294999897E-1,1.955999881E-1
2.155399844E1,-2.424999923E-1,3.924999833E-1,-3.946999907E-1
2.157399844E1,-6.258999705E-1,-1.878999919E-1,2.883000076E-1
2.159399844E1,8.337999582E-1,5.047000051E-1,-1.988999993E-1
2.161399844E1,5.895999670E-1,8.181999922E-1,4.717999995E-1
2.163399844E1,2.622699976E0,7.414999604E-1,1.097599983E0
2.165399844E1,2.153300047E0,1.467999935E0,6.972999573E-1
2.167399844E1,3.049000025E0,-2.592000067E-1,9.038999677E-1
2.169399844E1,1.085799932E0,7.444999814E-1,9.337999821E-1
2.171399844E1,7.505999804E-1,5.680999756E-1,1.639199972E0
2.173399844E1,1.492999911E0,1.239499927E0,4.139999747E-1
2.175399844E1,5.546000004E-1,3.163000047E-1,1.807099938E0
2.177399844E1,9.010999799E-1,-2.985999882E-1,7.897999883E-1
2.179399844E1,8.937000036E-1,-5.009999871E-1,-6.378999949E-1
2.181399844E1,9.425999522E-1,-3.978999853E-1,-2.278599977E0
2.183399844E1,1.326599956E0,-4.681999981E-1,-1.601300001E0
2.185400000E1,1.221199989E0,-2.354999930E-1,-3.495999873E-1
2.188399844E1,6.917999983E-1,-1.466300011E0,1.437199950E0
2.190399844E1,-7.673999667E-1,-1.261199951E0,2.446499825E0
2.192399844E1,-2.951000035E-1,-1.540899992E0,1.505199909E0
2.194399844E1,1.186999977E-1,-1.115299940E0,-1.199899912E0
2.196399844E1,8.226000071E-1,-7.443000078E-1,-2.347199917E0
2.198399844E1,1.630499959E0,-9.552999735E-1,-1.194000006E0
2.200399844E1,9.007999897E-1,-4.716999829E-1,-2.644999921E-1
2.202400156E1,-6.420999765E-1,-1.216799974E0,3.498999774E-1
2.205399844E1,-2.337999940E-1,-5.166999698E-1,1.309899926E0
2.207399844E1,3.743999898E-1,2.683999836E-1,5.539000034E-1
2.209399844E1,1.572999954E0,4.699999988E-1,-1.838999987E-1
2.211399844E1,1.786299944E0,5.676000118E-1,-4.221999943E-1
2.213399844E1,1.184700012E0,2.845000029E-1,-8.959999681E-2
2.215399844E1,1.243899941E0,1.103799939E0,1.868999898E-1
2.217399844E1,1.169399977E0,9.505999684E-1,6.875000000E-1
2.219399844E1,1.281700015E0,-3.729999810E-2,1.268199921E0
2.221399844E1,1.121799946E0,1.733999997E-1,9.480999708E-1
2.223399844E1,5.654999614E-1,2.565999925E-1,-8.601999879E-1
2.225399844E1,-2.053999901E-1,-1.078499913E0,-1.003099918E0
2.227399844E1,-7.893999815E-1,-9.745999575E-1,-8.287000060E-1
2.229399844E1,-1.263499975E0,-1.413299918E0,-7.959999889E-2
2.231399844E1,-5.717999935E-1,-1.689000010E0,3.683999777E-1
2.233399844E1,3.750000000E-1,-1.153999925E0,1.964000016E-1
2.235399844E1,7.651999593E-1,-1.233799934E0,-3.658999801E-1
2.237399844E1,-2.279999852E-2,-1.259500027E0,-5.868999958E-1
2.239399844E1,-1.337599993E0,-1.640299916E0,-1.036499977E0
2.241399844E1,-1.445099950E0,-2.163699865E0,-1.596399903E0
2.243399844E1,-1.240800023E0,-1.460099936E0,-1.973999977E0
2.245399844E1,-5.565999746E-1,-9.196999669E-1,-1.700399995E0
2.247399844E1,4.140000045E-2,-3.242999911E-1,1.317999959E-1
2.249399844E1,3.849000037E-1,-6.963999867E-1,1.633399963E0
2.251399844E1,1.283200026E0,3.229999840E-1,5.827999711E-1
2.253399844E1,1.340499997E0,4.717999995E-1,-3.314999938E-1
2.255399844E1,4.188999832E-1,-7.536000013E-1,-6.135999560E-1
2.257399844E1,-3.484999835E-1,-1.381899953E0,-7.590999603E-1
2.259399844E1,-1.294399977E0,-1.442999959E0,-5.494999886E-1
2.261399844E1,-3.854999840E-1,-1.798900008E0,-1.842999905E-1
2.263399844E1,4.800000042E-2,-1.513599992E0,-2.052000016E-1
2.265399844E1,3.989999890E-1,-1.934399962E0,-8.799999952E-3
2.267399844E1,-5.108999610E-1,-1.282599926E0,-1.569800019E0
2.269399844E1,-2.014699936E0,-2.032899857E0,-1.489699960E0
2.271399844E1,-2.932299852E0,-2.087699890E0,-2.302500010E0
2.273399844E1,-2.612999916E0,-2.688499928E0,-2.417399883E0
2.275399844E1,-2.104500055E0,-2.165099859E0,-7.585999966E-1
2.277399844E1,-2.958000004E-1,-1.431199908E0,2.161999941E-1
2.279399844E1,1.184099913E0,-1.044399977E0,5.494999886E-1
2.281399844E1,1.857800007E0,-6.523999572E-1,-1.218299985E0
2.283399844E1,8.046000004E-1,-4.445999861E-1,-1.735700011E0
2.285399844E1,-5.335000157E-1,1.316999942E-1,-1.719599962E0
2.287399844E1,-9.828999639E-1,-1.432999969E-1,-3.116999865E-1
2.289399844E1,-2.101999968E-1,-3.309999779E-2,2.134999931E-1
2.291399844E1,9.193999767E-1,1.443899989E0,-7.475000024E-1
2.293399844E1,1.064700007E0,5.673999786E-1,-8.057000041E-1
2.295399844E1,6.277999878E-1,1.195999980E-1,-1.075999975E0
2.297399844E1,-5.169000030E-1,-4.676999748E-1,2.883999944E-1
2.299399844E1,-7.351999879E-1,6.715999842E-1,-5.281000137E-1
2.301399844E1,-6.474999785E-1,-5.534999967E-1,-1.010999978E-1
2.303399844E1,-8.455999494E-1,-4.201000035E-1,2.708999813E-1
2.305399844E1,-4.527999759E-1,-1.629000008E-1,-1.169099927E0
2.307399844E1,-6.354999542E-1,-5.217999816E-1,-1.848399997E0
2.309400000E1,-9.796999693E-1,-3.556999862E-1,-1.211799979E0
2.312400156E1,-2.166999876E-1,-1.541000009E-1,8.879999816E-2
2.315399844E1,4.229999781E-1,6.189999580E-1,-8.003999591E-1
2.317400156E1,-1.109999977E-2,-3.068999946E-1,-2.210999876E-1
2.320399844E1,-3.032999933E-1,-4.842999876E-1,-7.303000093E-1
2.322400469E1,-7.356999516E-1,-3.506999910E-1,-1.218299985E0
2.325399844E1,-1.508499980E0,-3.109000027E-1,-9.097999930E-1
2.327401094E1,-1.098199964E0,-9.747999907E-1,-6.568999887E-1
2.330399844E1,5.780999660E-1,8.492999673E-1,-1.777899981E0
2.332399844E1,6.011999846E-1,1.501199961E0,-6.938999891E-1
2.334399844E1,3.646000028E-1,1.571299911E0,7.429999709E-1
2.336399844E1,-1.893000007E-1,4.539999962E-1,2.110300064E0
2.338399844E1,-7.287999988E-1,1.011099935E0,2.231499910E0
2.340399844E1,-3.686999977E-1,1.035300016E0,-2.063999921E-1
2.342400000E1,4.591999948E-1,1.696900010E0,-1.598399997E0
2.345399844E1,6.589999795E-2,5.799999833E-1,-1.668900013E0
2.347399844E1,-3.888999820E-1,-6.999999750E-4,-4.535999894E-1
2.349399844E1,7.425999641E-1,1.066399932E0,-1.119999960E-1
2.351399844E1,1.408800006E0,7.908999920E-1,-6.294999719E-1
2.353399844E1,7.131999731E-1,2.075999975E-1,-1.694999933E-1
2.355399844E1,5.137000084E-1,1.721999943E-1,-5.505999923E-1
2.357399844E1,7.024999857E-1,3.515000045E-1,-1.410999894E-1
2.359399844E1,-4.892999828E-1,-1.806999892E-1,8.027999997E-1
2.361399844E1,-1.620000042E-2,-2.989999950E-1,9.167999625E-1
2.363399844E1,-1.193099976E0,-6.211000085E-1,1.558300018E0
2.365399844E1,-8.312999606E-1,-2.457999885E-1,4.192999899E-1
2.367399844E1,-4.594999850E-1,-9.160999656E-1,-9.569999576E-2
2.369399844E1,6.280999780E-1,3.735999763E-1,-1.029999971E0
2.371399844E1,9.978999496E-1,9.939999878E-2,-2.386000007E-1
2.373399844E1,5.648999810E-1,6.019999832E-2,1.242699981E0
2.375399844E1,1.211999953E-1,9.769999981E-2,1.308899999E0
2.377399844E1,-7.114999890E-1,-8.769999743E-1,1.561800003E0
2.379400000E1,-2.238999903E-1,-1.788999885E-1,-8.095999956E-1
2.382399844E1,5.778999925E-1,2.669999935E-2,-8.836999536E-1
2.384399844E1,-2.967999876E-1,-9.321999550E-1,4.809999838E-2
2.386399844E1,1.474699974E0,3.711999953E-1,-5.722000003E-1
2.388399844E1,1.274599910E0,-1.020999998E-1,6.329999864E-2
2.390399844E1,2.908999920E-1,3.633999825E-1,4.375000000E-1
2.392399844E1,-4.069999978E-2,-4.443999827E-1,-3.420999944E-1
2.394399844E1,-1.168200016E0,-1.146899939E0,5.587999821E-1
2.396399844E1,-5.651999712E-1,-3.871999979E-1,-7.121999860E-1
2.398399844E1,-5.203999877E-1,-4.942999780E-1,5.802999735E-1
2.400399844E1,-2.671000063E-1,-3.170000017E-1,1.151499987E0
2.402399844E1,2.601999938E-1,-1.147599936E0,8.682000041E-1
2.404399844E1,7.501999736E-1,-1.198400021E0,-5.131999850E-1
2.406399844E1,4.039999843E-1,-1.325500011E0,-8.497999907E-1
2.408399844E1,-6.699999794E-3,-1.056599975E0,-1.063799977E0
2.410399844E1,9.730000049E-2,-2.506099939E0,-1.309700012E0
2.412399844E1,-4.296999872E-1,-1.403699994E0,-1.117799997E0
2.414399844E1,-9.979999661E-1,-9.910999537E-1,-1.411499977E0
2.416399844E1,-2.135599852E0,-2.130800009E0,-5.672000051E-1
2.418399844E1,-2.763799906E0,-2.225299835E0,1.909999996E-1
2.420399844E1,-1.599599957E0,-1.474999905E0,5.347999930E-1
2.422399844E1,-2.987999916E-1,-9.141999483E-1,-1.495999992E-1
2.424399844E1,7.712000012E-1,-1.171899915E0,-6.737999916E-1
2.426399844E1,1.287599921E0,-2.915999889E-1,-1.452199936E0
2.428399844E1,9.600999951E-1,-1.055699944E0,-1.709699988E0
2.430399844E1,6.708999872E-1,-6.849999726E-2,-2.818599939E0
2.432399844E1,-4.188999832E-1,-1.731999964E-1,-2.359599829E0
2.434399844E1,-1.883599997E0,-1.381299973E0,5.649999902E-2
2.436399844E1,-1.778499961E0,-1.190699935E0,4.550999999E-1
2.438399844E1,-5.307999849E-1,-3.720999956E-1,-8.949999511E-2
2.440399844E1,-8.576999903E-1,-5.105999708E-1,-7.689999789E-2
2.442399844E1,-5.927999616E-1,-5.367999673E-1,1.733999997E-1
2.444399844E1,-1.047999978E0,-1.192499995E0,4.469999969E-1
2.446399844E1,-1.093500018E0,-1.731799960E0,1.779000014E-1
2.448400000E1,-6.286000013E-1,-1.342199922E0,-1.092199922E0
2.451399844E1,2.698000073E-1,-9.945999980E-1,-2.947999954E0
2.453399844E1,-8.524000049E-1,-1.031000018E0,-1.972099900E0
2.455399844E1,-7.615999579E-1,-1.256999969E0,-1.385399938E0
2.457399844E1,2.942000031E-1,-2.416999936E-1,-1.541700006E0
2.459399844E1,4.289000034E-1,-3.770999908E-1,-1.777499914E0
2.461399844E1,1.231999993E0,4.188999832E-1,-1.855499983E0
2.463399844E1,-2.825999856E-1,-1.955999881E-1,-2.749999985E-2
2.465399844E1,-1.005200028E0,-1.550000012E-1,7.684999704E-1
2.467399844E1,-1.547500014E0,-1.166999936E-1,8.327999711E-1
2.469399844E1,-1.202600002E0,-6.823999882E-1,-3.359999880E-2
2.471399844E1,-2.851999998E-1,-2.343999892E-1,-7.145999670E-1
2.473399844E1,1.346099973E0,9.013999701E-1,-2.990799904E0
2.475399844E1,1.243999973E-1,-1.184999943E-1,-2.358799934E0
2.477399844E1,-1.258499980E0,1.077999994E-1,-2.079999924E0
2.479399844E1,-1.941699982E0,-8.208000064E-1,-1.611899972E0
2.481399844E1,-2.365000010E0,-5.336999893E-1,-1.564999938E0
2.483400000E1,-1.234499931E0,-3.341999948E-1,-4.781999886E-1
2.485400000E1,-2.680000067E-1,-1.000699997E0,6.223999858E-1
2.488399844E1,4.880799770E0,1.641099930E0,-8.348999619E-1
2.490399844E1,4.749000072E0,3.928299904E0,-2.731999874E0
2.492399844E1,1.452899933E0,2.250000000E0,-8.981999755E-1
2.494399844E1,-2.245899916E0,3.545999825E-1,2.348799944E0
2.496399844E1,-1.766299963E0,1.454499960E0,-5.260000005E-2
2.498399844E1,-3.779000044E-1,-1.969699979E0,-4.760999978E-1
2.500399844E1,-8.842999935E-1,2.442299843E0,-1.742900014E0
2.502399844E1,-7.678999901E-1,8.097999692E-1,2.732300043E0
2.504399844E1,1.830799937E0,1.367499948E0,3.662599802E0
2.506399844E1,-9.134999514E-1,-4.776999950E-1,2.306900024E0
2.508399844E1,-1.333400011E0,-5.611000061E-1,-5.060999990E-1
2.510399844E1,3.146999776E-1,5.163999796E-1,-8.078999519E-1
2.512399844E1,1.242299914E0,2.050400019E0,-1.148399949E0
2.514399844E1,1.489999983E-2,2.257999927E-1,-1.424999982E-1
2.516399844E1,-1.644799948E0,-1.143999994E-1,6.983999610E-1
2.518399844E1,-6.324999928E-1,6.872999668E-1,2.581000030E-1
2.520399844E1,5.742999911E-1,1.158699989E0,4.175999761E-1
2.522399844E1,1.280799985E0,8.436999917E-1,-9.459999949E-2
2.524399844E1,1.139599919E0,-1.599999890E-2,-1.469999999E-1
2.526399844E1,8.589999676E-1,2.087000012E-1,1.916999966E-1
2.528399844E1,5.770999789E-1,4.584999979E-1,-4.993999898E-1
2.530399844E1,-2.389999852E-2,9.075999856E-1,-1.337000012E0
2.532399844E1,-1.602100015E0,-9.720999599E-1,9.539999813E-2
2.534399844E1,-1.168499947E0,-1.123600006E0,8.192999959E-1
2.536399844E1,-1.221300006E0,-1.152999997E0,8.708999753E-1
2.538399844E1,-2.602699995E0,-2.982899904E0,1.188699961E0
2.540399844E1,-1.703499913E0,-2.812000036E0,2.604999840E-1
2.542399844E1,-8.251000047E-1,-3.528399944E0,8.249999881E-1
2.544399844E1,-5.130000040E-2,-2.439899921E0,-1.307699919E0
2.546399844E1,7.035999894E-1,-3.189499855E0,-2.172800064E0
2.548399844E1,3.329999745E-2,-2.890000045E-1,-5.298799992E0
2.550399844E1,-2.045300007E0,-1.294999957E0,-4.331699848E0
2.552399844E1,-2.604699850E0,-1.058499932E0,3.189999983E-2
2.554399844E1,-6.260000169E-2,-6.856999993E-1,1.079699993E0
2.556399844E1,2.969999909E-1,1.481899977E0,1.945999980E0
2.558399844E1,2.838999927E-1,-5.299999714E-1,2.427500010E0
2.560399844E1,-7.351999879E-1,2.631999850E-1,9.201999903E-1
2.562399844E1,-1.601400018E0,-1.035099983E0,-1.781999916E-1
2.564399844E1,-6.345999837E-1,-2.425999939E-1,-2.181099892E0
2.566399844E1,3.084999919E-1,5.692999959E-1,-2.680999994E0
2.568399844E1,-2.267999947E-1,-3.488000035E-1,-9.300000034E-3
2.570399844E1,4.362999797E-1,4.465000033E-1,4.654999971E-1
2.572399844E1,-2.217999995E-1,-1.105899930E0,8.610999584E-1
2.574399844E1,-1.121099949E0,-2.219999880E-1,-7.713999748E-1
2.576399844E1,-8.356999755E-1,-1.600299954E0,-1.864699960E0
2.578399844E1,-7.560999990E-1,-9.777999520E-1,-2.381299973E0
2.580399844E1,-7.913999557E-1,-1.812799931E0,-1.040799975E0
2.582399844E1,-6.736999750E-1,-8.531999588E-1,-1.481000036E-1
2.584399844E1,-2.678999901E-1,-1.085199952E0,1.059999943E0
2.586399844E1,6.653000116E-1,1.101099968E0,-8.049999923E-2
2.588400000E1,1.722299933E0,1.428699970E0,-1.087399960E0
2.591399844E1,-5.320000052E-1,1.690799952E0,-1.268999934E0
2.593399844E1,-2.145200014E0,4.226999879E-1,3.436000049E-1
2.595399844E1,-2.147500038E0,6.488999724E-1,1.334399939E0
2.597399844E1,-1.630800009E0,3.479000032E-1,1.573499918E0
2.599399844E1,1.111999974E-1,1.199499965E0,3.926999867E-1
2.601399844E1,1.114400029E0,1.217299938E0,-3.491999805E-1
2.603400781E1,2.517999887E0,1.799600005E0,-2.184200048E0
2.606399844E1,2.197700024E0,1.135800004E0,-1.455599904E0
2.608399844E1,2.206999958E-1,3.637000024E-1,-1.797000021E-1
2.610399844E1,-1.930699944E0,-6.582999825E-1,1.556899905E0
2.612399844E1,-2.507200003E0,-6.951000094E-1,1.035099983E0
2.614399844E1,-1.667499900E0,-7.389000058E-1,2.474999875E-1
2.616399844E1,3.543999791E-1,-4.807999730E-1,-1.859200001E0
2.618400000E1,1.354799986E0,-4.848999977E-1,-2.059799910E0
2.621401250E1,-7.358999848E-1,-1.407999992E0,-8.246999979E-1
2.624399844E1,-2.062199831E0,-2.244799852E0,-5.568999648E-1
2.626399844E1,-1.345700026E0,-1.716399908E0,-5.740999579E-1
2.628399844E1,-3.761000037E-1,-9.853000045E-1,-2.520999908E-1
2.630399844E1,1.494899988E0,-5.097000003E-1,-2.337999940E-1
2.632399844E1,1.194299936E0,3.026999831E-1,-1.461699963E0
2.634399844E1,-1.634999961E-1,-3.571999967E-1,-1.587599993E0
2.636399844E1,-1.706900001E0,-2.366400003E0,9.589999914E-2
2.638399844E1,-9.092999697E-1,-3.387999833E-1,-1.330299973E0
2.640399844E1,-8.610000014E-1,1.940999925E-1,-9.205999970E-1
2.642399844E1,-2.408299923E0,9.309999943E-1,1.524999976E0
2.644399844E1,-3.219599962E0,-1.199299932E0,2.672199965E0
2.646399844E1,-2.448600054E0,-1.013800025E0,2.812899828E0
2.648399844E1,-1.509999931E-1,-9.071999788E-1,4.375999868E-1
2.650399844E1,1.591499925E0,-2.027999908E-1,-1.800999999E0
2.652399844E1,3.358099937E0,1.284399986E0,-4.877699852E0
2.654399844E1,1.533999920E0,4.727999866E-1,-4.019499779E0
2.656399844E1,-9.310999513E-1,7.559999824E-2,-1.319000006E0
2.658399844E1,-1.673799992E0,-2.924999893E-1,1.551199913E0
2.660399844E1,-3.307999969E-1,9.063999653E-1,1.309399962E0
2.662399844E1,3.677999973E-1,2.452399969E0,1.255800009E0
2.664399844E1,5.088999867E-1,1.431899905E0,1.564999938E0
2.666399844E1,-1.108099937E0,6.463999748E-1,9.404000044E-1
2.668399844E1,-9.034999609E-1,-3.540999889E-1,-3.430999815E-1
2.670399844E1,-4.803999960E-1,4.746999741E-1,-1.158200026E0
2.672399844E1,-5.549999699E-2,2.154999971E-1,-4.029999971E-1
2.674399844E1,9.413999915E-1,5.476999879E-1,1.966999918E-1
2.676399844E1,1.564999938E0,2.569999993E-1,-1.139099956E0
2.678399844E1,8.731999993E-1,4.819999933E-1,-1.177899957E0
2.680399844E1,-1.397099972E0,2.854000032E-1,9.299999475E-1
2.682399844E1,-2.246899843E0,-3.165999949E-1,1.861099958E0
2.684399844E1,-1.788699985E0,-1.723899961E0,2.311199903E0
2.686399844E1,-3.825999796E-1,1.171000004E-1,-3.050000072E-1
2.688399844E1,-1.139999926E-2,-4.145999849E-1,-1.883199930E0
2.690399844E1,-2.811999917E-1,-5.841999650E-1,-1.658599973E0
2.692399844E1,-2.592000067E-1,1.860999912E-1,-2.477799892E0
2.694399844E1,-1.635599971E0,-9.958999753E-1,2.639999986E-1
2.696399844E1,-1.652199984E0,-2.006999999E-1,6.143999696E-1
2.698399844E1,-5.250999928E-1,-1.319800019E0,5.958999991E-1
2.700399844E1,-1.790999919E-1,-3.499999940E-1,-6.883999705E-1
2.702399844E1,6.039999723E-1,-5.015999675E-1,-1.437399983E0
2.704399844E1,7.850999832E-1,-2.214999944E-1,-1.559299946E0
2.706399844E1,3.233000040E-1,-1.429999992E-2,4.219999909E-2
2.708399844E1,-6.097999811E-1,-4.819999933E-1,1.786000013E0
2.710399844E1,-8.588999510E-1,-4.848999977E-1,4.526000023E-1
2.712399844E1,-5.060999990E-1,-4.764999747E-1,-1.552599907E0
2.714399844E1,-6.897000074E-1,-1.094999984E-1,-1.705399990E0
2.716399844E1,-9.784999490E-1,-7.331999540E-1,-6.595000029E-1
2.718399844E1,-1.870999932E-1,0.000000000E0,-2.486999929E-1
2.720399844E1,-1.569999941E-2,-1.280999929E-1,5.202000141E-1
2.722399844E1,-4.360000044E-2,6.133999825E-1,-1.190899968E0
2.724399844E1,-2.242999971E-1,2.279999852E-2,-8.898999691E-1
2.726399844E1,-1.009699941E0,1.565999985E-1,-8.066999912E-1
2.728399844E1,-6.972999573E-1,-8.108999729E-1,-1.051499963E0
2.730399844E1,-9.116999507E-1,2.918999791E-1,-3.599999845E-1
2.732399844E1,6.589999795E-2,1.150000002E-2,-6.190999746E-1
2.734399844E1,-3.542000055E-1,-3.066999912E-1,2.292999923E-1
2.736399844E1,-7.371999621E-1,-6.037999988E-1,5.692999959E-1
2.738399844E1,3.145999908E-1,-1.011799932E0,3.629999980E-2
2.740399844E1,5.342999697E-1,-1.633999944E-1,-5.924999714E-1
2.742399844E1,4.016000032E-1,-6.570999622E-1,-1.043900013E0
2.744399844E1,-9.460999966E-1,-4.714999795E-1,3.152999878E-1
2.746399844E1,-1.333199978E0,-4.508999884E-1,5.834000111E-1
2.748399844E1,-4.961999953E-1,-1.229900002E0,1.016600013E0
2.750399844E1,6.441000104E-1,3.285999894E-1,-1.145099998E0
2.752399844E1,1.414199948E0,1.070500016E0,-1.241599917E0
2.754399844E1,4.999999655E-4,8.007999659E-1,-6.446999907E-1
2.756399844E1,-1.652499914E0,-5.155999660E-1,-7.153999805E-1
2.758399844E1,-1.931599975E0,-1.070500016E0,-1.003600001E0
2.760399844E1,-9.947999716E-1,-4.479999840E-1,-1.338899970E0
2.762400625E1,1.022499919E0,1.403999925E-1,-1.539699912E0
2.765399844E1,1.449800014E0,1.067899942E0,-4.649999738E-1
2.767400313E1,-7.396999598E-1,1.509999949E-2,1.167299986E0
2.770399844E1,-1.973899961E0,-5.689999834E-2,3.422999978E-1
2.772399844E1,-1.073099971E0,5.281000137E-1,-1.108899951E0
2.774399844E1,-3.460000083E-2,1.316200018E0,-5.884000063E-1
2.776399844E1,6.581999660E-1,9.131000042E-1,-2.969999909E-1
2.778399844E1,5.608999729E-1,5.852000117E-1,1.295000017E-1
2.780399844E1,3.431999981E-1,4.101999998E-1,3.202999830E-1
2.782399844E1,-2.074999958E-1,1.040699959E0,-1.015100002E0
2.784399844E1,-5.669000149E-1,1.840000041E-2,-2.300000051E-3
2.786399844E1,-1.203099966E0,-8.799999952E-3,1.020900011E0
2.788399844E1,-1.165400028E0,2.917999923E-1,1.145799994E0
2.790399844E1,9.452999830E-1,6.676999927E-1,-1.098099947E0
2.792399844E1,9.260999560E-1,6.714000106E-1,-4.952999949E-1
2.794399844E1,-8.209999651E-2,5.202000141E-1,4.977999926E-1
2.796399844E1,-1.273499966E0,-3.992999792E-1,1.733099937E0
2.798399844E1,-9.289000034E-1,2.193000019E-1,8.581999540E-1
2.800399844E1,-3.119999915E-2,-2.456000000E-1,2.671000063E-1
2.802399844E1,4.171999991E-1,1.051800013E0,-9.645999670E-1
2.804399844E1,9.199999571E-1,6.297999620E-1,-8.790999651E-1
2.806399844E1,7.028999925E-1,8.197000027E-1,-5.965999961E-1
2.808399844E1,3.633999825E-1,3.355999887E-1,-6.994000077E-1
2.810400000E1,-3.251000047E-1,2.909999788E-1,2.009999901E-1
2.813399844E1,-1.203099966E0,-2.231999934E-1,4.736999869E-1
2.815399844E1,-6.036999822E-1,5.095999837E-1,-3.419999778E-2
2.817399844E1,-4.793999791E-1,-8.021000028E-1,3.499999940E-1
2.819399844E1,2.238999903E-1,4.099999964E-1,3.256999850E-1
2.821399844E1,1.260299921E0,-5.198000073E-1,8.549000025E-1
2.823399844E1,1.248799920E0,2.838000059E-1,-1.855999976E-1
2.825399844E1,4.097999930E-1,-9.640000015E-2,-1.538800001E0
2.827399844E1,-1.008499980E0,-1.652799964E0,-1.080799937E0
2.829399844E1,-1.996399999E0,-9.287999868E-1,-1.077099919E0
2.831399844E1,-1.674799919E0,-1.261699915E0,-8.624999523E-1
2.833399844E1,-1.532899976E0,-2.132799864E0,2.527000010E-1
2.835399844E1,-1.646299958E0,-2.341899872E0,1.041599989E0
2.837399844E1,-9.341999888E-1,-2.096799850E0,7.476999760E-1
2.839399844E1,3.935000002E-1,-2.424499989E0,8.709999919E-2
2.841399844E1,1.478099942E0,3.658999801E-1,-3.334599972E0
2.843399844E1,1.059599996E0,-9.506999850E-1,-3.744400024E0
2.845399844E1,-1.036700010E0,-1.231899977E0,-3.911599874E0
2.847399844E1,-8.345999718E-1,-2.663999796E-1,-2.681099892E0
2.849399844E1,-1.217499971E0,-3.199000061E-1,-7.089999914E-1
2.851399844E1,-1.138700008E0,-4.144999981E-1,5.442999601E-1
2.853399844E1,-7.429999858E-2,4.468999803E-1,1.327499986E0
2.855399844E1,2.831999958E-1,1.665699959E0,9.799999744E-2
2.857399844E1,7.449999452E-2,9.239999950E-2,4.479999840E-1
2.859399844E1,2.621999979E-1,1.183200002E0,5.654000044E-1
2.861399844E1,1.114400029E0,2.085899830E0,-1.265799999E0
2.863399844E1,-1.189599991E0,7.443000078E-1,-1.950999945E-1
2.865399844E1,-1.233799934E0,1.313399911E0,2.565000057E-1
2.867399844E1,-1.007900000E0,9.281999469E-1,8.837999701E-1
2.869399844E1,-1.231799960E0,3.357000053E-1,3.896999955E-1
2.871399844E1,9.165999889E-1,9.425999522E-1,-3.517999947E-1
2.873399844E1,9.172999859E-1,1.516099930E0,-5.904999971E-1
2.875399844E1,-6.079999804E-1,1.254099965E0,3.513000011E-1
2.877399844E1,-1.998799920E0,-6.681999564E-1,1.747699976E0
2.879400000E1,-1.498600006E0,1.107299924E0,1.346300006E0
2.882399844E1,6.527999640E-1,2.081899881E0,-1.470799923E0
2.884399844E1,9.580000043E-1,1.620800018E0,-1.709199905E0
2.886399844E1,-5.493000150E-1,7.376999855E-1,-2.556699991E0
2.888399844E1,-6.250999570E-1,7.303000093E-1,-2.960299969E0
2.890399844E1,1.035499930E0,9.991999865E-1,-7.479999959E-2
2.892399844E1,3.980899811E0,2.624500036E0,3.086400032E0
2.894399844E1,3.326999903E0,1.785599947E0,3.445599794E0
2.896399844E1,3.887699842E0,1.080099940E0,5.469299793E0
2.898399844E1,3.953000009E-1,1.482800007E0,1.616999954E-1
2.900399844E1,-1.256199956E0,3.194999993E-1,7.926999927E-1
2.902399844E1,-4.069999978E-2,3.063099861E0,8.542999625E-1
2.904399844E1,-1.248000026E0,-6.209999695E-2,9.098999500E-1
2.906399844E1,-2.187000036E0,4.962999821E-1,-7.140000165E-2
2.908399844E1,3.197999895E-1,1.028399944E0,-6.599999666E-1
2.910399844E1,1.617499948E0,5.910999775E-1,-1.428000033E-1
2.912399844E1,1.144999981E0,7.321999669E-1,1.288499951E0
2.914399844E1,3.902999759E-1,3.637999892E-1,1.395200014E0
2.916399844E1,-4.635999799E-1,-9.998999834E-1,8.648999929E-1
2.918399844E1,-8.534999490E-1,-5.449999869E-2,3.299999982E-2
2.920399844E1,-1.791199923E0,-1.800599933E0,-1.557199955E0
2.922399844E1,-1.583199978E0,-2.055500031E0,-1.649299979E0
2.924399844E1,-1.804199934E0,-1.127499938E0,-3.109000027E-1
2.926399844E1,-8.589999676E-1,-1.179000020E0,-9.874999523E-1
2.928399844E1,1.150599957E0,-3.005999923E-1,-2.634799957E0
2.930399844E1,1.377499938E0,9.079999924E-1,-3.290699959E0
2.932399844E1,-5.238000154E-1,-1.395799994E0,-1.599499941E0
2.934399844E1,-2.132400036E0,-1.908399940E0,2.257099867E0
2.936399844E1,-2.142499924E0,-1.556499958E0,3.075999975E0
2.938399844E1,1.721999943E-1,-4.833999872E-1,1.481299996E0
2.940399844E1,2.424799919E0,6.408999562E-1,-1.948300004E0
2.942399844E1,1.901399970E0,3.720000014E-2,-1.236699939E0
2.944399844E1,6.753000021E-1,2.802000046E-1,-1.556999981E-1
2.946399844E1,-1.351099968E0,-6.869999766E-1,1.148599982E0
2.948399844E1,-2.584300041E0,-1.611899972E0,1.050599933E0
2.950399844E1,-2.555999994E0,-1.327000022E0,9.598000050E-1
2.952399844E1,-1.346599936E0,-6.931999922E-1,1.228000000E-1
2.954399844E1,-8.093999624E-1,-1.055099964E0,4.829999804E-2
2.956399844E1,-1.854799986E0,-2.475999832E0,-5.734999776E-1
2.958399844E1,-1.161499977E0,-2.233700037E0,2.897999883E-1
2.960399844E1,-6.199999712E-3,-1.621000022E-1,-1.219699979E0
2.962399844E1,3.092299938E0,2.111199856E0,-2.424599886E0
2.964399844E1,3.790999889E0,2.746999979E0,-2.841500044E0
2.966399844E1,1.898299932E0,1.357599974E0,-3.096999824E-1
2.968399844E1,-1.018800020E0,1.796499968E0,6.852999926E-1
2.970399844E1,-1.681800008E0,2.253599882E0,6.469999552E-1
2.972399844E1,-3.381399870E0,5.478000045E-1,1.046999991E-1
2.974399844E1,5.766999722E-1,2.563799858E0,-3.543999791E-1
2.976399844E1,3.542500019E0,2.804299831E0,-1.144899964E0
2.978399844E1,5.066999793E-1,7.112999558E-1,-9.526000023E-1
2.980399844E1,-2.780200005E0,-1.212800026E0,-1.263999939E-1
2.982399844E1,-3.872599840E0,-1.122799993E0,5.252000093E-1
2.984399844E1,-1.385699987E0,-3.808999956E-1,-3.799999831E-3
2.986399844E1,1.654199958E0,1.369099975E0,-1.583299994E0
2.988399844E1,2.496999949E-1,-5.769999623E-1,-1.235000014E0
2.990399844E1,-4.342299938E0,-3.404099941E0,-8.284999728E-1
2.992399844E1,-9.312999845E-1,7.782999873E-1,-2.032899857E0
2.994399844E1,-2.325899839E0,-1.264699936E0,-5.832999945E-1
2.996399844E1,-2.720499992E0,-7.070999742E-1,-1.136600018E0
2.998399844E1,-1.918899894E0,-6.175999641E-1,-1.495999932E0
3.000400000E1,4.802999794E-1,4.758999944E-1,-5.892999768E-1
3.003399844E1,1.959499955E0,2.344599962E0,-1.319899917E0
3.005399844E1,2.069200039E0,2.395099878E0,-1.812799931E0
3.007399844E1,1.319199920E0,2.170599937E0,-1.981399894E0
3.009400000E1,-1.304000020E0,1.198300004E0,-1.947999954E0
3.012399844E1,-5.320000052E-1,2.238199949E0,5.313999653E-1
3.014399844E1,-9.016999602E-1,1.097999960E-1,-3.039000034E-1
3.016399844E1,-1.879999936E-1,1.349999942E-2,-2.054399967E0
3.018399844E1,-5.008999705E-1,1.487999916E0,-3.088399887E0
3.020400156E1,-1.650399923E0,-8.315999508E-1,2.454499960E0
3.023399844E1,-1.509999949E-2,7.655000091E-1,2.667500019E0
3.025399844E1,2.273999900E-1,1.345799923E0,-2.791999876E-1
3.027399844E1,1.240599990E0,1.673499942E0,-4.346699715E0
3.029399844E1,8.238999844E-1,6.328999996E-1,-3.853099823E0
3.031399844E1,2.283999920E-1,-1.040000003E-2,-4.157999754E-1
3.033399844E1,-6.011999846E-1,1.266499996E0,2.432699919E0
3.035399844E1,-2.265999913E-1,7.576999664E-1,3.311999798E0
3.037399844E1,-8.695999980E-1,4.490000010E-2,3.092299938E0
3.039399844E1,6.897000074E-1,1.766600013E0,-5.209999904E-2
3.041399844E1,8.968999982E-1,1.453699946E0,-1.059000015E0
3.043400000E1,7.703999877E-1,5.850999951E-1,5.683999658E-1
3.046399844E1,-6.753000021E-1,2.935000062E-1,1.816499949E0
3.048399844E1,-3.330999911E-1,6.159999967E-2,1.819700003E0
3.050399844E1,-1.721399903E0,-1.550499916E0,4.959999919E-1
3.052399844E1,1.851999909E-1,-1.911899924E0,1.920999885E-1
3.054399844E1,4.312999845E-1,-2.404999971E0,-1.443599939E0
3.056399844E1,-9.684999585E-1,-1.727800012E0,-1.432899952E0
3.058399844E1,5.625000000E-1,-1.057399988E0,-6.365999579E-1
3.060399844E1,-1.122499943E0,-8.227999806E-1,6.031000018E-1
3.062399844E1,-1.960799932E0,-2.318300009E0,-7.930000126E-2
3.064399844E1,-2.782199860E0,-2.213799953E0,-1.330899954E0
3.066399844E1,-2.626399994E0,6.074000001E-1,-3.329299927E0
3.068399844E1,-3.529899836E0,-1.602899909E0,-3.312700033E0
3.070399844E1,-1.824899912E0,-2.242999971E-1,-2.044899940E0
3.072399844E1,-2.328899860E0,-1.900799990E0,2.581999898E-1
3.074399844E1,-1.658699989E0,-2.347999960E-1,-1.731999964E-1
3.076399844E1,5.957999825E-1,1.457199931E0,-9.237999916E-1
3.078399844E1,-3.680000082E-2,1.097299933E0,-1.952399969E0
3.080399844E1,-7.743999958E-1,2.423999906E-1,-3.909399986E0
3.082399844E1,2.167999893E-1,-2.836000025E-1,-1.464299917E0
3.084399844E1,-9.002999663E-1,1.504999995E0,2.950000018E-2
3.086399844E1,8.237999678E-1,1.218999982E0,-1.167999983E0
3.088399844E1,9.800000116E-3,-7.889999747E-1,1.465600014E0
3.090399844E1,4.004999995E-1,1.035899997E0,-1.863999963E-1
3.092399844E1,-6.309999526E-2,1.178699970E0,-1.344900012E0
3.094399844E1,-1.598999947E-1,-8.299999833E-1,-1.889400005E0
3.096399844E1,-2.407999933E-1,-1.645999998E-1,2.386000007E-1
3.098399844E1,-1.643000007E0,-9.223999977E-1,1.577099919E0
3.100399844E1,8.765999675E-1,5.643999577E-1,8.991000056E-1
3.102399844E1,1.014299989E0,9.012999535E-1,7.734000087E-1
3.104399844E1,-2.588999867E-1,1.691499949E0,-1.734200001E0
3.106399844E1,-2.342700005E0,-1.104799986E0,-7.894999981E-1
3.108400000E1,-2.362599850E0,-1.195699930E0,-1.167699933E0
3.111399844E1,-2.899099827E0,-1.833499908E0,8.885999918E-1
3.113399844E1,-2.392999887E0,-4.197299957E0,-7.890999913E-1
3.115400000E1,8.007399559E0,2.414099932E0,-1.145200014E0
3.118399844E1,-3.692499876E0,-1.977599978E0,-1.605700016E0
3.120399844E1,-1.829899907E0,-6.900999546E-1,-1.238899946E0
3.122399844E1,-8.448999524E-1,-1.582999974E-1,-1.254999995E0
3.124399844E1,-1.384199977E0,-9.319999814E-2,-7.609999776E-1
3.126399844E1,-6.511999965E-1,2.671000063E-1,1.904999912E-1
3.128399844E1,-2.151299953E0,4.404999912E-1,-5.679999590E-1
3.130399844E1,-5.620999932E-1,4.829999804E-2,-2.069999874E-1
3.132399844E1,-2.484299898E0,-8.913999796E-1,-1.173200011E0
3.134399844E1,2.477200031E0,1.166199923E0,-1.553200006E0
3.136399844E1,3.558599949E0,6.613000035E-1,-1.939599991E0
3.138399844E1,1.083999991E0,-6.300000101E-2,-2.037699938E0
3.140399844E1,1.592399955E0,1.603299975E0,-8.210999966E-1
3.142399844E1,-2.392400026E0,3.319999874E-1,-1.529399991E0
3.144399844E1,-1.641899943E0,-5.618000031E-1,4.975999892E-1
3.146399844E1,-2.301599979E0,1.552299976E0,4.539999962E-1
3.148399844E1,-7.944999933E-1,2.317499876E0,5.959999934E-2
3.150399844E1,-6.669999659E-2,4.793999791E-1,3.599999845E-1
3.152400313E1,1.365299940E0,2.886199951E0,1.010499954E0
3.155399844E1,-3.131999969E-1,1.229300022E0,2.099999934E-1
3.157400156E1,5.455999970E-1,1.168200016E0,-7.148000002E-1
3.160399844E1,1.259099960E0,2.288300037E0,-3.399999812E-2
3.162400000E1,1.771600008E0,1.343999952E-1,5.354999900E-1
3.165399844E1,-1.999199986E0,1.886999905E-1,-5.489999652E-1
3.167399844E1,7.066000104E-1,-2.268399954E0,-1.069999952E-2
3.169399844E1,-6.543999910E-1,-1.104699969E0,6.104999781E-1
3.171399844E1,-7.651000023E-1,-2.731899977E0,1.959999949E-1
3.173399844E1,5.428000093E-1,-1.115100026E0,-1.573599935E0
3.175399844E1,9.420000017E-2,-1.378000021E0,-1.554899931E0
3.177399844E1,2.435999960E-1,1.041599989E0,3.506999910E-1
3.179399844E1,-1.452799916E0,-6.694999933E-1,2.371000051E0
3.181399844E1,-1.670999974E-1,-3.967999816E-1,4.332000017E-1
3.183399844E1,1.106099963E0,9.927999973E-1,-2.774799824E0
3.185399844E1,1.016899943E0,1.682899952E0,-6.006999612E-1
3.187399844E1,-7.000000030E-2,1.442799926E0,1.554600000E0
3.189399844E1,3.930999935E-1,5.090999603E-1,1.772399902E0
3.191399844E1,1.808599949E0,1.800999999E0,4.849999771E-2
3.193399844E1,5.986999869E-1,1.823999882E-1,-6.556999683E-1
3.195399844E1,-2.510000020E-2,8.412999511E-1,3.567999899E-1
3.197399844E1,8.909999728E-1,1.160599947E0,6.570000052E-1
3.199399844E1,-8.524999619E-1,-9.578999877E-1,1.174899936E0
3.201399844E1,-5.960999727E-1,2.144999951E-1,7.724999785E-1
3.203399844E1,-1.952199936E0,-1.234799981E0,1.533299923E0
3.205399844E1,-1.298699975E0,-1.470299959E0,1.013599992E0
3.207399844E1,5.159999803E-2,-1.447499990E0,1.118000001E-1
3.209399844E1,2.065000057E0,1.833699942E0,-1.315899968E0
3.211399844E1,1.281199932E0,1.377200007E0,-1.519500017E0
3.213399844E1,-4.697999954E-1,-1.212499976E0,7.361999750E-1
3.215399844E1,6.231999993E-1,1.104799986E0,1.535999924E-1
3.217399844E1,5.418999791E-1,5.320999622E-1,-2.556000054E-1
3.219399844E1,8.136999607E-1,1.155499935E0,-3.472999930E-1
3.221399844E1,2.430000007E-1,-2.260999978E-1,6.225999594E-1
3.223400781E1,4.891999960E-1,2.105999887E-1,1.035099983E0
3.226399844E1,1.533199906E0,1.102999970E-1,6.327999830E-1
3.228399844E1,2.446999997E-1,2.238699913E0,-1.659999974E-2
3.230399844E1,-1.408599973E0,-9.364999533E-1,6.765999794E-1
3.232399844E1,-6.333999634E-1,-3.445999920E-1,-4.287000000E-1
3.234399844E1,4.270000011E-2,-7.443999648E-1,-6.169999838E-1
3.236399844E1,1.213500023E0,5.185999870E-1,5.638999939E-1
3.238399844E1,2.617000043E-1,-6.764000058E-1,8.429999650E-2
3.240399844E1,2.839999795E-1,-1.798399925E0,6.349999905E-1
3.242400000E1,-1.526399970E0,-1.112299919E0,-7.770999670E-1
3.245399844E1,1.585899949E0,-5.523999929E-1,1.201999933E-1
3.247399844E1,3.616999865E0,-1.091899991E0,-2.263000011E-1
3.249399844E1,3.305199862E0,-5.077999830E-1,-1.292999983E-1
3.251399844E1,1.986199975E0,4.071999788E-1,-8.860999942E-1
3.253399844E1,1.692000031E-1,-1.602899909E0,2.182800055E0
3.255399844E1,-2.577899933E0,1.341899991E0,1.156099916E0
3.257399844E1,-3.317399979E0,-1.579800010E0,-1.888099909E0
3.259399844E1,-2.961099863E0,-2.048899889E0,-1.185400009E0
3.261399844E1,-1.388199925E0,-1.260800004E0,-1.764799953E0
3.263399844E1,1.886899948E0,-2.176199913E0,9.745000005E-1
3.265401250E1,4.742099762E0,2.304100037E0,-3.273999989E-1
3.268399844E1,2.791999817E0,2.053299904E0,-8.219999820E-2
3.270400156E1,1.459999979E-1,1.458799958E0,-1.958899975E0
3.273399844E1,-4.221499920E0,-1.596499920E0,-3.328999877E-1
3.275401094E1,-5.625499725E0,-2.473700047E0,-3.915999830E-1
3.278399844E1,-9.353999496E-1,9.749999642E-2,-1.377499938E0
3.280399844E1,1.680999994E0,5.892999768E-1,-6.622999907E-1
3.282399844E1,2.418299913E0,2.257900000E0,1.463499904E0
3.284399844E1,7.931999564E-1,1.343999952E-1,2.359099865E0
3.286400000E1,4.999999888E-3,-1.365599990E0,2.475999832E0
3.288400000E1,9.131999612E-1,4.072999954E-1,-1.451900005E0
3.291399844E1,2.131000042E0,1.552199960E0,-2.948899984E0
3.293399844E1,2.173300028E0,4.199999850E-3,-2.407099962E0
3.295399844E1,6.904999614E-1,-1.940999925E-1,7.152000070E-1
3.297399844E1,-1.499499917E0,4.348999858E-1,2.409899950E0
3.299399844E1,-2.086199999E0,-1.698199987E0,2.422399998E0
3.301399844E1,-4.258999825E-1,-2.082999945E-1,-7.746999860E-1
3.303399844E1,5.967999697E-1,-1.221199989E0,-2.734699965E0
3.305399844E1,1.221799970E0,1.372900009E0,-3.168699980E0
3.307399844E1,1.083899975E0,-3.716000021E-1,-4.054999948E-1
3.309400000E1,-9.663999677E-1,3.886999786E-1,2.793299913E0
3.312399844E1,-1.917299986E0,-7.380999923E-1,1.861899972E0
3.314400000E1,-4.408999979E-1,-2.795000076E-1,-7.730999589E-1
3.317399844E1,1.356099963E0,7.303999662E-1,-1.499300003E0
3.319399844E1,3.250200033E0,1.463899970E0,-6.582999825E-1
3.321399844E1,1.587000012E0,-1.788000017E-1,1.773199916E0
3.323399844E1,-7.209999561E-1,-1.047999978E0,1.944799900E0
3.325399844E1,-8.100000210E-3,-1.700999886E-1,5.700000003E-2
3.327399844E1,-5.499999970E-3,-1.434899926E0,-7.087000012E-1
3.329399844E1,4.699999932E-3,-6.590999961E-1,-8.549999595E-1
3.331399844E1,-8.484999537E-1,-1.942199945E0,-2.804999948E-1
3.333399844E1,1.561999917E-1,-1.480899930E0,-4.802999794E-1
3.335399844E1,7.734000087E-1,-4.109999910E-2,-1.322600007E0
3.337399844E1,-1.011099935E0,-1.456099987E0,-1.992999911E-1
3.339399844E1,-1.860199928E0,-5.927999616E-1,-4.669999778E-1
3.341399844E1,-2.972999811E0,-1.959299922E0,8.229999989E-2
3.343399844E1,-1.457999945E0,-6.275999546E-1,-1.650200009E0
3.345399844E1,-1.853999943E-1,-3.082000017E-1,-1.361799955E0
3.347399844E1,1.051100016E0,1.816699982E0,-6.700999737E-1
3.349399844E1,4.068000019E-1,3.510999978E-1,4.240999818E-1
3.351399844E1,1.164999977E-1,-8.079999685E-1,8.520999551E-1
3.353399844E1,8.820999861E-1,1.516199946E0,-6.793000102E-1
3.355399844E1,1.659799933E0,2.236000001E-1,-1.064999938E0
3.357399844E1,1.631599903E0,2.185799837E0,1.226999983E-1
3.359399844E1,1.834100008E0,-6.305999756E-1,9.745000005E-1
3.361399844E1,1.349699974E0,4.787999988E-1,7.044999599E-1
3.363399844E1,6.586999893E-1,2.499999851E-2,-5.059999824E-1
3.365399844E1,2.399999946E-1,1.437000036E-1,6.435999870E-1
3.367399844E1,-1.336099982E0,-1.620000005E-1,1.484999955E-1
3.369399844E1,-6.071000099E-1,-1.510499954E0,4.499000013E-1
3.371401094E1,2.299999893E-1,-1.025399923E0,2.766000032E-1
3.374399844E1,4.096999764E-1,4.019999802E-1,-5.360999703E-1
3.376399844E1,3.066000044E-1,7.299999893E-2,-1.918599963E0
3.378399844E1,-1.461399913E0,-1.387399912E0,-5.727999806E-1
3.380399844E1,-1.774899960E0,2.754999995E-1,-6.669999957E-1
3.382399844E1,-1.004699945E0,-8.637999892E-1,1.759999990E-2
3.384399844E1,-3.475999832E-1,1.313000023E-1,2.640999854E-1
3.386399844E1,1.551999927E0,5.063999891E-1,-2.709999867E-2
3.388399844E1,-2.146999985E-1,-6.523000002E-1,-4.763999879E-1
3.390399844E1,2.801100016E0,-4.086999893E-1,-5.239999890E-1
3.392399844E1,4.269899845E0,1.943699956E0,-1.097199917E0
3.394399844E1,4.984999895E-1,4.511999786E-1,8.455999494E-1
3.396399844E1,-1.778399944E0,-4.992999732E-1,1.914199948E0
3.398399844E1,-2.516899824E0,-2.082900047E0,6.564999819E-1
3.400399844E1,-3.491999805E-1,-7.608000040E-1,-1.605599999E0
3.402399844E1,9.536999464E-1,4.600000009E-2,-1.661799908E0
3.404399844E1,3.849000037E-1,8.675999641E-1,-7.026999593E-1
3.406399844E1,4.270000011E-2,-5.180000067E-1,7.055999637E-1
3.408400000E1,-1.027300000E0,-1.600999951E0,2.296999991E-1
3.411399844E1,4.490999877E-1,-5.409999937E-2,3.686999977E-1
3.413399844E1,-2.575999796E-1,-5.493999720E-1,9.840999842E-1
3.415399844E1,1.107399940E0,-5.101999640E-1,-3.701999784E-1
3.417399844E1,1.036700010E0,-8.054999709E-1,-2.118900061E0
3.419399844E1,2.292999923E-1,-6.603999734E-1,-1.829299927E0
3.421399844E1,1.278399944E0,-3.161000013E-1,-4.179999977E-2
3.423399844E1,-7.796999812E-1,6.161999702E-1,1.010100007E0
3.425399844E1,-1.914099932E0,-4.970999956E-1,1.252499938E0
3.427399844E1,-2.019799948E0,-1.040400028E0,5.904999971E-1
3.429399844E1,-1.253600001E0,-6.222000122E-1,-9.824000001E-1
3.431399844E1,-8.640999794E-1,-5.600999594E-1,-7.317999601E-1
3.433399844E1,1.228299975E0,8.769999743E-1,-9.648000002E-1
3.435399844E1,2.169399977E0,6.147999763E-1,-3.414999843E-1
3.437399844E1,8.025999665E-1,7.459999621E-2,2.954999804E-1
3.439399844E1,7.202999592E-1,2.333000004E-1,-1.319999993E-1
3.441399844E1,4.324999750E-1,3.349999785E-1,-2.581999898E-1
3.443400000E1,-9.052000046E-1,8.499999531E-3,6.955999732E-1
3.446399844E1,-2.979399920E0,-7.989999652E-1,1.898799896E0
3.448399844E1,-1.408299923E0,-2.256500006E0,6.599000096E-1
3.450399844E1,1.899899960E0,1.819999889E-2,-1.102699995E0
3.452399844E1,2.112200022E0,-7.178999782E-1,-2.391799927E0
3.454399844E1,2.597599983E0,2.795999944E-1,-1.230399966E0
3.456399844E1,-2.924000025E-1,-4.419999942E-2,8.219999820E-2
3.458399844E1,-3.485199928E0,-2.427500010E0,1.010599971E0
3.460399844E1,-2.063899994E0,-1.093899965E0,5.929999948E-1
3.462399844E1,-6.671000123E-1,-7.616999745E-1,-1.211499929E0
3.464399844E1,1.927500010E0,9.126999974E-1,-1.017699957E0
3.466399844E1,8.456999660E-1,6.056999564E-1,-8.059999943E-1
3.468399844E1,1.057600021E0,7.649999857E-2,-3.669999838E-1
3.470399844E1,-8.939999938E-1,-1.349599957E0,3.854999840E-1
3.472399844E1,-4.195999801E-1,-1.220399976E0,3.321999907E-1
3.474399844E1,1.439399958E0,-5.041999817E-1,-8.255999684E-1
3.476399844E1,4.928999841E-1,-2.186999917E-1,-1.398599982E0
3.478399844E1,-2.236999869E-1,3.479999900E-1,-7.145000100E-1
3.480399844E1,-7.764999866E-1,3.379999846E-2,3.464999795E-1
3.482399844E1,-1.485499978E0,8.959999681E-2,-1.097999960E-1
3.484399844E1,-1.767699957E0,-1.557399988E0,-4.873999953E-1
3.486399844E1,-1.009699941E0,-8.132999539E-1,-1.333899975E0
3.488399844E1,1.070299983E0,-2.232999951E-1,-1.559599996E0
3.490399844E1,2.557999849E0,1.205699921E0,-1.281999946E-1
3.492399844E1,1.203899980E0,-4.482999742E-1,-2.513999939E-1
3.494399844E1,-2.069999874E-1,1.105000004E-1,9.739999473E-2
3.496399844E1,-1.703099966E0,-1.256299973E0,-1.889999956E-1
3.498399844E1,-1.523299932E0,-1.060299993E0,2.289000005E-1
3.500399844E1,-1.267699957E0,-4.592999816E-1,-2.197999954E-1
3.502399844E1,-4.271999896E-1,-1.767599940E0,-1.173799992E0
3.504399844E1,8.236999512E-1,-1.036800027E0,-1.602699995E0
3.506399844E1,-2.362999916E-1,-7.878999710E-1,-1.563899994E0
3.508399844E1,6.495999694E-1,-7.257999778E-1,-2.029299974E0
3.510399844E1,-7.328999639E-1,1.574999988E-1,-8.009999990E-1
3.512399844E1,-3.794199944E0,-3.221499920E0,-2.689999901E-2
3.514399844E1,-1.759299994E0,-1.853599906E0,-1.073400021E0
3.516399844E1,-3.114999831E-1,-6.729999781E-1,-1.668299913E0
3.518399844E1,1.363999993E-1,-1.015100002E0,-1.625699997E0
3.520399844E1,1.312999964E0,7.865999937E-1,-2.162600040E0
3.522399844E1,-2.763999999E-1,3.770000041E-1,-9.156999588E-1
3.524399844E1,-1.651099920E0,6.710999608E-1,-6.373999715E-1
3.526399844E1,-1.784099936E0,-1.080999970E-1,-1.889999956E-1
3.528399844E1,-1.644400001E0,9.096999764E-1,-8.844999671E-1
3.530399844E1,-6.667999625E-1,-2.064999938E-1,-1.360999942E-1
3.532399844E1,2.468799829E0,1.710899949E0,-9.759999812E-2
3.534399844E1,3.461799860E0,2.421799898E0,-3.253999949E-1
3.536399844E1,1.350000024E0,5.389999747E-1,-3.211999834E-1
3.538399844E1,4.844999909E-1,6.014999747E-1,-1.952999979E-1
3.540399844E1,8.691999912E-1,2.241899967E0,1.841000021E-1
3.542399844E1,-4.939999878E-1,9.903999567E-1,4.492999911E-1
3.544399844E1,9.250000119E-2,1.309099913E0,1.031000018E0
3.546399844E1,5.532999635E-1,1.387799978E0,1.149699926E0
3.548399844E1,4.589999914E-1,1.214200020E0,1.654599905E0
3.550399844E1,-6.060000062E-1,9.636999965E-1,1.751399994E0
3.552399844E1,8.288999796E-1,-3.071999848E-1,1.527699947E0
3.554399844E1,2.269399881E0,1.784399986E0,2.569999993E-1
3.556399844E1,2.572299957E0,4.939999804E-2,5.873999596E-1
3.558399844E1,1.747299910E0,6.582999825E-1,1.220799923E0
3.560399844E1,3.909999877E-2,-7.121999860E-1,2.770999968E-1
3.562399844E1,-6.909999996E-2,-9.554999471E-1,-1.855999976E-1
3.564399844E1,2.529000044E-1,-4.356999993E-1,3.278999925E-1
3.566399844E1,-1.582599998E0,-1.232200027E0,7.608000040E-1
3.568400000E1,2.520999908E-1,-1.472899914E0,9.995999932E-1
3.571400000E1,-9.039999843E-1,-1.795300007E0,-1.004000008E-1
3.574399844E1,-1.491299987E0,-1.257900000E0,5.622000098E-1
3.576399844E1,-1.538900018E0,-3.558699846E0,3.998000026E-1
3.578399844E1,9.023999572E-1,-1.253099918E0,-3.721999824E-1
3.580399844E1,1.439499974E0,-6.231999993E-1,-6.301999688E-1
3.582399844E1,1.129199982E0,1.419000030E-1,-1.442699909E0
3.584399844E1,-5.690000057E-1,1.858000010E-1,-1.324399948E0
3.586399844E1,-2.129699945E0,-4.113000035E-1,-1.117900014E0
3.588399844E1,-2.424599886E0,-1.136999965E0,-7.816999555E-1
3.590399844E1,-1.212399960E0,-1.303200006E0,-7.532999516E-1
3.592399844E1,1.483999938E-1,-4.377999902E-1,-1.100999936E-1
3.594399844E1,3.206699848E0,7.184000015E-1,3.983999789E-1
3.596399844E1,3.362499952E0,5.949999765E-2,2.298000008E-1
3.598399844E1,1.949699998E0,7.382999659E-1,2.047999948E-1
3.600399844E1,5.749999732E-2,7.317999601E-1,-4.008999765E-1
3.602399844E1,-1.757999897E0,-1.327799916E0,-6.284999847E-1
3.604399844E1,-2.286599874E0,-1.753799915E0,-4.270000011E-2
3.606399844E1,-7.030000091E-1,-1.393999904E-1,4.416999817E-1
3.608399844E1,1.571099997E0,8.773999810E-1,3.091999888E-1
3.610399844E1,3.810000047E-2,1.469299912E0,-1.266799927E0
3.612399844E1,-3.190000057E-1,-5.040999651E-1,-3.202699900E0
3.614399844E1,-1.112999991E-1,1.707199931E0,-3.783999920E0
3.616399844E1,-3.824999928E-1,-3.439999819E-1,-3.973999918E-1
3.618399844E1,-1.331399918E0,1.401700020E0,4.016799927E0
3.620399844E1,-5.586999655E-1,8.715999722E-1,3.728399992E0
3.622400000E1,4.050000012E-1,-6.760999560E-1,2.026599884E0
3.624400000E1,2.625200033E0,1.169700027E0,-4.921999872E-1
3.627400000E1,5.819000006E-1,-9.940999746E-1,-1.903699994E0
3.630400000E1,-2.815999985E-1,-1.490099907E0,-5.866000056E-1
3.632400000E1,-2.294499874E0,-2.355399847E0,1.886199951E0
3.635399844E1,-1.719999909E-1,-1.709199905E0,-4.389999807E-2
3.637399844E1,-4.179999828E-1,-1.046599984E0,-1.251299977E0
3.639399844E1,7.624999881E-1,-5.299999844E-3,-3.533099890E0
3.641399844E1,-2.448099852E0,-1.873999953E0,-1.083000004E-1
3.643400000E1,-1.622099996E0,-9.771999717E-1,7.346000075E-1
3.646399844E1,6.455999613E-1,-1.422799945E0,-4.371999800E-1
3.648399844E1,-9.348999858E-1,-1.033699989E0,-3.087599993E0
3.650399844E1,-1.813699961E0,-1.356299996E0,-1.459100008E0
3.652399844E1,-2.310499907E0,-1.370299935E0,4.169999957E-1
3.654399844E1,-7.347999811E-1,-1.079800010E0,5.830999613E-1
3.656399844E1,-1.033999920E0,-1.219699979E0,7.547000051E-1
3.658399844E1,-1.266099930E0,2.060000040E-2,-2.609899998E0
3.660399844E1,-3.463999927E-1,6.711999774E-1,-2.219899893E0
3.662399844E1,-5.886999965E-1,-2.754999995E-1,-2.644500017E0
3.664399844E1,4.854999781E-1,-4.209999740E-2,-1.067799926E0
3.666399844E1,1.804799914E0,1.000399947E0,3.967999816E-1
3.668399844E1,6.347999573E-1,1.784699917E0,5.697999597E-1
3.670399844E1,6.371999979E-1,1.070699930E0,1.097199917E0
3.672399844E1,1.040300012E0,-2.989999950E-2,-9.092999697E-1
3.674399844E1,1.748799920E0,1.539399981E0,-2.728399992E0
3.676399844E1,-6.523999572E-1,-3.687999845E-1,1.731400013E0
3.678399844E1,-2.000000000E0,-1.213999987E-1,2.655999899E0
3.680399844E1,3.646000028E-1,1.473999977E0,-1.524500012E0
3.682399844E1,1.604499936E0,9.028999805E-1,-1.682699919E0
3.684399844E1,6.394000053E-1,1.687399983E0,5.040000007E-2
3.686399844E1,-1.715199947E0,-1.549999975E-2,2.407399893E0
3.688399844E1,8.406999707E-1,1.658999920E0,-1.755599976E0
3.690399844E1,7.053099632E0,4.087299824E0,-1.122699976E0
3.692399844E1,-6.536999941E-1,-2.151799917E0,1.977699995E0
3.694399844E1,-2.214499950E0,-8.137999773E-1,3.221400023E0
3.696399844E1,-1.857599974E0,-1.440599918E0,8.962000012E-1
3.698399844E1,-1.215699911E0,4.978999794E-1,-1.847999990E-1
3.700399844E1,9.429999590E-1,-3.060999811E-1,1.202999949E-1
3.702400312E1,1.182899952E0,2.423999906E-1,1.259000003E-1
3.705399844E1,8.305000067E-1,-8.745999932E-1,-9.691999555E-1
3.707399844E1,-1.107200027E0,-2.277499914E0,3.676999807E-1
3.709400000E1,8.127999902E-1,-2.352799892E0,3.867999911E-1
3.712399844E1,-3.773999810E-1,-3.187099934E0,1.086999997E-1
3.714399844E1,-1.289099932E0,-1.662999988E0,-1.872200012E0
3.716399844E1,-3.429999828E0,-1.771499991E0,-2.825799942E0
3.718399844E1,-6.240900040E0,-1.416599989E0,-1.956699967E0
3.720399844E1,-3.563699961E0,-1.701299906E0,-2.105700016E0
3.722399844E1,-2.678599834E0,-2.298500061E0,-6.456999779E-1
3.724399844E1,-9.742999673E-1,-4.602999985E-1,1.062600017E0
3.726399844E1,3.148799896E0,3.280000016E-2,8.457999825E-1
3.728399844E1,5.709399700E0,3.167099953E0,7.999999523E-1
3.730399844E1,4.731999874E0,2.562799931E0,-6.577999592E-1
3.732399844E1,5.988000035E-1,2.534999847E-1,3.260999918E-1
3.734399844E1,-2.337999940E-1,1.000000000E0,-2.534299850E0
3.736399844E1,-1.000299931E0,-5.783999562E-1,-7.328000069E-1
3.738399844E1,-1.544899940E0,2.035999894E-1,1.765299916E0
3.740399844E1,5.654000044E-1,1.029899955E0,6.771000028E-1
3.742399844E1,1.276000023E0,1.083999991E0,1.623099923E0
3.744399844E1,2.970999777E-1,1.479399920E0,-1.247699976E0
3.746399844E1,-6.524999738E-1,9.560999870E-1,-1.943099976E0
3.748399844E1,-1.506799936E0,1.513499975E0,-1.262599945E0
3.750399844E1,-1.893000007E-1,5.684999824E-1,2.124999911E-1
3.752399844E1,6.434999704E-1,2.724699974E0,2.515599966E0
3.754399844E1,-5.235999823E-1,-8.499999531E-3,2.937299967E0
3.756399844E1,1.676499963E0,-2.356999964E-1,1.327399969E0
3.758399844E1,2.433999926E-1,-8.865999579E-1,5.131999850E-1
3.760399844E1,-3.925999999E-1,-2.251499891E0,1.030000001E-1
3.762399844E1,1.956900001E0,-1.476199985E0,-2.064199924E0
3.764399844E1,-2.205399990E0,-4.372900009E0,2.482599974E0
3.766399844E1,5.291999578E-1,4.985999763E-1,1.489399910E0
3.768399844E1,3.773999929E0,1.584599972E0,-1.487200022E0
3.770399844E1,-1.564499974E0,-2.449699879E0,-2.298699856E0
3.772399844E1,-5.067599773E0,-2.280499935E0,-3.501600027E0
3.774399844E1,-3.026799917E0,-1.375699997E0,4.419999942E-2
3.776399844E1,3.243199825E0,1.610499978E0,1.933999896E0
3.778399844E1,1.763499975E0,1.299399972E0,-5.259000063E-1
3.780399844E1,-2.272699833E0,-3.779999912E-1,-1.136999950E-1
3.782399844E1,-3.063400030E0,-1.463299990E0,4.465000033E-1
3.784400000E1,1.925599933E0,1.583699942E0,-1.814000010E-1
3.787399844E1,4.044399738E0,1.588299990E0,-2.089799881E0
3.789399844E1,1.969999969E-1,-4.478999972E-1,-3.897999823E-1
3.791399844E1,6.333000064E-1,-3.283699989E0,9.018999934E-1
3.793399844E1,-4.235999882E-1,-3.967599869E0,1.184000015E0
3.795399844E1,-1.375999898E-1,-3.232699871E0,-6.423000097E-1
3.797399844E1,-4.335099697E0,-2.035099983E0,-1.649699926E0
3.799399844E1,-4.721600056E0,-1.649699926E0,-1.380299926E0
3.801399844E1,-3.291800022E0,4.804999828E-1,-3.233099937E0
3.803399844E1,-1.325099945E0,3.681999922E0,-4.226599693E0
3.805399844E1,7.386999726E-1,4.954699993E0,-3.421499968E0
3.807399844E1,3.383699894E0,5.815499783E0,5.566999912E-1
3.809400000E1,8.069999814E-1,3.148299932E0,2.090399981E0
3.812399844E1,2.391000032E0,4.363699913E0,1.913399935E0
3.814399844E1,6.618999839E-1,1.546399951E0,4.463500023E0
3.816399844E1,2.047999859E0,2.994400024E0,2.418799877E0
3.818399844E1,2.835399866E0,2.311100006E0,-2.590000033E-1
3.820399844E1,4.276000023E0,3.254799843E0,-1.270900011E0
3.822399844E1,2.981699944E0,2.975499868E0,9.523999691E-1
3.824399844E1,-2.529700041E0,-6.843999624E-1,4.646899700E0
3.826399844E1,-3.671099901E0,-3.373999834E0,3.877799988E0
3.828399844E1,-2.784199953E0,-5.422100067E0,2.426999956E-1
3.830399844E1,1.121799946E0,-4.300799847E0,-2.056699991E0
3.832399844E1,4.487899780E0,-2.252300024E0,-2.063699961E0
3.834399844E1,-4.569999874E-2,-3.846699953E0,-5.317000151E-1
3.836399844E1,-1.383799911E0,-3.793699980E0,1.472399950E0
3.838399844E1,-2.019199848E0,-2.767099857E0,7.520999908E-1
3.840399844E1,-2.279500008E0,-3.201900005E0,-2.302700043E0
3.842402188E1,-1.235399961E0,-1.215899944E0,-4.260999680E0
3.845399844E1,7.799999714E-1,-1.154999956E-1,2.129199982E0
3.847399844E1,1.125999987E-1,1.599900007E0,-2.252599955E0
3.849399844E1,2.879400015E0,1.240700006E0,-2.470599890E0
3.851399844E1,1.185899973E0,1.186699986E0,2.217700005E0
3.853399844E1,-6.291999817E-1,2.923599958E0,4.672999978E-1
3.855399844E1,2.041499853E0,2.340299845E0,-1.001500010E0
3.857399844E1,1.378799915E0,2.731799841E0,-2.821300030E0
3.859399844E1,1.909599900E0,-7.789999843E-1,-1.882599950E0
3.861399844E1,9.520999789E-1,-5.695999861E-1,9.584999681E-1
3.863399844E1,-4.289000034E-1,-8.955000043E-1,2.962599993E0
3.865399844E1,-2.769799948E0,-1.675999910E-1,2.992699862E0
3.867399844E1,-3.534999847E0,-1.208299994E0,2.011600018E0
3.869399844E1,-3.865999937E0,-3.098199844E0,-2.259700060E0
3.871399844E1,-3.938899994E0,-2.061399937E0,-4.886799812E0
3.873399844E1,-4.438799858E0,-3.392499924E0,-4.012999833E-1
3.875399844E1,-1.942899942E0,9.699999355E-3,7.257999778E-1
3.877399844E1,3.356099844E0,6.164000034E-1,2.302999973E0
3.879399844E1,3.770599842E0,1.446200013E0,-2.897500038E0
3.881399844E1,1.797899961E0,1.089499950E0,-1.206000000E-1
3.883399844E1,1.024899960E0,4.361700058E0,-1.909399986E0
3.885399844E1,-1.576200008E0,2.528800011E0,-2.666800022E0
3.887399844E1,-4.081599712E0,-4.333099842E0,7.928000093E-1
3.889399844E1,-3.159499884E0,-9.085999727E-1,2.693899870E0
3.891399844E1,7.883999944E-1,8.381999731E-1,1.298999935E-1
3.893399844E1,2.684200048E0,2.533499956E0,-2.385400057E0
3.895399844E1,3.716000021E-1,2.415999919E-1,-1.713599920E0
3.897399844E1,-3.631500006E0,-2.225899935E0,-5.126999617E-1
3.899399844E1,-4.630899906E0,-3.250599861E0,1.963000000E-1
3.901399844E1,-3.706599951E0,-3.407599926E0,-1.547299981E0
3.903399844E1,-6.610999703E-1,-1.116899967E0,-2.977099895E0
3.905399844E1,1.442499995E0,-3.317999840E-1,-1.844599962E0
3.907399844E1,4.280999899E-1,-7.208999991E-1,1.289099932E0
3.909399844E1,5.356000066E-1,5.956999660E-1,2.483999878E-1
3.911399844E1,2.820299864E0,4.649999738E-1,-2.807999849E-1
3.913399844E1,2.862799883E0,3.911399841E0,-8.684999943E-1
3.915399844E1,2.221999913E-1,2.859999895E0,-1.782999992E0
3.917399844E1,-1.380999982E-1,2.077699900E0,-7.184000015E-1
3.919400000E1,2.023299932E0,2.264600039E0,7.182999849E-1
3.921400000E1,1.671499968E0,1.476899981E0,1.815299988E0
3.924399844E1,-1.762000024E-1,-7.524999976E-1,-4.179999977E-2
3.926399844E1,2.758899927E0,8.050000072E-1,-5.260999799E-1
3.928399844E1,-2.504999936E-1,-6.177999973E-1,6.620000005E-1
3.930399844E1,-3.250099897E0,-1.730899930E0,2.759899855E0
3.932399844E1,-1.984999925E-1,-6.703000069E-1,2.130199909E0
3.934399844E1,-2.201999873E-1,-3.039000034E-1,-4.023000002E-1
3.936399844E1,2.067399979E0,2.240299940E0,-1.831399918E0
3.938399844E1,2.044399977E0,2.326499939E0,-5.256000161E-1
3.940399844E1,2.585500002E0,3.728099823E0,1.255100012E0
3.942399844E1,1.071399927E0,9.419999719E-1,9.249999523E-1
3.944399844E1,-2.088199854E0,-8.866999745E-1,-4.369999841E-2
3.946399844E1,-1.349499941E0,-1.159699917E0,-8.294999599E-1
3.948399844E1,-1.521999985E-1,-2.219899893E0,2.408999950E-1
3.950399844E1,1.172899961E0,-7.272999883E-1,7.397999763E-1
3.952399844E1,-2.689999938E-1,-1.834999919E0,9.899999946E-3
3.954399844E1,2.154999971E-1,-1.612199903E0,-9.787999988E-1
3.956399844E1,-1.374000013E-1,-8.895999789E-1,-8.876000047E-1
3.958399844E1,-2.561899900E0,-1.116199970E0,-1.174999997E-1
3.960399844E1,-4.171299934E0,-1.983500004E0,4.715999961E-1
3.962399844E1,-3.686499834E0,-2.375900030E0,-3.822000027E-1
3.964399844E1,-1.790199995E0,5.370000005E-2,-2.239199877E0
3.966399844E1,1.088500023E0,-1.371500015E0,-2.162899971E0
3.968399844E1,1.664899945E0,1.185299993E0,-1.306699991E0
3.970399844E1,-5.892999768E-1,-4.204999804E-1,-3.816999793E-1
3.972399844E1,-1.174799919E0,6.229000092E-1,-6.421999931E-1
3.974399844E1,-5.533999801E-1,-1.115199924E0,-1.224699974E0
3.976399844E1,-8.265999556E-1,-1.710999966E0,-2.655999959E-1
3.978399844E1,-1.382300019E0,-1.572699904E0,1.210999936E-1
3.980399844E1,-3.901000023E-1,-1.996999979E0,-3.849000037E-1
3.982399844E1,2.282899857E0,2.242899895E0,-2.259799957E0
3.984399844E1,1.286099911E0,8.725999594E-1,-2.481999993E-1
3.986399844E1,-1.316999942E-1,7.992999554E-1,-2.889999934E-2
3.988399844E1,-8.765999675E-1,-3.558000028E-1,-1.597899914E0
3.990399844E1,-1.217199922E0,-1.247200012E0,-2.264400005E0
3.992399844E1,-9.259999543E-2,6.151999831E-1,-3.621799946E0
3.994399844E1,-3.191999793E-1,4.185999930E-1,1.146999970E-1
3.996399844E1,2.983999848E-1,1.215699911E0,1.322399974E0
3.998399844E1,-5.742999911E-1,-5.385999680E-1,8.941999674E-1
4.000399844E1,-7.960999608E-1,-6.496999860E-1,-1.571999937E-1
4.002399844E1,1.517599940E0,1.416700006E0,-1.136799932E0
4.004399844E1,1.796599984E0,2.638900042E0,-1.573300004E0
4.006400000E1,3.556999862E-1,1.355799913E0,8.058999777E-1
4.009399844E1,8.149999976E-1,6.350000203E-2,1.048799992E0
4.011399844E1,2.223999947E-1,6.996999979E-1,-3.152999878E-1
4.013400000E1,2.400000021E-2,1.182099938E0,-9.167999625E-1
4.016399844E1,-1.169499993E0,1.275200009E0,1.916999966E-1
4.018399844E1,-1.891899943E0,-1.596199989E0,8.305999637E-1
4.020399844E1,-6.855999827E-1,4.399999976E-1,-3.526999950E-1
4.022399844E1,3.792999983E-1,1.304000020E-1,6.650999784E-1
4.024399844E1,1.801099896E0,-5.399999619E-1,5.701999664E-1
4.026399844E1,1.643399954E0,-3.908999860E-1,-9.975999594E-1
4.028399844E1,3.700000048E-1,-1.416099906E0,-8.736999631E-1
4.030399844E1,2.987999916E-1,-1.382499933E0,-9.131000042E-1
4.032399844E1,-1.971099973E0,6.872999668E-1,-1.004699945E0
4.034399844E1,-1.858199954E0,-4.452999830E-1,-1.216499925E0
4.036399844E1,-1.546399951E0,1.688199997E0,1.662999988E-1
4.038399844E1,-3.085299969E0,-1.222299933E0,1.254400015E0
4.040399844E1,-1.929999948E0,-1.124400020E0,1.489999983E-2
4.042399844E1,4.953999817E-1,-4.236999750E-1,-1.550400019E0
4.044399844E1,3.032399893E0,2.107199907E0,-1.707499981E0
4.046399844E1,4.300899982E0,1.384799957E0,-4.445999861E-1
4.048399844E1,1.054000020E0,1.194800019E0,6.797999740E-1
4.050399844E1,-1.199199915E0,-1.440299988E0,3.818999827E-1
4.052399844E1,-2.297499895E0,-5.123000145E-1,9.303999543E-1
4.054399844E1,-9.409999847E-1,8.050000072E-1,1.433499932E0
4.056399844E1,2.547999918E-1,2.574000061E-1,9.052999616E-1
4.058399844E1,1.104499936E0,4.192999899E-1,-1.319700003E0
4.060399844E1,1.141499996E0,-1.149699926E0,-2.032999992E-1
4.062399844E1,1.316999912E0,5.011999607E-1,9.580999613E-1
4.064400000E1,2.045999914E-1,5.087999701E-1,5.097000003E-1
4.067399844E1,-7.009999454E-2,7.008000016E-1,-1.212000012E0
4.069399844E1,3.889999986E-1,2.237999886E-1,-3.853999972E-1
4.071399844E1,2.609999850E-2,7.524999976E-1,5.941999555E-1
4.073399844E1,6.158999801E-1,-6.317999959E-1,8.483999968E-1
4.075399844E1,2.560899973E0,5.338999629E-1,-2.151999921E-1
4.077399844E1,1.656399965E0,-9.005999565E-1,-5.449000001E-1
4.079399844E1,-4.389999807E-1,1.013999954E-1,2.372999936E-1
4.081399844E1,-1.651099920E0,4.982999861E-1,1.069999933E0
4.083399844E1,-1.300899982E0,-6.759999692E-2,9.147999883E-1
4.085399844E1,-1.597800016E0,-3.816999793E-1,1.812999994E-1
4.087399844E1,1.170599937E0,-7.269999981E-1,-9.463999867E-1
4.089399844E1,2.855799913E0,1.843499899E0,-1.905999899E0
4.091399844E1,-9.038999677E-1,-7.501999736E-1,4.878000021E-1
4.093400000E1,-1.795499921E0,1.438999921E-1,1.323899984E0
4.096399844E1,2.927999794E-1,-5.365999937E-1,3.683999777E-1
4.098399844E1,2.560400009E0,6.638999581E-1,-1.838899970E0
4.100399844E1,3.009999990E0,-1.469999924E-2,-1.313599944E0
4.102399844E1,9.246999621E-1,7.538999915E-1,-7.655000091E-1
4.104399844E1,-1.406799912E0,-2.143899918E0,1.053900003E0
4.106399844E1,-2.523299932E0,-1.795099974E0,5.751000047E-1
4.108399844E1,-1.855899930E0,-1.067999959E0,-1.100399971E0
4.110399844E1,-9.172999859E-1,-8.940999508E-1,-9.739999771E-1
4.112399844E1,8.223999739E-1,5.464000106E-1,4.778999984E-1
4.114399844E1,1.344200015E0,1.571999907E0,9.698999524E-1
4.116399844E1,-8.940000087E-2,6.660000086E-1,8.603000045E-1
4.118399844E1,-6.638000011E-1,-8.351999521E-1,4.720000029E-1
4.120399844E1,-1.202799916E0,2.280000001E-1,-1.913999915E-1
4.122400000E1,-1.420000009E-2,-7.638999820E-1,-1.871699929E0
4.125399844E1,9.266999960E-1,-9.174999595E-1,-1.761699915E0
4.127399844E1,2.493499994E0,4.845999777E-1,-6.717000008E-1
4.129399844E1,2.793200016E0,5.242999792E-1,-1.972000003E-1
4.131399844E1,-1.277999997E0,-1.000900030E0,1.121899962E0
4.133399844E1,-1.930399895E0,-5.916000009E-1,1.167799950E0
4.135399844E1,-8.343999982E-1,7.208999991E-1,-5.376999974E-1
4.137399844E1,-4.003999829E-1,1.277799964E0,-1.290099978E0
4.139399844E1,3.908999860E-1,-1.066200018E0,-6.685000062E-1
4.141399844E1,1.825999975E0,2.032399893E0,-9.625999928E-1
4.143399844E1,-5.659999847E-1,1.213999987E-1,1.655000001E-1
4.145399844E1,-2.703199863E0,-2.375999987E-1,1.225600004E0
4.147399844E1,-3.804399967E0,2.358999997E-1,5.331999660E-1
4.149399844E1,-2.513799906E0,-5.823000073E-1,-6.220999956E-1
4.151399844E1,6.894999743E-1,-1.090299964E0,-1.005200028E0
4.153399844E1,3.337199926E0,1.651999950E-1,-1.481899977E0
4.155399844E1,2.140899897E0,1.181200027E0,-1.756599903E0
4.157399844E1,-1.110899925E0,-1.147599936E0,5.221999884E-1
4.159399844E1,-4.437399864E0,-5.252000093E-1,7.709999681E-1
4.161399844E1,-4.187500000E0,-2.680299997E0,8.690999746E-1
4.163400000E1,-1.181399941E0,-1.104499936E0,-5.142999887E-1
4.166399844E1,3.936899900E0,9.307000041E-1,-9.021999836E-1
4.168399844E1,1.401299953E0,1.190400004E0,-1.319499969E0
4.170399844E1,-2.522099972E0,-2.954599857E0,1.265900016E0
4.172400781E1,-1.338599920E0,-1.087999940E0,1.203999966E-1
4.175399844E1,1.377399921E0,1.504799962E0,-6.766999960E-1
4.177399844E1,1.954399943E0,1.779699922E0,-1.724799991E0
4.179399844E1,7.990999818E-1,1.799999923E-1,-1.236299992E0
4.181399844E1,1.492999941E-1,8.947999477E-1,-1.282199979E0
4.183399844E1,6.603999734E-1,6.082999706E-1,5.079999939E-2
4.185399844E1,-3.727999926E-1,1.433699965E0,-1.529999971E-1
4.187399844E1,-1.141199946E0,-6.194999814E-1,7.238999605E-1
4.189399844E1,-1.732999980E-1,2.365999967E-1,6.839999557E-2
4.191399844E1,1.035799980E0,-1.022599936E0,-1.097899914E0
4.193399844E1,3.227599859E0,1.962399960E0,-1.131699920E0
4.195399844E1,5.690000057E-1,-4.949999750E-1,6.581999660E-1
4.197399844E1,-6.390999556E-1,2.245100021E0,1.168299913E0
4.199399844E1,-2.057399988E0,-3.323999941E-1,1.835399985E0
4.201399844E1,-1.761899948E0,-3.396999836E-1,1.485000014E0
4.203399844E1,1.600899935E0,3.146999776E-1,-7.597000003E-1
4.205399844E1,3.471899986E0,1.507599950E0,-1.669899940E0
4.207399844E1,1.466199994E0,1.606099963E0,1.129999943E-2
