"Time (s)","Gyroscope x (rad/s)","Gyroscope y (rad/s)","Gyroscope z (rad/s)"
3.455000000E-3,-6.403089166E-1,1.189267337E-1,1.178271770E-1
2.545343800E-2,-4.837354422E-1,3.074048460E-1,2.039068192E-1
4.545343800E-2,-5.053251982E-1,2.764950693E-1,3.387334943E-1
6.545656300E-2,-6.171833277E-1,1.110727564E-1,3.997153044E-1
8.745343800E-2,-6.181083322E-1,-1.706931926E-2,3.918613195E-1
1.074550000E-1,-5.850518346E-1,9.782570601E-2,3.423463404E-1
1.294550000E-1,-5.110847354E-1,3.407057226E-1,3.582637310E-1
1.494550000E-1,-7.746120095E-1,1.223650351E-1,3.456624448E-1
1.694550000E-1,-8.967676163E-1,-8.974482864E-2,5.660102963E-1
1.894628130E-1,-1.043165803E0,-7.980692387E-1,9.312204123E-1
2.114534380E-1,-1.324966669E0,-1.803029776E0,1.387676358E0
2.314550000E-1,-1.463807583E0,-1.453545094E0,1.339749694E0
2.534550000E-1,-3.554711938E-1,9.039933085E-1,7.447843552E-1
2.734550000E-1,-3.703414202E-1,8.585448861E-1,-9.973509312E-1
2.934550000E-1,2.536661625E-1,1.661099672E0,-1.186335206E0
3.134550000E-1,-8.227481693E-2,1.309433222E0,-1.461817980E0
3.354550000E-1,-3.285442591E0,-1.397118568E0,1.612509638E-1
3.554581250E-1,-5.172457695E0,-3.360648870E0,1.338527918E0
3.774534380E-1,-3.483886719E0,-7.677772999E0,7.262140512E-1
3.974628130E-1,5.743355155E-1,-6.949883461E0,3.599043489E-1
4.194550000E-1,2.146388531E0,-3.364680529E0,8.138644695E-1
4.394550000E-1,9.823934436E-1,-1.352804661E0,1.724071145E0
4.614534380E-1,-8.613199592E-1,-3.451039493E-1,2.261143923E0
4.814550000E-1,-1.235518575E0,8.339183331E-1,2.591377497E0
5.014550000E-1,-1.445551515E0,1.850921631E0,2.781217098E0
5.214550000E-1,-1.487369537E0,1.891640186E0,2.507985830E0
5.414550000E-1,-4.610461593E-1,-2.202605456E-1,1.953390002E0
5.614550000E-1,6.008296013E-1,-4.400359154E0,1.031733990E0
5.814550000E-1,4.521100819E-1,-8.504552841E0,-1.932777613E-1
6.014550000E-1,-5.775992870E-1,-1.031711197E1,-2.879793290E-3
6.214550000E-1,-1.734036922E0,-1.021211338E1,1.213824153E0
6.434534380E-1,-3.276524067E0,-9.465356827E0,2.003795147E0
6.634659380E-1,-3.903743029E0,-9.345226288E0,2.463898659E0
6.854550000E-1,-3.328185797E0,-9.855734825E0,2.916218281E0
7.054596880E-1,-8.342499137E-1,-1.009257603E1,3.202626705E0
7.274534380E-1,3.036838055E0,-8.404667854E0,3.103806257E0
7.474534380E-1,3.854053497E0,-4.418248653E0,3.518060207E0
7.674534380E-1,1.991368294E0,7.742280364E-1,4.412366867E0
7.874534380E-1,6.862634420E-2,4.469770908E0,4.886118889E0
8.074534380E-1,6.443231702E-1,5.898479939E0,3.931738138E0
8.274534380E-1,2.311304569E0,5.268136501E0,2.395185232E0
8.474534380E-1,2.695695877E0,3.999160051E0,1.321441174E0
8.674534380E-1,2.390926600E0,2.297673702E0,5.469338298E-1
8.874550000E-1,2.849476814E0,-1.396088898E-1,-2.824291885E-1
9.094550000E-1,3.697951317E0,-1.464732647E0,-1.652355552E0
9.294690630E-1,3.439188719E0,-2.314742804E0,-2.378604412E0
9.514550000E-1,2.902814150E0,-3.022159815E0,-2.781059980E0
9.714675000E-1,3.629883289E0,-4.520908833E0,-3.584609509E0
9.934534380E-1,4.199244499E0,-5.557948589E0,-2.805407286E0
1.013455000E0,6.597170234E-1,-5.380536079E0,-1.261174917E0
1.035453438E0,1.261698455E-1,-5.772850990E0,-6.639930606E-1
1.055455000E0,1.242569685E0,-5.562242031E0,-2.227563620E0
1.075455000E0,1.841776133E0,-4.961517334E0,-3.696677208E0
1.097455000E0,1.179458618E0,-4.520978928E0,-4.275184155E0
1.119455000E0,9.446070790E-1,-3.360072851E0,-2.974756718E0
1.139455000E0,6.229429245E-1,-2.139040709E0,-1.878707290E0
1.159455000E0,8.947954178E-1,-5.789257213E-2,-2.247687340E0
1.179475313E0,1.261960268E0,2.182429552E0,-2.036397696E0
1.201455000E0,7.975282073E-1,4.840862751E0,-1.223283768E0
1.221467500E0,-3.692942262E-1,6.209008694E0,3.588920534E-1
1.243453438E0,-6.967703700E-1,5.745885849E0,2.306365252E0
1.263456563E0,-2.249729447E-2,5.450226784E0,3.417634010E0
1.285455000E0,-1.310742259E0,7.413338184E0,4.492739201E0
1.307453438E0,-2.225399494E0,1.018162251E1,4.074924946E0
1.327455000E0,-1.148513913E0,1.034348392E1,3.166219234E0
1.349455000E0,-2.631886721E0,1.025726509E1,2.682710648E0
1.369455000E0,-4.321121216E0,1.043879700E1,1.568701982E0
1.389455000E0,-4.559044361E0,1.428110409E1,1.519239306E0
1.409455000E0,-4.329132080E0,1.839591026E1,9.646260142E-1
1.429464375E0,-4.224429607E0,1.746549225E1,1.612527132E0
1.451455000E0,-1.205987573E0,3.382395744E0,1.796607018E0
1.471462813E0,7.002609968E-1,1.583886266E0,-7.291636467E-1
1.493453438E0,1.912479401E0,3.531848192E0,-6.260495782E-1
1.513453438E0,3.593441010E0,4.070142746E0,-6.320709586E-1
1.533453438E0,3.594575405E0,3.101607084E0,-1.328719139E0
1.553461250E0,3.036838055E0,2.309995651E0,-1.937629580E0
1.575455000E0,2.720723867E0,4.453207552E-1,-2.170421600E0
1.595467500E0,2.868466139E0,-7.332476974E-1,-2.171189547E0
1.617453438E0,2.315947294E0,-2.242730618E0,-2.529976845E0
1.637462813E0,1.755905986E0,-2.484144688E0,-2.949780941E0
1.659453438E0,1.218693614E0,-2.515071869E0,-2.983430862E0
1.679455000E0,5.081176758E-1,-1.752851605E0,-2.568042517E0
1.699455000E0,-3.621034622E-1,-1.052608013E0,-2.045351267E0
1.719455000E0,-9.270141721E-1,-2.005383372E-1,-1.617361665E0
1.739455000E0,-5.202302933E-1,3.635817528E0,-1.163942575E0
1.759455000E0,5.605124831E-1,3.813073158E0,-2.331899405E0
1.779455000E0,7.991164327E-1,3.626165867E0,-2.797867537E0
1.799455000E0,6.986553073E-1,3.986070156E0,-2.281599045E0
1.821453438E0,3.413864076E-1,3.614611864E0,-1.141934037E0
1.841455000E0,-2.606649101E-1,2.853159428E0,-1.143627048E0
1.861475313E0,-8.775340915E-1,3.111503124E0,-1.624150991E0
1.883453438E0,-5.230053663E-1,3.710919142E0,-1.270303011E0
1.903456563E0,-2.517113984E-1,4.284608841E0,-8.178787231E-1
1.925455000E0,-1.385442317E-1,4.539810658E0,-1.135511175E-1
1.945458125E0,8.237954229E-2,3.532668591E0,8.080874383E-2
1.967453438E0,5.928359628E-1,1.070846796E0,-1.782155633E-1
1.987453438E0,6.686007380E-1,-2.470164448E-1,-7.981390357E-1
2.007453438E0,4.138175547E-1,7.571238279E-2,-7.404209971E-1
2.027455000E0,-5.782275647E-2,5.695358515E-1,-6.994755864E-1
2.049453438E0,-4.739092588E-1,1.742187589E-1,-6.934891343E-1
2.069459688E0,-7.096334100E-1,-3.969576955E-1,-2.222851366E-1
2.091455000E0,-8.928406239E-1,-7.439466119E-1,1.387013197E-1
2.111459688E0,-1.242709279E0,-5.625196099E-1,1.994562298E-1
2.133455000E0,-1.569382548E0,-4.017747939E-2,2.685363591E-1
2.153456563E0,-1.666161060E0,1.246095300E0,2.879967690E-1
2.175453438E0,-1.622737288E0,2.022836685E0,2.765997648E-1
2.195453438E0,-1.474209785E0,1.690944791E0,7.537553310E-1
2.215455000E0,-1.372823596E0,9.580112249E-2,1.292451262E0
2.237455000E0,-1.367831945E0,-1.680437922E0,1.270198226E0
2.259455000E0,-1.427522302E0,2.116560787E-1,7.658504844E-1
2.279455000E0,-1.697001100E0,3.381366014E0,5.126206279E-1
2.301455000E0,-1.185497403E0,2.457912207E0,-9.580112249E-2
2.323455000E0,2.182010561E-1,2.725296736E0,-1.070305705E0
2.345453438E0,5.873032808E-1,-1.338824630E0,-2.160508156E0
2.365455000E0,-5.192878246E-1,-8.995426893E-1,-1.790603042E0
2.385462813E0,-1.635513186E0,-5.362175107E-1,-2.562911272E0
2.407453438E0,-1.838075995E0,-1.048489094E0,-3.724200964E0
2.427461250E0,-1.843015313E0,-1.142073631E0,-3.515738964E0
2.449455000E0,-1.228799105E0,3.175626695E-1,-3.225647688E0
2.469456563E0,-1.222498417E0,2.003637999E-1,-2.846684456E0
2.491453438E0,-4.985882044E-1,-2.055264711E0,-2.302682638E0
2.511455000E0,5.857673883E-1,-2.690390110E0,2.483079880E-1
2.533453438E0,9.740508199E-1,-3.000046313E-1,2.575547457E0
2.553455000E0,1.748156667E0,1.892338276E0,1.923893929E0
2.573455000E0,5.585053563E-1,2.800799608E0,7.140491009E-1
2.593465938E0,-1.268679857E0,3.345394850E0,1.117307425E0
2.615453438E0,-2.078111172E0,2.189253807E0,8.383688927E-1
2.635459688E0,-1.635879636E0,9.863030314E-1,2.737025321E-1
2.657453438E0,-9.252862930E-1,-3.876376152E-1,-2.063502818E-1
2.677462813E0,7.234390080E-2,-3.983539343E-1,-5.593256354E-1
2.699497188E0,6.460336447E-1,-2.456027269E-1,-6.199060678E-1
2.721453438E0,4.271693230E-1,-5.233195424E-1,-4.686907232E-1
2.741455000E0,-2.532821894E-1,-9.286198616E-1,-3.493276536E-1
2.763453438E0,-9.331752062E-1,-5.661150217E-1,-3.081378639E-1
2.783453438E0,-1.136575818E0,7.437894940E-1,-1.724210829E-1
2.803453438E0,-7.635815740E-1,1.921432972E0,-9.546951391E-3
2.823455000E0,-1.556659192E-1,2.299872637E0,-9.663888067E-2
2.843467500E0,1.516691130E-2,2.046171665E0,-2.426007688E-1
2.865481563E0,-1.607099175E-1,1.666457772E0,-2.995683253E-1
2.887455000E0,-1.974840015E-1,9.671916366E-1,-6.881833076E-2
2.909455000E0,3.829077780E-1,4.630533159E-1,2.724458873E-1
2.929455000E0,1.223056912E0,5.163730979E-1,8.160112500E-1
2.949455000E0,1.980268002E0,1.547391415E0,1.494752288E0
2.969455000E0,2.618744373E0,3.009244442E0,2.110225201E0
2.989455000E0,2.856231213E0,1.986167192E0,2.457004786E0
3.009455000E0,2.510970354E0,-1.519012451E0,1.819575548E0
3.029455000E0,1.724263072E0,-3.610510349E0,8.788779974E-1
3.049455000E0,1.295941830E0,-3.414213181E0,6.944665313E-1
3.069455000E0,1.604254246E0,-3.359409869E-1,1.119715929E0
3.089455000E0,1.888900042E0,2.630298376E0,1.434503555E0
3.109465938E0,1.556746364E0,2.528476000E0,1.355824113E0
3.131455000E0,1.126226068E0,8.813912868E-1,1.036673188E0
3.151461250E0,1.046464562E0,-7.716100663E-2,8.133757710E-1
3.173453438E0,1.170505047E0,-5.961346626E-1,5.927312374E-1
3.193456563E0,1.208483458E0,-9.529672265E-1,4.276754856E-1
3.215455000E0,8.305673003E-1,-1.491959810E0,2.464928478E-1
3.237453438E0,4.377285764E-2,-1.933580518E0,1.530653704E-2
3.257455000E0,-6.698224545E-1,-1.805124283E0,-3.059911132E-1
3.277455000E0,-9.638057351E-1,-1.652355552E0,-7.393563986E-1
3.299455000E0,-6.373418570E-1,-2.319368124E0,-1.121339083E0
3.319455000E0,-4.658283889E-1,-3.069405794E0,-1.214208126E0
3.339455000E0,-1.200786471E0,-2.586926937E0,-5.743180513E-1
3.359459688E0,-1.502431750E0,5.567774773E-1,1.073744059E0
3.381455000E0,-6.518106461E-1,3.083560467E0,2.598655701E0
3.401459688E0,5.674588680E-1,-9.968448281E-1,1.802279353E0
3.423453438E0,4.094193280E-1,-2.153212786E0,-5.572312474E-1
3.443453438E0,-4.642052054E-1,-2.140558958E0,-1.352211237E0
3.463455000E0,-1.532940149E0,-2.085109949E0,-5.819102526E-1
3.485453438E0,-2.234911442E0,-1.986900210E0,1.457349956E-1
3.505455000E0,-2.201959848E0,-1.086903811E0,1.764178872E-1
3.525470625E0,-1.945082188E0,1.760339141E-1,1.178620830E-1
3.547453438E0,-1.635268807E0,1.032117844E0,1.352281123E-1
3.567458125E0,-3.122620821E0,2.053240299E0,2.774200737E-1
3.589455000E0,-1.062032819E0,3.105883121E0,-4.468217492E-1
3.609467500E0,4.203974605E-1,2.446340799E0,-7.483448386E-1
3.631459688E0,-1.195550524E-2,-9.730210900E-2,-9.652543664E-1
3.653453438E0,-1.256654501E0,-1.765016556E0,-8.827875257E-1
3.673453438E0,-1.832124472E0,-4.532794654E-1,-7.677354217E-1
3.693453438E0,-1.506987095E0,2.328373909E0,-2.327571064E-1
3.713453438E0,-6.769259572E-1,4.028953075E0,5.159193277E-1
3.733461250E0,-4.094367921E-1,3.888122320E0,7.557449937E-1
3.755453438E0,-3.466398418E-1,2.919743776E0,4.632976353E-1
3.775456563E0,4.054399952E-2,2.769715309E0,3.545112908E-1
3.797453438E0,1.002709150E0,3.048601389E0,4.170115292E-1
3.817455000E0,2.256204605E0,3.266139269E0,5.581737757E-1
3.839455000E0,3.841399908E0,4.225895882E0,1.173506975E0
3.859455000E0,3.919485807E0,3.455769300E0,1.878323317E0
3.879455000E0,3.674651146E0,4.953244328E-1,2.471071959E0
3.901453438E0,3.469819307E0,-3.186307907E0,1.832491040E0
3.921453438E0,2.829196215E0,-3.151890039E0,7.375237942E-1
3.941456563E0,1.194643021E0,6.833138466E-1,3.435855210E-1
3.963453438E0,-1.587376893E-1,4.686331272E0,7.451508641E-1
3.983455000E0,-4.305727407E-2,5.138668060E0,1.230038285E0
4.005453438E0,9.670171142E-1,3.684564531E-1,1.282956600E0
4.025453438E0,7.850665450E-1,-2.923269510E0,7.826405168E-1
4.045453438E0,2.310117781E-1,-3.405067444E0,3.995233178E-1
4.065453438E0,-2.631607354E-1,-2.051809072E0,1.192408949E-1
4.085453438E0,-6.653892994E-1,-6.731385589E-1,1.720894687E-2
4.105453438E0,-9.940173626E-1,9.046041220E-2,1.293638051E-1
4.125453438E0,-1.459269762E0,-3.231826127E-1,1.534144431E-1
4.145453438E0,-2.031807661E0,-1.864430547E0,-2.720444798E-1
4.165453438E0,-2.353943110E0,-3.478580713E0,-9.686751962E-1
4.185453438E0,-2.487164021E0,-5.191604137E0,-1.637363195E0
4.205455000E0,3.198490441E-1,-9.637376785E0,-1.290164828E0
4.225455000E0,1.445691109E0,-7.732855797E0,1.117865920E0
4.247453438E0,1.050688177E-1,-3.398923874E0,1.840676546E0
4.267453438E0,-1.012762189E0,2.147540331E0,5.881236196E-1
4.287453438E0,-1.675463676E0,5.554789543E0,-3.378433883E-1
4.307453438E0,-2.670301437E0,-2.252242565E0,3.196221590E-1
4.327453438E0,-1.182198763E0,-2.644627571E0,-2.852042615E-1
4.347453438E0,2.059488446E-1,-2.561619759E0,-9.075537324E-1
4.367453438E0,8.561537862E-1,-3.726155758E0,-8.402712941E-1
4.387455000E0,4.049338400E-1,-4.780648708E0,-3.720867336E-1
4.409453438E0,-1.532713294E0,-1.979238272E0,2.913827300E-1
4.429455000E0,-2.187735319E0,5.209633112E-1,4.918163419E-1
4.449455000E0,-1.660715699E0,3.793996572E-1,1.590693146E-1
4.471455000E0,-1.311318278E0,3.117332458E-1,8.573057503E-2
4.493453438E0,-1.306501150E0,-4.151265621E-1,1.978505254E-1
4.513453438E0,-8.319460750E-1,-1.551894426E0,-1.653524935E-1
4.533453438E0,-5.104564428E-1,-2.232153893E0,-4.183030725E-1
4.553455000E0,-4.182157815E-1,-1.935814500E0,-2.635970712E-1
4.573455000E0,-2.875429988E-1,-1.271297812E0,-1.271123290E-1
4.595453438E0,-1.610938907E-1,-6.290515661E-1,-5.834635720E-2
4.615453438E0,-2.666863203E-1,-1.798561811E-1,1.158898622E-1
4.635453438E0,-4.912927151E-1,-3.935717419E-2,2.908765674E-1
4.655453438E0,-7.764620781E-1,-5.881759338E-3,2.974390090E-1
4.675453438E0,-8.688598275E-1,2.505245507E-1,2.475051433E-1
4.695494063E0,-6.895621419E-1,4.829151630E-1,4.371526241E-1
4.717453438E0,1.029744279E-2,7.308042645E-1,6.537829041E-1
4.737453438E0,9.234536886E-1,7.158991694E-1,9.906837940E-1
4.757453438E0,1.766971350E0,4.410621524E-1,1.482692122E0
4.777453438E0,2.018647909E0,-2.193006128E-1,1.760827780E0
4.797453438E0,2.353332043E0,-1.251977086E0,1.476932526E0
4.817455000E0,4.467152596E0,-3.426971436E0,7.826056331E-2
4.839455000E0,5.659718990E0,-3.374122858E0,-9.798627496E-1
4.859455000E0,3.585307598E0,8.881456852E-1,-2.982767820E-1
4.879455000E0,1.352507949E0,3.543280125E0,4.844510257E-1
4.901453438E0,-8.552113548E-3,2.759016514E0,6.785316467E-1
4.921453438E0,-3.330786228E-1,1.688239574E0,5.261120200E-1
4.941455000E0,-3.377212211E-2,7.417998314E-1,-3.139847144E-2
4.963453438E0,-2.940879762E-2,-5.832192302E-1,-3.957184851E-1
4.983453438E0,-4.731936753E-1,-1.116015911E0,-3.883008361E-1
5.003453438E0,-9.143256545E-1,-1.575369120E0,-5.563237071E-1
5.023453438E0,-1.202235103E0,-2.175675154E0,-1.066256523E0
5.043455000E0,-1.601793408E0,-2.757428169E0,-1.620520711E0
5.063459688E0,-2.262644768E0,-2.746240616E0,-1.810848951E0
5.085453438E0,-2.460512877E0,-1.798771262E0,-1.705902219E0
5.105453438E0,-1.248660922E0,-2.321985960E0,-7.203322649E-1
5.125453438E0,-1.979028821E0,-4.264362812E0,9.986948371E-1
5.145455000E0,-2.635621786E0,-2.793608904E0,9.458986521E-1
5.167455000E0,-2.234440327E0,5.540198684E-1,3.954741657E-1
5.189455000E0,7.843683958E-1,4.916819572E0,-7.133160532E-2
5.209455000E0,4.793197811E-1,1.892425537E0,-5.191481709E-1
5.229455000E0,-6.489308476E-1,-2.371675491E0,-1.058873773E0
5.249455000E0,-1.511507511E0,-2.098217249E0,-1.558334708E0
5.269455000E0,-1.238014340E0,-2.093068600E0,-9.047088623E-1
5.289455000E0,-1.018417120E0,-2.007076263E0,-1.605179310E-1
5.309455000E0,-1.292451262E0,1.813746095E-1,2.609790862E-1
5.329455000E0,-1.030669332E0,1.487160087E0,3.548952341E-1
5.349455000E0,-6.533465385E-1,9.826727509E-1,6.470633745E-1
5.369455000E0,-3.380877376E-1,1.166403517E-1,1.506393701E-1
5.389455000E0,-4.362450540E-1,-2.731963992E-1,-2.703514993E-1
5.409455000E0,-4.155105352E-1,-1.381428093E-1,-5.346292257E-1
5.429455000E0,-1.769414842E-1,-4.860218465E-1,-5.764124393E-1
5.449455000E0,-1.614953130E-1,-6.719692349E-1,-3.046472073E-1
5.469455000E0,-1.100604609E-1,9.817477316E-2,1.021366641E-1
5.489455000E0,-4.359832406E-2,6.647435427E-1,4.715530574E-1
5.509455000E0,7.286749780E-2,3.645992652E-2,5.496914387E-1
5.529455000E0,2.589544952E-1,-1.294842362E0,4.973141253E-1
5.551461250E0,2.419375330E-1,-1.935744643E0,3.806039393E-1
5.573455000E0,4.261919558E-1,-1.516970396E0,2.186548412E-1
5.595453438E0,1.429407239E0,-6.274458766E-1,2.884854674E-1
5.615453438E0,2.723917961E0,-3.648087084E-1,5.276828408E-1
5.635453438E0,3.317504406E0,-1.340884089E0,6.880087852E-1
5.655455000E0,3.366094351E0,-2.355409145E0,7.304900885E-1
5.677455000E0,3.026645184E0,-3.528985977E0,8.047713041E-1
5.699455000E0,2.336803913E0,-4.733263016E0,9.000139236E-1
5.719455000E0,1.610659599E0,-3.872606277E0,1.007002592E0
5.739455000E0,1.031594276E0,-1.566206098E0,1.296395659E0
5.759455000E0,6.240075827E-1,1.836086363E-1,1.289536476E0
5.779455000E0,2.843315899E-1,5.845282078E-1,1.199128509E0
5.799455000E0,8.779006451E-2,1.433787942E-1,1.188359737E0
5.819455000E0,-1.554913819E-1,-1.429127932E0,1.111600161E0
5.839455000E0,-4.801575243E-1,-3.348920345E0,9.705078006E-1
5.859455000E0,-7.978772521E-1,-4.631108761E0,8.255581856E-1
5.881455000E0,-1.130694151E0,-5.333621502E0,7.633022666E-1
5.901455000E0,-1.468188405E0,-5.906909943E0,7.143108845E-1
5.923453438E0,-1.961854815E0,-6.501037121E0,6.460161805E-1
5.943453438E0,-2.516328335E0,-7.524498463E0,7.436673641E-1
5.963453438E0,-2.764706135E0,-8.844735146E0,9.482024908E-1
5.983453438E0,-2.449255466E0,-9.031170845E0,1.124114156E0
6.003453438E0,-1.369315505E0,-7.590157509E0,1.172878742E0
6.023453438E0,-1.071492553E0,-3.538445711E0,6.594377756E-1
6.043455000E0,-3.919538260E0,5.951572582E-2,1.032658935E0
6.063483125E0,-1.217367128E-1,-2.207509995E0,-1.420767784E0
6.085453438E0,2.004423380E0,-6.953391433E-1,-1.884292364E0
6.105453438E0,7.809475660E-1,9.873676896E-1,-1.675708055E0
6.125453438E0,6.480581760E-1,-3.118554354E-1,-6.842039824E-1
6.145453438E0,2.237686664E-1,-2.086471319E0,3.759962916E-1
6.165453438E0,-4.697379172E-1,3.293767929E0,4.723908007E-1
6.185453438E0,3.670252860E-1,6.515139341E-1,-3.896796703E-1
6.205453438E0,6.810798049E-1,-3.187058449E0,1.736602634E-1
6.225453438E0,1.382126212E-1,-3.008354187E0,1.302190185E0
6.245453438E0,2.962696254E-1,-4.341925144E0,1.159910917E0
6.265453438E0,1.104409456E0,-6.564148426E0,4.662821591E-1
6.285455000E0,1.456023455E0,-8.240170479E0,2.126858234E-1
6.307453438E0,6.627014875E-1,-7.834067345E0,5.451186895E-1
6.327453438E0,-1.335525960E-1,-5.307790756E0,7.697774768E-1
6.347453438E0,-8.412486874E-3,-1.268173695E0,6.973288655E-1
6.367453438E0,-3.679677546E-1,-1.778595209E0,2.744355798E-1
6.387453438E0,-4.860218465E-1,-3.201754093E0,-4.520402756E-3
6.407453438E0,1.431519091E-1,-4.546896935E0,-6.230301857E-1
6.427453438E0,2.966535985E-1,-4.012878418E0,-6.288595796E-1
6.447453438E0,2.805093229E-1,-1.991054177E0,-7.171906829E-1
6.467455000E0,1.909390241E-1,-6.885498166E-1,-6.861063838E-1
6.489455000E0,-2.142740786E-1,-9.116553068E-1,-6.171658635E-1
6.509455000E0,-5.238431096E-1,-1.271978498E0,-6.654765606E-1
6.529455000E0,-5.444205403E-1,-1.244280100E0,-7.025997639E-1
6.549455000E0,-4.059635699E-1,-4.382870793E-1,-8.884074688E-1
6.569455000E0,2.184105068E-1,1.624203324E-1,-1.077304482E0
6.589455000E0,1.089068055E0,-3.752981424E-1,-1.159265161E0
6.609455000E0,1.472848415E0,-1.236897349E0,-6.352649331E-1
6.629455000E0,1.477578282E0,-2.111220121E0,1.690525860E-1
6.651455000E0,1.483931303E0,-3.243554831E0,8.624195457E-1
6.671455000E0,1.274718642E0,-3.295181513E0,1.050513625E0
6.691495625E0,9.885021448E-1,-2.118934393E0,1.316571712E0
6.713453438E0,6.170088053E-1,-4.265759289E-1,1.794669747E0
6.733453438E0,6.937684119E-2,-2.401049435E-1,1.970511675E0
6.753453438E0,-8.471827954E-2,-9.115156531E-1,1.776954651E0
6.773453438E0,-1.223475765E-2,-2.497478962E0,1.529554248E0
6.793453438E0,2.353052944E-1,-4.162453175E0,1.381445527E0
6.813453438E0,5.262516737E-1,-4.554454327E0,1.253111482E0
6.833455000E0,5.821371078E-1,-4.077089310E0,1.103466988E0
6.855453438E0,4.680449367E-1,-3.889605761E0,1.059170485E0
6.875453438E0,8.203745484E-1,-2.828847170E0,1.013093829E0
6.895453438E0,1.412111044E0,-2.350958437E-2,8.858418465E-1
6.915455000E0,1.759885311E0,2.021318197E0,8.218581080E-1
6.937453438E0,1.835999131E0,2.042384386E0,1.103606582E0
6.957455000E0,1.360012889E0,-6.868219376E-1,1.744439125E0
6.979455000E0,4.103094637E-1,-3.431701183E0,1.989169240E0
6.999455000E0,-9.813986719E-2,-3.211789846E0,1.910577059E0
7.021455000E0,-1.588249579E-3,-1.694016576E0,1.819383621E0
7.043453438E0,9.286896884E-2,-2.046538115E0,1.440420270E0
7.063458125E0,-3.028146178E-2,-2.790502310E0,9.807004929E-1
7.085455000E0,-3.861890137E-1,-2.480060577E0,6.035697460E-1
7.107453438E0,-8.402712941E-1,-2.003079414E0,5.910034180E-1
7.127453438E0,-1.222236633E0,-1.649929523E0,7.393389344E-1
7.147455000E0,-1.371078253E0,-1.128407717E0,6.203423738E-1
7.169455000E0,-9.143081903E-1,-3.705683053E-1,4.157723188E-1
7.189455000E0,-1.352595210E0,-9.949598312E-1,3.938160837E-1
7.209456563E0,-1.904136777E0,-2.324202538E0,9.878563695E-3
7.231458125E0,-1.213719368E0,-7.852410674E-1,-4.148647487E-1
7.253453438E0,-2.534741759E-1,5.971993208E-1,-2.031912357E-1
7.273462813E0,-2.529505789E-1,-3.176987886E0,-1.229584441E-1
7.295455000E0,-1.332052708E0,-3.480710089E-1,-7.524463534E-1
7.317455000E0,-1.319818020E0,1.458397150E0,-1.137431026E0
7.339455000E0,-9.374861717E-1,9.214290977E-1,-5.835334063E-1
7.359455000E0,-7.671245337E-1,-9.632471949E-2,-1.046848446E-1
7.379455000E0,-1.482482672E0,-4.218984246E-1,-3.373023272E-1
7.399455000E0,-3.154961824E0,7.469485402E-1,-5.165650845E-1
7.419455000E0,-2.147278547E0,1.371427417E0,1.481784508E-2
7.439455000E0,-1.683370024E-1,1.173768878E0,-1.320167035E-1
7.459455000E0,1.651430577E-1,3.352079391E-1,-4.381998181E-1
7.479459688E0,-4.750262499E-1,-2.421818823E-1,-5.142089128E-1
7.501453438E0,-1.017334938E0,5.818403959E-1,-5.586275458E-1
7.521455000E0,-1.054981709E0,1.622981668E0,-6.224716902E-1
7.543455000E0,-8.316668272E-1,1.659075022E0,-5.102993846E-1
7.565453438E0,-7.335095406E-1,5.154131651E-1,-4.819901288E-1
7.585453438E0,-7.708072066E-1,-3.761882782E-1,-5.126904845E-1
7.605453438E0,-9.104160666E-1,-2.090729922E-1,-4.837354422E-1
7.625453438E0,-1.042537570E0,1.105596304E0,-4.783772826E-1
7.645453438E0,-4.537855983E-1,2.000618458E0,-6.035697460E-1
7.665453438E0,3.084345758E-1,2.010549545E0,-7.497061491E-1
7.685453438E0,5.330060720E-1,1.518471360E0,-6.754249930E-1
7.705453438E0,9.364040494E-1,3.573212624E-1,-4.313406646E-1
7.725453438E0,1.066064596E0,9.634217247E-3,-2.084272206E-1
7.745453438E0,1.074145436E0,1.210333467E0,-1.530653704E-2
7.765453438E0,2.128900290E0,8.162207007E-1,4.042706192E-1
7.785455000E0,3.312181234E0,-8.140739202E-1,6.691766977E-1
7.807453438E0,3.766036510E0,-2.189602852E0,1.242203236E0
7.827455000E0,3.527729273E0,-2.967984676E0,2.155534029E0
7.849455000E0,2.472136736E0,9.517280012E-2,2.670004606E0
7.869455000E0,1.721208811E0,5.036898136E0,2.483516216E0
7.889455000E0,2.867750525E-1,8.593704224E0,1.992345691E0
7.909455000E0,5.001240969E-1,5.566622734E0,1.630905509E0
7.929455000E0,1.237525702E0,8.841838241E-1,1.094949722E0
7.949455000E0,3.992964327E-1,-1.416701198E0,5.817880630E-1
7.969455000E0,-3.411944211E-1,-2.560310841E0,5.928359628E-1
7.989455000E0,-4.222823977E-1,-2.740201712E0,8.210552335E-1
8.009455000E0,-1.414763927E-1,-2.001281738E0,9.858666658E-1
8.029455000E0,8.998917788E-2,-7.300013900E-1,7.855203152E-1
8.049455000E0,-8.901178953E-4,-3.406184614E-1,4.598244429E-1
8.069455000E0,-3.193428814E-1,-1.095229030E0,3.458893597E-1
8.091455000E0,-7.402988672E-1,-1.647800207E0,1.019272301E-2
8.113455000E0,-1.169632435E0,-1.274613976E0,-3.968704045E-1
8.135453438E0,-1.897434711E0,-1.621602893E0,-8.401317000E-1
8.155453438E0,-2.617156029E0,-1.610223293E0,-1.357010961E0
8.175453438E0,-2.371745348E0,-8.051204085E-1,-1.321301460E0
8.195453438E0,-1.437226295E0,6.657907367E-1,-5.610186458E-1
8.215455000E0,-5.424658060E-1,3.225473166E0,1.353677362E-1
8.235455000E0,-1.447052509E-1,3.201230526E0,4.541346729E-1
8.255455000E0,-2.552543879E-1,-8.695928454E-1,4.590215981E-1
8.277458125E0,-6.229429245E-1,-2.164138556E0,5.516985804E-2
8.299453438E0,-8.254185319E-1,-9.802641869E-1,-1.737126261E-1
8.319455000E0,-3.344923556E-1,-4.425805807E-1,-2.174680233E-1
8.339455000E0,-4.077089205E-2,8.538325429E-1,-1.710422635E-1
8.359455000E0,-2.541618347E0,-1.668290377E0,5.168792605E-1
8.379455000E0,-2.145829916E0,1.285382628E0,-1.280548126E-1
8.399455000E0,-7.476990670E-2,3.105830908E0,-8.013504744E-1
8.419455000E0,8.233590722E-1,2.219901800E0,-1.065191865E0
8.439455000E0,2.378011048E-1,7.183775306E-1,-1.013652325E0
8.461455000E0,-6.624920964E-1,1.682497412E-1,-6.232221723E-1
8.483453438E0,-3.036698401E-1,2.845061123E-1,-3.725754321E-1
8.503453438E0,-2.826909721E-1,2.670353651E-1,-5.767614841E-1
8.523453438E0,-9.478185177E-1,8.354542255E-1,-8.003905416E-1
8.543455000E0,-1.138007045E0,1.047023058E0,-4.983962178E-1
8.565453438E0,-7.732332349E-1,1.513427377E0,1.084547564E-1
8.585453438E0,-3.343701661E-1,1.837535024E0,3.588745892E-1
8.605453438E0,-2.308721542E-1,1.640906215E0,4.363148510E-1
8.625453438E0,-3.245963454E-1,1.211101413E0,2.543119192E-1
8.645455000E0,-1.793325841E-1,6.642373800E-1,1.778490469E-2
8.667455000E0,3.666936606E-2,1.043619633E0,1.190314535E-2
8.687497188E0,4.188092053E-1,1.974822640E0,3.752457909E-3
8.709455000E0,8.695055842E-1,2.695975065E0,-1.433438957E-1
8.731453438E0,1.490493774E0,2.604380369E0,-1.060636565E-1
8.751453438E0,1.835143924E0,2.875656843E0,1.554739326E-1
8.771453438E0,2.571707726E0,4.218286037E0,5.415058732E-1
8.791453438E0,4.376081467E0,3.887668610E0,7.087258697E-1
8.811455000E0,5.106362343E0,3.726452589E-1,1.078857780E0
8.831459688E0,3.999718666E0,-3.480012119E-1,1.635198951E0
8.853453438E0,1.709375501E0,2.959694386E0,1.295173883E0
8.873453438E0,1.085280657E0,4.741675377E0,7.871958613E-1
8.893453438E0,1.420855045E0,3.572915792E0,6.827553511E-1
8.913453438E0,1.603102326E0,8.244935274E-1,3.484724462E-1
8.933453438E0,1.576817751E0,-3.420496285E-1,-2.967059612E-3
8.953453438E0,1.490301728E0,-8.237954229E-3,-9.580112249E-2
8.973455000E0,8.575151563E-1,-3.559598923E-1,-1.274020553E0
8.995453438E0,-1.369263172E0,-1.290094972E0,-1.166946316E1
9.015455000E0,-1.845074773E0,3.459102869E0,-5.232008457E0
9.035461250E0,-4.914149046E-1,6.204278946E0,2.809526205E0
9.057455000E0,2.673303366E0,4.728323936E0,4.804018974E0
9.077455000E0,1.773498893E0,2.945539713E0,3.264725685E0
9.099455000E0,-5.558175445E-1,-1.448361516E0,5.456073880E-1
9.119455000E0,-1.626734138E0,-3.605064869E0,-8.457516432E-1
9.139455000E0,-1.794407845E0,-3.133616447E0,-1.500616670E0
9.159455000E0,-1.073813796E0,-3.214372993E-1,-1.098963976E0
9.181453438E0,-1.029063582E0,1.600187659E0,-1.195550561E-1
9.201461250E0,-1.237281322E0,3.272317886E0,6.727371812E-1
9.223453438E0,-1.763916969E0,2.409496784E0,7.471405268E-1
9.243462813E0,-2.528633118E0,-3.884579420E0,2.475051433E-1
9.265453438E0,-1.848792315E0,-5.334965229E0,4.562115967E-1
9.285458125E0,-3.197268546E-1,-1.329871058E0,1.556851149E0
9.307453438E0,3.524343371E-1,1.420942307E0,3.792425990E-1
9.327455000E0,1.181064323E-1,2.481160164E0,-4.172558486E-1
9.349455000E0,-8.328362107E-1,1.328649282E0,-6.838374734E-1
9.369455000E0,-8.481776714E-1,4.664916098E-1,-1.159125566E0
9.389455000E0,-5.896595120E-1,5.783148408E-1,-1.219740748E0
9.409464375E0,-5.208237171E-1,1.278034806E0,-7.571238279E-1
9.431461250E0,-8.570613861E-1,7.177317739E-1,-6.024003625E-1
9.453453438E0,-1.267999172E0,2.145533264E-1,-9.764419198E-1
9.473455000E0,-1.037004828E0,1.496776938E0,-9.037838578E-1
9.495453438E0,-4.335223436E-1,2.033081770E0,-3.957184851E-1
9.515453438E0,-1.150695607E-1,1.214225531E0,-3.116285503E-1
9.535453438E0,1.019097716E-1,7.735997438E-1,-4.039913714E-1
9.555453438E0,3.034080267E-1,9.207658768E-1,-4.222126007E-1
9.575455000E0,7.149741054E-1,1.290862918E0,-3.431142867E-1
9.597453438E0,1.031140566E0,2.691489697E0,-5.410520732E-2
9.617455000E0,1.226268291E0,4.840879917E0,6.991788745E-2
9.639455000E0,1.440612197E0,2.734389782E0,-1.038121805E-1
9.661455000E0,9.660397172E-1,9.293354750E-1,-4.567526653E-2
9.683453438E0,1.971000284E-1,3.234932899E0,7.339283824E-1
9.703453438E0,1.234942555E0,3.666779757E0,1.671309829E0
9.723453438E0,1.618094802E0,-3.214023709E-1,1.985975266E0
9.743453438E0,1.569190621E0,-2.665693760E0,1.475850463E0
9.763455000E0,1.579575300E0,-1.719446063E0,9.971764088E-1
9.785453438E0,1.225046635E0,3.047693968E-1,6.243042648E-2
9.805453438E0,9.608212113E-1,1.531910419E0,-3.278600872E-1
9.825453438E0,6.869965196E-1,1.774703145E0,-1.180191636E-1
9.845453438E0,3.215594590E-1,1.561214447E0,9.927432984E-2
9.865453438E0,2.535963431E-2,1.775279045E0,1.510233432E-1
9.885453438E0,-2.168571651E-1,2.089560509E0,2.523396909E-1
9.905453438E0,-4.325274825E-1,1.892722249E0,2.093871534E-1
9.925453438E0,-5.667956471E-1,1.229706645E0,-9.091419727E-2
9.945455000E0,-6.906791329E-1,3.138625622E-1,-4.514817595E-1
9.967453438E0,-9.287769794E-1,-4.683067501E-1,-8.079303503E-1
9.987453438E0,-1.189686179E0,-1.104688644E0,-1.017334938E0
1.000745344E1,-1.539362907E0,-1.940457106E0,-1.169841886E0
1.002745500E1,-1.973967433E0,-2.765753508E0,-1.232534051E0
1.004945500E1,-2.144451141E0,-2.451157808E0,-9.363167882E-1
1.006945500E1,-1.781859040E0,-4.667184949E-1,-1.907644868E-1
1.008945500E1,-1.346591353E0,2.043640852E0,5.073497295E-1
1.010945500E1,-1.327148318E0,2.380454540E0,7.679448724E-1
1.012945500E1,-1.580797076E0,8.410916328E-1,5.801474452E-1
1.014945500E1,-1.294318676E0,-1.341198206E0,7.597941756E-1
1.017145500E1,-2.828305960E-1,-4.030174732E0,1.500023246E0
1.019345344E1,2.660928965E-1,-3.309022188E0,3.864159063E-2
1.021345344E1,6.579891313E-3,-1.254228473E0,-1.016566992E0
1.023345344E1,1.019446775E-1,-4.635070860E-1,-1.837866545E0
1.025345344E1,-9.761626273E-2,9.699667096E-1,-1.110256314E0
1.027345344E1,-3.749665320E-1,1.275137544E0,-2.983291149E-1
1.029345344E1,-1.568178385E-1,1.553552508E0,1.759291887E-1
1.031345344E1,1.994736791E-1,1.142562389E0,4.119849801E-1
1.033345500E1,4.768239334E-2,3.826285303E-1,2.780309506E-2
1.035545500E1,-1.926494479E0,6.242519021E-1,-1.239061594E0
1.037745344E1,-1.644676089E0,1.318875551E0,-9.257051945E-1
1.039745344E1,-2.673146129E-1,1.408550501E0,-2.846457362E-1
1.041745344E1,2.831098437E-1,1.640033484E0,-5.756095797E-2
1.043745344E1,5.208062381E-2,1.201013446E0,1.005484164E-1
1.045745500E1,-2.336297780E-1,8.021009564E-1,5.562364310E-2
1.047745500E1,-3.752457798E-1,9.449387193E-1,-1.738347858E-2
1.049945500E1,-4.783772826E-1,1.558596492E0,-2.097187638E-1
1.051945500E1,-6.275331378E-1,1.955728650E0,-2.976833582E-1
1.053945500E1,-3.976383507E-1,1.644693613E0,-3.496243656E-1
1.055945500E1,8.831365965E-3,9.714153409E-1,-4.937536418E-1
1.057945500E1,4.956734832E-3,2.345373482E-1,-5.952270627E-1
1.059945500E1,-1.435707808E-1,-1.199390292E-1,-4.921130240E-1
1.062145344E1,-1.354899108E-1,2.154957950E-1,-2.876127958E-1
1.064145344E1,2.120575123E-2,5.706353784E-1,-3.062180281E-1
1.066145656E1,-1.404990070E-2,9.253735542E-1,-4.394738972E-1
1.068349562E1,-3.142814338E-1,1.020371795E0,-4.388106763E-1
1.070545344E1,-5.600237846E-1,1.471853614E0,-6.063099504E-1
1.072545344E1,-2.184454054E-1,1.965380311E0,-6.530498266E-1
1.074545344E1,3.571990728E-1,2.246919394E0,-4.208686948E-1
1.076545344E1,1.007945061E0,2.132966757E0,-3.071779385E-3
1.078545344E1,2.231438398E0,7.603875995E-1,3.532022834E-1
1.080545344E1,2.872026443E0,-3.405137360E-1,6.237981319E-1
1.082545344E1,3.054954529E0,-9.503492117E-1,1.025188923E0
1.084545344E1,3.148800850E0,-1.863383293E0,1.314564586E0
1.086545500E1,2.968735218E0,-2.526468754E0,1.065663099E0
1.088745500E1,2.398797989E0,-1.900628686E0,7.536331415E-1
1.090945500E1,1.730825543E0,7.837924361E-1,6.991788745E-1
1.092945500E1,1.308857322E0,3.125936985E0,6.771528125E-1
1.094945500E1,1.325211048E0,3.718319178E0,6.840992570E-1
1.096945500E1,1.635425806E0,2.445904493E0,7.696378231E-1
1.098945500E1,1.532241940E0,7.668104172E-1,6.984458566E-1
1.100945500E1,1.156612277E0,-2.152689099E-1,5.939355493E-1
1.102945500E1,8.140739202E-1,-1.549852341E-1,4.946786761E-1
1.104945500E1,5.731835961E-1,7.747516781E-2,4.532620013E-1
1.106945500E1,3.556806445E-1,-5.747369304E-2,3.885975480E-1
1.108945500E1,9.405579418E-2,-5.658357143E-1,1.961400956E-1
1.110945500E1,-1.561895162E-1,-1.321266651E0,-4.963716492E-2
1.112945500E1,-3.547730744E-1,-1.970564008E0,-2.526189685E-1
1.114945500E1,-4.980122447E-1,-2.248053789E0,-3.895225823E-1
1.117145500E1,-6.667855978E-1,-2.251754045E0,-4.839099944E-1
1.119345344E1,-9.409942627E-1,-2.229448557E0,-5.613502264E-1
1.121345344E1,-1.286167979E0,-2.150053740E0,-6.328215003E-1
1.123345344E1,-1.556990743E0,-1.906318426E0,-6.112317443E-1
1.125345344E1,-5.254139304E-1,-1.111635089E0,-5.328490213E-2
1.127345344E1,4.482354522E-1,-5.519778132E-1,9.438391328E-1
1.129345344E1,-2.450442314E-2,-6.955137253E-1,1.026951671E0
1.131345344E1,9.861109778E-3,1.089085415E-1,1.162441611E0
1.133345344E1,3.011914790E-1,1.149002552E0,1.274823427E0
1.135345344E1,-1.317723561E-2,1.370257974E0,1.093919992E0
1.137345344E1,-6.365041137E-1,9.690242410E-1,4.086339474E-1
1.139345344E1,-9.119345546E-1,5.464974642E-1,-8.079827428E-1
1.141345344E1,-2.281319797E-1,-8.310210705E-1,-1.303062797E0
1.143345344E1,3.757344782E-1,-2.556977272E0,-4.288099408E-1
1.145345344E1,5.865527987E-1,-2.745193481E0,3.663620651E-1
1.147345500E1,-1.125388294E-1,-7.321132421E-1,5.269148946E-2
1.149545344E1,-1.541754007E0,1.705640435E0,-2.283763289E-1
1.151545344E1,-2.398134708E0,2.353227377E0,-2.108183205E-1
1.153545344E1,-2.114989996E0,1.181378484E0,-1.003738865E-1
1.155545500E1,-1.001155734E0,-2.886250913E-1,7.520623505E-2
1.157545500E1,-3.238632977E-1,-5.565156937E-1,-1.066396199E-2
1.159745344E1,-2.666845560E0,-3.275110424E-1,3.439345956E-1
1.161745344E1,-2.064794302E0,2.628465891E0,1.906074136E-1
1.163745344E1,1.302102923E0,4.481865883E0,5.845107511E-2
1.165745344E1,1.825405002E0,3.716957808E0,3.707079217E-2
1.167745344E1,4.175176620E-1,4.903502464E-1,-9.868091345E-2
1.169745344E1,-3.323630393E-1,-3.065670729E0,-2.645919025E-1
1.171745344E1,-1.226634860E0,-3.549458742E0,-6.436076164E-1
1.173745344E1,-2.124449730E0,-4.264537394E-1,-5.617691278E-1
1.175745344E1,-1.109418511E0,-4.095065892E-1,1.807637513E-1
1.177745344E1,-4.242371917E-1,1.929461509E-1,6.951471567E-1
1.179745344E1,-3.752283454E-1,1.409894466E0,8.161857724E-1
1.181745500E1,-3.814068139E-1,1.986847878E0,4.081452489E-1
1.183945500E1,2.860943675E-1,1.768489718E0,2.240479141E-1
1.185945500E1,1.029115915E0,1.637345672E0,3.216292858E-1
1.187945500E1,2.027112722E0,2.287707806E0,4.491953850E-1
1.189945500E1,3.464705467E0,3.306316853E0,6.551093459E-1
1.191945500E1,3.851941586E0,3.078499079E0,8.944812417E-1
1.193945500E1,3.769928694E0,6.382669210E-1,8.005650640E-1
1.195945500E1,3.436553240E0,-7.890807986E-1,4.930205941E-1
1.198145344E1,2.188276291E0,-1.179842558E-2,1.754230410E-1
1.200145344E1,8.714254498E-1,1.150451183E0,2.319717109E-1
1.202145500E1,2.726902366E-1,1.223214030E0,4.020889401E-1
1.204345344E1,3.005456924E-1,2.297202349E-1,1.432566196E-1
1.206345500E1,1.638340503E-1,-2.712939680E-1,-9.744173288E-2
1.208545344E1,-3.670427501E-1,-6.735923886E-1,-4.974188283E-3
1.210545344E1,-8.202349544E-1,-1.200018525E0,-2.171189524E-2
1.212545344E1,-1.255659699E0,-1.985451698E0,-2.735978067E-1
1.214545344E1,-1.797374964E0,-3.026261330E0,-5.511924028E-1
1.216545500E1,-2.124641657E0,-3.857910633E0,-5.936737657E-1
1.218745500E1,-2.430981874E0,-4.331680298E0,-1.718625724E-1
1.220945500E1,-1.891029358E0,-6.335737228E0,-6.181956083E-2
1.222945500E1,-1.171517372E0,-3.943623781E0,3.508111835E-2
1.224945500E1,-7.707897425E-1,7.896567583E-1,1.418952644E-2
1.226945500E1,-1.107027411E0,3.471267939E0,4.820599407E-2
1.228945500E1,-1.440908909E0,2.593053102E0,1.236042157E-1
1.230945500E1,-8.814436197E-1,1.395408154E0,-5.477715731E-1
1.232945500E1,3.952996135E-1,1.414065719E0,-1.176316977E0
1.234945500E1,1.213771820E0,-3.507762849E-1,-7.611031532E-1
1.237145500E1,4.840147197E-1,-2.211367130E0,-4.381125569E-1
1.239345344E1,-7.852061987E-1,-2.263709545E0,-2.506641746E-1
1.241345344E1,-1.242639542E0,2.460739762E-1,-1.047372073E-1
1.243345344E1,-6.234316230E-1,2.401014566E0,6.641501188E-1
1.245345344E1,1.101651788E-1,1.897975683E0,1.048401833E0
1.247345500E1,1.143365204E-1,6.879913211E-1,9.057385921E-1
1.249545344E1,-2.165255398E-1,-2.224771231E-1,4.323704243E-1
1.251545344E1,-4.042007923E-1,-3.338465691E-1,1.437802166E-1
1.253545344E1,-4.940852523E-1,2.579073012E-1,1.544790864E-1
1.255545500E1,-3.488564193E-1,1.258225322E0,3.487167880E-2
1.257545500E1,1.305506229E-1,1.741349936E0,-2.273465842E-1
1.259745344E1,4.335746765E-1,6.922150254E-1,-3.845832944E-1
1.261745344E1,3.088883758E-1,-8.376009464E-1,-4.448146224E-1
1.263745344E1,4.537856206E-3,-1.682741761E0,-3.311064243E-1
1.265745344E1,-1.245466918E-1,-1.204469204E0,-1.034107581E-1
1.267745500E1,-4.584980011E-2,1.336049587E-1,2.358812541E-1
1.269945500E1,1.606575549E-1,1.265311360E0,5.828003287E-1
1.271945500E1,2.168746144E-1,1.485379934E0,7.032455206E-1
1.273945500E1,2.270324230E-1,1.148356795E0,6.087883115E-1
1.275945500E1,5.174901485E-1,4.082848728E-1,3.499210477E-1
1.277945500E1,8.905193210E-1,-3.347192407E-1,1.838878840E-1
1.279945500E1,9.986425042E-1,-6.021560431E-1,1.004436985E-1
1.281945500E1,9.894794822E-1,-2.924822867E-1,1.606051922E-1
1.283945500E1,1.065314054E0,-4.626867920E-2,1.642529368E-1
1.286145500E1,1.083465457E0,1.750041693E-1,2.389530241E-1
1.288145500E1,1.008329034E0,3.386811316E-1,3.445105255E-1
1.290146281E1,8.776038885E-1,4.619537592E-1,3.841469586E-1
1.292345344E1,6.031159759E-1,5.100724697E-1,3.632379174E-1
1.294345344E1,1.018574163E-1,3.444232643E-1,3.595552742E-1
1.296345344E1,-4.512199759E-1,1.279675364E-1,2.411696017E-1
1.298345500E1,-4.605749249E-1,2.130697966E-1,8.639379404E-3
1.300545500E1,5.142437816E-1,3.674616218E-1,-1.108284071E-1
1.302745344E1,6.212325096E-1,2.722364664E-1,-3.306526244E-1
1.304745344E1,4.390201271E-1,3.058514893E-1,-2.894977629E-1
1.306745344E1,2.936691046E-1,6.754598618E-1,8.562584966E-2
1.308745344E1,2.617644668E-1,1.197121382E0,3.867126107E-1
1.310745500E1,2.253743708E-1,1.837290645E0,4.009893835E-1
1.312945500E1,1.036725566E-1,2.252871037E0,2.733534575E-1
1.314945500E1,1.280198991E-1,2.026903152E0,8.813912421E-2
1.316945500E1,6.572735310E-1,9.484817386E-1,-4.212875664E-1
1.318945500E1,1.243232965E0,-6.454402208E-1,-1.189878225E0
1.320945500E1,9.221097827E-1,-1.802209496E0,-1.638497591E0
1.322945500E1,-2.751685977E-1,-2.128254414E0,-1.371305227E0
1.325145500E1,-1.573030353E0,-1.221695542E0,-1.136732936E0
1.327145500E1,-2.036135912E0,-1.313883811E-1,-1.133189917E0
1.329345344E1,-1.843940377E0,6.857224107E-1,-1.257300258E0
1.331345344E1,-1.386123061E0,8.913571239E-1,-1.244507074E0
1.333345344E1,-1.443090558E0,4.936140180E-1,-9.813986421E-1
1.335345344E1,-1.946216583E0,-1.631882787E-2,-5.805488825E-1
1.337345344E1,-1.934732318E0,-2.259154171E-1,-2.756223977E-1
1.339345344E1,-1.811791420E0,-9.827949107E-2,-1.059938446E-1
1.341345344E1,-1.948153973E0,2.207841426E-1,8.637634665E-2
1.343345344E1,-1.677627921E0,9.839991927E-1,2.826735377E-1
1.345345344E1,-1.111460567E0,1.520373702E0,4.578871131E-1
1.347345500E1,-1.011540413E0,1.139385819E0,6.083694100E-1
1.349545344E1,-1.061997890E0,7.218506932E-1,8.717744946E-1
1.351545344E1,-5.795540214E-1,2.218488008E-1,9.464571476E-1
1.353545344E1,-1.366243660E-1,-1.461189687E-1,2.965663373E-1
1.355545344E1,-1.705186628E-2,-4.069933295E-1,-4.772777259E-1
1.357545500E1,-1.183228493E0,-1.134080052E0,-1.236914873E0
1.359745344E1,-1.433770537E0,-4.241150245E-2,-1.076798320E0
1.361745344E1,1.068315983E0,5.850518346E-1,2.485872507E-1
1.363745344E1,1.819662809E0,6.085090637E-1,7.637386322E-1
1.365745344E1,1.100848913E0,-8.326965570E-2,7.065267563E-1
1.367749562E1,5.281191468E-1,-6.726324558E-1,3.451563120E-1
1.369945344E1,3.861540854E-1,-5.874429345E-1,6.558947265E-2
1.371945500E1,5.659404397E-1,-5.916491747E-1,2.136457562E-1
1.374145500E1,5.282413363E-1,-8.119969964E-1,3.257656991E-1
1.376145500E1,5.231624246E-1,-8.759981990E-1,1.153313592E-1
1.378345344E1,4.169068038E-1,-1.021471381E0,-1.172861233E-1
1.380345344E1,2.473829687E-1,-1.040670037E0,-3.481233716E-1
1.382345344E1,2.356543541E-1,-1.004786015E0,-3.756123185E-1
1.384345344E1,3.308795094E-1,-1.090062857E0,-2.922204733E-1
1.386348625E1,5.737071633E-1,-1.508610249E0,-1.786518991E-1
1.388545344E1,7.230200768E-1,-2.089054346E0,-7.106980681E-2
1.390545344E1,8.006697893E-1,-2.471962214E0,-8.930850029E-2
1.392545344E1,8.525235057E-1,-2.723830700E0,-1.978679746E-1
1.394545344E1,9.669996500E-1,-2.999505281E0,-3.731513917E-1
1.396545344E1,1.076903105E0,-3.574085236E0,-4.832991362E-1
1.398545344E1,1.049291968E0,-4.229421616E0,-3.702890575E-1
1.400545500E1,7.957828641E-1,-4.330353737E0,-1.417381912E-1
1.402745344E1,5.123239756E-1,-3.913656473E0,1.541125681E-2
1.404745500E1,4.157199860E-1,-3.485841274E0,1.204800755E-1
1.406945500E1,4.548677206E-1,-3.291289568E0,3.065845370E-1
1.409145500E1,4.220904112E-1,-3.124523401E0,5.486617088E-1
1.411145500E1,2.396860719E-1,-2.833716631E0,7.351152301E-1
1.413145500E1,-3.532546386E-2,-2.757602692E0,7.425503135E-1
1.415145500E1,2.623578906E-1,-4.115207195E0,7.161086053E-2
1.417345344E1,1.156769276E0,-3.441701889E0,-3.455577493E-1
1.419345500E1,1.418795586E0,-9.983283281E-2,3.311936855E-1
1.421345656E1,1.211450458E0,1.246479273E0,8.246331811E-1
1.423545344E1,9.489005804E-1,5.329188108E-1,9.935112000E-1
1.425545344E1,7.224266529E-1,-4.602782428E-1,1.008381367E0
1.427545500E1,5.221501589E-1,-1.198203444E0,9.428617358E-1
1.429545500E1,5.288172960E-1,-1.563692808E0,1.282206178E0
1.431745500E1,4.346219003E-1,-4.733332992E-1,1.423176408E0
1.433746438E1,2.508212626E-1,6.200107336E-1,1.224889517E0
1.435945500E1,2.250776589E-1,3.232524395E-1,1.054109097E0
1.437946281E1,5.822592974E-1,-1.215063334E0,1.005658746E0
1.440145344E1,3.163234591E-1,-3.169727325E0,1.008468747E0
1.442145344E1,-4.667882919E-1,-2.445642710E0,1.038872361E0
1.444145344E1,-8.599760532E-1,-7.056366205E-1,1.015205622E0
1.446146125E1,-7.115358114E-1,1.420174390E-1,9.275028706E-1
1.448345500E1,-5.409473181E-1,6.305874884E-2,7.441036701E-1
1.450545500E1,-6.261543036E-1,-7.933568358E-1,5.632352233E-1
1.452745344E1,-7.645065784E-1,-1.604900002E0,3.644596636E-1
1.454745344E1,-8.682489395E-1,-1.899651289E0,2.446427941E-1
1.456745344E1,-9.783093929E-1,-2.233899355E0,2.269102484E-1
1.458745344E1,-9.927607179E-1,-2.727146864E0,1.958433986E-1
1.460745500E1,-7.485542893E-1,-3.153897285E0,1.405164599E-1
1.462945500E1,-6.682865620E-1,-3.105656385E0,1.903281510E-1
1.464945500E1,-9.335940480E-1,-2.444560528E0,3.360806108E-1
1.467145500E1,-1.257789016E0,-1.246775985E0,4.494571984E-1
1.469345344E1,-1.348685741E0,-1.168497950E-1,3.451388478E-1
1.471345344E1,-7.600559592E-1,-1.081248879E0,-1.010894701E-1
1.473345344E1,-2.238384783E-1,-2.549367428E0,-5.386609435E-1
1.475345500E1,2.190388143E-1,-1.557392240E0,-7.493221760E-1
1.477545344E1,-7.203148603E-1,-2.554446459E0,-4.292811751E-1
1.479545500E1,-4.389328659E-1,1.649859697E-1,-4.788136184E-1
1.481745344E1,5.746322274E-1,3.885766029E0,-6.318615675E-1
1.483745344E1,4.570842683E-1,3.295740128E0,-7.563558817E-1
1.485745500E1,-4.127529263E-1,6.489133835E-2,-8.099724054E-1
1.487745500E1,-6.001489162E-1,-2.018961906E0,-8.149465919E-1
1.489745500E1,-1.914975196E-1,-2.461734533E0,-9.900729060E-1
1.491745500E1,-1.263094842E-1,-1.904084444E0,-9.324421287E-1
1.493945344E1,-2.150001287E0,2.367835760E0,-3.857701123E-1
1.495945500E1,-1.224365950E0,3.881978750E0,-4.886223674E-1
1.497945500E1,1.427853853E-1,2.812685251E0,-3.783699274E-1
1.500145344E1,-2.859547436E-1,2.217615366E0,-2.822895646E-1
1.502145500E1,-6.695257425E-1,1.696948767E0,-4.082848728E-1
1.504145500E1,-4.293859005E-1,8.223816752E-1,-3.756297529E-1
1.506145500E1,-2.711369097E-1,2.673844434E-2,-2.857452929E-1
1.508345344E1,-2.561270595E-1,-5.721538067E-1,-2.242399007E-1
1.510345344E1,-2.873510122E-1,-5.858023167E-1,-1.060636565E-1
1.512345500E1,-3.327121139E-1,-5.869717002E-1,-1.202531811E-2
1.514545500E1,-4.988674521E-1,-6.215640903E-1,-1.160643995E-2
1.516545500E1,-4.499284327E-1,-6.680945754E-1,-1.120501384E-1
1.518745500E1,-2.734232843E-1,-6.525960565E-1,-1.964891702E-1
1.520945500E1,-1.567131132E-1,-6.062400937E-1,-3.406009972E-1
1.522945500E1,-1.289623827E-1,-7.387629747E-1,-4.313057661E-1
1.524945500E1,-2.327571064E-1,-9.711011648E-1,-4.660029113E-1
1.526945500E1,-3.067066967E-1,-1.184624791E0,-4.628787637E-1
1.528945500E1,-3.400774002E-1,-1.189930558E0,-3.876550794E-1
1.530945500E1,-3.995058537E-1,-8.465370536E-1,-2.788861692E-1
1.532945500E1,-4.669628441E-1,-3.850196302E-1,-1.837657094E-1
1.535146438E1,-4.304330945E-1,2.994984947E-2,-2.100678235E-1
1.537345344E1,-2.177298218E-1,2.187944800E-1,-3.249104917E-1
1.539345344E1,-4.129448906E-2,1.834166497E-1,-4.323529601E-1
1.541345344E1,-5.040510744E-2,1.993864179E-1,-5.528155565E-1
1.543345344E1,-2.317622751E-1,3.398156166E-1,-6.975033879E-1
1.545345344E1,-2.757445574E-1,4.917465150E-1,-9.027191997E-1
1.547345500E1,-1.098161191E-1,6.640803218E-1,-1.110849738E0
1.549345500E1,1.090830788E-1,7.295825481E-1,-1.122665524E0
1.551545344E1,5.734977126E-1,1.717927605E-1,-6.050009131E-1
1.553545344E1,1.199215770E0,-4.048116505E-1,1.385791413E-2
1.555545500E1,2.259346247E0,-1.344252586E0,3.792076707E-1
1.557545500E1,2.993065119E0,-2.326174736E0,8.367108107E-1
1.559745344E1,2.979189873E0,-2.965157270E0,1.534231663E0
1.561745500E1,2.533903837E0,-4.072882652E0,1.919739962E0
1.563945500E1,1.959760427E0,-2.667665958E0,1.741105556E0
1.566145969E1,1.068211317E0,1.492326260E0,1.459810853E0
1.568345344E1,7.709293962E-1,3.211510420E0,1.551859498E0
1.570345500E1,1.171552300E0,2.430946827E0,1.613330007E0
1.572545500E1,1.058367610E0,1.115370154E0,1.524684668E0
1.574745500E1,4.656014740E-1,9.562659264E-2,1.569539666E0
1.576945500E1,2.490061224E-1,-8.817403316E-1,1.796816468E0
1.578945500E1,3.907442987E-1,-1.868479729E0,1.755539417E0
1.580945500E1,6.590538025E-1,-2.461682081E0,1.421727777E0
1.582945500E1,8.754047751E-1,-2.276136160E0,1.023234129E0
1.584945500E1,1.021593571E0,-1.862021923E0,6.627888083E-1
1.586946750E1,8.535532951E-1,-1.774092317E0,4.069060683E-1
1.589145500E1,3.341432810E-1,-1.608530283E0,2.272593230E-1
1.591345344E1,-1.949009150E-1,-9.528450370E-1,-2.268928103E-2
1.593345344E1,-4.063999057E-1,-8.735721707E-1,-4.455651045E-1
1.595345344E1,-4.497015476E-1,-1.805665255E0,-8.596444726E-1
1.597345500E1,-5.331631899E-1,-2.296888113E0,-1.070183516E0
1.599545344E1,-7.377506495E-1,-4.825660884E-1,-8.134804964E-1
1.601545500E1,-9.250768423E-1,2.261754751E0,1.741838641E-2
1.603745500E1,-4.835609198E-1,2.245837212E0,7.762875557E-1
1.605945500E1,-5.879490376E-1,-1.474035263E0,4.692666829E-1
1.607945500E1,-8.917236328E-1,-4.305099010E0,-9.706997871E-1
1.609945500E1,-1.151847482E0,-1.401988029E0,-1.619909883E0
1.611945500E1,-1.507667780E0,1.552435398E0,2.663372457E-1
1.613945500E1,-1.707036734E0,-1.355789185E0,6.348460317E-1
1.615945500E1,-1.684452176E0,-2.238384724E0,-4.159817696E-1
1.617945500E1,-1.474576354E0,-1.705326319E0,-1.437906981E0
1.619945500E1,-8.198858500E-1,-1.223440886E0,-1.370275497E0
1.621945500E1,-6.191206574E-1,-7.786088586E-1,-8.933293223E-1
1.623945500E1,-2.129476309E0,2.853962481E-1,-6.398726106E-1
1.625945500E1,-1.682427526E0,8.851436973E-1,-1.438500434E-1
1.627945500E1,-4.287924767E-1,2.694439292E-1,-1.201135591E-1
1.630145500E1,-5.347339511E-1,-6.551616788E-1,-6.130992770E-1
1.632145500E1,-1.052922249E0,-5.836032033E-1,-6.955311298E-1
1.634146125E1,-1.171761751E0,9.995500743E-2,-7.452381253E-1
1.636345500E1,-1.515783548E0,8.215264678E-1,-1.004786015E0
1.638545344E1,-1.767390251E0,9.129991531E-1,-8.884598613E-1
1.640545344E1,-1.532957554E0,1.420942307E0,-9.767735004E-1
1.642545344E1,-4.506440163E-1,1.960790157E0,-1.020598769E0
1.644545344E1,8.435699940E-1,1.348825336E0,-7.682415843E-1
1.646545344E1,1.128372788E0,4.540648460E-1,-4.047767520E-1
1.648545344E1,1.323361039E0,-2.660230696E-1,-3.007202223E-2
1.650545500E1,1.863086581E0,-5.078908205E-1,6.122091413E-1
1.652745344E1,2.723272085E0,-5.026548505E-1,1.713232636E0
1.654745344E1,3.371749163E0,-1.368896604E0,2.719083309E0
1.656745344E1,3.241495371E0,-2.575215816E0,3.255405664E0
1.658745344E1,2.493482113E0,-1.786274672E0,2.525613546E0
1.660745500E1,1.490738034E0,1.365423441E0,1.401673913E0
1.662945500E1,1.262885332E0,3.473850965E0,1.035276890E0
1.665145500E1,1.815177321E0,3.152378798E0,9.085835218E-1
1.667149719E1,1.418289423E0,2.470810175E0,4.830024242E-1
1.669345500E1,6.370451450E-1,1.558229923E0,4.270820618E-1
1.671545500E1,4.710643739E-2,6.417052150E-1,7.598291039E-1
1.673545500E1,-9.902998060E-2,-3.253468275E-1,1.019935489E0
1.675745344E1,-1.174082980E-1,-1.317130208E0,9.961466789E-1
1.677745344E1,-2.523396909E-1,-1.865111232E0,7.805461287E-1
1.679745344E1,-5.315575004E-1,-2.301321268E0,4.943296015E-1
1.681745500E1,-9.216210842E-1,-3.004392385E0,1.698030829E-1
1.683945500E1,-1.566974044E0,-3.386235476E0,-4.158770442E-1
1.685945500E1,-1.403541446E0,-3.711809158E0,-1.002150655E0
1.687945500E1,-9.342398643E-1,-1.891832232E0,-4.457047284E-1
1.689945500E1,-8.811469078E-1,2.606474638E0,9.381144643E-1
1.691945500E1,-9.286373258E-1,3.954148054E0,1.931712985E0
1.694145344E1,-5.844584107E-1,-1.441589594E0,1.269587398E0
1.696145500E1,-1.052136779E0,-4.851125240E0,-3.078935444E-1
1.698345344E1,-5.342801809E-1,-2.976763725E0,-1.250353813E0
1.700345344E1,1.910437346E-1,1.366627693E0,-2.102964640E0
1.702345344E1,-1.617152214E0,-1.742397070E0,8.929104358E-2
1.704345344E1,-3.188751459E0,-2.948594093E0,5.663768053E-1
1.706347688E1,-3.054361105E0,-2.585077047E0,-3.065845370E-1
1.708545500E1,-1.367901802E0,5.530773997E-1,-1.304022789E0
1.710745500E1,-8.485791087E-2,3.226607561E0,-1.154814601E0
1.712945500E1,-5.667083859E-1,2.509137630E0,-6.131865382E-1
1.714945500E1,-1.213178396E0,6.663841605E-1,-4.644670188E-1
1.716945500E1,-1.296797037E0,-3.307747841E-1,-6.781651378E-1
1.718945500E1,-1.414519548E0,-4.314802885E-1,-7.949799895E-1
1.720945656E1,-1.937891364E0,1.115876198E0,-8.619657755E-1
1.723145500E1,-2.120487690E0,2.522524357E0,-6.595075727E-1
1.725345344E1,-1.912339807E0,3.420286894E0,-4.957433045E-1
1.727345344E1,-1.658970356E0,3.801222324E0,2.029817924E-2
1.729345344E1,-2.842443287E-1,2.804831266E0,-2.659707367E-1
1.731345344E1,7.577172518E-1,1.494124055E0,-7.479783297E-1
1.733345500E1,5.491678715E-1,1.004716277E0,-7.303504944E-1
1.735545344E1,6.649180651E-1,1.138146639E0,-1.057494953E-1
1.737545500E1,1.515905738E0,2.148029089E0,4.319864511E-1
1.739745500E1,3.197216272E0,1.286360025E0,8.575151563E-1
1.741945500E1,4.355486393E0,-8.247379065E-1,1.092558622E0
1.743945500E1,4.015723228E0,-3.504865408E0,2.059401274E0
1.745945500E1,3.311675072E0,-5.010246754E0,3.001983643E0
1.748145344E1,1.970878124E0,-2.848377228E0,3.791012287E0
1.750145344E1,2.291268259E-1,3.370841742E0,3.706573248E0
1.752145500E1,-1.321737766E-1,7.946553707E0,2.542735338E0
1.754145500E1,1.971541405E0,5.622578144E0,2.143787861E0
1.756345500E1,2.327675819E0,1.986394167E0,1.043637037E0
1.758345500E1,9.829345345E-1,-1.073744059E0,-2.384294271E-1
1.760545344E1,1.223475784E-1,-2.587241173E0,-4.382521808E-1
1.762545344E1,1.558229923E-1,-3.044185877E0,1.178097259E-2
1.764545500E1,7.421488762E-1,-3.326911688E0,4.525115192E-1
1.766545500E1,1.096276164E0,-3.149533987E0,4.738568962E-1
1.768745500E1,9.351997972E-1,-2.349038601E0,9.534733742E-2
1.770945500E1,8.087855577E-2,-5.279970169E-1,-2.320066094E-1
1.772945500E1,-1.140101433E0,9.442056417E-1,-3.301115632E-1
1.774945500E1,-3.505179644E0,-6.514790654E-1,-2.130174339E-1
1.776945500E1,-3.588222504E0,-4.840478897E0,-5.976530910E-1
1.778945500E1,-1.726846218E0,2.106525183E0,3.574259877E-1
1.780945500E1,-3.878470659E-1,4.140392303E0,1.771090269E0
1.782945500E1,1.128687024E0,6.925640702E-1,1.205760717E0
1.784945500E1,7.610508204E-1,-7.556402683E-1,-9.759357572E-1
1.786945500E1,-9.351474047E-2,1.158898603E-2,-1.006775737E0
1.788945500E1,-1.098754525E0,8.540943265E-1,-4.591612220E-1
1.790945500E1,-2.523519278E0,8.503418565E-1,-6.716550589E-1
1.792945500E1,-3.068079472E0,8.578293324E-1,-1.277354121E0
1.794945500E1,-2.321811438E0,1.200001121E0,-1.363084674E0
1.796945500E1,-9.702110887E-1,6.442708373E-1,-1.197505355E0
1.798945500E1,-2.660754323E-1,-1.818283945E-1,-1.393610477E0
1.800945500E1,-1.868270278E0,-1.152789950E0,-2.092475176E0
1.802945500E1,-2.043309212E0,-2.310641408E-1,-1.409161329E0
1.804945500E1,-9.308189750E-1,9.289340377E-1,-6.262241602E-1
1.806945500E1,-4.319864511E-1,1.719079494E0,-4.102571011E-1
1.808945500E1,-6.477265954E-1,1.762817502E0,-5.052902699E-1
1.810945500E1,-1.308298826E0,1.125632644E0,-6.273586154E-1
1.812945500E1,-1.796397567E0,1.087689161E0,-8.525060415E-1
1.814945500E1,-2.113698483E0,2.747793913E0,-8.447917104E-1
1.817145500E1,-1.749518037E0,4.470224380E0,-3.041585386E-1
1.819345344E1,2.222851366E-1,3.685821295E0,-3.049962819E-1
1.821345344E1,1.365091801E0,1.588336825E0,-5.287125707E-1
1.823345344E1,1.108633161E0,6.835058331E-1,-4.383219779E-1
1.825345344E1,1.646805406E0,-3.748792708E-1,3.731688559E-1
1.827345500E1,2.733517170E0,-1.083064079E0,1.355544925E0
1.829545500E1,3.031881332E0,-7.966904640E-1,2.659375668E0
1.831745500E1,3.558866024E0,-1.706286192E0,2.340242147E0
1.833945500E1,3.256400347E0,-1.579069138E0,2.072020054E0
1.835945500E1,2.058825254E0,3.378608227E-1,2.006081343E0
1.837945500E1,7.345043421E-1,2.904908657E0,1.712918520E0
1.839945500E1,1.372684002E0,2.528249025E0,1.264665604E0
1.841945500E1,2.426444054E0,2.215224266E0,7.227408290E-1
1.843945500E1,2.183372021E0,2.829597473E0,1.819854826E-1
1.846145500E1,1.311457872E0,2.473550320E0,-8.325220086E-3
1.848145500E1,4.415159523E-1,6.517059207E-1,2.625149786E-1
1.850145500E1,-3.264463842E-1,-1.571564317E0,6.630505919E-1
1.852145500E1,-7.128099203E-1,-2.938349009E0,8.784590960E-1
1.854145500E1,-8.541815877E-1,-3.021862984E0,9.252164960E-1
1.856345500E1,-9.750281572E-1,-1.577009678E0,8.133234382E-1
1.858545500E1,-1.249167085E0,-6.358234286E-1,2.582040131E-1
1.860745500E1,-1.576486111E0,-1.563919783E0,-4.745724797E-1
1.862945500E1,-2.124886036E0,-2.768807650E0,-7.678576112E-1
1.864945500E1,-1.011488080E0,-2.789839029E0,-2.587276101E-1
1.866945500E1,5.227609873E-1,3.616584063E0,1.339714766E0
1.868945500E1,1.631289482E0,5.026757717E0,2.862654209E0
1.870945500E1,1.890313745E0,-2.077413082E0,6.303082108E-1
1.872945500E1,1.125737373E-2,-4.526598454E0,-8.247553110E-1
1.874945500E1,-1.677994490E0,-2.799403429E0,-6.262764931E-1
1.876945500E1,-2.526137114E0,-1.500808597E0,-9.350252151E-1
1.878945500E1,-1.117220163E0,-1.317548990E0,-9.438042641E-1
1.880945500E1,-4.619537592E-1,-1.149822921E-1,-7.198435664E-1
1.882945500E1,-1.191588640E0,-1.242848933E-1,-5.589591265E-1
1.884945500E1,-1.666265845E0,-4.471009970E-1,-2.989923656E-1
1.886945500E1,-4.064487934E0,-1.708904266E0,-1.214749180E-2
1.888945500E1,-4.594858646E0,-2.418502718E-1,-2.236115783E-1
1.890945500E1,4.250574708E-1,2.478088379E0,-1.150590897E0
1.892945500E1,1.729516506E0,2.947913408E0,-1.091703415E0
1.894945500E1,1.935570091E-1,1.959830165E0,-1.296046615E0
1.896945500E1,-8.840790987E-1,4.336968660E-1,-1.224976778E0
1.898945500E1,-1.172878742E0,-9.071523547E-1,-9.910153747E-1
1.900945500E1,-2.061408281E0,-1.849699914E-1,-1.397310615E0
1.903146125E1,-2.972522497E0,4.094839096E0,-1.468502522E0
1.905345500E1,-1.118825912E0,4.869712830E0,-1.646369100E-1
1.907545500E1,7.386233211E-1,3.153670311E0,7.864453644E-2
1.909545500E1,1.166927099E0,1.102524519E0,-3.038269281E-1
1.911745344E1,1.122141957E0,1.654397547E-1,-3.567976654E-1
1.913745344E1,1.753968596E0,1.485973299E-1,4.359658062E-1
1.915745344E1,2.746362925E0,-3.337593079E-1,1.515172720E0
1.917745500E1,2.868151903E0,-7.534411550E-1,2.296713591E0
1.919945344E1,3.086894035E0,-2.542124510E0,2.470827818E0
1.921945500E1,2.802789211E0,-2.323801279E0,2.111586571E0
1.923945500E1,2.123594522E0,-9.610131979E-1,1.979552388E0
1.926145656E1,1.537652493E0,2.778668880E0,1.721662641E0
1.928345344E1,9.549045563E-1,3.810873985E0,1.176788211E0
1.930345344E1,1.635076761E0,1.476758003E0,6.739065051E-1
1.932345344E1,1.930927515E0,4.825835228E-1,1.088387296E-1
1.934345344E1,1.611305356E0,-2.210110426E-1,-8.265879005E-2
1.936345344E1,1.069974065E0,-1.100185752E0,1.056971401E-1
1.938345344E1,5.210855007E-1,-1.608879447E0,4.050036371E-1
1.940345500E1,-1.667539954E0,3.789563656E0,1.774301678E-1
1.942545344E1,3.491880298E-1,-1.371654272E-1,9.815382361E-1
1.944545344E1,6.999468207E-1,-2.153317451E0,7.793069482E-1
1.946545344E1,1.438849419E-1,-3.207513809E0,1.622632593E-1
1.948545344E1,-8.170235157E-1,-3.224164248E0,-2.719397545E-1
1.950545500E1,-1.646822810E0,-2.763781309E0,-2.317273617E-1
1.952745344E1,-2.366614103E0,-2.636127949E0,-8.161159605E-2
1.954745813E1,-2.929046392E0,-2.864067793E0,-4.633499980E-1
1.956945500E1,-1.643506765E0,-3.523139000E0,-6.394711733E-1
1.958945500E1,-2.122494876E-1,-3.309144378E-1,3.088360131E-1
1.960945500E1,4.891459644E-1,2.873963833E0,1.094251633E0
1.962945500E1,3.406708241E-1,1.617396593E0,1.456564546E0
1.964945500E1,1.466076523E-1,-3.803595901E-1,7.864104509E-1
1.966945500E1,2.194577008E-1,-2.900737152E-2,-4.237833917E-1
1.968945500E1,-7.279070020E-1,-1.444958091E0,-4.557403624E-1
1.970945500E1,-1.132230043E0,-1.179196835E0,-5.047317743E-1
1.972945500E1,-7.938106656E-1,5.143485218E-2,-7.182030082E-1
1.974945500E1,-8.990889192E-1,2.481334656E-1,-1.118267298E0
1.976945500E1,-9.741729498E-1,-3.112620115E-1,-1.355230689E0
1.978945500E1,-8.175646067E-1,-1.740616798E0,-9.258797169E-1
1.980945500E1,-5.552765131E-1,-2.335250616E0,-4.118976891E-1
1.982945500E1,-1.055592537E0,-1.046813607E0,2.809980139E-2
1.984945500E1,-3.137840271E0,3.878802299E0,6.255085468E-1
1.986945500E1,-1.300008535E0,4.022826672E0,3.561868072E-1
1.988945500E1,2.265611887E-1,2.292734385E0,1.551248580E-1
1.990945500E1,-6.503096968E-2,1.137169242E0,-1.736951619E-1
1.992945500E1,-2.974739075E-1,3.633775413E-1,-2.709274590E-1
1.995145500E1,-4.881685972E-1,-4.330685437E-1,-4.388805032E-1
1.997345344E1,-7.378379107E-1,-2.080083340E-1,-6.366263032E-1
1.999345500E1,-8.887914419E-1,4.394389987E-1,-5.211552978E-1
2.001545344E1,-9.252513647E-1,6.900508404E-1,-4.281467199E-1
2.003545344E1,-1.036428809E0,7.928856015E-1,-4.135906696E-1
2.005545500E1,-8.869414330E-1,8.960869312E-1,-4.239230156E-1
2.007545500E1,-4.874355495E-1,9.874898195E-1,-4.410097897E-1
2.009745344E1,-6.822492182E-2,1.052538276E0,-5.227784514E-1
2.011745344E1,1.428901106E-1,9.721832871E-1,-6.335370541E-1
2.013745344E1,7.658504695E-2,9.638580680E-1,-4.044102430E-1
2.015745344E1,1.168672442E-1,8.827875257E-1,1.189441904E-1
2.017745500E1,7.247828841E-1,3.521550894E-1,9.159488231E-2
2.019945500E1,1.503479004E0,-1.705012172E-1,-2.197544128E-1
2.021945656E1,2.001107216E0,-4.729842301E-3,-1.431344450E-1
2.024145656E1,2.615881920E0,3.771831095E-1,3.238109350E-1
2.026345500E1,3.502910614E0,-1.290252090E0,9.146223664E-1
2.028345500E1,3.333334446E0,-2.659393072E0,1.625215650E0
2.030545500E1,2.759260893E0,-2.699622869E0,1.899738550E0
2.032545500E1,2.387208939E0,-1.492989540E0,1.722465396E0
2.034745344E1,1.875600576E0,1.899092793E0,1.301160455E0
2.036745344E1,1.047511697E0,4.584718227E0,9.860586524E-1
2.038745344E1,4.984485805E-1,4.216069698E0,7.984008789E-1
2.040745344E1,9.987646341E-1,1.058070898E0,8.370424509E-1
2.042745344E1,1.278087139E0,-1.732151985E0,7.550469041E-1
2.044745344E1,1.093919992E0,-2.474056482E0,4.828802347E-1
2.046745500E1,1.157676876E-1,5.228483081E-1,2.739817798E-1
2.048945500E1,5.090252757E-1,-6.438519359E-1,5.640729666E-1
2.050945500E1,2.838254273E-1,-1.313185692E0,3.734132051E-1
2.052945500E1,-2.545737326E-1,-1.434643149E0,1.343205422E-1
2.054945500E1,-8.075813055E-1,-1.132404566E0,1.984613836E-1
2.056945500E1,-1.351530552E0,-6.272538900E-1,2.189864665E-1
2.058945500E1,-1.861620545E0,-3.705334067E-1,8.552113432E-4
2.060945500E1,-2.224230051E0,-2.560572624E-1,-4.356516302E-1
2.062945500E1,-2.493743896E0,-2.414837480E-1,-9.523563385E-1
2.065145500E1,-2.711107254E0,-9.832487106E-1,-1.233284593E0
2.067145500E1,-2.128882885E0,-2.947372437E0,-6.237108707E-1
2.069345500E1,-4.332081676E-1,-1.420244217E0,9.175021052E-1
2.071545344E1,6.164328456E-1,2.541705608E0,1.486549258E0
2.073545344E1,6.941174269E-1,3.741741657E0,1.501471877E0
2.075545344E1,3.051010072E-1,4.247328758E0,1.238956928E0
2.077545344E1,-2.727600634E-1,3.523313522E0,6.686879992E-1
2.079545500E1,-7.417998314E-1,7.756068707E-1,-7.021459192E-2
2.081745344E1,4.551818594E-2,-9.587268233E-1,-9.468061924E-1
2.083745344E1,7.738265991E-1,-7.396705151E-1,-1.389421701E0
2.085745344E1,1.975189149E-1,-3.394141793E-1,-1.001260519E0
2.087745500E1,-1.933109164E0,4.504345655E-1,-7.816457152E-1
2.089745500E1,-2.443373680E0,9.406626225E-1,-8.961741924E-1
2.091945344E1,-1.385232925E0,-1.193281636E-1,-7.446796298E-1
2.093945344E1,-5.204920769E-1,-1.936634779E0,-7.603352070E-1
2.095945344E1,-3.014707267E-1,-2.388814688E0,-5.431464911E-1
2.097945500E1,-2.236587048E0,3.024271727E0,-3.680550456E-1
2.099945500E1,-2.014336824E0,3.877702713E0,-2.083050460E-1
2.102145500E1,-8.754746318E-1,3.233205080E0,3.502875939E-2
2.104145500E1,-8.893848658E-1,4.275184155E0,2.178694457E-1
2.106145969E1,-9.959197640E-1,3.690585852E0,2.562143281E-2
2.108345344E1,-2.563016117E-1,3.328866363E-1,4.544837400E-2
2.110345344E1,-4.964938164E-1,2.453409284E-1,1.811477244E-1
2.112345500E1,-2.429498360E-2,4.737870693E-1,3.840247989E-1
2.114545344E1,1.864360720E-1,2.623229846E-2,1.200786531E-1
2.116545344E1,6.150540337E-2,-8.461181521E-1,-3.799407184E-1
2.118545344E1,-1.771683693E-1,-1.448152065E0,-5.868320465E-1
2.120545344E1,-6.853209734E-1,-6.498733163E-1,-5.796064138E-1
2.122545500E1,-6.552489400E-1,7.963413596E-1,-3.744429350E-1
2.124745500E1,-2.419724464E-1,1.789416313E0,-1.034631208E-1
2.126745500E1,-1.743932962E-1,2.327099800E0,2.183406800E-2
2.128745500E1,-8.398524672E-2,2.732644558E0,3.940953314E-2
2.130945500E1,4.060682952E-1,3.078324556E0,-2.673844434E-2
2.132945500E1,1.301038265E0,3.527711868E0,-5.986479297E-2
2.134945500E1,3.013241053E0,3.757484436E0,5.590289459E-2
2.136945500E1,4.275515556E0,3.288758755E0,6.155601740E-1
2.138945500E1,4.102989674E0,1.478189111E0,1.385634303E0
2.140945500E1,3.429746389E0,-2.092562437E0,1.899668694E0
2.142945500E1,2.602477789E0,-4.055499554E0,2.195536852E0
2.144945500E1,1.927035451E0,-1.928135037E0,2.211018085E0
2.146945500E1,1.195567966E0,1.417992711E0,2.003393650E0
2.148945500E1,5.126555562E-1,4.230311394E0,1.197208643E0
2.150945500E1,6.617764831E-1,4.884897232E0,4.653745890E-1
2.153145500E1,1.724961281E0,2.598638058E0,4.252669215E-1
2.155345500E1,1.868916035E0,-1.739814043E0,6.315124631E-1
2.157345500E1,1.196737409E0,-3.692296267E0,5.559571981E-1
2.159545344E1,3.820351064E-1,-3.300906181E0,3.542494774E-1
2.161545344E1,-2.747322619E-1,-1.917959809E0,2.025629133E-1
2.163545344E1,-7.693760395E-1,-7.490603924E-1,1.620189101E-1
2.165545500E1,-1.111774683E0,-2.523920536E-1,1.578650326E-1
2.167745500E1,-1.506829977E0,-2.605078518E-1,-4.010766745E-2
2.169945500E1,-2.061356068E0,-5.362873077E-1,-7.560242414E-1
2.171945500E1,-2.635639191E0,-1.075751185E0,-1.868200421E0
2.173945500E1,-1.564251304E0,-5.579049587E0,-2.098182440E0
2.175945500E1,-6.080029011E-1,-7.394366741E0,-7.803890705E-1
2.177945500E1,-4.443433583E-1,-1.004367113E0,1.145319939E0
2.179945500E1,-1.816364080E-1,3.593947172E0,1.224383354E0
2.182145500E1,9.512393475E-1,4.052253246E0,3.538480401E-1
2.184345344E1,1.170016408E0,1.546291947E0,-5.471607298E-2
2.186345500E1,1.272170544E-1,5.633922666E-2,1.460840553E-2
2.188545344E1,2.497042567E-1,-7.103140950E-1,-1.679006666E-1
2.190545344E1,3.944443911E-2,-3.485073328E0,-4.744328558E-1
2.192545344E1,-6.476393342E-1,-4.902263165E0,-7.059158683E-1
2.194545500E1,-8.460658193E-1,-4.194025993E0,-9.643293023E-1
2.196545500E1,-7.469834685E-1,-3.106441736E0,-4.699997008E-1
2.198745344E1,-1.009812593E0,-1.421570659E0,4.645717442E-1
2.200745344E1,-2.039574385E0,1.886875391E0,7.212398648E-1
2.202745344E1,-2.164086103E0,3.614472151E0,8.521919250E-1
2.204745500E1,-1.619194269E0,4.029057503E0,4.631231129E-1
2.206945500E1,-8.273907900E-1,2.243044853E0,-7.510151714E-2
2.208945500E1,-1.772556454E-1,-1.592961997E-1,-5.549623370E-1
2.210945500E1,-1.718800217E-1,-1.040879488E0,-8.830842376E-1
2.212945500E1,-4.725304544E-1,-1.333414078E0,-8.399047852E-1
2.214945500E1,-6.705206037E-1,-9.053895473E-1,-4.584107399E-1
2.216945500E1,-4.353898466E-1,-2.644173801E-1,-1.002168059E-1
2.218945500E1,-3.197094202E-1,2.180963457E-1,1.489114910E-1
2.220945500E1,-2.013586313E-1,2.001020014E-1,1.257160604E-1
2.222945500E1,7.923794910E-3,-2.046049535E-1,-1.133940443E-1
2.224945500E1,7.091272622E-2,-5.651899576E-1,-1.750914305E-1
2.226945500E1,1.221904978E-1,-7.113089561E-1,-8.503244072E-2
2.228945500E1,2.758841813E-1,-9.475916028E-1,1.232726052E-1
2.230945500E1,2.699675262E-1,-1.300357580E0,3.211929500E-1
2.232945500E1,3.444581926E-1,-1.447104812E0,3.621732593E-1
2.235145500E1,9.140289426E-1,-9.813113809E-1,8.227481693E-2
2.237345344E1,1.778647542E0,-2.080781460E-1,1.339191198E-1
2.239345344E1,2.269067764E0,5.112941861E-1,3.866951466E-1
2.241345344E1,2.687370777E0,7.572983503E-1,5.451884866E-1
2.243345344E1,2.974459887E0,-2.775073424E-2,6.131865382E-1
2.245345344E1,2.829300880E0,-7.731285095E-1,6.267302632E-1
2.247345344E1,2.337955713E0,-5.798507333E-1,6.156823635E-1
2.249345344E1,1.512013674E0,4.051781893E-1,6.241821051E-1
2.251345344E1,6.278821826E-1,1.409894466E0,5.609662533E-1
2.253345344E1,1.385267824E-1,1.290513873E0,4.253192842E-1
2.255345344E1,4.897394031E-2,5.215741992E-1,3.973416686E-1
2.257345344E1,1.403244678E-2,1.779363155E-1,3.562217057E-1
2.259345344E1,-4.118104279E-1,-3.042108938E-2,2.141868025E-1
2.261345344E1,-1.377274156E0,1.398026228E0,-5.120795965E-2
2.263345344E1,-2.425309569E-1,3.589182377E0,2.269277126E-1
2.265345344E1,2.754653096E-1,2.100224495E0,4.087212086E-1
2.267345500E1,-1.151149392E0,-5.237907767E-1,-3.637440801E-1
2.269347062E1,-1.871760845E0,-1.724926353E0,-9.301732183E-1
2.271545344E1,-2.534078360E0,-5.762396336E0,-1.178952456E0
2.273545969E1,-2.499817610E0,-7.661855698E0,-9.054942727E-1
2.275745344E1,-1.603119850E0,-5.786953449E0,-2.881713212E-1
2.277745813E1,-8.155748844E-1,-3.525652409E0,1.783552021E-1
2.279945500E1,-3.080680668E-1,-2.045613050E0,2.163510174E-1
2.281945500E1,-3.629063070E-1,-3.022212088E-1,1.775174439E-1
2.283945500E1,-5.125682950E-1,1.790777564E0,-1.031489577E-2
2.285945500E1,-5.947383642E-1,3.103335142E0,-9.997245669E-2
2.287945500E1,-3.481582701E-1,3.075270176E0,-3.090279996E-1
2.289945500E1,2.632130980E-1,1.480597734E0,-7.195469141E-1
2.291945500E1,5.777912736E-1,-1.088561863E-1,-1.305000186E0
2.293945500E1,3.195348680E-1,-1.276935220E0,-1.453510165E0
2.296145500E1,-2.625324130E-1,-2.125933170E0,-7.415031195E-1
2.298345500E1,-6.855827570E-1,-2.048964262E0,9.246754646E-2
2.300545500E1,-8.789129257E-1,-1.016409993E0,5.543165803E-1
2.302545500E1,-9.672614932E-1,3.864333630E-1,7.931997776E-1
2.304745500E1,-9.720785618E-1,1.085053682E0,1.048593760E0
2.306945500E1,-8.343197107E-1,1.008137107E0,8.194495440E-1
2.308945500E1,-4.563337862E-1,5.490631461E-1,2.760936320E-1
2.310945500E1,-1.011243761E-1,-7.635815442E-2,1.130973361E-2
2.312945500E1,1.629962921E-1,-5.658881068E-1,-1.287180334E-1
2.314945500E1,2.422516942E-1,-7.953290939E-1,-2.035577446E-1
2.316946438E1,1.955466866E-1,-1.024054527E0,-2.984687686E-1
2.319145344E1,-3.567453101E-2,-1.397450209E0,-1.222777665E-1
2.321145500E1,-3.692418635E-1,-1.061910629E0,2.617993858E-3
2.323345344E1,-4.038168192E-1,1.464331243E-2,2.312386781E-1
2.325345344E1,-2.111673802E-1,6.432061791E-1,4.382870793E-1
2.327345500E1,-1.859822869E-1,6.357361674E-1,4.322308004E-1
2.329545500E1,-7.026695460E-2,-3.228859231E-2,2.146929502E-1
2.331745344E1,5.311036855E-2,-5.441238284E-1,-1.850049011E-3
2.333745344E1,7.524114102E-2,-5.840395093E-1,-7.026695460E-2
2.335745344E1,8.855800331E-2,-4.054574370E-1,-1.953023486E-2
2.337745344E1,2.364921197E-2,-3.253642917E-1,4.792674258E-2
2.339745500E1,3.895574808E-2,-2.453060299E-1,1.109156758E-1
2.341945500E1,-1.408480667E-2,-3.307049870E-1,1.088736355E-1
2.343945500E1,-5.803219602E-2,-5.123239756E-1,4.530874640E-2
2.345945500E1,-1.689478755E-2,-6.254038215E-1,-1.603957638E-2
2.347945500E1,7.731808722E-2,-6.422811747E-1,-6.092944369E-2
2.349945500E1,1.553692073E-1,-6.438170671E-1,-6.557202339E-2
2.351945500E1,1.841322333E-1,-6.329262257E-1,-1.413716655E-2
2.353945500E1,1.748645306E-1,-5.331631899E-1,5.639158934E-2
2.355945500E1,1.725083441E-1,-3.657861054E-1,1.246863231E-1
2.357945500E1,1.765051484E-1,-2.683792710E-1,1.237089336E-1
2.359945500E1,2.201907337E-1,-2.357765287E-1,8.510225266E-2
2.361945500E1,2.677335143E-1,-2.488490492E-1,5.426228791E-2
2.363945500E1,2.797064781E-1,-2.302961946E-1,4.881685972E-2
2.366145344E1,3.071953952E-1,-1.545314491E-1,8.122762293E-2
2.368145500E1,3.229906261E-1,-1.112123802E-1,1.188743785E-1
2.370345344E1,3.057467639E-1,-6.120869517E-2,1.031315029E-1
2.372345344E1,3.544589281E-1,-5.340707488E-3,4.333652556E-2
2.374345344E1,4.979075193E-1,-1.991420612E-2,2.553416602E-2
2.376345500E1,6.331530809E-1,-1.617571115E-1,6.440264732E-2
2.378545344E1,6.966656446E-1,-4.123514891E-1,1.575159580E-1
2.380545500E1,6.721786261E-1,-5.138598084E-1,2.737199962E-1
2.382745500E1,6.668030620E-1,-4.905945957E-1,3.887197375E-1
2.384945500E1,6.955660582E-1,-4.882209599E-1,5.244539976E-1
2.386945500E1,7.302632332E-1,-4.333128929E-1,5.358335376E-1
2.389145500E1,6.549871564E-1,-2.946814001E-1,5.077511668E-1
2.391345500E1,4.263490140E-1,-2.391101047E-2,4.371700585E-1
2.393545500E1,1.610240787E-1,4.164181054E-1,3.331833482E-1
2.395745344E1,8.761552721E-2,9.084438682E-1,2.789210677E-1
2.397745500E1,4.111646712E-1,9.730908871E-1,2.206270695E-1
2.399745500E1,8.213519454E-1,9.179559350E-1,1.349837631E-1
2.401745500E1,8.982511759E-1,9.340652823E-1,-5.822418258E-2
2.403745500E1,8.062024713E-1,6.347587705E-1,-2.107135952E-1
2.405945344E1,5.961695910E-1,5.511226058E-1,-1.286656708E-1
2.407945500E1,3.777765036E-1,1.171499848E0,5.836381018E-2
2.410145500E1,5.248205066E-1,1.411011457E0,3.402519226E-1
2.412345500E1,9.160884023E-1,1.329242736E-1,6.317568421E-1
2.414545344E1,1.000562310E0,-9.178686738E-1,5.320636034E-1
2.416545500E1,8.320682645E-1,-6.285454035E-1,2.564412355E-1
2.418745969E1,6.636265516E-1,4.265759289E-1,1.785471849E-2
2.420945500E1,5.606172085E-1,1.474942803E0,-2.734931000E-2
2.422945500E1,4.632976353E-1,1.631359220E0,-4.183554277E-2
2.424945500E1,4.707502127E-1,7.490255237E-1,-3.018895984E-1
2.426945500E1,2.811201811E-1,-4.187568426E-1,-6.627189517E-1
2.428945500E1,-2.368586361E-1,-8.982162476E-1,-7.471405268E-1
2.430945500E1,-7.498981357E-1,-1.091197252E0,-6.826506257E-1
2.432945500E1,-8.351225853E-1,-1.247910380E0,-8.215264678E-1
2.434945500E1,-9.270839691E-1,-1.327061057E0,-9.806306958E-1
2.436945500E1,-1.139734864E0,-8.269020915E-1,-9.392489195E-1
2.438945500E1,-1.336154222E0,-2.563016117E-1,-8.354890943E-1
2.440945500E1,-1.516952872E0,-9.833184630E-2,-7.563733459E-1
2.442945500E1,-1.705326319E0,-5.289569497E-1,-7.886270285E-1
2.445145969E1,-1.677034497E0,-9.005375504E-1,-1.017509460E0
2.447345344E1,-1.442881107E0,-6.949900985E-1,-9.947678447E-1
2.449345500E1,-1.376017570E0,-1.509186178E-1,-7.847175002E-1
2.451545344E1,-1.583956122E0,6.792472601E-1,-6.491926908E-1
2.453545344E1,-1.511036277E0,1.332244754E0,-5.110498667E-1
2.455545344E1,-9.164025784E-1,1.658324599E0,-1.694191098E-1
2.457545344E1,-7.530746460E-1,1.644606352E0,-1.380555481E-1
2.459545344E1,-8.039858937E-1,1.984805822E0,2.200336605E-1
2.461545344E1,-6.592631936E-1,2.513623238E0,6.073920131E-1
2.463545344E1,-5.026722550E-1,1.828476787E0,7.876321673E-1
2.465549562E1,-6.182654500E-1,7.059856653E-1,8.097454906E-1
2.467745500E1,-5.438795090E-1,-3.222925067E-1,7.786961198E-1
2.469945344E1,8.377579972E-3,-1.014263153E0,4.325449467E-1
2.471945500E1,1.514596790E-1,-1.103257537E0,-1.418952644E-2
2.473945500E1,7.312929723E-3,-5.387656689E-1,5.349434167E-2
2.475945500E1,1.491558403E-1,6.938207150E-1,5.362000465E-1
2.477945500E1,6.124534607E-1,1.309241295E0,6.872583032E-1
2.480146125E1,5.383118987E-1,1.133800745E0,5.326570272E-1
2.482345344E1,2.371902466E-1,9.251990169E-2,5.078384280E-1
2.484345500E1,1.977458000E-1,-4.834038317E-1,4.041658938E-1
2.486345812E1,2.860769033E-1,-3.381924331E-1,3.681772053E-1
2.488545344E1,3.698352575E-1,-7.617315054E-1,3.883183002E-1
2.490545344E1,3.631681204E-1,-1.018050551E0,1.865407825E-1
2.492545344E1,2.575058639E-1,-1.100464940E0,-1.850049011E-2
2.494545500E1,1.463982165E-1,-7.108725905E-1,-5.848598480E-2
2.496745500E1,4.244640842E-2,-1.052084491E-1,-6.457717973E-4
2.498945500E1,1.413018554E-1,-1.160643920E-1,9.686577320E-2
2.500945500E1,3.386985958E-1,-5.929930806E-1,1.540602148E-1
2.502945500E1,5.915967822E-1,-7.591658831E-1,1.556310058E-1
2.504945500E1,7.240672708E-1,-5.424658060E-1,1.862266362E-1
2.507145500E1,7.725176215E-1,-3.170565069E-1,1.966986060E-1
2.509145500E1,8.150163889E-1,-8.288568258E-2,1.886177361E-1
2.511345344E1,6.951820850E-1,3.674965203E-1,1.262396574E-1
2.513345500E1,6.814463735E-1,7.747167349E-1,2.431243658E-2
2.515545500E1,7.028615475E-1,8.888438344E-1,-1.645845547E-2
2.517745500E1,6.072349548E-1,9.371545315E-1,-5.651376024E-2
2.519945500E1,6.135355830E-1,9.845052958E-1,-9.819222242E-2
2.521945656E1,7.375237942E-1,6.231697798E-1,-1.509709805E-1
2.524145500E1,8.486489058E-1,-1.134464052E-3,-2.560921609E-1
2.526146125E1,9.010785818E-1,-4.944517612E-1,-2.491457462E-1
2.528345500E1,7.539997101E-1,-6.187366843E-1,-7.506661117E-2
2.530545344E1,1.174082980E-1,4.967905283E-1,1.766098738E-1
2.532545344E1,-4.295429885E-1,2.355601072E0,2.271720618E-1
2.534545344E1,-1.173035800E-1,2.692449570E0,-6.094689667E-2
2.536545344E1,3.925943673E-1,1.026288509E0,-6.602580547E-1
2.538545344E1,1.820901930E-1,-2.448696941E-1,-9.255306721E-1
2.540545344E1,-2.136282995E-2,-3.540051281E-1,-7.506486773E-1
2.542545344E1,1.913055331E-1,4.668930173E-1,-4.701916873E-1
2.544545500E1,1.004663825E0,2.073084593E0,-1.821949184E-1
2.546548313E1,1.433124781E0,2.464370012E0,3.078062534E-1
2.548745344E1,1.104304671E0,8.066562414E-1,3.957359493E-1
2.550745344E1,8.899259567E-1,-4.469613731E-1,2.044653147E-1
2.552745344E1,1.002866149E0,3.840945959E-1,1.593660116E-1
2.554745344E1,1.179458618E0,1.523602605E0,4.062602818E-1
2.556745344E1,8.933467865E-1,1.267754793E0,4.294207990E-1
2.558745344E1,3.821747303E-1,-6.016848087E-1,5.607742816E-2
2.560745500E1,-2.263692021E-2,-2.685607910E0,-6.835930943E-1
2.562945500E1,-4.967556000E-1,-3.413724422E0,-8.938005567E-1
2.564945500E1,-8.813040257E-1,-2.445188761E0,-6.381272674E-1
2.566945500E1,-1.298245668E0,-2.834938169E-1,-4.519180954E-1
2.568945500E1,-1.777705073E0,1.804618120E0,-3.432015479E-1
2.570945500E1,-1.896195531E0,1.244315028E0,-2.622880936E-1
2.572945500E1,-1.693737268E0,-8.562236428E-1,-3.004933298E-1
2.574945500E1,-1.488678575E0,-1.835266113E0,-4.767192304E-1
2.577145344E1,-1.430070400E0,-1.311981440E0,-6.455274820E-1
2.579145344E1,-1.443125486E0,-6.631901860E-1,-5.754699707E-1
2.581145500E1,-1.364638090E0,-6.604325771E-2,-4.839274287E-1
2.583145812E1,-1.241662145E0,5.736722946E-1,-4.402593076E-1
2.585145812E1,-1.376558661E0,7.146773934E-1,-3.872362077E-1
2.587345344E1,-1.411517620E0,1.088718891E0,-1.721941829E-1
2.589345344E1,-7.993433475E-1,1.516429305E0,2.618691921E-1
2.591345500E1,-8.196938634E-1,2.021475315E0,4.376238585E-1
2.593545500E1,-9.780650735E-1,2.204158783E0,6.390697360E-1
2.595545500E1,-6.399249434E-1,2.180387497E0,6.998944879E-1
2.597745500E1,-2.679778636E-1,1.821181297E0,9.236108065E-1
2.599945500E1,-4.198912978E-1,2.067691535E-1,9.425650835E-1
2.601945500E1,-2.653074861E-1,-1.504630923E0,7.832164764E-1
2.603945500E1,-3.282964230E-2,-2.184174776E0,6.819524765E-1
2.606145656E1,3.455751808E-3,-1.909756660E0,6.822491884E-1
2.608345500E1,-2.290919125E-1,-5.179264545E-1,6.514616013E-1
2.610545344E1,-5.209807679E-2,6.555980444E-1,6.916739941E-1
2.612545344E1,5.301612020E-1,5.714557171E-1,5.106309652E-1
2.614545500E1,9.316567779E-1,-3.377386630E-1,2.366666496E-2
2.616545500E1,7.563908100E-1,-9.001186490E-1,-2.847155631E-1
2.618745344E1,3.464478552E-1,-1.144866228E0,-2.382199913E-1
2.620745344E1,8.527678996E-2,-1.551388264E0,-1.818982214E-1
2.622745344E1,-1.192234382E-1,-1.194468379E0,-2.382374406E-1
2.624745344E1,-1.381428093E-1,-3.267430961E-1,-4.366813600E-2
2.626745344E1,1.438151300E-2,-9.122835845E-2,-7.681193948E-2
2.628745344E1,1.446878016E-1,-3.470936418E-1,-1.538856775E-1
2.630745344E1,3.976383507E-1,-6.092071533E-1,-2.305056304E-1
2.632745500E1,6.879040599E-1,-6.997722983E-1,-2.101899981E-1
2.634945500E1,1.002412438E0,-3.234618604E-1,-5.251695588E-2
2.636945656E1,1.091284513E0,5.113814492E-3,1.095368639E-1
2.639145500E1,1.156874061E0,8.614945412E-2,2.569299042E-1
2.641345344E1,1.358895898E0,7.010987401E-2,3.614053130E-1
2.643345344E1,1.514649034E0,1.637991518E-1,3.246137798E-1
2.645345344E1,1.517668486E0,5.182231665E-1,1.617396623E-1
2.647345344E1,1.443142891E0,7.693062425E-1,4.689699784E-2
2.649345344E1,1.329207897E0,5.829748511E-1,1.172512174E-1
2.651347531E1,1.076606393E0,4.910658300E-1,2.461263239E-1
2.653545344E1,2.380280048E-1,4.513247013E-1,3.895574808E-1
2.655545500E1,-1.495851874E0,-8.625068069E-1,4.925842583E-1
2.657745344E1,-1.300567031E0,4.171337001E-3,-2.079210728E-1
2.659745344E1,3.185923994E-1,1.621812344E0,-4.886572957E-1
2.661745344E1,7.645414472E-1,1.152929544E0,-3.570070863E-1
2.663745344E1,9.393536448E-1,3.634997308E-1,1.230457146E-2
2.665745344E1,1.545698524E0,1.038313866E0,2.491457462E-1
2.667745344E1,1.624534965E0,1.072312832E0,2.712067068E-1
2.669745344E1,1.212270737E0,2.825164497E-1,2.682745457E-1
2.671745344E1,1.029325366E0,1.411796808E-1,4.855506122E-2
2.673745344E1,1.237106800E0,8.918981552E-1,-8.004079759E-2
2.675745500E1,1.212392926E0,1.472289920E0,1.422443334E-2
2.677945500E1,1.925621778E-1,-2.369808108E-1,-1.799085438E-1
2.679945500E1,-9.065065384E-1,-1.742850900E0,-5.191830993E-1
2.681945500E1,-1.181744933E0,-2.231839657E0,-6.630854607E-1
2.683945500E1,-9.776636362E-1,-1.596696973E0,-6.553711295E-1
2.685945500E1,-9.054942727E-1,-2.882062197E-1,-6.252118349E-1
2.687945500E1,-1.227437735E0,1.691049486E-1,-7.044847012E-1
2.689945500E1,-1.881220579E0,-1.205010176E0,-6.775717139E-1
2.691945500E1,-2.286486149E0,-2.957477808E0,-5.843886137E-1
2.693945500E1,-2.215852499E0,-3.319232225E0,-3.764849603E-1
2.695945500E1,-2.080572128E0,-2.308180571E0,-1.712342501E-1
2.697945500E1,-2.100817919E0,-9.431933761E-1,-1.220334172E-1
2.699945500E1,-2.048248529E0,2.829178795E-2,6.108652451E-4
2.702145500E1,-2.164155960E0,5.047492385E-1,3.947934881E-2
2.704145500E1,-2.516398191E0,1.302731156E0,7.524114102E-2
2.706349094E1,-1.897591710E0,3.714078188E0,6.114062667E-1
2.708545500E1,-5.183104277E-1,3.036122322E0,2.546435297E-1
2.710745500E1,-2.483429015E-1,1.627606750E0,-2.476622164E-2
2.712945500E1,-2.257059813E-1,7.058111429E-1,2.505594790E-1
2.714945813E1,1.513724029E-1,-5.927138329E-1,2.089682668E-1
2.717145500E1,-6.140068173E-2,-8.768534064E-1,-7.974409312E-2
2.719345500E1,4.038691819E-1,-5.005255342E-1,4.898091853E-1
2.721345500E1,5.688377023E-1,-8.306370974E-1,7.193199992E-1
2.723545344E1,6.945537925E-1,-7.698647380E-1,8.165348172E-1
2.725545344E1,1.293009758E0,-3.634822667E-1,8.401665688E-1
2.727545344E1,1.537949204E0,1.575334221E-1,6.099750996E-1
2.729545500E1,1.209495664E0,-3.193778098E-1,1.797863692E-1
2.731745344E1,6.622128487E-1,-6.771179438E-1,-3.998549283E-2
2.733745344E1,5.636889935E-1,-6.744301319E-1,9.625490755E-2
2.735745344E1,6.663492322E-1,-6.458590627E-1,3.201806545E-1
2.737745344E1,7.237182260E-1,-6.880437136E-1,4.421966076E-1
2.739745344E1,7.581710219E-1,-6.386508942E-1,4.441339374E-1
2.741745344E1,9.171530604E-1,-5.794492960E-1,4.255636334E-1
2.743745344E1,1.076711059E0,-6.280741692E-1,3.507937193E-1
2.745745344E1,1.298298120E0,-5.368458033E-1,2.672448158E-1
2.747746125E1,1.465849638E0,-2.941403389E-1,1.590518504E-1
2.749945500E1,1.445272207E0,4.605923966E-2,8.129743487E-2
2.752145500E1,1.239934206E0,4.884129465E-1,3.104940802E-2
2.754145500E1,9.904918075E-1,8.675857186E-1,-3.179989755E-2
2.756345344E1,8.923170567E-1,1.255554914E0,-1.250004768E-1
2.758345344E1,9.823934436E-1,1.365580559E0,-2.695660889E-1
2.760345344E1,1.067164063E0,9.881879687E-1,-3.704635799E-1
2.762345500E1,8.750557303E-1,-4.886921961E-4,-3.669380248E-1
2.764545344E1,-4.880987704E-1,-8.707622290E-1,-5.433209985E-2
2.766545500E1,-1.389002800E0,-4.262966812E-1,4.120722413E-2
2.768745344E1,-5.485744476E-1,1.214976072E0,-3.045774102E-1
2.770745344E1,1.446179748E-1,1.157991052E0,-5.415582061E-1
2.772745344E1,-2.604205906E-1,-2.293362617E-1,-5.979323387E-1
2.774745344E1,6.065019220E-2,-3.594156504E-1,-6.060830355E-1
2.776745344E1,9.658303261E-1,1.183001637E0,-2.393369973E-1
2.778745344E1,1.138530612E0,2.022731781E0,-1.268330812E-1
2.780745344E1,7.295476198E-1,1.516027927E0,-2.061233819E-1
2.782745500E1,7.216063738E-1,8.336914182E-1,-2.180265337E-1
2.784745656E1,1.250528455E0,1.562488556E0,-1.551946700E-1
2.786945500E1,1.554966211E0,2.864329576E0,2.301565707E-1
2.789145500E1,2.296678722E-1,3.902905285E-1,2.081479728E-1
2.791345813E1,-1.348650813E0,-3.513068438E0,-4.163482785E-1
2.793545500E1,-1.861515760E0,-4.628997326E0,-7.728492618E-1
2.795545500E1,-1.726095676E0,-3.493730307E0,-6.218433380E-1
2.797745500E1,-1.379700184E0,-9.291434884E-1,-8.641125262E-2
2.799945500E1,-1.526133299E0,2.828951836E0,7.744026184E-2
2.801945500E1,-2.231246471E0,2.611466408E0,-1.451066732E-1
2.803945500E1,-2.252783775E0,-1.184397936E0,-4.293510020E-1
2.805945500E1,-1.736899257E0,-3.417965412E0,-6.151064038E-1
2.807945500E1,-1.726305127E0,-2.381990433E0,-6.429618597E-1
2.809945500E1,-2.171032429E0,-6.986029148E-1,-2.246587873E-1
2.811945500E1,-2.759854317E0,8.036193848E-1,2.178170905E-2
2.813945500E1,-2.500079393E0,4.164879322E0,5.928534269E-1
2.815945500E1,-1.685918212E0,5.746252060E0,7.070677876E-1
2.817945500E1,-6.529800296E-1,3.542843819E0,3.459242582E-1
2.819945500E1,-2.134537697E-1,5.676159859E-1,8.281587064E-2
2.821945500E1,-1.203055456E-1,-1.153208852E0,1.159945801E-1
2.823945500E1,-8.618436009E-2,-1.708886743E0,-7.901105285E-2
2.825945500E1,-1.645321846E-1,-1.392633080E0,-4.415682983E-3
2.827945500E1,3.107558787E-1,-8.486489058E-1,2.336297780E-1
2.830145500E1,9.466142058E-1,-1.021663427E0,5.660451651E-1
2.832145500E1,1.100901365E0,-4.388630390E-1,8.715650439E-1
2.834145813E1,8.526631594E-1,3.631157577E-1,5.645965338E-1
2.836345344E1,4.776791632E-1,3.345970809E-1,-7.820820063E-2
2.838345344E1,2.526887655E-1,-1.301841140E-1,-1.386489570E-1
2.840345344E1,1.335002333E-1,-1.369385272E-1,-4.031710327E-3
2.842345500E1,4.047069550E-1,-4.981169850E-2,3.817733228E-1
2.844545500E1,6.584254503E-1,-2.784323692E-1,4.738917947E-1
2.846745500E1,7.107678652E-1,-2.978404462E-1,2.853438854E-1
2.848945500E1,7.374365330E-1,-1.578301191E-1,4.776966199E-2
2.850945500E1,7.171732187E-1,-1.802227050E-1,1.816887781E-2
2.852945500E1,6.983585954E-1,-1.323308647E-1,1.469741762E-1
2.854945500E1,7.233691812E-1,-1.660331786E-1,2.365444750E-1
2.856945656E1,8.196589947E-1,-4.314104915E-1,1.947438419E-1
2.859145344E1,1.117307425E0,-5.709670186E-1,9.960594028E-2
2.861145500E1,1.188097954E0,-6.659652591E-1,1.287354827E-1
2.863345344E1,1.236461043E0,-5.877919793E-1,9.367182106E-2
2.865345500E1,1.282886863E0,-2.955715060E-1,-4.902629927E-2
2.867545344E1,1.159387350E0,-6.002187356E-2,-1.378810150E-3
2.869545344E1,1.045207858E0,-3.280346394E-1,2.032784969E-1
2.871545344E1,9.466142058E-1,-9.263509512E-1,4.279896319E-1
2.873545500E1,7.511897087E-1,-1.112158656E0,6.176022291E-1
2.875745500E1,5.864306353E-3,-8.611803651E-1,7.425852418E-1
2.877945500E1,-1.763114095E0,-1.555699229E0,6.063448191E-1
2.879945500E1,3.855432272E-1,5.212076902E-1,-5.111021996E-1
2.881945500E1,1.233371854E0,1.305279374E0,-8.359254599E-1
2.883945500E1,8.154527545E-1,7.742804289E-1,-6.085264683E-1
2.885945500E1,5.292710662E-1,7.142061591E-1,-3.845832944E-1
2.887945500E1,8.764694333E-1,9.602103233E-1,1.246514171E-1
2.889945500E1,1.269849181E0,5.086063743E-1,3.189763725E-1
2.891945500E1,1.108615637E0,-3.881786764E-1,1.663822383E-1
2.893945500E1,1.021593571E0,-4.772253633E-1,-1.101128235E-1
2.895945500E1,1.103170276E0,1.815491468E-1,1.037423685E-1
2.897945500E1,3.295356035E-1,-2.870543003E-1,4.343426228E-1
2.900145500E1,-1.176980257E0,-1.707507968E0,1.150171980E-1
2.902345344E1,-2.004074335E0,-1.236548305E0,-3.150319159E-1
2.904345344E1,-1.707333446E0,-1.487718672E-1,-2.943497896E-1
2.906345500E1,-1.118843317E0,1.154360771E-1,-2.336646765E-1
2.908545500E1,-1.286098242E0,-1.017701477E-1,-4.561766982E-1
2.910745500E1,-1.883000851E0,-4.627042413E-1,-6.503969431E-1
2.912745500E1,-2.165133238E0,-8.935038447E-1,-6.061179638E-1
2.914945500E1,-1.923300505E0,-1.069345832E0,-5.882632136E-1
2.916945500E1,-1.574339390E0,-3.684739172E-1,-5.051855445E-1
2.918945500E1,-1.464488268E0,3.356966376E-1,-4.660378098E-1
2.920945500E1,-1.424991488E0,4.753229618E-1,-6.488435864E-1
2.922945500E1,-1.836191058E0,3.746000230E-1,-7.004704475E-1
2.924945500E1,-2.153177738E0,8.985652924E-1,-7.696901914E-3
2.926945500E1,-1.928292155E0,3.870337486E0,3.695036471E-1
2.928945500E1,-8.232543468E-1,4.599797726E0,7.697600126E-1
2.930945500E1,-8.339881301E-1,2.292507410E0,7.902676463E-1
2.932945500E1,-1.406438708E0,7.305250168E-1,3.471809030E-1
2.934945500E1,-1.240004063E0,5.023057386E-2,1.630137488E-2
2.936945500E1,-7.218856215E-1,-1.609088898E0,-4.003436267E-1
2.938945500E1,-4.332605302E-1,-9.916262627E-1,-5.447521806E-1
2.940945500E1,6.504318714E-1,-1.119454205E-1,2.830400467E-1
2.942945500E1,1.892931700E0,-1.825788975E0,1.151254058E0
2.944945500E1,1.792191386E0,-2.134834290E0,1.113520026E0
2.946945500E1,9.170134664E-1,-1.541020989E0,6.652147770E-1
2.948945500E1,2.052856237E-1,-5.426577926E-1,2.778040469E-1
2.950945500E1,-1.845860183E-1,9.626363516E-1,9.510298818E-2
2.952945500E1,-4.673991725E-2,1.483756781E0,3.508635461E-1
2.954945500E1,5.455724597E-1,2.362652272E-1,5.067912340E-1
2.956945500E1,7.867594957E-1,-1.102646708E0,3.053104579E-1
2.958945500E1,6.411292553E-1,-1.686005473E0,5.579817668E-2
2.960945500E1,3.186622262E-1,-1.392441154E0,-1.458746195E-1
2.962945500E1,1.685115397E-1,-1.120099902E0,-2.102772743E-1
2.964945500E1,1.334304214E-1,-1.059432268E0,-2.144486010E-1
2.966945500E1,1.883035749E-1,-1.006583691E0,-1.136383861E-1
2.968945500E1,3.445105255E-1,-7.588167787E-1,5.609488115E-2
2.970945500E1,5.497786999E-1,-2.613455951E-1,1.984962970E-1
2.972945500E1,7.000340819E-1,2.208888680E-1,3.056944311E-1
2.974945500E1,8.097454906E-1,5.350481272E-1,3.829077780E-1
2.976946594E1,8.579340577E-1,7.511373758E-1,4.189662933E-1
2.979145344E1,8.172852993E-1,1.053271294E0,3.937288225E-1
2.981146594E1,7.714354992E-1,1.141410470E0,3.746000230E-1
2.983345344E1,7.574380040E-1,8.031132817E-1,4.344299138E-1
2.985346438E1,7.205591798E-1,3.706032038E-1,4.978202581E-1
2.987545500E1,7.145727277E-1,-8.866272867E-2,5.737071633E-1
2.989745500E1,7.121292353E-1,-4.965810776E-1,6.472029686E-1
2.991945500E1,6.737843752E-1,-7.692015171E-1,5.660102963E-1
2.993945500E1,6.293133497E-1,-1.040390730E0,1.987231821E-1
2.995945500E1,6.503096819E-1,-1.196684957E0,-1.905026883E-1
2.998145344E1,6.340432167E-1,-7.690618634E-1,2.258456126E-2
3.000145344E1,5.526934266E-1,1.537635028E-1,2.277829200E-1
3.002145344E1,7.818900347E-1,9.650274515E-1,3.455402851E-1
3.004146281E1,9.320756197E-1,1.425968885E0,6.063622832E-1
3.006347844E1,8.118573427E-1,9.672614932E-1,7.010812759E-1
3.008545500E1,7.912624478E-1,1.163611040E-1,8.198509812E-1
3.010745656E1,1.008835196E0,4.594753683E-1,1.004122853E0
3.012945500E1,6.483374834E-1,9.860411882E-1,8.091520667E-1
3.014945500E1,-4.765097797E-1,-5.597794652E-1,4.248131439E-2
3.016945500E1,-1.038086891E0,-1.508872032E0,-8.219977021E-1
3.018945500E1,-5.960822701E-1,-1.068211317E0,-1.125004292E0
3.020945500E1,6.965085268E-1,-1.055819511E0,-1.652146101E0
3.022945500E1,1.256287932E0,-1.613260150E0,-1.749430776E0
3.024945500E1,-6.593853980E-2,-1.655724049E0,-9.733875990E-1
3.026945500E1,-1.978400469E0,-1.045172930E0,-5.267753005E-1
3.028945500E1,-2.430650234E0,-9.815731645E-1,-7.956432700E-1
3.030945500E1,-1.825335145E0,-2.199568748E0,-1.251680374E0
3.032945500E1,-1.707438111E0,-3.071308136E0,-1.354393005E0
3.034945500E1,-2.280098200E0,-2.531216145E0,-8.133234382E-1
3.036945500E1,-2.923653364E0,-1.697070837E0,-2.742086649E-1
3.038945500E1,-2.872096300E0,-1.329853654E0,-4.564559460E-1
3.040945500E1,-2.709606171E0,-1.208814979E0,-5.408077240E-1
3.042945500E1,-2.329403639E0,-4.683241844E-1,-9.293878078E-2
3.044945500E1,-1.706111670E0,1.299589634E0,-2.113244683E-1
3.046945500E1,-7.265980244E-1,2.788442612E0,-2.864958048E-1
3.048945500E1,3.443534672E-2,3.143110991E0,-4.402069449E-1
3.050945500E1,-5.223770142E-1,2.128900290E0,-9.572257996E-1
3.052945500E1,-3.520328924E-2,-5.268974304E-1,-8.215090036E-1
3.055145344E1,5.355018973E-1,-2.632899046E0,-7.241021991E-1
3.057145344E1,-7.616616786E-2,-1.932934642E0,7.265805453E-2
3.059145344E1,3.040712476E-1,-1.339208603E0,1.245187640E0
3.061145344E1,1.241417766E0,-1.824235559E0,1.386733890E0
3.063145969E1,1.117970705E0,-7.237007618E-1,1.306483626E0
3.065345500E1,5.583657026E-1,3.957708478E-1,1.217454433E0
3.067545344E1,6.900159121E-1,4.318642616E-1,5.811771750E-1
3.069545344E1,6.042678952E-1,-5.649979711E-1,2.174680233E-1
3.071545500E1,2.394591719E-1,-1.558055401E0,-7.010987401E-2
3.073745344E1,-9.875072539E-2,-1.468101144E0,-4.419173673E-2
3.075745500E1,-1.243197992E-1,-8.813738227E-1,8.602727950E-2
3.077945344E1,-3.728023171E-2,-5.439667702E-1,1.185602173E-1
3.079945500E1,6.894050632E-3,-4.653396904E-1,1.904154196E-2
3.081945500E1,1.005658731E-1,-5.563411713E-1,-1.355946362E-1
3.083945500E1,2.550798655E-1,-7.854854465E-1,-2.121622264E-1
3.085946125E1,2.904925942E-1,-9.435250163E-1,-1.989500821E-1
3.088145500E1,3.617369533E-1,-8.333074450E-1,-5.848598480E-2
3.090145500E1,5.678254366E-1,-6.046518683E-1,1.725083441E-1
3.092345344E1,7.800225616E-1,-4.009370208E-1,3.422590792E-1
3.094345344E1,8.128347397E-1,-3.853687048E-1,3.588047922E-1
3.096345344E1,8.014377356E-1,-4.055621624E-1,2.782229483E-1
3.098345344E1,7.913148403E-1,-4.943994284E-1,2.385865152E-1
3.100345344E1,8.654389381E-1,-6.762452722E-1,1.944645792E-1
3.102345344E1,9.568244219E-1,-7.135254741E-1,1.530304700E-1
3.104345344E1,9.779952168E-1,-6.851987839E-1,2.049365640E-1
3.106345500E1,9.623047113E-1,-5.373170376E-1,3.771132827E-1
3.108545500E1,9.162105918E-1,-9.564404376E-3,6.256132722E-1
3.110745344E1,6.740636230E-1,4.432438016E-1,8.180183768E-1
3.112745344E1,3.899414539E-1,6.051754355E-1,8.172852993E-1
3.114745500E1,1.781108528E-1,4.414984882E-1,6.965259910E-1
3.116945500E1,2.556732893E-1,-3.707253933E-1,3.279473782E-1
3.118945500E1,8.842186928E-1,-4.821821153E-1,-1.682846397E-1
3.120945656E1,1.253931761E0,4.792324901E-1,-4.994783103E-1
3.123145969E1,6.986727715E-1,1.182425618E0,-7.084291577E-1
3.125345344E1,9.204866737E-2,1.083151340E0,-5.661848187E-1
3.127345344E1,7.232644409E-2,8.060803413E-1,-3.377037644E-1
3.129345344E1,3.087836504E-1,5.383642316E-1,-1.269727051E-1
3.131345344E1,2.733010948E-1,5.410695076E-1,-2.307325229E-2
3.133345344E1,2.667386830E-1,6.917961240E-1,5.248204991E-2
3.135345344E1,4.819028676E-1,8.155225515E-1,2.034704834E-1
3.137345344E1,8.215439320E-1,9.582031965E-1,3.212976754E-1
3.139345344E1,1.242831469E0,1.286010981E0,5.639507771E-1
3.141345500E1,1.332646132E0,1.292573333E0,5.208062530E-1
3.143545344E1,1.051194310E0,-4.500680566E-1,4.968254268E-1
3.145545344E1,3.588745892E-1,-2.004196405E0,2.825862467E-1
3.147545344E1,-1.544092745E-1,-2.285368919E0,-3.509159088E-1
3.149545344E1,-3.824016452E-1,-1.562628150E0,-6.284581423E-1
3.151545500E1,-6.209008694E-1,-2.213601023E-1,-6.185446978E-1
3.153745500E1,-9.434028268E-1,4.616919458E-1,-6.839247346E-1
3.155945500E1,-1.238206387E0,4.234866798E-1,-7.427946925E-1
3.157945500E1,-1.455273032E0,-3.063925505E-1,-7.685382962E-1
3.159945500E1,-1.508348465E0,-1.364114404E0,-7.646461725E-1
3.161945500E1,-1.396088839E0,-1.479184031E0,-8.385958076E-1
3.163945500E1,-1.395669937E0,-7.793942094E-1,-8.382292986E-1
3.165945500E1,-1.362438917E0,-4.084244967E-1,-8.487361670E-1
3.167945500E1,-1.350605607E0,-5.103691816E-1,-9.023875594E-1
3.169945500E1,-1.445970416E0,-3.884928226E-1,-7.767936587E-1
3.171945500E1,-1.660768032E0,-7.068583276E-3,-6.058387160E-1
3.174145500E1,-1.857117534E0,6.266081333E-1,-5.065294504E-1
3.176345500E1,-1.555524707E0,1.260284781E0,-1.230980754E-1
3.178545344E1,-1.212619901E0,1.726985812E0,6.407103688E-2
3.180545500E1,-1.327270508E0,2.223549366E0,3.662049770E-1
3.182745500E1,-1.253024220E0,2.484877586E0,6.217386127E-1
3.184945500E1,-8.647931814E-1,1.368390441E0,5.409997106E-1
3.186945500E1,-7.109423876E-1,-1.572192609E-1,3.346145153E-1
3.188945500E1,-1.354899108E-1,-1.718922377E0,2.657961845E-1
3.190945500E1,2.567204833E-1,-1.809923887E0,9.515535086E-2
3.192945500E1,-1.356818974E-1,-1.068769813E0,-2.120400518E-1
3.194945500E1,-2.779960334E-1,-9.379224777E-1,-2.024407387E-1
3.196945500E1,-3.134436905E-1,-9.381319284E-1,9.145525098E-2
3.199145344E1,4.516563118E-1,4.680100381E-1,4.107981324E-1
3.201145344E1,1.067652822E0,5.647536516E-1,7.625867128E-1
3.203146125E1,8.864876032E-1,-1.051909924E-1,5.252394080E-1
3.205345500E1,4.709072709E-1,-5.818229318E-1,3.712315261E-1
3.207545344E1,2.258805037E-1,-3.568849266E-1,3.623129129E-1
3.209545500E1,1.018574163E-1,-9.714502841E-2,4.296826124E-1
3.211545500E1,6.363470107E-2,9.084438533E-2,3.869394958E-1
3.213745344E1,1.144586951E-1,2.147627622E-1,2.594955564E-1
3.215745344E1,1.447052509E-1,3.767991364E-1,9.915215522E-2
3.217745500E1,1.713564247E-1,4.372573495E-1,-6.417575479E-2
3.219945500E1,3.278426528E-1,2.095791399E-1,-9.124581516E-2
3.221945500E1,3.892258704E-1,-9.178686142E-2,-7.255333662E-2
3.223945500E1,3.033731282E-1,-3.903079927E-1,-6.508332491E-2
3.225945500E1,3.578972220E-1,-4.803146124E-1,9.571385384E-2
3.227945500E1,4.739790559E-1,-3.578972220E-1,2.297551483E-1
3.229945500E1,5.375439525E-1,-1.028697044E-1,3.129549921E-1
3.231945500E1,5.572138429E-1,1.072853878E-1,3.359235227E-1
3.233945500E1,5.866749883E-1,2.221455127E-1,3.015405238E-1
3.235945500E1,6.652497053E-1,3.174928427E-1,2.310641408E-1
3.238145500E1,7.111343741E-1,2.539454103E-1,2.472084314E-1
3.240145500E1,6.894399524E-1,2.513274085E-3,2.461961508E-1
3.242145500E1,6.155427098E-1,-2.447824329E-1,1.629613936E-1
3.244145500E1,5.596747398E-1,-5.284507871E-1,8.784241974E-2
3.246145500E1,4.965810776E-1,-6.996675730E-1,1.832595677E-3
3.248145500E1,4.269773364E-1,-4.570144713E-1,1.079486161E-1
3.250145969E1,4.256159961E-1,1.029569730E-1,3.235840499E-1
3.252345344E1,4.665090442E-1,3.692243993E-1,4.407829046E-1
3.254345344E1,5.588718653E-1,4.972791970E-1,4.040262699E-1
3.256345500E1,6.380749345E-1,5.843187571E-1,3.082600534E-1
3.258345500E1,6.132388711E-1,7.335444093E-1,1.580919176E-1
3.260545344E1,5.234940648E-1,6.728767753E-1,4.427900165E-2
3.262545344E1,5.036147833E-1,2.975611687E-1,9.948377265E-4
3.264545344E1,5.433210135E-1,2.026152760E-1,-7.878416032E-2
3.266545500E1,6.536781788E-1,1.443910897E-1,-1.967509687E-1
3.268745500E1,6.188588142E-1,-3.004933298E-1,-2.999522984E-1
3.270945500E1,2.818706818E-2,-5.712985992E-1,-3.630982935E-1
3.272945500E1,-6.555456668E-2,1.438325793E-1,-1.732588410E-1
3.274945500E1,4.609588981E-1,1.028609753E0,1.046324894E-1
3.276945500E1,7.781899571E-1,1.128931284E0,1.666440368E-1
3.278945500E1,9.237853289E-1,8.197985888E-1,1.542347521E-1
3.280945500E1,1.088404775E0,5.740736723E-1,1.492082030E-1
3.282945500E1,1.122176886E0,1.435882300E-1,1.136383861E-1
3.285145500E1,9.576447010E-1,-3.189240098E-1,8.272860944E-2
3.287145500E1,4.790056050E-1,-8.592604995E-1,-1.481260955E-1
3.289145500E1,-2.172062248E-1,-1.636333466E0,-5.008920431E-1
3.291345500E1,-6.216688156E-1,-2.318024158E0,-8.756142259E-1
3.293545344E1,-8.338484764E-1,-9.594773054E-1,-8.787034750E-1
3.295545344E1,-1.049257040E0,2.349911332E-1,-8.312653899E-1
3.297545344E1,-1.223405957E0,-3.200759292E-1,-7.704057693E-1
3.299545344E1,-1.453562498E0,-1.573571444E0,-7.026171684E-1
3.301545500E1,-1.603451490E0,-1.737195969E0,-6.149842143E-1
3.303745344E1,-1.529938221E0,-6.094864011E-1,-4.489510357E-1
3.305745344E1,-1.469113469E0,5.721189380E-1,-3.275983036E-1
3.307745344E1,-1.562994719E0,1.203613997E0,-4.740139842E-1
3.309745344E1,-1.478573084E0,8.340579271E-1,-6.729291677E-1
3.311745500E1,-1.253233671E0,-6.387905031E-2,-8.099200130E-1
3.313945500E1,-1.331162572E0,-7.105060816E-1,-6.786014438E-1
3.315945500E1,-1.544633865E0,-3.481233716E-1,-3.881612122E-1
3.318145500E1,-1.257021070E0,9.583951831E-1,1.143016145E-1
3.320145969E1,-8.046665788E-1,2.013132572E0,3.804643154E-1
3.322345344E1,-6.022956967E-1,1.943895340E0,8.788430691E-1
3.324345344E1,-8.178961873E-1,1.961086869E0,8.577595353E-1
3.326345500E1,-8.986002207E-1,1.074634075E0,8.113163114E-1
3.328545344E1,-1.887748092E-1,-8.477064371E-1,7.249399424E-1
3.330545500E1,4.973664880E-1,-1.604882598E0,1.508313566E-1
3.332745500E1,3.149795830E-1,-1.437505484E0,-2.402969301E-1
3.334945500E1,-9.093165398E-2,-1.189040422E0,-3.279473782E-1
3.336945500E1,-7.153406739E-1,-2.484476119E-1,-3.251548409E-1
3.338945500E1,-2.364048511E-1,1.318613648E0,9.056513757E-2
3.340945500E1,8.884598613E-1,2.000287056E0,5.311211348E-1
3.342945500E1,1.222533345E0,4.985533059E-1,5.904972553E-1
3.344945500E1,6.717073917E-1,-9.428094029E-1,4.558101892E-1
3.346945500E1,4.681845605E-1,-1.050618410E0,4.303632975E-1
3.348945500E1,4.843463302E-1,-4.052829146E-1,6.463652253E-1
3.350945500E1,6.036046743E-1,1.191885322E-1,6.209532619E-1
3.352945500E1,6.867346764E-1,2.097013146E-1,4.283561707E-1
3.355145812E1,5.337740183E-1,1.207069680E-1,1.077042669E-1
3.357345500E1,2.183755934E-1,3.311762214E-1,-1.283515096E-1
3.359545344E1,9.590584040E-2,4.420569837E-1,-1.369908899E-1
3.361545344E1,2.864259779E-1,3.920184076E-1,-2.459168993E-2
3.363545344E1,4.291415513E-1,1.883384734E-1,4.892157763E-2
3.365545500E1,4.624424279E-1,-1.375319436E-2,4.553563893E-2
3.367745344E1,4.906469584E-1,-1.015258059E-1,8.761552721E-2
3.369745344E1,5.237209201E-1,-5.145230517E-2,1.625250578E-1
3.371745344E1,5.628861189E-1,1.223650351E-1,1.709200889E-1
3.373745344E1,5.990842581E-1,2.841396034E-1,1.515120268E-1
3.375745500E1,6.445326209E-1,2.711543441E-1,1.324006766E-1
3.377945344E1,7.147123218E-1,7.183775306E-2,8.970992267E-2
3.379945500E1,7.497061491E-1,-9.838420898E-2,1.459095255E-2
3.382145500E1,8.133583069E-1,-2.611187100E-1,-1.316676438E-1
3.384145500E1,9.332275391E-1,-3.749665320E-1,-1.560324281E-1
3.386145500E1,1.048000455E0,-4.771206677E-1,-1.869247667E-2
3.388145500E1,1.115684271E0,-6.258227229E-1,1.624726951E-1
3.390145656E1,9.564404488E-1,-6.327342391E-1,3.669380248E-1
3.392345344E1,4.338539541E-1,-5.793794990E-1,5.680697560E-1
3.394345344E1,9.859365225E-2,5.682792142E-2,4.861614704E-1
3.396345344E1,4.632103741E-1,7.205068469E-1,1.968207806E-1
3.398345500E1,1.018207669E0,8.280016184E-1,2.527236752E-2
3.400545344E1,7.709991932E-1,3.981445134E-1,-4.967207089E-2
3.402545500E1,2.203478217E-1,-1.472708881E-1,-2.419200838E-1
3.404745500E1,-2.273465842E-1,-1.270948797E-1,-1.886875480E-1
3.406945500E1,-3.979699612E-1,4.327718318E-1,-1.994911395E-2
3.408945500E1,-1.596801728E-1,8.281936049E-1,-2.495646328E-1
3.410945500E1,6.817604899E-1,4.289670289E-1,-4.962494671E-1
3.412945500E1,1.090569019E0,3.347017765E-1,-5.030388236E-1
3.414945812E1,1.057268143E0,4.306250811E-1,-4.174304008E-1
3.417145500E1,1.021157265E0,7.949276567E-1,-2.375742197E-1
3.419345344E1,1.022885084E0,1.073342562E0,-9.827949107E-2
3.421345500E1,1.027737141E0,1.531177402E0,1.232376993E-1
3.423545500E1,7.979645133E-1,1.435795069E0,3.096213937E-1
3.425745500E1,3.723310828E-1,-1.160329819E0,1.238660142E-1
3.427945500E1,-5.296376348E-1,-2.767271996E0,-5.392020345E-1
3.429945500E1,-1.268313289E0,-2.464596987E0,-6.847624779E-1
3.431945500E1,-1.581128716E0,-1.004192591E0,-2.432116270E-1
3.433945500E1,-1.407887340E0,8.872032166E-1,-1.023635566E-1
3.435945500E1,-1.246095300E0,1.687157393E0,-2.109579444E-1
3.438145500E1,-1.417748451E0,4.466471970E-1,-3.593981862E-1
3.440145500E1,-1.657835841E0,-1.312749386E0,-4.154756367E-1
3.442345344E1,-1.759885311E0,-1.857763410E0,-3.847927451E-1
3.444345344E1,-1.586940646E0,-1.220840335E0,-3.533593714E-1
3.446346438E1,-1.517528892E0,-5.669178367E-1,-3.930481374E-1
3.448545344E1,-1.565368295E0,-7.473500073E-2,-3.850196302E-1
3.450545344E1,-1.886072636E0,3.312634826E-1,-3.529404700E-1
3.452545500E1,-2.219971418E0,5.002637506E-1,-3.055722415E-1
3.454745500E1,-1.617169738E0,1.139717460E0,7.457792014E-2
3.456945500E1,-1.245152831E0,1.689688206E0,3.473728895E-1
3.458945500E1,-1.434730411E0,1.157659411E0,4.986754656E-1
3.460945500E1,-9.108000398E-1,2.137853801E-1,3.469190896E-1
3.462945500E1,-4.731413126E-1,1.204416752E0,4.526511431E-1
3.465145500E1,5.040510744E-2,1.847972035E0,7.618536949E-1
3.467145500E1,2.148500271E-2,8.550717235E-1,5.911779404E-1
3.469345344E1,5.056218803E-2,-6.430665851E-1,3.487865925E-1
3.471345344E1,1.760688126E-1,-1.435498357E0,3.166550994E-1
3.473345344E1,7.757988572E-2,-1.530112743E0,2.015506178E-1
3.475345500E1,-3.808831871E-1,-8.031830788E-1,-3.111921996E-2
3.477345500E1,-7.056016922E-1,5.531297326E-1,-1.186998412E-1
3.479545344E1,-1.502204835E-1,2.056329489E0,1.103397161E-1
3.481545344E1,8.555952907E-1,6.561390758E-1,3.298323154E-1
3.483545344E1,1.193979740E0,-1.665201187E0,-8.330456167E-2
3.485545344E1,7.385709882E-1,-2.664088011E0,-2.095093280E-1
3.487545500E1,2.849424481E-1,-2.393788815E0,-3.913028166E-2
3.489745500E1,1.182809621E-1,-1.241592288E0,-5.131267942E-3
3.491945500E1,1.777966917E-1,-6.878865957E-1,-1.239009202E-1
3.493945500E1,2.241700888E-1,-8.774991632E-1,-3.847578466E-1
3.495945500E1,2.482381761E-1,-1.295261145E0,-6.449340582E-1
3.497945500E1,2.929709554E-1,-1.654118299E0,-7.416602373E-1
3.499945500E1,4.430518150E-1,-2.138360023E0,-5.829399824E-1
3.502145344E1,5.712113380E-1,-2.793521643E0,-2.641904950E-1
3.504145500E1,7.266852856E-1,-3.164823055E0,-2.825688124E-1
3.506345656E1,8.610581756E-1,-3.551744938E0,-2.028072625E-1
3.508545500E1,8.743925095E-1,-3.909869194E0,-4.301887453E-1
3.510745344E1,1.004000664E0,-4.427690983E0,-7.269645333E-1
3.512745344E1,1.130240321E0,-5.127027035E0,-6.949377656E-1
3.514745500E1,8.472526073E-1,-5.294909954E0,-4.871563017E-1
3.516945344E1,4.232074320E-1,-4.791033268E0,-3.290818334E-1
3.518945500E1,2.743308544E-1,-4.063632488E0,-2.123367488E-1
3.520945500E1,3.092025220E-1,-3.056158781E0,-1.230457127E-1
3.522945500E1,4.362974167E-1,-2.254965305E0,-7.853982039E-3
3.524945500E1,3.483677208E-1,-1.953075767E0,1.273915768E-1
3.526945500E1,-3.795742095E-1,-3.431928158E0,1.565385759E-1
3.528945500E1,-5.745972991E-1,-5.155737400E0,-4.919210374E-1
3.530945500E1,-3.252072036E-1,-5.299360752E0,-9.291085601E-1
3.533145500E1,1.151742786E-1,-3.900688648E0,-5.760284662E-1
3.535345344E1,5.968328118E-1,-2.734913588E0,-1.229584441E-1
3.537345344E1,6.092071533E-1,-2.564813614E0,2.459343374E-1
3.539345344E1,4.560545385E-1,-2.593454599E0,5.560269952E-1
3.541345500E1,4.302760065E-1,-3.082635403E0,8.747764826E-1
3.543545344E1,2.500533164E-1,-3.694495440E0,1.129734159E0
3.545545344E1,5.911954045E-1,-3.196727514E0,7.949276567E-1
3.547545500E1,1.724036217E0,-1.584706545E0,3.778463304E-1
3.549745344E1,2.384294271E0,-1.665218621E-1,9.283406287E-2
3.551745344E1,2.564202785E0,-7.704755664E-1,3.504621089E-1
3.553745344E1,2.560101271E0,1.858356714E0,8.014726639E-1
3.555745344E1,1.772050261E0,4.831438065E0,9.878214598E-1
3.557745344E1,1.310724854E0,4.357109547E0,1.253495455E0
3.559745344E1,7.405781150E-1,1.789224267E0,1.567550063E0
3.561745500E1,-1.195550524E-2,-1.000893950E0,1.587376952E0
3.563945500E1,-3.294309080E-1,-2.076889515E0,1.375424147E0
3.565945500E1,-9.320057929E-2,-1.503810644E0,1.463109493E0
3.567945500E1,1.023461074E-1,-5.831145048E-1,1.776884794E0
3.569945500E1,-1.626297832E-1,-8.017344475E-1,1.794739485E0
3.571945500E1,-5.216614604E-1,-1.715135098E0,1.445621252E0
3.574145500E1,-4.694935679E-1,-2.022539854E0,1.032379746E0
3.576145500E1,-4.473977089E-1,-2.183581352E0,7.667754889E-1
3.578345500E1,-5.089729428E-1,-2.604310513E0,5.312607884E-1
3.580546594E1,-2.568775713E-1,-3.314432621E0,1.926843524E-1
3.582745500E1,-4.251622036E-2,-4.125260353E0,-2.959729433E-1
3.584746125E1,-2.092824280E-1,-4.483907700E0,-3.514569402E-1
3.586945500E1,-9.227904677E-1,-2.851012707E0,-4.579744115E-2
3.588945500E1,-1.568562269E0,7.767936587E-1,2.205921561E-1
3.590945500E1,-1.986987591E0,2.466150284E0,4.307472706E-2
3.592945500E1,-1.427173138E0,1.790096998E0,-2.441715598E-1
3.594945500E1,-2.773677111E-1,3.752457798E-1,-6.134832278E-2
3.596945500E1,2.443460934E-2,-9.002408385E-1,-2.445031703E-1
3.598945500E1,-3.704286814E-1,-1.655863643E0,-6.923372149E-1
3.600945500E1,-4.072027802E-1,-2.073643208E0,-8.520871997E-1
3.602945500E1,-5.466021895E-1,-1.442409873E0,-6.249500513E-1
3.604945500E1,-2.050290585E0,8.081747293E-1,1.485973299E-1
3.606945500E1,-7.304028273E-1,3.708772182E0,2.447824329E-1
3.608945500E1,1.898220032E-1,2.836037874E0,-2.973866463E-1
3.610945500E1,-3.352079391E-1,-6.477963924E-1,-9.496161938E-1
3.612945500E1,-5.263563991E-1,-2.245872259E0,-1.189598918E0
3.614945500E1,-4.631405771E-1,-1.594812036E0,-8.414581418E-1
3.616945500E1,-5.025326610E-1,-2.435956001E-1,-2.670877278E-1
3.618945500E1,-6.802245975E-1,8.750382662E-1,5.691518635E-2
3.620945500E1,-2.569944859E0,4.619310379E0,1.611287892E-1
3.622945500E1,-2.936010361E0,7.853301048E0,-6.091199070E-2
3.624945500E1,-2.365968376E-1,4.816462994E0,5.042256042E-2
3.626945500E1,7.476466894E-1,1.178097278E-1,-1.072853878E-1
3.628947062E1,1.861044616E-1,-1.669058323E0,-5.499881506E-1
3.631145500E1,-2.562666833E-1,-8.737118244E-1,-5.068261623E-1
3.633145500E1,-2.256885320E-1,-1.270599663E-2,-4.337143302E-1
3.635146125E1,-3.914598823E-1,2.344675362E-1,-3.789633512E-1
3.637345344E1,-7.666009665E-1,3.351031989E-2,-3.052755296E-1
3.639345344E1,-9.546776414E-1,-1.815142459E-3,-3.227462769E-1
3.641345500E1,-1.016828775E0,3.759613633E-1,-2.059663087E-1
3.643545344E1,-8.363094330E-1,3.868522346E-1,-1.944820434E-1
3.645545500E1,-6.730512977E-1,3.323630393E-1,-2.926568091E-1
3.647745344E1,-2.774550021E-1,5.283635259E-1,-6.024178267E-1
3.649745344E1,1.865582466E-1,6.004979610E-1,-9.149539471E-1
3.651745344E1,5.672319978E-2,8.354367614E-1,-9.687973857E-1
3.653745344E1,-5.035274625E-1,1.888167024E0,-6.980793476E-1
3.655745344E1,-7.956956327E-2,2.141117573E0,-3.200410306E-1
3.657745344E1,6.407627463E-1,1.559608817E0,-3.750712425E-2
3.659745344E1,8.319635391E-1,8.523315191E-1,1.452812105E-1
3.661745500E1,1.752345443E0,-1.040146470E0,1.966636926E-1
3.663945500E1,2.912605524E0,-2.372094393E0,5.024104714E-1
3.665945500E1,3.463047266E0,-2.614032030E0,9.678025246E-1
3.667945500E1,3.356669664E0,-2.960532188E0,1.542295098E0
3.670145969E1,2.793190002E0,-2.365235329E0,1.868549466E0
3.672345500E1,2.251806259E0,1.230806187E-1,1.850904226E0
3.674545344E1,1.435184240E0,4.110547066E0,1.630451679E0
3.676545344E1,5.984035730E-1,6.342683792E0,1.307321429E0
3.678545344E1,6.452482343E-1,5.489339828E0,1.300758958E0
3.680545344E1,1.038470864E0,2.143962383E0,1.295540452E0
3.682545344E1,7.286051512E-1,-8.969421387E-1,9.915564656E-1
3.684545344E1,4.395088255E-1,-2.196880817E0,7.587469816E-1
3.686548000E1,2.476622164E-1,-2.126579046E0,5.657659173E-1
3.688745344E1,1.396263391E-1,-1.801563740E0,6.016673446E-1
3.690745500E1,7.189010829E-2,-1.281734943E0,6.528578401E-1
3.692945500E1,2.604031190E-2,-7.826579809E-1,4.680972993E-1
3.694945500E1,-1.136034802E-1,-8.584401608E-1,2.045874894E-1
3.696945500E1,-5.249426961E-1,-1.075402021E0,-4.729842301E-3
3.698945500E1,-1.066989541E0,-1.052677870E0,-2.782752812E-1
3.700945500E1,-1.603049994E0,-8.263086677E-1,-7.788531780E-1
3.702947688E1,-1.907871723E0,-3.945142329E-1,-1.332925439E0
3.705145969E1,-1.659179807E0,4.714134336E-1,-1.478206635E0
3.707146125E1,-1.096537948E0,1.512991071E0,-9.331577420E-1
3.709345344E1,-6.363121271E-1,2.246657610E0,-1.252797395E-1
3.711345344E1,-2.722713649E-1,3.290469348E-1,4.225791097E-1
3.713345500E1,-2.173109502E-1,-7.749261856E-1,6.224542260E-1
3.715545500E1,-4.208337963E-1,6.852511764E-1,2.144660652E-1
3.717745344E1,-5.139819980E-1,-9.119519591E-1,7.752752304E-2
3.719745344E1,-4.537856148E-4,-2.464317560E0,8.602727950E-2
3.721745344E1,1.207418740E-1,-1.921467900E0,3.186971322E-2
3.723745344E1,-6.161012053E-1,-8.872032166E-1,-8.623671532E-2
3.725745500E1,-1.679163814E0,-2.104343474E-1,-1.636246145E-1
3.727745500E1,-1.770828485E0,-2.572091818E-1,-5.802870393E-1
3.729945500E1,-8.532565832E-1,-3.115936220E-1,-9.204517603E-1
3.731945500E1,-9.606292099E-2,8.636761904E-1,-7.556053996E-1
3.734145344E1,4.063475430E-1,1.454487562E0,-6.457543969E-1
3.736145344E1,-3.016627133E-1,7.145028710E-1,-8.072322011E-1
3.738145344E1,-1.038645387E0,-1.912008226E-1,-4.945390522E-1
3.740147062E1,-1.027370572E0,-1.301771283E0,-2.305579931E-1
3.742345344E1,-7.801970840E-1,-7.126179338E-1,-3.277728334E-2
3.744345344E1,-6.069557071E-1,1.545890450E0,1.428726465E-1
3.746345500E1,-6.220178604E-1,2.962678909E0,3.231651485E-1
3.748345500E1,-5.017995834E-1,2.477582216E0,1.828406900E-1
3.750545344E1,-1.184205860E-1,5.461484194E-1,-5.864830017E-1
3.752545344E1,-3.096912205E-1,-4.967032373E-1,-8.631350994E-1
3.754545344E1,-4.417777359E-1,2.607521974E-2,-8.558222055E-1
3.756545344E1,-3.153286278E-1,8.603076935E-1,-6.322629452E-1
3.758545500E1,-6.087708473E-2,1.146506786E0,-4.635245502E-1
3.760745344E1,1.363625675E-1,1.043741822E0,-3.922976553E-1
3.762745344E1,1.983217597E-1,9.515185952E-1,-2.476622164E-1
3.764745500E1,3.086091280E-1,8.690866828E-1,-2.841396071E-2
3.766945500E1,5.376836061E-1,5.124461055E-1,1.192059889E-1
3.768945500E1,7.709119320E-1,4.076914489E-1,9.297368675E-2
3.770945500E1,7.746294737E-1,8.123285770E-1,9.672614932E-2
3.772945500E1,8.272686005E-1,1.509500384E0,-5.061454605E-3
3.775145656E1,1.898796082E0,1.196161389E0,2.399304062E-1
3.777345500E1,2.965715885E0,8.647408485E-1,1.422216415E0
3.779545344E1,3.197862148E0,6.041282415E-1,2.233375549E0
3.781545344E1,3.114016533E0,-2.443111837E-1,2.019503117E0
3.783545344E1,2.356508732E0,5.042605400E-1,1.260913134E0
3.785545344E1,1.287215233E0,3.089110613E0,5.994507670E-1
3.787545500E1,1.046691418E0,3.272282839E0,1.241627261E-1
3.789745500E1,1.195917010E0,1.885269761E0,1.500284970E-1
3.791945500E1,9.331053495E-1,1.504194498E0,-8.187339455E-2
3.793945500E1,4.517959356E-1,1.106870413E0,-1.428028345E-1
3.796145500E1,-3.178419173E-1,5.633224845E-1,1.606575549E-1
3.798345500E1,-1.094077110E0,5.721189380E-1,3.554711938E-1
3.800345500E1,-1.378862500E0,8.697848320E-1,2.755002081E-1
3.802545344E1,-1.434538484E0,1.098300815E0,8.237954229E-3
3.804545344E1,-1.505765319E0,5.474050641E-1,-2.503500283E-1
3.806545344E1,-1.519972324E0,-8.248251677E-1,-4.664916098E-1
3.808545500E1,-1.296168804E0,-3.835954428E0,-1.126452923E0
3.810545500E1,-1.104130149E0,-4.854807854E0,-1.891901970E0
3.812745500E1,-1.300078273E0,3.594680130E-1,-1.200943589E0
3.814745500E1,-9.176592231E-1,5.085470676E0,-5.425879359E-1
3.816945500E1,6.923372149E-1,5.412161350E0,-8.114559054E-1
3.818945500E1,8.725599051E-1,3.840125799E0,-8.034971952E-1
3.820945500E1,-8.074591160E-1,2.385341406E0,-4.546582699E-1
3.822945500E1,-4.552691281E-1,2.966187000E-1,-5.062851310E-1
3.824945500E1,4.985707402E-1,-8.602727652E-1,-7.681193948E-1
3.826945500E1,4.616919458E-1,-1.487491727E0,-6.101496220E-1
3.828945500E1,-8.651422262E-1,1.692096740E-1,-4.764050841E-1
3.830945500E1,-1.046394706E0,1.643314719E0,-1.956514083E-2
3.832945500E1,-4.674689770E-1,2.333452940E0,3.155380785E-1
3.834945500E1,2.409427017E-1,2.466935635E0,1.583886296E-1
3.836945500E1,1.018609047E0,2.053519487E0,-1.623679847E-1
3.838945500E1,1.241993785E0,1.581006527E0,-1.432391703E-1
3.840945500E1,1.204120159E0,1.504962444E0,-2.782229483E-1
3.842945500E1,1.315751314E0,1.563553214E0,-4.148298502E-1
3.845146281E1,1.432234645E0,1.947333694E0,-4.406083822E-1
3.847345344E1,1.344095469E0,2.997951984E0,-5.330584645E-1
3.849345344E1,1.051176906E0,4.268673897E0,-3.862588108E-1
3.851345344E1,9.186714888E-1,4.977818489E0,-3.281218931E-2
3.853345344E1,9.335242510E-1,4.889801502E0,1.778490543E-1
3.855345500E1,8.450884223E-1,3.679869652E0,2.733010948E-1
3.857345500E1,8.429067731E-1,1.849001765E0,1.481086463E-1
3.859545344E1,1.135057449E0,1.128861547E0,-2.450267673E-1
3.861545344E1,1.349453688E0,1.818231702E0,-5.468465686E-1
3.863545344E1,8.977973461E-1,2.535788774E0,-6.630156636E-1
3.865545500E1,-2.738421597E-2,2.993309498E0,-7.387629747E-1
3.867745344E1,-8.946382999E-1,3.085392952E0,-7.644193172E-1
3.869745500E1,-7.085512877E-1,2.040743589E0,-7.589215040E-1
3.871945500E1,1.485798806E-1,5.315749049E-1,-9.821840525E-1
3.873945500E1,2.938785255E-1,5.663768053E-1,-1.106678367E0
3.875945500E1,-4.598942399E-2,1.750966668E0,-1.137658000E0
3.878145344E1,-6.784094870E-2,3.095358849E0,-1.054143906E0
3.880145656E1,3.660478890E-1,3.527083397E0,-1.015903831E0
3.882345344E1,8.796459436E-1,2.863439560E0,-8.828573227E-1
3.884345500E1,9.123533964E-1,1.926860929E0,-6.362597942E-1
3.886346125E1,5.659055710E-1,9.886766672E-1,-5.642998815E-1
3.888545344E1,2.013237327E-1,3.583684564E-1,-5.567600131E-1
3.890545344E1,2.256361693E-1,-2.561619878E-1,-5.438795090E-1
3.892545344E1,2.227912843E-1,-7.764096856E-1,-5.389751196E-1
3.894545500E1,1.567305624E-2,-6.200281978E-1,-4.707152843E-1
3.896745344E1,-4.088957310E-1,3.137753010E-1,-3.031636775E-1
3.898745344E1,-6.958802342E-1,8.796110153E-1,-3.503224850E-1
3.900745344E1,-6.045820713E-1,1.483704448E-1,-6.721437573E-1
3.902745344E1,-2.852566242E-1,-1.136436224E0,-1.055889249E0
3.904745344E1,-1.846383810E-1,-1.926197767E0,-1.370083451E0
3.906745344E1,-5.079256892E-1,-1.945675611E0,-1.433508754E0
3.908745344E1,-1.197802067E0,-9.366832972E-1,-1.264909863E0
3.910745344E1,-1.890907168E0,9.322501421E-1,-1.005030394E0
3.912745500E1,-1.851305604E0,2.188311338E0,-9.670869112E-1
3.914745500E1,-1.158898592E0,2.330974579E0,-1.131566763E0
3.916945500E1,-6.150016785E-1,1.874064684E0,-1.056814313E0
3.918945500E1,-5.925741792E-1,1.600362182E0,-8.481602073E-1
3.920945500E1,-8.787558079E-1,1.664695024E0,-7.103140950E-1
3.922945500E1,-1.206301808E0,1.572785974E0,-5.758539438E-1
3.924945500E1,-1.471539497E0,1.215935946E0,-4.165053666E-1
3.926945500E1,-1.659808159E0,1.144674182E0,-2.364921123E-1
3.928945500E1,-1.184729457E0,2.201628208E0,-5.022708774E-1
3.930945500E1,-6.713234186E-1,2.445799589E0,3.612656891E-1
3.932945500E1,-1.117551804E0,1.550288677E0,1.133573890E0
3.934945500E1,-1.771020532E0,6.547777057E-1,1.282694817E0
3.936945500E1,-2.897124290E0,3.687880561E-2,1.368076324E0
3.938945500E1,-2.043833017E0,4.006752372E-1,7.453428507E-1
3.940945500E1,-2.796541154E-1,8.570264578E-1,-2.600540593E-2
3.942945500E1,2.419724464E-1,1.380712509E0,-1.105840579E-1
3.944945656E1,2.922204733E-1,8.961916566E-1,-9.648180008E-2
3.947145500E1,-9.979792684E-2,-2.946464717E-1,6.880087852E-1
3.949145500E1,-2.304183692E-1,5.080130100E-1,9.568767548E-1
3.951345344E1,-1.409702450E-1,2.209831238E0,6.097133160E-1
3.953345344E1,-4.274136722E-1,2.883423567E0,3.250675797E-1
3.955345500E1,2.064200938E-1,2.198451519E0,3.910584748E-1
3.957345500E1,6.721088290E-1,7.536157370E-1,3.422590792E-1
3.959545500E1,-2.578549385E-1,5.831145123E-2,1.765924096E-1
3.961745500E1,-1.071283102E0,1.075925708E0,5.432337523E-1
3.963945344E1,3.909537569E-3,1.098265886E0,7.406304479E-1
3.965945500E1,4.381649196E-1,9.310284257E-1,6.602755189E-1
3.967945500E1,1.172686741E-1,1.176334500E0,4.206941724E-1
3.969945500E1,-3.052929938E-1,1.371863723E0,4.082848728E-1
3.971945500E1,-2.304532677E-1,1.171726823E0,2.729345858E-1
3.974145500E1,-6.044075266E-2,7.773347497E-1,3.860668465E-2
3.976145500E1,-2.352180183E-1,6.074269414E-1,-3.619812801E-2
3.978345500E1,-4.178492725E-1,6.440439224E-1,-3.054326167E-3
3.980545500E1,-3.135309517E-1,7.893600464E-1,5.494296551E-2
3.982745500E1,-1.918465942E-1,7.798305750E-1,-1.001818944E-2
3.984945344E1,-2.029643357E-1,9.207310081E-1,-1.012814566E-1
3.986945500E1,-2.228436321E-1,1.136383891E0,-1.765575111E-1
3.989145500E1,-1.705012172E-1,1.245606542E0,-2.380629033E-1
3.991345500E1,-7.033676654E-2,1.339522719E0,-2.737548947E-1
3.993545344E1,2.086366564E-1,1.351513147E0,-1.374621242E-1
3.995545500E1,5.442809463E-1,1.371060848E0,1.006880477E-1
3.997745344E1,1.105020285E0,1.138984442E0,2.982767820E-1
3.999745344E1,2.252329826E0,4.172733128E-1,1.179318950E-1
4.001745344E1,3.210323811E0,-3.836757243E-1,-1.641133130E-1
4.003745344E1,3.389569044E0,-4.985882044E-1,4.316199198E-2
4.005745500E1,3.403043032E0,-1.701696068E-1,4.617094100E-1
4.007945500E1,3.278758049E0,3.081204295E-1,7.525685430E-1
4.010145500E1,2.652708530E0,2.093452692E0,8.103738427E-1
4.012345344E1,1.725746632E0,3.861558437E0,8.878489733E-1
4.014345500E1,8.476017118E-1,3.408627987E0,1.063621044E0
4.016545500E1,6.535909176E-1,8.596619368E-1,1.435096979E0
4.018745500E1,9.810146689E-1,-1.889406204E0,1.601915598E0
4.020945500E1,6.620033979E-1,-3.458369970E0,1.104182601E0
4.022945500E1,-5.571265221E-1,-4.492582321E0,-3.591712952E0
4.024945500E1,-7.546105385E-1,-4.009614468E0,-3.388434649E0
4.026945500E1,-5.588195324E-1,-1.621812344E0,-1.019883156E0
4.028945500E1,-6.658779979E-1,-6.032730341E-1,3.320436478E0
4.030946750E1,-5.587322712E-1,2.669149399E0,4.150934219E0
4.033145500E1,1.398008764E-1,3.024184227E0,3.533628464E0
4.035146594E1,1.887399107E-1,-5.783323050E-1,1.862545609E0
4.037345344E1,-1.235396385E0,-4.315134525E0,-3.802374303E-1
4.039345344E1,-2.150769234E0,-5.304003239E0,-7.322179675E-1
4.041345500E1,-2.439795732E0,-5.325558186E0,-1.938188076E-1
4.043545344E1,-2.365619183E0,-4.759478092E0,-1.828406900E-1
4.045545344E1,-2.190213680E0,-4.217658043E0,-5.394812822E-1
4.047545500E1,-6.586174369E-1,-6.444401264E0,-7.962192297E-1
4.049745344E1,3.695909083E-1,-8.327017784E0,-3.984586522E-2
4.051746281E1,-5.937610194E-2,-4.894339561E0,1.300636768E0
4.053945344E1,-5.261120200E-1,1.278191924E0,1.685220122E0
4.055946750E1,-6.930876970E-1,5.037194729E0,8.504116535E-1
4.058145344E1,1.027998887E-2,5.795243740E0,-4.084593952E-1
4.060146125E1,6.575527787E-1,3.725754261E0,-1.010440946E0
4.062349406E1,1.458536744E0,-2.679167747E0,-1.717561007E0
4.064545344E1,9.148666859E-1,-8.117980003E0,-1.485118151E0
4.066545344E1,-8.794190288E-1,-8.288236618E0,-1.256637096E0
4.068545344E1,-1.776430964E0,-1.897295117E0,-5.658357143E-1
4.070545344E1,-8.094139099E-1,-2.157226950E-1,6.899286509E-1
4.072546125E1,-1.019621342E-1,-1.780270696E0,8.281587362E-1
4.074745344E1,3.778637946E-1,-2.219622374E0,6.207088828E-1
4.076746438E1,3.297101557E-1,-2.217336178E0,5.147848725E-1
4.078945500E1,-2.446951568E-1,-1.918081880E0,4.957258701E-1
4.080946438E1,-1.369507551E0,-1.103222609E0,9.072396159E-1
4.083146125E1,-1.443526864E0,-1.470789015E-1,7.749959826E-1
4.085345500E1,-3.719296679E-2,6.402216554E-1,4.143760800E-1
4.087546281E1,1.134167314E0,6.721786261E-1,4.406083822E-1
4.089745344E1,1.074302554E0,3.276332021E-1,1.437976807E-1
4.091746281E1,5.167745352E-1,-2.045525908E-1,3.673918173E-2
4.093945500E1,-6.511823088E-2,-5.583133698E-1,-6.110397726E-2
4.095945500E1,-2.132792324E-1,-3.427128494E-1,-1.912706345E-1
4.097945500E1,7.562511414E-2,-5.799729005E-2,-2.917317748E-1
4.099945500E1,4.398753345E-1,-1.243372560E-1,-3.112096488E-1
4.102145344E1,4.220904112E-1,-7.216238379E-1,-1.760513633E-1
4.104145500E1,9.382890165E-2,-1.503653526E0,5.592034757E-2
4.106346594E1,-2.371204346E-1,-1.483058572E0,1.779537648E-1
4.108545500E1,-3.167947233E-1,-6.692115664E-1,4.405909181E-1
4.110745344E1,-1.852317899E-1,-1.039518118E-1,7.692887783E-1
4.112745344E1,-3.656464815E-2,-8.447393775E-3,7.029313445E-1
4.114745344E1,2.554638386E-1,-1.843765825E-1,3.541796505E-1
4.116745344E1,6.564357877E-1,-4.787612557E-1,7.300712168E-2
4.118745500E1,8.902400732E-1,-8.698197603E-1,-4.368559271E-2
4.120945500E1,8.336390853E-1,-1.117499352E0,-8.314748853E-2
4.122945500E1,6.489657760E-1,-1.091336966E0,-8.524188399E-2
4.125146125E1,5.305277109E-1,-9.438915253E-1,4.096287861E-2
4.127146125E1,4.898091853E-1,-9.289515018E-1,2.214822769E-1
4.129345344E1,4.735776484E-1,-1.036010027E0,3.744952977E-1
4.131345344E1,4.726002514E-1,-1.201781392E0,4.271693230E-1
4.133345344E1,3.843738735E-1,-1.336084485E0,4.255985320E-1
4.135345344E1,1.963495463E-1,-1.352368355E0,3.895225823E-1
4.137345344E1,1.762782573E-3,-1.198727012E0,2.991494238E-1
4.139345344E1,-4.042182490E-2,-8.078954816E-1,2.225294858E-1
4.141345500E1,1.063778177E-1,-5.234416723E-1,2.294584364E-1
4.143545813E1,3.578448594E-1,-5.115211010E-1,2.287777513E-1
4.145745344E1,5.695183873E-1,-7.202101350E-1,2.027025372E-1
4.147746125E1,6.437646747E-1,-7.918558717E-1,2.030166984E-1
