"Time (s)","Linear Acceleration x (m/s^2)","Linear Acceleration y (m/s^2)","Linear Acceleration z (m/s^2)"
5.975000000E-3,2.317999899E-1,-8.324999809E-1,-6.660999656E-1
2.597500000E-2,-4.447000027E-1,-3.436999917E-1,-8.054999709E-1
4.598437500E-2,-5.228999853E-1,-2.334999889E-1,-1.321499944E0
7.597500000E-2,-2.199999988E-1,-6.619999558E-2,-1.037999988E-1
9.597968800E-2,1.793999970E-1,-2.950000018E-2,-1.198999956E-1
1.259734380E-1,3.068999946E-1,3.574000001E-1,-5.385999680E-1
1.459843750E-1,4.506999850E-1,-7.389999926E-2,-1.807899952E0
1.759734380E-1,8.465999961E-1,-2.563000023E-1,-1.508199930E0
1.959781250E-1,9.217000008E-1,-1.212700009E0,-1.350700021E0
2.259734380E-1,3.643100023E0,-7.540000081E-1,-1.066699982E0
2.459750000E-1,4.402100086E0,-3.700999916E-1,2.501699924E0
2.759750000E-1,4.288599968E0,2.716999948E-1,5.317299843E0
2.959859380E-1,3.924899817E0,3.147099972E0,1.298599958E0
3.259734380E-1,-1.504899979E0,-5.977200031E0,-9.965799332E0
3.459843750E-1,-3.707199812E0,-2.729099989E0,-1.008659935E1
3.759734380E-1,5.173599720E0,-3.743199825E0,-5.111599922E0
3.959828130E-1,6.037999988E-1,-8.851000071E-1,1.886009979E1
4.259734380E-1,-3.225999773E-1,-1.021500015E1,2.780299902E0
4.459843750E-1,-5.406999588E-1,-1.696200013E0,-1.165499926E0
4.759734380E-1,3.758199930E0,-8.544999957E-1,5.351099968E0
4.959781250E-1,3.330499887E0,-6.827999949E-1,2.962899923E0
5.259750000E-1,-1.837000012E0,9.465000033E-1,-5.436599731E0
5.459859380E-1,-1.800300002E0,1.320299983E0,-1.230999947E1
5.759750000E-1,-9.163999557E-1,1.982099891E0,-1.812520027E1
5.959781250E-1,-4.014400005E0,-2.733899832E0,-1.439479923E1
6.259734380E-1,-3.801599979E0,-6.694999695E0,-8.549300194E0
6.459765630E-1,-1.570500016E0,-8.154799461E0,-4.693799973E0
6.759750000E-1,3.463799953E0,-1.185039997E1,1.805000007E-1
7.059734380E-1,8.687500000E0,-1.054369926E1,1.386520004E1
7.259734380E-1,1.209879971E1,-8.246500015E0,1.666139984E1
7.459734380E-1,1.556049919E1,-8.427299500E0,1.143429947E1
7.659734380E-1,1.803089905E1,-7.956299782E0,6.394099712E0
7.859734380E-1,2.177629852E1,-5.312399864E0,6.050299644E0
8.059734380E-1,2.251999855E1,-6.620999575E-1,6.398200035E0
8.259734380E-1,1.991219902E1,1.127499938E0,2.544199944E0
8.459734380E-1,1.567329979E1,1.253799915E0,-4.999399662E0
8.659734380E-1,1.161100006E1,2.376799822E0,-5.905200005E0
8.859750000E-1,1.070889950E1,2.165099859E0,1.202199936E0
9.159734380E-1,7.437699795E0,3.330199957E0,2.657500029E0
9.359734380E-1,3.358399868E0,4.693900108E0,4.109999835E-1
9.559750000E-1,3.084300041E0,5.087500095E0,2.799299955E0
9.859734380E-1,-4.691800117E0,1.225099921E0,3.185099840E0
1.005973438E0,-1.426760006E1,-5.760999918E-1,-1.604800034E1
1.025975000E0,-9.254799843E0,-3.088999987E0,-5.615200043E0
1.055975000E0,4.069999978E-2,2.993399858E0,-2.468299866E0
1.075978125E0,7.448999882E-1,2.694999874E-1,-3.867999911E-1
1.105973438E0,-4.723999798E-1,-3.726399899E0,4.688600063E0
1.125973438E0,-4.252299786E0,-3.851499796E0,8.090600014E0
1.145975000E0,6.103899956E0,3.865899801E0,1.047609997E1
1.165975000E0,3.143000007E-1,7.960000038E-1,1.392459965E1
1.185989063E0,-1.571999937E-1,-2.021100044E0,9.941999435E0
1.215973438E0,-3.789299965E0,-5.694299698E0,-3.013999939E0
1.235987500E0,-5.509399891E0,-7.156499863E0,-6.263599873E0
1.265973438E0,-2.430500031E0,-9.591400146E0,-1.153299928E0
1.285981250E0,-1.083999947E-1,-7.625199795E0,-7.418999672E-1
1.315975000E0,1.461300015E0,-2.342499971E0,8.363900185E0
1.335976563E0,-4.012099743E0,-3.013299942E0,-6.366999745E-1
1.365973438E0,-2.639099836E0,1.158800006E0,-3.628599882E0
1.385978125E0,-1.322999954E0,7.956999540E-1,1.358879948E1
1.415973438E0,2.969099998E0,3.523099899E0,6.518099785E0
1.435979688E0,4.210599899E0,7.288999557E-1,-2.357299995E1
1.465973438E0,1.974699974E0,4.768199921E0,-1.082380009E1
1.485975000E0,-7.855299950E0,7.019000053E-1,9.111000061E0
1.515973438E0,-2.005199909E0,-1.181599975E0,2.820699930E0
1.535982813E0,2.062999904E-1,-2.277999967E-1,-1.967899919E0
1.565973438E0,1.588799953E0,-1.378499985E0,-5.186899662E0
1.585981250E0,1.650799990E0,-1.487200022E0,-1.522599936E0
1.615973438E0,3.511099815E0,1.684299946E0,-2.822399855E0
1.635982813E0,3.426100016E0,4.210999906E-1,-3.852699995E0
1.665975000E0,1.259799957E0,-9.849999547E-1,-6.614399910E0
1.695973438E0,-3.290099859E0,-4.542399883E0,-6.476899624E0
1.715973438E0,-4.904099941E0,-5.431600094E0,-2.975199938E0
1.735978125E0,-2.654399872E0,-7.926399708E0,9.762199402E0
1.765973438E0,1.513599992E0,-5.713999867E-1,3.961199999E0
1.785978125E0,2.334300041E0,-7.277999520E-1,2.887099981E0
1.815975000E0,-1.413599968E0,-9.399999678E-2,-2.192999840E0
1.845973438E0,-2.150399923E0,2.301499844E0,1.826999933E-1
1.865973438E0,-5.710199833E0,2.296200037E0,5.405600071E0
1.885975000E0,-6.348700047E0,1.360799909E0,6.003900051E0
1.915973438E0,-2.569299936E0,2.402099848E0,2.758199930E0
1.935973438E0,-2.516599894E0,4.152400017E0,1.993399978E0
1.955975000E0,-3.950500011E0,4.143599987E0,3.023599863E0
1.985973438E0,-3.417500019E0,4.367199898E0,5.049599648E0
2.005973438E0,-1.969399929E0,2.411299944E0,3.293200016E0
2.025975000E0,5.289999843E-1,2.426399946E0,2.024899960E0
2.055973438E0,1.426999927E0,1.240899920E0,3.188000023E-1
2.075973438E0,5.737999678E-1,1.508999944E0,-9.519999623E-1
2.095975000E0,2.824999988E-1,1.124099970E0,-1.601799965E0
2.125978125E0,-1.379999984E-2,1.534500003E0,-1.143399954E0
2.155973438E0,6.469999552E-1,1.472499967E0,1.942099929E0
2.175981250E0,9.912999868E-1,2.041399956E0,1.110899925E0
2.205973438E0,8.411999941E-1,2.893299818E0,-3.349999905E0
2.225987500E0,2.375999928E0,3.357699871E0,-4.601999760E0
2.255973438E0,4.099400043E0,1.866299987E0,6.439799786E0
2.275979688E0,1.360599995E0,8.892999887E-1,2.787999868E0
2.305973438E0,-2.818099976E0,-2.102699995E0,6.826099873E0
2.325978125E0,-5.378000140E-1,-3.156999946E-1,-2.255100012E0
2.355973438E0,-3.752099991E0,-3.783999920E0,-1.501299977E0
2.375982813E0,-2.463399887E0,-2.342099905E0,-1.972499967E0
2.405973438E0,-9.422999620E-1,3.297399998E0,-2.253200054E0
2.425981250E0,-1.911999941E0,5.108200073E0,7.310999632E-1
2.455973438E0,-1.726899981E0,6.914700031E0,-2.827000022E-1
2.475978125E0,-2.725600004E0,-1.507499933E0,-3.103999794E-1
2.505973438E0,-9.797200203E0,-2.543109894E1,6.823899746E0
2.525987500E0,-6.600199699E0,-1.157319927E1,2.693699837E0
2.555973438E0,8.125000000E-1,2.063600063E0,-1.268499970E0
2.575976563E0,1.571999937E-1,5.589799881E0,-2.296799898E0
2.605973438E0,1.900999904E0,1.488799930E0,-2.237299919E0
2.625984375E0,2.731400013E0,-6.620999575E-1,-3.551000059E-1
2.655973438E0,3.034199953E0,-1.561199903E0,4.752699852E0
2.675982813E0,-2.633000016E-1,5.846999884E-1,4.887399673E0
2.705973438E0,-2.043400049E0,5.605999827E-1,-4.696999788E-1
2.725973438E0,-2.572999954E0,1.853999943E-1,-2.119499922E0
2.745973438E0,-2.927500010E0,-2.203999907E-1,-1.858699918E0
2.765973438E0,-3.249599934E0,2.400000021E-2,1.738299966E0
2.785973438E0,-2.648799896E0,-2.656999826E-1,4.736899853E0
2.805973438E0,-1.744199991E0,1.230999976E-1,5.815799713E0
2.825973438E0,-2.522199869E0,2.999999933E-2,4.049999714E0
2.845973438E0,-4.325099945E0,-3.057000041E-1,2.618099928E0
2.865973438E0,-6.517799854E0,-8.797000051E-1,2.200599909E0
2.885975000E0,-7.916899681E0,-2.410199881E0,1.860599995E0
2.915973438E0,-8.084300041E0,-6.537999630E0,4.677099705E0
2.935973438E0,-7.206899643E0,-9.766099930E0,6.408999920E0
2.955975000E0,-8.386199951E0,-9.133699417E0,1.028709984E1
2.985973438E0,-1.595299959E0,-5.059999943E0,3.367599964E0
3.005973438E0,5.198599815E0,-1.949000001E0,-7.019599915E0
3.025975000E0,5.244400024E0,2.072999924E-1,-1.007269955E1
3.055975000E0,1.146700025E0,-2.016299963E0,2.200099945E0
3.075975000E0,2.518999875E-1,-4.086599827E0,8.586199760E0
3.095975000E0,2.206599951E0,-2.359699965E0,1.398699999E0
3.125973438E0,3.198499918E0,1.415199995E0,-4.858200073E0
3.145975000E0,2.911999941E0,2.839799881E0,-4.189799786E0
3.165975000E0,3.063299894E0,3.886899948E0,-3.743999958E0
3.195973438E0,3.097499847E0,4.048099995E0,-3.690299988E0
3.215975000E0,3.570899963E0,4.156199932E0,-4.124399662E0
3.245975000E0,4.893099785E0,5.026199818E0,-3.041100025E0
3.265984375E0,5.592700005E0,6.443500042E0,-7.774999738E-1
3.295973438E0,1.424700022E0,4.132999897E0,4.912399769E0
3.315982813E0,-3.904299974E0,7.079999894E-2,7.756000042E0
3.345973438E0,-9.261599541E0,-9.030699730E0,7.742899895E0
3.365989063E0,-9.253299713E0,-9.231200218E0,1.448069954E1
3.395975000E0,3.466099977E0,6.036999822E-1,-1.117359924E1
3.415985938E0,8.205699921E0,-3.647199869E0,-1.092689991E1
3.445973438E0,2.905499935E0,-1.976499915E0,-9.442399979E0
3.465976563E0,2.063600063E0,-5.916999578E-1,-9.534999847E0
3.495973438E0,3.196799994E0,-9.182999730E-1,-5.312599659E0
3.515978125E0,2.647199869E0,1.509499907E0,-2.914700031E0
3.545973438E0,2.277999878E0,1.062799931E0,-5.288999677E-1
3.565978125E0,6.931200027E0,-1.079999954E-1,1.142619991E1
3.595975000E0,3.424199820E0,1.166999936E-1,1.783999920E0
3.615985938E0,3.379999995E-1,-4.305999875E-1,-6.823599815E0
3.645973438E0,-2.801499844E0,2.931999862E-1,-7.447399616E0
3.665982813E0,-3.777299881E0,6.818000078E-1,-3.217999935E-1
3.696015625E0,-6.184999943E0,3.129999936E-1,6.236599922E0
3.725973438E0,-2.067999840E0,-3.664000034E-1,2.765100002E0
3.745975000E0,-3.887999952E-1,-4.546999931E-1,2.171000004E0
3.765985938E0,-1.420400023E0,-1.150399923E0,5.232399940E0
3.795973438E0,-1.912400007E0,-1.588599920E0,6.994899750E0
3.815975000E0,-2.561399937E0,-2.448299885E0,8.924799919E0
3.845973438E0,-2.169600010E0,-6.531399727E0,9.846599579E0
3.865973438E0,3.641999960E-1,-8.166099548E0,2.270699978E0
3.885975000E0,3.833499908E0,-5.517600060E0,-6.649299622E0
3.915973438E0,3.601899862E0,-4.385900021E0,-9.320899963E0
3.935973438E0,2.053599834E0,-6.422999859E0,-7.045499802E0
3.955975000E0,-1.271099925E0,-3.636699915E0,-1.461300015E0
3.985973438E0,-8.768999577E-1,-3.421999812E-1,2.310499907E0
4.005973438E0,1.765699983E0,1.688199997E0,-3.560499907E0
4.025973438E0,3.133100033E0,2.955600023E0,-6.097399712E0
4.045973438E0,3.562899828E0,3.586299896E0,-5.295799732E0
4.065973438E0,4.004300117E0,3.921299934E0,-4.797100067E0
4.085973438E0,3.786999941E0,4.692999840E0,-4.945899963E0
4.105973438E0,3.564499855E0,5.659499645E0,-4.894899845E0
4.125973438E0,4.030399799E0,5.944200039E0,-5.417799950E0
4.145973438E0,4.193099976E0,5.668399811E0,-5.570499897E0
4.165975000E0,3.250900030E0,4.767899990E0,-3.330899954E0
4.195973438E0,-4.022999763E0,-9.664999843E-1,1.489449978E1
4.215973438E0,-1.503709984E1,-1.235179996E1,1.398919964E1
4.235973438E0,-2.019599915E0,-1.111870003E1,-1.001029968E1
4.255973438E0,6.369199753E0,-7.356799603E0,-6.720299721E0
4.275975000E0,7.921000004E0,-3.059499979E0,-4.494499683E0
4.305973438E0,1.292079926E1,3.674499989E0,-1.181900024E0
4.325973438E0,6.662499905E0,1.356799960E0,-3.023999929E-1
4.345973438E0,2.293599844E0,-4.851999879E-1,-5.033400059E0
4.365973438E0,-7.157999873E-1,-1.917299986E0,-7.438299656E0
4.385975000E0,-3.165999889E0,-3.325599909E0,-8.130700111E0
4.415973438E0,-7.055599689E0,-2.423399925E0,1.222899914E0
4.435973438E0,-3.092599869E0,3.907999992E-1,-2.017899990E0
4.455975000E0,-1.039299965E0,4.357999861E-1,-9.154999852E-1
4.485973438E0,1.719299912E0,6.889999658E-2,9.366999865E-1
4.505973438E0,3.290099859E0,9.217000008E-1,1.374099970E0
4.525975000E0,2.902400017E0,5.698999763E-1,1.209200025E0
4.555975000E0,4.488999844E-1,4.979999736E-2,9.373999834E-1
4.575975000E0,-2.750999928E-1,4.745999873E-1,-4.180999994E-1
4.595975000E0,-1.411199927E0,2.996999919E-1,-1.897099972E0
4.625973438E0,-2.116400003E0,7.815999985E-1,-3.237499952E0
4.645975000E0,-1.597299933E0,1.635499954E0,-2.323400021E0
4.665975000E0,-1.367100000E0,1.736999899E-1,2.093999982E-1
4.685975000E0,-9.855999947E-1,-2.290699959E0,2.117100000E0
4.715973438E0,-8.463999629E-1,-2.892499924E0,4.625899792E0
4.735973438E0,-2.168400049E0,-4.605999947E0,4.854000092E0
4.755973438E0,-1.637099981E0,-3.806799889E0,2.145400047E0
4.775973438E0,1.047799945E0,-2.189899921E0,-1.954800010E0
4.795973438E0,6.491499901E0,-2.296099901E0,9.289999604E-1
4.815975000E0,1.055459976E1,-4.223999977E0,8.693900108E0
4.845975000E0,5.596899986E0,-2.727099895E0,4.424499989E0
4.875973438E0,1.092000008E0,8.363999724E-1,-5.610499859E0
4.895975000E0,-1.739699960E0,1.697699904E0,-9.344900131E0
4.925973438E0,-5.626599789E0,1.947699904E0,-8.602600098E0
4.945973438E0,-6.959599972E0,2.015599966E0,-1.081040001E1
4.965975000E0,-6.254600048E0,2.186599970E0,-1.081629944E1
4.995973438E0,-1.378700018E0,3.690999985E0,-7.928999901E0
5.015973438E0,6.513000131E-1,4.425300121E0,-5.890999794E0
5.035973438E0,1.138299942E0,4.377900124E0,-4.576900005E0
5.055973438E0,3.966999948E-1,3.557399988E0,-1.859599948E0
5.075975000E0,-1.664000005E-1,1.785899997E0,6.028199673E0
5.095975000E0,-4.993299961E0,-3.407099962E0,7.602499962E0
5.125973438E0,-7.432000041E-1,-1.488490009E1,-9.041399956E0
5.145975000E0,7.099599838E0,-1.023320007E1,-2.456500053E0
5.165975000E0,8.959400177E0,-7.162999630E0,2.286960030E1
5.195975000E0,2.016999960E0,1.369899988E0,-1.110989952E1
5.225973438E0,2.019999921E-2,6.640299797E0,-1.262209988E1
5.245975000E0,-2.081300020E0,2.899999857E0,-9.422000051E-1
5.275973438E0,-7.325899601E0,-3.417199850E0,-3.475099802E0
5.295973438E0,-9.134099960E0,-2.197700024E0,6.607999802E-1
5.315975000E0,-7.584899902E0,9.560999870E-1,2.623499870E0
5.345973438E0,-3.861999810E-1,1.657499909E0,9.468999505E-1
5.365973438E0,3.723899841E0,1.454899907E0,5.579000115E-1
5.385973438E0,2.350199938E0,-6.760999560E-1,3.969999850E-1
5.405973438E0,-1.099300027E0,-1.089699984E0,1.722899914E0
5.425973438E0,-4.761300087E0,-4.111999869E-1,-6.294999719E-1
5.445973438E0,-6.873299599E0,1.239999942E-2,1.533999890E-1
5.465973438E0,-7.626499653E0,-2.629999816E-1,2.607399940E0
5.485973438E0,-5.902899742E0,-5.579999685E-1,2.672899961E0
5.505973438E0,-3.701399803E0,-5.528999567E-1,1.263700008E0
5.525975000E0,-2.220200062E0,-7.447999716E-1,-2.275999933E-1
5.555973438E0,-8.370000124E-2,-9.257999659E-1,1.341899991E0
5.575973438E0,-2.026999891E-1,-2.400799990E0,5.096199989E0
5.595975000E0,-1.941199899E0,-3.592999935E0,8.856100082E0
5.625973438E0,-3.645599842E0,-7.154299736E0,3.836399794E0
5.645973438E0,-3.174999952E0,-5.566499710E0,-2.028999925E-1
5.665975000E0,-1.479799986E0,-2.913499832E0,-3.422600031E0
5.685975000E0,6.193000078E-1,-8.363999724E-1,-7.734899998E0
5.715973438E0,3.233000040E-1,-9.975999594E-1,-5.809700012E0
5.735973438E0,-8.587999940E-1,-2.001100063E0,-4.117399693E0
5.755973438E0,-1.810599923E0,-9.499999695E-3,-5.880099773E0
5.775973438E0,-2.471799850E0,1.683200002E0,-4.690499783E0
5.795973438E0,-2.653699875E0,2.825099945E0,-4.817899704E0
5.815975000E0,-1.674299955E0,3.202499866E0,-6.779399872E0
5.845973438E0,1.068400025E0,2.549999952E0,-7.755899906E0
5.865973438E0,2.013200045E0,2.082399845E0,-7.868999958E0
5.885975000E0,1.842899919E0,2.123999834E0,-8.582799911E0
5.915973438E0,5.109999776E-1,2.151299953E0,-9.815899849E0
5.935973438E0,-2.989999950E-2,9.989999980E-2,-1.193330002E1
5.955973438E0,1.106199980E0,-2.463099957E0,-1.255109978E1
5.975973438E0,2.503599882E0,-5.215300083E0,-8.832799911E0
5.995973438E0,4.093699932E0,-6.234699726E0,-4.045899868E0
6.015973438E0,7.849599838E0,-6.805799961E0,-8.463000059E-1
6.035975000E0,1.802569962E1,-1.269049931E1,2.564699888E0
6.055975000E0,3.065839958E1,5.880999565E-1,1.024909973E1
6.075976563E0,1.348159981E1,4.754099846E0,4.636600018E0
6.105973438E0,-3.282699823E0,-2.343499899E0,-2.428400040E0
6.125973438E0,-9.451700211E0,-6.710199833E0,-6.641599655E0
6.145975000E0,-1.623519897E1,-7.192800045E0,-7.752999663E-1
6.175973438E0,-1.440929985E1,4.340499878E0,-5.894199848E0
6.195973438E0,-1.495749950E1,3.413800001E0,-7.710199833E0
6.215973438E0,-1.120629978E1,-1.111500025E0,1.427000016E-1
6.235973438E0,-2.650300026E0,7.142999768E-1,-1.154799938E0
6.255973438E0,1.454999894E-1,1.690999985E0,-3.635799885E0
6.275975000E0,-5.116999745E-1,7.543999553E-1,-5.879299641E0
6.305973438E0,-1.826699972E0,-2.243700027E0,-6.676300049E0
6.325973438E0,9.549999833E-1,-9.858999848E-1,-5.301300049E0
6.345973438E0,7.921999693E-1,7.439000010E-1,-6.266900063E0
6.365973438E0,4.171499729E0,4.469999969E-1,-6.811800003E0
6.385973438E0,7.815199852E0,-1.473099947E0,8.940000087E-2
6.405973438E0,7.316199780E0,-3.606999815E-1,-9.690999985E-1
6.425973438E0,3.679899931E0,5.047000051E-1,4.150999784E-1
6.445973438E0,1.974900007E0,2.024199963E0,-1.722999960E-1
6.465975000E0,-1.061299920E0,1.618499994E0,-2.516099930E0
6.495973438E0,-2.548099995E0,-3.320299864E0,-7.360999584E-1
6.515973438E0,-2.030099869E0,-1.346799970E0,-7.925999761E-1
6.535973438E0,-1.082700014E0,2.418599844E0,5.900000036E-2
6.555973438E0,-2.553799868E0,2.254600048E0,2.690199852E0
6.575975000E0,-5.964499950E0,-5.672000051E-1,2.302500010E0
6.595975000E0,-9.939499855E0,-3.019599915E0,-7.081999779E-1
6.625973438E0,-9.225299835E0,-9.537999630E-1,4.928999841E-1
6.645973438E0,-6.587499619E0,-1.283800006E0,6.220999956E-1
6.665973438E0,-3.659299850E0,-4.252799988E0,2.003999949E-1
6.685973438E0,-3.432099819E0,-5.914799690E0,2.388999909E-1
6.705979688E0,-3.962099791E0,-5.109200001E0,-5.521999598E-1
6.735973438E0,-1.989199996E0,-2.642899990E0,-4.312999725E0
6.755973438E0,-3.105999827E-1,-2.529099941E0,-4.384699821E0
6.775973438E0,5.004000068E-1,-3.489499807E0,-3.831099987E0
6.795973438E0,2.335899830E0,-3.531699896E0,-2.676599979E0
6.815975000E0,3.981999874E0,-2.254099846E0,-1.596699953E0
6.845973438E0,8.168700218E0,-2.979999967E-2,-2.154999971E-1
6.865973438E0,9.402299881E0,2.060799837E0,4.549200058E0
6.885975000E0,6.435999870E0,4.451499939E0,6.868799686E0
6.915973438E0,5.522999763E-1,4.028800011E0,-2.563999891E-1
6.935973438E0,-1.847399950E0,2.062299967E0,-6.901999950E0
6.955975000E0,-2.520699978E0,1.485700011E0,-1.226239967E1
6.985973438E0,-2.137300014E0,3.285999894E-1,-6.190599918E0
7.005973438E0,-3.018999815E0,-6.808999777E-1,-1.618999988E-1
7.025975000E0,9.606999755E-1,-7.748999596E-1,-1.644299984E0
7.055975000E0,4.026400089E0,1.911000013E-1,-3.003899813E0
7.075975000E0,3.634699821E0,3.981999755E-1,-6.583999991E-1
7.095975000E0,3.589399815E0,-3.450999856E-1,2.487999946E-1
7.115975000E0,3.523899794E0,-8.560000062E-1,1.437899947E0
7.145975000E0,3.383100033E0,8.772999644E-1,4.832599640E0
7.175973438E0,8.626999855E-1,1.811399937E0,6.843000054E-1
7.195973438E0,-3.579999879E-2,-3.972999752E-1,-1.034169960E1
7.215973438E0,2.335000038E0,-1.360899925E1,-7.330599785E0
7.235973438E0,4.728399754E0,-1.426099968E1,-2.807999849E0
7.255973438E0,7.912999630E0,-4.482999742E-1,3.100499868E0
7.275973438E0,1.023759937E1,7.598599911E0,-1.109399915E0
7.295973438E0,6.255099773E0,4.464900017E0,-5.217000008E0
7.315975000E0,3.961099863E0,8.955000043E-1,-5.956399918E0
7.345973438E0,1.251299977E0,-1.456799984E0,-7.396899700E0
7.365973438E0,1.423399925E0,-1.536799908E0,-6.442999840E0
7.385975000E0,-1.333799958E0,-4.287999868E-1,-9.569999576E-1
7.415973438E0,-4.808999896E-1,3.565999866E-1,8.210700035E0
7.435973438E0,1.506699920E0,2.791899920E0,3.674499989E0
7.455975000E0,2.815999985E-1,1.443399906E0,-3.826599836E0
7.475975000E0,-5.151000023E-1,3.924999833E-1,-4.522999763E0
7.505973438E0,-1.156299949E0,-1.356000006E-1,2.766999900E-1
7.525975000E0,-2.566299915E0,-3.500999808E-1,1.666099906E0
7.555973438E0,-2.496199846E0,-4.459999874E-2,4.869000018E-1
7.575975000E0,-2.164000034E0,-4.409999773E-2,-9.084999561E-1
7.595975000E0,-1.761599898E0,-3.808999956E-1,-3.308999836E-1
7.625973438E0,-1.425999999E-1,-1.609499931E0,4.685199738E0
7.645973438E0,-4.059000015E-1,-1.912400007E0,6.017999649E0
7.665973438E0,-3.413499832E0,-2.223199844E0,4.040699959E0
7.685975000E0,-6.331899643E0,-1.219099998E0,2.038300037E0
7.715975000E0,-7.093099594E0,-9.271000028E-1,1.721599936E0
7.735975000E0,-6.748600006E0,-1.290300012E0,6.360399723E0
7.755975000E0,-4.538799763E0,-2.204099894E0,8.317299843E0
7.785973438E0,4.063999951E-1,-2.705999911E-1,4.550199986E0
7.805973438E0,-6.263999939E-1,-1.809899926E0,-3.462800026E0
7.825975000E0,-3.220899820E0,-7.070799828E0,-5.722899914E0
7.855973438E0,3.136999905E-1,-9.944600105E0,-1.276099920E0
7.875973438E0,4.514400005E0,-9.715600014E0,-1.369899988E0
7.895973438E0,6.147799969E0,-3.104399920E0,3.177999973E0
7.915973438E0,6.977599621E0,4.436999857E-1,9.965999722E-1
7.935973438E0,6.430899620E0,2.957899809E0,-8.642999649E0
7.955975000E0,4.418200016E0,1.528899908E0,-9.218099594E0
7.985973438E0,1.377200007E0,2.972599983E0,-3.174999952E0
8.005973438E0,8.391000032E-1,3.497399807E0,-2.020999938E-1
8.025975000E0,2.513999939E0,3.351500034E0,-1.195500016E0
8.045975000E0,3.789399862E0,3.021800041E0,-4.546899796E0
8.075975000E0,6.515799999E0,4.000599861E0,-6.531399727E0
8.095975000E0,7.849999905E0,4.773999691E0,-3.918799877E0
8.115975000E0,8.772600174E0,4.267099857E0,-2.788899899E0
8.145975000E0,7.736899853E0,1.317299962E0,4.839999974E-2
8.175975000E0,-1.136299968E0,-4.960499763E0,8.796299934E0
8.205973438E0,-5.302700043E0,-8.786600113E0,1.219749928E1
8.225975000E0,-6.677399635E0,-5.259799957E0,5.072499752E0
8.245975000E0,-7.095499992E0,-1.937699914E0,-4.253299713E0
8.275978125E0,-2.094599962E0,2.821699858E0,-1.410200000E0
8.305973438E0,4.049999714E0,-4.699999932E-3,-3.855000019E0
8.325975000E0,5.846299648E0,-6.891900063E0,-2.464699984E0
8.355973438E0,1.190689945E1,-6.708899975E0,-4.819900036E0
8.375973438E0,9.086199760E0,2.086199999E0,5.977799892E0
8.395973438E0,7.730099678E0,4.512499809E0,8.920999765E-1
8.415973438E0,6.379999638E0,3.616400003E0,-3.935099840E0
8.435973438E0,3.209199905E0,1.167199969E0,-5.391299725E0
8.455975000E0,8.449999690E-1,-1.635899901E0,-3.242100000E0
8.475975000E0,1.222599983E0,-1.465099931E0,-2.199800014E0
8.505973438E0,-1.040799975E0,-4.811999798E-1,-1.814199924E0
8.525973438E0,-4.343699932E0,-6.979999691E-2,-3.728999794E-1
8.545975000E0,-6.906599998E0,1.727000028E-1,7.337999940E-1
8.575975000E0,-7.448299885E0,1.511999965E0,1.773199916E0
8.605973438E0,-1.534999967E0,4.822999835E-1,2.313999891E0
8.625973438E0,1.435199976E0,9.202999473E-1,2.822299957E0
8.645975000E0,1.050699949E0,1.096099973E0,3.172899961E0
8.665975000E0,9.327999949E-1,1.416700006E0,4.870999813E0
8.686017188E0,1.939299941E0,1.959899902E0,5.391299725E0
8.715973438E0,6.902999878E-1,-8.329999447E-2,3.385900021E0
8.735973438E0,-1.652699947E0,-2.946099997E0,2.075799942E0
8.755973438E0,-1.707499981E0,-5.150799751E0,8.136400223E0
8.775973438E0,2.216300011E0,-4.550300121E0,1.547469997E1
8.795973438E0,1.984699965E0,-7.376699924E0,3.112799883E0
8.815975000E0,-2.915299892E0,-1.107839966E1,-6.064599991E0
8.845973438E0,2.508100033E0,-8.625999451E0,-1.390599966E0
8.865973438E0,5.663899899E0,-2.725600004E0,6.000999808E-1
8.885975000E0,5.348899841E0,6.658999920E-1,1.864599943E0
8.915973438E0,3.644899845E0,6.990000010E-1,-1.476499915E0
8.935973438E0,2.668900013E0,2.696999907E-1,-9.557999969E-1
8.955975000E0,2.679100037E0,1.650699973E0,-1.987399936E0
8.985973438E0,5.933179855E1,9.072400093E0,-1.339179993E1
9.005973438E0,-1.787500000E1,-1.102960014E1,-1.429999948E0
9.025975000E0,-3.662739944E1,-8.716099739E0,9.613900185E0
9.055975000E0,-6.255599976E0,6.237499714E0,-9.960999489E-1
9.075975000E0,3.037600040E0,8.044499397E0,-8.095600128E0
9.105973438E0,7.461400032E0,5.737599850E0,-7.097599983E0
9.125973438E0,7.579499722E0,4.149499893E0,-1.115899920E0
9.145975000E0,-1.359499931E0,-1.254499912E0,1.028870010E1
9.175975000E0,-1.081069946E1,-5.765999794E0,5.079099655E0
9.205973438E0,-9.801300049E0,-1.626799941E0,2.237299919E0
9.225973438E0,-1.043900013E0,4.011600018E0,-7.020799637E0
9.245975000E0,7.722799778E0,2.135999918E0,-7.148699760E0
9.275973438E0,3.678999841E-1,-1.919269943E1,2.322299957E0
9.295973438E0,8.827699661E0,-6.798399925E0,-2.715299845E0
9.315975000E0,9.145099640E0,7.892299652E0,3.105999947E0
9.335975000E0,7.102699757E0,8.293600082E0,-4.502500057E0
9.355978125E0,8.172100067E0,1.957699895E0,-2.914000034E0
9.385975000E0,2.825099945E0,-3.685199976E0,4.567999840E-1
9.415973438E0,-4.147999883E-1,-1.490899920E0,-3.226500034E0
9.435973438E0,-7.741000056E-1,4.274999797E-1,-4.504399776E0
9.455975000E0,-3.155200005E0,1.479300022E0,5.993999839E-1
9.475975000E0,-6.737999916E0,1.037599921E0,3.986999989E0
9.505973438E0,-2.691299915E0,2.387799978E0,1.856699944E0
9.525975000E0,-1.479000002E-1,2.204999924E0,3.076599836E0
9.545975000E0,7.329999655E-2,1.913599968E0,2.146899939E0
9.565984375E0,-9.085999727E-1,2.130800009E0,1.237399936E0
9.595973438E0,-2.121199846E0,2.282199860E0,4.354199886E0
9.615975000E0,-2.495999932E-1,5.638999939E-1,2.517999887E0
9.645973438E0,-2.048799992E0,-3.246699810E0,-6.955699921E0
9.665973438E0,-6.554599762E0,-1.000029945E1,2.300600052E0
9.685973438E0,-8.623999596E0,-7.600100040E0,6.450999737E0
9.705973438E0,-7.473299980E0,-1.209210014E1,6.311199665E0
9.725973438E0,-1.589599967E0,-9.009699821E0,1.401000023E0
9.745975000E0,6.846299648E0,-4.680999756E0,5.627199650E0
9.775973438E0,1.151209927E1,2.492699862E0,7.160999775E-1
9.795973438E0,9.882899284E0,3.987399817E0,5.709999800E-2
9.815973438E0,7.228799820E0,2.411799908E0,-1.323699951E0
9.835973438E0,4.410099983E0,2.227399826E0,-2.817699909E0
9.855973438E0,1.920399904E0,2.712100029E0,-2.022799969E0
9.875975000E0,2.044999897E-1,2.849499941E0,-2.388700008E0
9.895975000E0,5.318999887E-1,3.261600018E0,-3.209599972E0
9.925973438E0,2.399600029E0,4.668399811E0,-2.648999929E0
9.945973438E0,2.902799845E0,5.340899944E0,-2.273099899E0
9.965973438E0,2.805599928E0,5.338999748E0,-1.880299926E0
9.985973438E0,2.069000006E0,4.831899643E0,-1.458299994E0
1.000597344E1,6.212999821E-1,3.444099903E0,-1.007499933E0
1.002597500E1,-1.007099986E0,1.386799932E0,7.518000007E-1
1.005597344E1,-4.549299717E0,-2.302999973E0,7.204399586E0
1.007597500E1,-6.434099674E0,-4.391599655E0,8.769899368E0
1.010597344E1,-6.570399761E0,-1.005800009E0,4.199999869E-1
1.012597344E1,-4.685299873E0,-3.129999936E-1,-1.201699972E0
1.014597500E1,-1.838899970E0,-1.381739998E1,-1.939499974E0
1.017597344E1,1.119899940E1,-1.498589993E1,7.009999454E-2
1.019597344E1,1.286030006E1,-9.848999977E-1,2.121299982E0
1.021597344E1,1.354069996E1,7.585700035E0,3.405299902E0
1.023597500E1,8.791600227E0,7.988999844E0,-4.176999927E-1
1.026597344E1,3.534999847E0,7.173599720E0,-6.402599812E0
1.028597344E1,3.758299828E0,1.639499903E0,-4.354000092E0
1.030597344E1,3.082799911E0,-3.464099884E0,-4.324899673E0
1.032597344E1,2.995299816E0,-4.070499897E0,-4.390500069E0
1.034597344E1,1.235399961E0,-1.021399975E0,-2.238100052E0
1.036597344E1,-3.129099846E0,-7.378999591E-1,3.099799871E0
1.038597344E1,-4.423500061E0,-5.279999971E-2,4.063899994E0
1.040597344E1,-4.474800110E0,3.524999917E-1,2.598099947E0
1.042597344E1,-2.724499941E0,2.996000051E-1,-9.827999473E-1
1.044597344E1,-4.370999932E-1,7.627999783E-1,-1.620599985E0
1.046597344E1,7.348999977E-1,7.383999825E-1,-2.823999822E-1
1.048597344E1,1.322299957E0,-2.489999868E-2,1.089499950E0
1.050598125E1,5.058999658E-1,-1.425999999E-1,1.827299953E0
1.053597344E1,-8.460999727E-1,9.440000057E-1,1.924600005E0
1.055597344E1,-1.691999912E0,7.006999850E-1,9.657999873E-1
1.057597500E1,-2.848999977E0,-1.110999957E-1,-1.034999967E0
1.060597344E1,-2.857899904E0,-8.883000016E-1,3.243999779E-1
1.062597344E1,-2.714000046E-1,7.820999622E-1,1.279999971E0
1.064597344E1,1.263099909E0,1.005399942E0,9.614999890E-1
1.066597344E1,8.470999599E-1,4.244999886E-1,1.221999973E-1
1.068597500E1,4.820000008E-2,-1.030000020E-2,1.002799988E0
1.071597344E1,-3.528499842E0,-2.669199944E0,3.885099888E0
1.073597344E1,-5.226900101E0,-5.925699711E0,4.452199936E0
1.075597344E1,-4.877599716E0,-6.737599850E0,5.730400085E0
1.077597344E1,-3.941099882E0,-4.901299953E0,3.566099882E0
1.079597344E1,-3.375200033E0,-3.740499973E0,1.993499994E0
1.081597344E1,-2.000299931E0,-2.645599842E0,1.331799984E0
1.083597344E1,1.193300009E0,-2.133100033E0,-7.667999864E-1
1.085597344E1,3.734299898E0,-1.942399979E0,-4.132800102E0
1.087597344E1,3.412799835E0,-3.708899975E0,-6.006499767E0
1.089597344E1,3.888000011E0,-4.503699780E0,-5.100699902E0
1.091597344E1,4.639100075E0,-2.410799980E0,-4.376399994E0
1.093597344E1,3.795099974E0,-2.300000004E-2,-2.812099934E0
1.095597500E1,3.200299978E0,-2.833999991E-1,-1.200899959E0
1.098597344E1,3.670699835E0,-4.089999944E-2,-4.831299782E0
1.100597344E1,3.738499880E0,5.331000090E-1,-5.456699848E0
1.102597500E1,3.708400011E0,1.295799971E0,-4.777400017E0
1.105597500E1,3.380499840E0,2.233000040E0,-4.166999817E0
1.107597500E1,3.521699905E0,2.958099842E0,-4.543200016E0
1.110597500E1,3.111599922E0,3.248399973E0,-4.924999714E0
1.113597344E1,2.638799906E0,2.307800055E0,-3.944199800E0
1.115597344E1,2.551100016E0,1.804799914E0,-3.599999905E0
1.117597500E1,2.455499887E0,1.535699964E0,-3.442999840E0
1.120597344E1,1.216699958E0,1.524500012E0,-1.625999928E0
1.122597344E1,-6.168000102E-1,-5.689999834E-2,1.953699946E0
1.124597500E1,-3.875699997E0,-3.014699936E0,1.510859966E1
1.127597344E1,-4.926699638E0,-4.864099979E0,5.969299793E0
1.129597344E1,-1.353999972E-1,-3.691999912E0,1.302799940E0
1.131597344E1,4.750299931E0,-2.448499918E0,3.052199841E0
1.133597344E1,8.194099426E0,9.870999455E-1,1.918899894E0
1.135598125E1,9.660499573E0,3.950199842E0,1.809999943E-1
1.138597500E1,8.187099457E0,9.353999496E-1,6.184999943E-1
1.140598438E1,4.166999757E-1,-4.710700035E0,-2.195799828E0
1.143597344E1,-8.499400139E0,-7.861999989E0,-8.830399513E0
1.145597500E1,-1.845899940E0,-2.319200039E0,-7.372099876E0
1.147597500E1,5.767999887E-1,1.088699937E0,-6.816299915E0
1.150597344E1,1.223199964E0,2.993000031E0,-7.264599800E0
1.152597500E1,9.975999594E-1,1.318199992E0,-7.219899654E0
1.155597344E1,9.912999868E-1,-1.207999960E-1,-3.613099813E0
1.157597344E1,1.049099922E0,1.921999902E-1,-2.652400017E0
1.159597344E1,3.636799812E0,-2.438799858E0,3.892799854E0
1.161597344E1,1.453299999E0,-1.129599929E0,1.909329987E1
1.163597344E1,-1.496799946E0,-1.301199913E0,4.210700035E0
1.165597344E1,-2.134000063E0,-9.325000048E-1,-6.226299763E0
1.167597344E1,-2.788699865E0,8.532999754E-1,-1.325819969E1
1.169597344E1,-2.732800007E0,2.010499954E0,-1.047589970E1
1.171597344E1,-4.372299671E0,2.550299883E0,-2.796299934E0
1.173597344E1,-7.319900036E0,-1.264400005E0,2.237400055E0
1.175597344E1,-5.006499767E0,-1.251799941E0,8.555999994E-1
1.177597344E1,-6.981999874E-1,-1.581599951E0,3.052500010E0
1.179597344E1,3.248199940E0,-7.310000062E-1,3.112799883E0
1.181597500E1,5.429100037E0,4.193999767E-1,3.087599993E0
1.184597344E1,3.638000011E0,-2.384999990E0,4.336400032E0
1.186597344E1,2.201499939E0,-2.879699945E0,6.931599617E0
1.188597500E1,6.274999976E-1,-2.367499828E0,9.612999916E0
1.191597344E1,6.800000072E-1,-5.182799816E0,4.000100136E0
1.193597344E1,1.917699933E0,-4.757999897E0,-5.317800045E0
1.195597500E1,2.952399969E0,-2.745199919E0,-8.378600121E0
1.198597344E1,3.766199827E0,-1.513299942E0,-6.544399738E0
1.200597344E1,2.855799913E0,-2.490999997E-1,-5.614299774E0
1.202597344E1,1.122399926E0,4.292999804E-1,-5.908599854E0
1.204597344E1,-1.108399987E0,3.226999938E-1,-5.092499733E0
1.206597344E1,-3.016299963E0,1.682999969E0,-4.869299889E0
1.208597344E1,-2.637699842E0,3.778599977E0,-5.085599899E0
1.210597500E1,-5.501999855E-1,5.303599834E0,-5.273600101E0
1.213597344E1,1.191699982E0,5.166399956E0,-7.030399799E0
1.215597344E1,7.982999682E-1,2.805500031E0,-6.027800083E0
1.217597500E1,6.197999716E-1,-2.978999913E-1,-3.707599878E0
1.220597344E1,9.834599495E0,-1.033669949E1,7.865699768E0
1.222597344E1,6.699399948E0,-8.666799545E0,5.785199642E0
1.224597500E1,6.536900043E0,-2.926599979E0,3.741400003E0
1.227597500E1,8.313399315E0,2.109999895E0,-2.796999812E-1
1.230597344E1,5.191499710E0,1.036700010E0,3.536399841E0
1.232597500E1,-1.995799899E0,-1.534299970E0,1.043200016E0
1.235597344E1,-4.650599957E0,-8.743999600E-1,-7.403399944E0
1.237597344E1,-5.416399956E0,6.614999771E-1,-8.406599998E0
1.239597344E1,-6.477099895E0,1.239499927E0,-3.075999975E0
1.241597344E1,-9.042599678E0,-1.779199958E0,3.916899920E0
1.243597344E1,-7.006199837E0,-3.508999825E0,9.375000000E-1
1.245597344E1,-2.000299931E0,-1.455599904E0,-2.137899876E0
1.247597500E1,1.062999964E0,6.768999696E-1,-3.286700010E0
1.250597344E1,2.281199932E0,1.780099988E0,-1.424799919E0
1.252597344E1,2.607300043E0,-5.799999926E-3,5.784999728E-1
1.254597344E1,3.255399942E0,-1.409600019E0,2.634799957E0
1.256597344E1,1.770499945E0,-2.960000038E-1,2.416599989E0
1.258597344E1,-3.123999834E-1,2.316999882E-1,-1.305299997E0
1.260597500E1,-1.969099998E0,8.899999782E-3,-4.293399811E0
1.263597344E1,-3.354300022E0,-3.746999800E-1,-3.218899965E0
1.265597344E1,-4.271599770E0,-7.393999696E-1,-1.169999987E-1
1.267597500E1,-4.631599903E0,-7.172999978E-1,1.421199918E0
1.270597344E1,-1.444100022E0,-5.421000123E-1,3.914999962E-1
1.272597344E1,9.770999551E-1,-6.744999886E-1,-3.099999949E-2
1.274597500E1,2.372799873E0,-4.459999874E-2,-1.034999937E-1
1.277597344E1,1.974599957E0,4.869000018E-1,-1.171000004E0
1.279597344E1,1.256199956E0,2.856999934E-1,-2.249699831E0
1.281597500E1,6.498999596E-1,-5.739999935E-2,-2.656399965E0
1.284597344E1,1.279999968E-2,-1.143000007E0,-3.804199934E0
1.286597344E1,4.449999705E-2,-1.526399970E0,-4.252200127E0
1.288597500E1,3.565999866E-1,-1.029600024E0,-4.355499744E0
1.291597344E1,1.263299942E0,6.590999961E-1,-4.148200035E0
1.293597344E1,2.007299900E0,1.795300007E0,-3.880100012E0
1.295597500E1,2.731299877E0,2.440700054E0,-2.177799940E0
1.298597344E1,1.517699957E0,-4.396999776E-1,7.694099903E0
1.300597344E1,-6.839999557E-1,-4.544300079E0,1.208860016E1
1.302597344E1,-3.400699854E0,-6.020499706E0,6.285500050E0
1.304597344E1,-5.516099930E0,-4.738299847E0,2.466799974E0
1.306597344E1,-5.054999828E0,-2.166499853E0,7.509999871E-1
1.308597344E1,-2.989399910E0,7.500999570E-1,1.793999970E-1
1.310597500E1,-6.466999650E-1,3.302099943E0,9.109999985E-2
1.313597344E1,2.054100037E0,5.741999626E0,-5.970000029E-1
1.315597344E1,5.406599998E0,6.018199921E0,7.366999984E-1
1.317597500E1,8.315099716E0,5.323800087E0,3.127999902E-1
1.320597344E1,6.062599659E0,2.086699963E0,-4.601999760E0
1.322597344E1,1.910399914E0,-3.729999959E-1,-6.948400021E0
1.324597500E1,-2.854000032E-1,-1.451900005E0,-5.209799767E0
1.327597344E1,-1.011099935E0,-1.821499944E0,-2.437899828E0
1.329597344E1,-1.464800000E0,-1.723299980E0,-1.072600007E0
1.331597500E1,-3.038100004E0,-2.001899958E0,-2.395200014E0
1.334597344E1,-3.889599800E0,-1.398999929E0,-3.555499792E0
1.336597344E1,-1.915599942E0,-1.542599916E0,-3.240000010E-1
1.338597344E1,-3.350999951E-1,-1.781199932E0,-2.129999921E-2
1.340597344E1,5.649999902E-2,-3.001399994E0,-3.331999779E-1
1.342597344E1,-1.868699908E0,-5.740299702E0,3.571699858E0
1.344597344E1,-4.194600105E0,-5.111099720E0,3.416599989E0
1.346597344E1,-4.848399639E0,-9.861999750E-1,4.089999944E-2
1.348597344E1,-2.793399811E0,2.659499884E0,2.299900055E0
1.350597344E1,1.674199939E0,4.215399742E0,5.109099865E0
1.352597344E1,5.415899754E0,4.659499645E0,2.934999943E0
1.354597344E1,3.746500015E0,1.464599967E0,-1.389500022E0
1.356597344E1,5.192999840E-1,-8.465999603E0,-2.370699883E0
1.358597344E1,-6.194099903E0,-1.053199959E1,5.907499790E0
1.360597344E1,-9.642399788E0,-2.048599958E0,1.306929970E1
1.362597344E1,-7.307600021E0,1.911799908E0,7.645499706E0
1.364597500E1,-4.809299946E0,-9.663999677E-1,-1.323699951E0
1.367601563E1,-3.132699966E0,1.712399960E0,-2.407199860E0
1.370597344E1,-4.824599743E0,2.263399839E0,2.083799839E0
1.372598125E1,-3.971799850E0,-6.164999604E-1,1.386699915E0
1.375597344E1,-9.287999868E-1,-1.330299973E0,4.575999975E-1
1.377597344E1,-9.413999915E-1,1.988999993E-1,-4.833000004E-1
1.379597344E1,-1.693399906E0,5.857999921E-1,-9.019999951E-2
1.381597500E1,-3.088099957E0,-2.579999864E-1,4.441999793E-1
1.384597344E1,-4.120100021E0,-2.994999886E-1,7.719999552E-2
1.386597344E1,-3.908699989E0,-2.398999929E-1,-1.113799930E0
1.388597500E1,-3.164000034E0,-4.332000017E-1,-1.886799932E0
1.390597500E1,-2.312500000E0,-1.952999979E-1,-2.397199869E0
1.393597344E1,-1.952899933E0,3.420999944E-1,-3.293399811E0
1.395597500E1,-2.898399830E0,-5.759999901E-2,-4.688999653E0
1.398597344E1,-4.314599991E0,-9.224999547E-1,-5.864099979E0
1.400597344E1,-4.113500118E0,-2.399999946E-1,-5.363499641E0
1.402597344E1,-3.561599970E0,4.192999899E-1,-4.952300072E0
1.404597500E1,-3.041999817E0,5.345000029E-1,-4.523900032E0
1.407597500E1,-2.073400021E0,5.961999893E-1,-4.352299690E0
1.410597500E1,3.039000034E-1,3.251000047E-1,-3.402699947E0
1.413597344E1,6.992499828E0,-5.658999681E-1,-3.191999793E-1
1.415597344E1,1.215749931E1,-7.739999890E-1,4.269299984E0
1.417597344E1,5.469199657E0,-2.042000055E0,9.065799713E0
1.419597344E1,8.576999903E-1,-2.837599993E0,6.328000069E0
1.421597344E1,-3.675999939E-1,-2.864699841E0,1.804399967E0
1.423599219E1,-8.310999870E-1,-2.057699919E0,3.824999928E-1
1.426597344E1,-3.043200016E0,-1.789599895E0,1.136899948E0
1.428598125E1,-5.059899807E0,-2.011600018E0,1.155799985E0
1.431597500E1,-1.223799944E0,1.094499946E0,-2.877699852E0
1.433598438E1,2.292999983E0,2.704699993E0,-5.460999966E0
1.436597344E1,3.050799847E0,3.710199833E0,-2.645900011E0
1.438597500E1,5.327799797E0,1.722399950E0,-5.464999676E-1
1.441597344E1,4.206699848E0,2.140999883E-1,2.341300011E0
1.443597344E1,2.153800011E0,1.832000017E-1,3.683300018E0
1.445597500E1,7.119999528E-1,6.844999790E-1,2.402400017E0
1.447597500E1,1.017999947E-1,1.333799958E0,-3.066999912E-1
1.450597344E1,-4.136999846E-1,1.684199929E0,-2.763499975E0
1.452597344E1,-6.836999655E-1,1.376999974E0,-1.978099942E0
1.454597344E1,-8.473999500E-1,7.940999866E-1,-7.797999978E-1
1.456597344E1,-6.405000091E-1,4.809999764E-1,-2.865000069E-1
1.458597344E1,-7.770999670E-1,5.521000028E-1,9.686999917E-1
1.460597500E1,-9.492999911E-1,2.189999968E-1,1.492499948E0
1.463597344E1,-3.019999899E-2,-2.225999981E-1,-8.839999884E-2
1.465597344E1,6.826999784E-1,6.430000067E-1,7.813000083E-1
1.467597500E1,1.056100011E0,1.763499975E0,3.871699810E0
1.470597344E1,6.252299786E0,-3.766999841E-1,3.971699953E0
1.472597344E1,9.971499443E0,-7.149999619E0,-2.293400049E0
1.474597500E1,8.596899986E0,-1.077829933E1,-1.738399982E0
1.477597344E1,5.100399971E0,-1.893599987E0,4.701799870E0
1.479597344E1,5.710799694E0,4.373699665E0,8.524299622E0
1.481597344E1,4.837599754E0,4.328999996E0,-1.121899962E0
1.483597344E1,4.098299980E0,5.218899727E0,-1.090320015E1
1.485597500E1,2.122599840E0,3.525599957E0,-1.193709946E1
1.487597500E1,9.794999957E-1,-4.460999966E-1,-6.087599754E0
1.489597500E1,2.038999945E-1,-2.302700043E0,-3.127099991E0
1.491597500E1,-1.298200011E0,-2.889899969E0,-1.907399893E0
1.494597344E1,3.292999864E-1,-2.768000066E-1,4.731999874E0
1.496597500E1,-6.509999633E-1,2.812999785E-1,6.302999854E-1
1.498597500E1,-1.756599903E0,5.941999555E-1,-1.712599993E0
1.501597344E1,-2.235699892E0,3.276000023E-1,-6.778999567E-1
1.503597500E1,-2.905699968E0,4.679999873E-2,-1.259000003E-1
1.505597500E1,-3.416999817E0,1.150000002E-2,-3.807999790E-1
1.507597500E1,-3.786399841E0,-8.150000125E-2,-8.277999759E-1
1.510597500E1,-2.951699972E0,-3.335999846E-1,-1.071999967E-1
1.513597344E1,-6.564999819E-1,-1.642999947E-1,5.528999567E-1
1.515597344E1,4.108999968E-1,2.104000002E-1,1.581599951E0
1.517597500E1,7.763999701E-1,6.033999920E-1,1.913399935E0
1.520597344E1,3.637000024E-1,4.846999943E-1,1.326599956E0
1.522597344E1,-5.164999962E-1,-7.090000063E-2,3.413999975E-1
1.524597500E1,-1.153599977E0,-4.919999838E-2,-3.479999900E-1
1.527597500E1,-1.733699918E0,4.820999801E-1,-5.353999734E-1
1.530597344E1,-1.480499983E0,2.549999952E-1,2.055999935E-1
1.532597500E1,-7.254999876E-1,-4.562999904E-1,7.479000092E-1
1.535597344E1,3.877999783E-1,-8.343999982E-1,1.475700021E0
1.537597344E1,3.604999781E-1,-8.396999836E-1,1.086799979E0
1.539597344E1,-1.187999994E-1,-1.174199939E0,6.372999549E-1
1.541597344E1,-5.817999840E-1,-2.067199945E0,9.223999977E-1
1.543597344E1,-1.374499917E0,-2.957799911E0,1.980999947E0
1.545597344E1,-3.078699827E0,-3.261399984E0,3.034199953E0
1.547597500E1,-5.505399704E0,-2.993299961E0,3.949800014E0
1.550597344E1,-9.363100052E0,-5.638099670E0,3.626299858E0
1.552597344E1,-8.561599731E0,-4.521199703E0,5.500799656E0
1.554597344E1,-6.046299934E0,-1.089399934E0,5.611299992E0
1.556597344E1,-5.218699932E0,7.195999622E-1,1.984799981E0
1.558597344E1,-4.989900112E0,-5.959999934E-2,-7.752000093E-1
1.560597500E1,-4.726900101E0,-1.761599898E0,-7.173499584E0
1.563597344E1,-2.131700039E0,-5.084599972E0,-2.377099991E0
1.565597344E1,-8.004999757E-1,-4.347399712E0,9.533999562E-1
1.567597500E1,2.517899990E0,-2.734799862E0,2.029999942E-1
1.570597344E1,4.566299915E0,-2.018300056E0,-1.971799970E0
1.572597344E1,2.839699984E0,-1.174199939E0,-5.420199871E0
1.574597500E1,7.342999578E-1,-4.501999915E-1,-5.742399693E0
1.577597344E1,1.058899999E0,1.014599919E0,-4.097499847E0
1.579597344E1,2.618000031E0,2.233199835E0,-3.704399824E0
1.581597500E1,4.022999763E0,3.195299864E0,-2.646899939E0
1.583597500E1,5.828899860E0,3.566299915E0,-1.230000019E0
1.586597344E1,7.298299789E0,3.899199963E0,-1.844599962E0
1.588597500E1,7.314799786E0,4.603699684E0,-1.314299941E0
1.591597344E1,4.220200062E0,4.469599724E0,7.999999523E-1
1.593597344E1,1.463099957E0,2.839499950E0,6.407999992E-1
1.595597344E1,-3.012999892E-1,-2.107999921E-1,1.560499907E0
1.597598594E1,-2.479999885E-2,-4.076099873E0,4.607500076E0
1.600597344E1,-4.580800056E0,-6.439399719E0,6.040299892E0
1.602597969E1,-7.665799618E0,-2.748600006E0,1.254999936E-1
1.605597344E1,5.228999853E-1,3.082199812E0,-1.578020000E1
1.607597500E1,5.634999752E0,-4.512000084E0,-1.009270000E1
1.610597500E1,-3.839699984E0,-1.471479988E1,5.273699760E0
1.613597344E1,4.790299892E0,8.214599609E0,-7.529299736E0
1.615597344E1,7.659499645E0,9.566299438E0,-3.958499908E0
1.617597500E1,6.123199940E0,7.255300045E0,-1.958999991E0
1.620597344E1,1.457700014E0,-4.488999844E-1,-1.097599983E0
1.622597500E1,-1.363999993E-1,-4.558799744E0,-6.771000028E-1
1.624597500E1,-1.645999908E0,-1.326200008E0,3.823099852E0
1.627597656E1,4.495999813E-1,4.015599728E0,-5.049999803E-2
1.630597344E1,4.465000033E-1,-4.919999838E-2,-3.226500034E0
1.632597344E1,-2.031999975E-1,-1.266600013E0,-1.355399966E0
1.634597344E1,-6.333000064E-1,-1.246699929E0,-6.107999682E-1
1.636597344E1,-1.353600025E0,-2.102400064E0,2.901999950E-1
1.638597500E1,-1.822499990E0,-2.095299959E0,3.297699928E0
1.640597500E1,-3.436100006E0,-2.739500046E0,8.342100143E0
1.643597344E1,-7.695099831E0,-4.768499851E0,6.228099823E0
1.645597344E1,-9.043700218E0,-5.579699993E0,1.763199925E0
1.647597344E1,-9.648599625E0,-4.174600124E0,1.283800006E0
1.649597344E1,-1.150349998E1,-4.364699841E0,3.084699869E0
1.651597344E1,-1.286909962E1,-3.560799837E0,4.282599926E0
1.653597500E1,-6.012300014E0,-1.400299907E0,3.598599911E0
1.655597500E1,7.816999555E-1,-4.460099697E0,-1.455299973E0
1.657597500E1,4.681399822E0,-8.409699440E0,-3.823999882E0
1.660597500E1,1.021369934E1,-8.577499390E0,-2.286999971E-1
1.663597344E1,7.509699821E0,-1.240399957E0,2.468899965E0
1.665597344E1,5.626100063E0,1.632599950E0,-2.925099850E0
1.667597500E1,3.035499811E0,2.752399921E0,-6.538499832E0
1.670597344E1,9.923999906E-1,3.971199989E0,-6.535699844E0
1.672597344E1,9.790999889E-1,4.834300041E0,-5.306900024E0
1.674597344E1,2.123399973E0,6.137300014E0,-5.042099953E0
1.676602031E1,2.999099970E0,7.244299889E0,-5.227999687E0
1.679597344E1,3.632900000E0,7.125799656E0,-5.536799908E0
1.681597500E1,4.505099773E0,5.093400002E0,-5.170599937E0
1.684597344E1,4.546099663E0,-7.874000072E-1,1.001500010E0
1.686597344E1,-5.359899998E0,-6.749199867E0,1.316109943E1
1.688597500E1,-1.009799957E1,-1.080980015E1,1.425719929E1
1.690597500E1,-9.274700165E0,-7.322399616E0,8.895899773E0
1.693597344E1,4.400499821E0,7.431299686E0,-1.563509941E1
1.695597344E1,8.682199478E0,4.404299736E0,-1.169139957E1
1.697597344E1,1.075479984E1,-1.053539944E1,-2.210099936E0
1.699597344E1,1.513789940E1,-2.451819992E1,-1.585099936E0
1.701597344E1,4.712100029E0,-3.871899843E0,-1.441699982E1
1.703597500E1,8.786299706E0,7.224400043E0,-7.167500019E0
1.705597500E1,1.050949955E1,1.190139961E1,6.708999872E-1
1.707597813E1,7.408799648E0,7.923299789E0,7.335399628E0
1.710597500E1,4.624999762E-1,-3.598199844E0,1.390999913E0
1.713597500E1,4.447000027E-1,-5.522999763E-1,-7.360299587E0
1.715597500E1,9.611999989E-1,2.309700012E0,-5.573699951E0
1.717597500E1,-6.649000049E-1,2.476799965E0,-3.181999922E0
1.720597500E1,-5.162799835E0,-6.610000134E-2,1.646999955E0
1.723597344E1,-6.975699902E0,-9.742999673E-1,2.487099886E0
1.725597344E1,-3.633899927E0,-1.288200021E0,6.257899761E0
1.727597344E1,1.189499974E0,-1.683599949E0,9.847299576E0
1.729597344E1,2.454999983E-1,-2.592799902E0,7.042199612E0
1.731597500E1,-7.077499866E0,-5.753599644E0,2.648499966E0
1.734597344E1,-1.338749981E1,-4.404599667E0,3.682999849E0
1.736597344E1,-1.082199955E1,-9.223999977E-1,9.113399506E0
1.738597500E1,-5.360199928E0,1.020099998E0,1.043289948E1
1.741597344E1,-8.831999898E-1,1.166499972E0,3.381399870E0
1.743597344E1,-3.171299934E0,-3.152999878E0,-7.647199631E0
1.745597344E1,-4.728899956E0,-8.506699562E0,-8.778399467E0
1.747597500E1,-6.546899796E0,-1.488799953E1,-2.770599842E0
1.750597344E1,6.862099648E0,-2.155799866E1,3.023999929E0
1.752597344E1,1.714290047E1,-1.029759979E1,1.155169964E1
1.754597344E1,1.458129978E1,-1.008000001E-1,4.721600056E0
1.756597344E1,1.239729977E1,6.623299599E0,-8.746699333E0
1.758597344E1,7.643799782E0,7.124199867E0,-1.063449955E1
1.760597500E1,3.434599876E0,7.743899822E0,-5.503099918E0
1.763597344E1,1.427299976E0,9.397799492E0,-1.738299966E0
1.765597344E1,2.568699837E0,8.650899887E0,-3.266599894E0
1.767597500E1,4.060499668E0,7.594999790E0,-5.274600029E0
1.770597344E1,4.727900028E0,5.225800037E0,-6.622599602E0
1.772597344E1,4.104099751E0,3.497200012E0,-7.372799873E0
1.774597500E1,5.690599918E0,-2.173399925E0,-8.201799393E0
1.777597344E1,-1.005859947E1,-1.842399979E1,2.826609993E1
1.779597344E1,-8.206199646E0,-1.402619934E1,1.730039978E1
1.781597500E1,-6.510999799E-1,-6.518399715E0,9.502999783E-1
1.783597500E1,1.302600002E1,-2.998499870E0,-1.312300014E1
1.786597344E1,8.493100166E0,-2.558099985E0,-7.669799805E0
1.788597344E1,8.587599754E0,5.059299946E0,-7.070699692E0
1.790597344E1,9.721599579E0,8.988299370E0,-7.051699638E0
1.792597344E1,8.598400116E0,6.478899956E0,-3.974200010E0
1.794597344E1,4.484200001E0,2.136999846E0,-1.258299947E0
1.796597500E1,3.162899971E0,-7.752999663E-1,-1.980699897E0
1.799597344E1,1.734200001E0,-2.536299944E0,-4.340199947E0
1.801597344E1,-2.069599867E0,-3.453399897E0,8.497999907E-1
1.803597500E1,-3.215799809E0,-1.689599991E0,3.751299858E0
1.806597344E1,-2.344300032E0,1.851799965E0,8.251000047E-1
1.808597344E1,-2.655400038E0,1.527699947E0,-3.021800041E0
1.810597500E1,-4.046400070E0,2.807999849E-1,-3.742699862E0
1.813597344E1,-5.232199669E0,-1.456099987E0,3.580699921E0
1.815597344E1,-3.766699791E0,-2.027400017E0,8.265500069E0
1.817597500E1,-1.192299962E0,-1.140399933E0,1.203609943E1
1.819597812E1,-2.964399815E0,-2.073600054E0,6.151799679E0
1.822597500E1,-1.067000008E1,-5.135799885E0,1.236899972E0
1.824597500E1,-1.231099987E1,-3.641199827E0,1.948599935E0
1.827597344E1,-8.464900017E0,-6.412099838E0,5.392399788E0
1.829597344E1,1.333400011E0,-5.492199898E0,6.551499844E0
1.831597500E1,3.924699783E0,-3.695899963E0,-1.994699955E0
1.834597344E1,4.051499844E0,-9.060500145E0,-4.744499683E0
1.836597344E1,8.865300179E0,-1.016169930E1,-1.688799977E0
1.838597344E1,1.016090012E1,-4.215699673E0,4.817199707E0
1.840597344E1,8.245100021E0,3.836999834E-1,4.922399998E0
1.842597344E1,6.748999596E0,1.352699995E0,-8.148999810E-1
1.844597344E1,4.691999912E0,2.076799870E0,-5.362199783E0
1.846597500E1,3.149600029E0,3.123999834E0,-8.385299683E0
1.849597344E1,1.627499938E0,4.879399776E0,-9.215899467E0
1.851597344E1,1.637300014E0,6.057199955E0,-6.236299992E0
1.853597500E1,4.899999797E-1,6.510399818E0,-2.818199873E0
1.855597500E1,-4.707999825E-1,6.899899960E0,-7.069999725E-2
1.857597500E1,4.009999931E-1,8.003399849E0,-1.400499940E0
1.860597500E1,3.308599949E0,5.627599716E0,-4.174600124E0
1.863597344E1,-2.549000084E-1,-2.860599995E0,1.639999962E1
1.865597344E1,-9.887399673E0,-1.262650013E1,2.174279976E1
1.867597344E1,-1.001039982E1,-2.375889969E1,2.291860008E1
1.869597344E1,7.049200058E0,-5.187200069E0,-1.899869919E1
1.871597344E1,1.099569988E1,-5.908999920E0,-2.042989922E1
1.873597344E1,7.648200035E0,1.878899932E0,-1.200220013E1
1.875597500E1,8.773499489E0,8.158800125E0,-1.135629940E1
1.878597344E1,5.794499874E0,-4.344999790E-1,-7.010200024E0
1.880597344E1,5.184499741E0,-1.335399985E0,-9.781999588E0
1.882597500E1,4.528199673E0,-2.013299942E0,-9.772299767E0
1.885597344E1,3.712499857E0,-3.886600018E0,-4.144599915E0
1.887597344E1,5.728199959E0,-6.569099903E0,7.551399708E0
1.889597500E1,5.470900059E0,1.396099925E0,2.191379929E1
1.892597344E1,2.404299974E0,2.032099962E0,-1.905299902E0
1.894597344E1,1.991400003E0,2.468199968E0,-8.215799332E0
1.896597500E1,-1.339699984E0,3.838999867E-1,-7.516599655E0
1.899597344E1,-3.095999956E0,7.082999945E-1,-3.121199846E0
1.901597344E1,-6.537199974E0,1.689999938E0,6.575699806E0
1.903597500E1,-7.688999653E0,2.689000070E-1,9.145699501E0
1.905597500E1,-4.023999691E0,-4.560999870E-1,1.044919968E1
1.907597500E1,-2.315500021E0,-2.249199867E0,5.483599663E0
1.910597344E1,-8.578899384E0,-2.641999960E0,9.264999628E-1
1.912597344E1,-1.211489964E1,-2.550699949E0,3.362099886E0
1.914597344E1,-1.189369965E1,-6.501100063E0,3.640100002E0
1.916597344E1,-7.283899784E0,-6.680199623E0,4.968499660E0
1.918597344E1,1.382599950E0,-3.505399942E0,1.326699972E0
1.920597344E1,4.115600109E0,-3.538999796E0,-2.070299864E0
1.922597344E1,4.506799698E0,-6.912699699E0,-2.692999840E0
1.924597500E1,6.168200016E0,-9.677999496E0,-9.616999626E-1
1.927597344E1,1.019250011E1,-6.015399933E0,1.973000020E-1
1.929597344E1,6.312399864E0,-4.745999873E-1,5.805999637E-1
1.931597500E1,4.455800056E0,1.008100033E0,-2.795300007E0
1.934597344E1,2.323999882E0,2.142899990E0,-6.919199944E0
1.936597344E1,1.783199906E0,3.983099937E0,-7.086400032E0
1.938597344E1,8.452300072E0,6.264800072E0,-1.632939911E1
1.940597344E1,-2.918499947E0,5.142499924E0,3.505199909E0
1.942597344E1,8.264999986E-1,5.035500050E0,-1.429700017E0
1.944598906E1,3.362499952E0,4.958600044E0,-6.125799656E0
1.947597969E1,4.567599773E0,3.696899891E0,-7.264799595E0
1.949597969E1,4.101699829E0,2.719799995E0,-5.791399956E0
1.952597344E1,4.699599743E0,8.488000035E-1,-3.613799810E0
1.954597812E1,4.841799736E0,-7.545999885E-1,3.077299833E0
1.957597500E1,-7.793200016E0,-1.078149986E1,2.667759895E1
1.960597500E1,-4.155299664E0,-5.882799625E0,7.400300026E0
1.963597344E1,4.281699657E0,8.935999870E-1,-3.992199898E0
1.965597344E1,8.615900040E0,1.915199995E0,-6.737400055E0
1.967597500E1,7.288099766E0,-3.376699924E0,-6.035599709E0
1.970597344E1,5.641599655E0,-6.937399864E0,-2.424599886E0
1.972597344E1,3.918499947E0,2.834800005E0,-6.314300060E0
1.974597500E1,2.988600016E0,7.649099827E0,-8.049099922E0
1.976597500E1,1.633499980E0,7.076999664E0,-8.484499931E0
1.979597344E1,-1.325500011E0,-3.273999989E-1,-7.074100018E0
1.981597500E1,-1.534999967E0,-3.267400026E0,-3.938899994E0
1.983597500E1,-9.588999748E-1,-3.978899956E0,6.044300079E0
1.986597344E1,3.223500013E0,4.144999981E-1,3.985599995E0
1.988597344E1,2.574300051E0,6.529999971E-1,7.364999652E-1
1.990597500E1,3.569999933E-1,3.287999928E-1,-1.888700008E0
1.993597344E1,-1.005699992E0,1.126699924E0,-3.037199974E0
1.995597344E1,-1.063699961E0,9.426999688E-1,-2.078399897E0
1.997597344E1,-1.972299933E0,2.775000036E-1,-2.101999968E-1
1.999597344E1,-1.974900007E0,-2.451999933E-1,3.249999881E-1
2.001597344E1,-8.685999513E-1,-2.349999994E-1,5.141999722E-1
2.003597500E1,1.609999873E-2,4.399999976E-2,1.697999954E0
2.005597500E1,3.192999959E-1,-2.579999901E-2,3.242300034E0
2.007597500E1,-3.871999979E-1,-1.074000001E0,3.674000025E0
2.010597500E1,-3.452600002E0,-1.830699921E0,1.832599998E0
2.013597344E1,-6.395799637E0,-1.555999994E0,1.761299968E0
2.015597344E1,-3.719299793E0,-7.723000050E-1,3.407500029E0
2.017597500E1,-4.847999811E-1,-6.370999813E-1,4.197099686E0
2.020597500E1,-1.917599916E0,-3.571899891E0,4.407399654E0
2.023597344E1,-3.262099981E0,-4.533299923E0,6.699299812E0
2.025597500E1,-1.596799970E0,-2.403699875E0,1.936299920E0
2.027597500E1,-3.066999912E-1,-2.084800005E0,-2.573899984E0
2.029597500E1,5.300999880E-1,-2.869299889E0,-4.306399822E0
2.031597500E1,4.957999885E-1,-4.646100044E0,-3.828499794E0
2.034597344E1,2.873199940E0,-5.329699993E0,-1.760599971E0
2.036597344E1,3.803499937E0,-3.305899858E0,-3.373999834E0
2.038597344E1,2.596899986E0,-5.256000161E-1,-1.825999975E0
2.040597344E1,1.823399901E0,1.276899934E0,-2.278399944E0
2.042597344E1,3.078399897E0,2.510699987E0,-4.855999947E0
2.044597344E1,4.205500126E0,2.881599903E0,-4.484799862E0
2.046597500E1,2.536700010E0,3.079299927E0,-3.165799856E0
2.049597344E1,3.676599979E0,2.565599918E0,-4.296299934E0
2.051597344E1,4.212399960E0,2.338999987E0,-5.218400002E0
2.053597500E1,3.693399906E0,1.884499907E0,-4.854399681E0
2.056597344E1,4.735499859E0,2.167000055E0,-3.593699932E0
2.058597344E1,5.364500046E0,2.254699945E0,-2.987699986E0
2.060597344E1,4.270299911E0,1.876599908E0,-1.938299894E0
2.062597344E1,2.013000011E0,9.817999601E-1,-1.149299979E0
2.064597344E1,-1.313699961E0,-6.341999769E-1,3.759999946E-2
2.066597344E1,-4.001100063E0,-3.495399952E0,6.960700035E0
2.068597500E1,-4.045000076E0,-9.150799751E0,2.159350014E1
2.071597344E1,4.497099876E0,-5.820999622E0,9.890699387E0
2.073597344E1,6.977999687E0,-9.250000119E-2,2.060400009E0
2.075597500E1,8.869099617E0,4.749599934E0,-3.935899973E0
2.078597344E1,6.507799625E0,3.628899813E0,-9.541999817E0
2.080597344E1,5.192299843E0,-2.909499884E0,-6.779799938E0
2.082597344E1,4.953799725E0,-8.290499687E0,-3.472199917E0
2.084597344E1,2.105200052E0,-6.391599655E0,-5.301799774E0
2.086597344E1,1.224300027E0,2.489099979E0,-4.630300045E0
2.088597344E1,3.227200031E0,5.263299942E0,-1.977799892E0
2.090597344E1,-2.391999960E-1,3.777000010E-1,-4.838399887E0
2.092597344E1,-3.096599817E0,-2.213299990E0,-6.915099621E0
2.094597344E1,-4.301199913E0,-4.703899860E0,-6.398599625E0
2.096597500E1,-2.876799822E0,-1.899999939E-2,3.780299902E0
2.099597344E1,7.035999894E-1,2.402199984E0,9.436999559E-1
2.101597344E1,1.755899906E0,2.241299868E0,3.548699856E0
2.103597500E1,1.046100020E0,-5.443999767E-1,5.733200073E0
2.105597500E1,-1.380899906E0,-1.513499975E0,1.646399975E0
2.107597500E1,-4.210199833E0,-5.622999668E-1,-3.437599897E0
2.110597500E1,-2.630800009E0,-2.033799887E0,4.738100052E0
2.113597344E1,3.678499937E0,2.236000001E-1,2.802000046E0
2.115597344E1,3.583299875E0,1.806299925E0,-3.694999814E-1
2.117597500E1,5.187000036E-1,1.245100021E0,-1.660300016E0
2.120597344E1,-2.951799870E0,-7.865999937E-1,1.681999922E0
2.122597344E1,-2.704399824E0,-1.612399936E0,3.154099941E0
2.124597500E1,-1.079999924E0,-2.120899916E0,3.088500023E0
2.126597500E1,5.698999763E-1,-1.991699934E0,3.437500000E0
2.128597500E1,1.755100012E0,-1.822899938E0,4.947000027E0
2.131597344E1,9.083999991E-1,-1.530399919E0,8.045000076E0
2.133597344E1,1.060099959E0,-1.354499936E0,1.093729973E1
2.135597344E1,1.386600018E0,-3.741799831E0,1.136129951E1
2.137597344E1,-6.624000072E-1,-4.934299946E0,2.699399948E0
2.139597344E1,-3.361099958E0,-3.187500000E0,-7.052999973E0
2.141597344E1,-4.953799725E0,-3.726399899E0,-1.009499931E1
2.143597344E1,-4.341499805E0,-5.379799843E0,-3.129499912E0
2.145597344E1,-1.932500005E0,-5.741899967E0,1.073199987E0
2.147597500E1,4.139699936E0,-3.869599819E0,-9.046999812E-1
2.150597344E1,7.077399731E0,-5.525000095E-1,-1.079999935E-2
2.152597500E1,5.207699776E0,1.268299937E0,1.573999971E-1
2.155597500E1,2.693599939E0,3.336400032E0,-5.545199871E0
2.157597500E1,2.451400042E0,3.563399792E0,-4.379899979E0
2.160597344E1,1.762300014E0,2.772899866E0,-3.459899902E0
2.162597344E1,1.313699961E0,2.373600006E0,-3.922499895E0
2.164597344E1,1.866699934E0,3.305899858E0,-4.312200069E0
2.166597344E1,3.227699995E0,4.680500031E0,-4.116399765E0
2.168597344E1,4.906099796E0,5.176699638E0,-3.094799995E0
2.170597344E1,5.106299877E0,3.925400019E0,1.794999987E-1
2.172597344E1,1.197099924E0,-6.790999770E-1,5.607500076E0
2.174597500E1,-4.190899849E0,-5.664000034E0,6.210099697E0
2.177597344E1,-9.800000116E-3,-1.017150021E1,1.532509995E1
2.179597344E1,7.681099892E0,4.710000008E-2,8.588999748E0
2.181597344E1,6.922399998E0,4.079599857E0,1.018100023E0
2.183597500E1,4.644700050E0,2.245199919E0,-5.812699795E0
2.186597344E1,4.666999876E-1,-1.249459934E1,-1.154699922E0
2.188597344E1,7.236999869E-1,-2.952100039E0,-7.796199799E0
2.190597344E1,4.519999772E-2,4.270199776E0,-1.270949936E1
2.192597344E1,4.323999882E-1,6.929699898E0,-7.348099709E0
2.194597344E1,-9.515999556E-1,2.854399920E0,-4.711499691E0
2.196597500E1,-4.365299702E0,-2.961999893E0,-5.518699646E0
2.199597344E1,-3.173099995E0,-1.729399920E0,-1.483399987E0
2.201597344E1,5.586000085E-1,3.105999827E-1,6.656999588E-1
2.203597500E1,3.749099970E0,1.606499910E0,2.073400021E0
2.205597500E1,4.815099716E0,5.439999700E-1,1.007699966E0
2.207597500E1,4.697299957E0,8.879999816E-2,-6.776999831E-1
2.210597500E1,-1.889999956E-1,-9.600000083E-2,-1.467199922E0
2.213597344E1,-4.146999836E0,-6.390000135E-2,-1.911000013E-1
2.215597344E1,-4.880700111E0,-7.472999692E-1,1.159500003E0
2.217597500E1,-3.504400015E0,-1.890999973E-1,1.666199923E0
2.220597344E1,6.419000030E-1,4.651999772E-1,1.429000020E0
2.222597500E1,6.872000098E-1,-1.929999888E-1,3.246999979E-1
2.224597500E1,-1.386099935E0,-1.143599987E0,-5.142999887E-1
2.227597344E1,-2.570699930E0,-1.406999946E0,-1.249999925E-2
2.229597344E1,-1.607599974E0,-1.239300013E0,-4.903999865E-1
2.231597344E1,8.795999885E-1,-2.043200016E0,3.027999997E-1
2.233597500E1,2.985499859E0,-2.475699902E0,2.582900047E0
2.236597344E1,1.999999949E-4,-9.967999458E-1,4.837800026E0
2.238597344E1,-9.470999837E-1,-6.261000037E-1,4.496900082E0
2.240597344E1,6.119999886E-1,-9.448999763E-1,4.179299831E0
2.242597344E1,2.772500038E0,-1.512899995E0,2.118900061E0
2.244597344E1,4.213099957E0,-1.856899977E0,-6.563000083E-1
2.246597500E1,4.219199657E0,-1.896600008E0,-1.667099953E0
2.249597344E1,3.437299967E0,-1.204999924E0,-4.146599770E0
2.251597344E1,1.745899916E0,6.234999895E-1,-6.037699699E0
2.253597500E1,-8.014000058E-1,9.214999676E-1,-6.353499889E0
2.255597500E1,-3.049199820E0,-4.863999784E-1,-4.950099945E0
2.257597500E1,-2.624199867E0,8.829999715E-2,-3.153499842E0
2.260597500E1,-1.033100009E0,1.439299941E0,1.558799982E0
2.262597656E1,3.561699867E0,2.413699865E0,2.086099863E0
2.265597344E1,4.251999855E0,3.443499804E0,-6.708099842E0
2.267598125E1,3.952699900E0,2.434399843E0,-4.013099670E0
2.270597344E1,4.078999758E-1,1.624099970E0,-7.250599861E0
2.272597969E1,1.533800006E0,-9.598000050E-1,-1.998600006E0
2.275597344E1,2.598999977E0,-3.820299864E0,6.593499660E0
2.277597812E1,3.726899862E0,-5.801699638E0,7.553499699E0
2.280597344E1,5.891900063E0,-2.364500046E0,2.135999918E0
2.282597500E1,6.607299805E0,6.899999976E-1,2.121399879E0
2.285597344E1,7.260799885E0,5.662999749E-1,1.575399995E0
2.287597344E1,8.314000130E0,-1.286700010E0,1.634099960E0
2.289597500E1,6.679699898E0,-2.181400061E0,-3.326999843E-1
2.292597344E1,-1.851199985E0,-3.634999990E-1,-3.393699884E0
2.294597344E1,-5.980400085E0,1.825999916E-1,-4.413899899E0
2.296597500E1,-7.840099812E0,1.992999911E-1,-4.365099907E0
2.299597344E1,-7.375399590E0,1.415999979E-1,-2.242399931E0
2.301597344E1,-5.563299656E0,-1.688999981E-1,5.869999900E-2
2.303597500E1,-1.702600002E0,-5.626999736E-1,5.607999563E-1
2.306597344E1,3.452299833E0,4.729999974E-2,1.277400017E0
2.308597344E1,4.966099739E0,6.498000026E-1,2.003999949E0
2.310597500E1,4.949199677E0,2.638999820E-1,1.320999980E0
2.313597344E1,3.467299938E0,-4.219999909E-1,-7.718999982E-1
2.315597344E1,9.448999763E-1,4.039999843E-1,-1.956999898E0
2.317597500E1,-9.916999936E-1,5.047000051E-1,-3.319099903E0
2.320597344E1,-2.385999918E0,-5.530999899E-1,-1.762099981E0
2.322597344E1,-3.066200018E0,-8.684999943E-1,4.934999943E-1
2.324597500E1,-1.836399913E0,-4.991999865E-1,9.355999827E-1
2.326597500E1,2.815999985E-1,-1.208999977E-1,4.447000027E-1
2.329597344E1,1.919099927E0,2.743999958E-1,-2.251999974E-1
2.331597344E1,1.191399932E0,-1.683000028E-1,-7.589999586E-2
2.333597344E1,-1.533000022E-1,-2.851999998E-1,-1.118999943E-1
2.335597344E1,-1.380999923E0,-3.818999827E-1,-2.497999966E-1
2.337597344E1,-1.624199986E0,-2.439999878E-1,-4.627999961E-1
2.339597500E1,-1.277300000E0,-7.769999653E-2,-6.365000010E-1
2.342597344E1,1.793999970E-1,9.719999880E-2,-8.014999628E-1
2.344597344E1,5.375999808E-1,7.899999619E-3,-2.268999964E-1
2.346597500E1,5.414999723E-1,-2.079999894E-1,1.184999943E-1
2.349597344E1,1.272999942E-1,-1.376999915E-1,-3.605999947E-1
2.351597344E1,-1.075999960E-1,-2.830999792E-1,-7.504000068E-1
2.353597344E1,4.989999905E-2,-2.820000052E-1,-8.209999800E-1
2.355597344E1,4.161999822E-1,-1.836999953E-1,-7.511000037E-1
2.357597344E1,1.048399925E0,1.899999916E-3,-8.064999580E-1
2.359597344E1,1.236599922E0,1.189999953E-1,-8.423999548E-1
2.361597344E1,1.122699976E0,-1.262999922E-1,-1.082999945E0
2.363597344E1,9.047999978E-1,-2.047999948E-1,-1.125800014E0
2.365601563E1,6.961999536E-1,-5.799999833E-2,-1.101999998E0
2.368597344E1,1.278599977E0,-3.059999831E-2,-1.319599986E0
2.370597344E1,1.809399962E0,-3.299999982E-3,-1.075199962E0
2.372597344E1,1.449000001E0,-1.499999966E-2,-8.210999966E-1
2.374597344E1,6.462000012E-1,-6.610000134E-2,-1.270099998E0
2.376597344E1,2.080999911E-1,-1.484999955E-1,-2.112799883E0
2.378597344E1,1.330000013E-1,-1.753000021E-1,-2.675799847E0
2.380597344E1,4.369999766E-1,-1.270000041E-1,-2.460799932E0
2.382597500E1,8.586999774E-1,-1.014999971E-1,-2.231999874E0
2.385597344E1,1.873199940E0,-3.179999813E-2,-1.974599957E0
2.387597969E1,2.384999990E0,1.888999939E-1,-2.010200024E0
2.390597344E1,3.173599958E0,6.690999866E-1,-1.825699925E0
2.392597344E1,3.460399866E0,4.124999940E-1,-1.064100027E0
2.394597344E1,3.583299875E0,-2.184000015E-1,6.653999686E-1
2.396597500E1,3.503199816E0,-1.002300024E0,3.379299879E0
2.399597500E1,1.086899996E0,-1.774999976E0,5.417200089E0
2.401597500E1,-8.083999753E-1,-1.863599896E0,3.544999838E0
2.403597500E1,-2.221099854E0,-2.047699928E0,1.039899945E0
2.406597344E1,-3.323599815E0,-1.373799920E0,2.065999985E0
2.408597344E1,-4.229599953E0,-3.713999987E-1,4.490999699E0
2.410597500E1,-4.916399956E0,-4.729999900E-1,4.820499897E0
2.413597344E1,-2.000099897E0,3.973999918E-1,-1.078799963E0
2.415597344E1,8.430999517E-1,1.505699992E0,-3.707599878E0
2.417597500E1,2.783399820E0,2.185799837E0,-3.991400003E0
2.420597344E1,4.249899864E0,2.599299908E0,-7.883999944E-1
2.422597344E1,4.764499664E0,2.657999992E0,2.174399853E0
2.424597344E1,4.965699673E0,2.496700048E0,1.101199985E0
2.426597344E1,3.185199976E0,1.946499944E0,-2.497299910E0
2.428597344E1,8.613999486E-1,7.547000051E-1,-5.017499924E0
2.430597344E1,3.375999928E-1,2.026000023E-1,-6.098099709E0
2.432597500E1,9.565999508E-1,3.292999864E-1,-6.030099869E0
2.435597500E1,9.709999561E-1,-5.329999700E-2,-3.662699938E0
2.438597344E1,1.646499991E0,-7.542999983E-1,-6.856999993E-1
2.440597344E1,2.735800028E0,-1.033499956E0,-3.411999941E-1
2.442597344E1,4.131999969E0,-1.100199938E0,-6.923999786E-1
2.444597344E1,4.297699928E0,-7.809000015E-1,-6.229999661E-2
2.446597500E1,2.575000048E0,-1.869099975E0,5.022999644E-1
2.449597344E1,1.464800000E0,-2.269700050E0,1.756999940E-1
2.451597344E1,1.619199991E0,-1.460799932E0,1.441999972E-1
2.453597500E1,1.405200005E0,-2.523599863E0,2.668799877E0
2.456597344E1,-1.294799924E0,-3.409799814E0,-3.429999948E-2
2.458597344E1,-3.906299829E0,-2.796299934E0,5.561000109E-1
2.460597500E1,-5.154599667E0,-2.201499939E0,2.298699856E0
2.463597344E1,-4.762099743E0,-2.691999972E-1,-1.551299930E0
2.465597344E1,-2.701200008E0,8.777999878E-1,-3.621999919E-1
2.467597500E1,1.061299920E0,1.450699925E0,1.813799977E0
2.470597344E1,2.579099894E0,-9.382999539E-1,5.151000023E-1
2.472597500E1,-7.623999715E-1,-1.524699926E0,-1.802999973E-1
2.475597500E1,-1.945099950E0,5.449999571E-1,3.622299910E0
2.478597344E1,-1.411999911E-1,9.605999589E-1,5.358999968E-1
2.480597344E1,-2.363899946E0,4.151999950E-1,-2.057299852E0
2.482597500E1,-3.794099808E0,3.167999983E-1,-1.927299976E0
2.485597344E1,-4.846899986E0,1.047899961E0,1.371500015E0
2.487597344E1,-2.074599981E0,7.217999697E-1,9.629999846E-2
2.489597500E1,4.109999835E-1,4.144999981E-1,-4.156000018E-1
2.492597344E1,5.641999841E-1,5.015000105E-1,-9.049999714E-1
2.494597344E1,-5.500999689E-1,3.068999946E-1,-8.219999820E-2
2.496597500E1,-9.010999799E-1,-1.136999950E-1,8.700999618E-1
2.499597344E1,-4.368000031E-1,-1.930999905E-1,-3.649999946E-2
2.501597344E1,7.076999545E-1,-3.323999941E-1,1.504999995E-1
2.503597500E1,1.414299965E0,-2.962000072E-1,1.658999920E-1
2.505597656E1,1.758899927E0,-3.014999926E-1,-3.621999919E-1
2.508597344E1,2.076699972E0,1.064999998E-1,-1.252099991E0
2.510597500E1,2.552999973E0,4.470999837E-1,-1.243099928E0
2.512597500E1,2.336799860E0,5.230999589E-1,-1.500000000E0
2.515597344E1,1.753199935E0,5.299999844E-3,-2.654999971E0
2.517597500E1,1.489799976E0,-1.250000000E-1,-2.237499952E0
2.520597500E1,1.097000003E0,6.913999915E-1,-3.476199865E0
2.523597344E1,1.801699996E0,5.023999810E-1,-4.908299923E0
2.525597500E1,1.416199923E0,-2.911999822E-1,-4.944399834E0
2.527597500E1,1.047799945E0,-5.406000018E-1,-4.477600098E0
2.530597344E1,1.965899944E0,-7.992999554E-1,5.467999578E-1
2.532597500E1,3.304999828E0,-1.112299919E0,5.271399975E0
2.535597344E1,2.697199821E0,-8.736999631E-1,1.259599924E0
2.537597344E1,-2.211999893E-1,-4.402999878E-1,-1.243799925E0
2.539597500E1,-2.252599955E0,-1.302899957E0,6.322000027E-1
2.542597344E1,-1.796299934E0,-4.237899780E0,7.301699638E0
2.544597344E1,-2.316299915E0,-6.719799995E0,9.868800163E0
2.546597500E1,-2.841399908E0,-4.149199963E0,5.931200027E0
2.549597344E1,-3.408699989E0,2.100600004E0,-1.790999919E-1
2.551597344E1,-2.726699829E0,4.256700039E0,1.151899934E0
2.553597500E1,-2.164900064E0,4.379499912E0,8.165999651E-1
2.556597344E1,2.739500046E0,5.082699776E0,-5.326299667E0
2.558597344E1,5.940099716E0,4.065400124E0,-7.954099655E0
2.560597500E1,6.282000065E0,2.736999989E0,-8.282400131E0
2.563597344E1,1.938199997E0,2.447999865E-1,-6.341899872E0
2.565597344E1,-1.042999998E-1,5.153999925E-1,-3.076699972E0
2.567597500E1,-1.092399955E0,2.836999893E-1,6.577999592E-1
2.570597344E1,2.960999906E-1,-2.228999883E-1,-2.720799923E0
2.572597344E1,2.994599819E0,-8.235999942E-1,-2.917899847E0
2.574597344E1,5.068799973E0,-9.448999763E-1,1.330000013E-1
2.576597344E1,4.854899883E0,-8.276000023E-1,1.063300014E0
2.578597344E1,2.813799858E0,-1.467000008E0,-9.789999574E-2
2.580597344E1,2.433699846E0,-2.164799929E0,6.464999914E-1
2.582597500E1,2.240900040E0,-2.715600014E0,6.469999552E-1
2.585597344E1,8.412999511E-1,5.219999701E-2,-2.506199837E0
2.587597344E1,-1.378999949E0,-1.996599913E0,2.481400013E0
2.589597500E1,-3.324299812E0,-4.891499996E0,8.851000071E-1
2.592597344E1,-1.108600020E0,-4.069099903E0,1.067399979E0
2.594597344E1,-1.313399911E0,-1.389999967E-2,3.212699890E0
2.596597500E1,-4.679599762E0,1.363799930E0,3.620999813E0
2.599597344E1,-4.831699848E0,1.634899974E0,9.603999853E-1
2.601597344E1,-3.252399921E0,3.224999905E-1,-2.144999951E-1
2.603597500E1,-1.738499999E0,-9.600999951E-1,-4.837999940E-1
2.605597500E1,-1.136999965E0,-1.093699932E0,-9.883999825E-1
2.607597500E1,-1.952399969E0,-2.366999865E0,1.472899914E0
2.609597500E1,-2.431900024E0,-2.625699997E0,3.259999990E0
2.611597500E1,8.170999885E-1,-1.001699924E0,4.535999775E0
2.613597500E1,3.286000013E0,1.143000007E0,1.481499910E0
2.616597500E1,4.826999903E-1,2.171799898E0,-2.490999937E0
2.619597500E1,-1.047600031E0,1.845299959E0,-3.263899803E0
2.622597344E1,-1.931800008E0,9.497999549E-1,1.983999908E-1
2.624597344E1,-8.558999896E-1,-4.779999703E-2,1.327299953E0
2.626597344E1,8.434999585E-1,1.776999980E-1,1.127300024E0
2.628597344E1,1.521399975E0,-9.470000118E-2,1.154999971E0
2.630597344E1,1.460299969E0,-3.256999850E-1,1.265999913E0
2.632597500E1,6.723999977E-1,-5.056999922E-1,1.663800001E0
2.635597344E1,-2.902999818E-1,1.272999942E-1,-4.600000009E-2
2.637597344E1,-2.709999979E-1,2.997999787E-1,-1.718400002E0
2.639597500E1,3.467999995E-1,-1.035999954E-1,-2.798199892E0
2.642597344E1,1.983699918E0,5.975999832E-1,-3.675400019E0
2.644597344E1,2.775499821E0,1.346199989E0,-3.502899885E0
2.646597500E1,2.928599834E0,1.559000015E0,-3.825099945E0
2.649597344E1,2.686499834E0,2.624999881E-1,-5.261499882E0
2.651597344E1,3.220999956E0,-3.770999908E-1,-5.534499645E0
2.653597344E1,4.886600018E0,-1.537400007E0,-6.967899799E0
2.655597344E1,6.899699688E0,-1.689700007E0,-1.844499946E0
2.657597344E1,3.575599909E0,-1.080999970E0,9.441599846E0
2.659597344E1,-1.450199962E0,-2.288499832E0,7.638899803E0
2.661597344E1,-4.625799656E0,-3.734999895E0,2.933899879E0
2.663597344E1,-6.039599895E0,-5.059599876E0,7.632599831E0
2.665597344E1,-4.341499805E0,-7.523999691E0,1.190359974E1
2.667597344E1,-4.194999933E-1,-6.423199654E0,6.820299625E0
2.669597344E1,1.341300011E0,-1.051999927E0,3.056399822E0
2.671597344E1,9.420999885E-1,2.725499868E0,2.555999994E0
2.673597344E1,-9.562999606E-1,5.028899670E0,2.406899929E0
2.675597500E1,2.144999951E-1,7.158699989E0,-7.776799679E0
2.678597344E1,4.195199966E0,7.642699718E0,-1.527600002E1
2.680597344E1,4.183099747E0,5.976699829E0,-1.111209965E1
2.682597500E1,2.871099949E0,3.801599979E0,-4.887199879E0
2.685597344E1,8.147000074E-1,3.722999990E-1,8.634999990E-1
2.687597500E1,3.900000080E-2,-2.589999884E-2,-1.503199935E0
2.690597344E1,-1.533000022E-1,-8.424999714E-1,-6.861700058E0
2.692597344E1,1.295499921E0,-1.923099995E0,-3.648499966E0
2.694597344E1,3.575799942E0,-2.669100046E0,2.383999974E-1
2.696597500E1,4.875400066E0,-3.027699947E0,4.506999850E-1
2.699597344E1,2.519399881E0,-4.707200050E0,-1.503600001E0
2.701597344E1,1.588699937E0,-2.706899881E0,-3.966199875E0
2.703597344E1,3.309099913E0,-7.631999850E-1,8.651999831E-1
2.705597344E1,-3.542999923E-1,-1.054309940E1,1.272229958E1
2.707597344E1,2.757000029E-1,-6.857899666E0,6.332099915E0
2.709597344E1,-1.196999997E-1,4.210999906E-1,1.925499916E0
2.711597500E1,-4.104199886E0,3.551599979E0,3.593099833E0
2.714597500E1,-3.190899849E0,2.170399904E0,-1.253399968E0
2.717597344E1,-8.099900246E0,-3.907699823E0,4.805500031E0
2.719597344E1,-7.359799862E0,-4.707299709E0,1.892799973E0
2.721597344E1,-6.111799717E0,-3.870499849E0,6.945999861E-1
2.723597344E1,-3.975999832E0,-1.152599931E0,3.138399839E0
2.725597500E1,1.560999900E-1,9.689999819E-1,4.302999973E0
2.727597500E1,2.703199863E0,1.868699908E0,5.604999661E-1
2.730597344E1,-1.827999949E-1,2.375000000E0,-2.762099981E0
2.732597500E1,-2.940099955E0,1.860199928E0,-6.757999659E-1
2.735597344E1,-3.271099806E0,8.792999983E-1,-4.495999813E-1
2.737597344E1,-1.867499948E0,3.431999981E-1,-1.026600003E0
2.739597344E1,-5.381000042E-1,2.048999965E-1,-8.473999500E-1
2.741597344E1,7.112999558E-1,2.884999812E-1,-7.400000095E-1
2.743597344E1,1.480399966E0,1.517999917E-1,-6.445999742E-1
2.745597344E1,2.182299852E0,-1.274999976E-1,-8.678999543E-1
2.747598125E1,3.043200016E0,7.499999553E-2,-1.513099909E0
2.750597344E1,3.483599901E0,-2.929999828E-1,-2.580299854E0
2.752597344E1,3.798699856E0,-3.788999915E-1,-3.132900000E0
2.754597500E1,3.490299940E0,4.616999924E-1,-3.589799881E0
2.757597500E1,3.888700008E0,9.468999505E-1,-4.824399948E0
2.760597500E1,3.602599859E0,-3.471999764E-1,-7.144599915E0
2.763597344E1,2.756700039E0,-3.523599863E0,-7.669499874E0
2.765597344E1,2.928499937E0,-2.872799873E0,-1.522699952E0
2.767597344E1,1.907499909E0,-2.051899910E0,7.386499882E0
2.769597500E1,1.613999903E-1,-2.673799992E0,6.976899624E0
2.772597344E1,-1.112900019E0,-1.206399918E0,2.415599823E0
2.774597344E1,-2.130800009E0,-1.133700013E0,9.907799721E0
2.776597344E1,-3.949399948E0,-4.069600105E0,1.096910000E1
2.778597344E1,6.989999861E-2,-4.745199680E0,4.474699974E0
2.780597344E1,1.757099986E0,-7.343999743E-1,6.583999991E-1
2.782597500E1,1.384799957E0,3.115999937E0,2.377099991E0
2.784597656E1,-8.017999530E-1,4.819999695E0,5.408400059E0
2.787597344E1,-1.782799959E0,7.345599651E0,-9.554100037E0
2.789597344E1,2.190500021E0,7.767799854E0,-1.674650002E1
2.791597344E1,3.165400028E0,3.361099958E0,-1.346549988E1
2.793597344E1,1.502599955E0,6.029999852E-1,-8.015600204E0
2.795597344E1,-2.723999918E-1,-5.453999639E-1,-4.079100132E0
2.797597500E1,4.166999757E-1,-3.610000014E-1,2.156899929E0
2.800597344E1,2.515399933E0,-2.371999919E-1,8.698999882E-1
2.802597344E1,4.315599918E0,-3.804000020E-1,-4.632499695E0
2.804597344E1,5.712499619E0,-1.753600001E0,-3.467999935E0
2.806597344E1,3.407299995E0,-3.027199984E0,-1.478899956E0
2.808597344E1,8.889999986E-2,-4.101799965E0,-1.896600008E0
2.810597500E1,7.559999824E-2,-2.511299849E0,-3.321799994E0
2.813597344E1,-1.663999915E0,-1.088910007E1,1.028329945E1
2.815597344E1,-1.057600021E0,-1.064750004E1,1.113919926E1
2.817597344E1,8.519999683E-2,8.851999640E-1,2.264999866E0
2.819597500E1,-3.596699953E0,5.164599895E0,3.867000043E-1
2.822597500E1,-3.708499908E0,2.027199984E0,7.681999803E-1
2.825597500E1,-5.697099686E0,-7.371899605E0,3.649399996E0
2.828597344E1,-5.686299801E0,-3.791999817E-1,2.240700006E0
2.830597344E1,-1.837799907E0,2.759399891E0,2.514899969E0
2.832597500E1,2.419899940E0,2.235199928E0,2.379499912E0
2.835597969E1,1.235800028E0,1.845099926E0,-1.902599931E0
2.838597344E1,-3.156399965E0,1.319199920E0,-2.511999905E-1
2.840597500E1,-4.634599686E0,1.362399936E0,2.233799934E0
2.842597500E1,-2.589799881E0,2.856000066E-1,2.521999836E0
2.845597344E1,7.459999919E-1,-1.034399986E0,9.951999784E-1
2.847597500E1,9.229999781E-1,-5.313000083E-1,7.840000093E-2
2.850597344E1,-5.245000124E-1,5.342000127E-1,-7.283999920E-1
2.852597344E1,-8.403999805E-1,-4.219999909E-2,-2.721000016E-1
2.854597500E1,-9.200000018E-2,-2.892999947E-1,-4.696999788E-1
2.857597344E1,6.093999743E-1,9.276999831E-1,-1.041599989E0
2.859597344E1,2.190999985E-1,8.792999983E-1,-2.715899944E0
2.861597500E1,4.783999920E-1,6.775000095E-1,-3.781199932E0
2.864601406E1,1.897599936E0,1.323099971E0,-3.879899979E0
2.867597500E1,1.555699944E0,1.096300006E0,-4.710199833E0
2.869597500E1,1.368199944E0,1.070500016E0,-5.427399635E0
2.872597344E1,1.673099995E0,7.622999549E-1,-5.181699753E0
2.874597344E1,2.279700041E0,2.574999928E-1,-4.559099674E0
2.876597344E1,7.553099632E0,-6.438899994E0,1.143000007E0
2.878597344E1,9.444799423E0,-3.755199909E0,1.660330009E1
2.880597344E1,3.211099863E0,-1.293900013E0,7.793099880E0
2.882597500E1,-1.553900003E0,-2.455999851E0,2.029999904E-2
2.885597344E1,-3.877599955E0,-4.895299911E0,6.653199673E0
2.887597500E1,-3.597199917E0,-7.328299999E0,8.658100128E0
2.889597500E1,-3.137999773E-1,-3.063499928E0,5.151199818E0
2.892597344E1,-2.669999897E-1,3.233500004E0,1.392099977E0
2.894597344E1,-2.030299902E0,4.781599998E0,1.356400013E0
2.896597500E1,-2.109400034E0,6.889499664E0,-6.820899963E0
2.899597344E1,2.909299850E0,7.583600044E0,-1.461520004E1
2.901597344E1,3.786000013E0,4.484399796E0,-1.009420013E1
2.903597500E1,4.026599884E0,2.647599936E0,-4.812999725E0
2.905597500E1,7.683799744E0,8.534999490E-1,-3.937000036E-1
2.907597500E1,6.516399860E0,-2.067199945E0,2.410000004E-2
2.910597500E1,2.103999853E0,-1.057799935E0,-3.599699974E0
2.912597500E1,6.669999957E-1,-1.671999991E-1,-4.822599888E0
2.915597344E1,2.196300030E0,-1.679499984E0,1.293999910E0
2.917597344E1,4.710499763E0,-3.130999804E0,2.912999868E0
2.919597500E1,4.284100056E0,-3.585799932E0,8.899999782E-3
2.922597344E1,1.613999903E-1,-2.530900002E0,-6.033999920E0
2.924597344E1,-1.459499955E0,-8.936999321E0,3.378499985E0
2.926597344E1,-5.122099876E0,-9.691299438E0,1.198600006E1
2.928597344E1,-4.756299973E0,-2.773000002E0,4.101799965E0
2.930597344E1,-2.080699921E0,3.908799887E0,-5.632599831E0
2.932597500E1,-3.995099783E0,7.287099838E0,2.173300028E0
2.935597344E1,-3.222999811E0,1.470399976E0,6.492999792E-1
2.937597344E1,-5.131899834E0,-8.989699364E0,4.930299759E0
2.939597500E1,-9.775400162E0,-1.208329964E1,1.135269928E1
2.942597344E1,-1.782899976E0,2.062599897E0,2.471499920E0
2.944597344E1,1.284099936E0,1.866099954E0,-2.395400047E0
2.946597500E1,1.607899904E0,1.720799923E0,-3.027599812E0
2.949597344E1,-1.371599913E0,3.430500031E0,2.252799988E0
2.951597344E1,-3.209899902E0,9.065999985E-1,4.617700100E0
2.953597500E1,-2.225899935E0,-7.675999999E-1,3.227799892E0
2.955597500E1,-5.234000087E-1,-1.885999888E-1,3.786999881E-1
2.957597500E1,3.799999878E-2,3.989000022E-1,-1.611699939E0
2.960597344E1,2.199999988E-1,7.468000054E-1,-2.003399849E0
2.962597344E1,-2.927999794E-1,4.499999881E-1,-1.741899967E0
2.964597344E1,-2.965999842E-1,-1.212999970E-1,-1.637499928E0
2.966597344E1,-1.121999994E-1,-2.935999930E-1,-7.329999804E-1
2.968597500E1,1.018800020E0,-4.172999859E-1,3.852999806E-1
2.971597344E1,2.442399979E0,-5.521999598E-1,3.914999962E-1
2.973597344E1,3.053299904E0,5.399999674E-3,-1.458999962E-1
2.975597500E1,3.209999800E0,4.418999851E-1,-1.298299909E0
2.978597344E1,3.144899845E0,4.569999874E-1,-2.757499933E0
2.980597344E1,3.019299984E0,8.560999632E-1,-3.468699932E0
2.982597500E1,2.726999998E0,7.432000041E-1,-3.834699869E0
2.985597344E1,1.944599986E0,1.841000021E-1,-2.580799818E0
2.987597344E1,1.469900012E0,2.666999996E-1,-1.497200012E0
2.989597500E1,1.532799959E0,5.399000049E-1,-4.465000033E-1
2.992597344E1,1.517899990E0,-2.098999918E-1,2.398399830E0
2.994597344E1,-5.929999948E-1,-1.868299961E0,3.753899813E0
2.996597344E1,-3.060199976E0,-4.282999992E0,3.799999952E0
2.998597344E1,-9.427999854E-1,-6.544399738E0,4.432699680E0
3.000597344E1,2.234200001E0,-6.990499973E0,8.106900215E0
3.002597344E1,-1.536999941E-1,-5.208999634E0,9.792799950E0
3.004597500E1,-2.434299946E0,-2.839599848E0,5.310400009E0
3.007597500E1,-4.707299709E0,3.208999932E-1,6.724999547E-1
3.010597656E1,-3.058099985E0,3.274600029E0,5.544999838E-1
3.013597344E1,3.846599817E0,8.026299477E0,-1.199660015E1
3.015597344E1,6.753200054E0,9.788499832E0,-1.137440014E1
3.017597344E1,6.911099911E0,8.384300232E0,-5.350499630E0
3.019597344E1,9.799300194E0,7.184399605E0,-3.903999925E-1
3.021597344E1,1.018200016E1,4.211899757E0,-3.537999988E-1
3.023597344E1,5.355199814E0,-1.031199932E0,-1.306199908E0
3.025597500E1,1.414799929E0,-2.558199883E0,-1.904899955E0
3.027597500E1,4.672999978E-1,-1.986499906E0,-2.341099977E0
3.030597344E1,-1.109099984E0,-2.985899925E0,-4.327899933E0
3.032597500E1,-1.627399921E0,-3.399999857E0,-3.083499908E0
3.035597344E1,1.386299968E0,-3.372799873E0,-8.289999515E-2
3.037597344E1,4.044899940E0,-2.960999966E0,-1.407999992E-1
3.039597500E1,4.995999813E0,-3.912899971E0,-1.665000021E-1
3.042597344E1,3.085899830E0,-1.100439930E1,5.554299831E0
3.044597344E1,2.255899906E0,-6.528100014E0,9.150599480E0
3.046597500E1,8.442999721E-1,1.359999925E-1,8.783599854E0
3.049597344E1,-8.766999841E-1,2.625299931E0,1.028800011E0
3.051597344E1,-4.730199814E0,-1.763999939E0,9.750999808E-1
3.053597500E1,-5.200799942E0,-9.204999804E-1,-3.630999923E-1
3.055597500E1,-8.366000175E0,-7.881999612E-1,2.317199945E0
3.058597344E1,-9.767799377E0,-3.957999945E-1,1.992699981E0
3.060597344E1,-4.287499905E0,9.774999619E-1,-2.522000074E-1
3.062597344E1,-2.674599886E0,-4.447000027E-1,2.045799971E0
3.064597344E1,3.990999758E-1,2.454999983E-1,1.969199896E0
3.066597344E1,2.328999996E0,1.225299954E0,1.514699936E0
3.068597500E1,1.549699903E0,8.718000054E-1,-1.357900023E0
3.071597344E1,-1.166800022E0,1.128999949E0,-2.096899986E0
3.073597344E1,-2.581899881E0,5.527999997E-1,-2.979999781E-1
3.075597500E1,-2.290899992E0,1.981000006E-1,6.850999594E-1
3.078597344E1,4.346999824E-1,-2.089999989E-2,6.995999813E-1
3.080597344E1,1.787299991E0,-1.982000023E-1,6.669999957E-1
3.082597500E1,1.936199903E0,-5.494999886E-1,4.639999866E-1
3.085597344E1,6.809999794E-2,-5.123999715E-1,-1.736999899E-1
3.087597344E1,-1.270799994E0,-5.464000106E-1,3.974999785E-1
3.089597500E1,-1.682099938E0,-4.830999970E-1,5.521999598E-1
3.092597344E1,-1.386999935E-1,-5.680000037E-2,-1.161100030E0
3.094597344E1,7.375999689E-1,3.351999819E-1,-2.244699955E0
3.096597500E1,8.320999742E-1,5.579000115E-1,-2.868999958E0
3.099597344E1,9.219999909E-1,6.771000028E-1,-3.494799852E0
3.101597344E1,1.180999994E0,3.740999997E-1,-3.525799990E0
3.103597500E1,1.232900023E0,-1.187999994E-1,-3.742399931E0
3.105597500E1,1.301499963E0,-4.403999746E-1,-3.512399912E0
3.107597500E1,1.951099992E0,-4.545999765E-1,-2.659699917E0
3.110597344E1,3.659799814E0,3.492999971E-1,-2.308199883E0
3.112597344E1,4.743799686E0,1.030599952E0,-1.922599912E0
3.114597500E1,6.011099815E0,9.711999893E-1,-1.225499988E0
3.117597344E1,5.681399822E0,-6.079999730E-2,5.659599781E0
3.119597344E1,1.250699997E0,-9.232999682E-1,9.682700157E0
3.121597500E1,-1.370100021E0,-1.640199900E0,4.394700050E0
3.124597344E1,-3.077100039E0,-2.562299967E0,1.362999976E-1
3.126597500E1,-1.886999965E0,-2.983999968E0,1.140799999E0
3.129597344E1,3.495000005E-1,-3.687099934E0,2.229300022E0
3.131597344E1,-1.145999953E-1,-2.913899899E0,2.524499893E0
3.133597344E1,-3.128199816E0,-2.355599880E0,4.071700096E0
3.135597344E1,-5.229899883E0,-2.751999795E-1,3.475399971E0
3.137597656E1,-5.223899841E0,2.230499983E0,2.410699844E0
3.140597344E1,-1.796299934E0,5.296000004E0,-2.194299936E0
3.142597344E1,1.781199932E0,5.874899864E0,-7.399799824E0
3.144597344E1,6.026000023E0,4.893099785E0,-8.932999611E0
3.146597500E1,9.957699776E0,3.264099836E0,-5.133399963E0
3.148597500E1,9.534199715E0,1.679799914E0,-1.958899975E0
3.151597344E1,3.233599901E0,8.915999532E-1,-1.575599909E0
3.153597500E1,6.182999611E-1,3.242000043E-1,-2.194900036E0
3.156597344E1,-1.138299942E0,-1.060999990E0,-4.073299885E0
3.158597344E1,-1.448999941E-1,-1.701799989E0,-5.007999897E0
3.160597344E1,2.106499910E0,-9.250999689E-1,-2.118999958E0
3.162597344E1,3.889299870E0,-5.638999939E-1,1.373499990E0
3.164597344E1,4.307699680E0,-1.004400015E0,1.786599994E0
3.166597344E1,3.314899921E0,-9.846999645E-1,-2.490999997E-1
3.168597500E1,2.022300005E0,-1.226400018E0,-1.193799973E0
3.171597344E1,9.939000010E-1,-2.380199909E0,-2.024699926E0
3.173597344E1,9.475999475E-1,-8.871999979E-1,-1.448899984E0
3.175597500E1,-1.184899926E0,-3.779500008E0,2.151299953E0
3.178597344E1,-3.990599871E0,-4.674399853E0,9.168999791E-1
3.180597344E1,-4.843999863E0,-3.784099817E0,3.126299858E0
3.182597500E1,-4.103099823E0,-1.250599980E0,2.590499878E0
3.185597344E1,-3.402699947E0,1.940299988E0,1.090899944E0
3.187597500E1,-7.371999621E-1,3.051399946E0,2.237799883E0
3.189597500E1,2.196599960E0,3.268299818E0,2.571499825E0
3.192597344E1,5.572000146E-1,-4.059000015E0,1.063999981E-1
3.194597344E1,-2.951499939E0,-5.084099770E0,-4.569000006E-1
3.196597344E1,-4.602299690E0,-2.974900007E0,1.702899933E0
3.198597344E1,-3.624699831E0,2.547000051E-1,6.073499680E0
3.200597344E1,-8.244000077E-1,-6.322999597E-1,1.004199982E0
3.202597344E1,-2.933999896E-1,7.771999836E-1,-2.856799841E0
3.204597500E1,-8.855999708E-1,1.932699919E0,-2.516099930E0
3.207597500E1,-1.546299934E0,2.216799974E0,1.297999918E-1
3.210597344E1,-7.059999555E-2,9.117999673E-1,7.303000093E-1
3.212597500E1,6.721999645E-1,2.028999925E-1,9.726999998E-1
3.214597500E1,1.142199993E0,-3.673999906E-1,1.432899952E0
3.217597500E1,4.909999967E-1,-1.498000026E-1,1.046599984E0
3.220597344E1,-1.090700030E0,2.379999869E-2,-2.330999970E-1
3.222597500E1,-1.264500022E0,-3.718000054E-1,-9.354999661E-1
3.225597500E1,-1.546899915E0,-6.789000034E-1,4.147000015E-1
3.228597344E1,-3.298999965E-1,-1.752000004E-1,3.175999820E-1
3.230597344E1,5.421000123E-1,1.139999926E-2,-2.180999964E-1
3.232597500E1,1.096799970E0,6.870000064E-2,-4.429999888E-1
3.235597344E1,1.115899920E0,4.465999901E-1,-1.080699921E0
3.237597344E1,6.994999647E-1,3.740999997E-1,-2.540899992E0
3.239597500E1,1.238600016E0,6.815999746E-1,-3.430399895E0
3.241597500E1,1.873299956E0,7.421999574E-1,-3.779899836E0
3.244597344E1,2.262699842E0,6.225000024E-1,-3.915299892E0
3.246599375E1,1.799299955E0,1.345999986E-1,-2.933899879E0
3.249597344E1,1.812099934E0,-5.726000071E-1,-6.250999570E-1
3.251597344E1,2.327800035E0,-5.669999868E-2,-2.543999851E-1
3.253597344E1,2.348999977E0,5.823999643E-1,7.718999982E-1
3.255597500E1,1.808200002E0,4.147999883E-1,1.441299915E0
3.257597500E1,5.557999611E-1,-3.911999762E-1,2.393399954E0
3.260597344E1,-9.690999985E-1,-1.281000018E0,2.820199966E0
3.262597500E1,-5.393999815E-1,-8.144999743E-1,2.227399826E0
3.265597344E1,6.528999805E-1,-8.449999690E-1,4.972999990E-1
3.267597344E1,1.347999930E0,-1.869899988E0,-1.385100007E0
3.269597344E1,1.640900016E0,-3.512599945E0,-1.534899950E0
3.271597344E1,-7.917000055E-1,-3.158900023E0,3.211199999E0
3.273597344E1,-3.819700003E0,-1.697499990E0,7.845999718E0
3.275597500E1,-4.809400082E0,-4.129999876E-1,5.939899921E0
3.278597344E1,-3.317299843E0,1.921000004E0,7.960999608E-1
3.280597344E1,-1.313699961E0,3.259899855E0,-1.766399980E0
3.282597500E1,1.001299977E0,4.108299732E0,-4.333600044E0
3.285597344E1,3.912699938E0,4.444399834E0,-5.842999935E0
3.287597344E1,5.736899853E0,3.610699892E0,-6.026099682E0
3.289597500E1,8.066399574E0,2.036000013E0,-3.524600029E0
3.292597344E1,3.162799835E0,-7.091000080E-1,1.593999982E0
3.294597344E1,8.422999978E-1,-1.171800017E0,2.272999883E-1
3.296597500E1,-8.710999489E-1,-1.022300005E0,-4.061500072E0
3.299597344E1,-9.451999664E-1,-1.632999927E-1,-5.835399628E0
3.301597344E1,3.754999936E-1,1.039000005E-1,-2.193699837E0
3.303597344E1,1.706999898E0,-7.455999851E-1,7.051999569E-1
3.305597344E1,2.756700039E0,-1.382799983E0,1.439499974E0
3.307597344E1,3.783699989E0,-1.538800001E0,1.000000000E0
3.309597344E1,3.325799942E0,-2.037499905E0,-2.520000041E-1
3.311597500E1,2.143199921E0,-2.362999916E0,-1.931899905E0
3.314597344E1,-2.890999913E-1,-2.007400036E0,-1.934699893E0
3.316597344E1,-1.114300013E0,-2.844099998E0,2.581099987E0
3.318597500E1,-3.729799986E0,-3.162099838E0,4.442100048E0
3.321597344E1,-5.043600082E0,-1.299899936E0,-2.028999925E-1
3.323597344E1,-3.941699982E0,2.608999908E-1,6.532999873E-1
3.325597500E1,-2.554299831E0,1.226400018E0,1.070899963E0
3.328597344E1,3.062199831E0,2.886999846E0,1.532199979E0
3.330597344E1,4.199800014E0,3.098399878E0,6.126999855E-1
3.332597500E1,1.498199940E0,-1.358999908E-1,-1.096499920E0
3.335597344E1,-1.867100000E0,-6.134500027E0,2.829999849E-2
3.337597344E1,-4.642899990E0,-6.882599831E0,5.049299717E0
3.339597500E1,-4.947099686E0,1.738999933E-1,7.307999611E0
3.342597344E1,-3.200399876E0,8.306999803E-1,-2.203599930E0
3.344597344E1,-2.702600002E0,6.287999749E-1,-4.064599991E0
3.346597500E1,-2.687500000E0,1.698199987E0,4.131999910E-1
3.349597344E1,-1.747999936E-1,4.114999771E-1,2.949299812E0
3.351597344E1,1.707799911E0,4.436999857E-1,1.409299970E0
3.353597344E1,2.314800024E0,6.025999784E-1,-6.230999827E-1
3.355597500E1,1.685299993E0,4.667999744E-1,-1.351400018E0
3.357597500E1,1.960999966E-1,-8.029999584E-2,-9.935999513E-1
3.360597344E1,-1.740999937E0,-2.838999927E-1,5.354999900E-1
3.362597500E1,-1.564399958E0,6.019999832E-2,1.560000032E-1
3.365597344E1,-4.541999996E-1,2.856000066E-1,-4.966999888E-1
3.367597344E1,-5.127999783E-1,2.939999849E-2,-8.054999709E-1
3.369597344E1,-4.727999866E-1,-2.673999965E-1,-1.090099931E0
3.371597344E1,-1.260000020E-1,-3.993999958E-1,-9.885999560E-1
3.373597344E1,1.622999907E-1,1.141999960E-1,-1.079299927E0
3.375597500E1,6.844999790E-1,5.773000121E-1,-1.450199962E0
3.378597344E1,1.475799918E0,5.522999763E-1,-2.371399879E0
3.380597344E1,1.768799901E0,9.024999738E-1,-3.015899897E0
3.382597500E1,1.505299926E0,1.143000007E0,-3.386199951E0
3.385597344E1,1.026799917E0,2.206999958E-1,-3.538899899E0
3.387597656E1,9.808999896E-1,1.429999992E-2,-3.718299866E0
3.390597344E1,1.787199974E0,-5.927000046E-1,-3.401499987E0
3.392597344E1,2.540499926E0,-8.802999854E-1,-1.691900015E0
3.394597344E1,1.916999936E0,-4.263999760E-1,2.307699919E0
3.396597500E1,3.249000013E-1,-8.709999919E-1,6.169799805E0
3.399597344E1,-2.770599842E0,-2.124899864E0,4.004699707E0
3.401597344E1,-1.666399956E0,-6.830999851E-1,2.457999885E-1
3.403597344E1,1.630000025E-1,-2.926000059E-1,-4.109999835E-1
3.405597500E1,2.121399879E0,-1.262399912E0,4.963999987E-1
3.407597500E1,5.239999771E0,-2.655799866E0,2.775399923E0
3.410597344E1,3.130199909E0,-4.003099918E0,7.973199844E0
3.412597344E1,-1.456399918E0,-2.003200054E0,4.911099911E0
3.414597500E1,-3.971999884E0,5.400999784E-1,1.659899950E0
3.417597344E1,-3.762399912E0,4.198899746E0,-1.829999983E-1
3.419597500E1,-3.011199951E0,4.913199902E0,2.364999950E-1
3.422597500E1,-2.698999941E-1,3.212499857E0,-2.736500025E0
3.425597500E1,4.499899864E0,1.782099962E0,-1.073439980E1
3.428597344E1,3.758999825E0,9.739999771E-1,-9.022199631E0
3.430597344E1,1.859200001E0,3.786000013E-1,-5.140399933E0
3.432597500E1,3.623999953E-1,7.757999897E-1,-6.710000038E-1
3.435597344E1,-9.202999473E-1,2.186999917E-1,-3.209999949E-2
3.437597344E1,-6.437999606E-1,-2.522999942E-1,-3.691999912E0
3.439597500E1,1.138399959E0,-5.936999917E-1,-4.654399872E0
3.442597344E1,3.899199963E0,-8.815000057E-1,1.083000004E-1
3.444597500E1,4.032700062E0,-5.232999921E-1,-5.995999575E-1
3.446597500E1,1.942399979E0,-1.612499952E0,-1.610299945E0
3.449597344E1,2.040999979E-1,-2.936399937E0,-2.783699989E0
3.451597344E1,-9.950000048E-2,-1.204199910E0,-3.713299990E0
3.453597344E1,-2.895699978E0,-3.731400013E0,3.180500031E0
3.455597500E1,-4.337599754E0,-6.280499935E0,3.623099804E0
3.458597344E1,3.251899958E0,-5.210099697E0,1.743299961E0
3.460597344E1,5.318999767E0,-5.917999744E-1,2.568399906E0
3.462597344E1,1.652799964E0,1.578599930E0,7.890899658E0
3.464597344E1,-7.475000024E-1,3.229300022E0,3.870899916E0
3.466597344E1,-9.792999625E-1,3.409799814E0,4.142999947E-1
3.468597500E1,-2.536700010E0,-5.302999616E-1,-6.215999722E-1
3.471597344E1,-1.995499969E0,-2.820000052E-1,-1.233299971E0
3.473597344E1,-2.865999937E0,-1.582599998E0,-4.558999836E-1
3.475597500E1,-4.297699928E0,-3.105700016E0,1.141999960E0
3.478597344E1,-6.617199898E0,-1.549799919E0,7.605099678E0
3.480597344E1,-2.940399885E0,5.604999661E-1,5.309199810E0
3.482597500E1,-2.379999906E-1,2.677700043E0,-1.062699914E0
3.485597344E1,-2.619699955E0,1.519500017E0,-2.600899935E0
3.487598438E1,-2.659600019E0,1.098600030E0,1.835999936E-1
3.490597500E1,-8.750000000E-1,1.419999897E-1,1.208999991E0
3.493597344E1,-9.300000034E-3,2.545000017E-1,6.351000071E-1
3.495597344E1,-1.276000023E0,-1.818999946E-1,2.635000050E-1
3.497597344E1,-3.565899849E0,-1.010999918E0,-9.179999679E-2
3.499597344E1,-5.374399662E0,-1.076300025E0,-8.090999722E-1
3.501597344E1,-5.593199730E0,-5.627999902E-1,-1.187799931E0
3.503597344E1,-4.102699757E0,2.960000001E-2,-9.781000018E-1
3.505597500E1,-2.418999910E0,1.312000006E-1,-1.765100002E0
3.507597812E1,-6.426999569E-1,1.005999923E0,-2.787999868E0
3.510597344E1,-1.672500014E0,1.578999907E-1,-4.659899712E0
3.512597344E1,-3.355599880E0,-2.945999801E-1,-6.282799721E0
3.514597500E1,-3.838499784E0,1.779000014E-1,-7.116299629E0
3.517597344E1,-3.428200006E0,7.486999631E-1,-6.973799706E0
3.519597344E1,-2.978999853E0,1.162599921E0,-6.185100079E0
3.521597500E1,-2.941699982E0,1.166700006E0,-5.737599850E0
3.524597344E1,-1.527799964E0,1.532999992E0,-6.085499763E0
3.526597500E1,3.590499878E0,1.279099941E0,-6.007199764E0
3.529597344E1,5.679100037E0,-4.052999914E-1,-9.483000040E-1
3.531597344E1,9.325000048E-1,-2.573400021E0,2.338299990E0
3.533597344E1,-3.510999918E0,-2.731999874E0,4.282999992E0
3.535597344E1,-4.829699993E0,-1.436399937E0,1.497699976E0
3.537597344E1,-3.407999992E0,-2.362999916E-1,-3.015999794E-1
3.539597500E1,-3.554999828E-1,-2.135900021E0,-4.071999788E-1
3.541597500E1,3.738600016E0,-5.136300087E0,1.112499952E0
3.544597344E1,9.853499413E0,-9.149600029E0,7.049399853E0
3.546597344E1,6.135399818E0,-5.573499680E0,9.185999870E0
3.548597500E1,3.445799828E0,-1.028100014E0,5.107599735E0
3.551597344E1,-3.397499800E0,3.183300018E0,2.491199970E0
3.553597344E1,-8.519999981E-1,1.766499996E0,-2.118200064E0
3.555597344E1,2.783900023E0,-6.700000167E-2,-7.170099735E0
3.557597344E1,2.172199965E0,9.281999469E-1,-9.008399963E0
3.559597344E1,1.020599961E0,2.190099955E0,-1.001840019E1
3.561597500E1,-3.607999980E-1,2.317999840E0,-6.549900055E0
3.564597344E1,-2.410899878E0,2.869999968E-2,1.420300007E0
3.566597344E1,-4.484200001E0,-2.159199953E0,3.629999876E0
3.568597500E1,-3.911399841E0,-1.857999921E0,-3.303000033E-1
3.571597344E1,-6.509999633E-1,9.677999616E-1,-3.906699896E0
3.573597344E1,6.035999656E-1,2.887300014E0,-2.374799967E0
3.575597500E1,2.229699850E0,3.375000000E0,-2.742199898E0
3.578597344E1,5.741499901E0,3.058300018E0,-3.044399977E0
3.580597344E1,7.562999725E0,3.395399809E0,-2.505499840E0
3.582597500E1,7.624699593E0,3.382599831E0,-1.737100005E0
3.584598125E1,5.057799816E0,2.751499891E0,1.514599919E0
3.587597344E1,9.357999563E-1,-7.609999925E-2,1.203739929E1
3.589598594E1,6.851999760E-1,-3.015199900E0,9.223599434E0
3.592597344E1,9.853999615E-1,-6.345399857E0,5.351399899E0
3.594597344E1,8.572999835E-1,-3.545799971E0,2.329900026E0
3.596597344E1,3.213299990E0,-2.311199903E0,-2.609899998E0
3.598597500E1,3.872999907E0,-3.104499817E0,-7.181699753E0
3.601597344E1,2.607100010E0,-4.075599670E0,-6.562799931E0
3.603597344E1,2.119299889E0,-4.760799885E0,5.719999671E-1
3.605597344E1,3.008399963E0,-4.460999966E-1,1.592009926E1
3.607597344E1,4.986299992E0,5.534199715E0,1.515299916E0
3.609597344E1,4.540499687E0,5.436199665E0,-1.465809917E1
3.611597500E1,3.317999840E0,5.541699886E0,-1.160969925E1
3.614597500E1,-5.339999869E-2,-1.400699973E0,-5.899399757E0
3.617597344E1,-9.739999771E-1,-2.893899918E0,-3.535599947E0
3.619597500E1,-4.837999940E-1,-1.003099918E0,-4.136999846E-1
3.621597500E1,1.596899986E0,1.068300009E0,1.028509998E1
3.624597344E1,-1.529599905E0,4.542999864E-1,1.368699908E0
3.626597344E1,-1.465600014E0,5.422999859E-1,-6.442899704E0
3.628597344E1,-1.764599919E0,3.258000016E-1,-2.819799900E0
3.630597344E1,-2.347300053E0,3.975999951E-1,9.689999819E-1
3.632597500E1,-1.887399912E0,1.160899997E0,5.544999838E-1
3.634597500E1,-2.246299982E0,1.168099999E0,-1.105999947E0
3.637597344E1,-3.060899973E0,1.049199939E0,-1.802799940E0
3.639597500E1,-2.963699818E0,4.944999814E-1,6.017999649E-1
3.642597344E1,-2.005999982E-1,-5.001000166E-1,1.971300006E0
3.644597344E1,1.869699955E0,-4.156000018E-1,2.469499826E0
3.646597344E1,2.875599861E0,-4.080999792E-1,3.180299997E0
3.648597344E1,8.865000010E-1,-1.621299982E0,1.829999924E0
3.650597344E1,-3.678099871E0,-2.638700008E0,7.050000131E-2
3.652597344E1,-7.449699879E0,-2.659600019E0,1.589999914E0
3.654597344E1,-7.766299725E0,-1.706200004E0,3.406800032E0
3.656597344E1,-6.972099781E0,-2.900699854E0,3.659899950E0
3.658597344E1,-6.315899849E0,-5.702899933E0,4.775499821E0
3.660597344E1,-4.647099972E0,-5.169399738E0,4.644799709E0
3.662597344E1,-3.148399830E0,-2.602299929E0,5.091700077E0
3.664597344E1,-1.886099935E0,-1.148699999E0,3.109099865E0
3.666597500E1,-1.352299929E0,-7.975999713E-1,-1.278399944E0
3.668597500E1,-1.002099991E0,-1.761099935E0,-4.186699867E0
3.671597344E1,1.249499917E0,-6.446099758E0,-1.902999997E0
3.673597344E1,3.699199915E0,-6.381499767E0,-8.200999498E-1
3.675597500E1,4.845999718E0,-2.209199905E0,-1.157500029E0
3.678597344E1,3.166800022E0,1.448400021E0,8.489999920E-2
3.680597344E1,2.150899887E0,1.988299966E0,-5.558300018E0
3.682597500E1,2.156599998E0,1.319100022E0,-7.684099674E0
3.685597344E1,2.562399864E0,1.362100005E0,-4.375799656E0
3.687597344E1,1.444899917E0,1.959399939E0,-3.753199816E0
3.689597500E1,1.179600000E0,2.092000008E0,-3.136799812E0
3.692597344E1,4.788000107E0,2.780299902E0,-2.072700024E0
3.694597344E1,6.926499844E0,3.476599932E0,-2.609799862E0
3.696597344E1,7.726599693E0,4.371599674E0,-2.991600037E0
3.698597344E1,8.036000252E0,4.920000076E0,-2.231600046E0
3.700597344E1,7.501399994E0,4.451900005E0,-9.844999909E-1
3.702597344E1,5.111199856E0,2.514799833E0,1.421399951E0
3.704597344E1,9.463999867E-1,-6.352999806E-1,4.492399693E0
3.706597344E1,-3.660199881E0,-4.373499870E0,7.608899593E0
3.708597969E1,-8.022500038E0,-8.236999512E0,6.468699932E0
3.711597500E1,-1.152330017E1,-5.651199818E0,-6.114000082E-1
3.714597344E1,-6.800199986E0,1.189499974E0,4.229099751E0
3.716597344E1,3.899999857E-1,1.817999929E-1,-3.495899916E0
3.718597500E1,3.934799910E0,-7.328899860E0,-7.221299648E0
3.721597344E1,8.604000092E0,-8.979000092E0,-4.992199898E0
3.723597344E1,7.736299992E0,2.318199873E0,-5.606100082E0
3.725597500E1,7.415099621E0,8.080800056E0,-3.632299900E0
3.727597500E1,1.046579933E1,9.691299438E0,-1.430099964E0
3.730597344E1,6.739199638E0,8.003999591E-1,3.987999856E-1
3.732597500E1,4.160799980E0,-1.956599951E0,-6.530999541E-1
3.735597344E1,3.120999932E-1,-2.287999868E0,-3.552799940E0
3.737597344E1,-2.807199955E0,-1.706999898E0,-2.995299816E0
3.739597500E1,-3.490700006E0,7.051999569E-1,-3.424499989E0
3.742597344E1,-7.437199593E0,1.276600003E0,1.364099979E0
3.744597344E1,-6.867199898E0,9.598000050E-1,3.255100012E0
3.746597344E1,-3.508999944E-1,-1.428699970E0,2.450399876E0
3.748597344E1,3.503000021E0,1.904999912E-1,1.183599949E0
3.750597344E1,3.229499817E0,6.491000056E-1,-7.515000105E-1
3.752597344E1,6.183999777E-1,4.948999882E-1,6.536999941E-1
3.754597500E1,-1.686399937E0,6.696000099E-1,2.372499943E0
3.757597344E1,-3.990700006E0,6.410999894E-1,1.030099988E0
3.759597344E1,-4.957200050E0,4.611999989E-1,-1.020999998E-1
3.761597500E1,-5.830100060E0,5.780999660E-1,-3.725999892E-1
3.764597500E1,-5.014999866E0,5.018000007E-1,3.260000050E-1
3.767597344E1,-2.139199972E0,-4.601999819E-1,1.015799999E0
3.769597500E1,-9.068999887E-1,-2.236700058E0,1.770299911E0
3.772597344E1,-2.308999896E-1,-2.786200047E0,4.572099686E0
3.774597344E1,-3.826599836E0,-3.891799927E0,4.530699730E0
3.776597500E1,-6.370999813E0,-7.053400040E0,4.932399750E0
3.779597344E1,1.197399974E0,-4.325500011E0,1.647300005E0
3.781597344E1,5.765299797E0,-2.312599897E0,-1.381500006E0
3.783597500E1,8.439700127E0,-3.816699982E0,-1.890399933E0
3.786597344E1,1.206279945E1,-3.214900017E0,-8.495999575E-1
3.788597344E1,6.454799652E0,-3.671999872E-1,-1.916199923E0
3.790597344E1,3.697700024E0,1.989099979E0,-3.966599941E0
3.792597344E1,2.168799877E0,3.404399872E0,-5.935899734E0
3.794597344E1,5.460000038E-1,3.584699869E0,-6.936199665E0
3.796597344E1,-3.014000058E-1,3.866499901E0,-6.166299820E0
3.798597500E1,-4.329999983E-1,3.804099798E0,-3.864699841E0
3.801597344E1,7.374999523E-1,3.349200010E0,-1.869099975E0
3.803597344E1,2.723199844E0,3.243000031E0,-2.666100025E0
3.805597500E1,4.655200005E0,2.386800051E0,-3.359799862E0
3.807597500E1,1.044369984E1,1.336799979E0,-1.344999909E0
3.810597344E1,1.197539997E1,-5.002199650E0,6.917799950E0
3.812597500E1,3.891499996E0,-7.871299744E0,1.050199986E1
3.814597500E1,-1.483999938E-1,-8.026299477E0,3.091099977E0
3.817597344E1,-1.915299892E0,-5.110699654E0,-6.011699677E0
3.819597344E1,7.159999758E-2,3.452099800E0,-6.065000057E0
3.821597344E1,1.997299910E0,3.262399912E0,-4.994499683E0
3.823597344E1,2.583999932E-1,2.783599854E0,-4.165400028E0
3.825597500E1,-2.281800032E0,-8.295999765E-1,-4.990999699E0
3.827597500E1,-4.834899902E0,-3.560599804E0,-2.785099983E0
3.830597344E1,-4.875499725E0,-4.181999862E-1,1.144299984E0
3.832597500E1,3.565999866E-1,2.048300028E0,3.155900002E0
3.834597500E1,4.056999683E0,1.579999924E0,3.540799856E0
3.837597344E1,3.046799898E0,-2.069799900E0,-3.993999958E-1
3.839597344E1,3.064199924E0,-1.627999902E0,-1.874699950E0
3.841597500E1,2.427599907E0,-6.329999864E-2,-2.586499929E0
3.844597344E1,9.146999717E-1,9.770999551E-1,-2.641099930E0
3.846597344E1,5.139999837E-2,9.524999857E-1,-2.155499935E0
3.848597500E1,-1.680799961E0,4.537999928E-1,-1.635999918E0
3.851597344E1,-2.551300049E0,-2.258999944E-1,-2.188099861E0
3.853597344E1,-6.543999910E-1,-9.666999578E-1,-2.997900009E0
3.855597500E1,3.055199862E0,-1.583899975E0,-4.249399662E0
3.857597500E1,5.203599930E0,-3.558999896E-1,-4.972699642E0
3.860597344E1,4.915899754E0,4.305000007E-1,-4.429399967E0
3.862601562E1,3.987899780E0,-1.230499983E0,-6.061399937E0
3.865597344E1,-1.689799905E0,-1.874499917E0,-5.138599873E0
3.867597344E1,-4.007800102E0,-1.967899919E0,4.602999985E-1
3.869597500E1,-2.041699886E0,-7.858999968E-1,4.973599911E0
3.872597344E1,1.581900001E0,3.533999920E-1,3.671999931E0
3.874597344E1,2.973099947E0,-8.118000031E-1,3.861299992E0
3.876597500E1,3.059499979E0,-2.085199833E0,4.188099861E0
3.879597344E1,3.321999907E-1,-1.803399920E0,5.653699875E0
3.881597344E1,-3.580999851E0,-2.657299995E0,3.505499840E0
3.883597500E1,-6.426899910E0,-1.762300014E0,3.280999959E-1
3.885597656E1,-5.201900005E0,5.999000072E-1,-2.096299887E0
3.888597344E1,-3.695799828E0,3.381199837E0,-2.758599997E0
3.890597500E1,-3.024699926E0,4.152999878E0,-2.557600021E0
3.893597344E1,-1.364899993E0,2.122599840E0,-1.651499987E0
3.895597344E1,-4.399999976E-3,4.662999809E-1,-7.358999848E-1
3.897597500E1,2.200799942E0,2.019999921E-1,-6.786999702E-1
3.900597344E1,5.747900009E0,1.575099945E0,-8.288999796E-1
3.902597344E1,6.809599876E0,1.909899950E0,-7.404999733E-1
3.904597344E1,5.540400028E0,1.225099921E0,-1.666099906E0
3.906597344E1,2.907699823E0,-3.125000000E-1,-2.224400043E0
3.908597344E1,9.861999750E-1,-1.604900002E0,-1.024299979E0
3.910597344E1,9.128999710E-1,-2.391499996E0,1.141999960E0
3.912597500E1,2.306599855E0,-1.801699996E0,2.587599993E0
3.914597500E1,2.338899851E0,-9.686999917E-1,2.098099947E0
3.917597344E1,6.504999995E-1,6.629999727E-2,-1.066100001E0
3.919597500E1,-5.726999640E-1,2.845999897E-1,-2.289700031E0
3.922597344E1,-1.475899935E0,1.010499954E0,-2.746599913E0
3.924597344E1,-4.910999835E-1,1.828399897E0,-9.111999869E-1
3.926597500E1,1.348399997E0,-5.356999636E-1,2.843600035E0
3.929597344E1,-6.633199692E0,4.254999757E-1,-2.507999837E-1
3.931597344E1,-7.187899590E0,1.136099935E0,-8.127300262E0
3.933597500E1,-4.390699863E0,3.139999866E0,-7.048399925E0
3.936597500E1,4.728799820E0,-6.373999715E-1,4.137099743E0
3.939597344E1,6.430799961E0,-8.514100075E0,1.431459999E1
3.941597344E1,-1.015699983E0,-6.860499859E0,8.011899948E0
3.943597344E1,-2.421999931E0,6.231999993E-1,-6.281999946E-1
3.945597344E1,-1.807899952E0,1.007799983E0,-3.350999832E0
3.947597344E1,-7.029999793E-2,1.538299918E0,-1.543699980E0
3.949597344E1,5.999999703E-4,2.858999968E0,3.870999813E-1
3.951597344E1,-1.077700019E0,1.421299934E0,2.458999902E-1
3.953597344E1,-2.414799929E0,-7.040999532E-1,-6.678999662E-1
3.955597344E1,-2.041100025E0,-6.534000039E-1,-3.331300020E0
3.957597500E1,-3.049199820E0,-2.049599886E0,-5.486099720E0
3.960597344E1,-5.612299919E0,-1.645499945E0,-1.740999967E-1
3.962597500E1,-4.294499874E0,-1.747799993E0,1.169700027E0
3.965597344E1,-1.452199936E0,-2.043499947E0,-7.841999531E-1
3.967597344E1,-1.027400017E0,-9.503999949E-1,-1.000800014E0
3.969597500E1,-3.808999956E-1,4.266999960E-1,-5.577999949E-1
3.972597344E1,1.667999923E-1,1.088799953E0,-8.108999729E-1
3.974597344E1,-8.175999522E-1,7.935000062E-1,-1.278999925E0
3.976597344E1,-1.786000013E0,8.689000010E-1,-4.019999877E-2
3.978597344E1,-1.801299930E0,1.165300012E0,1.553099990E0
3.980597344E1,-1.383399963E0,1.087599993E0,1.860799909E0
3.982597500E1,-8.161999583E-1,5.518999696E-1,1.239300013E0
3.985597344E1,-1.358999908E-1,-2.206999958E-1,1.844399929E0
3.987597344E1,-3.604999781E-1,-1.002999991E-1,2.544399977E0
3.989597344E1,-1.237200022E0,9.829999506E-2,3.393699884E0
3.991597344E1,-2.911700010E0,-1.827999949E-1,3.913499832E0
3.993597344E1,-4.287300110E0,-6.556999683E-1,4.144199848E0
3.995597344E1,-4.325999737E0,-1.452899933E0,5.113499641E0
3.997597344E1,-1.624499917E0,-1.335699916E0,7.949499607E0
3.999597344E1,2.530599833E0,-5.309000015E-1,8.955399513E0
4.001597344E1,2.199499846E0,-2.139400005E0,4.884099960E0
4.003597344E1,5.399999674E-3,-4.102999687E0,2.649199963E0
4.005597500E1,-8.129999638E-1,-5.380499840E0,-2.038999945E-1
4.008597344E1,-6.153999567E-1,-6.508299828E0,-4.733099937E0
4.010597344E1,-2.093999982E-1,-6.172800064E0,-5.923999786E0
4.012597344E1,-3.197000027E-1,-5.341000080E0,-7.755099773E0
4.014597500E1,-3.527299881E0,-1.980699897E0,-6.810499668E0
4.017597344E1,-6.384500027E0,1.745099902E0,-2.706300020E0
4.019597500E1,-3.259199858E0,3.157999992E0,-3.411499977E0
4.021597500E1,1.527299976E1,7.874699593E0,-9.568799973E0
4.024597344E1,-2.709999979E-1,-2.606799841E0,-1.270000041E-1
4.026597500E1,-3.184700012E0,-8.657000065E-1,-4.222099781E0
4.029597344E1,-5.624499798E0,2.854599953E0,-2.695499897E0
4.031598125E1,1.979999989E-2,4.090899944E0,3.217000067E-1
4.034597344E1,7.404299736E0,2.582200050E0,-8.766399384E0
4.036598438E1,9.435599327E0,1.874699950E0,-9.144399643E0
4.039597344E1,2.721599817E0,6.825000048E-1,-3.167500019E0
4.041599219E1,4.269999862E-1,1.531700015E0,-7.037000060E-1
4.044597344E1,-1.465999961E0,-9.296999574E-1,1.327700019E0
4.046598594E1,4.545999765E-1,-6.678899765E0,2.492799997E0
4.049597344E1,2.090499878E0,-1.211759949E1,1.711199999E0
4.051598281E1,5.290800095E0,-7.463099957E0,3.924299955E0
4.054597500E1,1.246719933E1,3.994299889E0,8.391599655E0
4.056598281E1,1.584919930E1,7.054999828E0,6.612699986E0
4.059597344E1,9.215499878E0,-2.009999990E0,-7.371299744E0
4.061598281E1,2.910399914E0,-6.691699982E0,-1.411859989E1
4.064597344E1,-3.507200003E0,-5.609999970E-2,-9.460399628E0
4.066597812E1,-6.148399830E0,4.673099995E0,3.023799896E0
4.069597500E1,-1.007940006E1,9.078999758E-1,1.593999982E0
4.071598750E1,-5.059099674E0,1.744300008E0,-4.979399681E0
4.074597344E1,-2.402400017E0,-3.599999845E-2,-3.411000013E0
4.076598438E1,-1.395699978E0,-1.997999907E0,-3.727999926E0
4.079597344E1,-2.863999903E-1,-3.533099890E0,-1.959999919E0
4.081597969E1,2.099299908E0,-2.487599850E0,1.199299932E0
4.084597500E1,3.857499838E0,-3.570000082E-2,5.800999641E0
4.086597656E1,2.873399973E0,-3.143000007E-1,2.844300032E0
4.089597344E1,1.537699938E0,7.956999540E-1,-2.319000006E0
4.091598281E1,6.374999881E-1,1.328400016E0,-2.869499922E0
4.094597344E1,2.680000067E-1,3.145999908E-1,-7.999999798E-4
4.096597344E1,-3.348000050E-1,-5.476999879E-1,1.160899997E0
4.098597344E1,-1.612699986E0,-8.147999644E-1,1.525000036E-1
4.100597344E1,-3.126499891E0,-4.005999863E-1,-2.215600014E0
4.102597344E1,-3.897699833E0,-3.510999978E-1,-4.725999832E0
4.104597500E1,-3.990700006E0,-5.414000154E-1,-3.787499905E0
4.107597500E1,-4.300799847E0,-9.765999913E-1,8.439999819E-2
4.110597344E1,-6.000999808E-1,-4.522999823E-1,1.497099996E0
4.112597344E1,2.413599968E0,-9.979999810E-2,1.546999931E0
4.114597344E1,3.555899858E0,9.099999815E-2,1.294799924E0
4.116597344E1,2.666399956E0,8.879999816E-2,-1.330000013E-1
4.118597500E1,1.450500011E0,7.979999483E-2,-1.930999994E0
4.121597344E1,-2.987000048E-1,8.699999750E-2,-3.171700001E0
4.123597500E1,-1.291399956E0,-5.549999699E-2,-2.931299925E0
4.125597500E1,-1.809299946E0,-3.822999895E-1,-2.583400011E0
4.127597500E1,-1.491400003E0,-3.838999867E-1,-2.430099964E0
4.130597344E1,-3.066000044E-1,9.059999883E-2,-2.097300053E0
4.132597344E1,3.878999949E-1,3.933999836E-1,-1.975199938E0
4.134597344E1,9.883999825E-1,6.190999746E-1,-1.611799955E0
4.136597344E1,1.639199972E0,5.455999970E-1,-8.510999680E-1
4.138597344E1,1.767399907E0,1.147999987E-1,3.567999899E-1
4.140597344E1,1.627900004E0,-5.303999782E-1,1.034099936E0
4.142597344E1,1.674299955E0,-7.092999816E-1,8.305999637E-1
4.144597344E1,1.849099994E0,-6.505999565E-1,1.409999933E-2
4.146597344E1,1.767799973E0,-3.739999831E-1,-5.961999893E-1
4.148597500E1,1.806999922E0,-9.269999713E-2,-9.522999525E-1
4.151597344E1,1.871999979E0,-2.421000004E-1,-7.267999649E-1
4.153597344E1,2.271600008E0,-1.343799949E0,1.726000011E-1
4.155597500E1,2.123499870E0,-2.092099905E0,1.056200027E0
4.158597344E1,1.260900021E0,-2.175000012E-1,6.900999546E-1
4.160597344E1,2.050799847E0,1.891999990E-1,8.199999481E-2
4.162597344E1,1.975899935E0,-9.609999508E-2,7.306999564E-1
4.164597344E1,-7.999999821E-2,-1.740999967E-1,1.763599992E0
4.166597344E1,-1.814299941E0,3.130999804E-1,2.709699869E0
4.168597500E1,-3.059899807E0,-1.812999994E-1,3.292999983E0
4.171597344E1,-4.049699783E0,-1.524299979E0,1.453499913E0
4.173597344E1,-3.184700012E0,-1.509400010E0,6.799999624E-3
4.175597500E1,-1.053599954E0,-4.166999757E-1,8.339999914E-1
4.178597344E1,3.646499872E0,1.626399994E0,3.987999856E-1
4.180597344E1,5.742899895E0,2.412899971E0,-3.945699930E0
4.182597344E1,5.747299671E0,2.963500023E0,-5.372699738E0
4.184597344E1,3.613499880E0,2.240000010E0,-4.440700054E0
4.186597344E1,2.078000009E-1,1.254400015E0,-3.594499826E0
4.188597344E1,-1.824999899E-1,1.299000025E0,-4.540999889E0
4.190597500E1,1.930999994E0,1.290199995E0,-6.262799740E0
4.193597344E1,2.831499815E0,8.679999709E-1,-3.203199863E0
4.195597344E1,2.936399937E0,4.894999862E-1,-2.159800053E0
4.197597500E1,3.481099844E0,-4.726999998E-1,-2.605999947E0
4.200597344E1,3.894599915E0,3.328999877E-1,-2.356600046E0
4.202597344E1,1.929099917E0,6.359999627E-2,-3.318699837E0
4.204597500E1,9.618999958E-1,-1.516600013E0,-1.349399924E0
4.207597344E1,-8.398000002E-1,-3.206699848E0,-3.587099791E0
4.209597344E1,-6.050999761E-1,-1.582099915E0,-3.467799902E0
4.211597344E1,2.764600039E0,-8.646000028E-1,4.305000007E-1
4.213597344E1,7.808499813E0,-2.909699917E0,1.402909946E1
4.215597344E1,3.853199959E0,-1.967099905E0,-2.988799810E0
4.217597344E1,-2.891499996E0,-1.064599991E0,-8.727899551E0
4.219597344E1,-1.807699919E0,2.413800001E0,-8.965000153E0
4.221597344E1,-6.333000064E-1,2.924700022E0,-6.682499886E0
4.223597344E1,-1.689399958E0,-1.031800032E0,-1.273699999E0
4.225597500E1,-5.190499783E0,-7.241299629E0,1.066799927E1
4.228597344E1,-6.219699860E0,-4.101299763E0,4.439499855E0
4.230597344E1,-5.080999732E-1,1.975600004E0,-4.976399899E0
4.232597344E1,1.078199983E0,1.844900012E0,-4.443999827E-1
4.234597344E1,2.611099958E0,1.568000019E-1,4.602099895E0
4.236597344E1,1.026299953E0,5.295999646E-1,9.490999579E-1
4.238597344E1,-2.094099998E0,-1.116599917E0,-5.617599964E0
4.240597500E1,-3.494899988E0,-1.007200003E0,-7.006799698E0
4.243597344E1,-7.842199802E0,5.906999707E-1,-3.404999971E-1
4.245597344E1,-9.091799736E0,8.833999634E-1,4.092000008E0
4.247597500E1,-4.309899807E0,-5.351999998E-1,2.019500017E0
4.250597344E1,7.167999744E-1,-4.648999870E-1,-8.636999726E-1
4.252597344E1,8.585999608E-1,1.032400012E0,-8.894000053E-1
4.254597500E1,1.967999935E-1,1.772300005E0,1.011600018E0
4.257597344E1,2.672999799E-1,9.091999531E-1,8.693000078E-1
4.259597344E1,9.017999768E-1,6.836999655E-1,7.105999589E-1
4.261597500E1,2.789999917E-2,6.599000096E-1,6.818000078E-1
4.264597500E1,-1.912299991E0,1.644699931E0,1.027699947E0
4.267597344E1,-1.335799932E0,1.456099987E0,1.770999908E0
4.269597344E1,-1.295300007E0,4.817999899E-1,1.517599940E0
4.271597344E1,-2.452100039E0,-2.998999953E-1,5.248999596E-1
4.273597344E1,-4.189799786E0,-6.068999767E-1,1.596300006E0
4.275597500E1,-4.879399776E0,-1.016299963E0,3.017499924E0
4.277597500E1,-4.427099705E0,-1.133000016E0,3.502199888E0
4.280597344E1,-2.771699905E0,-2.653499842E0,5.187399864E0
4.282597344E1,-5.672000051E-1,-2.663699865E0,5.298699856E0
4.284597500E1,1.117799997E0,-2.686399937E0,7.352999687E0
4.287597812E1,1.772199988E0,-1.883099914E0,6.810299873E0
4.290597500E1,4.192800045E0,-3.191499949E0,5.248899937E0
4.293597344E1,-1.373199940E0,-5.139899731E0,-4.481100082E0
4.295597344E1,-3.699100018E0,-2.270099878E0,-7.127799988E0
4.297597500E1,-4.395699978E0,-1.098299980E0,-4.968899727E0
4.300597344E1,-8.529799461E0,-3.051699877E0,1.602199912E0
4.302597344E1,-4.688899994E0,-1.622799993E0,1.202799916E0
4.304597500E1,-5.399999768E-2,-7.998999953E-1,-3.735399961E0
4.307597500E1,3.836199999E0,-5.137000084E-1,-4.404999733E0
4.310597344E1,4.230400085E0,2.766000032E-1,-8.741999865E-1
4.312597500E1,1.964199901E0,1.629999995E0,-3.517999947E-1
4.315597344E1,2.788999975E-1,2.992599964E0,-3.999399900E0
4.317597344E1,1.165899992E0,3.559899807E0,-3.754799843E0
4.319597500E1,2.676300049E0,3.627300024E0,-2.818500042E0
4.322597344E1,3.232299805E0,3.087800026E0,-2.790799856E0
4.324597344E1,2.875900030E0,2.750900030E0,-3.268399954E0
4.326597500E1,2.528899908E0,2.740499973E0,-3.469399929E0
4.329597344E1,2.169600010E0,3.433099985E0,-2.416299820E0
4.331597344E1,7.568999529E-1,3.388599873E0,-6.457999945E-1
4.333597500E1,-1.755199909E0,1.539799929E0,2.704699993E0
4.336597344E1,-7.930500031E0,-7.618199825E0,1.417449951E1
4.338597969E1,-8.135399818E0,-1.001739979E1,9.144999504E0
4.341597344E1,-4.390999973E-1,-8.730999827E-1,4.839600086E0
4.343597344E1,3.008199930E0,2.741199970E0,3.559899807E0
4.345597344E1,7.303599834E0,3.942799807E0,-2.315399885E0
4.347597500E1,7.144299984E0,3.892999887E-1,-7.294299603E0
4.350597344E1,5.811199665E0,-1.098289967E1,-6.221999645E0
4.352597344E1,-1.275499940E0,-8.498799324E0,-1.922499895E0
4.354597500E1,-1.095799923E0,1.263800025E0,1.199399948E0
4.357597500E1,3.704999924E0,7.944099903E0,-3.299599886E0
4.360597344E1,2.454999924E0,6.224400043E0,-6.352999687E0
4.362597500E1,5.515999794E-1,-4.600000102E-3,-6.162099838E0
4.365597344E1,5.342000127E-1,-3.465299845E0,-3.347899914E0
4.367597500E1,-7.511000037E-1,-1.498999953E0,-3.287000060E-1
4.370597344E1,-2.123100042E0,4.378999770E-1,6.666299820E0
4.372597344E1,-1.360299945E0,3.427000046E-1,2.565500021E0
4.374597500E1,-8.698999882E-1,8.425999880E-1,-3.042299986E0
4.377597344E1,-7.554000020E-1,8.820999861E-1,-4.014999866E0
4.379598125E1,-1.049600005E0,5.374000072E-1,-1.493999958E0
4.382597344E1,-1.658299923E0,4.027999938E-1,8.879999816E-2
4.384597344E1,-7.414000034E-1,4.125999808E-1,1.534999907E-1
4.386597344E1,4.663999975E-1,-3.249999881E-2,-6.889999658E-2
4.388597344E1,1.402699947E0,-6.482999921E-1,3.139999881E-2
4.390597500E1,1.917799950E0,-1.202899933E0,1.187799931E0
4.393597344E1,6.378999949E-1,-1.214599967E0,4.621699810E0
4.395597344E1,-2.476099968E0,-1.687199950E0,4.059199810E0
4.397597500E1,-5.803799629E0,-3.029199839E0,2.455600023E0
4.400597344E1,-7.533399582E0,-2.164999962E0,2.701400042E0
4.402597344E1,-6.431499958E0,-2.464299917E0,2.001100063E0
4.404597500E1,-5.704400063E0,-4.658499718E0,2.580899954E0
4.407597344E1,-3.753299952E0,-3.238299847E0,4.711199760E0
4.409597344E1,-3.935999870E-1,-1.748600006E0,3.845999956E0
4.411597500E1,2.403399944E0,-1.670300007E0,1.128799915E0
4.414597500E1,4.239200115E0,-3.207700014E0,-1.160799980E0
4.417597344E1,4.497699738E0,-5.186699867E0,-1.307500005E0
4.419597500E1,6.206199646E0,-3.122699976E0,-1.467499971E0
4.422597500E1,4.174900055E0,5.727999806E-1,-1.504999995E-1
4.425597344E1,9.074999690E-1,7.389000058E-1,-3.615099907E0
4.427597500E1,9.418999553E-1,1.022300005E0,-5.762700081E0
4.430597344E1,1.460399985E0,1.531000018E0,-2.739300013E0
4.432597344E1,2.177999973E0,2.245800018E0,-1.355499983E0
4.434597344E1,3.767299891E0,2.962699890E0,-1.987999916E0
4.436597500E1,4.764400005E0,3.486199856E0,-3.162499905E0
4.439597344E1,4.099499702E0,3.711399794E0,-3.633799791E0
4.441597344E1,3.798599958E0,4.019899845E0,-3.268599987E0
4.443597344E1,3.486699820E0,4.127099991E0,-2.756599903E0
4.445597344E1,3.262799978E0,3.922299862E0,-2.484400034E0
4.447597500E1,2.375000000E0,3.206099987E0,-2.112099886E0
4.450597344E1,-1.255199909E0,9.882999659E-1,7.590999603E-1
4.452597344E1,-5.986499786E0,-2.140300035E0,7.331699848E0
4.454597500E1,-1.110849953E1,-7.336899757E0,1.556579971E1
4.457597500E1,-4.727099895E0,-7.698099613E0,3.087100029E0
4.460597344E1,2.158200026E0,-3.260599852E0,6.854000092E-1
4.462597344E1,4.064300060E0,2.202499866E0,1.646199942E0
4.464597344E1,7.929499626E0,7.457999706E0,5.812999606E-1
4.466597344E1,1.106040001E1,6.206500053E0,-3.503899813E0
4.468597500E1,1.242579937E1,-1.722199917E0,-5.705699921E0
4.471597344E1,7.986299992E0,-9.651899338E0,-5.885299683E0
4.473597344E1,-1.171299934E0,-2.613299847E0,1.473999918E-1
4.475597344E1,-2.921999931E0,3.763000011E0,5.329799652E0
4.477597344E1,1.198999956E-1,4.556799889E0,-1.181699991E0
4.479597344E1,3.729999959E-1,4.414199829E0,-7.981799603E0
4.481597344E1,-3.024199963E0,7.229999900E-1,-1.046539974E1
4.483597500E1,-4.407299995E0,-2.097199917E0,-6.082900047E0
4.486597344E1,-2.881899834E0,-1.348500013E0,1.522359943E1
4.488597344E1,1.197999939E-1,8.140999675E-1,6.486199856E0
4.490597344E1,-2.069000006E-1,1.643399954E0,-4.883999825E-1
4.492597344E1,-3.789999783E-1,2.098500013E0,-4.363199711E0
4.494597344E1,-9.663999677E-1,1.238199949E0,-2.953899860E0
4.496597344E1,-2.672199965E0,3.359999955E-1,-2.870000005E-1
4.498597344E1,-3.775299788E0,-4.189999774E-2,6.712999940E-1
4.500597344E1,-2.866600037E0,-1.444000006E-1,1.400000006E-1
4.502597344E1,-1.545499921E0,6.039999798E-2,4.641999900E-1
4.504597500E1,-7.906000018E-1,5.651000142E-1,5.194000006E-1
4.507597500E1,-8.817999959E-1,2.840000018E-2,3.568999767E-1
4.510597344E1,4.954999983E-1,-1.858699918E0,4.256999791E-1
4.512597344E1,1.875000000E0,-3.276999950E0,2.098500013E0
4.514597344E1,1.377399921E0,-3.948699951E0,5.531599998E0
4.516597344E1,-3.451799870E0,-5.759799957E0,7.366199970E0
4.518597500E1,-8.619199753E0,-7.277799606E0,6.605999947E0
4.521597344E1,-1.305809975E1,-7.646499634E0,3.428799868E0
4.523597500E1,-1.280389977E1,-7.273099899E0,4.560999870E0
4.526597500E1,-1.164559937E1,-1.378399968E0,1.276000023E0
4.529597344E1,-6.311500072E0,-3.126799822E0,-2.099499941E0
4.531597344E1,-2.199199915E0,-7.457199574E0,-4.045099735E0
4.533597500E1,1.588199973E0,-7.076699734E0,-2.875999928E0
4.536597344E1,6.773200035E0,-6.618499756E0,5.047999620E-1
4.538597344E1,9.057000160E0,-3.739399910E0,1.244099975E0
4.540597500E1,9.442199707E0,1.097499967E0,8.244999647E-1
4.543597344E1,5.013299942E0,4.116399765E0,-2.961499929E0
4.545597344E1,4.023099899E0,4.692399979E0,-5.438199997E0
4.547597500E1,3.997599840E0,5.522500038E0,-6.298899651E0
4.550597344E1,3.727799892E0,6.351899624E0,-6.097300053E0
4.552597344E1,2.923899889E0,5.401799679E0,-5.947599888E0
4.554597344E1,2.155200005E0,3.047999859E0,-3.274099827E0
4.556597344E1,4.040299892E0,1.097499967E0,-6.944999695E-1
4.558597344E1,4.294300079E0,7.732999921E-1,-1.148499966E0
4.560597344E1,-2.428400040E0,4.017999768E-1,2.203999907E-1
4.562597344E1,-8.493599892E0,-5.006999969E-1,3.499499798E0
4.564597344E1,-7.817999840E0,-2.204999924E-1,5.937200069E0
4.566597344E1,-4.484799862E0,-5.036999583E-1,4.527999759E-1
4.568597500E1,-1.734899998E0,2.620999813E-1,-3.890999854E-1
4.571597344E1,3.876899958E0,4.447000027E0,-1.515609932E1
4.573597344E1,6.259299755E0,7.432299614E0,-1.812949944E1
4.575597344E1,1.240100026E0,-1.257100010E1,3.157119942E1
4.577597500E1,1.457189941E1,-9.957399368E0,-2.710799932E0
4.580597344E1,1.981799960E0,8.382699966E0,3.832000017E0
4.582597344E1,-2.062999904E-1,1.063099957E1,-6.500599861E0
4.584597344E1,6.763799667E0,8.946899414E0,-4.005099773E0
4.586597344E1,6.729699612E0,1.494599938E0,-4.499399662E0
4.588597344E1,5.435400009E0,-2.011600018E0,-4.034199715E0
4.590597500E1,3.578199863E0,-6.988899708E0,-6.129199982E0
4.593597344E1,-1.916799903E0,-1.582929993E1,-1.048950005E1
4.595597344E1,-1.335869980E1,-2.109619904E1,4.043699741E0
4.597597500E1,-1.502909946E1,-1.634569931E1,1.217439938E1
4.600597344E1,-8.401700020E0,-7.802899837E0,6.317499638E0
4.602597344E1,-4.748300076E0,-3.079399824E0,6.568199635E0
4.604597500E1,-7.676599979E0,7.465999722E-1,9.441999435E0
4.607597500E1,-1.630909920E1,7.430099964E0,7.628199577E0
4.610597344E1,-1.510289955E1,1.228739929E1,1.243639946E1
4.612597344E1,-6.983199596E0,4.265100002E0,4.900199890E0
4.614597500E1,-1.968799949E0,-1.002900004E0,5.414999962E0
4.617597344E1,-5.118099689E0,-1.579839993E1,-4.058199883E0
4.619597344E1,1.445099950E0,-2.301429939E1,-5.460499763E0
4.621597344E1,1.735949898E1,-2.651319885E1,-2.665599823E0
4.623597344E1,2.267199898E1,-1.697809982E1,2.907699823E0
4.625597344E1,9.416799545E0,-3.706699848E0,1.690400004E0
4.627597344E1,6.397099972E0,3.510599852E0,-6.786399841E0
4.629597344E1,3.665699959E0,5.201399803E0,-1.060719967E1
4.631597344E1,1.359399915E0,5.128799915E0,-9.636699677E0
4.633597500E1,1.678999960E-1,6.231999874E0,-7.520799637E0
4.635597500E1,-1.948899984E0,7.294999599E0,-8.657099724E0
4.637597500E1,-9.305999875E-1,8.550799370E0,-1.186629963E1
4.639597500E1,-4.576999843E-1,9.181399345E0,-9.177700043E0
4.641597500E1,-1.592999935E0,8.521699905E0,-4.808899879E0
4.643597500E1,-1.456699967E0,9.558300018E0,5.392799854E0
4.645597500E1,-1.352159977E1,-5.196700096E0,4.562049866E1
4.647597500E1,9.181200027E0,5.432499886E0,-1.167449951E1
4.650597500E1,2.861269951E1,3.876999915E-1,-1.263630009E1
4.652597500E1,1.811299896E1,-2.277029991E1,5.534999967E-1
4.654597500E1,2.614899874E0,-3.053649902E1,-1.040530014E1
4.656597500E1,2.246999890E-1,-1.983769989E1,-1.322149944E1
4.658597500E1,-5.715199947E0,-1.694420052E1,8.836699486E0
4.660597500E1,-1.384919930E1,-7.102499962E0,5.448320007E1
4.662597500E1,6.772999763E-1,1.258000016E0,-7.324499607E0
4.664597500E1,6.619699955E0,4.713200092E0,-1.392479992E1
4.666597500E1,-2.039399862E0,6.152699947E0,-6.548599720E0
4.668597500E1,-1.551459980E1,9.024399757E0,1.531509972E1
4.670597500E1,-3.815500021E0,9.100099564E0,-2.951499939E0
4.673597500E1,7.473899841E0,4.343800068E0,-3.767399788E0
4.676597500E1,2.921599865E0,1.877599955E0,-5.405600071E0
4.679597344E1,5.542900085E0,2.424099922E0,-6.782499790E0
4.681597500E1,7.098000050E0,5.783999562E-1,-1.415100002E1
4.683597500E1,6.545499802E0,-3.778999805E0,-2.031320000E1
