"Time (s)","Acceleration x (m/s^2)","Acceleration y (m/s^2)","Acceleration z (m/s^2)"
0.000000000E0,-4.091948986E0,2.586379290E0,5.465177059E0
2.199687500E-2,-4.518289566E0,2.549154520E0,7.485854626E0
4.199843800E-2,-4.794149399E0,2.662218332E0,7.711781025E0
6.199843800E-2,-5.173362255E0,2.626400948E0,7.871177673E0
8.199843800E-2,-5.495803833E0,2.480144024E0,8.101136208E0
1.020000000E-1,-5.366373062E0,2.243721485E0,7.932009220E0
1.239953130E-1,-4.916655540E0,1.985386968E0,8.066726685E0
1.439968750E-1,-4.694426060E0,1.963561416E0,8.247297287E0
1.659953130E-1,-4.694081306E0,1.811778545E0,8.431018829E0
1.859953130E-1,-4.695364952E0,1.740718722E0,8.470187187E0
2.059968750E-1,-4.885387897E0,1.739090681E0,8.415389061E0
2.259984380E-1,-4.723740578E0,1.666297317E0,8.326766014E0
2.479968750E-1,-4.975591660E0,1.676132679E0,8.013393402E0
2.679984380E-1,-4.820734978E0,1.716345668E0,8.210502625E0
2.899968750E-1,-4.263823986E0,1.593073130E0,8.668725014E0
3.119968750E-1,-4.157071590E0,1.428217888E0,8.741527557E0
3.320000000E-1,-4.016474247E0,1.198671341E0,8.478969574E0
3.539968750E-1,-3.618443012E0,1.028290510E0,8.471039772E0
3.739984380E-1,-3.353481770E0,7.957560420E-1,9.024272919E0
3.959968750E-1,-3.454833031E0,5.275096297E-1,1.001768494E1
4.159968750E-1,-3.535546303E0,5.277395248E-1,1.057881832E1
4.359968750E-1,-3.195167542E0,4.455226362E-1,1.060285664E1
4.559968750E-1,-2.943651915E0,6.965020299E-1,9.989912033E0
4.759968750E-1,-2.427797079E0,5.162377954E-1,9.507739067E0
4.959968750E-1,-2.246077061E0,5.415971875E-1,9.410352707E0
5.160015630E-1,-2.220220089E0,6.454768181E-1,9.556982040E0
5.379968750E-1,-2.142293453E0,5.179424286E-1,9.444704056E0
5.580015630E-1,-2.125486135E0,5.693794489E-1,9.301568985E0
5.799968750E-1,-1.985176325E0,6.363117695E-1,9.203963280E0
5.999984380E-1,-1.789522052E0,7.131943703E-1,9.603794098E0
6.219968750E-1,-1.409275055E0,6.330364943E-1,1.006965828E1
6.419968750E-1,-9.967253208E-1,3.710246682E-1,1.038432312E1
6.619968750E-1,-7.530530691E-1,1.629493684E-1,1.066156292E1
6.820031250E-1,-6.578117013E-1,1.169328094E-1,1.070884323E1
7.039968750E-1,-7.232595682E-1,4.326322377E-1,1.067581272E1
7.239968750E-1,-7.553993464E-1,6.966648102E-1,1.054141140E1
7.439968750E-1,-6.238235831E-1,9.341217875E-1,1.021425819E1
7.640015630E-1,-3.058257401E-1,9.890829921E-1,9.825353622E0
7.840015630E-1,1.579215378E-1,7.105320692E-1,9.460045815E0
8.060046880E-1,5.051478148E-1,2.024632692E-1,9.791538239E0
8.279968750E-1,5.296739936E-1,1.144428402E-1,9.934289932E0
8.479968750E-1,3.213018924E-2,3.366055787E-1,9.851660728E0
8.679968750E-1,-6.935906410E-1,6.898077726E-1,9.486143112E0
8.879968750E-1,-4.791084826E-1,2.517072260E-1,9.937919617E0
9.079968750E-1,2.580757737E-1,1.570117474E-1,9.711034775E0
9.279968750E-1,1.022122979E0,2.769229412E-1,9.837573051E0
9.480015630E-1,1.707611680E0,3.050979078E-1,9.710671425E0
9.699968750E-1,2.021357536E0,3.457705975E-1,9.629517555E0
9.900078130E-1,1.881689310E0,2.139745951E-1,9.504052162E0
1.011996875E0,1.091909170E0,5.845970511E-1,8.863440514E0
1.031996875E0,5.101181865E-1,8.045954108E-1,8.891921997E0
1.051996875E0,5.948058963E-1,8.802330494E-1,8.539983749E0
1.072006250E0,9.441103339E-1,1.004855990E0,8.403005600E0
1.093996875E0,1.256955981E0,1.267337203E0,8.336256027E0
1.114003125E0,1.233090401E0,1.536885977E0,8.107437134E0
1.135996875E0,7.851927876E-1,1.906129241E0,8.084845543E0
1.156000000E0,1.001638249E-1,2.375775814E0,8.568761826E0
1.177996875E0,4.101650715E-1,2.042531729E0,8.630206108E0
1.197996875E0,8.155800104E-1,1.853495240E0,8.547807693E0
1.217996875E0,6.711618304E-1,2.060718060E0,8.450458527E0
1.237996875E0,2.782732844E-1,2.356287003E0,8.469067574E0
1.257996875E0,1.244027261E-2,2.513021231E0,8.727219582E0
1.277996875E0,1.874468327E-1,2.186289310E0,8.894268036E0
1.297996875E0,2.760035694E-1,1.990251899E0,9.024100304E0
1.317996875E0,2.529234625E-2,1.956790686E0,9.518301964E0
1.338003125E0,-5.280651152E-2,1.676573277E0,1.066863918E1
1.359996875E0,-1.136767026E-2,1.439690948E0,1.134916687E1
1.380003125E0,-9.835380130E-3,1.400991082E0,1.090855789E1
1.401996875E0,2.214445025E-1,1.154244661E0,1.076437855E1
1.422004688E0,8.294472694E-1,8.688078821E-2,1.209894562E1
1.443996875E0,5.698200315E-3,3.969586641E-2,1.186426544E1
1.464003125E0,-5.509824157E-1,-2.525116503E-1,1.102191830E1
1.485998438E0,-1.122009158E0,-3.157473207E-1,9.612815857E0
1.507996875E0,-1.445733905E0,2.810792923E-1,9.590826988E0
1.528007813E0,-1.008112073E0,5.727696419E-1,9.498554230E0
1.549996875E0,-2.401671559E-1,2.516593337E-1,9.639477730E0
1.569996875E0,-2.765398920E-1,2.446969897E-1,9.871581078E0
1.589996875E0,-4.648007452E-1,2.724122703E-1,9.712605476E0
1.609996875E0,-4.325269163E-1,3.176243603E-1,8.909628868E0
1.629996875E0,-6.681546569E-1,8.515409827E-1,8.265837669E0
1.649996875E0,-1.000910401E0,1.589079618E0,8.064782143E0
1.669996875E0,-5.520167351E-1,1.568384051E0,7.855538368E0
1.689998438E0,-4.987313449E-1,1.716192484E0,7.446915627E0
1.712006250E0,-8.901354074E-1,1.865561962E0,7.604176044E0
1.733996875E0,-1.183990240E0,1.879735589E0,7.907415867E0
1.754000000E0,-1.124269247E0,1.769774795E0,8.588681221E0
1.775996875E0,-1.014346600E0,1.778202415E0,9.320445061E0
1.795996875E0,-7.605899572E-1,1.798936129E0,9.473942757E0
1.815996875E0,-5.924691558E-1,1.679254770E0,9.529766083E0
1.836006250E0,-5.995559692E-1,1.579023957E0,9.907024384E0
1.857996875E0,-6.117663980E-1,1.516650200E0,1.058149052E1
1.878004688E0,-2.933854759E-1,1.255279899E0,1.089844418E1
1.899996875E0,-2.323812097E-1,1.262893558E0,1.085872936E1
1.920001563E0,-3.543035686E-1,1.444383502E0,1.073741055E1
1.941996875E0,-2.246718854E-1,1.252512217E0,1.027125931E1
1.963996875E0,9.514653087E-1,5.402755737E-1,1.110851192E1
1.983996875E0,1.439844131E0,1.149216853E-2,1.217046452E1
2.003996875E0,9.831262827E-1,-1.627578288E-1,1.201638412E1
2.023996875E0,3.249410391E-1,-3.216849267E-1,1.113395691E1
2.043996875E0,-1.155824810E-1,-2.149993181E-2,1.025823498E1
2.063996875E0,3.714364767E-1,2.962585092E-1,1.035873413E1
2.083996875E0,1.163754344E0,5.465866923E-1,1.020742035E1
2.103996875E0,1.593848705E0,4.199430048E-1,9.674892426E0
2.123996875E0,1.093546867E0,4.848354161E-1,9.169955254E0
2.144001563E0,3.340869248E-1,6.850768924E-1,8.650930405E0
2.165996875E0,-2.453865260E-1,8.516941667E-1,8.372437477E0
2.186000000E0,-3.334165215E-1,1.053803086E0,8.429448128E0
2.207996875E0,-1.355118155E-1,1.292457104E0,8.195850372E0
2.227996875E0,7.913315296E-2,1.608999252E0,7.804771900E0
2.247996875E0,3.496108949E-1,1.871748567E0,7.465082645E0
2.268000000E0,5.356691480E-1,1.997492075E0,7.319380760E0
2.289996875E0,5.941738486E-1,2.100863934E0,7.443860531E0
2.309998438E0,4.025802314E-1,2.285045147E0,7.388305187E0
2.331996875E0,4.954273701E-1,2.131490707E0,7.824174404E0
2.352003125E0,5.698391795E-1,1.816624522E0,8.103347778E0
2.373996875E0,3.033166230E-1,1.919996619E0,8.630014420E0
2.393996875E0,-9.576806915E-4,2.051285028E0,9.189109802E0
2.415996875E0,4.143884405E-2,1.859490275E0,9.817768097E0
2.435996875E0,2.516880631E-1,1.540927410E0,1.018611240E1
2.456001563E0,1.296316534E-1,1.303863049E0,1.036500645E1
2.476003125E0,-1.955392510E-1,1.277775884E0,1.013542175E1
2.497996875E0,6.931692362E-2,8.817270398E-1,1.033920670E1
2.518000000E0,2.633717656E-1,3.398713171E-1,1.159501362E1
2.539996875E0,-6.135572791E-1,6.328353882E-1,1.171201324E1
2.559996875E0,-1.476197720E0,9.725534916E-1,1.054687977E1
2.579996875E0,-1.120390654E0,-3.152110279E-1,9.812673569E0
2.599996875E0,-1.008543134E0,-7.907856703E-1,9.241541862E0
2.619996875E0,-1.038135409E0,-3.175573349E-1,9.802245140E0
2.639996875E0,-9.682726264E-1,4.101459086E-1,1.060978985E1
2.659996875E0,-7.064905763E-1,8.074780107E-1,1.051478767E1
2.679996875E0,-8.910165429E-1,6.802310348E-1,9.778791428E0
2.699996875E0,-5.334377289E-1,1.807239205E-1,8.849630356E0
2.719996875E0,-2.005287558E-1,-7.713159919E-2,8.512420654E0
2.739996875E0,4.095042497E-2,8.278191835E-2,8.648910522E0
2.759996875E0,5.451118574E-2,3.803811967E-1,8.504377365E0
2.779996875E0,2.011608332E-1,1.644625068E-1,8.470962524E0
2.800001563E0,1.856272370E-1,2.160527557E-2,8.364105225E0
2.821996875E0,-3.643113077E-1,3.660638630E-1,8.507565498E0
2.842006250E0,-5.626565814E-1,1.983356625E-1,8.958269119E0
2.863996875E0,-4.354574084E-1,-4.685069621E-1,9.504731178E0
2.883996875E0,-4.578767121E-1,-7.519325614E-1,9.901556969E0
2.903996875E0,-3.477530181E-1,-8.517132998E-1,1.023575783E1
2.924003125E0,3.079326451E-1,-1.341796875E0,1.062830162E1
2.945996875E0,7.011563182E-1,-1.671076179E0,1.111036873E1
2.966003125E0,7.586363554E-1,-1.359130859E0,1.092093086E1
2.987996875E0,8.468674421E-1,-9.760490060E-1,1.101472569E1
3.008001563E0,1.531178236E0,-1.899291515E0,1.177850533E1
3.029996875E0,1.164434314E0,-1.816260576E0,1.244762707E1
3.049996875E0,4.716194272E-1,-9.223613739E-1,1.296154690E1
3.069996875E0,5.125603080E-1,-7.268796563E-1,1.134992409E1
3.090006250E0,1.501719952E0,-1.063973665E0,1.027676582E1
3.111996875E0,2.506145000E0,-1.143432379E0,1.101410389E1
3.132001563E0,2.211725235E0,-7.430069447E-1,1.039746284E1
3.153996875E0,1.412741780E0,-5.644857287E-1,9.941654205E0
3.173996875E0,6.582331061E-1,-2.794607878E-1,8.342700958E0
3.193996875E0,4.016895890E-1,-2.586982846E-1,7.603103638E0
3.214001563E0,2.936249040E-2,2.619160712E-1,6.861044407E0
3.235996875E0,-2.852547467E-1,5.655200481E-1,6.868447781E0
3.256004688E0,-4.329674691E-2,4.398818910E-1,6.876549244E0
3.277996875E0,3.266935945E-1,3.306967020E-1,6.893203735E0
3.297996875E0,3.812814057E-1,2.230917215E-1,6.771779060E0
3.319996875E0,-1.527500600E-1,6.378152966E-2,6.832811832E0
3.340003125E0,-5.682590008E-1,-7.440316677E-1,7.832180500E0
3.361996875E0,-8.313242793E-1,-1.351871610E0,8.786844254E0
3.382000000E0,-1.167230844E0,-1.233262777E0,9.260782242E0
3.403996875E0,-1.519743562E0,-4.601655602E-1,9.317514420E0
3.423996875E0,-1.140827537E0,-3.395265341E-1,9.553640366E0
3.443996875E0,-1.390073538E0,-4.746552706E-1,1.101144123E1
3.464003125E0,-1.580144405E0,-3.351211846E-1,1.295134735E1
3.485996875E0,-1.319233894E0,6.740156561E-2,1.257277679E1
3.505996875E0,-4.798938036E-1,-9.125834703E-1,1.138332844E1
3.525996875E0,8.121132106E-2,-1.739186406E0,1.199732494E1
3.546003125E0,5.749819279E-1,-2.029737234E0,1.295822334E1
3.567996875E0,-2.812516391E-1,-5.955241919E-1,1.154131603E1
3.588000000E0,-4.340687692E-1,-1.737615764E-1,1.132072449E1
3.609996875E0,-4.174625874E-1,-4.658541977E-1,1.064869976E1
3.630000000E0,-2.364992350E-1,-9.477782845E-1,1.028413105E1
3.651996875E0,-3.716950417E-1,-9.652272463E-1,9.992009163E0
3.671996875E0,-4.001956284E-1,-7.035697103E-1,9.767366409E0
3.691996875E0,-4.584417343E-1,-4.626268148E-1,9.013728142E0
3.711996875E0,-6.007148027E-1,-4.045434892E-1,8.407699585E0
3.731996875E0,-9.935840964E-1,1.250252128E-1,8.451349258E0
3.751998438E0,-9.907972813E-1,2.154877335E-1,7.907387257E0
3.771998438E0,-6.892140508E-1,-1.628823280E-1,7.475540638E0
3.793996875E0,-5.617659092E-1,-2.505962849E-1,7.652730465E0
3.813996875E0,-5.852003694E-1,-2.701521218E-1,8.042258263E0
3.835996875E0,-8.286906481E-1,-4.634982944E-1,7.806141376E0
3.855996875E0,-6.388592124E-1,-1.012316346E0,7.858249187E0
3.875996875E0,-7.929308414E-1,-5.122825503E-1,7.980927944E0
3.896004688E0,-5.979470611E-1,-4.240610003E-1,8.321181297E0
3.917996875E0,8.493670076E-2,-8.159822226E-1,9.200438499E0
3.938004688E0,4.425250888E-1,-1.052356958E0,1.024844742E1
3.959996875E0,1.804078817E-1,-8.417821527E-1,1.088310242E1
3.979996875E0,8.741708845E-2,-3.526084721E-1,1.100075436E1
4.001996875E0,1.337630868E0,-6.624947786E-1,1.108346844E1
4.023996875E0,2.927984238E0,-2.147675514E0,1.145920467E1
4.043996875E0,1.915830612E0,-2.102894306E0,1.199005699E1
4.063996875E0,4.095329940E-1,-1.475604057E0,1.281958961E1
4.083996875E0,2.339709699E-1,-7.875870466E-1,1.225546837E1
4.103996875E0,1.809729099E0,-9.475197196E-1,1.099819660E1
4.123996875E0,3.396941185E0,-1.153784871E0,1.067319870E1
4.143996875E0,3.074030399E0,-4.032506049E-1,9.523099899E0
4.163996875E0,2.122450113E0,-2.378208488E-1,8.154737473E0
4.183996875E0,9.399157166E-1,-3.355617225E-1,7.169522762E0
4.204003125E0,-1.995231956E-1,-1.072889641E-1,6.948950291E0
4.225996875E0,-7.429590821E-1,3.117058873E-1,7.419200420E0
4.247996875E0,-5.520167351E-1,4.791851342E-1,8.096021652E0
4.267996875E0,-1.879352629E-1,8.316690922E-1,7.966629505E0
4.287996875E0,2.944963872E-1,1.010736227E0,7.764549255E0
4.308014063E0,4.524179399E-1,1.337592602E0,7.704483509E0
4.329996875E0,5.542289615E-1,1.569485307E0,7.779958725E0
4.349996875E0,6.513090730E-1,1.417731285E0,8.068814278E0
4.369996875E0,6.787465811E-1,1.338464141E0,8.441879272E0
4.389996875E0,6.278841496E-1,1.217911243E0,8.669202805E0
4.410000000E0,1.636005789E-1,1.243270636E0,9.004525185E0
4.431998438E0,-2.007107288E-1,8.412075639E-1,9.491295815E0
4.451998438E0,-4.350647628E-1,4.182000160E-1,1.039380360E1
4.473996875E0,-4.760439098E-1,3.878606716E-3,1.141397381E1
4.494003125E0,-7.068353891E-1,1.651711911E-1,1.169351101E1
4.515996875E0,-1.268189430E0,4.359362423E-1,1.139368057E1
4.536001563E0,-1.388876438E0,3.570999801E-1,1.108479023E1
4.557996875E0,-7.132326365E-1,-5.076761246E-1,1.110606003E1
4.577996875E0,-3.697988391E-1,-8.614146113E-1,1.069986916E1
4.597996875E0,-9.643748999E-1,-4.334654212E-1,1.102490616E1
4.618003125E0,-1.190741777E0,-5.169081688E-1,1.137019825E1
4.639996875E0,-8.728014231E-1,-7.494809031E-1,1.122984028E1
4.660004688E0,-4.291079640E-1,-9.485827088E-1,1.062268925E1
4.681996875E0,-3.150673509E-1,-8.696889877E-1,1.008047962E1
4.702001563E0,-5.825571418E-1,-5.556080341E-1,9.660747528E0
4.723996875E0,-8.906047344E-1,-1.639549285E-1,8.929663658E0
4.743996875E0,-1.092914820E0,3.293080628E-1,8.110157013E0
4.763996875E0,-9.595193863E-1,5.656253695E-1,7.725322723E0
4.783996875E0,-6.996911168E-1,6.567103863E-1,7.378709316E0
4.803996875E0,-5.908219814E-1,5.238704681E-1,7.108643532E0
4.823996875E0,-7.170251012E-1,4.148768485E-1,6.972441673E0
4.843996875E0,-9.134358764E-1,3.260806799E-1,6.850759506E0
4.863996875E0,-9.595098495E-1,1.249964833E-1,6.771156788E0
4.884004688E0,-1.011665106E0,-1.127573252E-1,6.941288471E0
4.905996875E0,-9.586000443E-1,-2.580662370E-1,7.423615456E0
4.925996875E0,-7.399327755E-1,-4.698477089E-1,8.150686264E0
4.945996875E0,-9.505555630E-1,-8.120174408E-1,9.086857796E0
4.968000000E0,-1.139180303E0,-1.073349357E0,9.850617409E0
4.989996875E0,-6.932554841E-1,-1.245463729E0,1.061715412E1
5.009996875E0,-2.352159619E-1,-1.515204072E0,1.158028412E1
5.029996875E0,4.190427661E-1,-1.844847322E0,1.259148026E1
5.049998438E0,1.614027143E0,-2.432556868E0,1.363115692E1
5.071996875E0,2.256793737E0,-2.891419888E0,1.434382534E1
5.091998438E0,1.867352724E0,-2.688458681E0,1.463753605E1
5.113996875E0,1.399995089E0,-2.047415972E0,1.394345665E1
5.134004688E0,2.675616264E0,-2.553502083E0,1.296762848E1
5.155996875E0,3.923627377E0,-2.780070305E0,1.180243778E1
5.175996875E0,3.658704042E0,-2.027343035E0,1.032672882E1
5.195996875E0,2.774085045E0,-1.792318583E0,9.035401344E0
5.216000000E0,1.445906281E0,-1.374789000E0,7.967089176E0
5.237996875E0,3.892972171E-1,-8.380567431E-1,7.396349430E0
5.257998438E0,1.304456741E-1,-5.799235106E-1,7.150982380E0
5.278000000E0,1.533821374E-1,-4.161697030E-1,6.871099949E0
5.300001563E0,2.006532550E-1,-1.346403211E-1,6.472619057E0
5.321996875E0,2.545706928E-1,3.480211645E-2,6.263480663E0
5.341996875E0,9.746316820E-2,1.875138730E-1,6.408856392E0
5.361996875E0,1.251880229E-1,4.793192074E-2,6.940397739E0
5.382004688E0,-3.009990230E-2,-9.522219002E-2,7.435155392E0
5.403996875E0,-1.347839832E-1,-1.269118488E-1,7.978112221E0
5.423998438E0,-1.394861937E-1,-2.094351798E-1,8.508561134E0
5.446003125E0,-4.204984307E-1,-2.713396549E-1,9.057648659E0
5.467996875E0,-9.390155077E-1,-3.784945607E-1,9.554080963E0
5.487996875E0,-1.198393703E0,-5.558091402E-1,1.007183170E1
5.508000000E0,-1.022534847E0,-7.678779364E-1,1.080753231E1
5.529996875E0,-8.754733801E-1,-7.236331105E-1,1.146566868E1
5.549996875E0,-9.742772579E-1,-7.055808306E-1,1.164093494E1
5.569996875E0,-3.842023313E-1,-1.726822734E0,1.188480759E1
5.589996875E0,-5.850279331E-1,-2.326436281E0,1.238492775E1
5.609996875E0,-1.596501589E0,-2.370594978E0,1.267051792E1
5.629996875E0,-2.287037373E0,-2.211275101E0,1.264388466E1
5.649996875E0,-2.248442650E0,-2.262089491E0,1.187567043E1
5.669996875E0,-1.628966928E0,-2.008984327E0,1.110135746E1
5.690006250E0,-9.815461040E-1,-1.884725094E0,1.031796551E1
5.711996875E0,-8.229829073E-1,-1.577233076E0,1.003251934E1
5.731996875E0,-1.024909854E0,-1.116588593E0,9.896978378E0
5.751996875E0,-9.051327705E-1,-6.379973292E-1,9.528243065E0
5.772000000E0,-5.438860059E-1,-2.554230094E-1,8.865949631E0
5.793996875E0,-3.091776371E-1,1.402331889E-1,8.073899269E0
5.813996875E0,-1.445331722E-1,1.801971942E-1,7.508388519E0
5.833996875E0,-8.479304612E-2,8.043560386E-2,7.006689072E0
5.853996875E0,-5.274904892E-2,-1.972247660E-1,6.475606918E0
5.873996875E0,-4.636802673E-1,-3.349871337E-1,6.151202202E0
5.893996875E0,-1.110909581E0,-4.663713276E-1,6.341129303E0
5.914000000E0,-1.452993155E0,-9.355677962E-1,6.881270885E0
5.935996875E0,-1.676132679E0,-1.426235437E0,7.320798397E0
5.955996875E0,-1.669237375E0,-1.635776162E0,7.408014297E0
5.975996875E0,-1.335638881E0,-2.134325504E0,7.532819271E0
5.996004688E0,-1.053640246E0,-2.535220146E0,8.170031548E0
6.017996875E0,-1.294027686E0,-2.744071245E0,9.070031166E0
6.037998438E0,-1.738171220E0,-2.640488625E0,9.895418167E0
6.059995313E0,-1.813196063E0,-2.490544319E0,1.060246372E1
6.080000000E0,-5.834670067E-1,-3.076635361E0,1.148706341E1
6.101996875E0,8.141818047E-1,-3.511000872E0,1.281623840E1
6.122003125E0,1.257971048E0,-3.433811903E0,1.432461452E1
6.143996875E0,1.670377016E0,-3.445246696E0,1.489159966E1
6.164001563E0,2.713320017E0,-3.380229712E0,1.374785042E1
6.185996875E0,3.764479876E0,-3.208603859E0,1.208550835E1
6.205996875E0,3.586389542E0,-2.382977724E0,1.079595280E1
6.225996875E0,2.701071262E0,-1.503414989E0,9.678991318E0
6.246015625E0,1.640842199E0,-1.123895764E0,8.788769722E0
6.267996875E0,5.699445009E-1,-8.582159281E-1,8.031646729E0
6.288001563E0,-8.586564660E-2,-5.374503732E-1,7.694140434E0
6.308014063E0,-2.881948650E-1,-1.906838119E-1,7.652672768E0
6.330003125E0,-2.024536952E-2,1.184650976E-2,7.492079735E0
6.351996875E0,1.023760661E-1,1.177851483E-1,7.121208191E0
6.371996875E0,-5.085284356E-3,1.532193273E-1,6.759932518E0
6.391996875E0,-1.954530478E-1,9.090305120E-2,6.532359123E0
6.411996875E0,-6.544885039E-1,1.701702774E-1,7.019799232E0
6.431996875E0,-7.662786245E-1,-1.182065308E-1,7.985467434E0
6.451996875E0,-8.083399534E-1,-3.572340310E-1,8.920575142E0
6.471996875E0,-9.966965914E-1,-4.488553405E-1,9.238649368E0
6.491996875E0,-1.441501021E0,-6.877871156E-1,8.999123573E0
6.511996875E0,-1.865006447E0,-6.643239260E-1,9.493382454E0
6.531996875E0,-1.721229911E0,-1.072353363E0,1.040960503E1
6.551996875E0,-1.227746606E0,-1.353451729E0,1.108272171E1
6.571996875E0,-1.022372007E0,-1.489116788E0,1.161950111E1
6.591996875E0,-7.315244079E-1,-2.091382980E0,1.243692017E1
6.612004688E0,-9.824367166E-1,-2.783508539E0,1.328155708E1
6.633996875E0,-1.534884453E0,-3.457284689E0,1.337844467E1
6.653996875E0,-2.076682568E0,-3.369245052E0,1.311443138E1
6.673996875E0,-1.892396092E0,-3.246202469E0,1.249599934E1
6.693996875E0,-1.272364974E0,-3.135331631E0,1.159367275E1
6.713996875E0,-7.648324966E-1,-2.507246256E0,1.108342934E1
6.733996875E0,-6.776739955E-1,-1.700563073E0,1.058625031E1
6.753996875E0,-8.564633727E-1,-1.196507096E0,9.640617371E0
6.773996875E0,-1.120601296E0,-7.318308949E-1,8.556704521E0
6.794001563E0,-1.157874227E0,-4.620426297E-1,7.636229515E0
6.815996875E0,-8.926924467E-1,-1.725932211E-1,6.979490757E0
6.835998438E0,-5.568242669E-1,-2.880703472E-2,6.719652653E0
6.856025000E0,-3.077698350E-1,7.929596119E-3,6.538009167E0
6.877998438E0,-3.917967677E-1,-1.315374523E-1,6.462371349E0
6.899996875E0,-6.904973984E-1,-5.384464264E-1,6.578375340E0
6.919996875E0,-1.044657230E0,-8.607442379E-1,6.735157490E0
6.939996875E0,-1.377231002E0,-1.049033761E0,7.135161400E0
6.960001563E0,-1.491156697E0,-1.369990945E0,7.620313168E0
6.981996875E0,-1.194946051E0,-1.784542203E0,8.400611877E0
7.002003125E0,-9.243629575E-1,-2.007834911E0,9.183592796E0
7.023996875E0,-8.624872565E-1,-2.238320112E0,1.004407787E1
7.043996875E0,-9.050656557E-1,-1.934783101E0,1.094401073E1
7.064000000E0,-6.332471967E-1,-1.470949531E0,1.179765892E1
7.085996875E0,6.853641868E-1,-1.502907515E0,1.199318886E1
7.105996875E0,1.747575641E0,-2.239354134E0,1.231577301E1
7.126003125E0,1.443196058E0,-2.369848013E0,1.330201244E1
7.147996875E0,1.102654457E0,-2.191412926E0,1.515210724E1
7.168000000E0,1.907757282E0,-2.507581472E0,1.540066433E1
7.189996875E0,2.950863361E0,-2.163467884E0,1.359379864E1
7.209998438E0,3.122144222E0,-1.431933761E0,1.199485493E1
7.231996875E0,2.710197926E0,-8.335365653E-1,1.014008617E1
7.251996875E0,1.685221076E0,-4.838011265E-1,8.873859406E0
7.271998438E0,4.602517784E-1,-1.426178068E-1,8.090908051E0
7.292003125E0,-1.804461926E-1,-7.211335748E-2,7.555161953E0
7.313996875E0,-3.499939740E-1,1.416888535E-1,7.183668137E0
7.334000000E0,-3.015736304E-2,3.482031226E-1,6.931674004E0
7.355996875E0,3.800555766E-1,4.418164194E-1,6.627456665E0
7.376003125E0,4.120900035E-1,3.936833739E-1,6.311872005E0
7.397996875E0,9.372820705E-2,5.112003684E-1,5.948393822E0
7.417996875E0,-1.669237576E-2,6.008105278E-1,6.135275841E0
7.437996875E0,1.620491445E-1,6.853162646E-1,6.624574184E0
7.458001563E0,2.239153087E-1,6.501885653E-1,7.056957722E0
7.480000000E0,-3.166379631E-1,5.754032731E-1,7.686919689E0
7.501996875E0,-1.076289415E0,2.193375975E-1,8.119925499E0
7.521996875E0,-1.379922152E0,-1.691551358E-1,8.904084206E0
7.542003125E0,-1.307875752E0,-3.708426952E-1,9.795282364E0
7.563996875E0,-1.174940109E0,-5.583949089E-1,1.051716328E1
7.583996875E0,-1.498626590E0,-3.310414851E-1,1.077479744E1
7.603996875E0,-1.711308360E0,-3.317597210E-1,1.050343990E1
7.623996875E0,-7.221486568E-1,-1.177152395E0,1.101077080E1
7.643996875E0,-3.903602362E-1,-1.175668001E0,1.143180561E1
7.663996875E0,-1.108965397E0,-9.154661298E-1,1.190543652E1
7.683998438E0,-1.819056988E0,-1.035252810E0,1.208298016E1
7.703998438E0,-2.047827721E0,-1.257588029E0,1.161900330E1
7.724000000E0,-1.679293036E0,-1.548138618E0,1.079646111E1
7.745996875E0,-1.181241751E0,-1.599317193E0,1.046496964E1
7.765996875E0,-1.020954609E0,-1.191823959E0,1.051911736E1
7.785996875E0,-1.143671870E0,-6.355168819E-1,9.986559868E0
7.805996875E0,-1.105220914E0,-1.640123874E-1,9.033600807E0
7.827996875E0,-8.587809801E-1,3.227671087E-1,8.072022438E0
7.847996875E0,-6.574478149E-1,6.437242627E-1,7.684420586E0
7.867996875E0,-3.313383460E-1,3.704500496E-1,7.392518997E0
7.887996875E0,-2.803514302E-1,3.326886892E-1,7.395468712E0
7.908000000E0,-5.656923652E-1,4.934928715E-1,7.790703773E0
7.929996875E0,-7.938789725E-1,1.925129741E-1,8.248015404E0
7.949996875E0,-9.248226285E-1,-8.172847331E-2,8.571846008E0
7.969996875E0,-1.182410002E0,-1.486224681E-1,8.640587807E0
7.989998438E0,-1.460884452E0,-3.243089914E-1,8.455832481E0
8.011996875E0,-1.463326573E0,-6.432070732E-1,8.688347816E0
8.032004688E0,-9.966965914E-1,-1.214884996E0,9.323442459E0
8.053996875E0,-7.895598412E-1,-1.459629893E0,1.014085197E1
8.074000000E0,-9.980469346E-1,-1.328293562E0,1.107623863E1
8.095996875E0,-9.876656532E-1,-1.345234871E0,1.206647015E1
8.115996875E0,-2.443043329E-2,-1.936372876E0,1.259218884E1
8.135996875E0,1.289315939E0,-2.398032427E0,1.337951756E1
8.156000000E0,1.864182830E0,-2.384356737E0,1.362192535E1
8.177996875E0,1.548081279E0,-2.157137394E0,1.310573578E1
8.198004688E0,1.019202113E0,-1.524168015E0,1.197849846E1
8.219996875E0,1.956656456E0,-1.743428946E0,1.064868164E1
8.240000000E0,2.625500679E0,-1.780567765E0,9.616809845E0
8.262003125E0,2.250501633E0,-1.108390927E0,8.757903099E0
8.283996875E0,1.571965814E0,-9.563686252E-1,8.387319565E0
8.303996875E0,8.907005191E-1,-8.271008730E-1,8.315713882E0
8.323996875E0,4.025131762E-1,-7.215549350E-1,7.872384071E0
8.343996875E0,1.203134209E-1,-3.193194568E-1,7.620648384E0
8.363996875E0,1.637921333E-1,-9.213846177E-2,7.543458939E0
8.383996875E0,3.967000842E-1,1.310202926E-1,7.650585651E0
8.403996875E0,6.487329006E-1,2.959233522E-1,7.752884865E0
8.423996875E0,9.899449348E-1,2.343444712E-2,7.749877453E0
8.443996875E0,9.696612358E-1,3.087370992E-1,7.695643902E0
8.464001563E0,5.561443567E-1,8.257984519E-1,7.994095802E0
8.485996875E0,1.537939459E-1,1.002231956E0,8.349270821E0
8.505996875E0,1.474828124E-1,9.813737273E-1,8.588729858E0
8.525996875E0,3.869987428E-1,5.236502290E-1,9.210129738E0
8.545996875E0,2.826211452E-1,5.436753035E-1,9.727708817E0
8.565996875E0,6.576392800E-2,8.546629548E-1,1.048048306E1
8.586040625E0,3.788584843E-2,5.547364950E-1,1.135085297E1
8.607996875E0,4.199046493E-1,-3.731698692E-1,1.184473801E1
8.627996875E0,1.002691686E-2,-3.898622096E-1,1.112760735E1
8.648014063E0,-9.037919641E-1,1.794310510E-1,1.010828114E1
8.668028125E0,-1.108132362E0,4.952358305E-1,9.641469955E0
8.689996875E0,-6.128199100E-1,-5.204420090E-1,1.035028744E1
8.709996875E0,-2.394584864E-1,-1.296977401E0,1.104043961E1
8.730001563E0,-7.485998273E-1,-9.648441076E-1,1.109570694E1
8.751996875E0,-9.164142609E-1,-1.731735706E0,1.114074707E1
8.771996875E0,-1.050240517E0,-2.334882975E0,1.110605049E1
8.791996875E0,-1.194457650E0,-2.427279949E0,1.094050598E1
8.811998438E0,-1.113552690E0,-1.850564718E0,1.067957592E1
8.831998438E0,-7.894736528E-1,-1.037445903E0,1.015787983E1
8.854004688E0,-5.339643955E-1,-5.316181183E-1,9.321795464E0
8.875996875E0,-6.271946430E-1,-1.612925828E-1,8.637197495E0
8.896003125E0,-6.641323566E-1,1.412387490E-1,8.063613892E0
8.917996875E0,-5.131922960E-1,2.447448671E-1,7.616970539E0
8.937998438E0,-5.744647980E-1,4.352658689E-1,7.455707073E0
8.959996875E0,-7.162876725E-1,3.441138268E-1,7.440383911E0
8.979996875E0,-8.027088046E-1,2.625768781E-1,7.586928368E0
8.999996875E0,-9.239224195E-1,3.018226326E-1,7.957167625E0
9.020001563E0,-1.004511237E0,2.725750804E-1,8.462526321E0
9.041998438E0,-1.090817451E0,1.758589000E-1,8.925823212E0
9.062004688E0,-9.288640618E-1,-1.838842630E-1,9.317351341E0
9.083996875E0,-4.442201853E-1,-6.416556239E-1,9.774567604E0
9.104012500E0,-2.223064154E-1,-8.326650262E-1,1.012272263E1
9.125998438E0,-9.123823792E-2,-9.200534225E-1,1.066801643E1
9.147998438E0,2.350244075E-1,-1.071232915E0,1.091145897E1
9.170004688E0,6.997293830E-1,-1.227430582E0,1.080419922E1
9.191998438E0,1.862631440E0,-2.333877325E0,1.165171814E1
9.211998438E0,2.042828560E0,-2.374521255E0,1.237281322E1
9.231998438E0,1.304054737E0,-1.566018581E0,1.295816708E1
9.252004688E0,1.829323411E0,-1.857718468E0,1.241000938E1
9.273996875E0,3.483841419E0,-2.516622066E0,1.071094990E1
9.294000000E0,4.366162300E0,-2.599279642E0,1.061409950E1
9.315996875E0,3.239938974E0,-1.338971734E0,9.783148766E0
9.335996875E0,1.911549807E0,-1.251190662E0,9.227501869E0
9.355996875E0,7.802990675E-1,-1.388598680E0,8.917490959E0
9.375996875E0,-1.111867279E-2,-8.398954868E-1,8.794266701E0
9.395996875E0,2.445916459E-2,-2.284930199E-1,8.591832161E0
9.415998438E0,3.033932447E-1,1.985942423E-1,8.293992996E0
9.436001563E0,4.525998831E-1,5.202121735E-1,7.798738956E0
9.456012500E0,4.896908700E-1,6.840425730E-1,7.392672539E0
9.477996875E0,5.326715708E-1,9.086569548E-1,7.046528339E0
9.497996875E0,6.622936130E-1,1.049799919E0,7.150819778E0
9.517998438E0,7.304996848E-1,9.607356787E-1,7.542271614E0
9.539996875E0,4.100980163E-1,8.913421631E-1,8.025412560E0
9.559996875E0,4.640920460E-2,8.195447922E-1,8.467907906E0
9.579996875E0,-1.304456741E-1,8.807693720E-1,8.844927788E0
9.599996875E0,-2.865667939E-1,1.133692861E0,9.157888412E0
9.619996875E0,-3.200568855E-1,1.167661786E0,9.608534813E0
9.639996875E0,9.430281818E-2,6.981204748E-1,1.010524559E1
9.659996875E0,4.164474607E-1,2.287228703E-1,1.071264458E1
9.679996875E0,3.650008142E-1,-4.779018164E-1,1.094357967E1
9.699996875E0,-3.456269577E-2,-7.126197219E-1,1.076700306E1
9.719996875E0,3.201143444E-1,-1.168590665E0,1.176794147E1
9.742003125E0,-2.969001830E-1,-1.555168033E0,1.272719383E1
9.763996875E0,-1.669553518E0,-1.702909470E0,1.254238033E1
9.783996875E0,-2.387181997E0,-1.922888637E0,1.119661808E1
9.803996875E0,-2.625184774E0,-1.442841649E0,1.023176479E1
9.823998438E0,-2.069289207E0,-9.844574332E-1,9.641814232E0
9.845996875E0,-9.911611676E-1,-8.556493521E-1,9.548699379E0
9.865996875E0,-7.726759315E-1,-5.176360011E-1,9.548143387E0
9.885996875E0,-1.072717309E0,-3.905230463E-1,8.912014008E0
9.905996875E0,-1.086345077E0,-1.654297709E-1,7.944478512E0
9.926000000E0,-5.102905631E-1,-3.301221132E-1,7.509595871E0
9.947996875E0,4.404373467E-2,-3.428496886E-3,7.580090523E0
9.967996875E0,2.168572098E-1,-2.789723687E-2,8.389800072E0
9.987996875E0,7.890043855E-1,-5.333324075E-1,7.848442554E0
1.000800000E1,3.499939740E-1,-9.554779530E-2,7.487234116E0
1.002999688E1,-6.933608651E-1,5.267243460E-2,7.371201038E0
1.005000000E1,-1.720300913E0,-3.303327858E-1,6.672754765E0
1.007199688E1,-2.534817934E0,-5.176934004E-1,7.068363190E0
1.009199688E1,-3.381129980E0,1.022802945E-2,1.007881355E1
1.011199688E1,-4.673779011E0,7.257687449E-1,1.243196869E1
1.013199844E1,-6.428786278E0,1.366610229E-1,1.284249783E1
1.015399688E1,-6.735837460E0,-8.952877522E-1,1.072958565E1
1.017400312E1,-4.926787853E0,-2.672494173E0,1.129709816E1
1.019599688E1,-4.603580475E0,-3.068724871E0,9.948099136E0
1.021600000E1,-4.991537094E0,-2.303959370E0,9.881598473E0
1.023799688E1,-4.894246101E0,-1.955200911E0,9.972022057E0
1.025801719E1,-5.411920547E0,-1.773538470E0,1.082249165E1
1.027999688E1,-3.880627394E0,-3.452984571E0,1.284340763E1
1.029999688E1,-5.508541107E0,-1.654010296E0,1.011997414E1
1.031999688E1,-6.071819782E0,-1.684435844E0,9.026935577E0
1.034000156E1,-4.592337608E0,-1.900019288E0,1.054073143E1
1.036199688E1,-2.835309267E0,-1.634990692E0,1.059450531E1
1.038200000E1,-2.292773724E0,-8.247067332E-1,6.588776112E0
1.040399688E1,-1.793467760E0,-3.109589219E-1,3.916473389E0
1.042400000E1,-2.023071766E0,9.547885060E-1,3.562840223E0
1.044600000E1,-7.269083858E-1,8.707711697E-1,7.624622345E0
1.046600625E1,1.142283201E0,-6.506482512E-2,9.055626869E0
1.048799688E1,1.664372444E0,6.209985018E-1,9.195084572E0
1.050799688E1,2.066875935E0,1.251688600E0,9.386208534E0
1.052799688E1,2.673403740E0,3.554719090E-1,5.819221973E0
1.054800000E1,3.241672516E0,6.441743374E-1,3.580480814E0
1.056999688E1,3.256334543E0,3.810420036E-1,2.970572233E0
1.059000469E1,2.354496241E0,1.495667338E0,1.525384188E0
1.061199688E1,3.172920704E0,1.118800879E0,2.437335730E0
1.063199688E1,4.246634007E0,7.317446470E-1,2.502936840E0
1.065199844E1,3.639684677E0,6.994804144E-1,2.131768465E0
1.067200781E1,2.835213661E0,1.636676341E-1,2.957921505E0
1.069399688E1,4.628020287E0,4.020343348E-2,2.090731859E0
1.071400469E1,6.912519932E0,-4.551856518E-1,2.111781687E-1
1.073599688E1,9.295458794E0,-1.216206551E0,3.982821465E0
1.075600000E1,9.966764450E0,-1.739895105E0,7.705460548E0
1.077799688E1,1.127487946E1,-2.442497492E0,6.948854446E0
1.079800156E1,1.150443649E1,-2.850105524E0,7.731317997E0
1.081999688E1,1.210712433E1,-2.803878307E0,1.116979408E1
1.083999844E1,1.456077862E1,-2.511891127E0,1.255746365E1
1.086199844E1,1.485032368E1,-3.652737856E0,1.274052429E1
1.088399688E1,1.179866409E1,-2.690757036E0,1.299750805E1
1.090399688E1,9.930066109E0,-2.158564568E0,1.320913696E1
1.092399688E1,9.043771744E0,-1.222680569E0,1.257878113E1
1.094399688E1,8.177271843E0,-7.206355333E-1,1.070564461E1
1.096399844E1,6.964129448E0,-4.825944602E-1,8.506790161E0
1.098599688E1,6.093166351E0,-7.287757993E-1,5.941555977E0
1.100600469E1,5.596580505E0,-1.225802541E0,4.425078392E0
1.102799688E1,4.924116135E0,-1.508825898E0,3.494164944E0
1.104801875E1,4.460330486E0,-2.055096388E0,2.980493784E0
1.106999688E1,4.457620621E0,-3.254706621E0,2.525135756E0
1.108999688E1,4.282642365E0,-4.208633423E0,2.379520416E0
1.110999844E1,4.656722069E0,-5.173621178E0,1.903131843E0
1.113199688E1,5.081923008E0,-6.210635662E0,1.520701170E0
1.115199688E1,5.586199284E0,-7.357870102E0,1.043527246E0
1.117200000E1,6.379388809E0,-8.419670105E0,9.786538482E-1
1.119399688E1,7.067549229E0,-9.050763130E0,1.498923421E0
1.121400000E1,6.868294239E0,-9.088495255E0,1.951485157E0
1.123599688E1,6.927603722E0,-9.846566200E0,1.864977837E0
1.125599688E1,7.914388180E0,-1.168238258E1,1.135512471E0
1.127599688E1,8.704560280E0,-1.313568306E1,5.691783428E-1
1.129600000E1,7.488641739E0,-1.073224926E1,2.062202692E0
1.131799688E1,7.933522224E0,-1.009550571E1,3.090588808E0
1.133800469E1,9.631844521E0,-9.890791893E0,2.485526085E0
1.135999688E1,1.060672569E1,-1.011265850E1,1.237036109E0
1.137999688E1,9.520341873E0,-9.380826950E0,5.668416023E-1
1.139999688E1,8.548487663E0,-9.033122063E0,5.128571987E-1
1.142000000E1,7.944411278E0,-8.540988922E0,3.112558126E-1
1.144199688E1,6.867652893E0,-7.482837677E0,8.639332652E-1
1.146200938E1,6.396205425E0,-6.574659824E0,1.551816106E0
1.148399688E1,6.627428055E0,-5.820965290E0,1.812956572E0
1.150399688E1,7.567918301E0,-5.036816597E0,1.012574911E0
1.152399688E1,9.058998108E0,-4.616700649E0,-6.926329732E-1
1.154400625E1,8.914685249E0,-3.859817028E0,-1.676420093E0
1.156599688E1,9.150437355E0,-3.342975855E0,-9.997515678E-1
1.158600156E1,9.951145172E0,-3.738613129E0,3.077027798E-1
1.160799688E1,1.112519455E1,-4.367713451E0,1.554028392E0
1.162799688E1,1.148934269E1,-4.216103077E0,2.888680935E0
1.164799688E1,1.123434162E1,-3.673998356E0,2.971271276E0
1.166799688E1,1.183237457E1,-4.397956848E0,2.031020403E0
1.168799688E1,1.216821384E1,-5.185438633E0,1.687280178E0
1.170799688E1,1.230883026E1,-6.130152225E0,2.457332134E0
1.172800156E1,1.260706139E1,-6.956477642E0,3.352226973E0
1.174999844E1,1.243975449E1,-8.424908638E0,3.400570869E0
1.177199688E1,1.312086678E1,-1.161582375E1,3.045146704E0
1.179199844E1,1.278094864E1,-1.295853043E1,3.202551365E0
1.181399688E1,1.137166309E1,-1.108068180E1,3.648370743E0
1.183399688E1,1.137332916E1,-1.102194691E1,3.057519913E0
1.185399688E1,1.122142220E1,-1.191174698E1,2.616546392E0
1.187399688E1,1.049144936E1,-1.278116798E1,2.210604668E0
1.189399688E1,9.474564552E0,-1.274455547E1,1.389997005E0
1.191399688E1,8.230364799E0,-1.172674179E1,8.467046618E-1
1.193399688E1,7.153290749E0,-1.039930153E1,9.980852008E-1
1.195399688E1,6.344835281E0,-9.268921852E0,1.362827539E0
1.197399688E1,5.709155560E0,-8.310599327E0,1.812132955E0
1.199400312E1,5.347995758E0,-7.706743717E0,1.444929481E0
1.201599688E1,4.864127636E0,-7.047629356E0,6.513473392E-1
1.203600000E1,4.547010422E0,-6.542912483E0,3.805248439E-1
1.205799688E1,3.947914124E0,-6.113354683E0,3.990176618E-1
1.207799688E1,3.476016760E0,-5.918754101E0,4.374493659E-1
1.209799688E1,3.088577747E0,-5.737388134E0,2.930023968E-1
1.211799688E1,3.010909557E0,-5.694685459E0,-1.331080347E-1
1.213799688E1,2.743965864E0,-5.693286896E0,-4.750191867E-1
1.215799688E1,2.495897770E0,-5.597805977E0,-3.988261223E-1
1.217799688E1,3.087169886E0,-5.952827930E0,7.191223651E-2
1.219799688E1,3.722859144E0,-6.205856800E0,6.646208167E-1
1.221799688E1,4.244143963E0,-6.441024780E0,1.043421865E0
1.223799688E1,4.764461517E0,-7.207839966E0,1.309963465E0
1.225799688E1,4.997397900E0,-7.599109650E0,1.682798266E0
1.227799688E1,6.014761448E0,-8.090285301E0,1.740048289E0
1.229799688E1,7.230728626E0,-9.290766716E0,9.860950708E-1
1.231799688E1,7.029922009E0,-9.517785072E0,-6.892427802E-2
1.233799688E1,6.939172268E0,-9.434064865E0,5.370673537E-2
1.235799688E1,7.512296200E0,-9.409538269E0,4.634791613E-1
1.237799688E1,8.598105431E0,-9.639515877E0,3.926107883E-1
1.239799688E1,9.126380920E0,-9.970787048E0,2.346317619E-1
1.241800156E1,8.812711716E0,-1.024910831E1,6.179147363E-1
1.243999688E1,8.051058769E0,-1.025196171E1,7.578127384E-1
1.245999688E1,8.197602272E0,-1.001073170E1,1.565989852E0
1.247999688E1,8.407833099E0,-9.270856857E0,2.859069586E0
1.249999688E1,8.724739075E0,-8.475319862E0,3.312310934E0
1.251999688E1,8.396235466E0,-7.560247421E0,3.037504673E0
1.253999688E1,8.031272888E0,-6.956717014E0,2.740115881E0
1.255999688E1,8.140726089E0,-6.609854698E0,1.814096212E0
1.257999688E1,8.820631981E0,-6.387777805E0,2.293549478E-1
1.260000312E1,9.237768173E0,-6.193972111E0,-6.281906366E-1
1.262199688E1,9.899229050E0,-6.129731178E0,-1.057451963E0
1.264200625E1,1.034056664E1,-6.103069305E0,-2.192743778E0
1.266399688E1,9.802790642E0,-6.172021866E0,-3.099140882E0
1.268399688E1,9.106863022E0,-6.351175308E0,-2.312386990E0
1.270399688E1,9.121784210E0,-6.815880299E0,-3.870179057E-1
1.272399688E1,9.633520126E0,-7.244682312E0,7.621605992E-1
1.274399688E1,9.821436882E0,-7.271812916E0,1.087542295E0
1.276399688E1,9.721828461E0,-7.469918728E0,1.522654772E0
1.278399688E1,9.468091011E0,-7.673895359E0,2.238051653E0
1.280399688E1,9.963949203E0,-8.480549812E0,2.980091572E0
1.282400156E1,1.176140976E1,-1.097545147E1,2.853007317E0
1.284599688E1,1.186980057E1,-1.168285179E1,2.439806461E0
1.286600156E1,1.137761021E1,-1.089312935E1,2.661883116E0
1.288799688E1,1.117321301E1,-1.070647717E1,3.676363707E0
1.290800000E1,1.069645977E1,-1.105410576E1,4.209533215E0
1.292999531E1,9.512757301E0,-1.109380150E1,3.925006390E0
1.294999531E1,8.695865631E0,-1.082182980E1,2.806904554E0
1.296999688E1,8.114552498E0,-1.021358776E1,1.917305470E0
1.298999688E1,7.711053371E0,-9.484352112E0,1.344621897E0
1.300999688E1,7.635645390E0,-9.087574959E0,7.059926391E-1
1.302999688E1,7.521576405E0,-9.139261246E0,2.698744275E-2
1.304999688E1,7.198875904E0,-9.318262100E0,-4.415386617E-1
1.306999688E1,6.767345428E0,-9.364756584E0,-6.030802727E-1
1.309000156E1,6.401539803E0,-9.411004066E0,-3.245388269E-1
1.311199688E1,6.018247604E0,-9.467822075E0,2.437297255E-2
1.313200000E1,5.598179817E0,-9.410017967E0,2.825253904E-1
1.315399688E1,5.163019657E0,-9.240508080E0,8.090677857E-1
1.317399688E1,4.731861591E0,-8.960098267E0,1.151678085E0
1.319399688E1,4.202494144E0,-8.850894928E0,1.122296333E0
1.321400313E1,3.494663000E0,-8.536363602E0,9.072683454E-1
1.323599688E1,2.745756626E0,-8.086732864E0,4.466718435E-1
1.325600625E1,2.291452169E0,-7.407458782E0,2.418718189E-1
1.327799688E1,2.433878422E0,-7.131742477E0,3.194727004E-1
1.329799688E1,2.931661606E0,-7.015518665E0,6.598419547E-1
1.331799688E1,3.603081942E0,-7.230489254E0,6.073802710E-1
1.333799688E1,4.764097691E0,-8.496829987E0,-4.246643484E-1
1.335799688E1,5.564048290E0,-9.943981171E0,-1.955287099E0
1.337799688E1,5.320509911E0,-9.507221222E0,-2.407331467E0
1.339799844E1,5.534034252E0,-8.721588135E0,-1.378734589E0
1.341999688E1,6.607939243E0,-8.267752647E0,-5.328535438E-1
1.343999688E1,7.461539268E0,-8.548180580E0,-7.589715123E-1
1.345999688E1,7.402507782E0,-8.835840225E0,-1.209694386E0
1.348000000E1,6.750432491E0,-8.916907310E0,-1.466956019E0
1.350199688E1,6.050080776E0,-8.538767815E0,-1.159195781E0
1.352199688E1,5.857711315E0,-8.383172989E0,-4.790893197E-1
1.354199688E1,5.707221031E0,-8.378901482E0,4.267999530E-1
1.356199688E1,5.553523540E0,-8.394425392E0,1.284201860E0
1.358199688E1,5.689408779E0,-8.356740952E0,1.776037931E0
1.360199688E1,6.154678822E0,-8.387213707E0,1.132620215E0
1.362200938E1,6.922709465E0,-8.504434586E0,2.680643797E-1
1.364399688E1,7.969713211E0,-8.512354851E0,8.008126169E-2
1.366400000E1,8.718715668E0,-8.297986984E0,-1.616660804E-1
1.368599688E1,9.001987457E0,-8.339790344E0,-9.640204906E-1
1.370599688E1,9.202841759E0,-8.482062340E0,-1.036890507E0
1.372599688E1,9.923171043E0,-8.666751862E0,-6.570455432E-1
1.374600156E1,1.071425438E1,-8.392683029E0,-2.772293985E-1
1.376799688E1,1.116836739E1,-8.278776169E0,3.094266355E-2
1.378799688E1,1.129060555E1,-8.291973114E0,5.732484460E-1
1.380801094E1,1.133514690E1,-8.143867493E0,1.107950330E0
1.382999688E1,1.143551159E1,-7.337959766E0,1.488915801E0
1.384999688E1,1.207194805E1,-7.233036518E0,1.642106295E0
1.387000312E1,1.300207615E1,-8.826617241E0,1.915121913E0
1.389199688E1,1.243673801E1,-1.006930351E1,1.720013618E0
1.391199844E1,1.088651180E1,-9.090410233E0,1.520547986E0
1.393199844E1,1.031780243E1,-8.456416130E0,1.274730444E0
1.395199844E1,1.065428448E1,-8.823399544E0,8.608400226E-1
1.397399688E1,1.048318481E1,-9.358972549E0,2.888173461E-1
1.399399688E1,9.781826973E0,-9.489466667E0,8.481220007E-1
1.401399688E1,9.807463646E0,-9.301367760E0,2.524015427E0
1.403399688E1,1.058964062E1,-8.978994370E0,3.413796425E0
1.405399844E1,1.077721214E1,-9.310782433E0,2.496338367E0
1.407599688E1,9.855051994E0,-1.039112282E1,1.900718331E0
1.409599688E1,9.251319885E0,-1.101990700E1,2.501481295E0
1.411599688E1,9.069312096E0,-1.119490433E1,3.397793770E0
1.413600156E1,9.291169167E0,-1.132679558E1,4.172662735E0
1.415799688E1,1.002584362E1,-1.139935970E1,3.917402267E0
1.417799688E1,1.046557331E1,-1.119534492E1,3.284681797E0
1.419799688E1,1.014213562E1,-1.082907009E1,3.423564672E0
1.421799688E1,9.886358261E0,-1.033071232E1,4.025007248E0
1.423799688E1,9.526011467E0,-9.860596657E0,4.084613323E0
1.425799688E1,9.163491249E0,-9.238506317E0,3.197283983E0
1.427799844E1,8.878083229E0,-8.387424469E0,3.262952089E0
1.429999688E1,8.730657578E0,-7.772967339E0,3.170708179E0
1.431999688E1,7.860240936E0,-6.637742043E0,3.304266691E0
1.433999688E1,8.110463142E0,-5.628174305E0,3.752336740E0
1.436000469E1,8.736777306E0,-4.956811428E0,4.472933769E0
1.438199688E1,8.148243904E0,-4.174721718E0,4.683795929E0
1.440200000E1,6.926415920E0,-3.516977072E0,3.001792669E0
1.442400312E1,6.053777218E0,-2.245569468E0,2.835673332E0
1.444599688E1,5.523461342E0,-1.420527697E0,4.983148098E0
1.446800000E1,4.605515003E0,-9.691824317E-1,6.098682880E0
1.448999688E1,3.779371738E0,-4.258039892E-1,5.268277645E0
1.451000469E1,3.911847830E0,-6.090849042E-1,5.951640606E0
1.453199688E1,2.761003017E0,2.471294999E-1,6.491561890E0
1.455200156E1,1.686006427E0,5.546694994E-1,6.861705780E0
1.457403906E1,1.203402400E0,1.104186654E0,7.085984707E0
1.459599688E1,1.142924786E0,1.353624105E0,6.462898254E0
1.461599688E1,7.165175080E-1,1.405798554E0,6.155349255E0
1.463599688E1,4.003392756E-1,1.696636677E0,5.770083427E0
1.465599688E1,1.237993717E0,2.093001366E0,6.084968567E0
1.467599688E1,1.847988486E0,2.316131592E0,6.447604656E0
1.469599688E1,1.613816381E0,2.318937540E0,6.648391724E0
1.471599688E1,1.067880988E0,2.485574007E0,6.472561359E0
1.473599688E1,1.113514543E0,2.577607155E0,6.421651363E0
1.475599688E1,1.615281701E0,2.689023733E0,6.879498959E0
1.477599688E1,1.749778271E0,2.955804586E0,7.578136921E0
1.479599688E1,1.842443585E0,2.848803282E0,8.144336700E0
1.481599688E1,1.553817749E0,3.285237312E0,7.936835766E0
1.483599844E1,1.271905303E0,3.432145596E0,7.515954494E0
1.485800625E1,1.001236081E0,3.187917948E0,8.517458916E0
1.487999688E1,1.256343007E0,2.705945730E0,9.793367386E0
1.490000313E1,1.702717900E0,2.222910881E0,1.003470325E1
1.492199688E1,1.404026866E0,2.498138666E0,9.706410408E0
1.494399688E1,4.449384511E-1,2.638515711E0,9.875392914E0
1.496399688E1,6.811791658E-1,1.835701585E0,1.106846237E1
1.498400000E1,7.138743401E-1,1.759077430E0,1.200068760E1
1.500599688E1,2.357522547E-1,1.614362359E0,1.137630749E1
1.502599688E1,-3.703064024E-1,1.988719702E0,9.745827675E0
1.504599688E1,-2.064759657E-2,1.778298140E0,8.364048004E0
1.506600313E1,2.465261519E-1,1.849760294E0,8.525838852E0
1.508799688E1,6.589801311E-1,9.593566060E-1,1.000921917E1
1.510799688E1,7.456501573E-2,9.989950061E-1,1.077293110E1
1.512799688E1,-1.556135416E-1,8.871858120E-1,9.927346230E0
1.514799688E1,-1.943134218E-1,1.466122866E0,8.236388206E0
1.516799688E1,3.121847510E-1,1.508280039E0,7.376315117E0
1.518799688E1,2.085349709E-1,2.110354662E0,7.853249550E0
1.520800156E1,2.979823351E-1,1.750515699E0,8.655843735E0
1.522999688E1,6.577350944E-2,1.668289304E0,8.683147430E0
1.524999688E1,-9.956048429E-2,1.778221488E0,8.272321701E0
1.526999688E1,-2.785318494E-1,1.904031992E0,8.017386436E0
1.529000312E1,-6.612306237E-1,2.083836317E0,8.077854156E0
1.531199688E1,-9.319286346E-1,2.115660191E0,8.788454056E0
1.533200000E1,-7.392911911E-1,2.080551863E0,9.892698288E0
1.535399688E1,-1.472625583E-1,1.903706431E0,1.040713501E1
1.537399688E1,6.521805525E-1,1.724744678E0,1.025426102E1
1.539399688E1,7.843979597E-1,1.680279493E0,1.008813190E1
1.541399688E1,4.745595157E-1,1.723423004E0,1.048275375E1
1.543399688E1,-1.833000779E-2,1.769535303E0,1.127341461E1
1.545399688E1,3.849110007E-1,1.732252836E0,1.114128304E1
1.547399844E1,1.705370784E0,1.160862207E0,1.097498226E1
1.549599688E1,2.341462135E0,6.537224054E-1,1.213207150E1
1.551599844E1,1.931957960E0,7.003040314E-1,1.299880123E1
1.553799688E1,2.065056324E0,7.095935345E-1,1.211982250E1
1.555799688E1,2.352801323E0,1.330879331E0,1.008031750E1
1.557799688E1,3.319110632E0,1.361936927E0,8.280901909E0
1.559801250E1,3.461565495E0,1.331099510E0,7.907569408E0
1.561999688E1,2.327240705E0,1.329653502E0,8.317600250E0
1.564000156E1,1.283397436E0,1.425555587E0,7.994852543E0
1.566199688E1,6.442030668E-1,1.631954908E0,7.526373863E0
1.568200938E1,6.141223311E-1,1.766681433E0,8.159995079E0
1.570399688E1,6.180871129E-1,1.890796900E0,8.776779175E0
1.572399688E1,6.528891921E-1,2.013322592E0,8.407928467E0
1.574399688E1,9.817376137E-1,2.242677450E0,7.790981293E0
1.576399688E1,1.347676992E0,2.435171366E0,7.629037380E0
1.578399844E1,1.531772017E0,2.367444038E0,7.660363197E0
1.580599844E1,1.607974648E0,2.193739891E0,8.023180962E0
1.582799688E1,1.601768851E0,2.331971645E0,8.568225861E0
1.584800469E1,1.809767485E0,2.489692211E0,9.034510612E0
1.586999688E1,1.810342073E0,2.450781584E0,9.671339989E0
1.588999688E1,1.758646488E0,2.404611588E0,1.038870049E1
1.590999688E1,1.904999256E0,2.344162941E0,1.063318634E1
1.592999844E1,2.254246235E0,2.151563644E0,1.077316093E1
1.595199688E1,2.277872324E0,2.085531712E0,1.066662788E1
1.597200156E1,1.607869267E0,2.275535345E0,1.004759312E1
1.599399688E1,1.288157105E0,2.590727329E0,9.286045074E0
1.601399688E1,1.983452559E0,2.298462391E0,9.207793236E0
1.603399688E1,2.415596247E0,1.845134616E0,9.911094666E0
1.605400469E1,1.469244957E0,1.570471764E0,1.041743946E1
1.607599688E1,7.335642576E-1,1.078923106E0,1.055412006E1
1.609599688E1,8.566070795E-1,6.250111461E-1,1.021843338E1
1.611599688E1,1.290694952E0,4.337910414E-1,9.994336128E0
1.613599688E1,1.377441645E0,4.307264686E-1,1.019619656E1
1.615599688E1,1.116205573E0,5.752117038E-1,9.958930969E0
1.617599688E1,7.719863653E-1,8.127931356E-1,8.933982849E0
1.619600000E1,6.044114232E-1,1.143097281E0,8.105091095E0
1.621799688E1,9.057744145E-1,1.446844816E0,7.832046986E0
1.623800000E1,1.208880424E0,1.553013325E0,8.036636353E0
1.625999688E1,9.226295948E-1,1.514619827E0,8.209688187E0
1.627999688E1,5.464909077E-1,1.537431836E0,7.965346336E0
1.629999688E1,5.797607303E-1,1.698034883E0,7.995810032E0
1.631999688E1,7.311700583E-1,1.829294562E0,8.329045296E0
1.633999844E1,7.592013478E-1,1.821604371E0,8.662260056E0
1.636200625E1,7.178487182E-1,1.817304492E0,9.025987625E0
1.638399688E1,7.277989984E-1,1.942329645E0,9.511627197E0
1.640400313E1,9.432579875E-1,2.098996639E0,9.764694214E0
1.642599688E1,1.200538993E0,2.212702036E0,9.672872543E0
1.644601250E1,1.389259577E0,2.215795517E0,9.434696198E0
1.646799688E1,1.113734722E0,2.279816389E0,9.759656906E0
1.648799688E1,1.034841061E0,2.173015833E0,1.057998753E1
1.650799688E1,1.236499906E0,1.630489588E0,1.068103218E1
1.652800156E1,1.847021222E0,9.323883057E-1,1.057191372E1
1.654999688E1,2.136087656E0,4.837341011E-1,1.163641453E1
1.657006719E1,2.054023981E0,6.069588661E-1,1.252298737E1
1.659199688E1,1.932034492E0,8.649771810E-1,1.161339188E1
1.661200469E1,2.522799015E0,8.999038339E-1,1.020433712E1
1.663399688E1,3.489615917E0,7.793701291E-1,9.861697197E0
1.665399688E1,3.430335760E0,7.787188888E-1,1.010877895E1
1.667399688E1,2.836180925E0,9.374448657E-1,9.818449020E0
1.669400156E1,2.268582821E0,1.074057937E0,9.053664207E0
1.671599688E1,1.505933762E0,1.347782373E0,8.541037560E0
1.673599688E1,1.061148524E0,1.577711940E0,8.197813034E0
1.675599688E1,1.064902544E0,1.897807121E0,7.770688057E0
1.677599688E1,1.381789565E0,2.065851212E0,7.433718681E0
1.679599688E1,1.614850760E0,2.151841640E0,7.086137772E0
1.681599688E1,1.752660990E0,2.108084917E0,7.210473537E0
1.683600156E1,1.609794140E0,1.966817498E0,7.540365696E0
1.685799688E1,1.473286390E0,1.915006995E0,7.947877884E0
1.687799688E1,1.580182791E0,2.059885025E0,8.209851265E0
1.689799688E1,1.853313208E0,2.303633690E0,8.172453880E0
1.691799844E1,2.227938652E0,2.480843067E0,8.321660995E0
1.693999688E1,2.390322924E0,2.474570274E0,9.124628067E0
1.696000312E1,2.128435850E0,2.446692228E0,9.669164658E0
1.698199688E1,2.372194052E0,2.226588488E0,1.000352097E1
1.700200156E1,2.718395710E0,1.899224520E0,1.041344643E1
1.702399688E1,2.236921787E0,1.958945394E0,1.060680199E1
1.704399844E1,1.384404063E0,2.117508650E0,1.012023354E1
1.706599688E1,1.490716219E0,1.867161274E0,9.876130104E0
1.708599688E1,2.078234196E0,1.546118021E0,1.070623875E1
1.710599688E1,1.524761677E0,1.435534716E0,1.138450623E1
1.712600312E1,8.415331244E-1,1.293453097E0,1.126727676E1
1.714799688E1,8.980458975E-1,1.008954883E0,1.065850639E1
1.716800156E1,1.498377562E0,5.911858678E-1,1.017543316E1
1.718999688E1,1.745555043E0,1.957116276E-1,1.044365120E1
1.721199688E1,1.470729351E0,1.738573462E-1,1.047220039E1
1.723199688E1,1.361161113E0,3.905709088E-1,9.650921822E0
1.725199688E1,1.358939290E0,8.367830515E-1,8.363396645E0
1.727199688E1,1.398826718E0,1.251085281E0,7.488143444E0
1.729199688E1,1.522846341E0,1.421887636E0,7.312533855E0
1.731199688E1,1.468785286E0,1.426858068E0,7.422705173E0
1.733199688E1,1.061081409E0,1.508883476E0,7.518157005E0
1.735199688E1,7.785465121E-1,1.624954224E0,7.572907925E0
1.737199688E1,7.699657083E-1,1.642412901E0,7.768274784E0
1.739200313E1,7.810651660E-1,1.585909724E0,8.059036255E0
1.741399688E1,5.068621039E-1,1.622368574E0,8.688701630E0
1.743400312E1,4.891354144E-1,1.694003105E0,9.327637672E0
1.745599688E1,1.057451963E0,1.693821073E0,9.821312904E0
1.747599688E1,1.711078525E0,1.634320378E0,1.025065899E1
1.749599688E1,2.265700102E0,1.609794140E0,1.083495045E1
1.751600000E1,2.213142633E0,1.630547166E0,1.155104637E1
1.753799688E1,1.916673303E0,1.839867473E0,1.106898785E1
1.755800156E1,2.377653122E0,1.693600774E0,9.076869011E0
1.757999688E1,3.301604271E0,1.090635538E0,7.127078533E0
1.760000312E1,4.442680836E0,2.306286693E-1,7.887659073E0
1.762199688E1,4.149620533E0,3.425623849E-2,9.865662575E0
1.764200469E1,3.331234932E0,2.983271182E-1,1.020870399E1
1.766399688E1,3.384146690E0,8.292557001E-1,8.317418098E0
1.768399688E1,3.989688158E0,1.256678224E0,5.897330761E0
1.770399688E1,3.873396873E0,1.046754479E0,5.744312286E0
1.772399844E1,2.801685333E0,1.095165253E0,7.272358894E0
1.774599688E1,1.694050908E0,1.107347012E0,8.562718391E0
1.776600000E1,1.121980309E0,9.542234540E-1,9.082548141E0
1.778799688E1,1.130858064E0,9.973191023E-1,1.000838566E1
1.780801250E1,9.660220742E-1,1.099005580E0,1.126347351E1
1.782999688E1,7.236043811E-1,1.535468578E0,1.144056797E1
1.784999688E1,5.410416722E-1,1.757257819E0,1.040112114E1
1.786999688E1,3.272011578E-1,1.960985184E0,9.776214600E0
1.788999844E1,1.314608306E-1,2.115439892E0,1.033495522E1
1.791199688E1,6.639312506E-1,1.995298982E0,1.080892086E1
1.793199844E1,1.167747974E0,1.714248419E0,1.032340527E1
1.795399688E1,1.294315100E0,1.505378246E0,9.388382912E0
1.797399688E1,1.308498263E0,1.328485131E0,9.281103134E0
1.799399688E1,1.588102698E0,9.629670978E-1,9.811850548E0
1.801400000E1,2.617101908E0,5.383506417E-1,1.075174713E1
1.803599688E1,3.362598896E0,4.127603769E-2,1.116152000E1
1.805600312E1,3.071923494E0,9.278010577E-2,1.026279354E1
1.807799688E1,2.476619720E0,2.438254952E-1,8.881529808E0
1.809799688E1,2.824516296E0,-9.701305628E-2,9.375415802E0
1.811799688E1,3.055604696E0,-7.015106678E-1,1.041230679E1
1.813799688E1,1.632299662E0,-9.533711076E-1,1.060360336E1
1.815799688E1,4.830924273E-1,-9.515036345E-1,1.007868004E1
1.817799688E1,5.091988444E-1,-6.967509985E-1,9.472093582E0
1.819799844E1,1.367711663E0,-5.532904863E-1,9.164697647E0
1.821999531E1,1.898180485E0,-4.825657010E-1,9.742419243E0
1.823999688E1,1.345627546E0,-2.987293303E-1,1.033230209E1
1.825999688E1,7.011371851E-1,-1.125274785E-2,9.974377632E0
1.828199688E1,5.450831056E-1,3.335123062E-1,9.138706207E0
1.830199688E1,6.916178465E-1,5.597931147E-1,9.391630173E0
1.832199688E1,6.746286154E-1,7.176571488E-1,9.577525139E0
1.834199844E1,5.182872415E-1,7.937927842E-1,9.046376228E0
1.836199844E1,4.544098973E-1,7.951909900E-1,8.737897873E0
1.838399844E1,5.031941533E-1,6.858046651E-1,9.190976143E0
1.840599688E1,7.134625316E-1,5.373545885E-1,9.904324532E0
1.842599688E1,8.824644089E-1,5.139297247E-1,1.013501930E1
1.844600312E1,9.113672376E-1,4.580012262E-1,1.012934113E1
1.846799688E1,6.165165305E-1,2.509410679E-1,1.005405807E1
1.848800156E1,4.039018154E-1,-9.892841801E-3,1.049467659E1
1.850999688E1,8.722363710E-1,-2.725559175E-1,1.096463013E1
1.853000000E1,1.251382232E0,-3.383102715E-1,1.127107811E1
1.855199688E1,1.223906398E0,1.246612966E-1,1.094582176E1
1.857200469E1,1.480028391E0,6.045646071E-1,1.030643463E1
1.859399688E1,2.212299824E0,7.473644614E-1,9.607030869E0
1.861399688E1,2.981930494E0,6.882372499E-1,8.311749458E0
1.863599688E1,4.036298275E0,-1.401661336E-1,7.674862385E0
1.865599688E1,3.683297396E0,1.745947748E-1,8.594734192E0
1.867599688E1,2.151151896E0,-4.105672836E-1,1.046666431E1
1.869599688E1,8.366969228E-1,-1.817486435E-1,1.143437195E1
1.871599688E1,1.842951179E0,-5.749914795E-2,1.066119862E1
1.873599688E1,3.348817825E0,2.562561929E-1,9.394703865E0
1.875599688E1,3.270211458E0,6.324619055E-1,9.018661499E0
1.877599688E1,1.718557954E0,8.565208912E-1,9.101883888E0
1.879600000E1,6.889937520E-1,1.029727101E0,8.666224480E0
1.881799688E1,6.543449163E-1,1.193203092E0,8.178736687E0
1.883799688E1,9.338535666E-1,1.456239581E0,8.147104263E0
1.885799688E1,1.043747425E0,1.532107234E0,8.365081787E0
1.887800625E1,8.075259328E-1,1.502217889E0,8.312974930E0
1.889999688E1,4.316170812E-1,1.463537216E0,7.676461697E0
1.892000156E1,4.326705635E-1,1.460338473E0,7.556684494E0
1.894199844E1,7.431218624E-1,1.423017740E0,8.548746109E0
1.896200313E1,1.067852259E0,1.309168696E0,8.714176178E0
1.898399688E1,1.236030459E0,1.280122161E0,8.233477592E0
1.900399688E1,1.084247828E0,1.375564694E0,8.494646072E0
1.902399844E1,8.676682711E-1,1.449976444E0,9.491630554E0
1.904400000E1,6.743412614E-1,1.300731421E0,1.052008438E1
1.906599688E1,1.012201428E0,7.561080456E-1,1.117609596E1
1.908600156E1,1.131068707E0,3.885023296E-1,1.128269386E1
1.910799688E1,5.901611447E-1,8.425387740E-1,1.071439743E1
1.912799688E1,5.183063149E-1,1.262979746E0,9.652031898E0
1.914799688E1,1.526217461E0,5.534915924E-1,9.845474243E0
1.916799688E1,1.820962787E0,-3.025313318E-1,1.082824612E1
1.918799688E1,1.767974198E-1,-6.038272977E-1,1.145351696E1
1.920799688E1,-1.306199789E0,-4.986547530E-1,1.157888603E1
1.922800312E1,-1.039753914E0,-5.717161894E-1,1.114105415E1
1.924999688E1,1.064749360E-1,-6.450936794E-1,1.000787830E1
1.926999688E1,-9.212887846E-3,-5.315127373E-1,9.964494705E0
1.928999688E1,-6.555611491E-1,-3.428305387E-1,1.035012436E1
1.930999844E1,-9.400402308E-1,2.052309550E-2,9.764865875E0
1.933199688E1,-2.478286177E-1,6.003891826E-1,8.542387009E0
1.935200469E1,5.416929126E-1,9.376076460E-1,7.904495239E0
1.937399688E1,8.639907837E-1,1.069968700E0,7.904887676E0
1.939400312E1,4.814547896E-1,8.789018393E-1,7.780666828E0
1.941599688E1,-6.984364986E-2,7.500363588E-1,7.530396461E0
1.943599844E1,-2.028367668E-2,7.606953382E-1,7.478968620E0
1.945799688E1,1.750065684E-1,7.411873937E-1,7.898049831E0
1.947799688E1,-6.123410538E-2,6.002933979E-1,8.485788345E0
1.949799688E1,-3.921415210E-1,3.786573708E-1,8.922691345E0
1.951799688E1,-2.886641324E-1,2.760322988E-1,9.317236900E0
1.953799688E1,3.198078871E-1,1.075092331E-1,1.030467319E1
1.955799688E1,9.541276693E-1,-6.320692599E-3,1.121809006E1
1.957799688E1,8.296579123E-1,2.092149258E-1,1.114249039E1
1.959799688E1,6.562794447E-1,4.830158353E-1,1.120784283E1
1.961800312E1,1.756683230E0,4.482615888E-1,1.170818233E1
1.963999688E1,3.193424463E0,2.358767539E-1,1.080492687E1
1.966000000E1,3.188023090E0,-2.790681422E-1,1.005678749E1
1.968199688E1,2.125409365E0,-9.066746235E-1,1.098050785E1
1.970199688E1,7.026885748E-1,-8.065394759E-1,1.254191113E1
1.972199844E1,6.329790354E-1,-6.379015446E-1,1.237244892E1
1.974399688E1,1.612992764E0,-1.587930322E-1,1.035315037E1
1.976399688E1,1.929889441E0,3.582587540E-1,8.895369530E0
1.978400781E1,1.302043438E0,4.416727722E-1,8.895503044E0
1.980599688E1,1.784925163E-1,3.536714911E-1,9.568360329E0
1.982599688E1,-1.717408746E-1,3.937216699E-1,9.577228546E0
1.984599688E1,8.681374788E-2,5.478125215E-1,9.347212791E0
1.986599688E1,1.987857819E-1,7.587129474E-1,8.859302521E0
1.988599688E1,3.540928662E-1,9.966869950E-1,8.109841347E0
1.990800156E1,4.395850301E-1,1.210278511E0,7.446819782E0
1.992999688E1,4.725962579E-1,1.358661652E0,7.113287926E0
1.995000156E1,5.985791683E-1,1.462167740E0,6.936414242E0
1.997199688E1,7.323480248E-1,1.441864848E0,7.122415066E0
1.999200469E1,6.946344972E-1,1.401987076E0,7.617152691E0
2.001399688E1,6.562506557E-1,1.395197153E0,7.935284615E0
2.003399844E1,5.007616282E-1,1.328216910E0,8.350190163E0
2.005599688E1,8.628702909E-2,1.396058917E0,9.279437065E0
2.007599688E1,1.322844326E-1,1.438991785E0,1.027426624E1
2.009599688E1,7.759703398E-1,1.350176573E0,1.057442284E1
2.011599844E1,1.330074787E0,1.258401990E0,1.036637592E1
2.013799688E1,1.021950603E0,1.235475063E0,1.022139263E1
2.015800156E1,4.485201836E-1,9.172952771E-1,1.032614422E1
2.017999688E1,5.405820608E-1,-1.444469690E-1,1.216919136E1
2.020000000E1,2.904358208E-1,-5.800672174E-1,1.355379581E1
2.022199688E1,-6.249248981E-1,-4.394700825E-1,1.258909607E1
2.024199688E1,-8.973084688E-1,-1.034582406E-1,1.077888775E1
2.026199688E1,-5.294250250E-1,9.537541866E-2,9.531355858E0
2.028200625E1,-2.595985234E-1,-8.916964382E-2,9.359691620E0
2.030399688E1,-6.732303500E-1,-3.922276795E-1,1.022455406E1
2.032400156E1,-1.032609582E0,-3.673567176E-1,1.050397587E1
2.034599844E1,-7.033782005E-1,-5.608177930E-2,9.618360519E0
2.036799844E1,-2.542642131E-2,2.622416914E-1,8.921762466E0
2.039000000E1,-7.603985071E-2,2.127008885E-1,9.191283226E0
2.041199688E1,-3.132190406E-1,1.726315171E-1,9.269783974E0
2.043199688E1,-2.297859043E-1,2.446395308E-1,8.858402252E0
2.045199688E1,1.261744350E-1,3.551846147E-1,7.977106571E0
2.047200156E1,-8.924625814E-2,4.995549619E-1,7.878886700E0
2.049399688E1,-6.499587297E-1,5.992686749E-1,8.186637878E0
2.051400313E1,-9.894469380E-1,6.601101756E-1,8.217914581E0
2.053599688E1,-1.083768964E0,9.401551485E-1,8.273326874E0
2.055599688E1,-7.781347036E-1,9.433155060E-1,8.793471336E0
2.057599688E1,-8.901641518E-2,6.546130180E-1,9.625169754E0
2.059599688E1,2.269607335E-1,3.946985304E-1,1.038165092E1
2.061599688E1,-1.007767394E-1,4.863581359E-1,1.078731537E1
2.063599688E1,1.828212440E-1,4.308413565E-1,1.052837753E1
2.065600312E1,1.167613864E0,4.158249497E-2,1.018994236E1
2.067799688E1,1.866155744E0,-5.244833827E-1,1.127501392E1
2.069800469E1,6.173209548E-1,-5.377185941E-1,1.302840328E1
2.071999531E1,1.975024939E-1,-4.322970510E-1,1.288240433E1
2.073999688E1,2.222719431E0,-2.095884085E-1,1.094913483E1
2.075999688E1,4.133512497E0,1.135713533E-1,9.287836075E0
2.078000312E1,3.761779308E0,1.088212579E-1,9.048061371E0
2.080199688E1,1.683554769E0,-7.925765216E-2,9.796604156E0
2.082200313E1,4.869423211E-1,-8.331821882E-4,9.974072456E0
2.084399688E1,3.733422160E-1,2.983079553E-1,9.419709206E0
2.086400469E1,6.299335957E-1,7.093636394E-1,8.414239883E0
2.088599688E1,7.097850442E-1,1.080876708E0,7.615151405E0
2.090599844E1,7.821378112E-1,1.294142604E0,7.453427792E0
2.092799688E1,8.913325667E-1,1.423918009E0,7.339961529E0
2.094799688E1,1.059788585E0,1.479961395E0,7.219724655E0
2.096799688E1,1.194515109E0,1.535439849E0,7.357219219E0
2.098800156E1,1.023837328E0,1.622540951E0,7.717201710E0
2.100999688E1,5.879967809E-1,1.747700214E0,8.174206734E0
2.103000156E1,4.037294388E-1,1.676898956E0,8.684899330E0
2.105199688E1,3.578852713E-1,1.623929620E0,9.424247742E0
2.107199688E1,3.176722825E-1,1.617762089E0,1.003920364E1
2.109199688E1,4.080198705E-1,1.660062909E0,1.029827499E1
2.111199688E1,8.965806365E-1,1.343214273E0,1.068285179E1
2.113199688E1,9.297738671E-1,8.762778044E-1,1.131077385E1
2.115199844E1,-7.560888678E-2,9.341600537E-1,1.101383495E1
2.117399688E1,-7.949324250E-1,1.094830036E0,9.902915955E0
2.119399688E1,6.491159648E-2,4.545056820E-1,1.034615040E1
2.121399688E1,9.676213861E-1,-1.433935314E-1,1.192136192E1
2.123399688E1,5.631162226E-2,-2.204389274E-1,1.244835472E1
2.125399844E1,-7.689409852E-1,-4.261679202E-2,1.113449287E1
2.127599688E1,-7.654166818E-1,1.730050147E-1,1.002209949E1
2.129600156E1,-2.152004242E-1,6.832093745E-2,9.863795280E0
2.131799688E1,-1.447917521E-1,6.234501489E-3,1.018041420E1
2.133799844E1,-6.510600448E-1,6.028600037E-2,9.942717552E0
2.135999688E1,-8.308742046E-1,4.582693577E-1,8.747799873E0
2.137999688E1,-5.156918764E-1,8.377694488E-1,8.015662193E0
2.139999844E1,-6.441360712E-2,1.130293131E0,7.921494007E0
2.142000312E1,-2.993709780E-2,1.346393704E0,7.894228935E0
2.144199688E1,-1.414685994E-1,1.306017876E0,7.640175343E0
2.146200000E1,-2.334729731E-1,1.346182942E0,7.777650356E0
2.148399688E1,-2.026069164E-1,1.222153783E0,8.394023895E0
2.150399688E1,-4.837341011E-1,1.217892051E0,8.570044518E0
2.152399688E1,-5.569966435E-1,1.398118019E0,8.314229965E0
2.154400156E1,-2.749309838E-1,1.437957525E0,8.784728050E0
2.156599688E1,-2.752182484E-1,1.289469123E0,1.010915279E1
2.158600312E1,-2.674131691E-1,1.022352815E0,1.081857395E1
2.160799688E1,2.858676612E-1,5.869720578E-1,1.062833977E1
2.162799688E1,8.314679861E-1,6.605985761E-1,1.032359695E1
2.164799688E1,9.096530080E-1,8.211824298E-1,1.065489674E1
2.166800000E1,7.956123948E-1,7.948845029E-1,1.072497940E1
2.168999688E1,1.067574620E0,8.370608091E-1,9.807684898E0
2.171000469E1,2.149811268E0,2.231683284E-1,1.002725220E1
2.173199688E1,2.868780375E0,-6.418855190E-1,1.172656059E1
2.175200312E1,2.062939882E0,-9.323021173E-1,1.258145332E1
2.177399688E1,1.383618832E0,-7.867920995E-1,1.096523380E1
2.179400469E1,1.639080048E0,-2.818166912E-1,9.569375038E0
2.181599688E1,2.460492373E0,1.390743852E-1,9.153473854E0
2.183600000E1,2.693773746E0,2.619256675E-1,9.791624069E0
2.185799688E1,1.616574526E0,2.180351615E-1,1.007025242E1
2.187799688E1,7.287663221E-1,3.278045356E-1,9.277656555E0
2.189799688E1,5.695805550E-1,6.779421568E-1,8.337002754E0
2.191800313E1,8.009658456E-1,1.022515655E0,8.004026413E0
2.193999688E1,6.677045226E-1,1.217049360E0,8.059304237E0
2.195999688E1,5.137190819E-1,1.274318576E0,7.867222309E0
2.197999688E1,5.339835882E-1,1.458844662E0,7.297076702E0
2.199999688E1,8.620945215E-1,1.646645784E0,7.201672554E0
2.201999688E1,1.217221737E0,1.734599113E0,7.513732910E0
2.203999688E1,1.041171312E0,1.746838212E0,7.763266087E0
2.206000000E1,8.217666745E-1,1.659363747E0,8.073353767E0
2.208199688E1,7.796478271E-1,1.513393998E0,8.810337067E0
2.210199688E1,9.082068801E-1,1.432115674E0,9.586546898E0
2.212199688E1,1.238855720E0,1.210134864E0,1.033355618E1
2.214200156E1,1.593235850E0,8.750711679E-1,1.080504227E1
2.216399688E1,1.587355733E0,7.393007874E-1,1.131764030E1
2.218400469E1,1.185723662E0,1.042809010E0,1.081401539E1
2.220599688E1,3.680654168E-1,1.339230180E0,9.632410049E0
2.222600313E1,6.332759261E-1,4.713416994E-1,1.074037933E1
2.224799688E1,9.750051498E-1,-3.775560260E-1,1.349825096E1
2.226800156E1,1.339345217E0,-1.770177037E-1,1.378103447E1
2.228999688E1,1.364915252E0,2.062556893E-1,1.232482338E1
2.230999688E1,1.635000348E0,3.744052649E-1,9.132491112E0
2.232999688E1,1.543991923E0,5.364352465E-1,6.555659771E0
2.234999688E1,2.107816935E0,8.117588758E-1,5.928847790E0
2.236999688E1,3.036470175E0,6.807098389E-1,7.395727634E0
2.238999688E1,2.347419024E0,7.052743435E-1,8.775189400E0
2.240999688E1,1.937359214E0,1.129383326E0,7.514029980E0
2.242999688E1,1.607016921E0,7.373088002E-1,6.173583031E0
2.244999844E1,1.917860985E0,8.321191669E-1,5.569066525E0
2.247199688E1,2.659153461E0,5.940493345E-1,6.078580856E0
2.249200000E1,2.878797531E0,5.120335817E-1,6.400180340E0
2.251399688E1,2.663348436E0,2.116953135E-1,6.508963108E0
2.253399688E1,2.652076483E0,9.717585891E-2,6.175871849E0
2.255399688E1,3.284739494E0,8.468770236E-2,6.513885021E0
2.257400312E1,4.098384857E0,-2.439691424E-1,7.198761463E0
2.259599688E1,4.517130852E0,-4.705947042E-1,7.722306252E0
2.261600156E1,4.015488148E0,-7.982077003E-1,7.500669956E0
2.263799688E1,4.598773003E0,-1.133568406E0,6.411988258E0
2.265799844E1,5.506108284E0,-1.651549101E0,6.462946415E0
2.267999688E1,5.680588245E0,-2.094878674E0,7.533403397E0
2.269999844E1,5.665341854E0,-2.940453053E0,7.191281796E0
2.272199688E1,6.192028522E0,-4.309812069E0,5.145982265E0
2.274199844E1,6.055462837E0,-5.827017784E0,3.528191328E0
2.276400156E1,6.205110073E0,-6.668608189E0,3.187161446E0
2.278599688E1,6.731518745E0,-8.018114090E0,2.613366842E0
2.280600469E1,7.739314556E0,-9.857225418E0,1.301449656E0
2.282799688E1,8.492751122E0,-1.154707241E1,1.583630323E0
2.284800312E1,8.703660011E0,-1.241133118E1,1.676343441E0
2.286999688E1,8.275156021E0,-1.209729767E1,1.835864305E0
2.289000156E1,7.379264832E0,-1.146229744E1,1.904759884E0
2.291199844E1,7.189203739E0,-1.118127632E1,1.757918715E0
2.293199844E1,7.770458221E0,-1.098319912E1,9.506321549E-1
2.295399688E1,8.416260719E0,-1.041313934E1,2.234268934E-1
2.297399688E1,8.964179039E0,-9.771330833E0,-9.067320824E-2
2.299399688E1,9.539399147E0,-9.249164581E0,-1.828116626E-1
2.301399688E1,9.789593697E0,-8.815192223E0,-8.193915337E-2
2.303399688E1,9.747418404E0,-8.518234253E0,-2.729390003E-2
2.305399688E1,9.770727158E0,-8.380357742E0,9.663955867E-2
2.307399688E1,9.720535278E0,-8.319917679E0,1.295550317E-1
2.309399688E1,9.554368019E0,-8.336839676E0,1.753321886E-1
2.311400156E1,9.388747215E0,-8.469526291E0,7.539149523E-1
2.313599688E1,9.647914886E0,-8.711609840E0,1.294133067E0
2.315600156E1,1.021535969E1,-8.771809578E0,8.478825688E-1
2.317799688E1,1.062231636E1,-8.624307632E0,1.773720384E-1
2.319799688E1,1.089244938E1,-7.040399075E0,3.016847372E0
2.321799688E1,1.131329250E1,-6.643220425E0,5.635366917E0
2.323801875E1,1.494302654E1,-1.185665131E1,3.765954733E0
2.325999688E1,1.280893135E1,-1.016981220E1,2.972688675E0
2.328000625E1,1.148511028E1,-9.795454979E0,1.638974786E0
2.330200313E1,1.074460220E1,-1.027862358E1,2.022592783E0
2.332399688E1,1.093668461E1,-1.258681679E1,1.604727983E0
2.334399688E1,1.015685463E1,-1.367369747E1,7.775983810E-1
2.336399844E1,8.819578171E0,-1.368183804E1,5.301720276E-2
2.338599688E1,7.771032810E0,-1.247809124E1,1.471955236E-2
2.340599688E1,7.950463772E0,-1.132083893E1,7.483987212E-1
2.342599688E1,8.071887970E0,-1.075441933E1,7.055999637E-1
2.344599844E1,7.630330563E0,-1.039540291E1,1.174020767E-1
2.346799688E1,7.029012203E0,-1.018963718E1,-6.226935387E-1
2.348800156E1,6.310225010E0,-9.949000359E0,-1.311476707E0
2.350999531E1,5.925467491E0,-9.993226051E0,-1.661949515E0
2.352999688E1,5.461365700E0,-9.869014740E0,-9.178028703E-1
2.354999688E1,4.959167480E0,-9.760154724E0,8.079856038E-1
2.356999688E1,4.587721348E0,-9.621511459E0,1.568920374E0
2.358999688E1,4.139488697E0,-9.441554070E0,1.074996591E0
2.360999688E1,3.437029839E0,-9.114274979E0,3.911072016E-1
2.362999688E1,2.888134956E0,-8.700098038E0,-1.269884557E-1
2.365199688E1,2.924641848E0,-8.743529320E0,7.835742831E-2
2.367199688E1,2.813340425E0,-8.705853462E0,2.588610947E-1
2.369199688E1,1.997760296E0,-8.239798546E0,6.884096265E-1
2.371199844E1,1.871183634E0,-7.616099358E0,7.084826231E-1
2.373399688E1,2.542115450E0,-7.637666225E0,9.044336677E-1
2.375399688E1,3.638247967E0,-8.337903023E0,5.227020979E-1
2.377399688E1,4.881461620E0,-9.795521736E0,-6.564230919E-1
2.379400625E1,4.558751583E0,-9.715641975E0,-1.025398374E0
2.381599688E1,4.422866344E0,-9.317811966E0,1.130446270E-1
2.383600000E1,4.459066391E0,-9.110559464E0,8.558696508E-1
2.385799688E1,5.088416100E0,-9.378059387E0,1.061569810E0
2.387800156E1,5.616366386E0,-9.740953445E0,9.049507976E-1
2.389999688E1,5.784180641E0,-1.006536674E1,7.488967180E-1
2.392000625E1,5.780742645E0,-9.978553772E0,3.509037793E-1
2.394199844E1,5.905844212E0,-9.575935364E0,-2.900144458E-1
2.396399688E1,6.207504272E0,-9.153760910E0,-6.980342865E-1
2.398399688E1,6.592165947E0,-9.081110954E0,-6.985514760E-1
2.400399688E1,6.640280247E0,-9.020298958E0,-1.696626991E-1
2.402399688E1,6.890330791E0,-9.192546844E0,-2.076922208E-1
2.404400313E1,7.646601677E0,-9.411348343E0,-1.732923090E-1
2.406599688E1,8.908863068E0,-9.470389366E0,-2.054991126E-1
2.408600000E1,1.019390678E1,-9.510190010E0,-6.082038283E-1
2.410799688E1,1.114304543E1,-9.604502678E0,-1.266772151E0
2.412799844E1,1.117321301E1,-9.469738007E0,-8.133965135E-1
2.414999688E1,1.083621407E1,-9.146414757E0,3.525797129E-1
2.416999688E1,1.096389294E1,-9.078324318E0,6.904111505E-1
2.418999688E1,1.147826290E1,-9.237730026E0,7.180977464E-1
2.421000156E1,1.129344940E1,-8.910854340E0,6.682887673E-1
2.423199688E1,1.068736267E1,-8.278440475E0,9.880487323E-1
2.425199688E1,1.018112183E1,-8.062062263E0,1.517895103E0
2.427199688E1,1.022705269E1,-8.854035378E0,1.240914822E0
2.429199688E1,1.090319443E1,-1.094467163E1,8.733186126E-1
2.431199688E1,9.685033798E0,-1.121945858E1,9.863344431E-1
2.433199688E1,9.061286926E0,-1.041736317E1,1.844205737E0
2.435200625E1,9.977395058E0,-1.015684605E1,1.833517909E0
2.437399688E1,1.119433880E1,-1.120646286E1,1.458021045E0
2.439400000E1,1.105143356E1,-1.247987175E1,1.798380613E0
2.441599688E1,9.703143120E0,-1.280280209E1,1.888632417E0
2.443599688E1,8.231341362E0,-1.190647984E1,1.283033609E0
2.445599688E1,7.314927578E0,-1.085265827E1,1.134803653E0
2.447599688E1,6.392949581E0,-1.028069210E1,1.161455989E0
2.449599688E1,5.534905910E0,-1.008893681E1,1.732166648E0
2.451599688E1,6.379226208E0,-9.942861557E0,2.287477732E0
2.453599688E1,6.750202656E0,-1.007598782E1,1.077946186E0
2.455599688E1,6.492931366E0,-9.898414612E0,-2.809931040E-1
2.457600000E1,5.916081905E0,-9.558783531E0,-1.475029469E0
2.459799688E1,5.568319321E0,-9.202134132E0,-2.419905663E0
2.461800312E1,5.324914932E0,-9.125499725E0,-2.621229410E0
2.463999688E1,5.046441078E0,-9.039318085E0,-1.753427148E0
2.465999688E1,4.845883369E0,-9.001269341E0,-8.735867143E-1
2.467999688E1,4.438409328E0,-8.971112251E0,-1.182256788E-1
2.470000156E1,4.203164577E0,-9.254672050E0,2.619735301E-1
2.472199688E1,3.555983305E0,-9.082528114E0,4.902175963E-1
2.474199844E1,3.051572800E0,-8.479045868E0,9.259814620E-1
2.476399688E1,3.493551970E0,-8.747426987E0,1.306410551E0
2.478400000E1,3.723845482E0,-8.837918282E0,1.317787766E0
2.480599688E1,4.006658077E0,-9.344473839E0,6.020268202E-1
2.482600156E1,4.370729923E0,-1.074091625E1,-4.989420474E-1
2.484799688E1,3.147628069E0,-1.086321068E1,-1.090328932E0
2.486799844E1,2.346834660E0,-9.953050613E0,-2.715503573E-1
2.488999688E1,3.358366013E0,-9.846183777E0,4.214561284E-1
2.490999688E1,4.960354805E0,-1.056961536E1,1.376665980E-1
2.493199844E1,6.229598045E0,-1.120088959E1,-5.327385664E-1
2.495399688E1,6.453781128E0,-1.093904114E1,-1.411190271E0
2.497399688E1,6.126436710E0,-1.016234303E1,-1.441903234E0
2.499399688E1,5.903622627E0,-9.514328003E0,-8.321000338E-1
2.501399688E1,5.931414604E0,-9.184770584E0,-1.420240384E-2
2.503399688E1,5.731651783E0,-8.962531090E0,6.559538245E-1
2.505399688E1,5.531841278E0,-9.056652069E0,3.440180719E-1
2.507400156E1,5.851323605E0,-9.083803177E0,-2.949081957E-1
2.509599688E1,6.726921558E0,-9.153483391E0,-8.304719925E-1
2.511600156E1,7.457900047E0,-9.435558319E0,-1.218629479E0
2.513799688E1,8.084672928E0,-9.229455948E0,-1.011789590E-1
2.515799688E1,8.353934288E0,-9.360907555E0,6.839085221E-1
2.517799688E1,9.488929749E0,-9.412689209E0,5.137765408E-1
2.519800469E1,9.722240448E0,-9.066620827E0,9.220549464E-2
2.521999688E1,9.428318024E0,-8.669864655E0,3.035464883E-1
2.524000000E1,9.572343826E0,-8.885246277E0,8.693729043E-1
2.526199688E1,9.120299339E0,-9.010932922E0,1.306908607E0
2.528200313E1,8.714109421E0,-8.909753799E0,2.124738932E0
2.530399688E1,9.151050568E0,-8.552452087E0,2.793813229E0
2.532399688E1,1.043360519E1,-9.424277306E0,2.944695711E0
2.534399688E1,1.164155674E1,-1.141274834E1,2.132141829E0
2.536400156E1,1.062351322E1,-1.142589664E1,1.508682251E0
2.538400313E1,9.852619171E0,-1.112486935E1,9.210398197E-1
2.540599688E1,9.994786263E0,-1.131111813E1,4.153365493E-1
2.542599688E1,1.080030155E1,-1.246895409E1,6.078112125E-1
2.544599844E1,1.098856258E1,-1.359796429E1,8.024311066E-1
2.546799688E1,9.445336342E0,-1.386080933E1,9.034855366E-1
2.548799688E1,7.796947956E0,-1.234285641E1,1.272144675E0
2.550799688E1,7.263164997E0,-1.092318153E1,1.559678674E0
2.552799688E1,7.807606220E0,-1.013371658E1,1.488915801E0
2.554800000E1,8.584965706E0,-1.017901516E1,7.400668859E-1
2.556999688E1,8.603046417E0,-1.067948055E1,-3.215412796E-1
2.558999688E1,7.373518467E0,-1.068977547E1,-9.007178545E-1
2.560999688E1,6.661856651E0,-1.077188683E1,-1.100097418E0
2.562999688E1,7.002264023E0,-1.072620583E1,-3.834266067E-1
2.564999688E1,7.367466450E0,-1.106505203E1,-5.050807819E-2
2.567200156E1,6.932851791E0,-1.153317547E1,1.471189111E-1
2.569399688E1,5.960384369E0,-1.149763680E1,6.044306159E-1
2.571400625E1,5.444318771E0,-1.133712006E1,8.720065951E-1
2.573599688E1,4.587328434E0,-1.073127174E1,1.043785810E0
2.575599688E1,3.804530382E0,-1.007937908E1,4.808802009E-1
2.577599688E1,2.686083555E0,-9.156988144E0,3.638037443E-1
2.579599688E1,2.512973070E0,-8.616999626E0,1.336022019E0
2.581599688E1,2.387871265E0,-7.591563702E0,2.267634630E0
2.583599688E1,2.915294886E0,-7.378240108E0,1.411276579E0
2.585599688E1,3.729170084E0,-8.195764542E0,-9.753499031E-1
2.587599688E1,3.389107466E0,-8.492759705E0,-2.529962301E0
2.589599844E1,2.934113264E0,-7.726012230E0,-4.150492251E-1
2.591799688E1,3.865563154E0,-7.509949684E0,1.940050364E0
2.593799844E1,4.739408493E0,-7.660822868E0,3.126013517E0
2.595999688E1,5.015162945E0,-8.104975700E0,2.467445135E0
2.597999844E1,4.643601894E0,-8.210110664E0,1.370555997E0
2.600199688E1,4.475222588E0,-8.300170898E0,6.363787651E-1
2.602200469E1,4.455819607E0,-8.119389534E0,-2.141373977E-2
2.604399688E1,4.794772148E0,-7.956104279E0,-5.828923583E-1
2.606399688E1,5.059311867E0,-7.900108814E0,-2.550782561E-1
2.608399688E1,5.079634190E0,-7.909274101E0,3.621373475E-1
2.610400000E1,5.142515659E0,-8.125135422E0,1.202904463E0
2.612599688E1,5.600688934E0,-8.359421730E0,1.120725870E0
2.614599688E1,6.607068062E0,-8.735818863E0,-3.432614803E-1
2.616599688E1,7.240525246E0,-8.941644669E0,-1.236413717E0
2.618599688E1,8.185124397E0,-9.632332802E0,-1.426522851E0
2.620599688E1,8.809378624E0,-1.052634811E1,-8.769769073E-1
2.622600156E1,9.035957336E0,-1.117771339E1,-7.524784803E-1
2.624799688E1,9.203608513E0,-1.189272785E1,-5.084326863E-1
2.626799688E1,1.059545326E1,-1.260238838E1,1.108036563E-1
2.628799688E1,1.217777157E1,-1.265833569E1,1.922256649E-1
2.630801094E1,1.269566631E1,-1.166308498E1,4.534617811E-2
2.632999688E1,1.274898052E1,-1.010517883E1,1.949742138E-1
2.634999688E1,1.306897068E1,-8.790397644E0,6.901238561E-1
2.637000469E1,1.472534561E1,-8.718676567E0,9.031886458E-1
2.639199844E1,1.592617226E1,-9.400440216E0,5.147916675E-1
2.641200000E1,1.493424511E1,-8.878915787E0,3.682090640E-1
2.643399688E1,1.424057674E1,-8.537196159E0,1.665320516E0
2.645399688E1,1.390589619E1,-8.894746780E0,2.246929407E0
2.647399844E1,1.406435490E1,-1.009580231E1,2.138098717E0
2.649400156E1,1.419799900E1,-1.105713177E1,2.008208513E0
2.651599688E1,1.425292206E1,-1.173822498E1,1.953572869E0
2.653599688E1,1.347161674E1,-1.184658718E1,1.735010982E0
2.655599688E1,1.194659805E1,-1.197763538E1,1.143470645E0
2.657600156E1,1.066042328E1,-1.233352947E1,8.126399517E-1
2.659799688E1,9.977212906E0,-1.290773582E1,9.106681347E-1
2.661799688E1,9.635235786E0,-1.362534428E1,6.776931882E-1
2.663799688E1,8.744601250E0,-1.402488899E1,1.681399941E-1
2.665799688E1,7.029759407E0,-1.361334515E1,6.981588006E-1
2.667799688E1,5.851754189E0,-1.282608318E1,1.639587641E0
2.669799688E1,5.190207958E0,-1.194622326E1,2.255452871E0
2.671800313E1,4.631573677E0,-1.119671345E1,2.489586592E0
2.673999688E1,4.501022339E0,-1.020065880E1,2.271465302E0
2.675999688E1,5.060069084E0,-9.157295227E0,1.928730607E0
2.677999688E1,4.926568031E0,-8.101145744E0,2.102252722E0
2.679999688E1,4.240006924E0,-7.456741333E0,1.510990262E0
2.682199688E1,4.240131378E0,-6.597290039E0,1.713137507E0
2.684200469E1,5.863055229E0,-6.129242897E0,3.046650410E0
2.686399688E1,6.659395695E0,-5.079682350E0,5.368518353E0
2.688399844E1,6.675072670E0,-4.569085121E0,5.034086704E0
2.690599688E1,7.765410900E0,-4.572742939E0,5.033081055E0
2.692599688E1,8.218002319E0,-4.316343307E0,5.577044010E0
2.694599688E1,7.315396786E0,-4.047196865E0,6.418002605E0
2.696599688E1,5.675072193E0,-3.135944605E0,7.067396164E0
2.698599688E1,5.126062393E0,-1.971807003E0,7.147362232E0
2.700599688E1,6.052417278E0,-1.467090249E0,7.308243275E0
2.702600156E1,5.845203876E0,-6.770419478E-1,7.019876003E0
2.704799688E1,4.821002960E0,-1.970619559E-1,5.979308128E0
2.706800000E1,3.611385107E0,6.540576220E-1,5.513195515E0
2.708999688E1,3.403712273E0,1.310490251E0,5.927775383E0
2.710999688E1,3.621881247E0,1.356631398E0,6.148376942E0
2.712999688E1,2.988902330E0,1.330630302E0,6.511912823E0
2.715000469E1,2.191623449E0,1.591464281E0,6.594531536E0
2.717199688E1,2.572167397E0,1.864996910E0,6.244259834E0
2.719199688E1,3.451433420E0,2.029335022E0,5.939114094E0
2.721199688E1,4.301825047E0,2.215661287E0,5.333457947E0
2.723199688E1,4.445860386E0,2.396576643E0,5.147811413E0
2.725199688E1,4.177374363E0,2.406728268E0,5.043271065E0
2.727199688E1,3.986815214E0,2.277393341E0,5.389194965E0
2.729200312E1,3.986202240E0,2.164281845E0,6.369122505E0
2.731399688E1,3.963773251E0,1.639894009E0,8.564759254E0
2.733400469E1,3.824574471E0,1.536033511E0,9.640348434E0
2.735599844E1,3.969203472E0,1.413220644E0,8.913153648E0
2.737799688E1,4.118074894E0,1.056360126E0,8.383890152E0
2.739799688E1,4.338983059E0,7.406606674E-1,9.867339134E0
2.741799688E1,4.588343620E0,1.908849180E-1,1.044972324E1
2.743799688E1,4.293723106E0,4.485776275E-2,9.395853043E0
2.745800000E1,3.718204737E0,-2.209369391E-1,8.849918365E0
2.747999688E1,3.024326801E0,-7.089518309E-1,9.573042870E0
2.749999688E1,2.517924547E0,-1.220707655E0,1.018277931E1
2.751999688E1,2.358585358E0,-1.485822439E0,8.998549461E0
2.753999688E1,3.007557869E0,-1.350061655E0,7.619920254E0
2.755999688E1,4.141250610E0,-1.718059897E0,8.322705269E0
2.757999688E1,4.185083389E0,-1.571036816E0,9.415217400E0
2.759999688E1,3.501701832E0,-1.482527971E0,9.454147339E0
2.761999688E1,2.917526484E0,-8.099296689E-1,9.304432869E0
2.764000000E1,3.470242262E0,-3.637558520E-1,8.328766823E0
2.766199688E1,4.469333172E0,1.220659763E-1,5.693315983E0
2.768200000E1,5.349901199E0,-7.218997180E-2,2.369943619E0
2.770200156E1,5.728931904E0,-7.265635729E-1,1.199839830E0
2.772400000E1,5.958019257E0,-1.727732539E0,3.186921835E0
2.774599688E1,5.739753723E0,-2.402476072E0,4.423354626E0
2.776599688E1,5.009139061E0,-2.948804140E0,3.784342289E0
2.778599688E1,4.186683178E0,-3.725827932E0,2.383638382E0
2.780600312E1,3.569113016E0,-5.071397781E0,1.334508896E0
2.782799688E1,3.222097397E0,-6.555554390E0,3.494960070E-1
2.784799844E1,3.806684732E0,-8.424477577E0,-2.814815044E-1
2.786799844E1,4.886067867E0,-1.054269409E1,-2.485755980E-1
2.789000156E1,6.569795132E0,-1.323871040E1,1.824094355E-1
2.791199688E1,8.199556351E0,-1.476961040E1,6.266583204E-1
2.793201094E1,1.039665794E1,-1.643878174E1,4.476486742E-1
2.795399688E1,1.219118881E1,-1.830237007E1,-8.956229687E-2
2.797399688E1,1.176843071E1,-1.634627914E1,7.200226188E-1
2.799399688E1,1.092665863E1,-1.329670715E1,1.542134047E0
2.801400469E1,1.130313206E1,-1.243199825E1,1.508902431E0
2.803599688E1,1.177768135E1,-1.265559673E1,2.276119739E-1
2.805600156E1,1.168841648E1,-1.252516079E1,-1.380822301E0
2.807799688E1,1.048153687E1,-1.126963139E1,-2.302896500E0
2.809800312E1,8.819213867E0,-9.853729248E0,-2.558817387E0
2.811999688E1,7.140869141E0,-8.778034210E0,-2.514409781E0
2.813999688E1,6.214035511E0,-7.830696106E0,-1.973626733E0
2.815999688E1,5.848210812E0,-7.014407635E0,-1.368449092E0
2.818000313E1,5.876452923E0,-6.359785080E0,-1.091938019E0
2.820199688E1,6.392403603E0,-5.748037815E0,-9.120088816E-1
2.822200469E1,6.609921455E0,-5.145713806E0,-9.107639194E-1
2.824399688E1,6.859330654E0,-4.956725597E0,-1.376302004E0
2.826400469E1,7.259985924E0,-5.121484756E0,-1.115257502E0
2.828599688E1,7.961553574E0,-5.637550354E0,-1.323993504E-1
2.830599688E1,8.565428734E0,-6.082230091E0,4.828051329E-1
2.832599688E1,8.908509254E0,-6.494856358E0,7.836892605E-1
2.834599844E1,9.145084381E0,-6.922441483E0,1.213946462E0
2.836799688E1,9.495528221E0,-7.507728100E0,1.615358233E0
2.838800469E1,9.431200981E0,-8.169619560E0,1.648580194E0
2.840999688E1,8.999755859E0,-8.502738953E0,1.551978946E0
2.843000000E1,8.683558464E0,-8.525972366E0,1.639463186E0
2.845199688E1,9.358560562E0,-9.367352486E0,1.685106158E0
2.847199688E1,1.032815552E1,-1.114337063E1,1.266111374E0
2.849199688E1,1.075964737E1,-1.344282055E1,6.045742035E-1
2.851200469E1,8.858248711E0,-1.369280338E1,6.914933324E-1
2.853399688E1,7.475185871E0,-1.316749573E1,1.439077973E0
2.855400156E1,8.036731720E0,-1.325337219E1,2.007001877E0
2.857599688E1,9.126141548E0,-1.389116764E1,2.102913618E0
2.859599688E1,9.064648628E0,-1.404204082E1,1.904453397E0
2.861599688E1,7.852033615E0,-1.323456287E1,1.500982523E0
2.863600156E1,6.795750141E0,-1.193684769E1,1.264464140E0
2.865799688E1,6.437759399E0,-1.072293949E1,1.384777546E0
2.867800312E1,6.650508404E0,-1.027551174E1,1.106398940E0
2.869999688E1,6.363529682E0,-9.923324585E0,6.574573517E-1
2.871999688E1,5.816425800E0,-9.607242584E0,2.716940083E-2
2.873999688E1,5.288542271E0,-9.311031342E0,-5.428325534E-1
2.875999688E1,5.055490494E0,-9.081800461E0,-6.973543763E-1
2.877999688E1,4.800623417E0,-8.885572433E0,-7.952963114E-1
2.879999688E1,4.656540394E0,-8.651868820E0,-7.143148780E-1
2.882000156E1,4.430537224E0,-8.384254456E0,-4.821538925E-1
2.884199688E1,3.888652802E0,-7.997898102E0,-1.849281490E-1
2.886200312E1,3.455024719E0,-7.731585979E0,-1.233971566E-1
2.888399844E1,3.090559959E0,-7.784880638E0,-1.748533398E-1
2.890400938E1,2.762928009E0,-7.748814583E0,-2.085253894E-1
2.892599688E1,2.335878849E0,-7.324035168E0,3.367205337E-2
2.894599688E1,2.019671917E0,-7.103998661E0,1.924650818E-1
2.896599688E1,2.262099028E0,-7.473587036E0,4.987696707E-1
2.898600156E1,3.181664228E0,-8.480329514E0,2.525020838E-1
2.900799688E1,4.055423260E0,-9.665345192E0,-7.714979649E-1
2.902800781E1,3.812287331E0,-8.853586197E0,-6.172252297E-1
2.904999688E1,4.629543304E0,-8.497730255E0,3.206793964E-1
2.906999688E1,6.254593372E0,-9.000263214E0,3.987590969E-1
2.908999688E1,7.408225060E0,-9.972530365E0,-4.781316519E-1
2.911000156E1,7.499224186E0,-1.107744408E1,-1.760791779E0
2.913199688E1,7.297766209E0,-1.173385811E1,-2.474484205E0
2.915199844E1,7.561856270E0,-1.160650539E1,-2.291787386E0
2.917399688E1,7.863094807E0,-1.110457516E1,-1.727952838E0
2.919399688E1,7.967577457E0,-1.062288189E1,-7.663264871E-1
2.921399844E1,7.947227001E0,-1.016518688E1,6.394146681E-1
2.923400625E1,7.998156071E0,-9.657040596E0,1.334824920E0
2.925599688E1,8.344022751E0,-9.048636436E0,8.083974123E-1
2.927600469E1,8.794764519E0,-8.438498497E0,3.323151916E-2
2.929799844E1,9.010998726E0,-7.862194538E0,-4.748180881E-2
2.931800312E1,9.159411430E0,-7.429092884E0,-2.863369584E-1
2.933999688E1,9.112006187E0,-7.331256390E0,-9.157630205E-1
2.936000156E1,8.955195427E0,-7.286072731E0,-1.116138577E0
2.938199844E1,9.075116158E0,-7.270807743E0,-8.214984536E-1
2.940199844E1,9.475005150E0,-7.570695877E0,-2.458557934E-1
2.942399688E1,9.587753296E0,-8.042612076E0,6.863696873E-2
2.944399688E1,9.123450279E0,-8.474411011E0,4.072632790E-1
2.946399844E1,8.413780212E0,-8.919473648E0,7.843404412E-1
2.948400000E1,8.035506248E0,-8.889728546E0,1.479338884E0
2.950599688E1,8.994804382E0,-9.414470673E0,1.966491938E0
2.952600156E1,1.089059162E1,-1.080612373E1,2.018446207E0
2.954799688E1,1.112123966E1,-1.084554195E1,2.418296814E0
2.956800156E1,1.042516804E1,-9.335404396E0,2.902787685E0
2.958999844E1,1.037120342E1,-8.659933090E0,2.664947510E0
2.961199688E1,1.066435814E1,-9.606772423E0,1.696971774E0
2.963199844E1,1.042337704E1,-1.055004978E1,9.498660564E-1
2.965199844E1,1.000198841E1,-1.116651821E1,4.512304068E-1
2.967199844E1,9.328058243E0,-1.090808773E1,2.750937939E-1
2.969200000E1,8.872968674E0,-1.018959808E1,4.318469465E-1
2.971399688E1,8.826252937E0,-9.715843201E0,4.375738800E-1
2.973400469E1,8.695137978E0,-9.867319107E0,-3.240791336E-2
2.975599688E1,8.029204369E0,-1.026997662E1,-5.999007821E-1
2.977599688E1,7.514355659E0,-1.071602535E1,-7.308731675E-1
2.979599688E1,7.202869415E0,-1.107738686E1,-5.725015402E-1
2.981600469E1,6.792551041E0,-1.109580326E1,-3.400340974E-1
2.983799688E1,6.395793915E0,-1.082856274E1,-2.839427590E-1
2.985799844E1,6.252295017E0,-1.089094639E1,-3.056437969E-1
2.987799844E1,5.931500435E0,-1.094240189E1,-1.531139761E-1
2.990000312E1,5.337269306E0,-1.062489223E1,2.628642023E-1
2.992199844E1,4.702978611E0,-1.005299377E1,6.830753088E-1
2.994200625E1,4.362781048E0,-9.587791443E0,8.753871918E-1
2.996399844E1,4.037734985E0,-9.127807617E0,8.190180659E-1
2.998399844E1,3.609833717E0,-8.525799751E0,8.586852551E-1
3.000599688E1,3.497833014E0,-8.127251625E0,1.056293130E0
3.002599688E1,3.414849758E0,-7.784890652E0,1.075973392E0
3.004599688E1,3.727360249E0,-8.144145012E0,7.475847006E-1
3.006599688E1,3.999188185E0,-9.257534981E0,-1.448013186E-1
3.008599688E1,3.240236044E0,-9.315934181E0,-6.709797978E-1
3.010600000E1,2.623537540E0,-8.472974777E0,-4.596867366E-4
3.012799688E1,3.663626671E0,-8.374132156E0,4.411460161E-1
3.014800156E1,5.049399853E0,-8.845377922E0,5.512410030E-2
3.016999688E1,6.299058437E0,-9.706974983E0,-9.769300818E-1
3.019000312E1,6.296989918E0,-9.998607635E0,-1.482422590E0
3.021199844E1,6.217014313E0,-9.972510338E0,-1.761596203E0
3.023200469E1,6.099774837E0,-9.404050827E0,-1.964260459E0
3.025399844E1,5.976167202E0,-8.756016731E0,-2.000269175E0
3.027599844E1,5.531046391E0,-8.467898369E0,-1.039677262E0
3.029800469E1,5.234797478E0,-8.320099831E0,3.171455264E-1
3.031999688E1,5.721193790E0,-8.232232094E0,8.325118572E-2
3.034000313E1,6.643602848E0,-8.464671135E0,-9.177070856E-1
3.036199844E1,7.315310955E0,-8.629105568E0,-7.665371895E-1
3.038200156E1,8.200064659E0,-8.940418243E0,3.184096813E-1
3.040399844E1,9.313866615E0,-9.172435760E0,7.928350568E-1
3.042400156E1,9.789335251E0,-9.189587593E0,8.090582490E-1
3.044599688E1,9.891951561E0,-9.172626495E0,1.638878942E0
3.046599688E1,1.013219452E1,-9.258665085E0,2.601482153E0
3.048599844E1,1.054450512E1,-9.355496407E0,2.543705225E0
3.050799688E1,1.076166916E1,-9.319487572E0,1.509496331E0
3.052799844E1,1.036762142E1,-8.739947319E0,1.217087626E0
3.054999844E1,9.948424339E0,-8.101366043E0,1.479817748E0
3.057200625E1,9.988896370E0,-8.200993538E0,1.623153806E0
3.059399688E1,1.040746117E1,-9.614069939E0,1.280083895E0
3.061400313E1,1.083348560E1,-1.168863678E1,1.005047560E0
3.063599844E1,9.319458961E0,-1.113495350E1,1.779294014E0
3.065599844E1,8.696842194E0,-1.058493805E1,2.743419886E0
3.067799688E1,9.037661552E0,-1.077176285E1,3.208642006E0
3.069799688E1,9.549791336E0,-1.158744812E1,3.047445297E0
3.071799688E1,9.309690475E0,-1.210113811E1,2.621593475E0
3.073800000E1,8.015997887E0,-1.174609756E1,2.183243990E0
3.075999844E1,6.685587883E0,-1.041763115E1,2.188616514E0
3.078000312E1,6.367541790E0,-9.352010727E0,1.937617779E0
3.080199688E1,6.646323204E0,-8.813095093E0,1.142053366E0
3.082200156E1,6.864089966E0,-8.698431969E0,2.251411378E-1
3.084399688E1,7.131369114E0,-8.933781624E0,-8.079090118E-1
3.086400313E1,6.936931133E0,-9.180853844E0,-1.597583771E0
3.088599844E1,6.442853928E0,-9.337530136E0,-1.966415286E0
3.090799688E1,6.049899101E0,-9.530704498E0,-1.362913728E0
3.092799688E1,5.878684521E0,-9.738157272E0,-5.326332450E-1
3.094799844E1,5.639963150E0,-9.995112419E0,2.564477324E-1
3.097000000E1,4.790481567E0,-9.816485405E0,8.121419549E-1
3.099199688E1,4.234423161E0,-9.444685936E0,1.021864414E0
3.101199844E1,4.021665096E0,-9.352431297E0,8.009370565E-1
3.103399688E1,3.589990377E0,-9.053960800E0,6.081081033E-1
3.105399688E1,2.980321646E0,-8.411826134E0,9.207525253E-1
3.107399688E1,2.536235332E0,-7.691459179E0,8.986875415E-1
3.109399688E1,2.876930237E0,-7.552202702E0,5.705766082E-1
3.111399688E1,3.762746572E0,-8.544531822E0,-3.338187635E-1
3.113399688E1,4.073810577E0,-1.000455475E1,-1.223868012E0
3.115399844E1,3.098135233E0,-9.777239799E0,-1.207395911E0
3.117599688E1,3.239536762E0,-9.400507927E0,-2.877255976E-1
3.119599688E1,4.520923138E0,-9.611896515E0,3.782934546E-1
3.121599688E1,5.786230087E0,-1.026119423E1,4.170316160E-1
3.123600000E1,6.701667309E0,-1.076720428E1,2.398032397E-1
3.125799688E1,7.142037392E0,-1.067554379E1,-4.027047381E-2
3.127800156E1,6.938703060E0,-1.015520763E1,-6.237565875E-1
3.129999688E1,6.157494068E0,-9.250764847E0,-1.915466666E0
3.131999688E1,5.357342243E0,-8.557001114E0,-2.441348314E0
3.133999844E1,4.954024792E0,-8.211202621E0,-1.701750755E0
3.136200469E1,5.803937435E0,-8.310149193E0,-5.595920086E-1
3.138399844E1,6.753544807E0,-8.130067825E0,-3.589099646E-1
3.140399844E1,7.123582840E0,-8.021829605E0,-7.144106627E-1
3.142599844E1,7.157896996E0,-8.047151566E0,-9.721512198E-1
3.144799688E1,7.573587894E0,-8.441112518E0,-6.878254414E-1
3.146800156E1,8.506819725E0,-8.941348076E0,-5.330450535E-1
3.148999688E1,9.322752953E0,-9.425694466E0,-2.489969833E-3
3.151000156E1,9.674624443E0,-9.742131233E0,7.956219316E-1
3.153199844E1,9.875775337E0,-9.727373123E0,1.741724253E0
3.155200313E1,1.020677853E1,-9.809514046E0,2.042139053E0
3.157399844E1,1.028709984E1,-9.588471413E0,2.058362246E0
3.159400312E1,1.030148315E1,-8.938598633E0,1.824238062E0
3.161599688E1,1.012067413E1,-8.066698074E0,1.188855171E0
3.163600156E1,1.041663551E1,-7.813879490E0,8.778293133E-1
3.165799844E1,1.135976887E1,-9.049574852E0,7.913889885E-1
3.167999531E1,1.184607887E1,-1.044959831E1,8.608400226E-1
3.169999688E1,1.106063747E1,-9.533884048E0,1.557514429E0
3.171999688E1,1.105065823E1,-9.190622330E0,1.795181990E0
3.173999688E1,1.155353642E1,-1.008467484E1,1.548243999E0
3.176000312E1,1.164791584E1,-1.144803810E1,1.166196585E0
3.178199688E1,1.104421329E1,-1.247520828E1,1.071778774E0
3.180200313E1,9.987182617E0,-1.257910728E1,1.256036520E0
3.182399688E1,8.808737755E0,-1.189884758E1,1.586263895E0
3.184399844E1,8.154813766E0,-1.130821705E1,1.732319832E0
3.186599688E1,7.836653233E0,-1.113961697E1,1.296211123E0
3.188599688E1,7.613216877E0,-1.126083088E1,4.713129699E-1
3.190599688E1,6.885982513E0,-1.121113682E1,-3.235141039E-1
3.192600312E1,5.789677620E0,-1.087542152E1,-8.349251747E-1
3.194799688E1,5.022259235E0,-1.043172836E1,-8.747359514E-1
3.196800000E1,4.957386017E0,-1.018731880E1,-6.213911176E-1
3.198999688E1,4.879699230E0,-9.885237694E0,-5.525817350E-2
3.200999688E1,4.700478554E0,-9.611197472E0,5.182776451E-1
3.203199688E1,4.039085388E0,-9.378241539E0,7.727525830E-1
3.205199688E1,3.448665619E0,-9.143657684E0,1.075935006E0
3.207199688E1,2.997693777E0,-8.842179298E0,1.223073125E0
3.209199688E1,2.828682423E0,-8.707520485E0,1.075475454E0
3.211199844E1,2.853074551E0,-8.532360077E0,8.632916808E-1
3.213399844E1,2.794665575E0,-8.452326775E0,5.095818639E-1
3.215599688E1,2.497727156E0,-8.682591438E0,6.015288234E-1
3.217600000E1,2.672369719E0,-9.472812653E0,6.357946396E-1
3.219799688E1,3.157568932E0,-1.051945210E1,-1.858762354E-1
3.221799688E1,3.085513115E0,-9.786864281E0,1.706108153E-1
3.223800781E1,4.261449337E0,-9.314536095E0,1.044906259E0
3.225999844E1,6.579764366E0,-9.873123169E0,8.079186082E-1
3.228199844E1,8.340852737E0,-1.081442642E1,-5.345486403E-1
3.230199844E1,8.540270805E0,-1.097282696E1,-1.973119140E0
3.232400625E1,7.326362133E0,-1.027978325E1,-2.969815731E0
3.234599844E1,6.196385860E0,-9.549062729E0,-2.948641300E0
3.236600469E1,5.715093613E0,-9.025718689E0,-1.813196063E0
3.238799844E1,5.633326530E0,-8.703392982E0,-2.831478715E-1
3.240999688E1,5.688067913E0,-8.464058876E0,5.550238490E-1
3.242999688E1,5.628576756E0,-8.304968834E0,6.286119819E-1
3.244999688E1,5.793824196E0,-8.338535309E0,2.036220729E-1
3.246999688E1,6.257265091E0,-8.571184158E0,-2.426667064E-1
3.248999844E1,7.031052113E0,-8.810346603E0,-4.103470147E-1
3.251199844E1,7.984873772E0,-9.110349655E0,-3.827562332E-1
3.253200000E1,8.650854111E0,-9.257506371E0,-2.721824348E-1
3.255399688E1,9.563035011E0,-9.322868347E0,2.286654264E-1
3.257400000E1,1.022336578E1,-9.098656654E0,9.491190314E-1
3.259599688E1,1.080546284E1,-8.835504532E0,1.875186682E0
3.261600000E1,1.143519497E1,-8.755452156E0,2.016837120E0
3.263799688E1,1.177144718E1,-8.674556732E0,1.622406840E0
3.265799844E1,1.174921894E1,-8.358933449E0,1.271512747E0
3.267799844E1,1.147589779E1,-7.983647346E0,8.042794466E-1
3.269800156E1,1.175328064E1,-8.843309402E0,2.345455736E-1
3.271999688E1,1.213633347E1,-1.094002724E1,-1.640315354E-1
3.274000156E1,1.085542583E1,-1.137653828E1,2.425805181E-1
3.276199688E1,9.112906456E0,-1.008805466E1,1.722905874E0
3.278201094E1,9.263960838E0,-9.724691391E0,2.560311556E0
3.280399688E1,1.017356682E1,-1.079375076E1,2.235006332E0
3.282400313E1,1.042020702E1,-1.205372334E1,1.574379206E0
3.284599844E1,9.495499611E0,-1.269142342E1,1.031661510E0
3.286799688E1,7.937640667E0,-1.212949467E1,1.083654046E0
3.288799844E1,7.048213959E0,-1.116023636E1,1.662188888E0
3.290999688E1,7.154918671E0,-1.049290562E1,1.896533370E0
3.292999844E1,7.452020168E0,-1.015304279E1,1.275975466E0
3.295199844E1,7.354614258E0,-1.010007381E1,2.661394700E-2
3.297200469E1,6.829154015E0,-9.932345390E0,-9.287012219E-1
3.299399688E1,6.200781345E0,-9.852924347E0,-1.388838172E0
3.301400000E1,5.978982449E0,-9.979598045E0,-8.443104029E-1
3.303599688E1,5.845252037E0,-1.029711723E1,1.270459145E-1
3.305600469E1,5.600172043E0,-1.043855667E1,8.177443743E-1
3.307799688E1,5.088770390E0,-1.042540741E1,1.169931412E0
3.309799844E1,4.543103218E0,-1.007347012E1,1.272211790E0
3.311999844E1,3.865812302E0,-9.514366150E0,1.072851300E0
3.314199844E1,3.574600697E0,-9.459778786E0,5.389730930E-1
3.316400156E1,2.856138945E0,-9.323643684E0,2.850919366E-1
3.318400313E1,1.857249260E0,-8.660900116E0,6.257102489E-1
3.320599844E1,1.551797032E0,-8.229245186E0,1.074622989E0
3.322799844E1,2.440132141E0,-9.148379326E0,2.635154128E-1
3.324799844E1,2.667284489E0,-9.951221466E0,-9.373108149E-1
3.326999688E1,1.882445931E0,-8.948050499E0,-7.450755686E-3
3.328999688E1,2.866970539E0,-8.570925713E0,1.274538994E0
3.330999688E1,4.871376991E0,-9.121104240E0,1.260355711E0
3.332999844E1,6.456577778E0,-1.005170155E1,1.044925377E-1
3.335199688E1,7.226658344E0,-1.057182693E1,-1.126328230E0
3.337200156E1,7.065825462E0,-1.047992897E1,-1.705140829E0
3.339399688E1,6.639475822E0,-9.993513107E0,-1.725893855E0
3.341399688E1,6.161928177E0,-9.500680923E0,-9.216814637E-1
3.343399688E1,5.482731342E0,-8.941615105E0,-1.513231248E-1
3.345400000E1,5.169090748E0,-8.720898628E0,5.449011326E-1
3.347599688E1,5.715706348E0,-8.445162773E0,9.368511438E-1
3.349600312E1,6.815803528E0,-8.182136536E0,-6.382941455E-2
3.351799844E1,7.485854626E0,-8.127663612E0,-1.128339410E0
3.353999688E1,7.842590809E0,-8.408235550E0,-5.064502954E-1
3.355999688E1,8.682400703E0,-8.773331642E0,-2.472731657E-2
3.357999688E1,9.725285530E0,-9.134014130E0,-3.058831990E-1
3.359999688E1,1.064535809E1,-9.318836212E0,1.983643919E-1
3.362000313E1,1.112787628E1,-9.089614868E0,1.662322998E0
3.364199688E1,1.168844414E1,-8.565151215E0,2.468804836E0
3.366199844E1,1.232573318E1,-8.836806297E0,2.470270157E0
3.368399688E1,1.247752571E1,-9.283210754E0,2.464495420E0
3.370399688E1,1.156771946E1,-8.816159248E0,1.673403263E0
3.372399688E1,1.030108166E1,-7.677189827E0,1.042799354E0
3.374400000E1,1.017587376E1,-7.859781265E0,1.235293269E0
3.376599688E1,1.258854961E1,-9.787496567E0,1.642230868E0
3.378600625E1,1.469034290E1,-1.049815369E1,1.318122983E0
3.380801250E1,1.522779274E1,-9.975461006E0,5.129816532E-1
3.382999688E1,1.427046680E1,-1.034031773E1,1.152281389E-1
3.384999688E1,1.210698032E1,-1.182461739E1,-3.448608145E-2
3.386999844E1,9.944479942E0,-1.281787586E1,-6.787753105E-1
3.388999844E1,9.032604218E0,-1.265520382E1,-1.377049088E0
3.391000469E1,8.871129990E0,-1.153550339E1,-1.435630322E0
3.393199688E1,8.583624840E0,-1.043116283E1,-8.195735216E-1
3.395200313E1,7.829001427E0,-1.006801033E1,-9.183965921E-1
3.397399688E1,6.669987202E0,-9.849487305E0,-6.920487881E-1
3.399399688E1,5.824268818E0,-9.486239433E0,6.856993586E-2
3.401399688E1,5.520933628E0,-9.301292419E0,6.549960971E-1
3.403399688E1,5.479053974E0,-9.084789276E0,8.172942400E-1
3.405399688E1,5.739303589E0,-8.960778236E0,5.841756463E-1
3.407399688E1,5.950788021E0,-8.814349174E0,4.158824086E-1
3.409399688E1,5.954226494E0,-8.819472313E0,5.296549201E-1
3.411399688E1,5.758495808E0,-8.903691292E0,9.805597067E-1
3.413400000E1,5.505859375E0,-9.115577698E0,1.559037089E0
3.415599688E1,5.162463665E0,-9.350449562E0,2.131375790E0
3.417600000E1,5.000319004E0,-9.590080261E0,1.956455469E0
3.419799688E1,4.391866207E0,-9.349903107E0,1.548023820E0
3.421800156E1,3.787397146E0,-8.845368385E0,1.532174230E0
3.423800625E1,3.432940483E0,-8.420273781E0,1.458949924E0
3.425999844E1,3.547344923E0,-8.602989197E0,1.209014416E0
3.428199688E1,4.038798332E0,-9.679509163E0,2.043690681E-1
3.430200000E1,3.325297117E0,-9.670132637E0,-1.022065520E0
3.432399688E1,2.397017241E0,-8.783501625E0,-1.078300595E0
3.434399688E1,2.888719320E0,-8.343936920E0,-2.785414159E-1
3.436399688E1,4.346491337E0,-8.666828156E0,1.758301817E-2
3.438400156E1,6.018918037E0,-9.202823639E0,-5.774239898E-1
3.440599688E1,6.759004116E0,-9.517344475E0,-1.411927700E0
3.442600469E1,6.552527905E0,-9.560880661E0,-2.072507143E0
3.444799688E1,5.850988388E0,-9.077060699E0,-2.472568512E0
3.446800156E1,5.350724697E0,-8.564107895E0,-1.926796079E0
3.448999688E1,5.222050667E0,-8.043875694E0,-7.540777326E-1
3.450999688E1,5.415684223E0,-7.951115131E0,-4.553675950E-1
3.452999688E1,5.691707134E0,-8.097841263E0,-7.115950584E-1
3.454999688E1,6.494387150E0,-8.516357422E0,-1.080033898E0
3.456999688E1,7.621098042E0,-8.808057785E0,-1.633851051E0
3.458999844E1,8.815268517E0,-9.097104073E0,-2.026442766E0
3.461199688E1,9.777239799E0,-9.510257721E0,-1.927083373E0
3.463199688E1,1.069313717E1,-9.644237518E0,-1.483983636E0
3.465199844E1,1.134319115E1,-9.565017700E0,-1.326119661E0
3.467399688E1,1.187011719E1,-9.162505150E0,-2.353979200E-1
3.469399688E1,1.229258823E1,-8.806840897E0,1.010630846E0
3.471399688E1,1.278619671E1,-8.866734505E0,1.401680589E0
3.473399688E1,1.246862888E1,-8.653152466E0,1.044571042E0
3.475399688E1,1.186014748E1,-8.353111267E0,1.446432948E0
3.477399688E1,1.140990353E1,-7.851918221E0,2.124815702E0
3.479399688E1,1.193817997E1,-7.984231949E0,2.327709913E0
3.481399688E1,1.274401951E1,-9.039442062E0,2.023292065E0
3.483399844E1,1.240995216E1,-1.014614868E1,2.064271212E0
3.485599844E1,1.083353329E1,-9.571319580E0,2.695344448E0
3.487799688E1,1.041792774E1,-8.825946808E0,2.942272663E0
3.489800000E1,1.152163601E1,-9.347653389E0,2.320517778E0
3.491999688E1,1.237800407E1,-1.072193432E1,1.271953106E0
3.493999688E1,1.217406559E1,-1.179821396E1,6.026109457E-1
3.495999688E1,1.108452129E1,-1.182029819E1,4.217721522E-1
3.497999688E1,9.774816513E0,-1.132907486E1,7.580234408E-1
3.499999688E1,9.093044281E0,-1.102032852E1,8.544043899E-1
3.501999688E1,8.680580139E0,-1.125815964E1,4.324598610E-1
3.503999688E1,8.241168022E0,-1.157194328E1,8.207323030E-3
3.505999688E1,7.721396446E0,-1.182038498E1,-2.601347864E-1
3.507999688E1,6.902368546E0,-1.170645905E1,-3.077602684E-1
3.509999688E1,6.013621807E0,-1.134783554E1,-3.232459724E-1
3.511999688E1,5.455533028E0,-1.095983219E1,-1.414494310E-2
3.514000156E1,4.983291626E0,-1.045567036E1,4.894801676E-1
3.516199688E1,4.552967072E0,-1.006170940E1,8.293035626E-1
3.518200312E1,4.196623325E0,-9.572823524E0,8.273211718E-1
3.520399688E1,3.650918245E0,-8.889249802E0,3.813484609E-1
3.522400000E1,3.086508989E0,-8.264363289E0,5.902186036E-2
3.524599844E1,2.736601353E0,-8.011095047E0,9.549991786E-2
3.526799688E1,2.505752325E0,-7.867854595E0,3.915286064E-1
3.528799688E1,2.246584654E0,-7.636919498E0,6.617668867E-1
3.530801094E1,1.976289034E0,-7.405735493E0,8.750902414E-1
3.533000156E1,2.445293903E0,-8.021715164E0,6.572945714E-1
3.535199688E1,3.706367970E0,-9.494053841E0,-1.546654291E-2
3.537200000E1,4.154409409E0,-9.604943275E0,-4.191193879E-1
3.539399688E1,4.920956135E0,-9.159803391E0,2.387976795E-1
3.541400000E1,6.103270054E0,-9.327637672E0,5.055692196E-1
3.543599688E1,7.277904034E0,-1.007316303E1,-1.052012220E-1
3.545599688E1,7.533824921E0,-1.051407909E1,-9.029013515E-1
3.547599688E1,7.051153660E0,-1.056782436E1,-1.230064154E0
3.549600625E1,6.340822697E0,-1.020171261E1,-1.017545342E0
3.551799688E1,6.201681614E0,-9.600854874E0,-6.467121840E-1
3.553800312E1,6.233170033E0,-9.186063766E0,-4.759481549E-1
3.555999688E1,6.162636757E0,-9.051500320E0,-1.813081056E-1
3.558000000E1,6.105760098E0,-9.113432884E0,6.041433215E-1
3.560199688E1,6.523778439E0,-9.263903618E0,8.851171732E-1
3.562200312E1,7.117348671E0,-9.192662239E0,2.439308465E-1
3.564399688E1,7.806055069E0,-9.132308960E0,-3.972076476E-1
3.566399844E1,8.395814896E0,-9.127089500E0,-7.925765216E-2
3.568599688E1,9.545537949E0,-9.387482643E0,3.319033682E-1
3.570599688E1,1.063183594E1,-9.449904442E0,3.682856858E-1
3.572599688E1,1.141552544E1,-9.059649467E0,6.016054153E-1
3.574600156E1,1.183650208E1,-8.672410965E0,1.017957091E0
3.576799688E1,1.202856541E1,-8.504452705E0,1.270813465E0
3.578799844E1,1.180810738E1,-8.536612511E0,1.133654594E0
3.580801094E1,1.114573669E1,-8.444416046E0,9.069139957E-1
3.583000156E1,1.067290974E1,-8.106086731E0,9.720075727E-1
3.585199688E1,1.094772625E1,-8.690674782E0,7.226466537E-1
3.587199688E1,1.124536419E1,-1.012027168E1,1.051916480E0
3.589199844E1,1.071946430E1,-1.116709232E1,2.076299667E0
3.591199844E1,9.398362160E0,-1.030457687E1,3.131347656E0
3.593399688E1,9.015453339E0,-9.696143150E0,3.387441158E0
3.595400156E1,9.571482658E0,-1.044043350E1,2.795201778E0
3.597599688E1,1.001979160E1,-1.177262497E1,1.957997322E0
3.599600469E1,9.513140678E0,-1.240680122E1,1.690488458E0
3.601799688E1,8.148570061E0,-1.197031975E1,2.046209335E0
3.603799844E1,7.336686611E0,-1.087817955E1,2.393464327E0
3.605999688E1,7.412956238E0,-1.010561943E1,2.416582823E0
3.607999688E1,7.812002659E0,-9.774663925E0,1.531436801E0
3.609999688E1,7.671654224E0,-9.672459602E0,3.378027081E-1
3.612000156E1,6.782964706E0,-9.459950447E0,-2.094830722E-1
3.614199688E1,6.160462856E0,-9.496409416E0,-1.252071708E-1
3.616199688E1,5.822277546E0,-9.600710869E0,5.720418096E-1
3.618200469E1,5.725149632E0,-9.682946205E0,1.378370643E0
3.620399688E1,5.571527958E0,-9.807445526E0,1.673106432E0
3.622399688E1,5.195302963E0,-9.896537781E0,1.553013325E0
3.624400312E1,4.606099129E0,-9.728311539E0,1.229575753E0
3.626599688E1,4.189297199E0,-9.433805466E0,1.152386665E0
3.628600156E1,4.122585297E0,-9.286791801E0,9.093369842E-1
3.630801094E1,3.800258875E0,-9.162734032E0,5.039123893E-1
3.632999688E1,3.076482296E0,-9.133399963E0,4.942207038E-1
3.634999688E1,2.023895264E0,-8.715104103E0,1.156159997E0
3.637000000E1,1.673968434E0,-8.594513893E0,1.418899655E0
3.639199688E1,2.107740164E0,-8.792092323E0,9.793146849E-1
3.641199688E1,2.938336611E0,-9.772480011E0,-2.494854033E-1
3.643199688E1,3.071597815E0,-9.846403122E0,-6.707978249E-1
3.645199844E1,3.803246737E0,-9.688223839E0,2.201803625E-1
3.647199844E1,5.202437401E0,-9.968948364E0,5.865315795E-1
3.649199844E1,6.742675304E0,-1.043636322E1,-8.279149979E-2
3.651199844E1,7.546265125E0,-1.073434544E1,-8.646706939E-1
3.653199844E1,7.522408962E0,-1.046434689E1,-1.416026592E0
3.655200469E1,7.206940174E0,-1.006982136E1,-1.900775909E0
3.657399688E1,6.494472980E0,-9.397414207E0,-1.915859342E0
3.659400000E1,6.094258308E0,-8.921475410E0,-1.419541359E0
3.661599688E1,5.924049854E0,-8.367562294E0,-5.787647963E-1
3.663599844E1,6.150388241E0,-8.160215378E0,1.662725210E-1
3.665799688E1,6.490144730E0,-8.110923767E0,-3.683910072E-1
3.667799688E1,6.600460052E0,-8.415647507E0,-1.085760832E0
3.669799688E1,6.957990646E0,-8.779662132E0,-5.370194912E-1
3.671800156E1,7.817997456E0,-9.152400970E0,-7.287950069E-2
3.673999688E1,9.573827744E0,-9.558745384E0,6.045263410E-1
3.675999688E1,1.062623310E1,-9.514413834E0,1.629924655E0
3.677999688E1,1.122443008E1,-9.025690079E0,2.604134798E0
3.680000000E1,1.182240486E1,-8.433680534E0,2.777312279E0
3.682199531E1,1.277435970E1,-8.325712204E0,2.507983685E0
3.684199688E1,1.315227890E1,-8.589600563E0,2.030541658E0
3.686199844E1,1.260716724E1,-8.413244247E0,1.599652290E0
3.688400312E1,1.124975014E1,-7.790875912E0,1.479338884E0
3.690599688E1,1.092267418E1,-8.025105476E0,1.456440806E0
3.692599844E1,1.132798386E1,-9.467469215E0,1.149389148E0
3.694799688E1,1.140135193E1,-1.100217056E1,9.248226285E-1
3.696800156E1,1.061767197E1,-1.101157475E1,1.117182374E0
3.698999844E1,1.002427387E1,-1.079060936E1,1.633257270E0
3.701199688E1,1.047736263E1,-1.184235382E1,1.698734045E0
3.703199688E1,1.088891506E1,-1.303363228E1,1.534108639E0
3.705199688E1,1.041058254E1,-1.343178749E1,1.584702969E0
3.707199688E1,9.010329247E0,-1.257420444E1,1.837157130E0
3.709200469E1,7.980716705E0,-1.155797100E1,1.958198309E0
3.711399688E1,7.227462769E0,-1.068626118E1,1.630087376E0
3.713399688E1,6.790693283E0,-1.014189529E1,7.303464413E-1
3.715399688E1,6.408712864E0,-9.690186501E0,-4.221647978E-1
3.717400156E1,6.166955948E0,-9.513120651E0,-7.326544523E-1
3.719599531E1,5.925228119E0,-9.492473602E0,-3.800555766E-1
3.721600312E1,5.435565948E0,-9.486870766E0,1.145481840E-1
3.723800625E1,5.118917942E0,-9.515112877E0,3.021769822E-1
3.725999688E1,4.839217663E0,-9.319640160E0,3.904559910E-1
3.727999688E1,4.600305080E0,-9.176783562E0,5.480040312E-1
3.729999844E1,4.217118263E0,-9.025038719E0,4.992485046E-1
3.732199688E1,3.701512337E0,-8.784105301E0,5.997858047E-1
3.734199688E1,3.393062830E0,-8.600690842E0,8.021916747E-1
3.736199844E1,3.177574873E0,-8.414862633E0,7.802032828E-1
3.738201094E1,2.941190720E0,-8.337663651E0,6.024385691E-1
3.740399688E1,2.545141935E0,-8.185392380E0,6.206728220E-1
3.742400156E1,2.497985601E0,-8.613313675E0,6.496139765E-1
3.744599688E1,2.727225542E0,-9.241446495E0,3.984334767E-1
3.746600156E1,2.737434626E0,-9.387022972E0,-2.795087099E-1
3.748799688E1,3.060297251E0,-9.195171356E0,1.225927025E-1
3.750800000E1,4.395735264E0,-9.606073380E0,8.554482460E-1
3.752803750E1,6.160529613E0,-1.051483631E1,6.106938124E-1
3.754999688E1,7.906544209E0,-1.140585232E1,-6.530519724E-1
3.756999688E1,8.531545639E0,-1.154401684E1,-1.581303239E0
3.759000469E1,8.317007065E0,-1.100229454E1,-1.890729904E0
3.761199688E1,7.574085712E0,-1.005518723E1,-1.633515954E0
3.763199844E1,7.039690495E0,-9.338545799E0,-1.273207784E0
3.765399688E1,6.647213936E0,-8.561406136E0,-6.965211630E-1
3.767399688E1,6.359947681E0,-8.189538956E0,-1.886439323E-1
3.769399688E1,6.356289387E0,-7.966055393E0,1.282047182E-1
3.771399844E1,6.414411068E0,-7.776137352E0,-6.255091429E-1
3.773599688E1,6.395401478E0,-7.843988895E0,-1.555972576E0
3.775599688E1,6.676154613E0,-8.222435951E0,-1.127755284E0
3.777599844E1,7.595470905E0,-8.813371658E0,3.791457787E-2
3.779799844E1,8.922174454E0,-9.105656624E0,5.675311089E-1
3.781999531E1,9.873123169E0,-9.108999252E0,7.831529379E-1
3.784000156E1,1.030413628E1,-9.079798698E0,1.571036816E0
3.786199688E1,1.095337677E1,-9.145295143E0,2.234211683E0
3.788199844E1,1.178794861E1,-9.291935921E0,2.238913774E0
3.790399688E1,1.238677597E1,-9.104890823E0,1.838287234E0
3.792399688E1,1.227792549E1,-8.743031502E0,1.326215386E0
3.794399688E1,1.150825691E1,-8.209373474E0,1.014835119E0
3.796399688E1,1.172129250E1,-9.635694504E0,6.943472028E-1
3.798399688E1,1.182450294E1,-1.118433094E1,8.152352571E-1
3.800399688E1,1.076397610E1,-1.093965340E1,1.497544408E0
3.802399688E1,9.906334877E0,-9.973267555E0,2.264081478E0
3.804399688E1,1.027577972E1,-1.020525551E1,2.128435850E0
3.806399688E1,1.095515823E1,-1.161927128E1,1.416381001E0
3.808399688E1,1.101446819E1,-1.313945484E1,8.541266322E-1
3.810399688E1,1.016461277E1,-1.386944771E1,7.482072115E-1
3.812399688E1,8.694601059E0,-1.341704845E1,1.192369819E0
3.814399688E1,7.621213436E0,-1.232516766E1,2.096698284E0
3.816399688E1,7.253129005E0,-1.157193375E1,2.142714739E0
3.818399688E1,7.001115322E0,-1.095219898E1,1.201352954E0
3.820400000E1,6.677591324E0,-1.051608086E1,-1.099896207E-1
3.822599688E1,6.106641293E0,-9.985285759E0,-9.061478972E-1
3.824600469E1,5.548313618E0,-9.648766518E0,-6.620063186E-1
3.826799688E1,5.253912449E0,-9.453457832E0,1.866232306E-1
3.828799844E1,5.090014935E0,-9.404423714E0,7.190553546E-1
3.830801250E1,4.939697742E0,-9.289636612E0,8.099775910E-1
3.832999688E1,4.494576931E0,-9.156959534E0,3.218477368E-1
3.834999688E1,3.842339277E0,-8.931550026E0,1.010831967E-1
3.837000000E1,3.446616173E0,-8.810748100E0,1.214434877E-1
3.839199688E1,3.470788002E0,-8.947964668E0,3.962212205E-1
3.841199844E1,3.280678749E0,-8.843664169E0,5.374312997E-1
3.843399688E1,2.595812798E0,-8.277790070E0,1.014662623E0
3.845400000E1,2.132477045E0,-7.727745533E0,1.244850874E0
3.847599688E1,2.380688667E0,-7.692330360E0,1.067852259E0
3.849600469E1,3.257321119E0,-8.445565224E0,5.890981555E-1
3.851799688E1,4.406528473E0,-1.029691601E1,-6.712958217E-1
3.853800000E1,4.207895279E0,-1.069514847E1,-9.823601246E-1
3.855999688E1,4.544089317E0,-1.063623142E1,2.637165189E-1
3.857999688E1,5.300867558E0,-1.027295399E1,1.032848954E0
3.859999688E1,6.236981392E0,-9.977491379E0,5.483966470E-1
3.862000000E1,7.012817860E0,-9.907829285E0,-5.183063149E-1
3.864199688E1,7.366843700E0,-9.987537384E0,-1.508739710E0
3.866200156E1,7.137881279E0,-9.755031586E0,-1.815829635E0
3.868399688E1,6.710602760E0,-9.302000046E0,-1.269281268E0
3.870399688E1,6.396809101E0,-9.002064705E0,-6.907750964E-1
3.872399688E1,6.139116287E0,-8.838999748E0,-1.307904571E-1
3.874399688E1,6.351577759E0,-8.846796036E0,4.969117641E-1
3.876399688E1,6.713120937E0,-8.674106598E0,1.739339530E-1
3.878399688E1,6.999247551E0,-8.546170235E0,-7.087603211E-1
3.880399688E1,7.491006851E0,-8.598468781E0,-6.176753044E-1
3.882399688E1,8.437338829E0,-8.863881111E0,2.758982182E-1
3.884399688E1,9.642627716E0,-9.098828316E0,8.764885068E-1
3.886399844E1,1.084708405E1,-9.284905434E0,9.182146788E-1
3.888600312E1,1.122979164E1,-8.903087616E0,1.357378244E0
3.890799688E1,1.125593758E1,-8.394415855E0,1.787367344E0
3.892800313E1,1.150406265E1,-8.089413643E0,1.782262921E0
3.894999688E1,1.154695702E1,-7.658878803E0,1.342888594E0
3.897199688E1,1.114757538E1,-7.319543839E0,8.766608834E-1
3.899199688E1,1.037753296E1,-6.950233459E0,1.043536782E0
3.901199688E1,1.016944790E1,-7.605488300E0,1.423142195E0
3.903199688E1,1.083374310E1,-9.755242348E0,1.321522713E0
3.905200156E1,1.105051422E1,-1.162250900E1,1.105651975E0
3.907399688E1,9.899717331E0,-1.137094498E1,1.309427261E0
3.909399688E1,9.439734459E0,-1.099844551E1,1.142704606E0
3.911399688E1,1.000656605E1,-1.133586502E1,1.209799647E0
3.913400312E1,1.074729347E1,-1.211412430E1,1.406066775E0
3.915599688E1,1.116292667E1,-1.284709454E1,1.127285838E0
3.917600625E1,1.034176350E1,-1.275709152E1,4.426112771E-1
3.919799688E1,9.193944931E0,-1.235570908E1,-2.127679139E-1
3.921799844E1,8.871234894E0,-1.250220490E1,-7.269562483E-1
3.923800625E1,8.739363670E0,-1.260693741E1,-8.491563201E-1
3.925999688E1,8.250391006E0,-1.260892010E1,-8.335556388E-1
3.927999688E1,7.297526836E0,-1.219721317E1,-1.444096327E0
3.930000781E1,6.250638008E0,-1.154274273E1,-2.417205095E0
3.932199688E1,5.490948200E0,-1.125163651E1,-2.882570982E0
3.934201094E1,4.386378288E0,-1.108499146E1,-2.962949276E0
3.936399688E1,2.675587416E0,-1.037766743E1,-3.259600401E0
3.938400000E1,1.848457813E0,-9.548622131E0,-2.799511194E0
3.940599688E1,1.586809874E0,-8.970116615E0,-2.067709208E0
3.942599688E1,1.278178096E0,-8.656264305E0,-1.990529656E0
3.944599688E1,8.357200027E-1,-8.334350586E0,-2.382479668E0
3.946599688E1,4.019098580E-1,-7.674718857E0,-2.419101238E0
3.948599688E1,5.433114171E-1,-7.038742065E0,-1.518192053E0
3.950599688E1,1.290656567E0,-7.164322853E0,-6.841479540E-1
3.952600000E1,2.097282410E0,-7.989671230E0,-5.924021006E-1
3.954799688E1,2.489548445E0,-9.193887711E0,-8.384973407E-1
3.956799688E1,2.545381069E0,-1.025465298E1,-5.046977401E-1
3.958799688E1,2.677282572E0,-1.101647854E1,2.086786181E-1
3.960800156E1,3.569093943E0,-1.186035824E1,8.377599120E-1
3.962999688E1,4.381705284E0,-1.282318211E1,1.600389719E0
3.965000313E1,5.091988087E0,-1.369980335E1,2.490496635E0
3.967199688E1,6.164216995E0,-1.441692448E1,3.387096167E0
3.969201406E1,7.710899830E0,-1.487316418E1,3.455321550E0
3.971399688E1,1.026865387E1,-1.495453835E1,1.857421637E0
3.973399688E1,1.189241219E1,-1.474394417E1,4.444500208E-1
3.975399688E1,1.261890793E1,-1.355775070E1,-3.086700737E-1
3.977400312E1,1.233430481E1,-1.185937214E1,-2.267308980E-1
3.979599688E1,1.178388786E1,-1.035000992E1,4.789648354E-1
3.981600000E1,1.211452675E1,-9.598900795E0,9.228976965E-1
3.983799688E1,1.254265690E1,-9.085076332E0,1.090673804E0
3.985800312E1,1.204514217E1,-8.273384094E0,1.169347286E0
3.987999688E1,1.099756432E1,-7.252544403E0,1.640315413E0
3.989999688E1,1.092468452E1,-6.811542034E0,1.703809738E0
3.991999688E1,1.168591690E1,-7.157858372E0,9.316987991E-1
3.993999844E1,1.161574745E1,-7.199661732E0,3.549547791E-1
3.996199688E1,1.064594269E1,-6.663015842E0,5.131253004E-1
3.998200000E1,1.007998180E1,-6.178773880E0,1.046189547E0
4.000399688E1,1.011574078E1,-5.487098694E0,1.388502955E0
4.002399844E1,1.097434044E1,-5.757078171E0,9.943981171E-1
4.004399844E1,1.228894901E1,-7.859321117E0,2.256391495E-1
4.006599688E1,1.286790562E1,-1.005009270E1,-3.241557479E-1
4.008599688E1,1.229576778E1,-1.055377579E1,8.630618453E-2
4.010599688E1,1.231004715E1,-1.126876068E1,6.078016162E-1
4.012799688E1,1.282726097E1,-1.211777306E1,1.065802813E0
4.014800156E1,1.361995316E1,-1.320575619E1,1.043268561E0
4.016999688E1,1.318654537E1,-1.387339401E1,6.307476163E-1
4.019000313E1,1.150621796E1,-1.359443092E1,5.563454628E-1
4.021199688E1,9.703240395E0,-1.327251530E1,5.417886972E-1
4.023199844E1,8.439072609E0,-1.322913265E1,3.862326220E-2
4.025399688E1,7.431697845E0,-1.313301945E1,-7.667382956E-1
4.027399688E1,6.848058701E0,-1.294562149E1,-1.263688326E0
4.029399688E1,6.341521740E0,-1.280071354E1,-1.463556409E0
4.031400000E1,5.892877579E0,-1.247636700E1,-1.598503232E0
4.033599688E1,5.497680664E0,-1.200797462E1,-1.591713190E0
4.035599844E1,5.474830627E0,-1.151258564E1,-1.566535711E0
4.037799688E1,5.590413094E0,-1.101334667E1,-1.502744675E0
4.039799844E1,5.622064590E0,-1.063536072E1,-1.198001146E0
4.041999688E1,5.562429905E0,-1.008644676E1,-8.723704815E-1
4.044000000E1,5.248732090E0,-9.401819229E0,-4.574840665E-1
4.046199688E1,4.645249367E0,-8.781663895E0,-3.354276717E-1
4.048199688E1,3.764144659E0,-8.299700737E0,1.409418583E-1
4.050200156E1,2.708186865E0,-7.802971840E0,6.993942261E-1
4.052206719E1,1.759623289E0,-7.355638504E0,1.102951288E0
4.054399688E1,1.102865100E0,-6.792541981E0,1.291049361E0
4.056399688E1,1.417233229E0,-6.894113064E0,4.783710539E-1
4.058400312E1,2.000930071E0,-7.422437191E0,-1.140176296E0
4.060600000E1,2.578449965E0,-8.371776581E0,-2.500466108E0
4.062799688E1,2.678881884E0,-8.739822388E0,-2.199687243E0
4.064799688E1,2.859529018E0,-8.788683891E0,-6.752797961E-1
4.066799688E1,3.751829147E0,-9.034089088E0,4.163804054E-1
4.068800000E1,4.882916927E0,-9.614146233E0,7.715650201E-1
4.070999688E1,5.798459530E0,-1.046542835E1,5.703755021E-1
4.073000312E1,6.127690792E0,-1.147366619E1,2.205730081E-1
4.075199688E1,6.385881901E0,-1.268484497E1,1.934802234E-1
4.077200000E1,7.290641308E0,-1.367229939E1,2.784552276E-1
4.079399688E1,9.104631424E0,-1.439069462E1,-2.994571924E-1
4.081399688E1,1.040524769E1,-1.465003395E1,-8.310465813E-1
4.083399688E1,1.085451603E1,-1.449796391E1,-4.982812405E-1
4.085400313E1,1.116010189E1,-1.358990002E1,1.421485394E-1
4.087599688E1,1.169394207E1,-1.233437252E1,-1.764430851E-1
4.089600312E1,1.257005692E1,-1.138569355E1,-6.578404307E-1
4.091799688E1,1.359302235E1,-9.761016846E0,-7.315626740E-1
4.093800625E1,1.402000523E1,-8.172109604E0,-9.991961718E-1
4.095999688E1,1.399420547E1,-7.046700478E0,-1.513528109E0
4.097999688E1,1.342167473E1,-6.630980968E0,-1.812171221E0
4.099999688E1,1.225319862E1,-6.179166317E0,-1.668567061E0
4.101999688E1,1.146708679E1,-5.787273884E0,-9.065597057E-1
4.103999688E1,1.128039646E1,-5.347822666E0,-2.337315530E-1
4.105999688E1,1.164153767E1,-5.206373692E0,-5.606262758E-2
4.107999688E1,1.159099102E1,-5.023801327E0,1.764047891E-1
4.109999688E1,1.198091125E1,-6.326793194E0,4.398818910E-1
4.112000156E1,1.271057701E1,-9.110530853E0,7.005338073E-1
4.114199688E1,1.224731827E1,-1.042744732E1,1.372337222E0
4.116200156E1,1.189801407E1,-1.045283604E1,2.020380497E0
4.118399688E1,1.272325706E1,-1.125532436E1,2.017632008E0
4.120400000E1,1.383262539E1,-1.239148712E1,1.841916919E0
4.122599531E1,1.438486099E1,-1.383117867E1,1.311246872E0
4.124599688E1,1.341979790E1,-1.434612370E1,8.841307759E-1
4.126599688E1,1.182692623E1,-1.442265224E1,7.075536251E-1
4.128600312E1,1.056478786E1,-1.471777058E1,3.002424538E-1
4.130801094E1,9.447587013E0,-1.505652142E1,3.176626936E-2
4.132999688E1,8.630082130E0,-1.552008724E1,-1.734359711E-1
4.134999688E1,8.089509964E0,-1.559494877E1,-3.556059897E-1
4.136999688E1,7.665889263E0,-1.544804955E1,-3.540354073E-1
4.138999688E1,7.033005714E0,-1.525272179E1,-2.447065711E-1
4.140999688E1,6.038176537E0,-1.433938217E1,1.345349848E-1
4.142999688E1,5.405044556E0,-1.328896904E1,5.293005109E-1
4.144999688E1,5.382854939E0,-1.248924828E1,7.409574986E-1
4.146999688E1,5.247515678E0,-1.190629768E1,3.691954613E-1
4.148999688E1,4.438016415E0,-1.121065807E1,5.709692463E-2
4.151000000E1,3.077679157E0,-1.027765656E1,1.553645283E-1
4.153199688E1,1.509343028E0,-8.957791328E0,5.602623224E-1
4.155199844E1,8.018085957E-1,-8.049535751E0,9.346101880E-1
4.157399688E1,5.370481610E-1,-7.258903503E0,1.234823823E0
4.159400000E1,4.662276804E-1,-6.817259312E0,1.270200610E0
4.161599688E1,6.427091360E-1,-6.835283279E0,9.103713036E-1
4.163600156E1,1.125140786E0,-7.311182976E0,1.385572404E-1
4.165799688E1,1.600954890E0,-7.651475906E0,-6.073132157E-1
4.167799688E1,2.000575781E0,-7.687743187E0,-3.574160039E-1
4.169799688E1,2.674706221E0,-8.018153191E0,2.603263259E-1
4.171799688E1,3.817066193E0,-8.825870514E0,4.804971218E-1
4.173799688E1,4.862738609E0,-9.804467201E0,-1.515050828E-1
4.175799688E1,5.181732655E0,-1.070665932E1,-1.000201702E0
4.177799688E1,5.613167286E0,-1.166463661E1,-1.296163321E0
4.179999688E1,6.817355633E0,-1.300006580E1,-1.756635427E0
4.182199688E1,8.388335228E0,-1.417223740E1,-2.643696785E0
4.184200469E1,9.460419655E0,-1.437701893E1,-2.160498857E0
4.186399844E1,1.100415325E1,-1.491419983E1,-1.561220527E0
4.188599688E1,1.145746231E1,-1.493104553E1,-2.382680893E0
4.190599688E1,1.185556889E1,-1.433279324E1,-2.989007473E0
4.192599688E1,1.334996319E1,-1.324848747E1,-3.363154411E0
4.194599688E1,1.524154568E1,-1.161761570E1,-3.826575994E0
4.196599688E1,1.609036636E1,-9.526404381E0,-4.138569355E0
4.198599688E1,1.624003410E1,-7.700394630E0,-4.080102921E0
4.200599688E1,1.631219482E1,-6.768628597E0,-4.241778374E0
4.202599688E1,1.657710648E1,-6.500784397E0,-3.878271580E0
4.204599688E1,1.548746872E1,-5.837073326E0,-2.810007572E0
4.206600000E1,1.394311237E1,-5.428842545E0,-1.679542065E0
4.208799688E1,1.344306946E1,-5.217329502E0,-5.558857322E-1
4.210800156E1,1.376257992E1,-5.291377544E0,7.864186168E-1
4.212999688E1,1.529110527E1,-7.368002415E0,1.522099376E0
4.215000000E1,1.624639130E1,-1.071904182E1,1.362568974E0
4.217199844E1,1.386341381E1,-1.171758652E1,2.453980207E0
4.219199844E1,1.285293674E1,-1.142415333E1,5.210951328E0
4.221199844E1,1.426611900E1,-1.239258862E1,6.460178852E0
4.223199844E1,1.540707111E1,-1.456251144E1,5.330795288E0
4.225399688E1,1.404098701E1,-1.548836803E1,3.763522148E0
4.227400000E1,1.241537189E1,-1.519118023E1,3.415050983E0
4.229599688E1,1.154052162E1,-1.524815369E1,3.501778603E0
4.231600000E1,1.091035843E1,-1.545116329E1,3.488955259E0
4.233799688E1,9.718390465E0,-1.556548119E1,2.698993206E0
4.235799688E1,8.412708282E0,-1.517881775E1,2.058735847E0
4.237799688E1,7.367533207E0,-1.472278881E1,1.621707797E0
4.239799688E1,6.737944126E0,-1.433285046E1,1.695889592E0
4.241799688E1,6.303013802E0,-1.401593494E1,1.950690150E0
4.243799688E1,5.661664486E0,-1.335729885E1,2.117719173E0
4.245800313E1,5.208672047E0,-1.283393669E1,2.176032543E0
4.247999688E1,4.418346405E0,-1.209958649E1,2.247982979E0
4.249999688E1,3.646742582E0,-1.098778629E1,2.299333811E0
4.251999688E1,3.547278166E0,-1.009492207E1,1.886650205E0
4.253999688E1,3.395188808E0,-9.743615150E0,1.084410548E0
4.255999688E1,2.588467360E0,-9.226046562E0,5.992686749E-1
4.257999688E1,1.356497169E0,-8.501580238E0,1.032322288E0
4.259999688E1,2.616766691E-1,-8.000282288E0,1.429213881E0
4.261999688E1,4.863102436E-1,-8.526345253E0,9.945992231E-1
4.263999688E1,1.358460426E0,-9.569183350E0,-8.369650245E-1
4.265999688E1,1.100805998E0,-9.205696106E0,-1.581561804E0
4.267999688E1,1.548885703E0,-8.495489120E0,3.390955925E-1
4.269999688E1,2.658627033E0,-8.570178986E0,1.434213042E0
4.271999688E1,3.853237867E0,-9.271268845E0,6.440593600E-1
4.274000469E1,4.712219715E0,-1.006251335E1,-1.254207373E0
