"Time (s)","Gyroscope x (rad/s)","Gyroscope y (rad/s)","Gyroscope z (rad/s)"
2.174768750E-1,-4.301713109E-1,-5.734977126E-1,-2.864608765E-1
2.374768750E-1,-4.397880733E-1,-6.554933190E-1,-1.352804750E-1
2.574846880E-1,-4.844684899E-1,-7.534237504E-1,7.124433666E-2
2.794768750E-1,-5.051506162E-1,-8.841314316E-1,1.172686741E-1
2.994768750E-1,-5.076813698E-1,-1.041769624E0,-3.164282069E-2
3.194768750E-1,-6.185970306E-1,-1.181989312E0,-2.418677211E-1
3.394768750E-1,-8.769755960E-1,-1.198622346E0,-4.143411517E-1
3.594768750E-1,-1.142789245E0,-1.010580540E0,-4.814665318E-1
3.794768750E-1,-1.169300795E0,-6.296449900E-1,-3.040363491E-1
3.994768750E-1,-9.122312665E-1,-5.063025355E-1,-6.007423252E-2
4.194768750E-1,-4.796339273E-1,-6.305699944E-1,5.358160660E-2
4.394768750E-1,-1.010894701E-1,-8.413010836E-1,6.108652451E-4
4.594800000E-1,4.623377323E-2,-9.178337455E-1,4.782202188E-3
4.814768750E-1,9.354964830E-3,-8.806408048E-1,9.946631640E-2
5.014784380E-1,-2.370157093E-2,-7.030360699E-1,1.308996975E-1
5.234768750E-1,1.139700040E-2,-6.717946529E-1,9.234537184E-2
5.434768750E-1,4.382521659E-2,-7.125132084E-1,3.352777660E-2
5.634768750E-1,2.740166849E-3,-7.712609768E-1,2.363175713E-2
5.834768750E-1,-1.022064835E-1,-8.234812617E-1,8.660323918E-2
6.035190630E-1,-1.657713652E-1,-8.866621852E-1,1.479341090E-1
6.254800000E-1,-1.038645431E-1,-8.996648788E-1,1.512502283E-1
6.474753130E-1,4.670501128E-2,-8.693833947E-1,1.238660142E-1
6.674815630E-1,2.314306647E-1,-8.096756935E-1,6.986553222E-2
6.894768750E-1,4.109203219E-1,-6.377956867E-1,9.906488657E-2
7.094768750E-1,5.269672871E-1,-3.218387067E-1,2.167175263E-1
7.294768750E-1,5.667083859E-1,-2.769837528E-2,3.298323154E-1
7.494768750E-1,5.603902936E-1,1.303586364E-1,3.650879860E-1
7.694768750E-1,5.127777457E-1,1.754928529E-1,2.931804061E-1
7.894768750E-1,4.241499007E-1,1.381777227E-1,1.223301291E-1
8.094940630E-1,2.444857210E-1,-1.939758956E-1,-9.068730474E-2
8.314768750E-1,-1.099557430E-2,-5.284158587E-1,-3.101799190E-1
8.534784380E-1,-1.464331299E-1,-3.070557714E-1,-2.799857259E-1
8.734784380E-1,-1.230631620E-1,1.201135591E-1,2.431243658E-2
8.954768750E-1,-2.693043090E-2,1.424537748E-1,3.574608862E-1
9.154768750E-1,1.113869101E-1,1.926843449E-2,5.367410779E-1
9.354768750E-1,2.205223441E-1,-1.702394187E-1,6.219480634E-1
9.554768750E-1,2.994112372E-1,-3.259227872E-1,5.085191131E-1
9.754768750E-1,3.786317408E-1,-3.432888091E-1,2.395987958E-1
9.954768750E-1,4.136953950E-1,-3.171437681E-1,-2.403318323E-2
1.015481563E0,4.101174772E-1,-1.478293836E-1,-1.075471863E-1
1.037476875E0,3.387683928E-1,-3.621558100E-2,3.846705705E-2
1.057481563E0,2.509783506E-1,1.472185254E-1,2.221978605E-1
1.079476875E0,1.453335732E-1,2.641032338E-1,2.861816287E-1
1.099480000E0,1.077915356E-1,2.523920536E-1,2.007826716E-1
1.121476875E0,9.585348517E-2,1.732239276E-1,7.175048441E-2
1.141476875E0,7.162830979E-2,5.328490213E-2,-4.000294581E-2
1.161476875E0,8.377580345E-2,-8.639379591E-2,-5.862560868E-2
1.181478438E0,1.485100687E-1,-1.375668496E-1,-2.534218132E-2
1.203476875E0,1.691223979E-1,-6.970845163E-2,-1.075297371E-1
1.223480000E0,8.264134079E-2,6.667157635E-3,-1.996133029E-1
1.245476875E0,-1.077042669E-1,1.216494516E-1,-1.732239276E-1
1.265480000E0,-2.292140871E-1,2.729694843E-1,-7.162830979E-2
1.287476875E0,-3.135658503E-1,4.234343171E-1,-5.000368133E-2
1.307476875E0,-3.906570375E-1,4.499633312E-1,-6.085963175E-2
1.327476875E0,-4.159468710E-1,2.980324328E-1,1.192059834E-2
1.347483125E0,-3.037396371E-1,2.970550396E-2,1.169196069E-1
1.369476875E0,-2.153736353E-2,4.091051593E-2,2.280447185E-1
1.389481563E0,2.566157579E-1,4.576951265E-1,3.605326712E-1
1.411476875E0,2.632130980E-1,1.684766263E-1,3.924372792E-1
1.431480000E0,-1.759291813E-2,-9.058433175E-1,1.032711342E-1
1.453476875E0,-1.598023474E-1,-8.777435422E-1,-1.112298295E-1
1.473480000E0,2.544690110E-2,1.672548950E-1,1.121723130E-1
1.495476875E0,2.351656556E-1,1.222934723E0,5.127428174E-1
1.515476875E0,2.030166984E-1,1.059100747E0,7.069107294E-1
1.535476875E0,1.219286993E-1,3.965213597E-1,5.791700482E-1
1.555476875E0,1.300095767E-1,-3.370230794E-1,2.709972858E-1
1.575476875E0,2.975088358E-1,-5.964139104E-1,1.124864668E-1
1.595478438E0,5.866051316E-1,-3.047170341E-1,1.118057892E-1
1.617476875E0,7.874576449E-1,1.528384835E-1,1.237089336E-1
1.637476875E0,7.030011415E-1,2.617993951E-1,1.093623340E-1
1.657476875E0,4.806811213E-1,9.869837016E-2,8.686503768E-2
1.677476875E0,2.594082952E-1,-5.396557972E-2,-6.607816368E-2
1.697480000E0,5.049237609E-2,-1.331686229E-2,-1.945169419E-1
1.719476875E0,-1.830152273E-1,1.148426626E-2,-1.822472811E-1
1.739476875E0,-3.239680231E-1,7.981390506E-2,-8.286823332E-2
1.759476875E0,-3.961199224E-1,1.018574163E-1,-1.485275198E-2
1.779478438E0,-4.007450342E-1,3.143338114E-2,-4.372049868E-2
1.801476875E0,-3.583509922E-1,-4.363323096E-4,-1.487020552E-1
1.821476875E0,-3.010518551E-1,1.729621366E-2,-1.855634004E-1
1.841476875E0,-2.480985522E-1,-7.543312758E-2,-1.659633517E-1
1.861476875E0,-1.815316975E-1,-2.341010123E-1,-1.430995464E-1
1.881476875E0,-1.409876943E-1,-3.455402851E-1,-1.549677849E-1
1.901476875E0,-1.291020066E-1,-2.567728460E-1,-1.291543692E-1
1.921481563E0,-7.965682447E-2,4.572762642E-3,-7.058111578E-2
1.943476875E0,1.014036313E-2,2.594082952E-1,-5.422737822E-2
1.965476875E0,-8.040732145E-2,-1.622807086E-1,-1.747249067E-1
1.985476875E0,-3.848451078E-1,-9.753947258E-1,-4.684463739E-1
2.005476875E0,-3.942698836E-1,-6.722659469E-1,-6.156125069E-1
2.025476875E0,-7.812093943E-2,1.855808645E-1,-3.547381759E-1
2.045476875E0,2.564237714E-1,7.254111767E-1,4.897394031E-2
2.065476875E0,4.070282280E-1,3.263067603E-1,2.509608865E-1
2.085476875E0,4.319689870E-1,-3.560122550E-1,1.030616909E-1
2.105476875E0,3.437600434E-1,-7.828848958E-1,-2.443111837E-1
2.125476875E0,1.431693584E-1,-7.013081908E-1,-4.872610271E-1
2.145481563E0,-1.054702476E-1,-3.058689535E-1,-4.958131313E-1
2.167476875E0,-3.183829486E-1,1.701172441E-1,-2.774550021E-1
2.187480000E0,-3.529055715E-1,3.574259877E-1,-5.005604401E-2
2.209476875E0,-1.776221544E-1,3.224495649E-1,1.415462047E-1
2.229476875E0,5.604252219E-2,2.505943775E-1,2.355845422E-1
2.249476875E0,2.379232794E-1,1.694191098E-1,2.529680133E-1
2.269480000E0,2.993414104E-1,3.275983036E-2,1.901361644E-1
2.291476875E0,2.554289401E-1,-1.208815053E-1,4.825835302E-2
2.311478438E0,1.514945775E-1,-1.553866565E-1,-6.059783325E-2
2.333476875E0,-3.944444004E-3,-6.475171447E-2,-1.042310596E-1
2.353483125E0,-1.252448261E-1,1.239532828E-1,-1.351583004E-1
2.375476875E0,-2.192482650E-1,2.869670391E-1,-1.345299780E-1
2.395476875E0,-2.627767622E-1,3.252246380E-1,-8.984954655E-2
2.417476875E0,-2.483952641E-1,2.244144380E-1,-2.024581842E-2
2.437476875E0,-2.167698890E-1,9.363691509E-2,-2.176425606E-2
2.457481563E0,-2.416757345E-1,-5.581562966E-2,-4.558800161E-2
2.477483125E0,-3.338640332E-1,-4.879940674E-2,2.548180707E-2
2.499476875E0,-4.310614169E-1,6.908012927E-2,1.071283072E-1
2.519480000E0,-6.308841705E-1,-4.512199759E-1,-2.925171889E-2
2.541476875E0,-7.449065447E-1,-7.645763755E-1,-1.874483675E-1
2.561476875E0,-5.739864111E-1,-2.337170392E-1,9.058258496E-3
2.581476875E0,-3.782477677E-1,2.997428477E-1,2.619564533E-1
2.601476875E0,-3.387334943E-1,3.680026829E-1,2.099456489E-1
2.621476875E0,-4.567526579E-1,-4.426154867E-2,1.888446324E-2
2.641476875E0,-5.623101592E-1,-5.938308239E-1,-1.258382387E-2
2.661476875E0,-4.555483758E-1,-7.816805840E-1,4.885176569E-2
2.681476875E0,-2.303136438E-1,-6.357536316E-1,2.564063072E-1
2.701476875E0,-9.447467327E-2,-4.755324125E-1,3.861890137E-1
2.721476875E0,-5.586798862E-2,-4.314977527E-1,3.891037107E-1
2.741476875E0,1.151917316E-2,-3.787364364E-1,2.790955901E-1
2.761476875E0,1.754928529E-1,-1.379857361E-1,1.713913381E-1
2.781476875E0,3.081029654E-1,1.508313566E-1,4.782202095E-2
2.801481563E0,2.895850241E-1,2.532821894E-1,-1.741664112E-1
2.823476875E0,8.607963473E-2,2.531949282E-1,-3.748269081E-1
2.843486250E0,-8.550368249E-2,2.648013532E-1,-4.174304008E-1
2.865476875E0,-1.169545129E-1,2.821150124E-1,-4.832991362E-1
2.885476875E0,-1.107760444E-1,1.883733869E-1,-5.167396069E-1
2.905476875E0,-1.191361770E-1,2.878047898E-2,-4.524940550E-1
2.925483125E0,-1.011243761E-1,-1.075820923E-1,-3.290120065E-1
2.947476875E0,-5.319763720E-2,1.532050073E-1,-1.237438470E-1
2.967483125E0,-1.797689125E-3,6.738017797E-1,-8.313003182E-2
2.989476875E0,-5.324999616E-2,1.038156748E0,-7.576474547E-2
3.009481563E0,-3.966086209E-1,5.214520097E-1,-3.349810541E-1
3.031476875E0,-7.392865419E-1,-1.753881425E-1,-7.233342528E-1
3.051476875E0,-5.542641878E-1,-2.610139847E-1,-8.147546053E-1
3.071476875E0,-1.577777565E-1,-4.506440088E-2,-4.864407182E-1
3.091486250E0,9.030333161E-2,1.544092745E-1,-1.207942367E-1
3.113476875E0,7.056365907E-2,-4.935790971E-2,7.902850956E-2
3.133481563E0,-8.332201838E-2,-3.424685001E-1,-9.553932399E-2
3.155476875E0,-1.490336657E-1,-2.319018990E-1,-3.344225287E-1
3.175476875E0,-1.647939831E-1,1.203404516E-1,-3.456275463E-1
3.195476875E0,-3.101799190E-1,3.900985420E-1,-1.907644868E-1
3.215481563E0,-4.403465688E-1,5.073671937E-1,-4.537856206E-3
3.237476875E0,-4.867374301E-1,6.077061892E-1,2.088984549E-1
3.257484688E0,-4.760385454E-1,5.789257288E-1,3.022037446E-1
3.279476875E0,-4.418300986E-1,5.318018198E-1,2.696533799E-1
3.299476875E0,-4.244291782E-1,5.627465248E-1,1.510582417E-1
3.321476875E0,-4.324053228E-1,5.372821689E-1,6.457718089E-3
3.341483125E0,-4.142364562E-1,2.983291149E-1,-1.219636053E-1
3.363476875E0,-1.693318486E-1,1.223126724E-1,-2.253918201E-1
3.383480000E0,1.104095280E-1,-3.455751762E-2,-2.267706245E-1
3.405476875E0,2.855358720E-1,-3.062354624E-1,-4.173082113E-2
3.425476875E0,3.386985958E-1,-4.299094975E-1,1.011941880E-1
3.445476875E0,3.089407384E-1,-7.593927383E-1,1.152091846E-1
3.465483125E0,4.232597947E-1,-1.297983885E0,2.704911232E-1
3.487476875E0,8.719316125E-1,-1.124236345E0,6.365390420E-1
3.507476875E0,1.250737786E0,-1.293638051E-1,1.063464046E0
3.527476875E0,1.164012432E0,5.115211010E-1,1.111408234E0
3.547483125E0,5.061629415E-1,-5.121668577E-1,6.785665751E-1
3.569476875E0,-8.353145421E-2,-5.879490376E-1,3.516838551E-1
3.589480000E0,-2.387435883E-1,-2.834414840E-1,4.095589519E-1
3.611476875E0,-2.844886780E-1,1.961750165E-2,4.509581625E-1
3.631480000E0,-4.345695376E-1,-6.358234584E-2,2.894977629E-1
3.653476875E0,-5.690646172E-1,-1.994911283E-1,1.289449185E-1
3.673476875E0,-4.273089468E-1,-2.390403003E-1,1.808161139E-1
3.693476875E0,-8.754571527E-2,-7.862707973E-2,3.254689872E-1
3.713476875E0,2.504198253E-1,1.220334172E-1,4.161039591E-1
3.733476875E0,4.935267568E-1,7.688175142E-2,3.815289736E-1
3.753478438E0,6.441661119E-1,-6.077236310E-2,3.304781020E-1
3.773478438E0,6.844134331E-1,-1.243197992E-1,2.517113984E-1
3.795476875E0,5.999220014E-1,-2.173458487E-1,1.559800804E-1
3.815476875E0,5.762727857E-1,-1.511280537E-1,8.023278415E-2
3.837476875E0,6.364168525E-1,8.606218547E-2,9.978047013E-2
3.857476875E0,6.177767515E-1,2.636843324E-1,1.645845547E-2
3.877476875E0,4.735078216E-1,2.822721004E-1,-3.202679008E-2
3.897484688E0,2.589021325E-1,2.055997849E-1,-2.591813914E-2
3.919476875E0,6.384414434E-2,8.077383786E-2,-1.642354876E-1
3.939484688E0,-6.930702180E-2,-7.585200667E-2,-3.377735615E-1
3.961476875E0,-8.454374969E-2,-5.874778330E-2,-3.285582364E-1
3.981476875E0,2.822197415E-2,1.758768260E-1,-1.007753089E-1
4.003476875E0,9.513789415E-2,4.314977527E-1,1.736602560E-2
4.025476875E0,-2.435257882E-1,1.284562331E-2,-4.472580850E-1
4.045476875E0,-7.309962511E-1,-3.989473581E-1,-8.924217224E-1
4.065476875E0,-7.389724255E-1,-5.005953312E-1,-6.514266729E-1
4.085476875E0,-2.867052257E-1,-3.474252522E-1,4.270820692E-2
4.105476875E0,2.819230258E-1,1.344601661E-1,6.350206137E-1
4.125476875E0,5.948954821E-1,2.657263875E-1,5.753827095E-1
4.145476875E0,5.062502027E-1,4.571017250E-2,1.155233458E-1
4.165476875E0,2.003463507E-1,-9.346237779E-2,-3.361329734E-1
4.185476875E0,-1.162040234E-1,1.118756086E-2,-5.413487554E-1
4.205483125E0,-4.358261526E-1,1.496270746E-1,-4.558799863E-1
4.227476875E0,-6.247056723E-1,2.057743222E-1,-1.859124750E-1
4.249476875E0,-5.109102130E-1,1.306553483E-1,8.292059600E-2
4.269476875E0,-2.381850779E-1,2.234021435E-3,2.637192607E-1
4.289476875E0,7.909832150E-2,6.173229590E-2,3.236364126E-1
4.309494063E0,2.626371384E-1,2.314306609E-2,2.479414791E-1
4.331476875E0,3.042806983E-1,-1.072853878E-1,1.626123190E-1
4.351476875E0,2.798111737E-1,-2.193355262E-1,4.768239334E-2
4.371476875E0,2.791654170E-1,-2.261423171E-1,-6.044075266E-2
4.391476875E0,2.704038620E-1,-2.631956525E-2,-1.824043542E-1
4.411480000E0,1.601165086E-1,1.688257009E-1,-2.644697428E-1
4.433478438E0,-3.577925032E-3,3.004235327E-1,-2.032959461E-1
4.453478438E0,-7.644542307E-2,3.812671602E-1,4.014257283E-4
4.475476875E0,-5.740387738E-2,2.866354287E-1,1.810779124E-1
4.495483125E0,6.283185212E-4,2.673844397E-1,2.672448158E-1
4.517476875E0,1.459269822E-1,5.672320127E-1,4.726700783E-1
4.537481563E0,2.302787453E-1,7.773347497E-1,7.194247246E-1
4.559476875E0,8.829620481E-2,2.686061561E-1,7.559195757E-1
4.579476875E0,-2.132268697E-1,-1.753706783E-1,4.584805369E-1
4.599476875E0,-4.199960232E-1,-1.098335683E-1,2.647664547E-1
4.619483125E0,-4.126482010E-1,-1.211083978E-1,2.478891164E-1
4.641476875E0,-2.948559225E-1,-2.700547874E-1,1.652303189E-1
4.661484688E0,-3.075270057E-1,-2.411346883E-1,5.117305368E-2
4.683476875E0,-4.070107937E-1,-3.412118554E-2,7.480481267E-2
4.703481563E0,-3.389429450E-1,2.304532677E-1,2.390577495E-1
4.725476875E0,-7.150614262E-2,4.250923991E-1,4.205196202E-1
4.745476875E0,1.309869587E-1,3.783873916E-1,5.108927488E-1
4.765476875E0,2.563714087E-1,1.658411920E-1,4.971046746E-1
4.785476875E0,2.945068479E-1,-6.572909653E-2,3.623652458E-1
4.805476875E0,2.627243996E-1,-2.541548312E-1,1.881639510E-1
4.825476875E0,1.818807572E-1,-3.519281745E-1,4.886921868E-2
4.845476875E0,7.304202765E-2,-3.012961745E-1,-2.186897583E-2
4.865476875E0,-3.827507049E-2,-1.305506229E-1,-2.462659590E-2
4.885484688E0,-1.451764852E-1,-2.846631967E-2,-1.644100063E-2
4.907476875E0,-2.693566680E-1,-8.744099736E-2,-3.232349828E-2
4.927476875E0,-3.592061996E-1,-9.440486133E-2,-7.014477998E-2
4.947476875E0,-4.698775411E-1,-2.653947771E-1,-1.802227050E-1
4.969480000E0,-6.221924424E-1,-5.302309990E-1,-2.732487321E-1
4.991476875E0,-7.170336246E-1,-5.866051316E-1,-1.763655245E-1
5.011476875E0,-7.634768486E-1,-4.560370743E-1,2.340486459E-2
5.031476875E0,-8.312130570E-1,-4.549549818E-1,1.417381912E-1
5.051478438E0,-9.608560801E-1,-6.805737019E-1,-1.082104165E-2
5.073476875E0,-1.067111731E0,-8.193971515E-1,-2.963569164E-1
5.093478438E0,-8.638681769E-1,-6.445151567E-1,-2.837730944E-1
5.115476875E0,-3.785095513E-1,-2.317797244E-1,1.333780587E-1
5.135484688E0,1.763829738E-1,2.120051384E-1,4.567352235E-1
5.157476875E0,5.364618301E-1,3.392920196E-1,3.700621724E-1
5.177476875E0,5.568298697E-1,3.367438316E-1,8.215264976E-2
5.197476875E0,3.937462866E-1,3.300243020E-1,-2.579073012E-1
5.217480000E0,1.779886782E-1,4.174129367E-1,-4.696331918E-1
5.239476875E0,2.876302600E-2,5.961521268E-1,-3.642676771E-1
5.259478438E0,5.455899239E-2,7.146075964E-1,-1.381951720E-1
5.279480000E0,1.661553383E-1,7.110122442E-1,1.797689125E-3
5.301481563E0,2.567553818E-1,6.156299710E-1,5.120795965E-2
5.323476875E0,2.186199427E-1,4.307647049E-1,-1.396263397E-4
5.343476875E0,1.340936422E-1,2.328269184E-1,-9.882054478E-2
5.363476875E0,6.939429045E-2,-2.169444226E-2,-1.655095667E-1
5.383484688E0,6.817255914E-2,-1.237438470E-1,-1.482831687E-1
5.405476875E0,5.644394830E-2,-2.864085324E-2,-8.861036599E-2
5.425478438E0,2.967059612E-3,1.172163114E-1,-1.142667085E-1
5.447483125E0,-8.159413934E-2,2.040464431E-1,-1.741838604E-1
5.469476875E0,-1.347743273E-1,2.718699276E-1,-1.516865641E-1
5.489476875E0,-1.420523524E-1,3.197617829E-1,3.382448107E-2
5.509480000E0,-1.755626649E-1,2.539105117E-1,1.884606481E-1
5.531476875E0,-1.732239276E-1,2.344500721E-1,2.122669369E-1
5.551476875E0,-7.332128286E-2,3.965911567E-1,2.259503305E-1
5.571476875E0,-7.346090674E-2,1.963495463E-1,1.561371535E-1
5.591476875E0,-3.434982598E-1,-5.255709887E-1,-1.082453206E-1
5.611476875E0,-4.885525703E-1,-7.033153176E-1,-1.688780636E-1
5.631476875E0,-2.606300116E-1,-2.392497361E-1,8.464846760E-2
5.651476875E0,8.407250792E-2,2.206619829E-1,4.461236000E-1
5.671476875E0,1.422443390E-1,2.545213699E-1,6.084741354E-1
5.691486250E0,-2.836159989E-2,1.642878354E-1,5.292361975E-1
5.713476875E0,-1.951801628E-1,3.654719517E-2,4.141666293E-1
5.733476875E0,-1.354899108E-1,-6.140068173E-2,4.613428712E-1
5.753476875E0,8.220500499E-2,-9.805259854E-2,5.953667164E-1
5.773480000E0,3.066194355E-1,-1.057669520E-1,6.677455306E-1
5.795476875E0,4.551818669E-1,-1.186649352E-1,6.385287046E-1
5.815476875E0,5.109974742E-1,-1.855808645E-1,5.441587567E-1
5.835476875E0,5.416454673E-1,-2.145358771E-1,3.948982060E-1
5.855476875E0,5.533042550E-1,-1.212305725E-1,2.130523473E-1
5.875476875E0,4.867374301E-1,-3.230604529E-2,2.471386269E-2
5.895476875E0,3.556806445E-1,-1.104618907E-1,-1.006356850E-1
5.915480000E0,2.953446209E-1,-2.476622164E-1,-1.523846984E-1
5.937476875E0,2.900911868E-1,-2.829702199E-1,-1.369908899E-1
5.957476875E0,2.260550410E-1,-2.261074036E-1,-1.002691686E-1
5.977476875E0,1.054178830E-2,-1.055226028E-1,-1.010022014E-1
5.997484688E0,-3.278426528E-1,1.239183708E-3,-1.343030781E-1
6.019476875E0,-6.618986726E-1,1.478817463E-1,-1.503775716E-1
6.039478438E0,-8.267450333E-1,3.013311028E-1,-1.495747175E-2
6.061475313E0,-8.431162238E-1,3.689975142E-1,2.536661625E-1
6.081480000E0,-8.224514723E-1,2.079734355E-1,4.068537056E-1
6.103476875E0,-9.684482813E-1,-2.487268746E-1,1.793849468E-1
6.123483125E0,-1.001958609E0,-6.417226791E-1,-4.450589418E-3
6.145476875E0,-5.963091850E-1,-7.326368690E-1,1.317199916E-1
6.165481563E0,-3.708824515E-2,-5.365840197E-1,3.994011581E-1
6.187476875E0,3.146305084E-1,1.609193534E-2,4.715355933E-1
6.207476875E0,1.968905926E-1,2.425309569E-1,2.272244096E-1
6.227476875E0,-5.094616115E-2,4.777140617E-1,-5.466371030E-2
6.247495625E0,-1.817934960E-1,7.683288455E-1,-2.415710241E-1
6.269476875E0,-1.641307622E-1,9.031031728E-1,-2.605776489E-1
6.289481563E0,-8.895943314E-2,7.424805164E-1,-1.776047051E-1
6.309494063E0,3.825761750E-2,4.021936655E-1,-8.295550197E-2
6.331483125E0,2.475225925E-1,1.055749655E-1,-4.471533373E-2
6.353476875E0,4.094542265E-1,-1.019272301E-2,-1.017701477E-1
6.373476875E0,4.357738197E-1,-1.958259381E-2,-1.633453667E-1
6.393476875E0,3.402868509E-1,1.359611470E-2,-2.482032776E-1
6.413476875E0,1.873785406E-1,4.221951589E-2,-2.849075496E-1
6.433476875E0,7.305948436E-2,-4.480260238E-2,-2.742435932E-1
6.453476875E0,7.236135006E-2,-1.155233458E-1,-2.934945524E-1
6.473476875E0,1.327322870E-1,-1.045626774E-1,-2.926917076E-1
6.493476875E0,1.585631669E-1,8.573057503E-2,-2.002939880E-1
6.513476875E0,6.935938448E-2,3.432015479E-1,9.075712413E-3
6.533476875E0,-6.410594285E-2,4.159468710E-1,2.415361106E-1
6.553476875E0,-1.731366664E-1,3.330786228E-1,2.226516455E-1
6.573476875E0,-2.793574035E-1,2.048667520E-1,9.096655995E-2
6.593476875E0,-4.809429348E-1,-1.966462433E-1,-1.245990545E-1
6.613484688E0,-5.705830455E-1,-5.952270627E-1,-3.464303911E-1
6.635476875E0,-3.851243556E-1,-6.098180413E-1,-4.124387503E-1
6.655476875E0,-1.339191198E-1,-3.781604767E-1,-2.545213699E-1
6.675476875E0,8.127998561E-2,-2.083050460E-1,4.895648360E-2
6.695476875E0,1.720545590E-1,-1.888097227E-1,2.488839477E-1
6.715476875E0,1.424188614E-1,-2.722364664E-1,2.909638286E-1
6.735476875E0,1.216319948E-1,-2.878571451E-1,2.750115395E-1
6.755476875E0,2.742086649E-1,-1.982693933E-2,3.048391938E-1
6.775476875E0,5.254313946E-1,3.108780384E-1,4.019493163E-1
6.795481563E0,7.095984817E-1,4.243418872E-1,5.340881944E-1
6.817476875E0,7.755021453E-1,2.354798168E-1,6.083170772E-1
6.837478438E0,7.623772621E-1,-3.677408770E-2,5.182754993E-1
6.857505000E0,7.155326605E-1,-2.582738101E-1,2.767917514E-1
6.879478438E0,6.362423301E-1,-3.593981862E-1,-3.387684003E-2
6.901476875E0,5.375090241E-1,-3.183306158E-1,-2.327745557E-1
6.921476875E0,4.053003490E-1,-2.424785942E-1,-3.300592005E-1
6.941476875E0,2.327396572E-1,-1.576032341E-1,-3.920533061E-1
6.961481563E0,7.571238279E-2,-7.723081857E-2,-4.138699174E-1
6.983476875E0,-5.801474303E-2,-9.660397470E-2,-4.365243018E-1
7.003483125E0,-1.541125774E-1,-1.796118319E-1,-4.634721875E-1
7.025476875E0,-2.397558838E-1,-1.552993953E-1,-4.773824513E-1
7.045476875E0,-2.549053431E-1,2.885029279E-2,-3.918438554E-1
7.065480000E0,-1.312836707E-1,1.607797295E-1,-2.390926480E-1
7.087476875E0,7.986626774E-2,3.570420146E-1,-1.910088360E-1
7.107476875E0,-7.019714266E-2,1.500110477E-1,-4.749913514E-1
7.127483125E0,-5.942845941E-1,-4.527558684E-1,-8.152956367E-1
7.149476875E0,-7.578743100E-1,-8.077558279E-1,-6.948679090E-1
7.169480000E0,-2.637541592E-1,-6.376560330E-1,-3.690673113E-1
7.191476875E0,4.656713009E-1,1.336922217E-2,-6.040584669E-2
7.211478438E0,7.666882277E-1,4.303109348E-1,3.352777660E-2
7.233476875E0,6.651799083E-1,4.331907332E-1,-1.314058453E-1
7.253476875E0,4.471707940E-1,3.882310390E-1,-3.892782331E-1
7.273478438E0,3.081553280E-1,3.744778335E-1,-4.825486243E-1
7.293483125E0,3.172659576E-1,4.020889401E-1,-3.756646812E-1
7.315476875E0,4.174652994E-1,3.800978065E-1,-1.968905926E-1
7.335480000E0,5.157098770E-1,2.332981676E-1,-9.321803600E-2
7.357476875E0,6.150016785E-1,1.542172879E-1,-1.204451695E-1
7.377483125E0,6.594377756E-1,1.030616909E-1,-2.423389703E-1
7.399476875E0,5.889962316E-1,6.447245926E-2,-3.477742970E-1
7.419476875E0,4.354072809E-1,8.552113548E-3,-3.850545287E-1
7.439476875E0,2.775422633E-1,-1.518436428E-2,-4.475024045E-1
7.459481563E0,1.580570191E-1,2.256710641E-2,-5.478937626E-1
7.481480000E0,5.276130140E-2,6.414084882E-2,-6.187366843E-1
7.503476875E0,-3.536036983E-2,7.819075137E-2,-5.548401475E-1
7.523476875E0,-9.899507463E-2,-1.117010717E-3,-3.237411082E-1
7.543483125E0,-1.650732458E-1,-1.637467891E-1,-1.285958588E-1
7.565476875E0,-1.948136538E-1,-2.437177747E-1,-1.431170013E-2
7.585476875E0,-1.027824357E-1,7.347836345E-2,1.643925607E-1
7.605476875E0,3.970624134E-2,4.242895544E-1,4.391597509E-1
7.625476875E0,-1.027475297E-1,1.337969452E-1,5.445427299E-1
7.645476875E0,-4.579394758E-1,-3.820176721E-1,2.897421122E-1
7.665476875E0,-6.517931819E-1,-3.990869820E-1,-2.515019476E-2
7.685478438E0,-5.558524728E-1,-2.457947135E-1,-8.007570356E-2
7.705478438E0,-4.037993848E-1,-2.720619142E-1,1.682497375E-2
7.725480000E0,-4.545535445E-1,-2.807885706E-1,7.185520232E-2
7.747476875E0,-6.943094134E-1,-2.017775178E-1,1.301492006E-1
7.767476875E0,-6.812892556E-1,-7.016223669E-2,2.664768696E-1
7.787476875E0,-3.438647687E-1,1.159945801E-1,4.616744816E-1
7.807476875E0,7.037167251E-2,1.950405389E-1,6.202027202E-1
7.829476875E0,2.673844397E-1,5.551892146E-2,6.100449562E-1
7.849476875E0,2.620786428E-1,-1.328719109E-1,4.933347702E-1
7.869476875E0,2.334726900E-1,-1.950230896E-1,3.009645641E-1
7.889476875E0,1.880766749E-1,-1.621236354E-1,1.194677874E-1
7.909480000E0,1.051735431E-1,-1.732937396E-1,-5.126031861E-2
7.931476875E0,1.004262418E-1,-1.244943365E-1,-1.738696992E-1
7.951476875E0,1.936966330E-1,-3.874630854E-2,-1.975712776E-1
7.971476875E0,2.736501694E-1,-3.244566917E-2,-2.149547487E-1
7.991478438E0,2.187770158E-1,-5.211552978E-2,-2.456725389E-1
8.013476875E0,2.806489356E-2,-7.962191850E-2,-1.816364080E-1
8.033484688E0,-1.856506765E-1,-2.190737277E-1,-1.350710243E-1
8.055476875E0,-3.818082213E-1,-2.911558151E-1,-1.310218722E-1
8.075480000E0,-4.668755829E-1,-2.265437394E-1,-6.921976060E-2
8.097476875E0,-3.933972120E-1,-2.522524297E-1,9.992010146E-2
8.117476875E0,-2.747148275E-1,-4.480260313E-1,1.777443290E-1
8.137476875E0,-3.399552405E-1,-8.569391966E-1,7.986626774E-2
8.157480000E0,-4.553563893E-1,-9.060527682E-1,-6.656685472E-2
8.179476875E0,-2.682396472E-1,-1.994213164E-1,7.138396613E-3
8.199484688E0,2.168222517E-1,6.384937763E-1,4.167148173E-1
8.221476875E0,6.586523652E-1,9.809099436E-1,6.896144748E-1
8.241480000E0,6.369928122E-1,6.588792205E-1,4.875402749E-1
8.263483125E0,2.567902803E-1,1.001644433E-1,5.276130140E-2
8.285476875E0,-1.077740788E-1,-1.342507303E-1,-2.503849268E-1
8.305476875E0,-1.712516993E-1,-1.329940930E-2,-2.648886144E-1
8.325476875E0,-1.145808622E-1,2.170491517E-1,-1.954768747E-1
8.345476875E0,-1.136907488E-1,3.081378639E-1,-8.503244072E-2
8.365476875E0,-1.140049100E-1,1.885479242E-1,3.527310491E-2
8.385476875E0,-5.012585595E-2,1.289798319E-2,9.560913593E-2
8.405476875E0,7.302457839E-2,-7.422885299E-2,9.770353138E-2
8.425476875E0,1.721243709E-1,-9.503317624E-2,1.954768784E-3
8.445476875E0,2.550100684E-1,4.794419557E-2,-1.765575111E-1
8.465481563E0,3.040014505E-1,1.166578084E-1,-3.088360131E-1
8.487476875E0,2.537883222E-1,-8.281587064E-2,-3.662224412E-1
8.507476875E0,1.074424684E-1,-2.909289300E-1,-3.880565166E-1
8.527476875E0,1.816887781E-2,-2.715383172E-1,-4.237135947E-1
8.547476875E0,3.392919898E-2,1.047197584E-4,-4.006752372E-1
8.567476875E0,6.154030934E-2,2.311863154E-1,-2.500009537E-1
8.587520625E0,6.592108309E-2,2.237163037E-1,-6.131341681E-2
8.609476875E0,9.314822406E-2,1.714262366E-1,1.092576142E-2
8.629476875E0,1.840100586E-1,4.153010845E-1,3.937462717E-2
8.649494063E0,2.433512509E-1,9.553059340E-1,2.157052457E-1
8.669508125E0,1.457349956E-1,1.243005991E0,4.389328659E-1
8.691476875E0,-1.222603172E-1,8.014028072E-1,4.078310728E-1
8.711476875E0,-4.716752172E-1,-2.019345909E-1,2.775073424E-2
8.731481563E0,-6.364343166E-1,-6.444104910E-1,-2.035228461E-1
8.753476875E0,-6.273760796E-1,-6.197140813E-1,-2.383770645E-1
8.773476875E0,-4.868944883E-1,-4.079183638E-1,-1.864884347E-1
8.793476875E0,-2.552543879E-1,-9.913469851E-2,-7.696902007E-2
8.813478438E0,-9.761626273E-2,2.607521974E-2,6.510078162E-2
8.833478438E0,-8.726646192E-3,1.087165624E-1,2.955017090E-1
8.855484688E0,1.225221157E-1,2.408903390E-1,4.659854472E-1
8.877476875E0,3.078935444E-1,2.110801190E-1,5.047666430E-1
8.897483125E0,4.445877075E-1,6.635741889E-2,4.809429348E-1
8.919476875E0,4.684114754E-1,-1.805019528E-1,3.464129567E-1
8.939478438E0,4.262617528E-1,-3.228161037E-1,1.788264364E-1
8.961476875E0,3.569198251E-1,-3.789633512E-1,1.483529899E-2
8.981476875E0,2.747846246E-1,-4.034328461E-1,-9.782570601E-2
9.001476875E0,1.306902468E-1,-3.229208291E-1,-1.482133567E-1
9.021481563E0,1.792453043E-2,-7.267551124E-2,-8.740609139E-2
9.043478438E0,1.436406001E-2,1.473407000E-1,-4.647811875E-2
9.063484688E0,6.726498902E-2,1.083325893E-1,-6.934192777E-2
9.085476875E0,1.240230948E-1,-9.768607467E-2,-2.181312442E-1
9.105492500E0,6.681120396E-2,-3.918787837E-1,-3.448596001E-1
9.127478438E0,-5.386086181E-2,-4.612207115E-1,-2.997777462E-1
9.149478438E0,-5.480333790E-2,-1.362578571E-1,-1.371479779E-1
9.171484688E0,7.801621687E-3,1.630835682E-1,-6.607816368E-2
9.193478438E0,-1.821600199E-1,-3.306177258E-1,-2.477843910E-1
9.213478438E0,-5.739340782E-1,-1.054370880E0,-5.343499780E-1
9.233478438E0,-6.192253828E-1,-9.837373495E-1,-4.647637308E-1
9.253484688E0,-2.489886731E-1,-5.856801271E-1,-3.773401678E-2
9.275476875E0,2.458470762E-1,1.114916354E-1,2.688854337E-1
9.295480000E0,3.826983571E-1,2.483603507E-1,-8.691739291E-3
9.317476875E0,2.726204321E-2,-8.710937947E-2,-5.665687919E-1
9.337476875E0,-3.933797479E-1,-2.408379763E-1,-8.521220684E-1
9.357476875E0,-5.690820813E-1,-3.780383244E-2,-8.027816415E-1
9.377476875E0,-4.937885404E-1,2.379058301E-1,-4.753404260E-1
9.397476875E0,-2.521826327E-1,4.029441774E-1,-1.124690175E-1
9.417478438E0,2.895501256E-2,4.414810240E-1,4.291764647E-2
9.437481563E0,2.479589283E-1,3.566231132E-1,5.188863724E-2
9.457492500E0,3.537782431E-1,1.959830225E-1,-2.064724453E-2
9.479476875E0,3.285058737E-1,4.365068302E-2,-1.257684231E-1
9.499476875E0,2.254965454E-1,3.328342736E-2,-2.042209804E-1
9.519478438E0,1.486671418E-1,1.655793786E-1,-2.988003790E-1
9.541476875E0,1.370258033E-1,3.592411280E-1,-4.017398953E-1
9.561476875E0,1.876054406E-1,4.471009970E-1,-3.860668242E-1
9.581476875E0,2.371553332E-1,4.388281405E-1,-3.044377863E-1
9.601476875E0,2.564586699E-1,4.617966712E-1,-2.006604970E-1
9.621476875E0,2.724633515E-1,4.450415075E-1,-1.112298295E-1
9.641476875E0,2.645570040E-1,3.456799090E-1,-7.620107383E-2
9.661476875E0,2.167349905E-1,2.036799192E-1,-1.193805188E-1
9.681476875E0,2.067691535E-1,1.885304600E-1,-1.279675364E-1
9.701476875E0,1.518436372E-1,4.080230594E-1,7.016223390E-3
9.721476875E0,-1.149822921E-1,3.079633415E-1,9.128072113E-2
9.743483125E0,-5.007523894E-1,-2.240479141E-1,-9.759881347E-2
9.765476875E0,-4.000120163E-1,-2.494075522E-2,-1.678308547E-1
9.785476875E0,-4.084070213E-3,5.503197908E-1,9.688322991E-2
9.805476875E0,1.921607554E-1,6.525611281E-1,4.258254170E-1
9.825478438E0,1.088212803E-1,2.278352827E-1,5.976007581E-1
9.847476875E0,-1.051037237E-1,-2.456376404E-1,4.633150995E-1
9.867476875E0,-2.081479728E-1,-3.364820182E-1,2.510307133E-1
9.887476875E0,-1.116312593E-1,-1.120675877E-1,1.981123239E-1
9.907476875E0,5.049237609E-2,1.536413282E-1,2.974390090E-1
9.927480000E0,6.148795038E-2,1.342332661E-1,3.437775075E-1
9.949476875E0,5.235987919E-5,-1.296779662E-1,2.755874991E-1
9.969476875E0,8.749335259E-2,-4.339237511E-1,1.740093231E-1
9.989476875E0,2.440668344E-1,-3.144210577E-1,-4.031710327E-3
1.000948000E1,1.486322433E-1,-3.640756756E-2,-2.123542130E-1
1.003147688E1,-9.171704948E-2,5.511051416E-1,-2.428102046E-1
1.005148000E1,-5.664989948E-1,2.004405975E0,-1.559102684E-1
1.007347688E1,-1.475937724E0,4.012285233E0,-1.094495952E-1
1.009347688E1,-2.102179289E0,4.846412659E0,-2.670353744E-3
1.011347688E1,-2.299401522E0,3.679363489E0,3.024830222E-1
1.013347844E1,-1.959655643E0,2.406320333E0,6.355791092E-1
1.015547688E1,-1.396088839E0,1.531945348E0,1.125004292E0
1.017548313E1,-8.371122479E-1,1.152528167E0,1.223248959E0
1.019747688E1,-2.013062686E-1,1.075716257E0,1.022099733E0
1.021748000E1,4.855680466E-1,1.245344758E0,7.682415843E-1
1.023947688E1,1.376244426E0,1.507126689E0,5.678254366E-1
1.025949719E1,2.288021803E0,1.366313577E0,6.159092188E-1
1.028147688E1,1.326240778E0,-3.064885378E0,-7.079404593E-1
1.030147688E1,1.533271790E0,-4.182402134E0,-1.567829251E0
1.032147688E1,2.014877796E0,-3.412450314E0,-1.726898551E0
1.034148156E1,2.421661854E0,-3.123877525E0,-1.738976240E0
1.036347688E1,2.280918360E0,-4.567107677E0,-1.337096691E0
1.038348000E1,1.681362987E0,-4.549235821E0,-6.736621857E-1
1.040547688E1,1.010109305E0,-2.795144796E0,-3.427128494E-1
1.042548000E1,-1.875530779E-1,-7.479084730E-1,-2.695311904E-1
1.044748000E1,-7.681717873E-1,5.272814035E-1,2.477843910E-1
1.046748625E1,-5.111196637E-1,-1.249306649E-1,3.478441238E-1
1.048947688E1,2.440144867E-1,-9.966179132E-1,2.505245507E-1
1.050947688E1,8.750033379E-1,-2.076313496E0,9.562659264E-2
1.052947688E1,9.909630418E-1,-2.782979727E0,2.451489419E-1
1.054948000E1,7.428644896E-1,-2.862671614E0,1.789660603E-1
1.057147688E1,5.190259814E-1,-3.531254768E0,-3.285756707E-1
1.059148469E1,3.907268643E-1,-3.918525934E0,-4.579220414E-1
1.061347688E1,2.698104382E-1,-3.629499435E0,-3.256959021E-1
1.063347688E1,2.434210628E-1,-3.698492289E0,-3.342305422E-1
1.065347844E1,1.938537210E-1,-3.767310619E0,-2.459692508E-1
1.067348781E1,2.040813416E-1,-4.416311264E0,-2.844886668E-2
1.069547688E1,8.506734669E-2,-5.233055592E0,2.591988444E-1
1.071548469E1,-9.244834185E-1,-4.202490807E0,6.343922615E-1
1.073747688E1,-2.084272146E0,-2.316784859E0,8.077907562E-1
1.075748000E1,-2.065352917E0,-2.096035719E0,6.842039824E-1
1.077947688E1,-2.089455843E0,-2.480147839E0,6.117204428E-1
1.079948156E1,-2.823907852E0,-1.919966936E0,8.405331373E-1
1.082147688E1,-2.874557257E0,-1.068560362E0,1.339086413E0
1.084147844E1,-2.582842827E0,-3.062354624E-1,1.662286520E0
1.086347844E1,-2.390944004E0,3.749141693E-1,1.313203216E0
1.088547688E1,-1.877223730E0,1.026934266E0,1.054789782E0
1.090547688E1,-1.207087159E0,9.846972823E-1,1.019760966E0
1.092547688E1,-4.896521270E-1,5.258153677E-1,8.713032603E-1
1.094547688E1,2.256885320E-1,-4.625122622E-2,5.914746523E-1
1.096547844E1,7.334920764E-1,-7.112042308E-1,3.336720467E-1
1.098747688E1,1.011383414E0,-1.087200522E0,2.191609889E-1
1.100748469E1,1.010702729E0,-1.103623986E0,2.333505154E-1
1.102947688E1,8.966105580E-1,-1.095176697E0,2.648886144E-1
1.104949875E1,7.234389782E-1,-1.295173883E0,3.567104042E-1
1.107147688E1,5.657310486E-1,-1.568160892E0,4.190710187E-1
1.109147688E1,4.987278283E-1,-1.885566473E0,5.481730103E-1
1.111147844E1,4.513421357E-1,-2.220477581E0,7.176270485E-1
1.113347688E1,3.021339476E-1,-2.506868839E0,8.963487148E-1
1.115347688E1,6.274458766E-2,-2.416425705E0,1.176875472E0
1.117348000E1,-2.761983573E-1,-1.978243470E0,1.470928550E0
1.119547688E1,-5.278573632E-1,-1.392022252E0,1.651709795E0
1.121548000E1,-6.107430458E-1,-1.034386873E0,1.725868821E0
1.123747688E1,-6.408325434E-1,-8.292757273E-1,1.931206822E0
1.125747688E1,-7.424107194E-1,-7.787484527E-1,2.239536762E0
1.127747688E1,-1.094373822E0,-6.846054196E-1,2.346909285E0
1.129748000E1,-1.432095051E0,-6.232396364E-1,2.410177469E0
1.131947688E1,-1.325001597E0,-5.142961740E-1,2.538354397E0
1.133948469E1,-9.450957775E-1,-4.700171575E-2,2.616475344E0
1.136147688E1,-5.855579376E-1,6.409372687E-1,2.327658415E0
1.138147688E1,-6.507983804E-1,9.436646104E-1,2.143404007E0
1.140147688E1,-8.559094667E-1,9.470680356E-1,2.022714376E0
1.142148000E1,-9.672440290E-1,1.031105638E0,1.898412108E0
1.144347688E1,-9.384286404E-1,1.135964990E0,1.884379625E0
1.146348938E1,-6.820572019E-1,8.112813830E-1,1.955519199E0
1.148547688E1,-2.045525908E-1,5.150466785E-2,2.016064644E0
1.150547688E1,3.270572424E-1,-5.130046010E-1,2.001665831E0
1.152547688E1,4.952022731E-1,-5.717175007E-1,1.670105577E0
1.154548625E1,2.059488446E-1,-4.243768156E-1,1.211834431E0
1.156747688E1,-2.571917176E-1,-2.086890191E-1,9.336115122E-1
1.158748156E1,-4.282688797E-1,-1.385965943E-1,6.862459779E-1
1.160947688E1,-5.640729666E-1,-2.892359495E-1,3.066717982E-1
1.162947688E1,-4.429645538E-1,-4.484623373E-1,-1.055749655E-1
1.164947688E1,-1.278977245E-1,-4.058239460E-1,-3.325026631E-1
1.166947688E1,1.114218161E-1,-2.832494974E-1,-4.948183000E-1
1.168947688E1,-1.616174914E-2,-3.543193042E-1,-7.606668472E-1
1.170947688E1,-1.385965943E-1,-5.115908980E-1,-1.059641719E0
1.172948156E1,-8.831366152E-2,-5.927661657E-1,-1.440018773E0
1.175147844E1,4.934045672E-2,-3.515093029E-1,-1.822420478E0
1.177347688E1,1.630312055E-1,-7.764969766E-2,-2.144311428E0
1.179347844E1,3.519980013E-1,1.555786431E-1,-2.273535728E0
1.181547688E1,6.429094672E-1,2.009921223E-1,-2.278806686E0
1.183547688E1,8.108799458E-1,1.905026883E-1,-2.531216145E0
1.185547688E1,9.351648688E-1,3.078062534E-1,-2.864259720E0
1.187547688E1,1.061613917E0,3.540225923E-1,-3.077277184E0
1.189547688E1,1.070515156E0,3.700272441E-1,-3.087749243E0
1.191547688E1,9.874723554E-1,5.646837950E-1,-2.868413687E0
1.193547688E1,8.983733058E-1,7.352374196E-1,-2.616231203E0
1.195547688E1,8.777610064E-1,7.981564999E-1,-2.434332848E0
1.197547688E1,1.009987116E0,7.792894840E-1,-2.236674309E0
1.199548313E1,1.260616422E0,7.591832876E-1,-2.038370132E0
1.201747688E1,1.374324560E0,6.267826557E-1,-1.872040153E0
1.203748000E1,1.317287207E0,4.199436605E-1,-1.807794571E0
1.205947688E1,1.211049080E0,1.490336657E-1,-1.745765567E0
1.207947688E1,1.119105101E0,-1.151568219E-1,-1.651203632E0
1.209947688E1,1.037755370E0,-2.475225925E-1,-1.475798011E0
1.211947688E1,8.890532851E-1,-2.092300653E-1,-1.299676895E0
1.213947688E1,5.872334838E-1,-4.420918971E-2,-1.068019271E0
1.215947688E1,1.825265288E-1,6.178465486E-2,-7.551516294E-1
1.217947688E1,-1.590693146E-1,8.159413934E-2,-3.793822229E-1
1.219947688E1,-3.894178569E-1,-4.223696887E-2,-4.228932783E-2
1.221947688E1,-5.492376685E-1,-1.944296807E-1,2.141519040E-1
1.223947688E1,-6.786189079E-1,-3.383495212E-1,4.811872840E-1
1.225947688E1,-7.362147570E-1,-4.748168290E-1,7.920303941E-1
1.227947688E1,-6.317044497E-1,-5.333726406E-1,1.155634880E0
1.229947688E1,-5.496739745E-1,-5.733231902E-1,1.429564238E0
1.231947688E1,-7.833910584E-1,-5.609488487E-1,1.684469581E0
1.233947688E1,-1.138076782E0,-5.592209697E-1,2.044304132E0
1.235947688E1,-1.273200274E0,-4.692317545E-1,2.434786558E0
1.237947688E1,-1.269761920E0,-3.891735077E-1,2.636808634E0
1.239947688E1,-1.286918521E0,-2.213252038E-1,2.616806984E0
1.241948156E1,-1.271402597E0,-1.517912894E-1,2.606020927E0
1.244147688E1,-1.290304422E0,-2.737199962E-1,2.870176554E0
1.246147688E1,-1.385774016E0,-3.167772591E-1,3.159726620E0
1.248147688E1,-1.143365145E0,-2.689552307E-1,3.338989496E0
1.250147688E1,-6.154031157E-1,-2.129825205E-1,3.356495142E0
1.252147688E1,-6.084217876E-2,-2.179392576E-1,3.256557465E0
1.254147688E1,4.521275461E-1,-4.322133362E-1,3.202574492E0
1.256147688E1,9.668425918E-1,-6.050533056E-1,3.213604927E0
1.258147688E1,1.201641679E0,-5.181184411E-1,3.103335142E0
1.260148313E1,1.159247637E0,-2.773502767E-1,2.838830471E0
1.262347688E1,1.013599992E0,-8.580038697E-2,2.466638803E0
1.264348625E1,7.670547366E-1,2.354100049E-1,2.040429592E0
1.266547688E1,-2.094394993E-3,6.054372787E-1,1.496253252E0
1.268547688E1,-8.724202514E-1,8.502720594E-1,1.168410659E0
1.270547688E1,-1.308455825E0,9.253386855E-1,1.009638071E0
1.272547688E1,-1.291630864E0,8.701862693E-1,8.580911160E-1
1.274547688E1,-1.229549527E0,7.380822897E-1,6.072872877E-1
1.276547688E1,-1.229322672E0,5.419421792E-1,3.109304011E-1
1.278547688E1,-1.182111502E0,3.042981625E-1,7.703883201E-2
1.280547688E1,-9.847846031E-1,3.822271014E-3,-1.808684766E-1
1.282548156E1,-6.920230389E-1,-2.543468177E-1,-5.363745689E-1
1.284747688E1,-5.157273412E-1,-3.786840737E-1,-9.144129157E-1
1.286748156E1,-4.508883655E-1,-3.849498332E-1,-1.195515633E0
1.288947688E1,-2.835811079E-1,-4.945390522E-1,-1.627449751E0
1.290948000E1,1.086467430E-1,-5.910557508E-1,-2.132862091E0
1.293147531E1,6.262415648E-1,-7.449065447E-1,-2.581045151E0
1.295147531E1,9.215687513E-1,-7.487288117E-1,-2.795022726E0
1.297147688E1,1.032746196E0,-5.905670524E-1,-2.891888380E0
1.299147688E1,1.104636312E0,-3.172659576E-1,-2.930599689E0
1.301147688E1,1.149299264E0,4.590216093E-3,-2.996154308E0
1.303147688E1,1.120955110E0,2.818881273E-1,-3.112794638E0
1.305147688E1,1.008678079E0,4.513072371E-1,-3.205262184E0
1.307147688E1,8.226609230E-1,4.688652456E-1,-3.232751131E0
1.309148156E1,6.235886812E-1,3.449468613E-1,-3.223239183E0
1.311347688E1,4.793372154E-1,1.590344012E-1,-3.138171911E0
1.313348000E1,3.823841810E-1,1.654572040E-2,-3.023608446E0
1.315547688E1,3.349461257E-1,-7.407177240E-2,-2.891835928E0
1.317547688E1,3.930307031E-1,-1.140049100E-1,-2.740271568E0
1.319547688E1,4.614999592E-1,-1.407433450E-1,-2.569927454E0
1.321548312E1,5.111371279E-1,-1.850398034E-1,-2.298459053E0
1.323747688E1,5.039288998E-1,-1.974316388E-1,-1.821478009E0
1.325748625E1,4.024031162E-1,-2.226341963E-1,-1.264752865E0
1.327947688E1,2.561968863E-1,-2.943323255E-1,-6.436076164E-1
1.329947688E1,2.347816974E-1,-3.273364902E-1,-1.508488059E-1
1.331947688E1,3.899065554E-1,-2.937389016E-1,2.493028343E-1
1.333947688E1,4.996004999E-1,-2.100852877E-1,5.262866020E-1
1.335947688E1,3.148573935E-1,-7.133160532E-2,7.991513610E-1
1.337947688E1,-2.186723053E-1,1.398008689E-2,1.162371874E0
1.339947844E1,-6.782698631E-1,-2.771582827E-2,1.506707788E0
1.342147688E1,-7.518180013E-1,-3.141592722E-3,1.737824321E0
1.344147688E1,-6.787410975E-1,1.425061375E-1,1.714157701E0
1.346147688E1,-7.008544207E-1,3.536560535E-1,1.670629144E0
1.348148000E1,-8.536754251E-1,5.096710324E-1,1.772137523E0
1.350347688E1,-1.119942904E0,5.708273649E-1,2.019974232E0
1.352347688E1,-1.338615179E0,5.236860514E-1,2.236691713E0
1.354347688E1,-1.428534508E0,4.278674722E-1,2.413912535E0
1.356347688E1,-1.326293111E0,2.800904512E-1,2.608830929E0
1.358347688E1,-9.473821521E-1,1.566607505E-1,2.897804976E0
1.360347688E1,-5.176995397E-1,7.478735596E-2,3.205017805E0
1.362348938E1,-3.677408695E-1,-2.801253460E-2,3.387806177E0
1.364547688E1,-3.417703807E-1,-1.901536286E-1,3.409326077E0
1.366548000E1,-2.503151298E-1,-2.682396472E-1,3.313437700E0
1.368747688E1,-3.399901390E-1,-2.415884733E-1,3.160477161E0
1.370747688E1,-6.075316668E-1,-1.160818487E-1,3.094992399E0
1.372747688E1,-8.327838778E-1,4.452335089E-2,3.007795811E0
1.374748156E1,-9.243612885E-1,1.642703861E-1,2.752733231E0
1.376947688E1,-9.736493826E-1,2.387784868E-1,2.348794222E0
1.378947688E1,-9.696874619E-1,2.678905725E-1,2.003428459E0
1.380949094E1,-8.627337217E-1,2.855707705E-1,1.712307572E0
1.383147688E1,-6.633996367E-1,2.830924094E-1,1.283689618E0
1.385147688E1,-4.364544749E-1,2.864085436E-1,7.089527249E-1
1.387148313E1,-1.298874021E-1,3.121346831E-1,-2.867575921E-2
1.389347688E1,2.688505054E-1,2.838254273E-1,-6.905918717E-1
1.391347844E1,4.876798987E-1,1.016130671E-1,-1.013163686E0
1.393347844E1,6.121393442E-1,-7.574728876E-2,-1.308089375E0
1.395347844E1,6.783047318E-1,-2.541897595E-1,-1.715937853E0
1.397547688E1,5.924694538E-1,-3.158871531E-1,-2.202029467E0
1.399547688E1,3.787539005E-1,-2.588323355E-1,-2.434332848E0
1.401547688E1,3.685786426E-1,-2.297725976E-1,-2.564429760E0
1.403547688E1,7.464249730E-1,-1.995260417E-1,-2.907037735E0
1.405547844E1,1.207157016E0,7.190756500E-3,-3.484602213E0
1.407747688E1,1.312382817E0,-2.427753061E-2,-3.958441734E0
1.409747688E1,1.205882907E0,-2.804918587E-1,-4.101069927E0
1.411747688E1,1.139839649E0,-3.501304984E-1,-4.172785759E0
1.413748156E1,1.282223582E0,-1.270250678E-1,-4.182157993E0
1.415947688E1,1.356976032E0,2.298074961E-1,-4.140444756E0
1.417947688E1,1.257789016E0,8.282983303E-1,-4.077944279E0
1.419947688E1,1.088823676E0,1.524091363E0,-3.983626842E0
1.421947688E1,1.073150635E0,2.076313496E0,-3.769230604E0
1.423947688E1,1.222306490E0,2.440284491E0,-3.582864285E0
1.425947688E1,1.247735858E0,2.786540270E0,-3.339111567E0
1.427947844E1,1.186247945E0,3.091274738E0,-3.034185171E0
1.430147688E1,1.128215790E0,3.422625542E0,-2.695312023E0
1.432147688E1,1.109994531E0,3.695769548E0,-2.323574305E0
1.434147688E1,1.022867680E0,3.619498730E0,-1.975381136E0
1.436148469E1,9.218479991E-1,3.513086081E0,-1.860538483E0
1.438347688E1,1.091319442E0,3.395136595E0,-1.879457831E0
1.440348000E1,8.080176115E-1,3.467113972E0,-1.796484828E0
1.442548313E1,-1.731366664E-2,3.585796356E0,-1.427522302E0
1.444747688E1,-4.223522246E-1,3.940656662E0,-1.296570182E0
1.446948000E1,-9.360200912E-2,4.262163639E0,-1.139385819E0
1.449147688E1,2.302961946E-1,4.267591953E0,-6.217037439E-1
1.451148469E1,-6.750933826E-2,3.827838659E0,-3.594331145E-1
1.453347688E1,-3.682295680E-1,3.133686304E0,-1.830501258E-1
1.455348156E1,-2.781007588E-1,2.753466368E0,1.436405927E-1
1.457551906E1,4.672246426E-2,2.208155632E0,5.305277109E-1
1.459747688E1,3.070906699E-1,1.688850403E0,6.665586829E-1
1.461747688E1,3.595727384E-1,1.171883821E0,6.374989748E-1
1.463747688E1,3.866951466E-1,7.222521305E-1,6.981142163E-1
1.465747688E1,3.750014305E-1,3.421543539E-1,7.851712704E-1
1.467747688E1,3.997676671E-1,8.707447350E-2,6.640105247E-1
1.469747688E1,3.848625422E-1,-1.935395598E-1,4.226489365E-1
1.471747688E1,3.865206242E-1,-2.328792810E-1,3.277553916E-1
1.473747688E1,3.038618267E-1,-1.464854777E-1,3.641280532E-1
1.475747688E1,1.041787043E-1,-6.464699656E-2,3.949505687E-1
1.477747688E1,1.235693134E-2,7.777187228E-2,3.945840299E-1
1.479747688E1,1.630137563E-1,3.664667904E-1,3.480012119E-1
1.481747688E1,3.333927989E-1,5.230926275E-1,2.847504616E-1
1.483747844E1,2.119178772E-1,6.157696247E-1,2.434734255E-1
1.485948625E1,-2.302089334E-2,4.272915125E-1,2.208714187E-1
1.488147688E1,1.338667516E-2,-5.049237609E-2,1.949358284E-1
1.490148312E1,1.029918790E-1,-2.104343474E-1,1.713564247E-1
1.492347688E1,5.113814492E-3,2.279050946E-1,1.773254573E-1
1.494547688E1,-1.439547539E-1,7.930950522E-1,3.207391500E-1
1.496547688E1,-3.952821791E-1,5.058662295E-1,3.681946695E-1
1.498548000E1,-4.408178031E-1,-8.738863468E-2,2.204350829E-1
1.500747688E1,-1.291369051E-1,4.118977115E-2,1.861568242E-1
1.502747688E1,6.906268001E-2,4.190186560E-1,3.219783306E-1
1.504747688E1,-7.845254987E-2,7.287273407E-1,3.929608762E-1
1.506748312E1,-4.398927689E-1,6.580764055E-1,3.304955363E-1
1.508947688E1,-7.827627063E-1,5.387831479E-2,1.018923223E-1
1.510947688E1,-6.345493793E-1,-2.978055179E-1,-1.033234876E-2
1.512947688E1,-2.495820820E-1,-7.967428118E-2,1.454382837E-1
1.514947688E1,5.445427261E-3,3.610562682E-1,3.913726211E-1
1.516947688E1,-1.073202938E-1,4.940503538E-1,3.761009872E-1
1.518947688E1,-2.834414840E-1,1.627868563E-1,2.425658554E-1
1.520948156E1,-2.183406949E-1,-2.870891988E-1,2.076941775E-3
1.523147688E1,4.345869645E-3,-4.587074220E-1,-1.873436421E-1
1.525147688E1,1.234471351E-1,-2.463357747E-1,-2.194751501E-1
1.527147688E1,1.010196581E-1,1.247910410E-2,-1.767145842E-1
1.529148313E1,4.956734832E-3,1.201135591E-1,-1.955117881E-1
1.531347688E1,-1.028173491E-1,-4.928809777E-2,-2.035752088E-1
1.533348000E1,-6.455972791E-2,-3.449817896E-1,-1.192234382E-1
1.535547688E1,1.090307161E-1,-5.792573094E-1,-4.166100919E-2
1.537547688E1,1.957910359E-1,-5.435827971E-1,-9.417796880E-2
1.539547688E1,1.077566296E-1,-4.154581726E-1,-2.324254960E-1
1.541547688E1,-8.152432740E-2,-3.249104917E-1,-2.938087285E-1
1.543547688E1,-1.027649865E-1,-3.388033211E-1,-2.254441828E-1
1.545547688E1,3.960151970E-2,-4.130147099E-1,-1.001644433E-1
1.547547844E1,-2.136282995E-2,-6.801897287E-1,-1.584584415E-1
1.549747688E1,-2.969852388E-1,-1.169283271E0,-4.277802110E-1
1.551747844E1,-2.293537110E-1,-1.142509937E0,-3.603581190E-1
1.553947688E1,3.639360666E-1,-5.242445469E-1,-8.590510488E-2
1.555947688E1,7.305773497E-1,-2.278876454E-1,1.755103022E-1
1.557947688E1,4.591437578E-1,-3.457846344E-1,3.249803185E-2
1.559949250E1,-6.250023842E-2,-5.222024918E-1,-3.332357109E-1
1.562147688E1,-3.068812490E-1,-3.958232105E-1,-5.322032571E-1
1.564148156E1,-3.021164834E-1,-1.671676338E-1,-4.524766207E-1
1.566347688E1,-4.278325438E-1,4.780456796E-2,-2.454107404E-1
1.568348938E1,-5.138772726E-1,8.878489584E-2,-7.955210656E-2
1.570547688E1,-2.712067068E-1,4.700171575E-2,9.564404376E-3
1.572547688E1,5.387831479E-2,-1.942551509E-2,9.295623749E-2
1.574547688E1,1.708851904E-1,-3.762929887E-2,1.538507789E-1
1.576547688E1,1.464331299E-1,1.284562331E-2,1.351583004E-1
1.578547844E1,1.385791451E-1,1.123642996E-1,6.995279342E-2
1.580747844E1,1.177748144E-1,1.197993979E-1,-1.192059834E-2
1.582947688E1,1.183333248E-1,5.466371030E-2,-2.153736353E-2
1.584948469E1,1.160643920E-1,1.051909924E-1,-2.740166849E-3
1.587147688E1,7.358308136E-2,1.855110526E-1,-3.298672382E-3
1.589147688E1,9.545205534E-2,2.054077983E-1,5.078908056E-2
1.591147688E1,2.048318386E-1,2.054950595E-1,1.184904054E-1
1.593147844E1,2.660754323E-1,8.578293025E-2,1.281944364E-1
1.595347688E1,2.873859107E-1,4.202752933E-2,8.492772281E-2
1.597348156E1,3.129375279E-1,2.816612422E-1,1.538158655E-1
1.599547688E1,2.514495850E-1,4.408003688E-1,3.400948644E-1
1.601547688E1,2.546435408E-2,1.431693584E-1,2.970899343E-1
1.603547688E1,-2.498613298E-1,-2.215346396E-1,-5.305800959E-2
1.605548469E1,-3.047693968E-1,-1.264840066E-1,-2.647140920E-1
1.607747688E1,-2.276781946E-1,4.724606127E-2,-1.776745170E-1
1.609747688E1,-1.805892140E-1,8.297295123E-2,-2.673844434E-2
1.611747688E1,-2.662499845E-1,1.605702913E-3,1.583013684E-2
1.613747688E1,-2.733010948E-1,-4.429645464E-2,6.422811653E-3
1.615747688E1,-1.338318437E-1,-1.356120780E-2,1.708677411E-2
1.617747688E1,3.232349828E-2,1.337969452E-1,1.125911921E-1
1.619748000E1,4.597197101E-2,1.715309620E-1,2.069960535E-1
1.621947688E1,-9.773843922E-4,4.721115530E-2,2.192657143E-1
1.623948000E1,-1.708677411E-2,-1.412320435E-1,6.942919642E-2
1.626147688E1,2.069960535E-2,-2.248158604E-1,-7.251843065E-2
1.628147688E1,4.763003439E-2,-8.639379591E-2,-3.281218931E-2
1.630147688E1,-1.919862116E-3,-2.426007576E-2,2.762856148E-2
1.632147688E1,-3.930481523E-2,-1.037772745E-1,-4.974188283E-3
1.634147844E1,-3.160791099E-2,-1.860869974E-1,-6.960373372E-2
1.636348625E1,-4.726351425E-2,-2.369633466E-1,-8.984954655E-2
1.638547688E1,-2.764601447E-2,-1.661902517E-1,-2.151990868E-2
1.640548312E1,3.920009360E-2,-1.001295373E-1,1.663298719E-2
1.642747688E1,9.526006877E-2,-1.243721619E-1,-4.071853310E-2
1.644749250E1,1.047197543E-2,-1.607448310E-1,-1.569400132E-1
1.646947688E1,-1.909913868E-1,-7.763224840E-2,-2.290046513E-1
1.648947688E1,-2.508561611E-1,5.164429173E-2,-1.987406462E-1
1.650947688E1,-1.668534726E-1,1.063952744E-1,-1.293114424E-1
1.652948156E1,-2.153561711E-1,-1.980948634E-2,-1.152615398E-1
1.655147688E1,-3.965038955E-1,-3.903777897E-1,-1.460666060E-1
1.657154719E1,-2.262993902E-1,-3.312809467E-1,-2.649409883E-2
1.659347688E1,2.390751988E-1,9.913469665E-3,2.265786380E-1
1.661348469E1,2.636668980E-1,-8.785987645E-2,3.016103506E-1
1.663547688E1,-9.883799404E-2,-3.474426866E-1,1.263792962E-1
1.665547688E1,-2.862863541E-1,-2.376614809E-1,-3.748967126E-2
1.667547688E1,-2.509434521E-1,3.565707803E-2,-4.693190381E-2
1.669548156E1,-2.350609452E-1,2.535614371E-1,-1.710422710E-2
1.671747688E1,-2.148674875E-1,3.330611885E-1,3.830997646E-2
1.673747688E1,-1.121025011E-1,2.302263826E-1,1.221730486E-1
1.675747688E1,3.654719517E-2,6.928957254E-2,1.897347420E-1
1.677747688E1,1.608495414E-1,-7.293730974E-2,1.818458587E-1
1.679747688E1,2.255139947E-1,-9.393361956E-2,1.203753576E-1
1.681747688E1,2.128603607E-1,-1.079835221E-1,1.734857261E-2
1.683748156E1,1.925796270E-1,-9.520771354E-2,-5.372123420E-2
1.685947688E1,1.928239763E-1,-2.042035107E-3,-1.462585945E-2
1.687947688E1,2.358463407E-1,5.777039751E-2,7.035422325E-2
1.689947688E1,2.755002081E-1,7.560766488E-2,9.840166569E-2
1.691947844E1,2.052681744E-1,3.347541392E-2,4.483750835E-2
1.694147688E1,1.222777665E-1,-3.560471581E-3,-9.126326442E-2
1.696148312E1,1.418952644E-1,3.017674200E-2,-1.170766875E-1
1.698347688E1,1.054876968E-1,5.431464687E-2,-2.096140385E-2
1.700348156E1,3.743731230E-2,8.258897811E-2,1.656317525E-2
1.702547688E1,5.939355493E-2,2.752907872E-1,2.897246554E-2
1.704547844E1,1.217367128E-1,4.481481910E-1,1.310742199E-1
1.706747688E1,-6.347762793E-2,1.617222130E-1,1.731366664E-1
1.708747688E1,-3.110002279E-1,-2.879095078E-1,2.042035107E-3
1.710747688E1,-2.757620215E-1,-2.623578906E-1,-1.855110526E-1
1.712748312E1,-1.282467991E-1,-6.637486815E-2,-1.340412796E-1
1.714947688E1,-7.307693362E-2,-1.567305624E-2,-3.403391922E-3
1.716948156E1,-1.975538135E-1,-7.545058429E-2,-4.886921961E-4
1.719147688E1,-2.916445136E-1,-1.180366203E-1,-3.274237737E-2
1.721347688E1,-1.294510663E-1,-1.403419226E-1,1.312487572E-2
1.723347688E1,1.232202426E-1,-3.858922794E-2,1.217890754E-1
1.725347688E1,2.764776051E-1,7.649777830E-2,1.913404465E-1
1.727347688E1,2.653773129E-1,6.784094870E-2,1.614778638E-1
1.729347688E1,1.780934036E-1,-1.170417815E-1,2.284635976E-2
1.731347688E1,1.168847010E-1,-2.400002182E-1,-1.683544517E-1
1.733347688E1,9.423032403E-2,-1.752310544E-1,-2.441715598E-1
1.735347688E1,6.551966071E-2,-2.314306609E-2,-2.198591232E-1
1.737347688E1,3.373721614E-2,1.609193534E-2,-2.301914692E-1
1.739348312E1,-1.012290944E-3,-3.026400879E-2,-3.078411818E-1
1.741547688E1,-3.775146976E-2,-9.168214351E-2,-3.714060783E-1
1.743548312E1,1.221730490E-3,-1.118756011E-1,-2.970201373E-1
1.745747688E1,8.028514683E-2,-1.833642870E-1,-2.468070090E-1
1.747747688E1,5.033529550E-2,-2.663721442E-1,-3.004933298E-1
1.749747688E1,1.609193534E-2,-1.495223492E-1,-3.470412791E-1
1.751748000E1,9.950122237E-2,7.674212754E-2,-3.739368021E-1
1.753947688E1,4.168195426E-1,3.558900952E-1,-2.777516842E-1
1.755948156E1,6.237632036E-1,5.171061754E-1,-1.634326279E-1
1.758147688E1,3.145781457E-1,3.980921507E-1,-2.486221492E-1
1.760148312E1,-4.925493598E-1,-1.924923658E-1,-5.389401913E-1
1.762347688E1,-1.046848536E0,-4.780107737E-1,-7.241371274E-1
1.764348469E1,-7.081324458E-1,-1.170243248E-1,-4.841019809E-1
1.766547688E1,-2.009746581E-1,2.570346296E-1,-6.728244573E-2
1.768547688E1,-3.380353749E-1,2.730916739E-1,-6.698573381E-2
1.770547688E1,-9.016720057E-1,-1.602037698E-1,-3.818780482E-1
1.772547844E1,-1.348650813E0,-7.398276329E-1,-6.486341357E-1
1.774747688E1,-1.263094783E0,-8.849168420E-1,-6.992835999E-1
1.776748000E1,-1.082051754E0,-7.309962511E-1,-5.563760400E-1
1.778947688E1,-1.000579834E0,-5.316970944E-1,-3.621558249E-1
1.780949250E1,-7.942295074E-1,-3.889291584E-1,-2.847330272E-1
1.783147688E1,-3.647738099E-1,-1.447227001E-1,-1.646543592E-1
1.785147688E1,-1.580046564E-1,1.970302165E-1,-6.232570857E-2
1.787147688E1,-2.305405438E-1,4.984485805E-1,1.364847459E-2
1.789147844E1,-2.325127572E-1,6.083868742E-1,1.074599251E-1
1.791347688E1,5.501277745E-2,4.491779208E-1,1.959830225E-1
1.793347844E1,2.901435196E-1,1.359087825E-1,1.662077010E-1
1.795547688E1,2.724284530E-1,4.824090004E-2,1.684242785E-1
1.797547688E1,1.514596790E-1,1.786868125E-1,2.531425655E-1
1.799547688E1,1.104444340E-1,1.143539697E-1,3.294134438E-1
1.801548000E1,1.420523524E-1,-2.866703272E-1,3.067765236E-1
1.803747688E1,2.155132592E-1,-5.199161172E-1,1.863313466E-1
1.805748312E1,3.081029654E-1,-5.564109609E-2,2.002590746E-1
1.807947688E1,1.677086800E-1,6.111444831E-1,3.591713011E-1
1.809947688E1,-1.940631568E-1,4.221253395E-1,3.536560535E-1
1.811947688E1,-3.184527755E-1,5.080653355E-2,6.866125017E-2
1.813947688E1,-1.755277663E-1,-7.888888009E-3,-8.435176313E-2
1.815947688E1,-5.138249323E-2,1.066570729E-1,1.646369100E-1
1.817947688E1,-6.473426521E-2,1.016130671E-1,4.343949854E-1
1.819947844E1,-2.039940804E-1,-3.885103017E-2,4.924097359E-1
1.822147531E1,-3.633077443E-1,-2.463008612E-1,3.802025318E-1
1.824147688E1,-2.964441776E-1,-3.402344882E-1,3.040189147E-1
1.826147688E1,-9.117600322E-2,-2.156528831E-1,3.730117679E-1
1.828347688E1,-5.105087906E-2,2.000147291E-2,4.954640567E-1
1.830347688E1,-5.447172746E-2,3.516838327E-2,5.249426961E-1
1.832347688E1,1.368687153E-1,-4.462806880E-2,4.695982933E-1
1.834347844E1,2.864608765E-1,-1.293463558E-1,4.034328461E-1
1.836347844E1,2.375218570E-1,-1.434486061E-1,3.330960870E-1
1.838547844E1,1.473755985E-1,-3.979350626E-2,2.772630155E-1
1.840747688E1,1.594881862E-1,6.487388909E-2,1.889318973E-1
1.842747688E1,2.366491854E-1,1.317898184E-1,1.184380427E-1
1.844748312E1,2.770710289E-1,1.760164499E-1,2.844886668E-2
1.846947688E1,2.478716522E-1,2.976484597E-1,-7.784168236E-3
1.848948156E1,2.406634539E-1,3.510729671E-1,8.559094369E-2
1.851147688E1,3.310365975E-1,2.921157479E-1,2.254267186E-1
1.853148000E1,4.678704143E-1,1.538158655E-1,2.761983573E-1
1.855347688E1,6.822841167E-1,9.550441802E-2,3.588745892E-1
1.857348469E1,8.313701153E-1,1.706582904E-1,4.562465250E-1
1.859547688E1,9.027541280E-1,2.101376355E-1,5.067912340E-1
1.861547688E1,7.948578596E-1,1.753183156E-1,3.875852525E-1
1.863747688E1,2.606823742E-1,4.073598608E-2,2.522000670E-2
1.865747688E1,-4.382696152E-1,-1.577428579E-1,-4.623377025E-1
1.867747688E1,-7.824659944E-1,-1.723861694E-1,-6.342177391E-1
1.869747688E1,-4.097509384E-1,3.853686899E-2,-2.122320384E-1
1.871747688E1,2.220058814E-2,2.065771669E-1,3.243519962E-1
1.873747688E1,-1.546361670E-2,1.141096279E-1,3.406358957E-1
1.875747688E1,-2.813296318E-1,8.765043318E-2,-8.813912980E-3
1.877747688E1,-3.883008361E-1,2.812249064E-1,-1.603259444E-1
1.879748000E1,-3.388556838E-1,5.761506557E-1,1.195550524E-2
1.881947688E1,-2.744704783E-1,7.620630860E-1,2.005557865E-1
1.883947688E1,-2.295631617E-1,6.527880430E-1,2.289697379E-1
1.885947688E1,-1.537635028E-1,3.436727822E-1,1.463284045E-1
1.887948625E1,3.333578818E-3,2.148325741E-1,1.153837144E-1
1.890147688E1,1.310218722E-1,3.499385118E-1,2.048842013E-1
1.892148156E1,8.553858846E-2,4.225616753E-1,2.981022298E-1
1.894347844E1,1.356120855E-1,1.999100149E-1,3.186796606E-1
1.896348312E1,3.194301724E-1,-2.385865152E-2,2.547307909E-1
1.898547688E1,3.215070963E-1,6.044075266E-2,2.133839577E-1
1.900547688E1,1.244245246E-1,3.295705318E-1,2.224771231E-1
1.902547844E1,-7.155850064E-3,5.266007185E-1,2.504896522E-1
1.904548000E1,2.820452116E-2,4.712039828E-1,2.669655681E-1
1.906747688E1,1.442863643E-1,1.285085976E-1,2.093522400E-1
1.908748156E1,2.087588310E-1,-4.728097096E-2,1.738347858E-1
1.910947688E1,2.863910794E-1,2.686236203E-1,3.192032576E-1
1.912947688E1,2.497217059E-1,6.370451450E-1,5.282064676E-1
1.914947688E1,-5.318018049E-2,2.818008661E-1,4.211654067E-1
1.916947688E1,-4.046545923E-1,-3.522947133E-1,-9.733701497E-2
1.918947688E1,-4.809778333E-1,-2.578200400E-1,-3.384367824E-1
1.920947688E1,-3.665540516E-1,1.223824844E-1,-9.463175386E-2
1.922948312E1,-1.880068630E-1,2.506991029E-1,2.530203760E-1
1.925147688E1,-2.378360182E-1,5.129522830E-2,2.371727973E-1
1.927147688E1,-3.894702196E-1,-1.286831200E-1,1.103920713E-1
1.929147688E1,-2.845933735E-1,-1.708677262E-1,1.539380401E-1
1.931147844E1,2.330014482E-2,-8.164650202E-2,3.619114757E-1
1.933347688E1,2.289522886E-1,-2.532472648E-2,5.263563991E-1
1.935348469E1,2.327571064E-1,-8.993681520E-2,4.268377125E-1
1.937547688E1,2.004685104E-1,-2.059313953E-1,1.422443390E-1
1.939548313E1,1.937489957E-1,-1.571494490E-1,-9.342747182E-2
1.941747688E1,1.411273181E-1,-1.602212340E-2,-1.386315078E-1
1.943747844E1,6.909758598E-2,8.342673630E-2,-1.261000335E-1
1.945947688E1,-2.455678210E-2,4.724606127E-2,-2.404191047E-1
1.947947688E1,-3.328342736E-2,-9.827949107E-2,-3.565184176E-1
1.949947688E1,-1.794198528E-2,-2.795842886E-1,-3.809879124E-1
1.951947688E1,-6.920230389E-2,-3.943571448E-1,-3.541098535E-1
1.953947688E1,-1.860520989E-1,-4.587597847E-1,-3.065845370E-1
1.955947688E1,-1.338318437E-1,-4.314977527E-1,-3.293610811E-1
1.957947688E1,8.429939859E-3,-1.405688226E-1,-3.725405335E-1
1.959947688E1,-9.075712296E-4,4.136430100E-3,-2.987480164E-1
1.961948313E1,2.485348843E-2,-9.765116870E-2,-2.440319359E-1
1.964147688E1,1.498016119E-1,-9.299114347E-2,-4.325973094E-1
1.966148000E1,-1.131846011E-1,-1.256811619E-1,-7.993608117E-1
1.968347688E1,-6.257179976E-1,-1.505520940E-1,-1.023461103E0
1.970347688E1,-6.217037439E-1,1.443387270E-1,-7.784692049E-1
1.972347844E1,-9.166469425E-2,5.054997206E-1,-2.433163524E-1
1.974547688E1,2.547133565E-1,4.035899341E-1,5.061454722E-4
1.976547688E1,4.694935679E-2,1.575508714E-1,-1.641831249E-1
1.978548781E1,-3.059038520E-1,6.651449949E-2,-4.264013767E-1
1.980747688E1,-3.599741459E-1,1.374446750E-1,-4.193677008E-1
1.982747688E1,-2.152514607E-1,2.030166984E-1,-2.460041642E-1
1.984747688E1,-4.729842395E-2,1.849176288E-1,-1.305157244E-1
1.986747688E1,1.178969890E-1,9.152506292E-2,-5.771803856E-2
1.988747688E1,2.469466329E-1,7.936012000E-2,1.439896598E-2
1.990948156E1,3.005107939E-1,1.092401594E-1,6.525786221E-2
1.993147688E1,3.205122650E-1,1.066745222E-1,8.133234084E-2
1.995148156E1,2.980498672E-1,4.555309191E-2,6.031857803E-2
1.997347688E1,2.065946162E-1,-1.378810150E-3,-1.755801216E-2
1.999348469E1,1.376541108E-1,2.565633971E-3,-5.544910952E-2
2.001547688E1,1.071457639E-1,7.649777830E-2,-5.998696759E-2
2.003547844E1,9.983283468E-3,8.653342724E-2,-7.906341553E-2
2.005747688E1,-5.693263933E-2,3.525565146E-3,-1.720894687E-2
2.007747688E1,5.585053586E-4,-2.043431550E-1,1.211083978E-1
2.009747688E1,1.265712827E-1,-3.023608327E-1,2.297725976E-1
2.011747844E1,1.042659655E-1,-1.188220158E-1,1.830675900E-1
2.013947688E1,-4.497713596E-2,3.378084898E-1,8.506734669E-2
2.015948156E1,-2.203129083E-1,4.986754656E-1,9.414306283E-2
2.018147688E1,-5.162509084E-1,-2.437526882E-1,-1.127308160E-1
2.020148000E1,-4.780980349E-1,-6.543239355E-1,-2.759016454E-1
2.022347688E1,-5.476843193E-2,1.041961554E-2,-8.717919886E-2
2.024347688E1,9.114108980E-2,5.299692154E-1,2.256012559E-1
2.026347688E1,-6.752678752E-2,4.635419846E-1,2.547307909E-1
2.028348625E1,-3.075619340E-1,9.658651799E-2,6.031857803E-2
2.030547688E1,-4.276405573E-1,-2.572615445E-1,-6.822492182E-2
2.032548156E1,-2.225643843E-1,-2.596526444E-1,6.803293526E-2
2.034747844E1,8.021533489E-2,-4.185299575E-2,3.454006612E-1
2.036947844E1,1.435533315E-1,-7.878416032E-2,3.247534037E-1
2.039148000E1,1.820029318E-1,-2.964267135E-1,1.633279175E-1
2.041347688E1,3.688578904E-1,-3.344574571E-1,1.581791937E-1
2.043347688E1,5.224992037E-1,-2.645570040E-1,2.252696455E-1
2.045347688E1,5.340358615E-1,-6.302383542E-2,1.987929940E-1
2.047348156E1,4.140095413E-1,4.045673087E-2,7.730063051E-2
2.049547688E1,3.617020249E-1,1.748819835E-2,-1.066396199E-2
2.051548313E1,3.644945621E-1,1.935570128E-2,1.045452245E-2
2.053747688E1,3.143512607E-1,3.389429301E-2,7.780677825E-2
2.055747688E1,2.653598487E-1,-2.347467840E-2,1.117010713E-1
2.057747688E1,2.177996337E-1,-2.113768309E-1,3.342305496E-2
2.059747688E1,1.461887807E-1,-2.942450643E-1,-1.424014121E-1
2.061747688E1,6.026621908E-2,-9.171704948E-2,-1.613906026E-1
2.063747688E1,3.700098023E-3,2.449744195E-1,3.153809905E-2
2.065748313E1,-1.685813516E-1,2.968979478E-1,1.051560864E-1
2.067947688E1,-5.601459742E-1,-3.326597437E-2,-2.328618318E-1
2.069948469E1,-5.664291382E-1,2.094394993E-3,-2.819928527E-1
2.072147531E1,2.492330223E-2,2.159670442E-1,2.511703372E-1
2.074147688E1,3.684215546E-1,1.075820923E-1,6.126105785E-1
2.076147688E1,1.312487572E-1,-1.186300293E-1,3.513522446E-1
2.078148312E1,-3.464653194E-1,-9.690067917E-2,-2.056870461E-1
2.080347688E1,-5.921727419E-1,1.533446312E-1,-3.327470124E-1
2.082348313E1,-4.599815309E-1,2.992716134E-1,-1.196772233E-1
2.084547688E1,-1.922131032E-1,2.806838453E-1,1.480388194E-1
2.086548469E1,-1.169370604E-3,1.491209269E-1,2.347467840E-1
2.088747688E1,4.110250250E-2,-8.447393775E-3,2.433861643E-1
2.090747844E1,5.319763720E-2,-4.214970022E-2,2.600889504E-1
2.092947688E1,1.501681209E-1,-1.242674422E-2,2.818183005E-1
2.094947688E1,2.330538183E-1,-3.539527580E-2,2.627418637E-1
2.096947688E1,2.306103557E-1,-9.126326442E-2,1.765051484E-1
2.098948156E1,1.625250578E-1,-7.138396800E-2,6.913249195E-2
2.101147688E1,1.309695095E-1,9.995500743E-2,6.640977412E-2
2.103148156E1,1.199913844E-1,1.907295734E-1,1.099557430E-1
2.105347688E1,1.405339092E-1,1.273915768E-1,1.406386346E-1
2.107347688E1,2.323905826E-1,4.375540465E-2,2.052158117E-1
2.109347688E1,3.031636775E-1,-4.700171575E-2,2.849075496E-1
2.111347688E1,2.308197916E-1,-1.725257933E-1,2.732138336E-1
2.113347688E1,1.971349418E-1,-1.090830788E-1,2.145009637E-1
2.115347844E1,3.268827200E-1,3.233397007E-1,3.377910256E-1
2.117547688E1,3.301639259E-1,6.033952236E-1,6.980095506E-1
2.119547688E1,-1.411971357E-2,1.583711803E-1,7.162307501E-1
2.121547688E1,-3.526612222E-1,-4.809429348E-1,3.507239223E-1
2.123547688E1,-1.958608478E-1,-2.911907434E-1,1.821774691E-1
2.125547844E1,1.181587856E-2,2.546435297E-1,3.116634488E-1
2.127747688E1,-1.296430528E-1,3.435680568E-1,3.866427839E-1
2.129748156E1,-3.202679157E-1,6.316346675E-2,2.794272006E-1
2.131947688E1,-3.594331145E-1,-1.006705910E-1,1.439896673E-1
2.133947844E1,-1.618269235E-1,-3.064798191E-2,2.045525908E-1
2.136147688E1,3.134611249E-2,1.691398621E-1,4.349011481E-1
2.138147688E1,5.300565064E-2,2.720793784E-1,5.905670524E-1
2.140147844E1,6.813765317E-2,1.306553483E-1,5.426577926E-1
2.142148312E1,1.608320922E-1,-7.349581271E-2,3.952996135E-1
2.144347688E1,1.847431064E-1,-1.937839091E-1,2.607696354E-1
2.146348000E1,9.697049111E-2,-2.013062686E-1,1.770636588E-1
2.148547688E1,3.693116829E-2,-1.295034289E-1,1.068665087E-1
2.150547688E1,1.069363207E-1,6.352998316E-3,1.129228026E-1
2.152547688E1,1.244768798E-1,1.521927118E-2,1.471487135E-1
2.154548156E1,-5.665338784E-2,-8.571311831E-2,6.178465486E-2
2.156747688E1,-1.308473349E-1,-1.366069168E-1,1.692969352E-3
2.158748313E1,4.094542563E-2,-1.341983676E-1,4.867723212E-2
2.160947688E1,1.750565171E-1,-2.998824716E-1,7.983136177E-2
2.162947688E1,8.761552721E-2,-3.624525368E-1,2.165953629E-2
2.164947688E1,1.305506285E-2,-2.519033849E-1,-4.550073296E-2
2.166948000E1,7.566002011E-2,-1.937140971E-1,-7.182029635E-2
2.169147688E1,8.578293025E-2,-2.169269770E-1,-5.930628628E-2
2.171148469E1,-1.742187589E-1,-4.920606613E-1,-1.872563809E-1
2.173347688E1,-4.563861489E-1,-8.142833710E-1,-4.880289733E-1
2.175348313E1,-3.177022934E-1,-5.802696347E-1,-5.062502027E-1
2.177547688E1,9.232792072E-3,1.317549050E-1,-1.062207371E-1
2.179548469E1,-2.193878777E-2,2.897072136E-1,1.939409822E-1
2.181747688E1,-2.843315899E-1,-8.953539282E-2,9.852383286E-2
2.183748000E1,-4.591612220E-1,-4.551120400E-1,-2.351656556E-1
2.185947688E1,-3.874805570E-1,-2.962870896E-1,-3.826983571E-1
2.187947688E1,-2.066120803E-1,8.073893189E-2,-2.563365102E-1
2.189947688E1,-1.233598739E-1,3.275983036E-1,-5.398303270E-2
2.191948313E1,-1.258905977E-1,3.020990491E-1,-3.464478627E-2
2.194147688E1,-4.574507847E-2,1.306029856E-1,-5.925392732E-2
2.196147688E1,1.162563786E-1,7.187265903E-2,-9.512044489E-3
2.198147688E1,1.849001795E-1,1.739744246E-1,5.944591388E-2
2.200147688E1,1.619840115E-1,2.493726462E-1,1.154011711E-1
2.202147688E1,1.700823307E-1,1.832770258E-1,1.912880875E-2
2.204147688E1,1.976236254E-1,5.372123420E-2,-1.044928655E-1
2.206148000E1,1.475326866E-1,1.698205434E-2,-1.284213215E-1
2.208347688E1,3.899065405E-2,6.834709644E-2,-8.520697057E-2
2.210347688E1,5.312782153E-2,1.543220133E-1,2.169444226E-2
2.212347688E1,1.555437446E-1,1.478293836E-1,6.660176069E-2
2.214348156E1,1.585806161E-1,-3.483677283E-2,1.813396998E-2
2.216547688E1,1.684766263E-1,-9.393361956E-2,9.180432186E-3
2.218548469E1,2.357067168E-1,2.286381274E-1,9.251990169E-2
2.220747688E1,1.417381912E-1,5.783846378E-1,2.681000233E-1
2.222748313E1,-2.723935246E-1,5.070181563E-2,1.748645306E-1
2.224947688E1,-5.484347939E-1,-1.136802793E0,-1.819331199E-1
2.226948156E1,2.405063622E-2,-1.617640972E0,-2.534741759E-1
2.229147688E1,7.733728290E-1,-1.775209308E0,-1.591565758E-1
2.231147688E1,9.650797844E-1,-1.806415796E0,-1.715833247E-1
2.233147688E1,4.810999930E-1,-1.568230629E0,-2.758841813E-1
2.235147688E1,-3.591713011E-1,-1.497178316E0,-3.454181254E-1
2.237147688E1,-9.075013995E-1,-1.948503017E0,-5.742307901E-1
2.239147688E1,-8.597491980E-1,-2.131134272E0,-6.191381216E-1
2.241147688E1,-2.800904512E-1,-1.736794591E0,-9.203121066E-2
2.243147688E1,5.951572582E-2,-9.550790787E-1,1.612335145E-1
2.245147844E1,-6.754423957E-3,-6.452656984E-1,2.795144916E-1
2.247347688E1,-3.442138433E-1,-7.741582394E-1,1.716705859E-1
2.249348000E1,-3.899240196E-1,-9.353219271E-1,7.857472450E-2
2.251547688E1,-2.907194793E-1,-6.941698194E-1,8.796459436E-2
2.253547688E1,-3.616147637E-1,-4.743455946E-1,1.884606481E-1
2.255547688E1,-5.416978598E-1,-2.935643792E-1,3.050311804E-1
2.257548312E1,-6.953217387E-1,-1.551248580E-1,3.020292222E-1
2.259747688E1,-6.653195024E-1,-3.309667706E-1,1.479690075E-1
2.261748156E1,-4.253192842E-1,-9.253910184E-1,-3.316125646E-2
2.263947688E1,-4.261919558E-1,-1.726793885E0,-1.083849445E-1
2.265947844E1,-1.031594276E0,-2.082108021E0,-1.934522986E-1
2.268147688E1,-1.285871267E0,-1.955938101E0,-7.250097394E-2
2.270147844E1,-1.054510474E0,-1.942987800E0,1.442863643E-1
2.272347688E1,-7.529001236E-1,-2.511668444E0,2.806663811E-1
2.274347844E1,-8.481252789E-1,-3.765111446E0,3.346494436E-1
2.276548156E1,-1.061823368E0,-5.263930321E0,6.683214903E-1
2.278747688E1,-9.616414905E-1,-6.138148308E0,1.202619076E0
2.280748469E1,-9.495114684E-1,-5.754228115E0,1.853749156E0
2.282947688E1,-9.568244219E-1,-4.917220592E0,2.542333841E0
2.284948313E1,-7.356213927E-1,-4.044608593E0,3.200654507E0
2.287147688E1,-4.690921307E-1,-3.323682785E0,3.802287102E0
2.289148156E1,-1.446878016E-1,-2.877576590E0,4.299269676E0
2.291347844E1,2.472607940E-1,-2.468750715E0,4.739563942E0
2.293347844E1,4.902978837E-1,-1.929723263E0,4.938583851E0
2.295547688E1,5.015901923E-1,-1.042345524E0,4.923085213E0
2.297547688E1,4.211305082E-1,-1.842020452E-1,4.800929546E0
2.299547688E1,2.674019039E-1,4.783598483E-1,4.522444725E0
2.301547688E1,8.159413934E-2,6.928607821E-1,4.071748257E0
2.303547688E1,-1.058367640E-1,5.938482881E-1,3.540993690E0
2.305547688E1,-2.612932324E-1,3.656639159E-1,3.014829397E0
2.307547688E1,-3.938335478E-1,1.472708881E-1,2.541391373E0
2.309547688E1,-5.612106323E-1,6.510077976E-3,2.139895916E0
2.311548156E1,-6.554758549E-1,-3.583160788E-2,1.844306827E0
2.313747688E1,-5.365840197E-1,-7.480481267E-2,1.593468189E0
2.315748156E1,-3.923151195E-1,-1.139700040E-2,1.337620378E0
2.317947688E1,-5.544561744E-1,2.902482450E-1,1.041298389E0
2.319947688E1,-9.900380373E-1,2.374171317E-1,8.735373020E-1
2.321947688E1,-1.321388721E0,-3.218212724E-1,7.009766102E-1
2.323949875E1,-5.116432905E-1,2.759016454E-1,3.775670826E-1
2.326147688E1,1.818633080E-1,1.959132105E-1,-6.934891343E-1
2.328148625E1,2.977357209E-1,6.870663166E-1,-1.261663556E0
2.330348313E1,4.118278921E-1,5.771803856E-1,-2.050796747E0
2.332547688E1,6.798580885E-1,1.642529368E-1,-2.887542486E0
2.334547688E1,9.075711966E-1,-1.307600737E-1,-3.304798365E0
2.336547844E1,9.251641035E-1,-3.643200397E-1,-3.361958027E0
2.338747688E1,7.590611577E-1,-4.942772388E-1,-3.196378469E0
2.340747688E1,7.870562077E-1,-5.065469146E-1,-3.154804707E0
2.342747688E1,9.474694133E-1,-4.631754756E-1,-3.332304716E0
2.344747844E1,1.087759018E0,-2.461961508E-1,-3.493119478E0
2.346947688E1,1.088439703E0,8.419468254E-2,-3.605710506E0
2.348948156E1,9.279043078E-1,4.067838788E-1,-3.579548120E0
2.351147531E1,5.420469046E-1,6.925815344E-1,-3.452488184E0
2.353147688E1,1.868374944E-1,6.795613766E-1,-3.370981216E0
2.355147688E1,1.551248580E-1,4.126132727E-1,-3.256225824E0
2.357147688E1,4.310788810E-1,6.033603102E-2,-3.118327379E0
2.359147688E1,6.280393004E-1,-2.103296220E-1,-2.989714146E0
2.361147688E1,5.936388373E-1,-3.828030527E-1,-2.815669775E0
2.363147688E1,3.196395934E-1,-4.710992575E-1,-2.550048113E0
2.365347688E1,2.626720443E-2,-3.502352238E-1,-2.211244822E0
2.367347688E1,-1.059414819E-1,-2.676287889E-1,-1.852422595E0
2.369347688E1,-2.073451132E-1,-6.290166825E-2,-1.316170216E0
2.371347844E1,-2.797937393E-1,-8.534660190E-2,-7.512420416E-1
2.373547688E1,-2.990970612E-1,-1.620189101E-1,-1.808510125E-1
2.375547688E1,-1.979377866E-1,-2.149896622E-1,2.312735766E-1
2.377547688E1,-2.290395498E-1,-1.684940904E-1,5.605124831E-1
2.379548625E1,-6.196267605E-1,-1.235344037E-1,8.922297359E-1
2.381747688E1,-9.591456652E-1,-1.083674952E-1,1.373259902E0
2.383748000E1,-9.302430153E-1,5.026548356E-2,1.902967334E0
2.385947688E1,-7.623597980E-1,1.581617296E-1,2.329490900E0
2.387948156E1,-5.998871326E-1,2.072229385E-1,2.555144548E0
2.390147688E1,-4.002040029E-1,2.209063172E-1,2.834519386E0
2.392148625E1,-1.728399545E-1,2.458296269E-1,3.198664904E0
2.394347844E1,-1.154884398E-1,1.620712727E-1,3.532441616E0
2.396547688E1,-2.329316437E-1,7.428121567E-2,3.734446049E0
2.398547688E1,-3.413864076E-1,7.070329040E-2,3.821747541E0
2.400547688E1,-2.812249064E-1,5.284857005E-2,3.979455471E0
2.402547688E1,-1.190314516E-1,1.858775690E-2,4.198982716E0
2.404548312E1,1.656317525E-2,-4.468042869E-3,4.369134903E0
2.406747688E1,2.135061324E-1,3.946189582E-2,4.425753593E0
2.408748000E1,3.257831633E-1,1.317025423E-1,4.261762619E0
2.410947688E1,2.003637999E-1,2.973168492E-1,3.835238934E0
2.412947844E1,-7.949974388E-2,4.154930711E-1,3.326615095E0
2.415147688E1,-1.684766263E-1,2.927091718E-1,2.823349237E0
2.417147688E1,-8.534660190E-2,7.377506793E-2,2.380559206E0
2.419147688E1,-8.929104358E-2,-1.729970276E-1,1.842299700E0
2.421148156E1,-2.079559863E-1,-4.090528190E-1,1.236251593E0
2.423347688E1,-3.566754758E-1,-4.431391060E-1,5.612106323E-1
2.425347688E1,-3.959977627E-1,-4.773126543E-1,5.358160660E-2
2.427347688E1,-4.120373428E-1,-3.873060048E-1,-4.962669313E-1
2.429347688E1,-4.901757240E-1,-2.819230258E-1,-1.030791402E0
2.431347688E1,-5.781228542E-1,-1.756499410E-1,-1.290723324E0
2.433347688E1,-5.665687919E-1,-3.517012894E-1,-1.223755002E0
2.435348625E1,-5.400747061E-1,-8.358381987E-1,-1.438779593E0
2.437547688E1,-7.085687518E-1,-1.259272456E0,-2.233096361E0
2.439548000E1,-7.162656784E-1,-1.327637076E0,-2.921541452E0
2.441747688E1,-5.154306293E-1,-1.273915768E0,-3.297398090E0
2.443747688E1,-4.527035058E-1,-9.230173826E-1,-3.407022238E0
2.445747688E1,-3.923151195E-1,-2.022138536E-1,-3.466886997E0
2.447747688E1,-1.805019528E-1,7.132986188E-1,-3.593790054E0
2.449747688E1,2.665292323E-1,1.515277386E0,-3.438403368E0
2.451747688E1,1.037266612E0,1.440699458E0,-3.197460651E0
2.453747688E1,1.657504320E0,8.140215874E-1,-3.281009436E0
2.455747688E1,1.820448160E0,1.918291301E-1,-3.382186174E0
2.457748000E1,1.580901742E0,-2.497391552E-1,-3.408331394E0
2.459947688E1,1.046708822E0,-3.081204295E-1,-3.285250664E0
2.461948313E1,4.328940213E-1,-1.329242736E-1,-3.121364355E0
2.464147688E1,-2.031912357E-1,2.021091245E-2,-2.907997847E0
2.466147688E1,-5.500056148E-1,6.979571283E-2,-2.744582653E0
2.468147688E1,-7.294952869E-1,3.429571912E-2,-2.543922186E0
2.470148156E1,-7.374365330E-1,-2.443460980E-4,-2.236098289E0
2.472347688E1,-7.152359486E-1,-1.185776666E-1,-1.789555907E0
2.474347844E1,-7.020936012E-1,-3.137054741E-1,-1.328439951E0
2.476547688E1,-5.702340007E-1,-5.567949414E-1,-8.257152438E-1
2.478548000E1,-3.064972758E-1,-5.418898463E-1,-4.138001204E-1
2.480747688E1,-3.227113932E-2,-3.829950392E-1,-3.269001842E-2
2.482748156E1,2.617993741E-4,-5.375613924E-3,2.520080805E-1
2.484947688E1,-2.181836069E-1,4.596324563E-1,7.518529296E-1
2.486947844E1,-3.760835528E-1,5.759237409E-1,1.447087407E0
2.489147688E1,-2.421469837E-1,4.920955896E-1,2.182028055E0
2.491147688E1,8.393288404E-2,5.051506162E-1,2.642829895E0
2.493347844E1,3.396934271E-1,4.400847554E-1,2.959711790E0
2.495547688E1,3.177022934E-1,3.278775513E-1,3.221179724E0
2.497547688E1,4.293509945E-2,2.126858234E-1,3.461179972E0
2.499547688E1,-2.050587386E-1,6.426302344E-2,3.645312071E0
2.501547688E1,-2.569124699E-1,-6.614797749E-3,3.777817488E0
2.503547688E1,-4.249876738E-2,-7.745771110E-2,3.922505379E0
2.505547688E1,2.124589235E-1,-1.004262418E-1,4.123061180E0
2.507548156E1,2.978578806E-1,-2.949606394E-3,4.271361828E0
2.509747688E1,2.367888242E-1,2.057917714E-1,4.409713745E0
2.511748156E1,1.701696031E-2,4.699299037E-1,4.337858677E0
2.513947688E1,-2.648537159E-1,5.288696885E-1,4.050577641E0
2.515947688E1,-2.726728022E-1,3.411769569E-1,3.688421726E0
2.517947688E1,-1.743932962E-1,3.019419611E-1,3.197041750E0
2.519948469E1,-2.603507638E-1,4.577474892E-1,2.576542377E0
2.522147688E1,-4.787438214E-1,6.157696247E-1,1.944174647E0
2.524148000E1,-5.958554149E-1,7.499505281E-1,1.498033524E0
2.526347688E1,-5.189387202E-1,5.319938064E-1,1.065855145E0
2.528348312E1,-3.852290809E-1,3.773401678E-2,8.042302728E-1
2.530547688E1,-1.256986111E-1,-8.585623503E-1,5.245237947E-1
2.532547688E1,1.394169033E-1,-1.639352798E0,-3.089232836E-3
2.534547688E1,3.422241509E-1,-2.129511118E0,-7.226186395E-1
2.536548156E1,3.291690946E-1,-2.160857201E0,-1.299310327E0
2.538548312E1,1.921083927E-1,-1.785890698E0,-1.650226235E0
2.540747688E1,-1.386838555E-1,-1.138425946E0,-2.066051006E0
2.542747688E1,-4.109901190E-1,-6.833662391E-1,-2.652638674E0
2.544747844E1,-4.776966274E-1,-3.989124596E-1,-3.229312897E0
2.546947688E1,-4.835260212E-1,-3.409326077E-1,-3.558761120E0
2.548947688E1,-3.977954388E-1,-3.487342298E-1,-3.459539175E0
2.550947688E1,-1.895602047E-1,-2.551496923E-1,-3.293837786E0
2.552947688E1,1.333256960E-1,-9.482374042E-2,-3.311971664E0
2.554948000E1,4.254414439E-1,1.724908948E-1,-3.553193569E0
2.557147688E1,5.857848525E-1,5.296027064E-1,-3.967796564E0
2.559147688E1,5.096710324E-1,7.348359823E-1,-4.165804386E0
2.561147688E1,2.205921561E-1,8.288394213E-1,-4.108941555E0
2.563147688E1,9.930923581E-3,1.137989521E0,-4.029878139E0
2.565147688E1,-1.787217148E-2,1.487404466E0,-4.047156811E0
2.567348156E1,-1.168323383E-1,1.615180016E0,-4.089707851E0
2.569547688E1,-1.800656170E-1,1.549974561E0,-3.978390694E0
2.571548625E1,-1.273217648E-1,1.453841805E0,-3.733957291E0
2.573747688E1,3.752457909E-3,1.383225799E0,-3.371347666E0
2.575747688E1,-5.091125518E-2,1.304267049E0,-3.008912802E0
2.577747688E1,-2.920983136E-1,1.287162900E0,-2.493377447E0
2.579747688E1,-3.862762749E-1,1.133626223E0,-1.903822541E0
2.581747688E1,-1.133416817E-1,9.742078781E-1,-1.241505027E0
2.583747688E1,2.161415666E-1,7.045544982E-1,-8.030085564E-1
2.585747688E1,8.651597053E-2,6.158568859E-1,-4.533667266E-1
2.587747688E1,-6.417400837E-1,1.113712072E0,3.972369432E-2
2.589747844E1,-1.337986827E0,1.326746941E0,6.636788845E-1
2.591947688E1,-1.433910131E0,9.209927917E-1,1.137727737E0
2.593947844E1,-1.024141788E0,4.051258266E-1,1.375319481E0
2.596147688E1,-4.475547671E-1,-4.435754418E-1,1.551143885E0
2.598147844E1,-1.546187252E-1,-1.141567469E0,1.843888044E0
2.600347688E1,-8.033750206E-2,-1.781352878E0,2.245313644E0
2.602348469E1,-1.713215262E-1,-2.151764154E0,2.605724096E0
2.604547688E1,-4.232946932E-1,-2.138726473E0,2.949484348E0
2.606547688E1,-6.158394217E-1,-1.885531545E0,3.195348740E0
2.608547688E1,-6.811321974E-1,-1.683422446E0,3.355552673E0
2.610548000E1,-5.155528188E-1,-1.636036754E0,3.535740376E0
2.612747688E1,5.070181563E-2,-1.431449175E0,3.834191561E0
2.614747688E1,3.526263237E-1,-1.030773997E0,3.980537415E0
2.616747688E1,2.112371922E-1,-5.702165365E-1,3.966051340E0
2.618747688E1,-7.360053062E-2,-1.036900133E-1,3.888017654E0
2.620747688E1,-2.995508611E-1,2.282541543E-1,3.766560078E0
2.622748156E1,-3.845658600E-1,4.107981324E-1,3.723659992E0
2.624947688E1,-5.522570610E-1,4.888318181E-1,3.787748337E0
2.626947688E1,-6.100100279E-1,3.605326712E-1,3.785269976E0
2.628947688E1,-5.305801034E-1,1.895078421E-1,3.500798941E0
2.630949094E1,-4.542917609E-1,4.314453900E-2,3.086649656E0
2.633147688E1,-4.745375812E-1,-1.789835095E-1,2.700478077E0
2.635147688E1,-4.839797914E-1,-4.152138233E-1,2.376038790E0
2.637148469E1,-4.231899679E-1,-6.432934403E-1,1.705762625E0
2.639347844E1,-2.446777076E-1,-5.896595120E-1,6.562088728E-1
2.641348000E1,-2.636319697E-1,-4.573286176E-1,-2.015680820E-1
2.643547688E1,-2.447300702E-1,-6.569244862E-1,-1.025677681E0
2.645547688E1,-1.385267824E-1,-9.472250938E-1,-1.853801489E0
2.647547844E1,-1.029220670E-1,-1.050670743E0,-2.623543978E0
2.649548156E1,-1.135336682E-1,-8.193797469E-1,-3.250675678E0
2.651747688E1,-1.368687153E-1,-2.482556254E-1,-3.894178629E0
2.653747688E1,-8.546877652E-2,3.949854672E-1,-4.511047840E0
2.655747688E1,-1.225221157E-2,1.219147444E0,-4.941271305E0
2.657748156E1,1.171115935E-1,1.940875888E0,-5.133222580E0
2.659947688E1,3.620510995E-1,2.414663076E0,-5.206648827E0
2.661947688E1,5.979498029E-1,2.578654051E0,-5.243701935E0
2.663947688E1,7.171208858E-1,2.681576252E0,-5.168007374E0
2.665947688E1,7.842811346E-1,2.604991198E0,-4.870044708E0
2.667947688E1,9.472600222E-1,2.252295017E0,-4.427708149E0
2.669947688E1,1.168323398E0,1.826015830E0,-3.983556986E0
2.671948312E1,1.356434941E0,1.497509956E0,-3.511131287E0
2.674147688E1,1.402913094E0,1.269569993E0,-2.867261887E0
2.676147688E1,1.331895709E0,1.347551227E0,-2.481840849E0
2.678147688E1,1.229776382E0,1.412128448E0,-2.362093687E0
2.680147688E1,1.042415380E0,1.605039716E0,-2.124083042E0
2.682347688E1,5.213996768E-1,1.850816965E0,-1.540375233E0
2.684348469E1,-2.780309506E-2,2.512488604E0,-1.092768073E0
2.686547688E1,-1.137954649E-2,3.251199245E0,-8.748812079E-1
2.688547844E1,3.626095951E-1,3.525949001E0,-8.563632369E-1
2.690747688E1,2.113244683E-1,3.288357496E0,-8.957029581E-1
2.692747688E1,-8.260643482E-2,2.921192408E0,-8.689994216E-1
2.694747688E1,-3.172659576E-1,2.862741470E0,-9.594598413E-1
2.696747688E1,-4.128401875E-1,3.025528193E0,-7.717671394E-1
2.698747688E1,-2.692868412E-1,3.145449877E0,-3.293959796E-1
2.700747688E1,-4.328416660E-2,2.916113615E0,-9.690067917E-2
2.702748156E1,2.149372995E-1,2.350504637E0,-1.695238352E-1
2.704947688E1,2.088286430E-1,1.746917486E0,-2.312386781E-1
2.706948000E1,-7.923794910E-3,1.461538672E0,-9.164723754E-2
2.709147688E1,-1.371305138E-1,1.168183804E0,1.109854877E-1
2.711147688E1,-1.183682308E-1,9.362993240E-1,7.066838443E-2
2.713147688E1,-4.401720315E-2,6.274458766E-1,-7.588691264E-2
2.715148469E1,6.293657422E-2,2.566506565E-1,8.587019518E-3
2.717347688E1,2.808932960E-1,1.084722131E-1,3.555584848E-1
2.719347688E1,4.501727819E-1,-2.984512970E-2,4.967207015E-1
2.721347688E1,4.917290509E-1,-1.366418302E-1,3.858923018E-1
2.723347688E1,3.670427501E-1,-1.446354389E-1,1.559451669E-1
2.725347688E1,1.769938320E-1,-6.346017122E-2,4.303981736E-2
2.727347688E1,-4.728097096E-2,1.534144394E-2,-1.396263397E-4
2.729348312E1,-3.239330947E-1,6.792821735E-2,-2.075196430E-2
2.731547688E1,-5.135805607E-1,-6.894050539E-2,-3.193952516E-2
2.733548469E1,-2.928662598E-1,-1.100953668E-1,1.253146399E-2
2.735747844E1,-1.993165910E-2,1.905899495E-2,8.197811246E-2
2.737947688E1,-2.678905725E-1,1.132020578E-1,1.015083492E-1
2.739947688E1,-4.906818569E-1,-5.438445881E-2,1.206895187E-1
2.741947688E1,-3.793473244E-1,1.375319436E-2,1.235344037E-1
2.743947688E1,-2.572615445E-1,3.862588108E-1,1.498888731E-1
2.745948000E1,-5.436002612E-1,3.088185489E-1,1.502379477E-1
2.748147688E1,-8.729788065E-1,-1.504473854E-2,1.096764877E-1
2.750147688E1,-8.097978830E-1,-2.373996824E-1,1.310393214E-1
2.752147688E1,-5.595525503E-1,-3.786142766E-1,2.705085874E-1
2.754147688E1,-6.535734534E-1,-5.618214607E-1,3.903428912E-1
2.756147688E1,-1.214679360E0,-1.044736624E0,1.992293298E-1
2.758147688E1,-1.441275477E0,-1.485554457E0,3.518583626E-2
2.760147688E1,-1.284422755E0,-1.902304173E0,6.469935179E-2
2.762147688E1,-7.783994079E-1,-2.478576899E0,3.003013432E-1
2.764148000E1,-4.572762642E-3,-3.033417225E0,4.800004363E-1
2.766347688E1,6.571164727E-1,-3.592760324E0,3.872187436E-1
2.768348000E1,3.926467299E-1,-3.762528419E0,2.023709267E-1
2.770348156E1,-5.390449166E-1,-3.518252134E0,9.110618383E-2
2.772548000E1,-1.173524499E0,-3.195052147E0,9.494591504E-3
2.774747688E1,-9.858143330E-1,-2.945679426E0,3.159045940E-3
2.776747688E1,-5.831843019E-1,-2.760150909E0,3.850196302E-2
2.778747688E1,-3.302686512E-1,-2.648659229E0,1.630486548E-1
2.780748312E1,-2.686759830E-1,-2.840767622E0,4.288099408E-1
2.782947688E1,-3.815638721E-1,-3.371469975E0,9.272759557E-1
2.784947844E1,-5.942671299E-1,-3.885067940E0,1.524998903E0
2.786947844E1,-8.011759520E-1,-4.289669991E0,2.212553978E0
2.789148156E1,-8.598887920E-1,-4.620148182E0,3.038705587E0
2.791347688E1,-6.685134768E-1,-4.721063137E0,3.805271626E0
2.793349094E1,-3.460987806E-1,-4.531590462E0,4.204480648E0
2.795547688E1,-1.110029370E-1,-4.120879650E0,4.310265064E0
2.797547688E1,1.753183156E-1,-3.463134766E0,4.199105263E0
2.799547688E1,7.432659268E-1,-2.712189198E0,4.091156483E0
2.801548469E1,1.423089147E0,-1.762677789E0,3.737256050E0
2.803747688E1,2.007128716E0,-6.350380182E-1,3.200357914E0
2.805748156E1,2.096227646E0,3.818082213E-1,2.646303177E0
2.807947688E1,1.647067189E0,1.254542708E0,2.139459610E0
2.809948313E1,1.126243472E0,1.828232408E0,1.864971519E0
2.812147688E1,6.356838346E-1,2.245540619E0,1.747371316E0
2.814147688E1,3.446152508E-1,2.366718769E0,1.819575548E0
2.816147688E1,2.046224028E-1,2.245051861E0,1.971262097E0
2.818148313E1,1.495223492E-1,1.916807890E0,2.081881046E0
2.820347688E1,8.970992267E-2,1.475379229E0,2.023133278E0
2.822348469E1,6.832963973E-2,1.093623281E0,1.869474530E0
2.824547688E1,-7.459536940E-2,9.516233206E-1,1.742554188E0
2.826548469E1,-3.277902901E-1,9.262112975E-1,1.632004976E0
2.828747688E1,-4.950277209E-1,7.374539375E-1,1.383714437E0
2.830747688E1,-5.425705314E-1,4.433834553E-1,1.036516190E0
2.832747688E1,-5.703735948E-1,2.099281996E-1,6.618114114E-1
2.834747844E1,-5.645267367E-1,4.900884628E-2,2.815041542E-1
2.836947688E1,-4.478863776E-1,-7.826056331E-2,-1.656841040E-1
2.838948469E1,-2.956936955E-1,-2.067167908E-1,-5.942497253E-1
2.841147688E1,-1.650208831E-1,-3.020117581E-1,-9.320407510E-1
2.843148000E1,-6.736970693E-2,-3.604454100E-1,-1.170382857E0
2.845347688E1,3.883357719E-2,-4.416206479E-1,-1.524056435E0
2.847347688E1,9.550441802E-2,-4.396658838E-1,-2.068058014E0
2.849347688E1,7.161086053E-2,-3.017674387E-1,-2.684438467E0
2.851348469E1,4.633849114E-2,-2.951351739E-2,-2.911401272E0
2.853547688E1,1.287180334E-1,1.134638563E-1,-2.705138206E0
2.855548156E1,2.684141994E-1,-8.386307210E-2,-2.600941896E0
2.857747688E1,4.484274387E-1,-4.890238047E-1,-2.847033501E0
2.859747688E1,6.312332153E-1,-7.647334337E-1,-3.147177696E0
2.861747688E1,7.391992807E-1,-8.729613423E-1,-3.238947153E0
2.863748156E1,7.929554582E-1,-7.570365667E-1,-3.155729771E0
2.865947688E1,9.205390215E-1,-5.723632574E-1,-3.039316416E0
2.867948312E1,1.086729288E0,-4.665788710E-1,-3.066491127E0
2.870147688E1,1.247840643E0,-4.419522583E-1,-3.167545795E0
2.872147688E1,1.304232240E0,-4.492652118E-1,-3.222977400E0
2.874147688E1,1.190506577E0,-4.601735175E-1,-3.170757055E0
2.876147688E1,9.718167782E-1,-4.771904647E-1,-3.048392057E0
2.878147688E1,7.228979468E-1,-5.219057798E-1,-2.889968634E0
2.880147688E1,4.339586496E-1,-5.757666826E-1,-2.738613605E0
2.882148156E1,1.732588410E-1,-6.069382429E-1,-2.610174894E0
2.884347688E1,-3.424336016E-2,-6.137101054E-1,-2.430301189E0
2.886348313E1,-1.565036774E-1,-5.461484194E-1,-2.199010134E0
2.888547844E1,-2.927789688E-1,-4.236612320E-1,-1.852806568E0
2.890548938E1,-4.496666193E-1,-3.246836066E-1,-1.492186666E0
2.892747688E1,-6.074269414E-1,-2.872288227E-1,-1.006566286E0
2.894747688E1,-6.487214565E-1,-2.299994826E-1,-4.922526479E-1
2.896747688E1,-5.535660982E-1,-1.363451183E-1,1.171290427E-1
2.898748156E1,-3.303908408E-1,-4.363323003E-2,7.441909313E-1
2.900947688E1,-2.905798554E-1,-2.792526793E-4,1.365999341E0
2.902948781E1,-5.144706964E-1,-1.654572040E-2,1.938345194E0
2.905147688E1,-5.249077678E-1,-4.431391135E-2,2.486291409E0
2.907147688E1,-1.903107017E-1,4.248131439E-2,2.773380518E0
2.909147688E1,1.295906901E-1,9.166469425E-2,2.825007439E0
2.911148156E1,1.769763827E-1,9.456194192E-2,2.928889275E0
2.913347688E1,-5.661848187E-2,5.330235511E-2,3.285337925E0
2.915347844E1,-3.683342934E-1,3.026400879E-2,3.655958652E0
2.917547688E1,-6.770306826E-1,1.804146916E-1,3.896971226E0
2.919547688E1,-8.676555157E-1,4.543441236E-1,3.967534781E0
2.921547844E1,-7.417998314E-1,6.903475523E-1,3.964742184E0
2.923548625E1,-2.545388043E-1,8.369027972E-1,3.963939428E0
2.925747688E1,2.464928478E-1,9.875247478E-1,3.914756060E0
2.927748469E1,4.400149584E-1,1.012029171E0,3.712472439E0
2.929947844E1,5.202826262E-1,9.508728385E-1,3.360788584E0
2.931948312E1,5.724156499E-1,7.729365230E-1,3.000185966E0
2.934147688E1,4.560196400E-1,6.523691416E-1,2.573016644E0
2.936148156E1,1.690700501E-1,6.552664042E-1,2.258473396E0
2.938347844E1,-1.809906363E-1,6.916739941E-1,1.935186148E0
2.940347844E1,-4.203450978E-1,6.327691078E-1,1.555053473E0
2.942547688E1,-6.193824410E-1,5.012585521E-1,1.052660465E0
2.944547688E1,-7.608413696E-1,3.781954050E-1,6.706951261E-1
2.946547844E1,-8.281587362E-1,3.387160599E-1,5.320985317E-1
2.948548000E1,-7.951719761E-1,2.821324766E-1,6.080029011E-1
2.950747688E1,-6.689323187E-1,6.375687569E-2,6.289468408E-1
2.952748156E1,-5.299168825E-1,-2.143962383E-1,3.811798990E-1
2.954947688E1,-2.619564533E-1,-4.646241069E-1,-2.853613347E-2
2.956948156E1,1.536587924E-1,-7.031233311E-1,-2.951700687E-1
2.959147844E1,6.343747973E-1,-1.026550293E0,-7.831466794E-1
2.961347688E1,9.249372482E-1,-1.352682471E0,-1.492378712E0
2.963347844E1,9.802117944E-1,-1.561162114E0,-2.092736959E0
2.965347844E1,9.119694233E-1,-1.643175125E0,-2.515455723E0
2.967347844E1,7.670372725E-1,-1.620119333E0,-2.746327877E0
2.969348000E1,6.509031057E-1,-1.490214467E0,-2.913321018E0
2.971547688E1,6.364168525E-1,-1.241819263E0,-3.194633245E0
2.973548469E1,5.980893970E-1,-9.708045125E-1,-3.542337656E0
2.975747688E1,4.161039591E-1,-6.352649331E-1,-3.835867167E0
2.977747688E1,1.868374944E-1,-3.416307569E-1,-3.930516481E0
2.979747688E1,-2.617993858E-3,-1.624203324E-1,-3.936136246E0
2.981748469E1,-1.435009688E-1,-1.429948211E-1,-3.923430443E0
2.983947688E1,-3.109478652E-1,-2.098234892E-1,-3.857945681E0
2.985947844E1,-5.097932220E-1,-2.631258368E-1,-3.768549919E0
2.987947844E1,-6.729815006E-1,-2.555336654E-1,-3.641018629E0
2.990148313E1,-7.916464210E-1,-2.475924045E-1,-3.403793573E0
2.992347844E1,-7.869514823E-1,-3.224670291E-1,-3.095166922E0
2.994348625E1,-6.986727715E-1,-4.260348678E-1,-2.745961428E0
2.996547844E1,-5.972167850E-1,-5.127428174E-1,-2.323626757E0
2.998547844E1,-5.463404059E-1,-5.563411713E-1,-1.881011128E0
3.000747688E1,-4.657061994E-1,-5.755921602E-1,-1.341721892E0
3.002747688E1,-3.217863441E-1,-4.061555564E-1,-8.854578733E-1
3.004747688E1,-1.300270259E-1,-1.415985674E-1,-4.902629852E-1
3.006747688E1,-3.714060783E-2,1.878846884E-1,-9.096655995E-2
3.008747688E1,-1.329940856E-1,4.847303033E-1,4.692841172E-1
3.010748000E1,-2.250427604E-1,5.177170038E-1,1.214382648E0
3.012947688E1,-3.534291685E-2,5.253790021E-1,1.981489778E0
3.014948156E1,3.000569940E-1,6.485294700E-1,2.442274094E0
3.017147688E1,4.652000666E-1,7.939851880E-1,2.689831734E0
3.019148312E1,4.443782866E-1,7.759908438E-1,2.888327837E0
3.021347844E1,3.103544414E-1,5.927312374E-1,3.135483980E0
3.023348469E1,9.510298818E-2,4.979075193E-1,3.322897434E0
3.025547844E1,-3.108955026E-1,6.610783339E-1,3.395974398E0
3.027747844E1,-7.080626488E-1,8.746193647E-1,3.457444906E0
3.029948469E1,-6.996850371E-1,9.017243385E-1,3.651054144E0
3.032147688E1,-4.197866023E-1,1.008276701E0,3.891194105E0
3.034148313E1,-5.301263332E-1,1.279553175E0,3.991934538E0
3.036347844E1,-9.724625349E-1,1.577271461E0,3.936921835E0
3.038348156E1,-1.197103858E0,1.592490792E0,3.797836542E0
3.040547844E1,-1.205673456E0,1.563745141E0,3.468388081E0
3.042548156E1,-1.252465725E0,1.553517580E0,3.062895775E0
3.044747688E1,-1.270983696E0,1.433037519E0,2.587468147E0
3.046747688E1,-9.639278650E-1,1.155896664E0,2.200877666E0
3.048747844E1,-5.176297426E-1,8.419119120E-1,1.829541326E0
3.050947688E1,-2.098758370E-1,6.093991399E-1,1.354619861E0
3.052947844E1,-1.583362669E-1,5.116083622E-1,9.867393374E-1
3.055147844E1,-1.135511175E-1,3.945316672E-1,6.030112505E-1
3.057348625E1,-3.666936606E-2,2.001543641E-1,1.296779662E-1
3.059547688E1,-2.230530791E-2,1.984613836E-1,-3.841295242E-1
3.061548312E1,-8.091346174E-2,2.395638973E-1,-8.712683320E-1
3.063747844E1,-1.323134154E-1,6.478662044E-2,-1.148967743E0
3.065747844E1,2.773328125E-2,-3.878645301E-1,-1.324059129E0
3.067947688E1,3.262718618E-1,-1.137658000E0,-1.705710292E0
3.069947688E1,6.107430458E-1,-1.784319878E0,-2.233375549E0
3.071947688E1,8.668003082E-1,-2.249188423E0,-2.729660034E0
3.073948000E1,1.028889060E0,-2.467214823E0,-2.960951090E0
3.076147844E1,1.178219438E0,-2.472485781E0,-2.915642262E0
3.078148312E1,1.378007293E0,-2.233358145E0,-2.816507578E0
3.080347688E1,1.571110487E0,-1.784093022E0,-2.804115772E0
3.082348156E1,1.616157413E0,-1.345229983E0,-2.916131020E0
3.084547688E1,1.478712797E0,-8.915665150E-1,-3.100420237E0
3.086548312E1,1.149246931E0,-5.522919893E-1,-3.266191721E0
3.088747844E1,5.706528425E-1,-2.428276539E-1,-3.343911171E0
3.090947688E1,-2.897246554E-2,-1.429599226E-1,-3.321064949E0
3.092947688E1,-3.831346631E-1,-1.728574038E-1,-3.289718628E0
3.094947844E1,-5.354321003E-1,-3.140545487E-1,-3.272998571E0
3.097148000E1,-5.558000803E-1,-5.052553415E-1,-3.152099609E0
3.099347688E1,-5.056567788E-1,-7.231073380E-1,-2.930268288E0
3.101347844E1,-4.736300111E-1,-8.414406776E-1,-2.649898529E0
3.103547688E1,-4.803320765E-1,-7.769856453E-1,-2.199917793E0
3.105547688E1,-4.235041440E-1,-6.605373025E-1,-1.636717439E0
3.107547688E1,-3.222401440E-1,-4.987627268E-1,-1.023583293E0
3.109547688E1,-2.158972323E-1,-2.295806110E-1,-4.830198586E-1
3.111547688E1,-1.481784582E-1,2.462659627E-1,-1.121374071E-1
3.113547688E1,-1.939584464E-1,7.902851105E-1,2.832669318E-1
3.115547844E1,-4.298920333E-1,1.075175166E0,8.914094567E-1
3.117747688E1,-5.957332253E-1,9.290736914E-1,1.690351367E0
3.119747688E1,-4.343775511E-1,7.563035488E-1,2.251369953E0
3.121747688E1,-1.462585926E-1,5.919632912E-1,2.562160730E0
3.123748000E1,1.298524886E-1,4.929333329E-1,2.709222317E0
3.125947688E1,4.359308779E-1,4.239230156E-1,2.799124241E0
3.127948156E1,7.344694734E-1,4.778187871E-1,2.915869236E0
3.130147688E1,7.126877308E-1,4.914672673E-1,3.054221392E0
3.132147688E1,3.509333432E-1,6.191555262E-1,3.264428854E0
3.134147844E1,6.684611086E-3,8.215613961E-1,3.600422144E0
3.136348469E1,-7.332128286E-2,9.683959484E-1,3.849899530E0
3.138547844E1,8.817403018E-2,1.085559845E0,3.839968681E0
3.140547844E1,9.625490755E-2,1.085786819E0,3.678822517E0
3.142747844E1,-9.183922410E-2,1.041926622E0,3.488441944E0
3.144947688E1,-3.513173163E-1,9.427919388E-1,3.376322031E0
3.146948156E1,-5.946860313E-1,8.175646067E-1,3.176970482E0
3.149147688E1,-9.007120728E-1,6.704333425E-1,2.790449858E0
3.151148156E1,-1.054126501E0,5.222199559E-1,2.442361355E0
3.153347844E1,-9.432631731E-1,3.103719056E-1,2.110015869E0
3.155348313E1,-6.382494569E-1,1.111774743E-1,1.799940586E0
3.157547844E1,-2.903529704E-1,-1.030093357E-1,1.464959502E0
3.159548312E1,2.996730246E-2,-2.663896084E-1,1.186963558E0
3.161747688E1,1.998402029E-1,-3.907966614E-1,8.688423634E-1
3.163748156E1,1.650383323E-1,-4.789358079E-1,5.198812485E-1
3.165947844E1,1.082627699E-1,-4.649208188E-1,4.986405745E-2
3.168147531E1,8.600982279E-2,-4.746772051E-1,-4.217239022E-1
3.170147688E1,1.378984600E-1,-7.488509417E-1,-7.216587663E-1
3.172147688E1,2.016204298E-1,-1.212061405E0,-1.180767536E0
3.174147688E1,1.745329201E-1,-1.675044894E0,-1.832630634E0
3.176148312E1,4.303981736E-2,-1.918483377E0,-2.535212994E0
3.178347688E1,-1.393645406E-1,-1.905358434E0,-3.179274321E0
3.180348313E1,-2.590941191E-1,-1.692829728E0,-3.528916121E0
3.182547688E1,-2.364921123E-1,-1.284963727E0,-3.742457151E0
3.184547844E1,-4.183554277E-2,-8.746019602E-1,-3.866549969E0
3.186747688E1,2.353751063E-1,-4.820773900E-1,-4.026404858E0
3.188747688E1,3.757519424E-1,-1.872040182E-1,-4.211618900E0
3.190747688E1,3.713362515E-1,6.595598906E-2,-4.324088097E0
3.192748313E1,2.116909772E-1,2.633003592E-1,-4.216122150E0
3.194947688E1,-6.051056460E-2,3.521725237E-1,-3.912522078E0
3.196948000E1,-2.988178134E-1,2.728124261E-1,-3.630756140E0
3.199147688E1,-4.729493260E-1,7.616616786E-2,-3.405241966E0
3.201147688E1,-5.101771951E-1,-1.911484599E-1,-3.241338253E0
3.203347688E1,-4.980820715E-1,-4.611334503E-1,-3.006190062E0
3.205347688E1,-4.369955361E-1,-6.808704138E-1,-2.668451309E0
3.207347688E1,-3.379131854E-1,-8.079128861E-1,-2.233881712E0
3.209347688E1,-2.613281608E-1,-8.185245395E-1,-1.758244634E0
3.211347844E1,-2.457598150E-1,-7.054446340E-1,-1.275312066E0
3.213547844E1,-2.850471735E-1,-3.857003152E-1,-8.163253665E-1
3.215747688E1,-2.471909821E-1,4.686209187E-2,-2.798810005E-1
3.217748000E1,-7.346090674E-2,3.278426528E-1,3.297450542E-1
3.219947688E1,2.584832534E-2,4.310788810E-1,1.067775011E0
3.221947688E1,-1.471312530E-2,3.113143742E-1,1.823746920E0
3.223948781E1,2.602635026E-1,1.677086800E-1,2.473079205E0
3.226147844E1,8.396255374E-1,1.753532290E-1,2.785632849E0
3.228347844E1,1.248451471E0,2.561270595E-1,2.696847916E0
3.230347844E1,1.239410639E0,3.466922045E-1,2.476901531E0
3.232548625E1,8.218231797E-1,4.449193180E-1,2.469082355E0
3.234747844E1,1.845860183E-1,5.052902699E-1,2.696167231E0
3.236748469E1,-3.517362177E-1,5.245935917E-1,2.945819139E0
3.238947844E1,-5.615422130E-1,5.318890810E-1,3.159168005E0
3.241147688E1,-3.965562582E-1,5.886297226E-1,3.339111567E0
3.243147688E1,-1.603783071E-1,6.581636667E-1,3.491356611E0
3.245147688E1,-1.645845547E-2,7.608413696E-1,3.625555038E0
3.247147688E1,-1.188569237E-2,1.000946283E0,3.763017178E0
3.249147844E1,-9.786061198E-2,1.248887777E0,3.823562622E0
3.251347844E1,-2.797413766E-1,1.356941104E0,3.758409500E0
3.253348000E1,-4.927937090E-1,1.330377221E0,3.611854076E0
3.255547688E1,-6.865601540E-1,1.266183972E0,3.363703251E0
3.257548000E1,-7.311009765E-1,1.110413432E0,3.009732962E0
3.259747688E1,-4.963367283E-1,7.877020240E-1,2.564028263E0
3.261748000E1,-1.328719109E-1,4.020365775E-1,2.103523254E0
3.263947688E1,1.639213264E-1,1.583013684E-2,1.497073650E0
3.265947844E1,3.195523322E-1,-2.187421173E-1,9.481675625E-1
3.267947844E1,3.322932422E-1,-3.105987906E-1,3.619114757E-1
3.269948156E1,1.789136976E-1,-2.476098537E-1,-2.945243120E-1
3.272147688E1,-1.186125726E-1,1.687733456E-2,-9.841911793E-1
3.274148156E1,-4.031884968E-1,3.182258904E-1,-1.403157473E0
3.276347688E1,-4.128576219E-1,3.697479963E-1,-1.529379606E0
3.278349094E1,-1.341809183E-1,7.075564563E-2,-1.701591253E0
3.280547688E1,1.871342063E-1,-4.811523557E-1,-2.244423628E0
3.282548313E1,3.266732693E-1,-9.144652486E-1,-2.833873749E0
3.284747844E1,3.326772153E-1,-1.221171975E0,-3.271148443E0
3.286947688E1,2.778389752E-1,-1.338388324E0,-3.340996504E0
3.288947844E1,3.631331921E-1,-1.396263361E0,-3.208054781E0
3.291147688E1,6.281614304E-1,-1.482255816E0,-3.150127411E0
3.293147844E1,8.563807011E-1,-1.470701694E0,-3.269385576E0
3.295347844E1,8.726995587E-1,-1.304546356E0,-3.483432770E0
3.297348469E1,6.186668873E-1,-1.011470675E0,-3.605920076E0
3.299547688E1,1.425585002E-1,-5.991889834E-1,-3.584452391E0
3.301548000E1,-2.930058837E-1,-3.350334167E-1,-3.482734680E0
3.303747688E1,-5.522919893E-1,-2.743657529E-1,-3.423271418E0
3.305748469E1,-5.735326409E-1,-3.943746090E-1,-3.364541054E0
3.307947688E1,-5.169665217E-1,-6.212673783E-1,-3.246870995E0
3.309947844E1,-4.394913614E-1,-7.759908438E-1,-3.039159298E0
3.312147844E1,-4.339761138E-1,-8.314225078E-1,-2.749417067E0
3.314347844E1,-5.449790359E-1,-6.736097932E-1,-2.411067724E0
3.316548156E1,-7.607191801E-1,-2.171364129E-1,-1.989867330E0
3.318548313E1,-8.830842376E-1,2.983116806E-1,-1.432723284E0
3.320747844E1,-7.749087214E-1,7.873354554E-1,-7.586597204E-1
3.322947844E1,-5.929581523E-1,1.120379210E0,-1.587376893E-1
3.324947844E1,-6.773273945E-1,1.393401027E0,4.026648998E-1
3.327147688E1,-8.901528120E-1,1.275853157E0,1.219705939E0
3.329147688E1,-7.401941419E-1,8.629605770E-1,1.940875888E0
3.331147688E1,-2.510132492E-1,6.049136519E-1,2.412376642E0
3.333147844E1,1.522799730E-1,5.216963887E-1,2.630001783E0
3.335347688E1,1.966113448E-1,5.545085669E-1,2.710164785E0
3.337348156E1,-5.496041849E-2,6.169215441E-1,2.803155899E0
3.339547688E1,-4.983264208E-1,6.881309748E-1,2.960602045E0
3.341547688E1,-8.279842138E-1,6.647784710E-1,3.084799528E0
3.343547688E1,-9.435948133E-1,6.192951798E-1,3.261793375E0
3.345548000E1,-8.813563585E-1,6.100798249E-1,3.528776407E0
3.347747688E1,-5.394463539E-1,6.567848325E-1,3.869359970E0
3.349748312E1,-2.946639359E-1,7.756243348E-1,3.979769468E0
3.351947844E1,-5.294107199E-1,9.695827365E-1,3.859324455E0
3.354147688E1,-8.531693220E-1,1.064598441E0,3.747466326E0
3.356147688E1,-9.302954078E-1,1.102419734E0,3.685210228E0
3.358147688E1,-1.102315068E0,1.122473598E0,3.499105930E0
3.360147688E1,-1.420104623E0,1.037790179E0,3.153513193E0
3.362148313E1,-1.469392657E0,7.450985312E-1,2.752227068E0
3.364347688E1,-1.112752080E0,3.107384145E-1,2.275647640E0
3.366347844E1,-6.643421054E-1,4.178318381E-2,1.718573332E0
3.368547688E1,-1.555786431E-1,-3.383669853E-1,1.081894636E0
3.370547688E1,1.815491468E-1,-7.124259472E-1,5.951747298E-1
3.372547688E1,-4.113740847E-2,-1.302556634E0,3.131818771E-1
3.374548000E1,-5.966058969E-1,-2.012992859E0,1.755103022E-1
3.376747688E1,-8.617563248E-1,-1.973408818E0,-8.862782270E-2
3.378748625E1,-5.605822802E-1,-9.709091783E-1,-5.953841805E-1
3.380949250E1,-1.494700015E-1,4.094193280E-1,-1.565560341E0
3.383147688E1,1.748296320E-1,1.073063374E0,-2.785527945E0
3.385147688E1,6.169913411E-1,9.858666658E-1,-3.557033300E0
3.387147844E1,9.970542192E-1,4.247433245E-1,-3.749368668E0
3.389147844E1,1.069328308E0,-2.460739762E-1,-3.637650013E0
3.391148469E1,9.582729936E-1,-6.823364496E-1,-3.594610214E0
3.393347688E1,8.773246408E-1,-7.687128186E-1,-3.703501463E0
3.395348313E1,7.592880130E-1,-5.165302157E-1,-3.795480251E0
3.397547688E1,4.724606276E-1,-5.860815570E-2,-3.674546480E0
3.399547688E1,3.310540617E-1,4.043229818E-1,-3.340176105E0
3.401547688E1,3.397981524E-1,6.339035630E-1,-2.996538401E0
3.403547688E1,3.941302598E-1,6.487912536E-1,-2.727792501E0
3.405547688E1,3.754901290E-1,5.839347839E-1,-2.521162987E0
3.407547688E1,2.752035260E-1,5.067039728E-1,-2.399356365E0
3.409547688E1,1.272170544E-1,3.676710725E-1,-2.374572754E0
3.411547688E1,1.158898603E-2,1.619840115E-1,-2.362756968E0
3.413548000E1,-1.380555425E-2,-8.332201838E-2,-2.329595566E0
3.415747688E1,9.749408811E-2,-3.992091715E-1,-2.219552755E0
3.417748000E1,2.576455176E-1,-6.039013863E-1,-2.059767723E0
3.419947688E1,3.169867098E-1,-7.122514248E-1,-1.832037210E0
3.421948156E1,2.942624986E-1,-7.537902594E-1,-1.555350184E0
3.423948625E1,2.930233181E-1,-6.723532081E-1,-1.256689429E0
3.426147844E1,4.196469784E-1,-4.538903236E-1,-9.170134664E-1
3.428347688E1,5.671970844E-1,-1.411447823E-1,-5.651026964E-1
3.430348000E1,4.553563893E-1,2.132268697E-1,-1.572890729E-1
3.432547688E1,8.328711241E-2,4.838750660E-1,5.636017323E-1
3.434547688E1,-1.326450263E-3,5.787162781E-1,1.294021964E0
3.436547688E1,1.590518504E-1,5.351179242E-1,1.804984570E0
3.438548156E1,3.203551769E-1,4.330510795E-1,2.009659290E0
3.440747688E1,3.392221928E-1,3.064449131E-1,2.063537598E0
3.442748469E1,1.710946262E-1,2.090729922E-1,2.197910547E0
3.444947688E1,-1.928937882E-1,2.223898470E-1,2.491248131E0
3.446948156E1,-5.644744039E-1,3.184702396E-1,2.798443556E0
3.449147688E1,-6.228556633E-1,4.476420581E-1,3.141278505E0
3.451147688E1,-4.486892521E-1,4.344299138E-1,3.426378012E0
3.453147688E1,-3.079633415E-1,3.456450105E-1,3.661735773E0
3.455147688E1,-1.869945824E-1,3.455926478E-1,3.920323610E0
3.457147688E1,-1.318945289E-1,4.783598483E-1,4.121245861E0
3.459147844E1,-2.589893937E-1,5.515065789E-1,4.141421795E0
3.461347688E1,-5.373519659E-1,4.753927886E-1,4.074453831E0
3.463347688E1,-7.596719861E-1,3.755773902E-1,3.949714899E0
3.465347844E1,-9.741729498E-1,4.004134238E-1,3.709191084E0
3.467547688E1,-1.159422159E0,3.515791297E-1,3.271829128E0
3.469547688E1,-1.029848933E0,4.811872914E-2,2.773572445E0
3.471547688E1,-7.526383400E-1,-3.414736688E-1,2.211035490E0
3.473547688E1,-6.563833952E-1,-6.100274920E-1,1.628985643E0
3.475547688E1,-6.356139779E-1,-6.928607821E-1,1.221346498E0
3.477547688E1,-4.906818569E-1,-7.035945654E-1,9.661095738E-1
3.479547688E1,-2.898468375E-1,-7.080277205E-1,6.500478983E-1
3.481547688E1,-1.418080032E-1,-5.903401375E-1,6.236061454E-2
3.483547844E1,-4.963716492E-2,-4.835434556E-1,-5.369330645E-1
3.485747844E1,1.728923172E-1,-5.000019073E-1,-8.711287379E-1
3.487947688E1,5.450139642E-1,-7.360926270E-1,-1.062731028E0
3.489948000E1,7.962540984E-1,-1.073150635E0,-1.527302742E0
3.492147688E1,8.727169633E-1,-1.263827801E0,-2.278806686E0
3.494147688E1,7.434579134E-1,-1.266567945E0,-2.932397366E0
3.496147688E1,5.481904745E-1,-1.086851478E0,-3.394263983E0
3.498147688E1,4.492128491E-1,-7.708421350E-1,-3.691004753E0
3.500147688E1,5.038067698E-1,-4.088957310E-1,-3.915332079E0
3.502147688E1,5.718222260E-1,-6.258750707E-2,-4.149694920E0
3.504147688E1,5.851216316E-1,2.044653147E-1,-4.331854820E0
3.506147688E1,5.438620448E-1,3.731862903E-1,-4.441147327E0
3.508147688E1,4.884129465E-1,4.083023369E-1,-4.452178001E0
3.510147688E1,3.815988004E-1,3.624001741E-1,-4.301782608E0
3.512147688E1,2.679952979E-1,1.718102098E-1,-4.062096596E0
3.514148156E1,2.301042080E-1,-7.693411410E-2,-3.776386261E0
3.516347688E1,2.719222903E-1,-4.067140818E-1,-3.452767372E0
3.518348312E1,3.265511096E-1,-6.613575816E-1,-3.145781517E0
3.520547688E1,2.954667807E-1,-7.480131984E-1,-2.784847260E0
3.522548000E1,1.418254524E-1,-7.047639489E-1,-2.391240597E0
3.524747844E1,-9.337511659E-2,-5.415931344E-1,-1.905794859E0
3.526947688E1,-2.231228948E-1,-2.965838015E-1,-1.370205641E0
3.528947688E1,-2.386563271E-1,-1.304109991E-1,-8.731184006E-1
3.530949094E1,-1.525941342E-1,-2.963569015E-2,-3.193254471E-1
3.533148156E1,1.500983140E-3,-1.602212340E-2,3.337942064E-1
3.535347688E1,1.011941880E-1,-2.754129469E-2,1.013023973E0
3.537348000E1,-1.495747175E-2,-7.737044245E-2,1.594689846E0
3.539547688E1,-1.064999923E-1,-1.741838604E-1,2.150681973E0
3.541548000E1,2.720968239E-2,-1.161865667E-1,2.465940714E0
3.543747688E1,2.214997411E-1,5.593780056E-2,2.620629311E0
3.545747688E1,2.147976756E-1,2.816437781E-1,2.674228430E0
3.547747688E1,4.323180392E-2,4.674864411E-1,2.824571133E0
3.549748625E1,-1.788438857E-1,5.834984779E-1,3.115674496E0
3.551947688E1,-3.625397980E-1,6.582509279E-1,3.436308861E0
3.553948313E1,-4.877671599E-1,7.627437711E-1,3.613529682E0
3.556147688E1,-6.361550689E-1,8.833460212E-1,3.734166861E0
3.558148000E1,-6.111444831E-1,9.136100411E-1,3.878732443E0
3.560347688E1,-3.341083825E-1,8.994030952E-1,4.032373905E0
3.562348312E1,-1.352455616E-1,9.466316700E-1,4.101296902E0
3.564547688E1,-2.417804599E-1,9.737366438E-1,4.045166969E0
3.566547844E1,-3.967133462E-1,9.610480666E-1,3.965684652E0
3.568747688E1,-4.224569499E-1,8.693833947E-1,3.803281784E0
3.570747688E1,-4.556182027E-1,7.690095305E-1,3.478545904E0
3.572747688E1,-4.871214032E-1,6.720739603E-1,3.001652241E0
3.574748156E1,-4.409399927E-1,5.749987364E-1,2.410317183E0
3.576947688E1,-3.033905923E-1,3.742509484E-1,1.712185502E0
3.578947844E1,-1.839576960E-1,2.080606967E-1,1.084250927E0
3.580949094E1,-1.451764852E-1,1.502902955E-1,5.897118449E-1
3.583148156E1,-1.864535213E-1,1.348790377E-1,1.682148278E-1
3.585347688E1,-3.398679495E-1,2.279574573E-1,-3.133215010E-1
3.587347688E1,-4.927064478E-1,4.475198686E-1,-7.833910584E-1
3.589347844E1,-4.308345318E-1,5.760807991E-1,-1.138321161E0
3.591347844E1,-1.020319462E-1,3.955614269E-1,-1.287983179E0
3.593547688E1,3.988426328E-1,-1.333431602E-1,-1.504822850E0
3.595548156E1,7.097904682E-1,-7.867769599E-1,-1.911275148E0
3.597747688E1,8.236033916E-1,-1.373329759E0,-2.476569891E0
3.599748469E1,7.797083855E-1,-1.717735648E0,-2.888118505E0
3.601947688E1,7.346963286E-1,-1.922846675E0,-3.052144527E0
3.603947844E1,7.809824944E-1,-1.951347947E0,-3.007900476E0
3.606147688E1,9.230173826E-1,-1.803780317E0,-3.028250933E0
3.608147688E1,1.015903831E0,-1.507213950E0,-3.212592602E0
3.610147688E1,9.054768085E-1,-1.076274753E0,-3.477132082E0
3.612148156E1,5.989795327E-1,-6.134308577E-1,-3.605815411E0
3.614347688E1,2.132094204E-1,-2.770884633E-1,-3.578814983E0
3.616347688E1,-1.389282104E-2,-2.196496874E-1,-3.499646902E0
3.618348469E1,-2.797762863E-2,-3.965911567E-1,-3.436727762E0
3.620547688E1,6.140068173E-2,-7.000340819E-1,-3.409780025E0
3.622547688E1,1.258207858E-1,-9.396852851E-1,-3.315305233E0
3.624548312E1,9.745918214E-2,-1.031070709E0,-3.112096548E0
3.626747688E1,9.250245057E-3,-1.002098203E0,-2.779244900E0
3.628748156E1,-8.525933325E-2,-8.691041470E-1,-2.469291925E0
3.630949094E1,-2.936342061E-1,-5.713684559E-1,-2.136649609E0
3.633147688E1,-5.369330645E-1,-1.860869974E-1,-1.769624233E0
3.635147688E1,-6.176196337E-1,1.366418302E-1,-1.237071872E0
3.637148000E1,-4.424584210E-1,4.167497158E-1,-5.840919018E-1
3.639347688E1,-1.269377917E-1,6.475171447E-1,1.258731484E-1
3.641347688E1,-4.502949305E-3,7.126353979E-1,6.940650940E-1
3.643347688E1,-1.786693484E-1,5.958902836E-1,1.298751831E0
3.645347844E1,-2.291791886E-1,3.733782768E-1,1.931869984E0
3.647347844E1,6.707300246E-2,2.044478655E-1,2.411504030E0
3.649347844E1,3.902730644E-1,1.518436372E-1,2.652830601E0
3.651347844E1,5.042256117E-1,1.130100712E-1,2.719467402E0
3.653347844E1,4.488637745E-1,1.705361158E-1,2.826578140E0
3.655348469E1,2.363350391E-1,3.471634388E-1,2.987270594E0
3.657547688E1,-8.587019891E-2,6.488959789E-1,3.220324516E0
3.659548000E1,-4.050385654E-1,8.385608792E-1,3.401594400E0
3.661747688E1,-6.427000165E-1,9.308015108E-1,3.531551600E0
3.663747844E1,-6.029414535E-1,9.889908433E-1,3.648313999E0
3.665947688E1,-4.206767082E-1,1.278994679E0,3.792967081E0
3.667947688E1,-6.463652253E-1,1.486619115E0,3.847526073E0
3.669947688E1,-9.612400532E-1,1.588511467E0,3.961408615E0
3.671948156E1,-1.201833725E0,1.665864348E0,4.056180000E0
3.674147688E1,-1.445568919E0,1.561563492E0,3.875573397E0
3.676147688E1,-1.492326260E0,1.221294165E0,3.447810650E0
3.678147688E1,-1.231469393E0,7.375237942E-1,3.006922960E0
3.680148000E1,-8.434303403E-1,2.544515431E-1,2.509661198E0
3.682347531E1,-4.309741557E-1,-1.297477782E-1,1.827743649E0
3.684347688E1,-1.453859210E-1,-2.840348780E-1,1.105247140E0
3.686347844E1,9.704031050E-3,-2.888869047E-1,4.394913614E-1
3.688548312E1,7.550293952E-2,-1.846209317E-1,-6.969099492E-2
3.690747688E1,1.668709219E-1,1.710422686E-3,-4.607320130E-1
3.692747844E1,3.086091280E-1,2.154085338E-1,-8.318762779E-1
3.694947688E1,3.848625422E-1,1.884257495E-1,-1.287459612E0
3.696948156E1,4.127703607E-1,-1.719323844E-1,-1.635513186E0
3.699147844E1,4.824090004E-1,-8.302705884E-1,-1.963251114E0
3.701347688E1,5.610535145E-1,-1.518192053E0,-2.390804291E0
3.703347688E1,5.742831230E-1,-1.980791569E0,-2.866685867E0
3.705347688E1,5.492027402E-1,-2.266362429E0,-3.325358391E0
3.707347688E1,5.416105986E-1,-2.355758190E0,-3.582532644E0
3.709348469E1,6.236061454E-1,-2.209918499E0,-3.669991016E0
3.711547688E1,7.747516632E-1,-1.823764324E0,-3.709767103E0
3.713547688E1,8.043524623E-1,-1.305523753E0,-3.722019434E0
3.715547688E1,6.251769066E-1,-5.987352133E-1,-3.679119110E0
3.717548156E1,3.251373768E-1,6.070255116E-2,-3.609044075E0
3.719747531E1,1.209862232E-1,4.640306830E-1,-3.534274340E0
3.721748312E1,7.527604699E-2,4.943121374E-1,-3.436692953E0
3.723948625E1,9.752900153E-2,2.387610376E-1,-3.303698778E0
3.726147688E1,6.628760695E-2,-1.456477195E-1,-3.167702675E0
3.728147688E1,3.462733328E-2,-5.105262399E-1,-3.029752016E0
3.730147844E1,-4.080579802E-2,-8.029561639E-1,-2.856650114E0
3.732347688E1,-1.770461947E-1,-9.626363516E-1,-2.534584522E0
3.734347688E1,-2.683967352E-1,-9.235235453E-1,-2.136771679E0
3.736347844E1,-3.187494874E-1,-7.274881601E-1,-1.730075121E0
3.738349094E1,-4.141491652E-1,-3.970100582E-1,-1.303394437E0
3.740547688E1,-5.105611682E-1,1.349139493E-2,-8.142659068E-1
3.742548156E1,-4.714483321E-1,3.739891648E-1,-2.656390965E-1
3.744747688E1,-2.907718420E-1,6.885847449E-1,4.504520297E-1
3.746748156E1,-2.575407922E-1,7.417125702E-1,1.136820197E0
3.748947688E1,-3.348937631E-1,5.067214370E-1,1.916598439E0
3.750948000E1,-1.114392728E-1,2.784498334E-1,2.529505730E0
3.752951750E1,3.724881709E-1,1.984439343E-1,2.974128246E0
3.755147688E1,7.216238379E-1,2.139599174E-1,3.209590673E0
3.757147688E1,7.247828841E-1,3.042109013E-1,3.251129389E0
3.759148469E1,5.465149283E-1,4.408701658E-1,3.283191204E0
3.761347688E1,2.697406411E-1,6.060830355E-1,3.363860369E0
3.763347844E1,9.279915690E-2,7.905294299E-1,3.442644596E0
3.765547688E1,-6.248278543E-2,8.666607141E-1,3.443918467E0
3.767547688E1,-9.524261951E-2,8.140913844E-1,3.428420067E0
3.769547688E1,6.255260110E-2,7.708246708E-1,3.467305899E0
3.771547844E1,2.003986984E-1,8.759284019E-1,3.529963255E0
3.773747688E1,-8.873254061E-2,1.013826847E0,3.570926189E0
3.775747688E1,-5.039986968E-1,1.076309681E0,3.661159754E0
3.777747844E1,-6.958453059E-1,1.000352859E0,3.700028181E0
3.779947844E1,-7.026520967E-1,8.282983303E-1,3.543943405E0
3.782147531E1,-7.545930743E-1,6.660525203E-1,3.183341026E0
3.784148156E1,-6.946933866E-1,5.164952874E-1,2.853508711E0
3.786347688E1,-3.802025318E-1,2.369808108E-1,2.504756927E0
3.788347844E1,-5.173156038E-2,-1.395565271E-1,2.063258410E0
3.790547688E1,1.720720083E-1,-5.224992037E-1,1.348738074E0
3.792547688E1,2.214473784E-1,-6.675011516E-1,6.505365968E-1
3.794547688E1,1.741489470E-1,-5.311909318E-1,1.211258490E-2
3.796547688E1,2.357939817E-2,-2.571742535E-1,-5.297248960E-1
3.798547688E1,-1.076693609E-1,2.066469751E-2,-9.833185077E-1
3.800547688E1,-1.383347958E-1,1.022413895E-1,-1.338423133E0
3.802547688E1,4.975933582E-2,-5.602506921E-2,-1.604062319E0
3.804547688E1,3.016627133E-1,-3.804294169E-1,-2.030865192E0
3.806547688E1,4.017224312E-1,-7.376808524E-1,-2.639810562E0
3.808547688E1,3.394665420E-1,-1.028260708E0,-3.256016493E0
3.810547688E1,1.939933449E-1,-1.261000395E0,-3.692889690E0
3.812547688E1,9.040805697E-2,-1.439181089E0,-3.858312130E0
3.814547688E1,1.961226463E-1,-1.632301688E0,-3.845414162E0
3.816547688E1,5.020439625E-1,-1.759937644E0,-3.827280045E0
3.818547688E1,7.443305850E-1,-1.657643914E0,-3.841103077E0
3.820548000E1,7.130717039E-1,-1.313290477E0,-3.854646921E0
3.822747688E1,4.009719491E-1,-7.236135006E-1,-3.750694990E0
3.824748469E1,7.471754402E-2,-3.086440265E-1,-3.581014156E0
3.826947688E1,-9.274679422E-2,-1.488591284E-1,-3.392361641E0
3.828947844E1,-7.234390080E-2,-2.689203322E-1,-3.275005579E0
3.830949250E1,2.635447122E-2,-4.844335914E-1,-3.183271170E0
3.833147688E1,4.619886354E-2,-6.843087077E-1,-3.071238518E0
3.835147688E1,-8.874998987E-2,-7.705104947E-1,-2.840209246E0
3.837148000E1,-3.031811416E-1,-7.554134130E-1,-2.504896641E0
3.839347688E1,-4.865803421E-1,-6.364866495E-1,-2.052210569E0
3.841347844E1,-6.217037439E-1,-4.159294069E-1,-1.657486796E0
3.843547688E1,-6.549696922E-1,-1.223650351E-1,-1.140677333E0
3.845548000E1,-5.877745152E-1,7.115707546E-2,-6.531370878E-1
3.847747688E1,-4.626344144E-1,2.537883222E-1,-1.415636539E-1
3.849748469E1,-2.799507976E-1,4.415857494E-1,2.623753548E-1
3.851947688E1,-2.353751063E-1,5.357637405E-1,6.666110754E-1
3.853948000E1,-5.375264883E-1,4.405560195E-1,1.131165385E0
3.856147688E1,-7.471929193E-1,1.950230896E-1,1.781178355E0
3.858147688E1,-4.734903574E-1,1.512153298E-1,2.342999697E0
3.860147688E1,-4.752531648E-2,3.027099073E-1,2.730358124E0
3.862148000E1,1.596452594E-1,5.642300248E-1,2.936603785E0
3.864347688E1,6.951646507E-2,9.502794147E-1,3.097418308E0
3.866348156E1,-2.249205858E-1,1.261139989E0,3.233973026E0
3.868547688E1,-5.491154790E-1,1.449094534E0,3.374140263E0
3.870547688E1,-7.120245099E-1,1.434381366E0,3.473240137E0
3.872547688E1,-7.768111229E-1,1.282118917E0,3.576109886E0
3.874547688E1,-6.549522281E-1,1.075978041E0,3.696764469E0
3.876547688E1,-4.203799963E-1,9.645387530E-1,3.811362743E0
3.878547688E1,-4.439070523E-1,1.005379438E0,3.896883965E0
3.880547688E1,-7.141014338E-1,1.057407737E0,3.937026501E0
3.882547688E1,-8.704131246E-1,1.056098700E0,3.898926020E0
3.884547688E1,-8.362221718E-1,8.725948334E-1,3.711250544E0
3.886547844E1,-7.987324595E-1,6.105859876E-1,3.311797142E0
3.888748312E1,-7.555181384E-1,3.797138333E-1,2.745193481E0
3.890947688E1,-5.456073880E-1,2.014633566E-1,2.214979887E0
3.892948313E1,-3.377037644E-1,1.144063324E-1,1.697402477E0
3.895147688E1,-2.198416740E-1,1.644623727E-1,1.056063771E0
3.897347688E1,-2.938610911E-1,4.734729230E-1,4.224918485E-1
3.899347688E1,-3.972893059E-1,9.151808619E-1,-5.012585595E-2
3.901347688E1,-3.616322279E-1,1.271821380E0,-4.890063405E-1
3.903347688E1,-2.294235229E-1,1.422705173E0,-9.466665983E-1
3.905348156E1,-9.819222242E-2,1.283305645E0,-1.412599683E0
3.907547688E1,6.188937649E-2,8.941670656E-1,-1.704820156E0
3.909547688E1,1.763131618E-1,4.071853161E-1,-1.868671656E0
3.911547688E1,1.415985674E-1,-6.220353395E-2,-2.160106659E0
3.913548312E1,2.026327252E-1,-3.689975142E-1,-2.609424353E0
3.915747688E1,3.859446645E-1,-4.868944883E-1,-3.215402603E0
3.917748625E1,5.695881844E-1,-3.411595225E-1,-3.681335688E0
3.919947688E1,7.071375847E-1,-3.543018550E-2,-3.951390505E0
3.921947844E1,7.808253765E-1,1.251750141E-1,-4.050420284E0
3.923948625E1,8.216311932E-1,-1.297303289E-1,-4.172837734E0
3.926147688E1,9.470156431E-1,-8.797855377E-1,-4.304784775E0
3.928147688E1,9.704728723E-1,-1.611183286E0,-4.322046280E0
3.930148781E1,7.201926708E-1,-1.921136260E0,-4.215249538E0
3.932347688E1,3.209486008E-1,-1.671432018E0,-4.044730663E0
3.934349094E1,1.429424621E-2,-1.317566514E0,-3.873932838E0
3.936547688E1,-3.795742095E-1,-9.932668805E-1,-3.485544682E0
3.938548000E1,-7.488160729E-1,-8.104087114E-1,-2.954493284E0
3.940747688E1,-9.842435122E-1,-7.805635929E-1,-2.396424294E0
3.942747688E1,-1.024874806E0,-7.693935037E-1,-1.936163545E0
3.944747688E1,-1.168794632E0,-7.997098565E-1,-1.485990763E0
3.946747688E1,-1.470649362E0,-6.866998076E-1,-9.396328926E-1
3.948747688E1,-1.742973089E0,-4.686208963E-1,-3.688927889E-1
3.950747688E1,-1.878358245E0,-3.358711600E-1,4.232423380E-2
3.952748000E1,-2.038666725E0,-1.796118319E-1,3.462209702E-1
3.954947688E1,-2.428555727E0,1.924574524E-1,7.740360498E-1
3.956947688E1,-2.890282631E0,7.293033004E-1,1.393610477E0
3.958947688E1,-3.262666225E0,1.362665772E0,2.212257147E0
3.960948156E1,-3.542913675E0,1.814164996E0,2.997951984E0
3.963147688E1,-3.711058617E0,1.946967125E0,3.745982647E0
3.965148313E1,-3.567400694E0,1.867205620E0,4.429296494E0
3.967347688E1,-2.924211979E0,1.769886017E0,5.171672344E0
3.969349406E1,-1.966549754E0,1.695639729E0,5.781001568E0
3.971547688E1,-1.117290020E0,1.421064496E0,6.079767227E0
3.973547688E1,-8.997172117E-1,9.948900342E-1,5.916823387E0
3.975547688E1,-1.019307137E0,6.278996468E-1,5.519132614E0
3.977548312E1,-1.209548116E0,3.967831433E-1,5.008396626E0
3.979747688E1,-1.314651847E0,2.855358720E-1,4.541782856E0
3.981748000E1,-1.196423173E0,3.671300113E-1,4.148298740E0
3.983947688E1,-9.630203247E-1,4.639434218E-1,3.547102451E0
3.985948313E1,-8.686503768E-1,3.195697963E-1,2.922955275E0
3.988147688E1,-7.671245337E-1,6.070255116E-2,2.377103567E0
3.990147688E1,-5.158320665E-1,6.269222498E-2,2.085214615E0
3.992147688E1,-2.896199226E-1,3.201457560E-1,1.739517331E0
3.994147844E1,-2.468244582E-1,6.035872102E-1,1.326764345E0
3.996347688E1,-2.340660989E-1,7.097032070E-1,1.003616691E0
3.998348000E1,-9.531243145E-2,5.557477474E-1,8.466766477E-1
4.000547688E1,1.988628209E-1,2.396686077E-1,6.521073580E-1
4.002547844E1,5.109276772E-1,-1.932079531E-2,2.858500183E-1
4.004547844E1,6.629807949E-1,-2.317099124E-1,-2.737374306E-1
4.006747688E1,5.887519121E-1,-5.628512502E-1,-9.485340714E-1
4.008747688E1,4.250923991E-1,-8.711112738E-1,-1.451747417E0
4.010747688E1,3.623827100E-1,-1.034474134E0,-1.869107962E0
4.012947688E1,4.097160399E-1,-9.796183705E-1,-2.370523691E0
4.014948156E1,5.910557508E-1,-7.240672708E-1,-2.982505798E0
4.017147688E1,8.417897224E-1,-2.830924094E-1,-3.783227921E0
4.019148313E1,1.128233194E0,1.066396199E-2,-4.365609646E0
4.021347688E1,1.586067915E0,6.448991597E-2,-4.742897511E0
4.023347844E1,1.998384476E0,-1.557880938E-1,-4.889470100E0
4.025547688E1,2.184471607E0,-6.601184011E-1,-4.875821590E0
4.027547688E1,2.093312979E0,-1.238991737E0,-4.781451702E0
4.029547688E1,1.831827760E0,-1.801179767E0,-4.622556686E0
4.031548000E1,1.462079763E0,-2.192063808E0,-4.370094776E0
4.033747688E1,9.996373057E-1,-2.252137899E0,-3.949540377E0
4.035747844E1,5.843362212E-1,-1.974002242E0,-3.495370865E0
4.037947688E1,1.341460049E-1,-1.418114901E0,-3.002402544E0
4.039947844E1,-2.122669369E-1,-9.338732958E-1,-2.615881920E0
4.042147688E1,-4.912752807E-1,-4.896870255E-1,-2.249921322E0
4.044148000E1,-6.749013662E-1,-2.619564533E-1,-2.010584354E0
4.046347688E1,-8.490503430E-1,-1.001295373E-1,-1.849490523E0
4.048347688E1,-9.431235790E-1,1.418952644E-2,-1.700404525E0
4.050348156E1,-8.950746655E-1,4.927064478E-2,-1.463790178E0
4.052354719E1,-7.098253965E-1,6.003932562E-3,-1.089661360E0
4.054547688E1,-3.650530577E-1,-1.672374457E-1,-5.379977226E-1
4.056547688E1,-9.082693607E-2,-3.256260753E-1,-2.291617356E-2
4.058548312E1,-1.202182770E-1,-2.825513482E-1,4.408003688E-1
4.060748000E1,-6.046693325E-1,-5.689773243E-3,9.801245332E-1
4.062947688E1,-1.376174688E0,3.723659813E-1,1.630922914E0
4.064947688E1,-1.837796807E0,7.049210072E-1,2.258857489E0
4.066947688E1,-1.927471757E0,9.859190583E-1,2.799019337E0
4.068948000E1,-1.810168266E0,1.122456193E0,3.141575098E0
4.071147688E1,-1.646753073E0,1.136645675E0,3.379952192E0
4.073148313E1,-1.510739565E0,1.129629493E0,3.669799089E0
4.075347688E1,-1.359053016E0,1.087270260E0,4.193799496E0
4.077348000E1,-1.110081792E0,1.004279852E0,4.729475975E0
4.079547688E1,-8.828224540E-1,8.952666521E-1,5.149663925E0
4.081547688E1,-8.991936445E-1,7.994829416E-1,5.247995377E0
4.083547688E1,-9.457066655E-1,6.873281002E-1,5.245674133E0
4.085548312E1,-6.960372925E-1,6.420891881E-1,5.255361080E0
4.087747688E1,-3.186447620E-1,6.213895679E-1,5.173382759E0
4.089748312E1,-1.408306211E-1,6.085439324E-1,4.954221725E0
4.091947688E1,6.208136305E-2,5.458691716E-1,4.464726925E0
4.093948625E1,2.484650761E-1,3.098832071E-1,3.782145977E0
4.096147688E1,2.458645254E-1,-2.696533687E-2,2.928802013E0
4.098147688E1,1.193805188E-1,-1.629788429E-1,2.236429930E0
4.100147688E1,-7.552039623E-2,-1.496794373E-1,1.768716693E0
4.102147688E1,-2.290395498E-1,-1.890366077E-1,1.477874994E0
4.104147688E1,-2.450965792E-1,-2.738072574E-1,1.216948271E0
4.106147688E1,-2.275560200E-1,-2.795319259E-1,8.553509712E-1
4.108147688E1,-2.123716623E-1,-2.070658654E-1,4.027696252E-1
4.110147688E1,-1.805892140E-1,-2.307150662E-1,-1.273741275E-1
4.112148156E1,-1.748470813E-1,-5.609139204E-1,-6.910980344E-1
4.114347688E1,-2.108183205E-1,-1.253565311E0,-1.181430817E0
4.116348156E1,-1.731366664E-1,-1.866490006E0,-1.530409455E0
4.118547688E1,-6.902777404E-2,-2.144485950E0,-1.982501984E0
4.120548000E1,6.475171540E-3,-2.070885420E0,-2.592808723E0
4.122747531E1,6.051056460E-2,-1.604777932E0,-3.451929569E0
4.124747688E1,8.105309308E-2,-8.853182793E-1,-4.221846581E0
4.126747688E1,1.667138487E-1,-1.048070192E-1,-4.790579796E0
4.128748312E1,3.079633415E-1,5.674414635E-1,-5.166209698E0
4.130949094E1,4.910832942E-1,1.047581553E0,-5.378458977E0
4.133147688E1,6.637661457E-1,1.106084943E0,-5.403102875E0
4.135147688E1,7.725874186E-1,8.691041470E-1,-5.300722122E0
4.137147688E1,8.174947500E-1,4.231725335E-1,-5.125735283E0
4.139147688E1,8.125903606E-1,-1.216319948E-1,-4.885909557E0
4.141147688E1,7.907388806E-1,-6.657558680E-1,-4.504973888E0
4.143147688E1,7.638433576E-1,-1.058524728E0,-4.025654316E0
4.145147688E1,7.572110891E-1,-1.283951402E0,-3.640250683E0
4.147147688E1,6.616194248E-1,-1.276429057E0,-3.415103197E0
4.149147688E1,4.520751834E-1,-1.060985684E0,-3.209224224E0
4.151148000E1,2.429323792E-1,-6.801897287E-1,-2.844572544E0
4.153347688E1,1.274613887E-1,-2.451838553E-1,-2.216847420E0
4.155347844E1,1.296954155E-1,2.398082428E-2,-1.606034517E0
