"Time (s)","Linear Acceleration x (m/s^2)","Linear Acceleration y (m/s^2)","Linear Acceleration z (m/s^2)"
1.400000000E-2,3.612999916E-1,-6.013000011E-1,-7.038999796E-1
3.400000000E-2,1.008000001E-1,-2.513999939E-1,-3.946999907E-1
5.400000000E-2,6.365999579E-1,-7.145999670E-1,-4.282999933E-1
7.400000000E-2,8.768999577E-1,-1.310899973E0,6.182000041E-1
9.400000000E-2,9.224999547E-1,-2.012399912E0,6.714000106E-1
1.140000000E-1,5.622999668E-1,-1.746599913E0,9.606999755E-1
1.340093750E-1,1.611699939E0,-1.389699936E0,4.508999884E-1
1.640015630E-1,1.838099957E0,-9.941999912E-1,6.886000037E-1
1.940000000E-1,6.021999717E-1,3.026999831E-1,-5.115000010E-1
2.140000000E-1,1.602299929E0,-8.195999861E-1,4.184999764E-1
2.340046880E-1,7.418000102E-1,-4.160000011E-2,6.168000102E-1
2.640000000E-1,1.889999956E-1,-3.824999928E-1,1.476199985E0
2.840046880E-1,-9.799000025E-1,1.067099929E0,1.195299983E0
3.140000000E-1,2.559999824E-1,2.096000016E-1,-2.062900066E0
3.340031250E-1,1.190299988E0,2.595999837E-1,-2.167999893E-1
3.639984380E-1,1.924799919E0,3.008999825E-1,-6.875000000E-1
3.840000000E-1,2.786099911E0,4.270000011E-2,4.438000023E-1
4.140000000E-1,1.904999971E0,-7.705000043E-1,8.479999751E-2
4.340000000E-1,1.993399978E0,-8.575999737E-1,1.400000006E-1
4.540000000E-1,1.968199968E0,-7.594999671E-1,4.750999808E-1
4.740031250E-1,2.073199987E0,-9.534999728E-1,8.249999583E-2
5.040000000E-1,2.115999937E0,-1.308099985E0,6.517999768E-1
5.240062500E-1,8.287999630E-1,-1.325699925E0,6.132000089E-1
5.540000000E-1,2.976999879E-1,-1.096699953E0,5.613999963E-1
5.740000000E-1,1.011099935E0,-3.612999916E-1,-1.063899994E0
5.940375000E-1,1.791599989E0,-9.899999946E-2,-6.247999668E-1
6.239984380E-1,3.502699852E0,-1.510999918E0,1.273399949E0
6.440000000E-1,1.291899920E0,-8.470999599E-1,-3.320499897E0
6.640000000E-1,-4.742999971E-1,-3.824999928E-1,-1.820099950E0
6.840000000E-1,-2.392400026E0,2.793000042E-1,-9.488999844E-1
7.140031250E-1,-2.370599985E0,1.429199934E0,4.293999970E-1
7.440000000E-1,-2.009399891E0,1.301299930E0,-9.649999738E-1
7.739984380E-1,-9.239999652E-1,8.618999720E-1,-2.940099955E0
7.939984380E-1,-1.888899922E0,1.983500004E0,-1.380399942E0
8.140000000E-1,-4.089399815E0,2.654899836E0,3.350000083E-2
8.340000000E-1,-4.021299839E0,9.316999912E-1,8.143999577E-1
8.540000000E-1,-3.882999897E0,-7.486000061E-1,2.300600052E0
8.740000000E-1,-3.898199797E0,9.864999652E-1,3.630599976E0
8.940000000E-1,-4.126999855E0,9.054999948E-1,4.701099873E0
9.140000000E-1,-3.378099918E0,8.295999765E-1,4.403500080E0
9.340000000E-1,-2.541800022E0,1.179299951E0,2.788199902E0
9.540015630E-1,-1.360000014E0,9.829999804E-1,1.638099909E0
9.840015630E-1,-1.514499903E0,8.615999818E-1,4.080999792E-1
1.014000000E0,-7.519999743E-1,3.050999939E-1,2.116999924E-1
1.034000000E0,1.852999926E-1,-1.657999903E-1,1.008499980E0
1.054000000E0,1.398999929E0,-1.113699913E0,1.843599916E0
1.074000000E0,1.866400003E0,-1.581200004E0,2.285099983E0
1.094031250E0,8.538999557E-1,-1.058699965E0,2.109899998E0
1.124000000E0,1.127399921E0,-1.450299978E0,-5.654000044E-1
1.144000000E0,1.050499916E0,-9.831999540E-1,-1.109899998E0
1.164000000E0,1.884199977E0,-6.523000002E-1,-8.912000060E-1
1.184004688E0,1.629899979E0,-3.913999796E-1,-1.199899912E0
1.214000000E0,1.950499892E0,1.361999959E-1,-2.824599981E0
1.244000000E0,-1.262999922E-1,4.833000004E-1,-4.290599823E0
1.264000000E0,-9.734999537E-1,7.761999965E-1,-4.445799828E0
1.284000000E0,-2.312999964E-1,1.259000003E-1,-4.675699711E0
1.304000000E0,6.838999987E-1,-7.030000091E-1,-5.389100075E0
1.324000000E0,6.755999923E-1,-1.398800015E0,-5.576399803E0
1.354000000E0,1.486999989E-1,-1.993999958E0,-5.008399963E0
1.374006250E0,3.999999762E-1,-2.693500042E0,-4.952799797E0
1.403998438E0,1.550599933E0,-3.895299911E0,-4.029999733E0
1.424000000E0,2.373499870E0,-4.479899883E0,-3.091699839E0
1.444000000E0,3.619099855E0,-5.443199635E0,-2.719799995E0
1.464000000E0,3.987899780E0,-5.932899952E0,-1.942399979E0
1.493998438E0,3.980399847E0,-5.298099995E0,-5.055999756E-1
1.514000000E0,4.913599968E0,-6.435599804E0,-3.980999887E-1
1.534000000E0,5.142999649E0,-6.804999828E0,4.382999837E-1
1.554000000E0,4.300099850E0,-6.551399708E0,9.090999961E-1
1.574000000E0,1.881099939E0,-5.107500076E0,2.347899914E0
1.594000000E0,-8.705999851E-1,-3.210700035E0,4.165599823E0
1.614000000E0,-2.185799837E0,-1.534500003E0,5.953199863E0
1.634000000E0,-1.348199964E0,-6.796999574E-1,6.193599701E0
1.663998438E0,1.783499956E0,-2.289000005E-1,4.546499729E0
1.684000000E0,2.504899979E0,1.283999979E-1,3.181200027E0
1.704000000E0,1.674600005E0,9.559999704E-1,2.067999840E0
1.724000000E0,-7.959999889E-2,1.821399927E0,1.505199909E0
1.744000000E0,-1.653800011E0,2.266700029E0,1.637099981E0
1.764000000E0,-2.784399986E0,2.198499918E0,2.438299894E0
1.784000000E0,-2.839099884E0,2.204200029E0,3.849399805E0
1.804000000E0,-2.246700048E0,1.933799982E0,4.350800037E0
1.824000000E0,-1.877499938E0,1.912199974E0,4.743000031E0
1.854000000E0,-1.548799992E0,2.073999882E0,5.349499702E0
1.884000000E0,-1.101199985E0,2.400300026E0,5.676799774E0
1.904000000E0,-1.028399944E0,2.518800020E0,5.853399754E0
1.924000000E0,-1.028299928E0,2.540999889E0,5.661999702E0
1.944000000E0,-9.048999548E-1,1.857599974E0,5.312999725E0
1.964000000E0,-6.129999757E-1,1.210699916E0,5.437200069E0
1.994000000E0,1.201099992E0,5.891999602E-1,5.177099705E0
2.014000000E0,2.430899858E0,-1.958999932E-1,3.914599895E0
2.034000000E0,2.451900005E0,-7.202000022E-1,3.635999918E0
2.063998438E0,2.549499989E0,-1.009899974E0,4.130000114E0
2.084000000E0,3.400399923E0,-1.537799954E0,3.954699993E0
2.104000000E0,3.489599943E0,-1.385900021E0,4.203399658E0
2.133998438E0,3.584599972E0,-1.579299927E0,3.847699881E0
2.153998438E0,4.496099949E0,-2.255399942E0,2.119299889E0
2.174000000E0,5.024499893E0,-3.084899902E0,-9.519999474E-2
2.194000000E0,4.104399681E0,-3.145900011E0,-1.596499920E0
2.214000000E0,2.422099829E0,-2.718099833E0,-1.835899949E0
2.244000000E0,3.067999780E-1,-1.839499950E0,-2.078299999E0
2.264000000E0,-5.338000059E-1,-1.408100009E0,-2.281800032E0
2.284000000E0,-1.238299966E0,-1.174299955E0,-2.479199886E0
2.314000000E0,-1.925499916E0,-1.200799942E0,-3.556699991E0
2.334000000E0,-2.231499910E0,-1.335500002E0,-4.125599861E0
2.354000000E0,-2.280900002E0,-1.556499958E0,-4.510299683E0
2.384000000E0,-1.770499945E0,-2.404000044E0,-4.853399754E0
2.404000000E0,-1.842199922E0,-2.624500036E0,-5.176499844E0
2.424000000E0,-1.905299902E0,-2.840999842E0,-5.741399765E0
2.454000000E0,-1.686299920E0,-3.444799900E0,-6.253999710E0
2.483998438E0,-3.005000055E-1,-4.297800064E0,-6.488399982E0
2.504000000E0,6.761999726E-1,-4.776199818E0,-6.784999847E0
2.524000000E0,9.718999863E-1,-5.093899727E0,-6.734600067E0
2.544000000E0,1.154699922E0,-5.616999626E0,-6.311999798E0
2.574000000E0,1.247299910E0,-6.551599979E0,-5.769099712E0
2.594000000E0,7.454999685E-1,-6.006999969E0,-5.208799839E0
2.614000000E0,-6.134999990E-1,-4.259999752E0,-3.756399870E0
2.644000000E0,-1.433300018E0,-2.524499893E0,-4.082999825E-1
2.674000000E0,8.634999990E-1,-3.015199900E0,1.644999981E-1
2.694000000E0,2.617899895E0,-2.796900034E0,-1.003199935E0
2.723998438E0,3.654699802E0,-2.425499916E0,-2.806799889E0
2.744000000E0,2.548199892E0,-1.429199934E0,-2.620599985E0
2.774000000E0,3.753999770E-1,4.023000002E-1,-4.449999928E-1
2.803998438E0,9.370999932E-1,1.363499999E0,2.560199976E0
2.824000000E0,1.975399971E0,1.543699980E0,3.728699923E0
2.854000000E0,2.381000042E0,2.566799879E0,4.072700024E0
2.874000000E0,2.094199896E0,3.401299953E0,4.703099728E0
2.894000000E0,1.983099937E0,3.996199846E0,5.138599873E0
2.924000000E0,2.238199949E0,4.304999828E0,6.010799885E0
2.944000000E0,2.172299862E0,4.420700073E0,6.127999783E0
2.964000000E0,1.934499979E0,4.240299702E0,6.364099979E0
2.993998438E0,1.681399941E0,3.890399933E0,6.903299809E0
3.013998438E0,2.440299988E0,2.999899864E0,6.690199852E0
3.034000000E0,3.935199976E0,1.430199981E0,6.140500069E0
3.063998438E0,5.768499851E0,-9.581999779E-1,6.210099697E0
3.084000000E0,5.828299999E0,-1.012099981E0,6.895899773E0
3.104000000E0,5.308000088E0,-2.206999958E-1,7.449499607E0
3.124000000E0,4.986000061E0,2.437999994E-1,7.358599663E0
3.144000000E0,5.097300053E0,-7.339000106E-1,6.510900021E0
3.164000000E0,5.234999657E0,-2.361099958E0,5.307600021E0
3.184000000E0,5.053400040E0,-3.758899927E0,3.914199829E0
3.214000000E0,3.773000002E0,-4.228199959E0,1.198799968E0
3.234000000E0,2.629099846E0,-4.049399853E0,-2.300000004E-2
3.254000000E0,1.519699931E0,-3.906399965E0,-9.749999642E-1
3.284000000E0,-5.205999613E-1,-3.345000029E0,-1.257499933E0
3.314000000E0,-2.131599903E0,-3.145799875E0,-1.679499984E0
3.334000000E0,-2.505199909E0,-3.308399916E0,-1.786899924E0
3.354000000E0,-2.853899956E0,-3.619499922E0,-2.086999893E0
3.374000000E0,-3.123499870E0,-3.983199835E0,-2.508299828E0
3.394000000E0,-3.305599928E0,-4.173699856E0,-2.776199818E0
3.414000000E0,-3.391799927E0,-4.442699909E0,-2.823599815E0
3.434000000E0,-3.663499832E0,-4.825299740E0,-2.959599972E0
3.454000000E0,-3.800099850E0,-5.339900017E0,-3.583400011E0
3.474000000E0,-3.889099836E0,-5.721299648E0,-4.545199871E0
3.504000000E0,-3.712099791E0,-5.901400089E0,-4.297800064E0
3.524000000E0,-2.925499916E0,-6.271499634E0,-3.789499998E0
3.544000000E0,-2.553200006E0,-6.260499954E0,-3.451099873E0
3.564003125E0,-1.610599995E0,-6.688999653E0,-3.322899818E0
3.594000000E0,2.613999844E-1,-9.141499519E0,-4.859499931E0
3.614000000E0,5.189999938E-2,-9.916799545E0,-5.790299892E0
3.644000000E0,-1.942899942E0,-8.187500000E0,-4.281099796E0
3.674000000E0,-9.702000022E-1,-7.920899868E0,-1.817499995E0
3.694001563E0,-3.865999877E-1,-7.255399704E0,-4.242999852E-1
3.724000000E0,-2.838999927E-1,-5.534100056E0,1.158999950E-1
3.744000000E0,-5.669999868E-2,-4.229000092E0,-6.560999751E-1
3.774000000E0,3.325999975E-1,-1.834999919E0,-1.059700012E0
3.803998438E0,9.517999887E-1,-2.465000004E-1,-7.195999622E-1
3.824000000E0,1.081499934E0,5.518000126E-1,2.412999868E-1
3.844000000E0,1.403899908E0,9.549999833E-1,1.256199956E0
3.864000000E0,1.939199924E0,1.023399949E0,1.969399929E0
3.884000000E0,2.281100035E0,1.194199920E0,2.822499990E0
3.913998438E0,3.126099825E0,1.486899972E0,4.761099815E0
3.933998438E0,3.578899860E0,1.799099922E0,6.185599804E0
3.954000000E0,3.824399948E0,2.658299923E0,7.320299625E0
3.974000000E0,4.006400108E0,3.802799940E0,7.828899860E0
4.004000000E0,5.019399643E0,3.930299997E0,7.446099758E0
4.024000000E0,5.370299816E0,3.724399805E0,7.238499641E0
4.044000000E0,5.006199837E0,3.414999962E0,7.346999645E0
4.074000000E0,3.885199785E0,3.734599829E0,8.128000259E0
4.094000000E0,4.455899715E0,3.671999931E0,8.236700058E0
4.114000000E0,5.909199715E0,2.907500029E0,7.275099754E0
4.134000000E0,6.489599705E0,3.021999836E0,6.447799683E0
4.154000000E0,7.302700043E0,2.484699965E0,5.456199646E0
4.174000000E0,7.839399815E0,1.464499950E0,4.891099930E0
4.194000000E0,7.934700012E0,9.052999616E-1,4.694699764E0
4.214000000E0,8.231599808E0,-2.788999975E-1,3.991699934E0
4.234000000E0,8.419799805E0,-2.258800030E0,2.794699907E0
4.254000000E0,7.982999802E0,-4.431299686E0,1.788699985E0
4.284000000E0,5.927999973E0,-6.155799866E0,5.410999656E-1
4.314000000E0,2.848899841E0,-6.158899784E0,-2.899999917E-1
4.334003125E0,1.116299987E0,-5.916299820E0,-8.052999973E-1
4.363998438E0,-6.819999814E-1,-5.688199997E0,-1.228999972E0
4.384000000E0,-1.517699957E0,-5.547699928E0,-1.617200017E0
4.414000000E0,-2.423699856E0,-5.733799934E0,-2.509500027E0
4.434000000E0,-2.954999924E0,-5.992699623E0,-2.999399900E0
4.454000000E0,-3.832899809E0,-5.709099770E0,-3.106999874E0
4.474000000E0,-4.508399963E0,-5.462699890E0,-3.383199930E0
4.504000000E0,-5.392299652E0,-5.443799973E0,-3.531799793E0
4.524000000E0,-5.809799671E0,-5.718699932E0,-3.435899973E0
4.544000000E0,-6.224499702E0,-6.032899857E0,-3.460899830E0
4.574000000E0,-6.743599892E0,-6.044600010E0,-3.139699936E0
4.604000000E0,-6.140100002E0,-6.353199959E0,-1.898999929E0
4.624000000E0,-5.436100006E0,-6.481899738E0,-1.359599948E0
4.644000000E0,-4.679599762E0,-6.661099911E0,-1.593299985E0
4.674000000E0,-3.050699949E0,-7.267899990E0,-2.299499989E0
4.703998438E0,-8.008999825E-1,-8.938099861E0,-3.128799915E0
4.724000000E0,7.869999856E-2,-9.181499481E0,-3.113699913E0
4.744000000E0,3.867000043E-1,-8.203000069E0,-2.708600044E0
4.774000000E0,1.735899925E0,-7.470799923E0,-1.519500017E0
4.794000000E0,2.604099989E0,-7.179199696E0,-3.858999908E-1
4.814000000E0,3.071300030E0,-7.281799793E0,5.392999649E-1
4.843998438E0,2.921000004E0,-6.285299778E0,3.819999844E-2
4.863998438E0,3.220899820E0,-5.433899879E0,-2.118999958E-1
4.884000000E0,3.213299990E0,-4.027499676E0,8.370999694E-1
4.904000000E0,3.125799894E0,-2.728499889E0,2.207999945E0
4.924000000E0,2.559099913E0,-1.096199989E0,3.720799923E0
4.944000000E0,1.959399939E0,3.270999789E-1,4.613299847E0
4.964000000E0,2.453999996E0,8.324999809E-1,4.003600121E0
4.993998438E0,3.267099857E0,1.534999967E0,3.682399988E0
5.013998438E0,3.735699892E0,1.936299920E0,4.181799889E0
5.034000000E0,4.369999886E0,2.320999861E0,4.826299667E0
5.063998438E0,4.629600048E0,3.656199932E0,5.755199909E0
5.084000000E0,4.270499706E0,4.765500069E0,6.298799992E0
5.104000000E0,4.811399937E0,5.205999851E0,6.700899601E0
5.124000000E0,5.999700069E0,4.524499893E0,6.589399815E0
5.144000000E0,6.647699833E0,3.958599806E0,6.694499969E0
5.174000000E0,6.277400017E0,4.311199665E0,6.808899879E0
5.194000000E0,6.376699924E0,4.382999897E0,6.297800064E0
5.214000000E0,7.255599976E0,3.814099789E0,5.746599674E0
5.234000000E0,8.102499962E0,4.034599781E0,6.012300014E0
5.254000000E0,8.814700127E0,4.028100014E0,6.007199764E0
5.284000000E0,8.996399879E0,2.458299875E0,5.016299725E0
5.304000000E0,8.274000168E0,1.041999936E0,4.496599674E0
5.324000000E0,8.377699852E0,-1.060199976E0,3.694199800E0
5.354000000E0,8.548899651E0,-4.469500065E0,1.927899957E0
5.384000000E0,5.473899841E0,-4.866799831E0,1.258999944E0
5.414000000E0,2.134099960E0,-4.064899921E0,5.687999725E-1
5.434000000E0,9.872999787E-1,-3.792799950E0,4.269999862E-1
5.454000000E0,3.960999846E-1,-3.898899794E0,6.484999657E-1
5.474000000E0,-2.384999990E-1,-4.222300053E0,7.617999911E-1
5.494000000E0,-8.489999771E-1,-4.663700104E0,5.950999856E-1
5.514000000E0,-1.630899906E0,-5.236799717E0,9.339999408E-2
5.534000000E0,-2.274799824E0,-6.079099655E0,-3.689999878E-1
5.554000000E0,-2.903599977E0,-6.494699955E0,-4.770999849E-1
5.574000000E0,-3.674799919E0,-6.032199860E0,-3.802999854E-1
5.604000000E0,-4.676399708E0,-5.470999718E0,-5.266999602E-1
5.624000000E0,-4.461800098E0,-5.295000076E0,-7.666999698E-1
5.644000000E0,-4.387799740E0,-5.052899837E0,-9.276999831E-1
5.674000000E0,-3.372399807E0,-5.269700050E0,-9.689999819E-1
5.694000000E0,-2.717399836E0,-5.890899658E0,-1.403399944E0
5.714000000E0,-2.897699833E0,-6.152400017E0,-1.716499925E0
5.744000000E0,-3.204900026E0,-5.771699905E0,-2.009700060E0
5.764000000E0,-2.609099865E0,-5.869699955E0,-2.289700031E0
5.784000000E0,-1.654899955E0,-7.074199677E0,-3.061100006E0
5.804000000E0,-1.906399965E0,-7.279599667E0,-3.089799881E0
5.824000000E0,-2.536299944E0,-6.814199924E0,-2.643399954E0
5.854000000E0,-2.560799837E0,-6.100199699E0,-1.324199915E0
5.884000000E0,-1.795899987E0,-5.819499969E0,4.425999820E-1
5.904000000E0,-8.792999983E-1,-5.742599964E0,7.942999601E-1
5.934000000E0,4.794999957E-1,-5.763299942E0,-5.256000161E-1
5.954000000E0,5.940999985E-1,-4.570099831E0,-1.413399935E0
5.974000000E0,9.739999771E-1,-2.759799957E0,-1.140499949E0
6.004000000E0,3.127099991E0,-8.211999536E-1,1.375000030E-1
6.024000000E0,3.345799923E0,1.239999942E-2,4.564999938E-1
6.044000000E0,2.431799889E0,1.097100019E0,4.705999792E-1
6.074000000E0,2.861599922E0,2.026499987E0,9.012999535E-1
6.104000000E0,3.416999817E0,2.865999937E0,2.027499914E0
6.124000000E0,3.863799810E0,3.979499817E0,3.551199913E0
6.144000000E0,4.872399807E0,4.778899670E0,4.452600002E0
6.164003125E0,5.502599716E0,5.276299953E0,4.837199688E0
6.194000000E0,5.617599964E0,5.770400047E0,4.718199730E0
6.214000000E0,5.930899620E0,5.625999928E0,4.372600079E0
6.244000000E0,6.503299713E0,4.988100052E0,3.908499956E0
6.264000000E0,6.416800022E0,4.213099957E0,3.861299992E0
6.284000000E0,5.990799904E0,3.985699892E0,4.746200085E0
6.314000000E0,6.625499725E0,1.411700010E0,5.351699829E0
6.334000000E0,6.410399914E0,8.847999573E-1,6.184999943E0
6.364000000E0,5.783599854E0,1.458999962E-1,6.317299843E0
6.384000000E0,4.641099930E0,-7.605999708E-1,5.784199715E0
6.413998438E0,2.537199974E0,-2.130699873E0,4.638700008E0
6.434000000E0,1.678499937E0,-2.931499958E0,3.748199940E0
6.454000000E0,2.027499914E0,-3.812099934E0,3.593899965E0
6.474000000E0,2.473299980E0,-4.542799950E0,3.911799908E0
6.504000000E0,1.037599921E0,-4.206900120E0,4.494199753E0
6.524000000E0,-5.101000071E-1,-3.584199905E0,4.569999695E0
6.544000000E0,-1.112200022E0,-3.912499905E0,3.962199926E0
6.574000000E0,-1.604599953E0,-4.916599751E0,2.318099976E0
6.604000000E0,-2.948099852E0,-4.519999981E0,9.790999889E-1
6.633998438E0,-3.719599962E0,-3.379599810E0,-4.512999952E-1
6.654000000E0,-3.983899832E0,-2.956799984E0,-1.431800008E0
6.674000000E0,-3.865599871E0,-3.551299810E0,-1.992799997E0
6.704000000E0,-4.745899677E0,-3.699999809E0,-1.548799992E0
6.733998438E0,-5.063799858E0,-3.480899811E0,-7.332999706E-1
6.754000000E0,-4.349899769E0,-3.594899893E0,-3.604999781E-1
6.784000000E0,-2.204299927E0,-4.999399662E0,-1.428300023E0
6.804000000E0,-1.406999946E0,-5.325900078E0,-2.109899998E0
6.824000000E0,-8.082999587E-1,-4.719599724E0,-1.866799951E0
6.844000000E0,1.503999978E-1,-5.274699688E0,-2.100199938E0
6.864000000E0,2.019999921E-1,-5.876199722E0,-2.102299929E0
6.884000000E0,-6.279000044E-1,-5.766999722E0,-1.243700027E0
6.904000000E0,-1.871199965E0,-4.761600018E0,3.170999885E-1
6.934000000E0,-2.626699924E0,-2.559700012E0,3.722399950E0
6.954000000E0,-1.125699997E0,-3.359799862E0,4.286499977E0
6.974000000E0,8.619999886E-2,-3.957299948E0,3.434700012E0
7.004000000E0,4.719999805E-2,-2.525399923E0,8.215999603E-1
7.024000000E0,2.506999969E-1,-8.547999859E-1,-3.431999981E-1
7.044000000E0,4.554999769E-1,7.675999999E-1,-4.518999755E-1
7.074000000E0,4.449999705E-2,2.221400023E0,3.720000014E-2
7.094000000E0,-3.524000049E-1,2.550600052E0,6.204999685E-1
7.114000000E0,-8.715999722E-1,2.669299841E0,9.221999645E-1
7.134000000E0,-1.260599971E0,2.812399864E0,1.187500000E0
7.154000000E0,-1.020900011E0,2.889699936E0,1.545699954E0
7.174000000E0,-2.838000059E-1,2.984599829E0,2.284399986E0
7.204000000E0,8.376999497E-1,4.016999722E0,3.569000006E0
7.224000000E0,2.345799923E0,4.662099838E0,3.866299868E0
7.244000000E0,3.926499844E0,4.575200081E0,3.281800032E0
7.264000000E0,4.233699799E0,4.571700096E0,2.665699959E0
7.284000000E0,3.630499840E0,4.816899776E0,2.587599993E0
7.304000000E0,3.682799816E0,4.173200130E0,2.163499832E0
7.324000000E0,4.300699711E0,2.762399912E0,1.854299903E0
7.344000000E0,4.362199783E0,1.334399939E0,2.330699921E0
7.364000000E0,3.668299913E0,-6.799999624E-3,2.944299936E0
7.384000000E0,2.834499836E0,-8.655999899E-1,3.752899885E0
7.414000000E0,3.058199883E0,-7.422999740E-1,5.142699718E0
7.434000000E0,4.644999981E0,-1.965299964E0,4.713599682E0
7.454000000E0,5.027800083E0,-2.677899837E0,4.608999729E0
7.474000000E0,4.678800106E0,-3.532299995E0,3.937899828E0
7.504000000E0,3.167099953E0,-4.159699917E0,3.399600029E0
7.534000000E0,1.027999997E0,-3.359200001E0,3.261399984E0
7.563998438E0,-3.055999875E-1,-1.812599897E0,3.242599964E0
7.583998438E0,-5.558999777E-1,-1.319700003E0,2.646600008E0
7.604000000E0,-1.057899952E0,-1.216499925E0,1.939000010E0
7.624000000E0,-1.379499912E0,-1.526600003E0,1.167699933E0
7.644000000E0,-1.900299907E0,-1.667699933E0,3.015999794E-1
7.673998438E0,-2.403199911E0,-2.467399836E0,-9.519000053E-1
7.693998438E0,-2.898499966E0,-3.251999855E0,-1.658899903E0
7.713998438E0,-3.763299942E0,-3.504999876E0,-2.141599894E0
7.733998438E0,-4.547599792E0,-3.451599836E0,-1.997899890E0
7.753998438E0,-4.624799728E0,-4.118999958E0,-2.141799927E0
7.773998438E0,-4.724499702E0,-4.367099762E0,-2.517999887E0
7.794000000E0,-4.603899956E0,-4.336599827E0,-2.327800035E0
7.814000000E0,-3.915999889E0,-5.014699936E0,-2.414000034E0
7.844000000E0,-3.058499813E0,-6.513199806E0,-2.413599968E0
7.864000000E0,-3.202499866E0,-6.551300049E0,-2.004499912E0
7.884000000E0,-3.281199932E0,-5.952099800E0,-1.203299999E0
7.914000000E0,-1.605899930E0,-7.241499901E0,-1.480399966E0
7.934000000E0,-1.644199967E0,-7.607999802E0,-1.861400008E0
7.954000000E0,-2.788800001E0,-6.157499790E0,-8.818999529E-1
7.974000000E0,-2.232300043E0,-5.549200058E0,-2.259999886E-2
8.004000000E0,-7.276999950E-1,-5.921400070E0,4.253000021E-1
8.034000000E0,-2.249999903E-2,-4.915400028E0,7.562999725E-1
8.054000000E0,5.651999712E-1,-3.839399815E0,3.006999791E-1
8.074000000E0,8.240000010E-1,-2.532299995E0,-2.714999914E-1
8.104000000E0,4.132999778E-1,-5.963999629E-1,-1.212599993E0
8.124000000E0,-1.132999957E-1,4.272999763E-1,-1.251799941E0
8.144000000E0,-4.199999943E-2,1.094499946E0,-9.549999833E-1
8.174000000E0,1.408699989E0,1.532799959E0,-1.721999943E-1
8.194000000E0,2.969699860E0,1.582999945E0,6.524999738E-1
8.214000000E0,4.163099766E0,2.408699989E0,1.930699944E0
8.234000000E0,4.680799961E0,3.694899797E0,2.902799845E0
8.254000000E0,5.224799633E0,5.027100086E0,3.405999899E0
8.284000000E0,6.853199959E0,5.838799953E0,3.427099943E0
8.314000000E0,8.727700233E0,5.050699711E0,3.299399853E0
8.334000000E0,8.997200012E0,4.196700096E0,3.261600018E0
8.354000000E0,8.281499863E0,3.816699982E0,3.540799856E0
8.374000000E0,8.015600204E0,2.985399961E0,4.640399933E0
8.394000000E0,7.813799858E0,1.819899917E0,5.704999924E0
8.424000000E0,6.612099648E0,2.279099941E0,7.670199871E0
8.444000000E0,6.697599888E0,1.596499920E0,7.922599792E0
8.464000000E0,7.526099682E0,-9.879999608E-2,7.221999645E0
8.494000000E0,8.106699944E0,-2.817199945E0,6.042099953E0
8.523998438E0,6.690700054E0,-4.572899818E0,5.339600086E0
8.544000000E0,3.975600004E0,-4.301199913E0,5.361299992E0
8.574000000E0,7.992999554E-1,-3.706199884E0,5.189499855E0
8.604000000E0,-2.667999864E-1,-3.621099949E0,4.439399719E0
8.624000000E0,-2.351000011E-1,-4.047800064E0,3.522199869E0
8.644000000E0,-4.578999877E-1,-4.656099796E0,2.488100052E0
8.674000000E0,-1.214399934E0,-5.716799736E0,9.059000015E-1
8.694000000E0,-1.888599992E0,-6.109099865E0,2.847999930E-1
8.714000000E0,-2.180199862E0,-6.544600010E0,-6.799999624E-2
8.744000000E0,-2.704999924E0,-6.839499950E0,-6.520000100E-1
8.773998438E0,-3.467700005E0,-7.214299679E0,-1.113600016E0
8.793998438E0,-4.186800003E0,-7.533199787E0,-1.227199912E0
8.814000000E0,-4.564399719E0,-7.818399906E0,-1.214599967E0
8.844000000E0,-4.108699799E0,-7.942999840E0,-1.176900029E0
8.864000000E0,-3.419199944E0,-8.259399414E0,-1.001299977E0
8.884000000E0,-3.122999907E0,-8.807199478E0,-6.636999846E-1
8.904000000E0,-3.484599829E0,-8.884099960E0,-7.463999987E-1
8.934000000E0,-4.911699772E0,-6.751100063E0,5.636999607E-1
8.954000000E0,-4.742599964E0,-5.404599667E0,1.794999957E0
8.974000000E0,-3.605499983E0,-4.815299988E0,2.667799950E0
9.004000000E0,-7.290999889E-1,-5.786399841E0,2.156899929E0
9.034000000E0,-4.589999840E-2,-5.418999672E0,-5.379999802E-2
9.054000000E0,1.250000000E-1,-4.778999805E0,-1.333099961E0
9.074000000E0,2.098999918E-1,-4.082099915E0,-2.061199903E0
9.104000000E0,-7.416999936E-1,-2.498999834E0,-1.181100011E0
9.133998438E0,-1.525399923E0,-1.269899964E0,3.979999945E-2
9.154000000E0,-1.376899958E0,-4.928999841E-1,6.961999536E-1
9.174000000E0,8.609999716E-2,-3.689999878E-2,1.365000010E0
9.194000000E0,1.993499994E0,8.709999919E-1,1.624899983E0
9.214000000E0,3.387300014E0,1.821200013E0,1.943899989E0
9.244000000E0,5.448999882E0,3.418799877E0,1.841199994E0
9.264000000E0,5.953299999E0,4.618400097E0,1.033399940E0
9.293998438E0,6.373899937E0,6.040299892E0,3.542000055E-1
9.314000000E0,7.270099640E0,5.824100018E0,1.699999906E-3
9.344000000E0,8.588500023E0,5.026199818E0,4.581999779E-1
9.364000000E0,8.844699860E0,4.744899750E0,1.558099985E0
9.384000000E0,9.411499977E0,3.569799900E0,2.733000040E0
9.404000000E0,9.520500183E0,2.944700003E0,3.950799942E0
9.434000000E0,8.524399757E0,4.104099751E0,6.372599602E0
9.454000000E0,8.563799858E0,3.331799984E0,6.370299816E0
9.474000000E0,8.942399979E0,2.032399893E0,5.732100010E0
9.504000000E0,9.540999413E0,-7.540000081E-1,4.202199936E0
9.534000000E0,8.054999352E0,-2.167000055E0,3.592299938E0
9.554004688E0,5.697700024E0,-2.248499870E0,3.719899893E0
9.584000000E0,1.939999938E0,-2.142600060E0,3.895200014E0
9.604000000E0,1.835999936E-1,-2.192199945E0,3.872200012E0
9.624000000E0,-1.077999949E0,-2.095900059E0,3.699100018E0
9.644000000E0,-1.666399956E0,-2.405200005E0,3.392099857E0
9.674000000E0,-1.988299966E0,-3.883299828E0,2.197799921E0
9.694000000E0,-2.481199980E0,-4.611099720E0,1.430400014E0
9.714000000E0,-2.796299934E0,-5.430699825E0,6.599999666E-1
9.734000000E0,-3.065099955E0,-6.039000034E0,-8.439999819E-2
9.754000000E0,-3.369899988E0,-6.468599796E0,-6.291999817E-1
9.774000000E0,-3.767599821E0,-6.977599621E0,-8.852999806E-1
9.794000000E0,-4.177799702E0,-7.923299789E0,-6.244999766E-1
9.814000000E0,-4.699899673E0,-8.424300194E0,3.114999831E-1
9.834000000E0,-4.552499771E0,-8.854899406E0,1.186299920E0
9.864000000E0,-3.947499990E0,-8.804299355E0,1.443499923E0
9.884000000E0,-3.741999865E0,-9.004399300E0,8.405999541E-1
9.904000000E0,-3.975600004E0,-9.254899979E0,-4.368999898E-1
9.934000000E0,-4.623799801E0,-7.929100037E0,-6.381999850E-1
9.954000000E0,-3.505499840E0,-7.668299675E0,-1.699999906E-3
9.974000000E0,-1.955899954E0,-7.187199593E0,1.258000016E0
1.000400000E1,1.136099935E0,-6.465999603E0,1.753600001E0
1.002400000E1,2.316799879E0,-5.984799862E0,8.403999805E-1
1.004400000E1,1.592599988E0,-5.576499939E0,-6.671000123E-1
1.007400000E1,-1.080600023E0,-3.645299911E0,-7.200999856E-1
1.010400000E1,-2.197599888E0,-1.621799946E0,8.546999693E-1
1.013399844E1,-2.372999907E0,-2.289999872E-1,1.184099913E0
1.015400000E1,-1.730099916E0,5.126999617E-1,9.407999516E-1
1.017400000E1,-6.230999827E-1,1.063300014E0,1.806000024E-1
1.020400000E1,1.841199994E0,1.608500004E0,-1.853299975E0
1.022400000E1,3.281100035E0,2.177999973E0,-2.582099915E0
1.024400000E1,4.045199871E0,3.147500038E0,-2.511499882E0
1.026400000E1,5.376899719E0,4.033499718E0,-2.403499842E0
1.029400000E1,8.463500023E0,4.240499973E0,-2.293599844E0
1.031400000E1,9.609199524E0,3.774999857E0,-6.100000143E-1
1.033400000E1,1.018989944E1,3.348099947E0,6.552000046E-1
1.036400000E1,1.037440014E1,3.146099806E0,4.687500000E0
1.038400000E1,1.053559971E1,2.819700003E0,6.482199669E0
1.040400000E1,9.990699768E0,3.331399918E0,8.072899818E0
1.043400000E1,8.575300217E0,4.571499825E0,9.069700241E0
1.046400000E1,8.213600159E0,3.825099945E0,7.409199715E0
1.049399844E1,9.710399628E0,3.662999868E-1,6.256999969E0
1.051399844E1,1.058720016E1,-1.935999990E0,5.891200066E0
1.053400000E1,9.543799400E0,-3.029099941E0,5.059999943E0
1.056399844E1,4.977299690E0,-1.372499943E0,4.399899960E0
1.058400000E1,2.355399847E0,-5.374999642E-1,4.434099674E0
1.060400000E1,6.760999560E-1,-3.899999857E-1,4.347099781E0
1.063399844E1,-9.359999746E-2,-1.027500033E0,2.819099903E0
1.065399844E1,-2.088999897E-1,-2.044999838E0,2.028399944E0
1.067400000E1,-6.942999959E-1,-2.798599958E0,1.703899980E0
1.069400000E1,-8.069999814E-1,-3.957899809E0,1.627200007E0
1.071400000E1,-7.577999830E-1,-5.134099960E0,1.236500025E0
1.074400000E1,2.080999911E-1,-6.901700020E0,1.548299909E0
1.077399844E1,2.825299978E0,-7.708699703E0,2.414700031E0
1.079400000E1,4.354799747E0,-8.286199570E0,2.107800007E0
1.081400156E1,4.937299728E0,-8.694399834E0,2.246000051E0
1.084400000E1,3.362299919E0,-7.914299965E0,2.830999851E0
1.086400000E1,3.008599997E0,-7.305500031E0,2.781199932E0
1.088400000E1,3.779899836E0,-7.728199959E0,1.333400011E0
1.090400000E1,1.969499946E0,-6.197199821E0,1.028299928E0
1.092400000E1,3.893999755E-1,-4.772999763E0,4.871999919E-1
1.095399844E1,6.852999926E-1,-3.907999992E0,3.881999850E-1
1.097400000E1,8.043999672E-1,-3.100899935E0,4.635999799E-1
1.100400000E1,1.478699923E0,-3.048300028E0,-5.478999615E-1
1.103400000E1,4.325099945E0,-5.637899876E0,-5.748000145E-1
1.106399844E1,2.830099821E0,-2.629199982E0,-4.622499943E0
1.108400000E1,1.167199969E0,-8.012999892E-1,-2.970199823E0
1.110400000E1,1.056999922E0,-1.179999948E0,-5.697000027E0
1.113399844E1,1.494399905E0,-2.199999988E-3,-6.721600056E0
1.115400000E1,7.787999511E-1,1.278000027E-1,-3.934299946E0
1.117400000E1,-7.364999652E-1,-7.561999559E-1,-3.447299957E0
1.119400000E1,-6.929999590E-2,-4.640999734E-1,-3.973399878E0
1.121400000E1,-5.056999922E-1,9.059999883E-2,-4.801199913E0
1.123400000E1,-1.225899935E0,6.125000119E-1,-5.172999859E0
1.125400000E1,3.506999910E-1,-1.141099930E0,-5.808899879E0
1.128399844E1,-2.907899857E0,2.434099913E0,-2.698999882E0
1.130399844E1,-1.473699927E0,8.330000043E-1,-2.727499962E0
1.132400000E1,3.806999922E-1,6.161999702E-1,-1.648899913E0
1.134400000E1,7.775999904E-1,8.105999827E-1,-1.355799913E0
1.136400000E1,6.085000038E-1,8.809999824E-1,-1.838400006E0
1.138400000E1,2.979999781E-1,1.007300019E0,-3.370899916E0
1.140400000E1,1.937899947E0,9.968999624E-1,-2.773099899E0
1.142400000E1,7.119999826E-2,9.549999982E-2,-3.241600037E0
1.145399844E1,5.419999957E-1,-8.402000070E-1,-4.176099777E0
1.147400000E1,1.770000011E-1,-1.250199914E0,-3.287899971E0
1.150400000E1,-4.452999830E-1,-2.447700024E0,-1.078199983E0
1.153400000E1,5.469999835E-2,-2.142199993E0,6.559000015E-1
1.156399844E1,2.261600018E0,-1.590600014E0,-3.645099878E0
1.158400000E1,2.106799841E0,-1.225199938E0,-2.978099823E0
1.160400000E1,1.439199924E0,-1.389699936E0,-1.020300031E0
1.162400000E1,1.119400024E0,-1.900499940E0,-1.614799976E0
1.164400000E1,1.212399960E0,-2.786200047E0,-3.604699850E0
1.166400000E1,1.259500027E0,-3.378999949E0,-5.025000095E0
1.169399844E1,9.835999608E-1,-4.406499863E0,-7.567199707E0
1.171400000E1,8.210999966E-1,-4.968800068E0,-8.639900208E0
1.173400000E1,1.019299984E0,-6.032299995E0,-9.371500015E0
1.175400000E1,1.318699956E0,-7.271499634E0,-8.630899429E0
1.177400000E1,2.457399845E0,-8.536700249E0,-6.665499687E0
1.179400000E1,4.463500023E0,-1.058759975E1,-5.592299938E0
1.181400000E1,5.941999912E0,-1.249459934E1,-4.484600067E0
1.183400000E1,7.114899635E0,-1.357959938E1,-3.014299870E0
1.185400000E1,9.090099335E0,-1.435199928E1,-1.639499903E0
1.188400000E1,1.299259949E1,-1.586240005E1,-1.833799958E0
1.190400000E1,1.406659985E1,-1.541289997E1,-1.811499953E0
1.192400000E1,1.370289993E1,-1.299269962E1,-1.495599985E0
1.195399844E1,1.214649963E1,-1.059859943E1,-5.609999970E-2
1.197400000E1,1.033020020E1,-8.984600067E0,2.351399899E0
1.200399844E1,9.711599350E0,-6.651899815E0,6.131799698E0
1.202399844E1,1.033619976E1,-5.653100014E0,7.091599941E0
1.204400000E1,8.848899841E0,-3.485100031E0,8.133899689E0
1.207400000E1,3.964099884E0,4.467999935E-1,8.118100166E0
1.210400000E1,1.034899950E0,2.535300016E0,6.776399612E0
1.212400000E1,7.294999957E-1,2.800699949E0,6.152799606E0
1.214400000E1,8.678999543E-1,2.497099876E0,5.746099949E0
1.216400000E1,1.156000018E0,2.181799889E0,6.048099995E0
1.218400000E1,2.023900032E0,2.062000036E0,7.628099918E0
1.221399844E1,3.420699835E0,1.774199963E0,9.812600136E0
1.223400000E1,3.741699934E0,2.412199974E0,1.131009960E1
1.225400000E1,3.819399834E0,2.609200001E0,1.229339981E1
1.228399844E1,3.883299828E0,2.029599905E0,1.327110004E1
1.230399844E1,4.045199871E0,1.249599934E0,1.372079945E1
1.232400000E1,4.060100079E0,1.139500022E0,1.362259960E1
1.234400000E1,3.841399908E0,7.809999585E-1,1.278009987E1
1.237400000E1,4.356599808E0,-9.497999549E-1,1.204019928E1
1.239400000E1,5.084599972E0,-1.890100002E0,1.118050003E1
1.241400000E1,5.184299946E0,-1.681299925E0,1.006659985E1
1.243400000E1,5.638999939E0,-2.258999825E0,8.981999397E0
1.246400000E1,8.342599869E0,-4.534100056E0,7.370499611E0
1.249399844E1,1.284789944E1,-8.154699326E0,5.891200066E0
1.251399844E1,1.443309975E1,-9.944699287E0,4.039099693E0
1.253400000E1,1.380179977E1,-1.162930012E1,2.930899858E0
1.255400000E1,1.020510006E1,-1.183659935E1,2.277099848E0
1.257400000E1,6.084499836E0,-1.093309975E1,1.367399931E0
1.260400000E1,2.245699883E0,-9.416600227E0,-6.566999555E-1
1.262400000E1,1.919399977E0,-9.048299789E0,-1.624499917E0
1.264400000E1,2.781199932E0,-8.455599785E0,-2.100399971E0
1.267400000E1,3.933799982E0,-8.345600128E0,-2.368499994E0
1.269400000E1,3.415799856E0,-8.179800034E0,-3.110199928E0
1.272400000E1,2.369600058E0,-7.920599937E0,-3.642999887E0
1.274400000E1,2.085099936E0,-7.745199680E0,-3.491499901E0
1.277400000E1,1.628399968E0,-7.525300026E0,-2.721099854E0
1.279400000E1,1.827799916E0,-7.277099609E0,-2.369899988E0
1.281400000E1,2.311599970E0,-7.254899979E0,-1.485999942E0
1.284399844E1,2.449800014E0,-6.330299854E0,-1.600999951E0
1.286400000E1,2.276099920E0,-5.659399986E0,-1.625199914E0
1.288400000E1,2.058699846E0,-4.887499809E0,-2.401799917E0
1.290400000E1,2.660399914E0,-4.569399834E0,-3.467999935E0
1.293400000E1,2.876299858E0,-3.183199883E0,-2.527799845E0
1.296400000E1,2.132599831E0,-1.611699939E0,-1.547799945E0
1.299399844E1,2.042700052E0,-1.431599975E0,-1.119199991E0
1.301399844E1,2.426800013E0,-1.320099950E0,-2.462999970E-1
1.303400000E1,3.269899845E0,-1.273199916E0,-5.346999764E-1
1.306399844E1,2.861799955E0,-2.122999877E-1,-2.512599945E0
1.308399844E1,1.783999920E0,5.455999970E-1,-2.089699984E0
1.310400000E1,5.708000064E-1,9.465000033E-1,-1.948199987E0
1.312400000E1,-1.009999961E-1,8.368999958E-1,-2.335999966E0
1.314400000E1,-4.224999845E-1,6.463999748E-1,-2.438299894E0
1.317400000E1,-6.401999593E-1,4.333999753E-1,-2.848099947E0
1.320399844E1,-5.764999986E-1,1.867000014E-1,-4.187500000E0
1.322400000E1,-8.888999820E-1,1.926999986E-1,-4.486999989E0
1.324400000E1,-1.026399970E0,3.191999793E-1,-4.036999702E0
1.326400000E1,-9.141999483E-1,3.746999800E-1,-3.403599977E0
1.329400000E1,-1.073199987E0,2.707999945E-1,-2.597499847E0
1.331400000E1,-1.703599930E0,7.445999980E-1,-1.612199903E0
1.333400000E1,-1.134699941E0,7.559999824E-1,-8.980999589E-1
1.336400000E1,-1.299999934E-2,3.750999868E-1,-7.788999677E-1
1.339400000E1,-8.463999629E-1,6.326999664E-1,5.202999711E-1
1.342399844E1,-1.159199953E0,7.724999785E-1,1.687999964E-1
1.344399844E1,-4.972999990E-1,4.769999981E-1,2.021999955E-1
1.346400000E1,3.849999905E-1,-3.238999844E-1,1.295799971E0
1.348400000E1,2.798999846E-1,-7.547000051E-1,1.428300023E0
1.350400000E1,-8.673999906E-1,-3.822000027E-1,4.275999963E-1
1.353400000E1,-1.985799909E0,-5.289999768E-2,-2.985000014E-1
1.355400000E1,-1.442499995E0,-5.000000000E-1,5.397999883E-1
1.357400000E1,-8.743000031E-1,-7.012000084E-1,1.019600034E0
1.359400000E1,-7.433999777E-1,-7.076999545E-1,1.240599990E0
1.361400156E1,-9.328999519E-1,-6.445999742E-1,9.521999955E-1
1.364400000E1,-1.098600030E0,-3.346999884E-1,-6.934999824E-1
1.367400000E1,-7.737999558E-1,-3.501999974E-1,-1.782699943E0
1.369400000E1,-3.576000035E-1,-3.486999869E-1,-1.866899967E0
1.372400000E1,-1.944999993E-1,-1.226999983E-1,-2.338500023E0
1.374400000E1,-5.347999930E-1,-2.869999968E-2,-2.202299833E0
1.376400000E1,-6.125999689E-1,4.910000041E-2,-1.774099946E0
1.379400000E1,-9.878000021E-1,3.183999956E-1,-1.561199903E0
1.381402188E1,-1.077299953E0,5.906000137E-1,-1.418799996E0
1.384400000E1,-8.210999966E-1,1.138700008E0,-4.050000012E-1
1.386400000E1,-4.447999895E-1,1.173499942E0,8.240000159E-2
1.389400000E1,1.059999987E-1,4.068999887E-1,9.457999468E-1
1.391402813E1,3.628999889E-1,4.057999849E-1,1.288100004E0
1.394400000E1,6.340000033E-1,-3.229999915E-2,2.796999812E-1
1.396400000E1,1.152599931E0,-3.251999915E-1,-2.267999947E-1
1.398400000E1,2.200099945E0,-1.183699965E0,6.715999842E-1
1.400400000E1,2.986199856E0,-1.391099930E0,3.165299892E0
1.402400000E1,3.023399830E0,-1.574000001E0,5.019000053E0
1.404400000E1,2.114300013E0,-1.118399978E0,4.223199844E0
1.407399844E1,1.374699950E0,9.119999409E-2,9.832999706E-1
1.409400000E1,1.189999938E0,4.536999762E-1,-4.338999987E-1
1.411400000E1,4.876999855E-1,3.689999878E-1,9.250000119E-2
1.414400000E1,-1.309299946E0,4.556999803E-1,1.235299945E0
1.417400000E1,-1.546800017E0,8.691999912E-1,-4.082999825E-1
1.419400000E1,-1.574599981E0,1.099499941E0,-1.847199917E0
1.421400000E1,-1.761899948E0,1.171700001E0,-2.644099951E0
1.424400156E1,-1.953599930E0,1.078499913E0,-2.529899836E0
1.427400000E1,-1.370100021E0,9.710999727E-1,-1.564099908E0
1.429400000E1,-1.073300004E0,1.274599910E0,-1.204100013E0
1.431400000E1,-7.422999740E-1,1.532400012E0,-1.079100013E0
1.433400000E1,-6.782000065E-1,1.754599929E0,-8.154000044E-1
1.436400000E1,-9.656999707E-1,2.338000059E0,-1.079100013E0
1.439400000E1,-5.065000057E-1,2.573799849E0,-4.427999854E-1
1.441400000E1,6.199999712E-3,2.157999992E0,1.694299936E0
1.443400000E1,-1.368999928E-1,1.826499939E0,2.881999969E0
1.445400000E1,-2.630999982E-1,1.043499947E0,3.170599937E0
1.447400000E1,-6.377999783E-1,1.588999927E-1,2.688999891E0
1.450400000E1,-1.046100020E0,-9.569000006E-1,2.097699881E0
1.452400000E1,-1.441399932E0,-1.233500004E0,1.654899955E0
1.454400000E1,-1.313599944E0,-1.459299922E0,1.387300014E0
1.456400000E1,-5.695999861E-1,-1.639499903E0,1.541499972E0
1.458400000E1,-3.867999911E-1,-1.530599952E0,1.062500000E0
1.460400000E1,-8.384000063E-1,-1.172500014E0,-1.040999964E-1
1.462400000E1,-8.991000056E-1,-7.579999566E-1,-1.514699936E0
1.464400000E1,-6.330999732E-1,-5.360999703E-1,-2.921200037E0
1.466400000E1,-6.256999969E-1,-5.680999756E-1,-4.008500099E0
1.468400000E1,-7.631999850E-1,-6.184999943E-1,-4.811399937E0
1.471400000E1,-2.705000043E-1,-8.727999926E-1,-6.235899925E0
1.474400000E1,-3.370000049E-2,-9.907999635E-1,-7.603899956E0
1.476400000E1,-5.631999969E-1,-9.985999465E-1,-8.180999756E0
1.479400000E1,-7.254999876E-1,-1.403100014E0,-7.657799721E0
1.481400000E1,4.089999944E-2,-1.639699936E0,-8.198299408E0
1.483400000E1,1.903399944E0,-2.684799910E0,-8.666600227E0
1.486400000E1,2.262399912E0,-3.843099833E0,-6.401799679E0
1.489400000E1,1.487999916E0,-5.074199677E0,-3.247200012E0
1.491400000E1,3.054600000E0,-5.815899849E0,-2.824699879E0
1.493400000E1,5.899299622E0,-7.217199802E0,-4.401799679E0
1.496400000E1,5.664599895E0,-8.889800072E0,-4.466000080E0
1.499399844E1,3.668599844E0,-9.906099319E0,-3.273200035E0
1.501400000E1,4.082299709E0,-1.054979992E1,-3.143800020E0
1.503400000E1,6.249199867E0,-1.161919975E1,-2.166899920E0
1.505400000E1,8.369999886E0,-1.240129948E1,-5.819999576E-1
1.507400000E1,8.974299431E0,-1.256139946E1,-1.963000000E-1
1.510400000E1,7.939699650E0,-1.216790009E1,-5.101000071E-1
1.513399844E1,7.673099995E0,-9.842000008E0,5.850999951E-1
1.515400000E1,7.404799938E0,-8.042799950E0,1.530200005E0
1.518399844E1,5.067999840E0,-5.205399990E0,3.837199926E0
1.520399844E1,3.482599974E0,-3.822999954E0,4.721199989E0
1.522399844E1,2.395799875E0,-3.117699862E0,6.189799786E0
1.524399844E1,1.944199920E0,-2.888200045E0,7.375899792E0
1.526399844E1,2.157500029E0,-2.708199978E0,8.708199501E0
1.528399844E1,2.975399971E0,-2.220999956E0,9.827699661E0
1.530399844E1,4.306200027E0,-1.597399950E0,1.014859962E1
1.532399844E1,4.722700119E0,-7.680999637E-1,9.975799561E0
1.534400000E1,4.199599743E0,3.782999814E-1,1.015149975E1
1.536400000E1,4.084899902E0,9.847999811E-1,1.027079964E1
1.539400000E1,5.294499874E0,7.662999630E-1,1.163159943E1
1.541400000E1,6.319999695E0,1.784999967E-1,1.271679974E1
1.543400000E1,6.858299732E0,-4.677999914E-1,1.394569969E1
1.545400000E1,6.720900059E0,-2.087399960E0,1.368260002E1
1.547400000E1,5.419499874E0,-2.746099949E0,1.240950012E1
1.550400000E1,5.205299854E0,-3.307199955E0,1.059899998E1
1.552400000E1,6.394899845E0,-4.134399891E0,9.718299866E0
1.554400000E1,7.590899944E0,-6.041899681E0,8.400300026E0
1.557400000E1,8.573699951E0,-9.819199562E0,5.796799660E0
1.560400000E1,8.072799683E0,-1.200309944E1,2.767299891E0
1.562400000E1,5.442800045E0,-1.101189995E1,1.040599942E0
1.565400000E1,1.749699950E0,-8.562600136E0,-6.068999767E-1
1.567400000E1,7.609999925E-2,-7.045799732E0,-1.845199943E0
1.569400000E1,-8.574999571E-1,-6.126899719E0,-2.274799824E0
1.572400000E1,-2.309599876E0,-5.133699894E0,-2.479500055E0
1.574400000E1,-3.481799841E0,-4.889499664E0,-2.903299809E0
1.576400000E1,-4.777100086E0,-4.539400101E0,-2.985199928E0
1.579400000E1,-5.927499771E0,-5.062599659E0,-3.671899796E0
1.581400156E1,-6.461599827E0,-5.291899681E0,-3.746599913E0
1.584399844E1,-6.769599915E0,-5.654099941E0,-3.755699873E0
1.586400000E1,-6.408499718E0,-5.956399918E0,-3.716699839E0
1.589403750E1,-4.685199738E0,-6.776799679E0,-3.230700016E0
1.592399844E1,-3.489699841E0,-7.577799797E0,-2.570699930E0
1.594400000E1,-3.344099998E0,-7.603999615E0,-2.566299915E0
1.596400000E1,-3.579099894E0,-7.400899887E0,-2.953299999E0
1.598400000E1,-3.282699823E0,-8.291600227E0,-2.396800041E0
1.600400000E1,-3.534999847E0,-8.754899979E0,-2.044600010E0
1.602400000E1,-4.118199825E0,-8.156899452E0,-1.366699934E0
1.604400000E1,-4.588699818E0,-6.898900032E0,-1.039899945E0
1.607400000E1,-2.193399906E0,-6.262599945E0,6.350000203E-2
1.610400000E1,2.086699963E0,-7.019299984E0,6.599000096E-1
1.612400000E1,3.133800030E0,-7.199499607E0,4.263999760E-1
1.615400000E1,1.667999983E0,-5.816699982E0,-1.002699971E0
1.617400000E1,6.347000003E-1,-4.261099815E0,-9.733999968E-1
1.619400000E1,5.523999929E-1,-3.211799860E0,-1.034399986E0
1.621400000E1,3.409999907E-1,-2.375099897E0,2.413999885E-1
1.623400000E1,-4.634999931E-1,-1.426100016E0,1.710199952E0
1.625400000E1,-7.706999779E-1,-8.296999931E-1,2.946199894E0
1.627400000E1,-5.320999622E-1,-5.360000134E-1,3.341300011E0
1.629400000E1,5.001000166E-1,7.800000161E-2,3.391799927E0
1.631400000E1,2.261299849E0,2.951000035E-1,3.047600031E0
1.633400000E1,3.740299940E0,8.269000053E-1,2.024299860E0
1.635400000E1,5.338399887E0,1.945099950E0,1.996199965E0
1.637400000E1,7.215799809E0,2.634999990E0,1.279999971E0
1.639400000E1,8.936599731E0,3.200699806E0,1.286199927E0
1.642400000E1,9.959499359E0,3.539499998E0,2.578599930E0
1.645400000E1,1.116249943E1,3.144599915E0,4.586899757E0
1.647400000E1,1.125999928E1,2.807999849E0,6.309399605E0
1.649400000E1,1.134029961E1,1.749099970E0,8.313799858E0
1.651400000E1,1.099459934E1,1.403999925E-1,9.776399612E0
1.653400000E1,9.015699387E0,5.959999561E-1,1.091090012E1
1.655400000E1,8.007399559E0,3.428999782E-1,1.064929962E1
1.657400000E1,7.849099636E0,-3.712999821E-1,8.939199448E0
1.660400000E1,9.078700066E0,-3.051199913E0,6.412600040E0
1.662400000E1,9.213500023E0,-4.796799660E0,4.838699818E0
1.665399844E1,8.113999367E0,-6.320299625E0,3.429299831E0
1.667400000E1,5.886699677E0,-5.690499783E0,3.035399914E0
1.669400000E1,3.190399885E0,-4.822400093E0,2.720299959E0
1.672400000E1,9.290000051E-2,-3.814099789E0,2.297299862E0
1.674400000E1,-1.131299973E0,-3.390899897E0,2.145299911E0
1.676400000E1,-1.310199976E0,-3.715199947E0,1.925599933E0
1.679400000E1,-8.579999804E-1,-5.223799706E0,1.509099960E0
1.681400000E1,-9.563999772E-1,-6.382400036E0,1.152899981E0
1.683400000E1,-1.728299975E0,-7.228399754E0,1.074000001E0
1.685400000E1,-3.000200033E0,-7.500000000E0,1.004999995E0
1.687400000E1,-4.106499672E0,-7.326099873E0,1.164600015E0
1.689400000E1,-4.782000065E0,-7.449100018E0,1.009699941E0
1.691400000E1,-5.303499699E0,-7.439799786E0,6.768000126E-1
1.693400000E1,-5.649299622E0,-7.637399673E0,4.369999841E-2
1.696400000E1,-5.572700024E0,-8.644399643E0,-5.587999821E-1
1.699399844E1,-6.487899780E0,-8.667200089E0,-2.531000078E-1
1.701400000E1,-6.504199982E0,-9.047599792E0,-4.529999942E-2
1.703400000E1,-6.422499657E0,-9.552899361E0,-4.678999782E-1
1.706400000E1,-6.721399784E0,-8.833700180E0,-5.511999726E-1
1.708400000E1,-5.962800026E0,-7.667799950E0,6.909999996E-2
1.710400156E1,-3.573199987E0,-7.735199928E0,4.039999843E-1
1.713399844E1,7.833999991E-1,-8.631299973E0,5.357999802E-1
1.715399844E1,1.663999915E0,-8.310799599E0,6.611999869E-1
1.717400000E1,1.368499994E0,-7.249399662E0,1.420000009E-2
1.719400000E1,7.827999592E-1,-5.417699814E0,-9.070000052E-1
1.721400000E1,6.557999849E-1,-3.663899899E0,-1.350700021E0
1.723400000E1,5.325999856E-1,-2.129299879E0,-1.012599945E0
1.725400000E1,2.590000033E-1,-8.007000089E-1,-2.140999883E-1
1.728399844E1,8.183999658E-1,1.789999902E-1,-3.346999884E-1
1.730400000E1,1.806999922E0,3.350999951E-1,-5.149999857E-1
1.732400000E1,3.227499962E0,-9.799999744E-2,-2.151999921E-1
1.734400000E1,4.600999832E0,-3.922999799E-1,6.972000003E-1
1.736400000E1,5.903199673E0,-5.982999802E-1,1.986199975E0
1.739400000E1,8.438099861E0,7.376999855E-1,3.285199881E0
1.741400000E1,1.007649994E1,1.907099962E0,2.909600019E0
1.743400000E1,1.115810013E1,3.151099920E0,2.821099997E0
1.746400000E1,1.238999939E1,4.114299774E0,4.088799953E0
1.749399844E1,1.287650013E1,4.356599808E0,6.240299702E0
1.751400000E1,1.434169960E1,2.795199871E0,6.579799652E0
1.753400000E1,1.388389969E1,8.939999938E-1,7.168399811E0
1.756399844E1,8.631500244E0,5.500999689E-1,7.301300049E0
1.758400000E1,6.494499683E0,3.041000068E-1,6.710399628E0
1.760400000E1,6.361599922E0,-2.784000039E-1,6.285699844E0
1.762400000E1,7.282899857E0,-1.670199990E0,5.368999958E0
1.764400000E1,8.192399979E0,-3.185499907E0,4.267300129E0
1.767400000E1,8.402099609E0,-5.015100002E0,2.820199966E0
1.769400000E1,7.145599842E0,-5.038899899E0,2.589699984E0
1.771400000E1,5.089999676E0,-3.913699865E0,3.196799994E0
1.773400000E1,3.246199846E0,-2.991400003E0,3.671099901E0
1.775400000E1,1.908199906E0,-2.693599939E0,3.933599949E0
1.778399844E1,-2.759999968E-2,-3.358799934E0,3.707499981E0
1.780400000E1,-1.056800008E0,-4.037799835E0,3.498600006E0
1.782400000E1,-1.699199915E0,-4.936800003E0,3.174599886E0
1.784400000E1,-2.127699852E0,-5.715300083E0,2.667799950E0
1.786400000E1,-2.275399923E0,-6.424499989E0,2.025500059E0
1.788400000E1,-2.416699886E0,-6.652599812E0,1.845399976E0
1.790400000E1,-2.730999947E0,-7.024999619E0,1.607999921E0
1.793400000E1,-3.288399935E0,-7.250899792E0,1.542299986E0
1.796400000E1,-3.716899872E0,-7.031099796E0,2.011100054E0
1.799399844E1,-3.677099943E0,-6.628699780E0,2.447000027E0
1.801400000E1,-3.729300022E0,-6.437299728E0,2.673199892E0
1.803400000E1,-3.457799911E0,-6.703000069E0,2.855899811E0
1.805400000E1,-2.805699825E0,-7.843099594E0,2.378700018E0
1.807400000E1,-3.122399807E0,-9.041299820E0,1.336699963E0
1.809400000E1,-5.223999977E0,-8.464099884E0,1.158100009E0
1.811400000E1,-7.137099743E0,-6.892899990E0,1.663100004E0
1.814400000E1,-5.578299999E0,-6.308699608E0,2.698099852E0
1.816400000E1,-2.096799850E0,-6.694999695E0,2.284100056E0
1.818400000E1,6.474999785E-1,-6.460499763E0,1.632099986E0
1.820400000E1,1.313699961E0,-5.605199814E0,1.358600020E0
1.823400000E1,-2.313999981E-1,-3.595899820E0,3.606999815E-1
1.825400000E1,-2.013099909E0,-2.339499950E0,-1.096000001E-1
1.827400000E1,-3.217099905E0,-1.569700003E0,-2.953000069E-1
1.829400000E1,-3.738699913E0,-1.456499934E0,-5.849999785E-1
1.832400000E1,-3.820299864E0,-1.815199971E0,-9.491999745E-1
1.834400000E1,-2.718299866E0,-1.968499899E0,-1.134699941E0
1.836400000E1,-1.408800006E0,-1.252499938E0,-1.490199924E0
1.838400000E1,-1.639999896E-1,-3.802999854E-1,-2.279099941E0
1.840400000E1,1.645999908E0,-2.062999904E-1,-2.188400030E0
1.843400000E1,5.801300049E0,1.142499924E0,-1.078799963E0
1.845400000E1,5.513400078E0,2.119400024E0,-2.424299955E0
1.847400000E1,5.440899849E0,1.706900001E0,-3.410300016E0
1.850400000E1,6.603299618E0,8.059999943E-1,-3.338399887E0
1.853400000E1,8.764699936E0,-9.333999753E-1,-1.369199991E0
1.856399844E1,8.921099663E0,-1.309599996E0,1.620800018E0
1.858400000E1,8.588699341E0,-5.169999972E-2,4.262199879E0
1.860400000E1,9.090600014E0,-6.099999882E-3,5.700699806E0
1.862400000E1,9.288599968E0,-1.644999981E-1,6.496599674E0
1.865400000E1,8.414400101E0,7.349999994E-2,6.699499607E0
1.867400000E1,7.020599842E0,9.743999839E-1,6.301599979E0
1.869400000E1,5.395599842E0,2.022899866E0,5.958499908E0
1.872400000E1,2.930899858E0,3.385200024E0,5.461400032E0
1.874400000E1,1.537499905E0,3.808300018E0,5.039499760E0
1.876400000E1,5.977999568E-1,3.984699965E0,4.382199764E0
1.879400000E1,9.286999702E-1,3.041199923E0,2.924199820E0
1.881400000E1,1.667299986E0,1.704499960E0,2.108899832E0
1.883400000E1,2.489599943E0,6.169999763E-2,1.353399992E0
1.886400000E1,3.086299896E0,-1.664600015E0,9.966999888E-1
1.888400000E1,3.082700014E0,-2.556799889E0,9.075999856E-1
1.890400000E1,2.668900013E0,-3.297999859E0,9.813999534E-1
1.892400000E1,2.045500040E0,-3.960399866E0,9.765999913E-1
1.895399844E1,1.395399928E0,-5.375499725E0,8.201999664E-1
1.897400000E1,7.930000126E-2,-5.690599918E0,1.059599996E0
1.900399844E1,-1.292199969E0,-6.897099972E0,1.667199969E0
1.902399844E1,-2.072399855E0,-7.861299992E0,2.262199879E0
1.904400000E1,-3.383399963E0,-7.954099655E0,2.637599945E0
1.907399844E1,-7.816099644E0,-3.823699951E0,4.045099735E0
1.909399844E1,-7.344699860E0,-2.677500010E0,4.666299820E0
1.911399844E1,-4.295000076E0,-4.372099876E0,2.945600033E0
1.913399844E1,-2.224299908E0,-5.834799767E0,1.379499912E0
1.915399844E1,-2.386199951E0,-6.134899616E0,-7.629999518E-2
1.917399844E1,-3.800799847E0,-5.081500053E0,-1.980499983E0
1.919399844E1,-5.391599655E0,-3.719099998E0,-3.332899809E0
1.921399844E1,-6.243000031E0,-2.677099943E0,-4.060400009E0
1.923399844E1,-5.780699730E0,-2.595799923E0,-3.498299837E0
1.925399844E1,-4.860099792E0,-2.887199879E0,-2.442999840E0
1.927400000E1,-4.247499943E0,-3.016199827E0,-1.722399950E0
1.929400000E1,-4.246599674E0,-2.673399925E0,-1.580699921E0
1.932400000E1,-4.832299709E0,-1.792299986E0,-1.943699956E0
1.935400000E1,-5.553099632E0,1.889999956E-2,-8.410999775E-1
1.938399844E1,-4.827899933E0,2.000599861E0,1.120299935E0
1.940400000E1,-3.969099998E0,3.060699940E0,1.499699950E0
1.943399844E1,-1.355299950E0,4.638000011E0,1.019500017E0
1.945399844E1,5.909999609E-1,4.668399811E0,-1.561399937E0
1.947400000E1,1.604299903E0,5.412299633E0,-4.153199673E0
1.950399844E1,1.699699998E0,7.214999676E0,-6.888499737E0
1.952399844E1,2.817199945E0,7.218899727E0,-6.762599945E0
1.954399844E1,5.710700035E0,2.726300001E0,-5.900099754E0
1.956399844E1,6.284599781E0,-1.495899916E0,-4.788000107E0
1.958399844E1,7.782599926E0,-7.547099590E0,-3.910699844E0
1.960399844E1,8.760799408E0,-1.305959988E1,-2.307499886E0
1.962399844E1,4.645199776E0,-1.000000000E1,1.688300014E0
1.964399844E1,2.402299881E0,-5.739500046E0,5.713999748E0
1.966399844E1,2.394500017E0,-4.619999886E0,8.287099838E0
1.968399844E1,1.688899994E0,-4.344699860E0,9.851499557E0
1.970399844E1,1.229200006E0,-3.936299801E0,8.536399841E0
1.972399844E1,1.099999994E-2,-1.511899948E0,4.039799690E0
1.974399844E1,1.251000017E-1,4.765999913E-1,1.512799978E0
1.976399844E1,1.445299983E0,1.782999933E-1,-9.449999779E-2
1.978399844E1,2.449699879E0,-9.264000058E-1,-7.669000030E-1
1.980399844E1,2.278899908E0,-1.512399912E0,-7.580999732E-1
1.982399844E1,2.995699883E0,-3.527799845E0,-1.204499960E0
1.984399844E1,2.452699900E0,-5.050199986E0,-9.393000007E-1
1.986399844E1,3.754999936E-1,-3.783799887E0,1.074800014E0
1.988399844E1,5.018000007E-1,-3.203299999E0,2.861500025E0
1.990399844E1,2.272199869E0,-4.036099911E0,3.655299902E0
1.992399844E1,2.243599892E0,-3.342000008E0,3.851199865E0
1.994399844E1,8.931999803E-1,-8.348000050E-1,3.917299986E0
1.996399844E1,-5.103999972E-1,1.788599968E0,3.137699842E0
1.998399844E1,-8.716999888E-1,3.105099916E0,2.078199863E0
2.000399844E1,-9.779999852E-1,3.764199972E0,9.098999500E-1
2.002399844E1,-2.121899843E0,4.869400024E0,-4.479999840E-1
2.004399844E1,-3.907799959E0,6.623799801E0,-1.025099993E0
2.006399844E1,-4.901099682E0,8.281000137E0,-6.021999717E-1
2.008399844E1,-4.697000027E0,9.449299812E0,5.641999841E-1
2.010399844E1,-2.881299973E0,9.709699631E0,1.599399924E0
2.012399844E1,-9.347999692E-1,9.626099586E0,1.599099994E0
2.014399844E1,6.718999743E-1,8.548399925E0,-4.469999969E-1
2.016399844E1,1.107999921E0,7.197899818E0,-3.993999958E0
2.018399844E1,2.414199829E0,3.061399937E0,-7.394899845E0
2.020399844E1,2.800499916E0,-1.891599894E0,-8.551300049E0
2.022399844E1,2.471400023E0,-5.128200054E0,-3.998299837E0
2.024399844E1,4.277699947E0,-7.643499851E0,1.051900029E0
2.026399844E1,5.753999710E0,-8.979899406E0,2.992300034E0
2.028399844E1,5.398900032E0,-9.364600182E0,2.574100018E0
2.030399844E1,2.844199896E0,-7.859200001E0,1.796799898E0
2.032399844E1,-3.088999987E-1,-5.170000076E0,1.624899983E0
2.034399844E1,-2.304199934E0,-3.379699945E0,2.055500031E0
2.036399844E1,-3.418499947E0,-2.633499861E0,2.515599966E0
2.038400000E1,-3.772099972E0,-2.513900042E0,2.768399954E0
2.040400000E1,-3.582999945E0,-2.081699848E0,2.706799984E0
2.043399844E1,-2.486599922E0,-2.171999961E-1,2.463399887E0
2.045399844E1,-1.515699983E0,1.444299936E0,2.990700006E0
2.047399844E1,-7.886999846E-1,3.088799953E0,3.366599798E0
2.049399844E1,1.995999932E0,1.163699985E0,1.873299956E0
2.051399844E1,5.102299690E0,-5.050999641E0,-1.097100019E0
2.053400000E1,3.598999977E0,-7.747499943E0,-2.893399954E0
2.055400000E1,1.570799947E0,-7.181200027E0,-1.376799941E0
2.058399844E1,2.925199986E0,-4.727200031E0,1.619799972E0
2.060399844E1,4.039499760E0,-2.749799967E0,1.246199965E0
2.062399844E1,3.534799814E0,-9.462999701E-1,-7.466999888E-1
2.064399844E1,1.874399900E0,1.974999905E-1,-2.337800026E0
2.066399844E1,2.210999876E-1,8.651999831E-1,-2.335099936E0
2.068399844E1,-7.443999648E-1,1.428900003E0,-1.325500011E0
2.070399844E1,-9.409999847E-1,2.064899921E0,3.421999812E-1
2.072399844E1,-1.083899975E0,2.794999838E0,1.663800001E0
2.074399844E1,-1.354699969E0,3.632200003E0,2.354099989E0
2.076399844E1,-2.076900005E0,4.808000088E0,2.699800014E0
2.078399844E1,-2.659099817E0,6.404500008E0,2.810799837E0
2.080399844E1,-2.720499992E0,8.022999763E0,2.569299936E0
2.082399844E1,-2.188499928E0,9.338799477E0,1.843099952E0
2.084399844E1,-1.235099912E0,1.023600006E1,5.845000148E-1
2.086399844E1,-3.414999843E-1,1.011100006E1,-1.629499912E0
2.088400000E1,3.039999865E-2,9.342899323E0,-4.726399899E0
2.091399844E1,-5.166999698E-1,8.371299744E0,-8.469299316E0
2.093400000E1,2.063699961E0,3.756199837E0,-7.208399773E0
2.096399844E1,4.755300045E0,-2.237499952E0,-3.140100002E0
2.098399844E1,5.180200100E0,-5.036499977E0,-8.628000021E-1
2.100399844E1,5.382800102E0,-7.757799625E0,1.997099996E0
2.102399844E1,4.578299999E0,-7.373299599E0,4.316199780E0
2.104399844E1,4.459899902E0,-5.707200050E0,4.950999737E0
2.106399844E1,4.113199711E0,-4.055399895E0,2.988099813E0
2.108399844E1,2.460099936E0,-2.180099964E0,1.240700006E0
2.110399844E1,1.444499969E0,-1.123099923E0,1.140299916E0
2.112399844E1,8.975999951E-1,-4.491999745E-1,1.512799978E0
2.114399844E1,2.630999982E-1,8.136999607E-1,2.394199848E0
2.116399844E1,1.625800014E0,8.774999976E-1,3.519699812E0
2.118399844E1,5.166500092E0,-2.482599974E0,3.337499857E0
2.120399844E1,6.501800060E0,-5.978999615E0,2.160699844E0
2.122399844E1,5.398399830E0,-6.707699776E0,1.880199909E0
2.124399844E1,5.025700092E0,-5.841499805E0,2.437099934E0
2.126399844E1,6.895299911E0,-4.574699879E0,2.731199980E0
2.128399844E1,8.373999596E0,-2.415899992E0,3.139600039E0
2.130399844E1,8.734000206E0,-8.816999793E-1,3.305199862E0
2.132399844E1,7.347399712E0,-6.369000077E-1,2.446599960E0
2.134399844E1,3.871799946E0,-5.489999652E-1,1.095399976E0
2.136399844E1,-2.782000005E-1,6.352999806E-1,-4.209999740E-2
2.138399844E1,-3.620999813E0,2.493499994E0,-6.547999978E-1
2.140400938E1,-5.508399963E0,4.110799789E0,-1.054999948E0
2.143399844E1,-6.676199913E0,4.964200020E0,-8.474999666E-1
2.145399844E1,-6.549900055E0,4.650499821E0,1.516999900E-1
2.147400000E1,-6.082099915E0,3.301299810E0,4.902999997E-1
2.149400000E1,-5.669799805E0,1.261500001E0,-3.179999888E-1
2.151400000E1,-6.169799805E0,-4.748999774E-1,-2.196599960E0
2.153400000E1,-6.547999859E0,-1.727699995E0,-4.051099777E0
2.156400000E1,-6.361799717E0,-3.597999811E0,-6.720699787E0
2.159399844E1,-5.305299759E0,-6.849299908E0,-7.570999622E0
2.161400000E1,-5.385600090E0,-8.904500008E0,-7.326399803E0
2.164399844E1,-6.725800037E0,-1.075729942E1,-5.682300091E0
2.166399844E1,-7.253900051E0,-1.147649956E1,-2.934700012E0
2.168399844E1,-7.604300022E0,-1.167379951E1,2.883000076E-1
2.170400000E1,-6.707399845E0,-1.213189983E1,3.579199791E0
2.173399844E1,-4.137399673E0,-1.214509964E1,6.498499870E0
2.175399844E1,-2.473599911E0,-1.209969997E1,6.653299809E0
2.177399844E1,1.310500026E0,-1.609829903E1,4.042599678E0
2.179399844E1,3.907899857E0,-2.000419998E1,1.148299932E0
2.181399844E1,4.083399773E0,-2.057819939E1,5.299999844E-3
2.183399844E1,4.757400036E0,-1.850099945E1,1.510900021E0
2.185399844E1,8.278499603E0,-1.568089962E1,3.251099825E0
2.187399844E1,1.212259960E1,-1.201340008E1,3.966799974E0
2.189400000E1,1.342879963E1,-6.965499878E0,4.253699780E0
2.192399844E1,1.231509972E1,-1.010499954E0,2.492899895E0
2.194399844E1,9.222399712E0,2.282399893E0,1.821999907E0
2.196399844E1,7.634500027E0,3.743499994E0,1.765799999E0
2.198399844E1,7.377199650E0,4.217299938E0,1.575799942E0
2.200399844E1,7.540899754E0,4.184299946E0,1.964399934E0
2.202399844E1,8.164099693E0,3.712899923E0,2.731400013E0
2.204399844E1,8.768199921E0,3.254400015E0,3.911499977E0
2.206399844E1,9.865799904E0,2.409600019E0,5.321899891E0
2.208399844E1,1.096409988E1,1.786000013E0,6.280499935E0
2.210399844E1,1.228870010E1,1.269999981E0,7.290499687E0
2.212399844E1,1.358099937E1,1.280599952E0,8.090700150E0
2.214399844E1,1.511909962E1,1.625299931E0,8.702799797E0
2.216399844E1,1.611120033E1,5.573999882E-1,9.191699982E0
2.218399844E1,1.724989891E1,-2.781599998E0,1.084429932E1
2.220399844E1,1.567700005E1,-3.358699799E0,1.187389946E1
2.222399844E1,1.480539989E1,-2.675400019E0,1.231639957E1
2.224399844E1,1.511429977E1,-2.765499830E0,1.056159973E1
2.226399844E1,1.540689945E1,-4.108900070E0,9.763699532E0
2.228399844E1,1.517639923E1,-7.589799881E0,8.069000244E0
2.230399844E1,1.459859943E1,-1.162930012E1,4.486299992E0
2.232399844E1,1.194329929E1,-1.287139988E1,7.463999987E-1
2.234399844E1,8.458799362E0,-1.125769997E1,-2.644000053E-1
2.236399844E1,6.711899757E0,-9.932000160E0,4.880999923E-1
2.238399844E1,5.775700092E0,-9.474299431E0,1.250599980E0
2.240399844E1,4.843299866E0,-9.628099442E0,1.334399939E0
2.242399844E1,3.011299849E0,-9.675399780E0,1.309599996E0
2.244399844E1,1.633299947E0,-1.014249992E1,1.103199959E0
2.246399844E1,1.004999951E-1,-1.016669941E1,1.096199989E0
2.248399844E1,-1.314499974E0,-9.891200066E0,1.509699941E0
2.250399844E1,-2.207999945E0,-1.002040005E1,1.703599930E0
2.252399844E1,-2.773999929E0,-1.000419998E1,1.720699906E0
2.254399844E1,-2.928900003E0,-1.065450001E1,1.801399946E0
2.256399844E1,-2.837399960E0,-1.180749989E1,2.051599979E0
2.258399844E1,-2.729799986E0,-1.313239956E1,2.306499958E0
2.260400000E1,-3.194299936E0,-1.350999928E1,2.113600016E0
2.263400000E1,-5.008699894E0,-1.221479988E1,1.254299998E0
2.265400000E1,-6.014299870E0,-1.113359928E1,1.391399980E0
2.268399844E1,-7.208999634E0,-9.716799736E0,2.790299892E0
2.270399844E1,-7.851299763E0,-8.990499496E0,3.404899836E0
2.272399844E1,-7.816099644E0,-9.109199524E0,3.676899910E0
2.274399844E1,-7.122599602E0,-1.035289955E1,3.564199924E0
2.276399844E1,-6.814099789E0,-1.151489925E1,3.683099985E0
2.278399844E1,-6.919299603E0,-1.173779964E1,3.690799952E0
2.280399844E1,-6.276099682E0,-1.164439964E1,2.910699844E0
2.282399844E1,-4.725599766E0,-1.134420013E1,1.825299978E0
2.284399844E1,-2.808899879E0,-1.036289978E1,1.410799980E0
2.286399844E1,-9.991999865E-1,-8.841599464E0,1.343999982E0
2.288400000E1,4.757999778E-1,-7.477699757E0,1.262599945E0
2.291399844E1,1.793699980E0,-6.347099781E0,5.245999694E-1
2.293399844E1,2.262300014E0,-5.971299648E0,-2.965999842E-1
2.295399844E1,3.437199831E0,-6.107199669E0,-1.383099914E0
2.297399844E1,5.466799736E0,-5.932699680E0,-2.349900007E0
2.299399844E1,8.212499619E0,-5.879899979E0,-2.851199865E0
2.301399844E1,1.069899940E1,-5.467700005E0,-2.337599993E0
2.303399844E1,1.213999939E1,-4.177499771E0,-1.017300010E0
2.305399844E1,1.357030010E1,-2.202100039E0,-2.602999806E-1
2.307399844E1,1.469999981E1,-5.066999793E-1,8.879999816E-2
2.309399844E1,1.470219994E1,1.303900003E0,8.842999935E-1
2.311399844E1,1.448279953E1,2.313099861E0,1.909199953E0
2.313400000E1,1.361940002E1,3.271399975E0,4.295000076E0
2.315400000E1,1.219709969E1,4.123099804E0,6.056299686E0
2.318399844E1,1.004879951E1,3.372999907E0,6.937299728E0
2.320399844E1,7.554899693E0,3.645699978E0,6.206999779E0
2.322399844E1,6.041999817E0,3.993199825E0,5.895099640E0
2.324399844E1,6.842499733E0,3.382299900E0,5.585700035E0
2.326399844E1,9.520500183E0,1.235199928E0,5.419099808E0
2.328399844E1,1.227069950E1,-1.272899985E0,5.306799889E0
2.330399844E1,1.348049927E1,-3.108700037E0,4.632499695E0
2.332399844E1,1.258069992E1,-3.832299948E0,3.930699825E0
2.334399844E1,1.048439980E1,-4.022799969E0,3.460500002E0
2.336399844E1,7.777999878E0,-3.965699911E0,3.070499897E0
2.338399844E1,5.366600037E0,-4.668399811E0,2.052299976E0
2.340399844E1,3.306999922E0,-5.538799763E0,7.839999795E-1
2.342399844E1,9.437999725E-1,-5.813799858E0,-6.897999644E-1
2.344399844E1,-8.878999949E-1,-6.177000046E0,-1.544999957E0
2.346399844E1,-3.113199949E0,-6.379999638E0,-2.613499880E0
2.348399844E1,-4.742000103E0,-6.508299828E0,-2.837299824E0
2.350399844E1,-6.088299751E0,-7.078299999E0,-3.418299913E0
2.352399844E1,-7.262399673E0,-7.613299847E0,-3.756500006E0
2.354399844E1,-8.403800011E0,-8.289299965E0,-3.950799942E0
2.356399844E1,-9.562500000E0,-9.480500221E0,-4.573299885E0
2.358399844E1,-1.043820000E1,-1.036919975E1,-4.492700100E0
2.360400000E1,-1.006869984E1,-1.078429985E1,-3.502399921E0
2.363400000E1,-7.817099571E0,-1.076900005E1,-1.968699932E0
2.365400000E1,-6.290499687E0,-1.017089939E1,-1.017099977E0
2.368399844E1,-3.511799812E0,-1.066160011E1,-5.356999636E-1
2.370399844E1,-1.842299938E0,-1.074639988E1,2.224999964E-1
2.372399844E1,-1.190299988E0,-9.482999802E0,1.198899984E0
2.374399844E1,-7.224000096E-1,-7.629899979E0,2.473299980E0
2.376399844E1,1.341999918E-1,-5.988199711E0,3.712399960E0
2.378399844E1,1.492900014E0,-5.023499966E0,4.161399841E0
2.380399844E1,3.338599920E0,-4.967999935E0,3.508899927E0
2.382399844E1,3.780799866E0,-4.548099995E0,2.210399866E0
2.384399844E1,2.508399963E0,-3.866999865E0,8.260999918E-1
2.386399844E1,4.222999811E-1,-2.969300032E0,1.196999997E-1
2.388399844E1,-1.256199956E0,-2.359299898E0,6.769999862E-1
2.390399844E1,-2.119499922E0,-2.032599926E0,2.165400028E0
2.392399844E1,-1.948399901E0,-1.804999948E0,3.880800009E0
2.394399844E1,-1.333199978E0,-1.656899929E0,4.994999886E0
2.396399844E1,-5.550000072E-1,-9.296000004E-1,5.540199757E0
2.398399844E1,7.138999701E-1,-3.086999953E-1,5.044899940E0
2.400399844E1,2.962999821E0,5.874999762E-1,4.889899731E0
2.402399844E1,7.634399891E0,1.058399916E0,4.825699806E0
2.404399844E1,1.307509995E1,1.149899960E0,4.733999729E0
2.406399844E1,1.473040009E1,2.917099953E0,6.888000011E0
2.408399844E1,1.298489952E1,4.346699715E0,9.287099838E0
2.410399844E1,1.093779945E1,3.486199856E0,1.041469955E1
2.412399844E1,8.945599556E0,2.846299887E0,1.110369968E1
2.414399844E1,7.988399982E0,2.587499857E0,1.149779987E1
2.416399844E1,8.476399422E0,1.640799999E0,1.116440010E1
2.418399844E1,8.782999992E0,1.525399923E0,1.090199947E1
2.420400000E1,8.941800117E0,1.791299939E0,1.095629978E1
2.423399844E1,1.038299942E1,9.321999550E-1,9.795399666E0
2.425399844E1,1.165460014E1,-6.193999648E-1,8.171299934E0
2.427399844E1,1.289589977E1,-3.177399874E0,6.460099697E0
2.429399844E1,1.289219952E1,-5.543299675E0,5.226599693E0
2.431399844E1,1.132919979E1,-7.640299797E0,3.979999781E0
2.433399844E1,8.746399879E0,-8.582399368E0,3.497799873E0
2.435399844E1,5.404200077E0,-7.972699642E0,3.581799984E0
2.437399844E1,2.671499968E0,-6.981099606E0,3.597599983E0
2.439399844E1,1.004099965E0,-6.603699684E0,2.760200024E0
2.441399844E1,4.997999966E-1,-6.771800041E0,1.492399931E0
2.443399844E1,-1.879999936E-1,-6.976199627E0,9.081999660E-1
2.445400000E1,-1.244599938E0,-7.531899929E0,5.633999705E-1
2.448399844E1,-3.117899895E0,-7.886299610E0,2.748999894E-1
2.450399844E1,-4.482599735E0,-7.736699581E0,5.079999939E-2
2.452399844E1,-5.571700096E0,-7.746500015E0,-2.563999891E-1
2.454399844E1,-6.695600033E0,-7.705399990E0,-4.838999808E-1
2.456399844E1,-7.004799843E0,-8.366299629E0,-3.201999962E-1
2.458399844E1,-6.485699654E0,-9.960299492E0,-2.140000015E-1
2.460399844E1,-6.126499653E0,-1.084980011E1,-2.606000006E-1
2.462400000E1,-6.122999668E0,-1.059469986E1,-2.976999879E-1
2.465400000E1,-6.691299915E0,-8.981399536E0,-2.004999965E-1
2.467400000E1,-6.073999882E0,-1.023549938E1,-5.712999701E-1
2.470399844E1,-7.420599937E0,-9.217700005E0,7.925999761E-1
2.472399844E1,-6.802399635E0,-8.120399475E0,2.141099930E0
2.474399844E1,-4.340099812E0,-7.865999699E0,2.630699873E0
2.476399844E1,-1.348500013E0,-8.488599777E0,2.417399883E0
2.478399844E1,7.452999949E-1,-9.064599991E0,1.958499908E0
2.480399844E1,8.606999516E-1,-8.194399834E0,1.645900011E0
2.482399844E1,2.866999805E-1,-6.900799751E0,1.502200007E0
2.484399844E1,1.229999959E-1,-5.631700039E0,1.081799984E0
2.486399844E1,1.801999956E-1,-4.142099857E0,1.115399957E0
2.488399844E1,3.078999817E-1,-2.431099892E0,1.281399965E0
2.490399844E1,6.894999743E-1,-9.456999898E-1,1.059999943E0
2.492399844E1,1.203199983E0,5.302999616E-1,1.894000024E-1
2.494400000E1,2.125499964E0,1.187299967E0,-4.642999768E-1
2.496400000E1,3.389899969E0,1.966299891E0,-1.186499953E0
2.499399844E1,5.831999779E0,2.485399961E0,-2.032000065E0
2.501399844E1,7.440599918E0,2.934399843E0,-1.980499983E0
2.503399844E1,8.849800110E0,3.708199978E0,-1.830599904E0
2.505399844E1,1.049359989E1,4.073899746E0,-1.995899916E0
2.507399844E1,1.214509964E1,4.662699699E0,-1.873399973E0
2.509399844E1,1.311049938E1,5.132800102E0,-1.720899940E0
2.511399844E1,1.364529991E1,4.911200047E0,-1.121099949E0
2.513399844E1,1.377759933E1,4.082699776E0,4.497999847E-1
2.515399844E1,1.312069988E1,3.781999826E0,2.245499849E0
2.517399844E1,1.274669933E1,2.806900024E0,3.290799856E0
2.519399844E1,1.114719963E1,2.917899847E0,3.972899914E0
2.521399844E1,8.894399643E0,3.808099985E0,5.036699772E0
2.523399844E1,8.311900139E0,2.867599964E0,5.789399624E0
2.525399844E1,9.029199600E0,6.656000018E-1,5.205299854E0
2.527399844E1,1.019539928E1,-2.056699991E0,3.867399931E0
2.529399844E1,1.054599953E1,-4.170199871E0,2.980199814E0
2.531399844E1,9.979000092E0,-5.849400043E0,2.742899895E0
2.533399844E1,8.062799454E0,-6.794199944E0,3.373600006E0
2.535399844E1,5.169099808E0,-6.669399738E0,3.997099876E0
2.537399844E1,1.906999946E0,-5.563899994E0,4.674299717E0
2.539399844E1,-9.724999666E-1,-4.376800060E0,5.074800014E0
2.541399844E1,-2.791299820E0,-3.682399988E0,5.132400036E0
2.543399844E1,-3.380899906E0,-3.840199947E0,4.645400047E0
2.545399844E1,-3.776899815E0,-4.253900051E0,4.003799915E0
2.547399844E1,-4.259900093E0,-4.917599678E0,2.979199886E0
2.549399844E1,-4.588399887E0,-5.495599747E0,2.343499899E0
2.551399844E1,-4.975199699E0,-6.032099724E0,1.270200014E0
2.553399844E1,-4.910599709E0,-6.944399834E0,3.835999966E-1
2.555399844E1,-5.035299778E0,-7.918099880E0,-6.425999999E-1
2.557399844E1,-5.593199730E0,-8.877599716E0,-1.136699915E0
2.559399844E1,-6.404900074E0,-9.723999977E0,-1.042199969E0
2.561399844E1,-6.381000042E0,-1.096799946E1,-5.680999756E-1
2.563399844E1,-6.103999615E0,-1.121759987E1,-3.080999851E-1
2.565399844E1,-6.395799637E0,-1.012290001E1,2.748999894E-1
2.567399844E1,-5.839600086E0,-1.008689976E1,9.019999504E-1
2.569399844E1,-5.343899727E0,-9.989600182E0,9.957000017E-1
2.571399844E1,-5.402499676E0,-8.189000130E0,1.691699982E0
2.573399844E1,-4.307699680E0,-7.147799969E0,2.082700014E0
2.575399844E1,-2.269500017E0,-7.167899609E0,2.163300037E0
2.577399844E1,-1.530999988E-1,-7.627099991E0,2.286599874E0
2.579399844E1,1.395999908E0,-7.769399643E0,2.278399944E0
2.581399844E1,2.172399998E0,-7.243499756E0,2.196799994E0
2.583399844E1,2.408599854E0,-5.992499828E0,1.411700010E0
2.585399844E1,2.261899948E0,-4.233900070E0,8.955000043E-1
2.587399844E1,2.120699883E0,-2.529700041E0,9.375999570E-1
2.589399844E1,1.700699925E0,-1.104300022E0,1.438399911E0
2.591399844E1,1.140299916E0,1.428000033E-1,1.653599977E0
2.593399844E1,6.355999708E-1,1.166199923E0,1.768299937E0
2.595399844E1,5.381000042E-1,1.795199990E0,1.994699955E0
2.597399844E1,9.745000005E-1,2.584899902E0,1.935299993E0
2.599399844E1,2.333699942E0,2.737699986E0,1.504999995E0
2.601399844E1,4.653800011E0,2.877599955E0,1.087999940E0
2.603399844E1,7.229499817E0,3.266499996E0,7.328000069E-1
2.605399844E1,9.366999626E0,3.624399900E0,3.315999806E-1
2.607399844E1,1.119559956E1,3.709899902E0,-2.488999963E-1
2.609399844E1,1.288399982E1,3.490599871E0,-2.967999876E-1
2.611399844E1,1.415389919E1,3.442899942E0,-8.259999752E-2
2.613399844E1,1.440929985E1,3.989499807E0,6.543999910E-1
2.615399844E1,1.416009998E1,4.336699963E0,2.301899910E0
2.617399844E1,1.402639961E1,2.950500011E0,3.426399946E0
2.619399844E1,1.092980003E1,3.992799997E0,4.876299858E0
2.621399844E1,8.945799828E0,4.569499969E0,5.906300068E0
2.623399844E1,9.275599480E0,2.862599850E0,5.860300064E0
2.625399844E1,9.902400017E0,1.089299917E0,4.991699696E0
2.627399844E1,1.109379959E1,-1.502200007E0,3.902799845E0
2.629399844E1,1.194749928E1,-3.830199957E0,2.929600000E0
2.631399844E1,1.132719994E1,-5.518599987E0,2.408499956E0
2.633399844E1,9.127399445E0,-5.804899693E0,2.969300032E0
2.635399844E1,5.876800060E0,-5.201799870E0,3.824199915E0
2.637399844E1,2.744599819E0,-4.553499699E0,4.500000000E0
2.639399844E1,3.030000031E-1,-3.949199915E0,4.979899883E0
2.641399844E1,-1.107299924E0,-4.166199684E0,4.623499870E0
2.643399844E1,-1.405599952E0,-5.101599693E0,3.622399807E0
2.645400000E1,-1.752900004E0,-6.037600040E0,2.701799870E0
2.648399844E1,-3.085599899E0,-7.120399952E0,1.864799976E0
2.650399844E1,-4.284999847E0,-7.746899605E0,1.382699966E0
2.652400312E1,-5.550799847E0,-8.430199623E0,3.736999929E-1
2.655399844E1,-8.373700142E0,-9.657799721E0,-1.006600022E0
2.657399844E1,-9.816699982E0,-1.060459995E1,-5.976999998E-1
2.659399844E1,-9.365300179E0,-1.160449982E1,6.269999743E-1
2.661399844E1,-7.358199596E0,-1.180980015E1,1.560199976E0
2.663399844E1,-5.046000004E0,-1.171939945E1,1.214499950E0
2.665399844E1,-4.390899658E0,-1.173519993E1,4.066999853E-1
2.667399844E1,-5.688999653E0,-1.085759926E1,6.310999990E-1
2.669399844E1,-6.413199902E0,-9.821099281E0,1.838499904E0
2.671399844E1,-5.131700039E0,-9.391399384E0,3.031699896E0
2.673399844E1,-2.468299866E0,-9.441699982E0,3.335399866E0
2.675399844E1,-1.203999966E-1,-9.115900040E0,2.963799953E0
2.677399844E1,1.556699991E0,-8.529299736E0,2.399699926E0
2.679399844E1,2.313699961E0,-7.254499912E0,1.515599966E0
2.681399844E1,2.047399998E0,-5.714499950E0,7.563999891E-1
2.683400000E1,1.201099992E0,-4.021899700E0,4.758999944E-1
2.686399844E1,1.097499967E0,-1.854200006E0,1.289399981E0
2.688399844E1,1.493299961E0,-6.965999603E-1,1.558499932E0
2.690399844E1,2.515199900E0,1.387999952E-1,1.551599979E0
2.692399844E1,3.509199858E0,8.179999590E-1,1.116799951E0
2.694400000E1,4.885399818E0,1.003000021E0,3.057000041E-1
2.697399844E1,7.303400040E0,1.465199947E0,-3.667999804E-1
2.699399844E1,9.051699638E0,2.111799955E0,-8.836999536E-1
2.701399844E1,1.027559948E1,3.315599918E0,-1.424700022E0
2.703399844E1,1.089239979E1,4.475199699E0,-2.118399858E0
2.705399844E1,1.121519947E1,5.418600082E0,-2.183399916E0
2.707399844E1,1.205159950E1,5.356499672E0,-1.786899924E0
2.709399844E1,1.317589951E1,4.709099770E0,-4.702999890E-1
2.711399844E1,1.360330009E1,4.455599785E0,1.618199944E0
2.713399844E1,1.341049957E1,4.437599659E0,3.412599802E0
2.715399844E1,1.333029938E1,3.282399893E0,4.430200100E0
2.717399844E1,1.133089924E1,3.228600025E0,5.334300041E0
2.719399844E1,9.535900116E0,3.208499908E0,6.202799797E0
2.721399844E1,9.864899635E0,1.789199948E0,6.132599831E0
2.723399844E1,1.166099930E1,-4.396999776E-1,5.110699654E0
2.725400000E1,1.316739941E1,-3.084199905E0,3.812899828E0
2.728399844E1,1.314389992E1,-6.809299946E0,2.573799849E0
2.730399844E1,1.038459969E1,-8.281999588E0,2.874799967E0
2.732399844E1,6.546199799E0,-8.411799431E0,3.521799803E0
2.734399844E1,2.269099951E0,-6.905200005E0,4.411499977E0
2.736399844E1,-9.493999481E-1,-5.111099720E0,4.758899689E0
2.738399844E1,-2.189599991E0,-4.584300041E0,3.907599926E0
2.740399844E1,-2.685600042E0,-4.455599785E0,2.617699862E0
2.742399844E1,-2.931900024E0,-4.583399773E0,1.691199899E0
2.744399844E1,-2.933899879E0,-5.134999752E0,1.082899928E0
2.746399844E1,-2.996599913E0,-6.024099827E0,3.962999880E-1
2.748399844E1,-2.984799862E0,-6.906299591E0,-3.570999801E-1
2.750399844E1,-3.067799807E0,-8.095999718E0,-1.386699915E0
2.752400000E1,-3.557399988E0,-8.817899704E0,-1.997199893E0
2.755399844E1,-4.390899658E0,-9.482099533E0,-1.905499935E0
2.757399844E1,-4.552899837E0,-9.918399811E0,-1.013999939E0
2.759399844E1,-5.068900108E0,-9.717299461E0,1.114000008E-1
2.761400000E1,-6.098000050E0,-8.860599518E0,1.474399924E0
2.764399844E1,-6.636600018E0,-8.286999702E0,3.345299959E0
2.766399844E1,-7.076999664E0,-7.277400017E0,4.204800129E0
2.768399844E1,-6.211599827E0,-6.736999989E0,4.090499878E0
2.770399844E1,-3.885199785E0,-7.022999763E0,2.969199896E0
2.772399844E1,-1.117499948E0,-7.648699760E0,1.824199915E0
2.774399844E1,8.477999568E-1,-8.156899452E0,7.292999625E-1
2.776399844E1,1.409699917E0,-8.154699326E0,3.199999919E-3
2.778399844E1,1.039899945E0,-7.314199924E0,-7.390999794E-1
2.780399844E1,2.300000051E-3,-5.649799824E0,-1.416199923E0
2.782399844E1,-8.155999780E-1,-3.437099934E0,-9.268999696E-1
2.784399844E1,-1.134599924E0,-1.395599961E0,-4.272999763E-1
2.786399844E1,-1.220000029E0,-3.050000072E-1,1.207999960E-1
2.788400000E1,-2.562199831E0,8.194999695E-1,8.953999877E-1
2.791399844E1,-5.332900047E0,1.791599989E0,1.506099939E0
2.793399844E1,-5.427499771E0,2.065599918E0,2.144899845E0
2.795399844E1,-2.699699879E0,2.501999855E0,1.130100012E0
2.797399844E1,3.466199875E0,1.506299973E0,-2.162400007E0
2.799399844E1,9.521800041E0,1.118099928E0,-5.661699772E0
2.801399844E1,1.217409992E1,1.875999928E0,-7.848999977E0
2.803399844E1,1.344889927E1,1.704399943E0,-8.481299400E0
2.805399844E1,1.641279984E1,4.513999820E-1,-6.346699715E0
2.807399844E1,1.811450005E1,7.228999734E-1,-2.919600010E0
2.809399844E1,1.708209991E1,1.122399926E0,3.488000035E-1
2.811399844E1,1.403629971E1,1.480599999E0,4.302099705E0
2.813399844E1,1.104220009E1,1.415899992E0,6.274299622E0
2.815399844E1,9.534199715E0,1.288699985E0,6.881299973E0
2.817399844E1,9.385399818E0,4.275999963E-1,5.799399853E0
2.819399844E1,1.044849968E1,-1.933299899E0,4.340499878E0
2.821399844E1,1.243410015E1,-6.486099720E0,1.949099898E0
2.823399844E1,1.072329998E1,-8.243199348E0,5.564999580E-1
2.825399844E1,7.174099922E0,-7.892399788E0,1.389899969E0
2.827399844E1,3.207199812E0,-6.250099659E0,3.102099895E0
2.829399844E1,4.391999841E-1,-4.368099689E0,4.136300087E0
2.831399844E1,-1.600999951E0,-2.992899895E0,4.551700115E0
2.833399844E1,-3.293399811E0,-1.991799951E0,4.358500004E0
2.835399844E1,-4.044699669E0,-1.663899899E0,3.525399923E0
2.837399844E1,-4.491600037E0,-1.849200010E0,2.645799875E0
2.839399844E1,-5.149899960E0,-1.984200001E0,2.019299984E0
2.841399844E1,-5.782499790E0,-2.463299990E0,1.191399932E0
2.843399844E1,-6.560299873E0,-3.256500006E0,2.465000004E-1
2.845399844E1,-7.291399956E0,-4.233999729E0,-4.208999872E-1
2.847399844E1,-7.516499996E0,-5.285899639E0,-7.820999622E-1
2.849399844E1,-7.424399853E0,-6.015500069E0,-6.899999976E-1
2.851399844E1,-6.549900055E0,-7.133800030E0,-8.659999967E-1
2.853399844E1,-5.359200001E0,-8.421999931E0,-1.131099939E0
2.855399844E1,-4.663000107E0,-9.126099586E0,-1.081099987E0
2.857399844E1,-4.285500050E0,-9.260399818E0,-6.811999679E-1
2.859399844E1,-3.899299860E0,-8.867699623E0,2.879999876E-1
2.861399844E1,-2.718099833E0,-8.950599670E0,9.941999912E-1
2.863399844E1,-2.980000019E0,-7.057099819E0,1.703999996E0
2.865399844E1,-2.688699961E0,-5.634999752E0,2.197200060E0
2.867399844E1,-1.839800000E0,-4.865299702E0,1.917400002E0
2.869399844E1,1.131999940E-1,-6.189499855E0,9.917999506E-1
2.871399844E1,1.029699922E0,-6.631000042E0,1.076300025E0
2.873399844E1,1.164099932E0,-5.825099945E0,1.093299985E0
2.875399844E1,2.044699907E0,-4.770400047E0,-3.665999770E-1
2.877399844E1,2.717299938E0,-3.118499994E0,-1.909500003E0
2.879399844E1,2.496299982E0,-1.089699984E0,-2.271100044E0
2.881399844E1,2.371599913E0,4.483999908E-1,-1.563499928E0
2.883400313E1,2.154299974E0,1.234200001E0,-1.133099914E0
2.886399844E1,1.112599969E0,2.431999922E0,-3.563999832E-1
2.888399844E1,1.173499942E0,3.152400017E0,-1.031999961E-1
2.890399844E1,1.781299949E0,3.970699787E0,4.177999794E-1
2.892399844E1,2.799000025E0,4.862699986E0,7.841999531E-1
2.894399844E1,4.131899834E0,5.546999931E0,4.244000018E-1
2.896399844E1,6.108099937E0,5.648299694E0,-2.471999973E-1
2.898399844E1,7.115999699E0,5.703700066E0,-9.188999534E-1
2.900399844E1,7.749599934E0,5.288499832E0,-1.438799977E0
2.902399844E1,8.706899643E0,4.449899673E0,-1.584499955E0
2.904399844E1,9.870599747E0,3.357399940E0,-7.009999752E-1
2.906399844E1,1.085039997E1,1.685400009E0,1.148999929E0
2.908399844E1,1.123849964E1,-7.409999520E-2,3.118399858E0
2.910399844E1,1.084259987E1,-1.297500014E0,4.675399780E0
2.912399844E1,8.157899857E0,3.145000041E-1,5.726299763E0
2.914399844E1,6.492499828E0,1.076900005E0,5.866099834E0
2.916399844E1,6.735199928E0,4.120000005E-1,4.443900108E0
2.918399844E1,7.629299641E0,-1.252900004E0,3.407099962E0
2.920399844E1,7.723799706E0,-3.506799936E0,2.405999899E0
2.922399844E1,6.061100006E0,-4.907599926E0,1.801800013E0
2.924399844E1,3.514499903E0,-5.238599777E0,1.599499941E0
2.926399844E1,5.115999579E-1,-4.321399689E0,1.498699903E0
2.928399844E1,-1.463699937E0,-3.173399925E0,1.279399991E0
2.930399844E1,-2.404099941E0,-2.229699850E0,1.091699958E0
2.932400000E1,-2.882099867E0,-1.592999935E0,1.000499964E0
2.935399844E1,-3.060999870E0,-1.789799929E0,1.184999943E-1
2.937399844E1,-3.695699930E0,-1.838599920E0,-5.710999966E-1
2.939399844E1,-4.441999912E0,-2.011999846E0,-9.934999943E-1
2.941399844E1,-5.133800030E0,-2.064699888E0,-1.179299951E0
2.943399844E1,-5.798799992E0,-2.375799894E0,-1.955299973E0
2.945399844E1,-6.183899879E0,-2.820099831E0,-2.527699947E0
2.947399844E1,-6.355299950E0,-3.432199955E0,-2.635200024E0
2.949399844E1,-6.369599819E0,-4.467499733E0,-2.431299925E0
2.951399844E1,-6.050999641E0,-5.824100018E0,-2.018800020E0
2.953399844E1,-5.192399979E0,-7.380899906E0,-1.619699955E0
2.955399844E1,-3.989699841E0,-8.621399879E0,-9.560999870E-1
2.957399844E1,-2.745499849E0,-9.184700012E0,-3.955000043E-1
2.959399844E1,-1.839499950E0,-8.878099442E0,-1.498000026E-1
2.961399844E1,-8.622999787E-1,-8.165800095E0,2.384999990E-1
2.963399844E1,-2.185999900E-1,-6.629499912E0,4.479999840E-2
2.965399844E1,-6.523999572E-1,-3.861899853E0,1.930999905E-1
2.967399844E1,1.490999907E-1,-2.590899944E0,3.533999920E-1
2.969399844E1,1.225700021E0,-2.810499907E0,3.048000038E-1
2.971399844E1,1.583899975E0,-3.315799952E0,6.541999578E-1
2.973399844E1,1.516199946E0,-3.570199966E0,6.182999611E-1
2.975399844E1,1.144899964E0,-3.107899904E0,4.781999886E-1
2.977399844E1,1.755299926E0,-2.542500019E0,2.721000016E-1
2.979399844E1,2.447299957E0,-1.776699901E0,9.290000051E-2
2.981399844E1,2.650799990E0,-7.687999606E-1,-9.699999541E-2
2.983399844E1,2.157099962E0,2.361999899E-1,6.140000001E-2
2.985399844E1,1.566699982E0,7.766000032E-1,6.128000021E-1
2.987399844E1,7.285000086E-1,1.049399972E0,1.335500002E0
2.989399844E1,-1.004000008E-1,1.526099920E0,2.123299837E0
2.991399844E1,-2.202999890E-1,2.096799850E0,2.688199997E0
2.993399844E1,2.250999957E-1,2.893399954E0,3.009399891E0
2.995399844E1,1.312299967E0,3.450299978E0,3.075699806E0
2.997399844E1,2.636099815E0,4.009099960E0,2.902299881E0
2.999399844E1,3.641599894E0,4.397099972E0,2.389600039E0
3.001399844E1,4.493400097E0,4.426799774E0,1.819099903E0
3.003399844E1,5.882999897E0,3.726499796E0,1.516799927E0
3.005399844E1,7.711199760E0,2.612299919E0,1.693499923E0
3.007399844E1,8.833600044E0,1.920599937E0,2.500099897E0
3.009399844E1,8.919499397E0,2.180899858E0,3.827199936E0
3.011399844E1,8.767099380E0,2.383800030E0,4.584700108E0
3.013399844E1,8.266799927E0,2.298599958E0,5.013999939E0
3.015399844E1,6.846999645E0,3.324599981E0,5.922199726E0
3.017399844E1,6.280299664E0,3.398499966E0,5.986099720E0
3.019399844E1,7.122200012E0,2.099400043E0,5.163899899E0
3.021399844E1,8.939499855E0,-2.061999887E-1,3.975099802E0
3.023399844E1,1.043680000E1,-2.752399921E0,2.667799950E0
3.025399844E1,1.053129959E1,-5.034299850E0,1.410799980E0
3.027399844E1,8.098299980E0,-5.472099781E0,1.207799911E0
3.029399844E1,4.639100075E0,-4.814300060E0,1.439700007E0
3.031399844E1,1.299600005E0,-3.381099939E0,1.760800004E0
3.033399844E1,-3.876000047E-1,-2.465499878E0,1.708199978E0
3.035399844E1,-7.369999886E-1,-2.326599836E0,1.197199941E0
3.037399844E1,-7.572999597E-1,-2.751299858E0,3.278999925E-1
3.039399844E1,-1.034199953E0,-3.354099989E0,-4.998999834E-1
3.041400000E1,-2.108899832E0,-3.878599882E0,-1.569399953E0
3.044399844E1,-4.275199890E0,-4.286200047E0,-2.327699900E0
3.046399844E1,-5.277400017E0,-4.308599949E0,-2.307499886E0
3.048399844E1,-5.431499958E0,-4.857999802E0,-2.153300047E0
3.050399844E1,-5.444599628E0,-5.329699993E0,-1.857899904E0
3.052399844E1,-5.409999847E0,-5.994400024E0,-1.829599977E0
3.054399844E1,-5.635499954E0,-6.594999790E0,-1.714699984E0
3.056399844E1,-5.467099667E0,-7.551899910E0,-1.532499909E0
3.058399844E1,-5.424799919E0,-8.347000122E0,-1.223299980E0
3.060399844E1,-4.990299702E0,-8.804100037E0,-6.682999730E-1
3.062399844E1,-3.417199850E0,-9.520899773E0,-7.461999655E-1
3.064399844E1,-2.936399937E0,-8.308499336E0,-8.993999958E-1
3.066399844E1,-2.997699976E0,-6.139199734E0,-2.243999988E-1
3.068399844E1,-2.198199987E0,-4.804699898E0,2.360999882E-1
3.070399844E1,-9.302999973E-1,-4.474999905E0,3.533000052E-1
3.072399844E1,-2.572999895E-1,-4.658899784E0,7.189999819E-1
3.074399844E1,-2.490999997E-1,-4.769700050E0,5.425999761E-1
3.076399844E1,-9.070000052E-1,-4.518700123E0,-2.628000081E-1
3.078399844E1,-1.336899996E0,-3.769999981E0,-8.660999537E-1
3.080399844E1,-1.213500023E0,-2.754999876E0,-1.141499996E0
3.082399844E1,-8.923999667E-1,-1.581900001E0,-1.014099956E0
3.084399844E1,-8.626999855E-1,-6.999999881E-1,-7.272999883E-1
3.086400000E1,-9.027999640E-1,-6.979999691E-2,-3.429999948E-1
3.088400000E1,-1.283100009E0,2.619000077E-1,-3.949999809E-2
3.091400000E1,-1.921700001E0,3.998999894E-1,6.299999952E-1
3.093400000E1,-1.854099989E0,2.252999991E-1,1.119599938E0
3.095400000E1,-9.817999601E-1,-2.247999907E-1,1.601799965E0
3.098399844E1,1.475099921E0,-1.363600016E0,2.496500015E0
3.100399844E1,3.167799950E0,-1.960999966E0,3.247900009E0
3.102399844E1,4.708199978E0,-2.125999928E0,3.657999992E0
3.104399844E1,5.521599770E0,-1.985399961E0,3.818300009E0
3.106399844E1,6.330800056E0,-1.803900003E0,4.089399815E0
3.108399844E1,7.368899822E0,-1.693499923E0,4.434199810E0
3.110399844E1,8.557600021E0,-1.513599992E0,4.681499958E0
3.112399844E1,9.465899467E0,-9.156999588E-1,4.850599766E0
3.114399844E1,1.015660000E1,1.943999976E-1,5.051199913E0
3.116399844E1,9.727299690E0,2.021199942E0,5.137599945E0
3.118399844E1,8.015500069E0,4.947599888E0,5.448599815E0
3.120399844E1,7.356099606E0,6.848299980E0,5.789199829E0
3.122399844E1,8.459499359E0,6.600100040E0,5.229099751E0
3.124399844E1,1.027379990E1,4.899799824E0,3.970299959E0
3.126399844E1,1.167049980E1,2.700099945E0,3.055699825E0
3.128399844E1,1.210969925E1,1.594000012E-1,2.739099979E0
3.130399844E1,1.044509983E1,-1.571299911E0,2.479099989E0
3.132399844E1,7.705999851E0,-2.402799845E0,2.535699844E0
3.134399844E1,4.767699718E0,-2.430599928E0,2.921000004E0
3.136399844E1,2.601699829E0,-2.008800030E0,2.925699949E0
3.138399844E1,9.947999716E-1,-1.358999968E0,2.568399906E0
3.140399844E1,2.474999875E-1,-8.768000007E-1,2.016000032E0
3.142399844E1,-4.289999902E-1,-7.727999687E-1,1.418900013E0
3.144399844E1,-1.385499954E0,-9.508000016E-1,8.327999711E-1
3.146399844E1,-2.584199905E0,-1.131799936E0,3.247999847E-1
3.148399844E1,-3.467899799E0,-1.602299929E0,-2.804999948E-1
3.150399844E1,-3.864899874E0,-2.501199961E0,-5.706999898E-1
3.152400000E1,-3.798999786E0,-3.424399853E0,-9.041000009E-1
3.155399844E1,-3.233500004E0,-4.907899857E0,-1.459499955E0
3.157399844E1,-2.628000021E0,-6.055899620E0,-1.758199930E0
3.159399844E1,-1.829100013E0,-7.048999786E0,-1.359499931E0
3.161399844E1,-6.110000014E-1,-8.302899361E0,-9.325000048E-1
3.163399844E1,1.099999994E-1,-9.007299423E0,-8.136000037E-1
3.165399844E1,2.430000007E-1,-8.979299545E0,-4.599999785E-1
3.167399844E1,-6.251999736E-1,-7.839399815E0,2.440999895E-1
3.169399844E1,-1.677399993E0,-6.248600006E0,7.696999907E-1
3.171399844E1,-1.977799892E0,-5.601500034E0,5.749999881E-1
3.173399844E1,-3.738899946E0,-3.350299835E0,4.810999930E-1
3.175399844E1,-3.923599958E0,-2.391899824E0,6.685000062E-1
3.177399844E1,-3.284899950E0,-2.658999920E0,4.088999927E-1
3.179399844E1,-3.270099878E0,-3.293299913E0,1.070000008E-1
3.181399844E1,-3.685599804E0,-3.840899944E0,1.509999931E-1
3.183399844E1,-4.035299778E0,-3.664599895E0,3.472999930E-1
3.185399844E1,-3.152400017E0,-3.282399893E0,3.526999950E-1
3.187399844E1,-1.749899983E0,-2.421599865E0,2.243999988E-1
3.189400000E1,-1.104399920E0,-1.342599988E0,1.288999915E-1
3.192399844E1,-1.485899925E0,-1.534999907E-1,2.142999917E-1
3.194399844E1,-1.902699947E0,1.005999967E-1,5.209000111E-1
3.196399844E1,-2.160199881E0,3.263999820E-1,1.017699957E0
3.198399844E1,-2.036900043E0,5.087000132E-1,1.256500006E0
3.200399844E1,-1.153399944E0,5.526999831E-1,1.336399913E0
3.202399844E1,-2.648999989E-1,7.152000070E-1,1.289999962E0
3.204399844E1,2.662999928E-1,8.504999876E-1,1.230799913E0
3.206399844E1,1.055599928E0,8.200999498E-1,1.166499972E0
3.208399844E1,1.937399983E0,8.101999760E-1,9.738000035E-1
3.210399844E1,3.704799891E0,4.064999819E-1,6.667000055E-1
3.212399844E1,5.425600052E0,1.569999903E-1,5.837999582E-1
3.214399844E1,7.222300053E0,-2.039999887E-2,6.100000143E-1
3.216399844E1,8.410599709E0,1.195999980E-1,6.887999773E-1
3.218399844E1,8.701399803E0,8.370999694E-1,1.122499943E0
3.220399844E1,8.147399902E0,2.370499849E0,2.667799950E0
3.222399844E1,8.073599815E0,2.879599810E0,3.969299793E0
3.224399844E1,7.065799713E0,3.156800032E0,4.495199680E0
3.226399844E1,5.445299625E0,4.417799950E0,4.953099728E0
3.228399844E1,5.822299957E0,4.433399677E0,4.971899986E0
3.230399844E1,7.712999821E0,3.455699921E0,4.064099789E0
3.232399844E1,1.005140018E1,1.904999971E0,2.994799852E0
3.234399844E1,1.131330013E1,6.042000055E-1,2.191200018E0
3.236399844E1,1.098759937E1,-6.832000017E-1,1.874599934E0
3.238399844E1,8.776899338E0,-1.382699966E0,2.257599831E0
3.240399844E1,5.800999641E0,-1.322299957E0,2.652400017E0
3.242399844E1,3.069399834E0,-1.024799943E0,3.186100006E0
3.244399844E1,1.551199913E0,-9.740999937E-1,3.313499928E0
3.246399844E1,6.003999710E-1,-1.298299909E0,2.864799976E0
3.248399844E1,6.199999899E-2,-1.774799943E0,2.213999987E0
3.250399844E1,-8.704999685E-1,-2.303599834E0,1.361999989E0
3.252399844E1,-1.830500007E0,-2.762799978E0,6.387000084E-1
3.254399844E1,-2.993199825E0,-3.190599918E0,1.004999951E-1
3.256399844E1,-3.680199862E0,-3.429899931E0,-2.056999952E-1
3.258399844E1,-3.663699865E0,-4.050499916E0,-3.267000020E-1
3.260399844E1,-3.512399912E0,-4.723400116E0,-9.089999646E-2
3.262399844E1,-3.476499796E0,-5.389199734E0,2.283999920E-1
3.264399844E1,-3.498799801E0,-6.114500046E0,1.770000011E-1
3.266399844E1,-3.256199837E0,-7.013499737E0,-1.133999974E-1
3.268399844E1,-3.044600010E0,-7.562500000E0,-2.377999872E-1
3.270399844E1,-3.144399881E0,-7.965499878E0,-8.229999989E-2
3.272399844E1,-3.326699972E0,-8.166399956E0,4.537999928E-1
3.274399844E1,-3.659600019E0,-7.750399590E0,1.115100026E0
3.276399844E1,-3.550199986E0,-7.135799885E0,1.277400017E0
3.278399844E1,-3.754299879E0,-5.473799706E0,9.710999727E-1
3.280399844E1,-3.359499931E0,-4.150399685E0,9.695000052E-1
3.282399844E1,-2.325500011E0,-3.852399826E0,9.082999825E-1
3.284399844E1,-1.582700014E0,-4.108900070E0,7.647999525E-1
3.286399844E1,-1.508199930E0,-4.384599686E0,6.473999619E-1
3.288399844E1,-1.753499985E0,-4.370199680E0,4.136999846E-1
3.290399844E1,-1.368999958E0,-4.019199848E0,3.267999887E-1
3.292399844E1,-7.468999624E-1,-3.239899874E0,1.761000007E-1
3.294399844E1,-4.452999830E-1,-2.230700016E0,1.800999939E-1
3.296399844E1,-3.165999949E-1,-1.304799914E0,9.599999525E-3
3.298399844E1,-6.298999786E-1,-1.717000008E-1,1.219999939E-1
3.300399844E1,-9.734999537E-1,6.356999874E-1,2.516999841E-1
3.302399844E1,-1.267599940E0,1.002599955E0,4.325999916E-1
3.304399844E1,-1.304099917E0,1.012400031E0,7.163999677E-1
3.306399844E1,-1.023900032E0,9.892999530E-1,9.757999778E-1
3.308399844E1,-5.787999630E-1,8.823999763E-1,1.160200000E0
3.310399844E1,1.955000013E-1,7.379999757E-1,1.077199936E0
3.312399844E1,1.131500006E0,6.035000086E-1,9.644999504E-1
3.314399844E1,2.541699886E0,5.069000125E-1,4.187999964E-1
3.316399844E1,3.598999977E0,5.338000059E-1,-1.939999908E-1
3.318399844E1,4.548199654E0,7.671999931E-1,-6.888999939E-1
3.320399844E1,5.524899960E0,5.608999729E-1,-8.593999743E-1
3.322399844E1,6.803999901E0,-1.341999918E-1,-1.051499963E0
3.324399844E1,7.881799698E0,-6.893999577E-1,-1.151999980E-1
3.326399844E1,8.257599831E0,-6.568999887E-1,1.314000010E0
3.328399844E1,8.283100128E0,7.249999791E-2,2.605099916E0
3.330399844E1,8.521299362E0,9.276999831E-1,3.607999802E0
3.332399844E1,8.276599884E0,2.266199827E0,4.295300007E0
3.334399844E1,6.779599667E0,4.407399654E0,5.024799824E0
3.336399844E1,5.740799904E0,5.994799614E0,4.825999737E0
3.338399844E1,6.040299892E0,6.094599724E0,3.058899879E0
3.340399844E1,7.459599972E0,5.357999802E0,2.042000055E0
3.342399844E1,9.412099838E0,3.616799831E0,1.141199946E0
3.344399844E1,1.073069954E1,1.996599913E0,6.281999946E-1
3.346399844E1,1.080989933E1,3.140999973E-1,2.336999923E-1
3.348399844E1,9.673999786E0,-1.192499995E0,8.238999844E-1
3.350399844E1,7.643899918E0,-2.196899891E0,2.052500010E0
3.352399844E1,5.526400089E0,-2.474900007E0,3.208299875E0
3.354399844E1,3.421299934E0,-2.280499935E0,3.988099813E0
3.356399844E1,1.651299953E0,-1.872399926E0,4.429399967E0
3.358399844E1,4.839999974E-2,-1.482499957E0,4.387899876E0
3.360399844E1,-9.181999564E-1,-1.546800017E0,3.763000011E0
3.362399844E1,-1.556999922E0,-1.808399916E0,3.264599800E0
3.364399844E1,-1.937199950E0,-2.389499903E0,2.532500029E0
3.366399844E1,-2.298199892E0,-3.150899887E0,1.679199934E0
3.368399844E1,-2.154399872E0,-4.328599930E0,1.080399990E0
3.370399844E1,-2.053999901E0,-5.415100098E0,6.638999581E-1
3.372399844E1,-1.825399995E0,-6.438499928E0,3.610000014E-1
3.374399844E1,-1.624099970E0,-7.173499584E0,4.308999777E-1
3.376399844E1,-1.065999985E0,-8.162400246E0,3.343999982E-1
3.378399844E1,-6.511999965E-1,-8.784299850E0,2.759999931E-1
3.380399844E1,-4.973999858E-1,-9.027099609E0,4.080999792E-1
3.382399844E1,-6.085999608E-1,-8.998299599E0,1.176199913E0
3.384399844E1,-1.426100016E0,-8.317500114E0,2.205899954E0
3.386399844E1,-3.193099976E0,-6.785299778E0,3.150899887E0
3.388399844E1,-5.159499645E0,-5.117799759E0,3.565899849E0
3.390399844E1,-6.104399681E0,-4.408299923E0,3.849699974E0
3.392399844E1,-5.916499615E0,-4.615799904E0,3.833799839E0
3.394399844E1,-5.113999844E0,-4.870299816E0,3.696099997E0
3.396399844E1,-3.897300005E0,-4.913700104E0,3.275099993E0
3.398399844E1,-2.962199926E0,-4.531799793E0,2.362599850E0
3.400399844E1,-2.563499928E0,-3.571799994E0,1.483600020E0
3.402399844E1,-2.636600018E0,-2.598000050E0,6.186000109E-1
3.404399844E1,-3.198499918E0,-1.404399991E0,8.959999681E-2
3.406399844E1,-3.674299955E0,-3.551999927E-1,1.889999956E-2
3.408399844E1,-3.711099863E0,3.869999945E-1,2.699999809E-1
3.410399844E1,-3.193899870E0,9.565999508E-1,6.841999888E-1
3.412399844E1,-2.507499933E0,1.172799945E0,6.856999993E-1
3.414399844E1,-1.897899985E0,1.730799913E0,4.775999784E-1
3.416399844E1,-1.260900021E0,1.852299929E0,-2.787999809E-1
3.418399844E1,-8.445999622E-1,2.279099941E0,-4.529999793E-1
3.420399844E1,1.590999961E-1,1.843699932E0,-7.608999610E-1
3.422399844E1,1.642300010E0,1.219399929E0,-1.001799941E0
3.424399844E1,2.883699894E0,6.617000103E-1,-7.069999576E-1
3.426399844E1,3.882900000E0,4.157999754E-1,-4.244999886E-1
3.428399844E1,5.097799778E0,5.676000118E-1,-1.244999990E-1
3.430399844E1,6.840199947E0,8.632999659E-1,-4.470999837E-1
3.432399844E1,8.806699753E0,7.721999884E-1,-6.139000058E-1
3.434399844E1,1.036859989E1,7.119999528E-1,-8.768999577E-1
3.436399844E1,1.104279995E1,8.776999712E-1,-7.954999804E-1
3.438399844E1,1.041499996E1,1.554000020E0,-7.339999825E-2
3.440399844E1,9.248299599E0,2.040899992E0,1.229799986E0
3.442399844E1,8.143499374E0,2.011100054E0,2.242100000E0
3.444400000E1,6.129999638E0,2.930599928E0,3.208799839E0
3.447399844E1,5.150399685E0,4.251699924E0,4.074500084E0
3.449399844E1,6.228299618E0,3.759199858E0,3.270299911E0
3.451399844E1,8.173999786E0,2.201200008E0,2.043699980E0
3.453399844E1,9.846300125E0,6.158999801E-1,8.379999995E-1
3.455399844E1,1.027289963E1,-7.214999795E-1,2.499999851E-2
3.457399844E1,9.546599388E0,-2.035199881E0,2.636999786E-1
3.459399844E1,7.489899635E0,-2.560099840E0,1.076699972E0
3.461399844E1,4.411299706E0,-2.142899990E0,2.031800032E0
3.463400000E1,1.601199985E0,-1.438599944E0,3.189499855E0
3.465400000E1,-1.801999956E-1,-9.495999813E-1,3.919099808E0
3.468399844E1,-1.133399963E0,-1.273800015E0,3.767599821E0
3.470399844E1,-1.386899948E0,-1.943499923E0,2.856299877E0
3.472399844E1,-1.841799974E0,-2.554999828E0,2.014999866E0
3.474399844E1,-2.509799957E0,-3.379499912E0,9.961999655E-1
3.476399844E1,-2.850999832E0,-4.353499889E0,-7.539999485E-2
3.478399844E1,-3.101199865E0,-5.275300026E0,-7.412999868E-1
3.480399844E1,-3.323999882E0,-6.435999870E0,-8.170999885E-1
3.482399844E1,-3.941499949E0,-8.114699364E0,-1.213400006E0
3.484399844E1,-4.756099701E0,-1.032289982E1,-1.843299985E0
3.486399844E1,-5.281499863E0,-1.194229984E1,-1.330199957E0
3.488400000E1,-5.307399750E0,-1.233259964E1,-5.286999941E-1
3.491399844E1,-4.268599987E0,-1.171109962E1,1.785099983E0
3.493399844E1,-4.426899910E0,-1.004909992E1,3.373899937E0
3.495399844E1,-5.594799995E0,-7.249099731E0,4.896100044E0
3.497399844E1,-5.546000004E0,-5.629399776E0,5.944699764E0
3.499399844E1,-4.489999771E0,-5.236599922E0,5.534800053E0
3.501399844E1,-3.789799929E0,-5.207999706E0,4.667099953E0
3.503399844E1,-3.544899940E0,-5.330899715E0,3.716399908E0
3.505399844E1,-2.999699831E0,-5.232299805E0,2.595999956E0
3.507399844E1,-1.767099977E0,-4.629199982E0,1.836299896E0
3.509399844E1,-3.341999948E-1,-3.379999876E0,1.084299922E0
3.511399844E1,7.580999732E-1,-1.709999919E0,4.520999789E-1
3.513399844E1,1.222599983E0,-2.219999954E-2,-9.690000117E-2
3.515399844E1,1.266299963E0,1.086699963E0,-2.462999970E-1
3.517399844E1,1.166599989E0,1.559000015E0,3.720999956E-1
3.519399844E1,8.964999914E-1,2.037299871E0,1.101999998E0
3.521399844E1,8.932999969E-1,2.145799875E0,1.296700001E0
3.523399844E1,1.765299916E0,1.908399940E0,1.042199969E0
3.525399844E1,2.864099979E0,1.452499986E0,8.299999833E-1
3.527399844E1,3.825999975E0,8.287999630E-1,4.211999774E-1
3.529399844E1,4.053499699E0,9.692999721E-1,3.668999970E-1
3.531399844E1,4.751499653E0,1.168299913E0,5.083999634E-1
3.533400000E1,6.265599728E0,1.212499976E0,6.692000031E-1
3.535400000E1,8.025599480E0,1.042299986E0,7.673999667E-1
3.537400000E1,9.845299721E0,5.756999850E-1,3.581999838E-1
3.540399844E1,1.120499992E1,5.866000056E-1,-2.122000009E-1
3.542399844E1,1.128139973E1,7.908999920E-1,1.370999962E-1
3.544399844E1,1.032259941E1,1.931699991E0,1.260699987E0
3.546399844E1,8.229399681E0,4.414199829E0,2.897599936E0
3.548399844E1,7.537199974E0,5.645999908E0,3.065999985E0
3.550399844E1,8.395500183E0,5.082099915E0,1.475499988E0
3.552399844E1,9.439799309E0,3.908799887E0,-3.709999844E-2
3.554399844E1,1.080830002E1,1.465600014E0,-1.389299989E0
3.556399844E1,1.164149952E1,-1.024299979E0,-1.878099918E0
3.558399844E1,1.141659927E1,-4.087999821E0,-1.324499965E0
3.560399844E1,1.013379955E1,-7.055599689E0,-1.930999905E-1
3.562399844E1,7.848299980E0,-8.130100250E0,1.524699926E0
3.564399844E1,4.964900017E0,-7.495899677E0,3.787199974E0
3.566399844E1,2.126999855E0,-6.380899906E0,4.594699860E0
3.568399844E1,-1.812999994E-1,-5.343400002E0,4.284299850E0
3.570399844E1,-2.385699987E0,-4.428599834E0,3.592399836E0
3.572399844E1,-3.807499886E0,-3.882299900E0,3.044299841E0
3.574399844E1,-4.665599823E0,-3.923599958E0,2.428499937E0
3.576399844E1,-5.404200077E0,-4.006799698E0,1.818899989E0
3.578399844E1,-6.107100010E0,-4.134099960E0,1.216400027E0
3.580399844E1,-6.499300003E0,-4.680799961E0,4.878999889E-1
3.582399844E1,-6.560099602E0,-5.316400051E0,1.228999943E-1
3.584399844E1,-6.489099979E0,-6.008399963E0,-4.330999851E-1
3.586399844E1,-6.510599613E0,-6.460899830E0,-8.649999499E-1
3.588400000E1,-6.233900070E0,-6.941599846E0,-1.079900026E0
3.591399844E1,-5.258299828E0,-8.116099358E0,-1.452000022E0
3.593399844E1,-4.776099682E0,-8.253099442E0,-1.518299937E0
3.595399844E1,-3.950799942E0,-8.331600189E0,-1.110499978E0
3.597399844E1,-2.225399971E0,-9.128899574E0,-5.052999854E-1
3.599399844E1,-1.573899984E0,-8.602299690E0,-6.209999695E-2
3.601400000E1,-1.566100001E0,-7.270599842E0,7.200999856E-1
3.603400000E1,-1.858399987E0,-5.587399960E0,1.587499976E0
3.606399844E1,-8.224999905E-1,-4.502500057E0,2.047199965E0
3.608399844E1,2.009999901E-1,-4.475399971E0,1.704199910E0
3.610399844E1,3.057000041E-1,-4.121099949E0,5.565999746E-1
3.612399844E1,-2.807999849E-1,-3.450799942E0,-2.366999984E-1
3.614399844E1,-6.083999872E-1,-2.814599991E0,-1.072799921E0
3.616399844E1,-6.931999922E-1,-2.377300024E0,-1.520900011E0
3.618399844E1,-2.608999908E-1,-1.894999981E0,-1.304899931E0
3.620399844E1,4.044999778E-1,-1.231999993E0,1.159999985E-2
3.622399844E1,1.304799914E0,-7.423999906E-1,9.817999601E-1
3.624400000E1,1.836799979E0,-1.806000024E-1,1.656199932E0
3.626400000E1,1.668699980E0,3.481999934E-1,2.251299858E0
3.629399844E1,5.814999938E-1,1.234300017E0,3.025799990E0
3.631400000E1,4.318999946E-1,2.308399916E0,3.092700005E0
3.633400000E1,1.969399929E0,3.288199902E0,2.938099861E0
3.636399844E1,6.194799900E0,4.304399967E0,3.762199879E0
3.638399844E1,7.851599693E0,5.359899998E0,4.072299957E0
3.640399844E1,7.946099758E0,5.960799694E0,3.781099796E0
3.642399844E1,7.504799843E0,5.729300022E0,2.418999910E0
3.644399844E1,7.758699894E0,4.357599735E0,1.418099999E0
3.646399844E1,8.577400208E0,2.703899860E0,1.786799908E0
3.648399844E1,9.114099503E0,1.510900021E0,3.389099836E0
3.650399844E1,9.312999725E0,6.568999887E-1,4.505300045E0
3.652399844E1,8.711799622E0,6.435999870E-1,5.382599831E0
3.654399844E1,8.177100182E0,9.399999864E-3,5.722399712E0
3.656399844E1,5.819799900E0,1.036000013E0,6.079699993E0
3.658399844E1,3.326099873E0,2.920699835E0,6.771399975E0
3.660399844E1,3.939499855E0,2.466699839E0,6.429699898E0
3.662399844E1,6.393599987E0,4.253000021E-1,3.995799780E0
3.664399844E1,8.498600006E0,-2.032500029E0,2.276000023E0
3.666399844E1,9.157699585E0,-4.081900120E0,4.108999968E-1
3.668399844E1,8.853400230E0,-5.760499954E0,-9.222999811E-1
3.670399844E1,7.341599941E0,-7.109200001E0,-1.143299937E0
3.672399844E1,4.895199776E0,-7.367399693E0,-3.791999817E-1
3.674400000E1,1.869099975E0,-6.194999695E0,1.163599968E0
3.676400000E1,-3.012999892E-1,-5.141200066E0,2.201200008E0
3.679399844E1,-2.715100050E0,-4.126899719E0,2.947299957E0
3.681400000E1,-3.818899870E0,-3.492299795E0,2.909699917E0
3.683400000E1,-4.512000084E0,-3.366400003E0,2.190500021E0
3.686399844E1,-5.445199966E0,-3.394699812E0,8.313999772E-1
3.688400000E1,-6.172699928E0,-3.238299847E0,-6.899999920E-3
3.690400000E1,-6.870599747E0,-3.225999832E0,-6.054999828E-1
3.693400000E1,-7.151099682E0,-4.000999928E0,-1.188599944E0
3.695400000E1,-7.037299633E0,-5.028899670E0,-1.464399934E0
3.697400000E1,-6.865699768E0,-6.414899826E0,-1.703899980E0
3.700399844E1,-6.883499622E0,-7.942299843E0,-2.117699862E0
3.702400000E1,-6.736399651E0,-8.698200226E0,-2.116499901E0
3.704400000E1,-6.162799835E0,-9.227799416E0,-1.509499907E0
3.707399844E1,-4.730000019E0,-9.356200218E0,4.287000000E-1
3.709399844E1,-3.027400017E0,-9.196199417E0,1.411599994E0
3.711400000E1,-1.922099948E0,-7.847899914E0,1.956699967E0
3.713400000E1,1.659999974E-2,-7.013799667E0,2.041199923E0
3.716400000E1,2.468400002E0,-6.406300068E0,7.585999966E-1
3.718400000E1,2.712399960E0,-6.272799969E0,-1.338000000E-1
3.720400000E1,2.275099993E0,-6.425499916E0,-7.741000056E-1
3.723400000E1,1.302399993E0,-5.840699673E0,2.469999902E-2
3.725400000E1,1.547999978E0,-4.832399845E0,8.168999553E-1
3.727400000E1,2.517099857E0,-3.326200008E0,1.042699933E0
3.730400000E1,3.176499844E0,-5.376999974E-1,1.350299954E0
3.733400000E1,2.675999880E0,1.593299985E0,1.694499969E0
3.736399844E1,1.893000007E0,3.074800014E0,1.726399899E0
3.738399844E1,1.930199981E0,3.663499832E0,1.546199918E0
3.740400000E1,2.548300028E0,4.306200027E0,1.786599994E0
3.742400000E1,3.470299959E0,5.048500061E0,2.085099936E0
3.744400000E1,5.180900097E0,5.497399807E0,2.119600058E0
3.747400000E1,8.298199654E0,5.364699841E0,3.652899981E0
3.750399844E1,9.126599312E0,4.394599915E0,5.079400063E0
3.752400000E1,8.614099503E0,3.301399946E0,4.811399937E0
3.754400000E1,8.285200119E0,2.198999882E0,4.767899990E0
3.757399844E1,8.146599770E0,1.474699974E0,5.751999855E0
3.759399844E1,8.395500183E0,1.244099975E0,6.251399994E0
3.761399844E1,9.031499863E0,3.139999807E-1,6.521899700E0
3.763399844E1,7.821399689E0,4.047999978E-1,6.322899818E0
3.765399844E1,5.629799843E0,2.036000013E0,6.550399780E0
3.767399844E1,6.232899666E0,9.996999502E-1,5.234099865E0
3.769399844E1,8.038899422E0,-1.197999954E0,3.452600002E0
3.771399844E1,1.007100010E1,-4.151999950E0,2.235699892E0
3.773399844E1,1.074049950E1,-6.777099609E0,8.339999914E-1
3.775399844E1,9.133600235E0,-8.018199921E0,2.570999861E-1
3.777399844E1,6.329099655E0,-7.938699722E0,9.032999873E-1
3.779399844E1,3.253599882E0,-6.785599709E0,1.632200003E0
3.781399844E1,9.801999927E-1,-5.486499786E0,2.198400021E0
3.783399844E1,-8.824999928E-1,-4.203099728E0,2.075599909E0
3.785399844E1,-1.781299949E0,-3.701699972E0,1.597999930E0
3.787399844E1,-2.443899870E0,-3.791099787E0,1.034999967E0
3.789399844E1,-3.584899902E0,-3.634399891E0,3.939999938E-1
3.791400000E1,-4.804699898E0,-3.264299870E0,-4.519999772E-2
3.793400000E1,-5.763199806E0,-3.151399851E0,-4.096999764E-1
3.795400000E1,-6.225999832E0,-3.307799816E0,-6.719999909E-1
3.797400000E1,-6.414799690E0,-3.764299870E0,-5.171999931E-1
3.800399844E1,-5.916499615E0,-5.053800106E0,-1.255999953E-1
3.802400000E1,-5.314399719E0,-6.264299870E0,-1.756999940E-1
3.804400000E1,-4.996900082E0,-7.603099823E0,-4.488999844E-1
3.807399844E1,-4.901799679E0,-8.992499352E0,-7.087000012E-1
3.809400000E1,-5.081399918E0,-9.053799629E0,-9.536999464E-1
3.811400000E1,-5.530200005E0,-8.620399475E0,-6.355999708E-1
3.814400000E1,-5.161200047E0,-8.390099525E0,5.870999694E-1
3.816400000E1,-5.295000076E0,-7.340399742E0,1.389799953E0
3.818400000E1,-4.706699848E0,-6.535799980E0,1.909899950E0
3.821399844E1,-2.271299839E0,-6.686699867E0,2.063899994E0
3.823399844E1,-5.515999794E-1,-7.454699993E0,1.924499989E0
3.825399844E1,4.988999963E-1,-7.890599728E0,1.448300004E0
3.827399844E1,1.043599963E0,-7.932899952E0,6.686999798E-1
3.829399844E1,1.407599926E0,-7.228899956E0,-1.550000012E-1
3.831399844E1,1.663499951E0,-5.670399666E0,-4.449999928E-1
3.833400000E1,1.976799965E0,-3.965799809E0,-1.109999977E-2
3.835400000E1,2.156899929E0,-2.402699947E0,4.736999869E-1
3.837400000E1,2.254199982E0,-1.334699988E0,8.291999698E-1
3.840400000E1,1.763599992E0,6.229999661E-2,1.130800009E0
3.842400000E1,1.521799922E0,9.745000005E-1,1.366199970E0
3.844400000E1,1.650200009E0,1.650999904E0,1.363600016E0
3.847400000E1,2.514699936E0,2.398699999E0,1.240999937E0
3.850399844E1,4.207600117E0,3.000200033E0,9.962999821E-1
3.852400000E1,5.537899971E0,3.208899975E0,9.229999781E-1
3.854400000E1,6.626599789E0,3.339299917E0,1.033800006E0
3.856400000E1,7.827699661E0,2.906399965E0,1.318300009E0
3.859400000E1,8.944700241E0,2.283499956E0,2.548199892E0
3.861400000E1,9.763500214E0,2.108299971E0,3.594199896E0
3.863400000E1,1.039369965E1,2.479099989E0,4.893199921E0
3.866399844E1,1.092959976E1,3.536000013E0,6.153299809E0
3.868400000E1,1.133489990E1,2.733000040E0,6.106100082E0
3.870400000E1,1.002009964E1,2.034199953E0,5.918299675E0
3.873400000E1,8.497599602E0,1.279399991E0,5.278399944E0
3.875400000E1,9.691699982E0,-4.584999979E-1,3.988199949E0
3.877400000E1,1.210009956E1,-2.901499987E0,2.988899946E0
3.880400000E1,1.419069958E1,-6.895499706E0,2.167099953E0
3.883400000E1,1.223159981E1,-1.070230007E1,2.250099897E0
3.885400000E1,7.494199753E0,-1.058370018E1,2.544800043E0
3.887400000E1,2.188099861E0,-8.638299942E0,2.905400038E0
3.889400000E1,-1.239199996E0,-6.789299965E0,3.244499922E0
3.891400000E1,-2.939399958E0,-5.281499863E0,2.902499914E0
3.893400000E1,-3.367699862E0,-4.489799976E0,2.065199852E0
3.895400000E1,-3.862699986E0,-4.107599735E0,1.182099938E0
3.897400000E1,-4.584499836E0,-3.622900009E0,8.998000026E-1
3.899400000E1,-5.623899937E0,-3.430999994E0,2.444999963E-1
3.901400000E1,-6.755599976E0,-3.449499846E0,-4.083999991E-1
3.904400000E1,-7.956999779E0,-3.819999933E0,-1.194000006E0
3.906400000E1,-7.800699711E0,-4.888099670E0,-1.551199913E0
3.909400000E1,-6.830800056E0,-6.698999882E0,-1.665300012E0
3.911400000E1,-5.606599808E0,-8.521999359E0,-1.596199989E0
3.913400000E1,-4.563399792E0,-9.827099800E0,-1.595499992E0
3.916400000E1,-4.200999737E0,-9.458299637E0,-1.096699953E0
3.918400000E1,-3.966099977E0,-9.269999504E0,-3.814999759E-1
3.920400000E1,-3.417699814E0,-9.637999535E0,5.728999972E-1
3.923400000E1,-4.870699883E0,-8.350199699E0,1.770900011E0
3.925400000E1,-5.476799965E0,-7.198099613E0,2.006299973E0
3.927400000E1,-4.068299770E0,-7.121599674E0,1.721899986E0
3.930400000E1,-1.405900002E0,-7.598599911E0,1.540199995E0
3.933400000E1,4.625999928E-1,-8.195300102E0,6.830999851E-1
3.935400000E1,1.734099984E0,-8.838600159E0,-3.822000027E-1
3.937400000E1,2.441999912E0,-8.268799782E0,-1.400399923E0
3.940400000E1,2.948599815E0,-5.465699673E0,-2.079900026E0
3.942400000E1,3.491199970E0,-3.508899927E0,-1.593099952E0
3.944400000E1,4.179999828E0,-1.930999994E0,-7.864999771E-1
3.947400000E1,4.614500046E0,-1.934999973E-1,2.998999953E-1
3.950400000E1,3.876199961E0,9.831999540E-1,7.889999747E-1
3.953399844E1,4.436500072E0,2.137199879E0,1.999099970E0
3.955400000E1,6.453700066E0,3.268199921E0,3.402899981E0
3.958399844E1,9.596499443E0,5.752099991E0,3.644099951E0
3.960400000E1,1.036769962E1,6.630300045E0,2.692600012E0
3.962400000E1,9.920100212E0,6.435400009E0,1.720399976E0
3.965399844E1,9.010299683E0,4.597700119E0,1.837899923E0
3.967399844E1,7.947999954E0,3.464099884E0,3.056299925E0
3.969400000E1,6.651199818E0,2.723599911E0,4.510299683E0
3.972399844E1,5.335700035E0,1.735899925E0,6.741999626E0
3.974400000E1,5.152999878E0,1.696999907E0,8.230299950E0
3.976400000E1,6.600299835E0,8.416999578E-1,8.554299355E0
3.978400000E1,8.310199738E0,-4.269999862E-1,6.632099628E0
3.980400000E1,1.063149929E1,-2.989099979E0,4.724899769E0
3.983400000E1,1.097200012E1,-5.892499924E0,2.704099894E0
3.985400000E1,8.290999413E0,-6.232100010E0,2.362599850E0
3.987400000E1,4.711299896E0,-5.187200069E0,2.552199841E0
3.990400000E1,7.288999557E-1,-3.334899902E0,2.844699860E0
3.993400000E1,-7.885999680E-1,-2.185099840E0,2.531599998E0
3.995400000E1,-1.175999999E0,-1.779699922E0,1.936399937E0
3.997400000E1,-1.757599950E0,-1.936999917E0,1.253700018E0
4.000399844E1,-3.589599848E0,-2.447900057E0,7.199999876E-3
4.002400000E1,-4.453599930E0,-3.046099901E0,-6.838999987E-1
4.004400000E1,-4.927400112E0,-3.700999975E0,-1.111099958E0
4.007399844E1,-5.092299938E0,-5.033299923E0,-1.507499933E0
4.009399844E1,-5.456899643E0,-6.013099670E0,-1.711799979E0
4.011400000E1,-5.419099808E0,-6.880599976E0,-1.708699942E0
4.013400000E1,-5.141699791E0,-7.832299709E0,-1.554700017E0
4.016399844E1,-4.855599880E0,-8.602399826E0,-1.047500014E0
4.018400000E1,-4.798699856E0,-8.671099663E0,-5.207999945E-1
4.020400000E1,-5.111399651E0,-7.857399940E0,2.442999929E-1
4.023399844E1,-5.498099804E0,-5.976899624E0,1.349299908E0
4.025399844E1,-5.254399776E0,-5.277199745E0,1.654399991E0
4.027400000E1,-4.325599670E0,-5.501399994E0,1.232299924E0
4.030400000E1,-2.833600044E0,-6.299200058E0,9.569000006E-1
4.032400000E1,-9.702999592E-1,-7.018899918E0,7.595999837E-1
4.034400000E1,9.576999545E-1,-7.208199978E0,1.094999984E-1
4.037400000E1,1.862299919E0,-5.422499657E0,-1.014599919E0
4.040400000E1,2.236999869E-1,-2.165600061E0,-1.157500029E0
4.043399844E1,-9.557999969E-1,-1.061999947E-1,4.055999815E-1
4.045400000E1,-9.394999743E-1,7.814999819E-1,1.490399957E0
4.047400000E1,-3.120999932E-1,1.506599903E0,1.927299976E0
4.049400000E1,2.861999869E-1,2.148000002E0,1.605999947E0
4.051400000E1,5.670999885E-1,2.796900034E0,7.403999567E-1
4.053400000E1,9.672999978E-1,3.259299994E0,-1.246999949E-1
4.055400000E1,1.910699964E0,3.270399809E0,-4.663999975E-1
4.058400000E1,3.893099785E0,3.099799871E0,2.802999914E-1
4.060400000E1,5.036099911E0,3.324100018E0,9.886999726E-1
4.062400000E1,6.072999954E0,3.613199949E0,1.601799965E0
4.065399844E1,7.905999660E0,3.506899834E0,2.724599838E0
4.067399844E1,9.200099945E0,2.776899815E0,2.948599815E0
4.069400000E1,1.004409981E1,2.060600042E0,3.119099855E0
4.071400000E1,9.838999748E0,2.313799858E0,3.979499817E0
4.073400000E1,9.347999573E0,2.698999882E0,5.125499725E0
4.076400000E1,8.849999428E0,1.835699916E0,5.842199802E0
4.079399844E1,7.153999805E0,2.961599827E0,6.689300060E0
4.081399844E1,8.543799400E0,2.088399887E0,4.787300110E0
4.083400000E1,1.156449986E1,-4.759999812E-1,3.183300018E0
4.086399844E1,1.418579960E1,-4.510299683E0,2.318500042E0
4.088399844E1,1.282030010E1,-6.297599792E0,2.855999947E0
4.090400000E1,9.803199768E0,-7.616399765E0,3.295799971E0
4.093400000E1,3.854599953E0,-6.491299629E0,3.696499825E0
4.095400000E1,7.411999702E-1,-5.150399685E0,3.518800020E0
4.097400000E1,-1.032400012E0,-4.441400051E0,2.419299841E0
4.100399844E1,-2.451299906E0,-3.648399830E0,4.519999921E-1
4.102400000E1,-3.379499912E0,-3.708299875E0,-6.851999760E-1
4.104400000E1,-4.459899902E0,-3.985799789E0,-1.465899944E0
4.106400000E1,-5.358200073E0,-4.352799892E0,-1.559599996E0
4.109400000E1,-6.166999817E0,-5.339200020E0,-1.979299903E0
4.111400000E1,-6.692100048E0,-6.176899910E0,-2.601099968E0
4.114400000E1,-7.358099937E0,-7.778399944E0,-3.931799889E0
4.116400000E1,-7.942599773E0,-8.285599709E0,-3.892799854E0
4.118400000E1,-7.977499962E0,-8.600699425E0,-2.921399832E0
4.120400000E1,-7.337999821E0,-9.056599617E0,-1.556100011E0
4.122400000E1,-6.689899921E0,-9.570699692E0,-5.069999695E-1
4.124400000E1,-5.835399628E0,-1.016669941E1,-9.309999645E-2
4.126400000E1,-5.511099815E0,-9.850799561E0,1.177999973E-1
4.129399844E1,-4.828499794E0,-8.181300163E0,1.604699969E0
4.131400000E1,-2.854599953E0,-7.979499817E0,2.765699863E0
4.133400000E1,3.432999849E-1,-8.823499680E0,3.014899969E0
4.135400000E1,3.563599825E0,-9.680799484E0,2.512399912E0
4.137400000E1,4.755599976E0,-9.083499908E0,1.299700022E0
4.140400000E1,3.711799860E0,-5.579299927E0,-6.530999541E-1
4.142400000E1,2.308799982E0,-2.880499840E0,-1.270799994E0
4.145399844E1,1.067499995E0,-3.177999854E-1,8.439999819E-2
4.147400000E1,3.477999866E-1,7.633000016E-1,9.253000021E-1
4.150399844E1,-4.966000021E-1,1.813099980E0,1.151399970E0
4.152400000E1,-2.151999921E-1,2.648399830E0,1.139400005E0
4.154400000E1,1.569399953E0,3.185199976E0,7.085999846E-1
4.157399844E1,5.029500008E0,3.674700022E0,3.871999979E-1
4.159400000E1,7.304499626E0,4.194900036E0,8.708999753E-1
4.161400000E1,8.943900108E0,4.611299992E0,1.203999996E0
4.163400000E1,9.711599350E0,4.828999996E0,1.348599911E0
4.166400000E1,1.075869942E1,4.237400055E0,2.286999941E0
4.168400000E1,1.171759987E1,3.853299856E0,3.138899803E0
4.170400000E1,1.242969990E1,3.775299788E0,4.099299908E0
4.173400000E1,1.314839935E1,3.157699823E0,5.282599926E0
4.176400000E1,1.240359974E1,1.486599922E0,5.780299664E0
4.178400000E1,9.800999641E0,1.980599999E0,6.280600071E0
4.180400000E1,8.418799400E0,1.676399946E0,6.452099800E0
4.183399844E1,1.047469997E1,-1.819499969E0,4.773999691E0
4.185399844E1,1.239699936E1,-5.529200077E0,3.727799892E0
4.187399844E1,1.218799973E1,-8.100099564E0,3.152400017E0
4.189400000E1,9.925999641E0,-9.084699631E0,3.276799917E0
4.191400000E1,6.610799789E0,-8.462800026E0,3.487399817E0
4.194400000E1,2.261800051E0,-6.542699814E0,3.174999952E0
4.196400000E1,2.716000080E-1,-4.957599640E0,2.724799871E0
4.198400000E1,-2.848999798E-1,-4.695499897E0,1.977599978E0
4.201399844E1,-1.425099969E0,-5.757699966E0,3.664000034E-1
4.203400000E1,-3.524899960E0,-4.942499638E0,-2.239999920E-2
4.205400000E1,-5.335599899E0,-3.408299923E0,-7.899999619E-2
4.208399844E1,-5.129099846E0,-3.501899958E0,-6.747999787E-1
4.210399844E1,-4.901499748E0,-4.420599937E0,-1.027799964E0
4.212400000E1,-5.288700104E0,-6.232999802E0,-1.643499970E0
4.215399844E1,-7.057499886E0,-8.392999649E0,-1.716799974E0
4.217400000E1,-6.855399609E0,-9.783499718E0,-6.412999630E-1
4.219400000E1,-5.615299702E0,-1.074300003E1,4.556999803E-1
4.222399844E1,-3.849299908E0,-1.104780006E1,9.362999797E-1
4.224399844E1,-2.923799992E0,-1.054430008E1,7.091999650E-1
4.226399844E1,-3.102099895E0,-9.942799568E0,1.735000014E-1
4.228399844E1,-4.918600082E0,-8.446299553E0,5.787000060E-1
4.230399844E1,-6.391699791E0,-6.569399834E0,1.601199985E0
4.232399844E1,-5.101999760E0,-6.492899895E0,2.166499853E0
4.234399844E1,-2.151799917E0,-7.497799873E0,1.914799929E0
4.236399844E1,5.018999577E-1,-8.211500168E0,1.541499972E0
4.238399844E1,1.511500001E0,-7.853899956E0,6.139000058E-1
4.240399844E1,1.283800006E0,-6.779799938E0,-7.434999943E-1
4.242399844E1,6.172999740E-1,-5.443099976E0,-2.054399967E0
4.244399844E1,1.852999926E-1,-4.488199711E0,-1.843599916E0
4.246399844E1,-4.149999842E-2,-3.594799995E0,-5.781999826E-1
4.248399844E1,-4.302999973E-1,-2.824599981E0,5.127999783E-1
4.250400469E1,-7.576999664E-1,-1.728099942E0,1.715799928E0
4.253400000E1,-4.562999904E-1,5.699999630E-3,2.760099888E0
4.255400000E1,7.033999562E-1,1.244699955E0,2.806599855E0
4.257400000E1,2.157099962E0,2.508499861E0,2.510999918E0
4.259400000E1,4.350199699E0,3.571399927E0,2.742300034E0
4.261400000E1,6.518199921E0,4.680099964E0,2.682999849E0
4.264399844E1,8.684599876E0,6.270299911E0,1.678999901E0
4.266399844E1,9.875699997E0,6.289599895E0,6.617999673E-1
4.268399844E1,1.131139946E1,5.863999844E0,3.759999946E-2
4.270399844E1,1.278800011E1,5.460099697E0,-2.320999950E-1
4.272399844E1,1.375349998E1,4.696199894E0,9.259999543E-2
4.274399844E1,1.371259975E1,3.844399929E0,1.749199986E0
4.276399844E1,1.289719963E1,2.786299944E0,3.453799963E0
4.278399844E1,1.178709984E1,1.083099961E0,4.601500034E0
4.280399844E1,8.337900162E0,2.143499851E0,5.956799984E0
4.282399844E1,6.691299915E0,2.852499962E0,7.303699970E0
4.284399844E1,8.530399323E0,4.312999845E-1,6.092099667E0
4.286399844E1,1.063869953E1,-2.330499887E0,4.272999763E0
4.288400000E1,1.150529957E1,-4.724899769E0,3.065899849E0
4.290400000E1,1.081610012E1,-6.601599693E0,3.023799896E0
4.292400000E1,8.836599350E0,-7.622799873E0,3.342099905E0
4.294400000E1,5.818599701E0,-7.095799923E0,3.486599922E0
4.297400000E1,1.489199996E0,-5.377199650E0,3.167199850E0
4.300399844E1,-1.454499960E0,-3.953899860E0,2.159100056E0
4.302400000E1,-2.413399935E0,-3.413199902E0,1.319700003E0
4.304400000E1,-3.503000021E0,-3.096199989E0,4.799999893E-1
4.306400000E1,-4.936899662E0,-3.159399986E0,-3.401999772E-1
4.309400000E1,-6.670499802E0,-4.142399788E0,-1.729499936E0
4.311400000E1,-7.726099968E0,-5.269599915E0,-2.732199907E0
4.313400000E1,-8.824500084E0,-6.344799995E0,-3.685899973E0
4.316400000E1,-9.013299942E0,-7.354199886E0,-3.283699989E0
4.319400000E1,-7.109099865E0,-8.853699684E0,-1.722199917E0
4.322399844E1,-4.814399719E0,-9.470399857E0,-1.030799985E0
4.324399844E1,-3.133299828E0,-1.000089931E1,-1.245100021E0
4.326399844E1,-2.362999916E0,-9.871600151E0,-1.110700011E0
4.328399844E1,-1.965299964E0,-9.742499352E0,-5.155999660E-1
4.330399844E1,-2.230499983E0,-9.477399826E0,6.000000052E-3
4.332399844E1,-3.304899931E0,-8.561100006E0,6.541000009E-1
4.334399844E1,-4.101399899E0,-6.887300014E0,1.827099919E0
4.336399844E1,-2.991199970E0,-6.142999649E0,2.750399828E0
4.338399844E1,-3.407000005E-1,-6.528399944E0,2.692899942E0
4.340399844E1,2.295799971E0,-6.943799973E0,2.196099997E0
4.342399844E1,3.887199879E0,-7.155200005E0,1.250999928E0
4.344399844E1,4.102099895E0,-6.351399899E0,-5.649999902E-2
4.346399844E1,4.033599854E0,-4.664400101E0,-1.362599969E0
4.348399844E1,3.996899843E0,-2.844699860E0,-2.151700020E0
4.350399844E1,4.096399784E0,-1.137399912E0,-1.500899911E0
4.352399844E1,4.282099724E0,-5.379999802E-2,-4.287999868E-1
4.354400000E1,3.952499866E0,6.782999635E-1,2.967000008E-1
4.356400000E1,2.849599838E0,1.933299899E0,9.925999641E-1
4.359400000E1,3.190199852E0,2.585999966E0,1.618899941E0
4.361400000E1,4.424299717E0,3.402699947E0,2.326699972E0
4.363400000E1,5.844899654E0,4.340499878E0,2.118099928E0
4.366400000E1,7.030299664E0,5.907499790E0,1.203199983E0
4.369400000E1,8.256699562E0,6.261600018E0,1.031800032E0
4.372400000E1,9.635899544E0,6.054599762E0,2.319399834E0
4.375399844E1,1.173819923E1,4.992799759E0,3.656699896E0
4.377399844E1,1.260699940E1,3.800400019E0,4.159299850E0
4.379400000E1,1.216919994E1,2.553200006E0,4.867300034E0
4.381400000E1,1.094799995E1,1.023000002E0,5.272299767E0
4.383400000E1,8.864999771E0,4.237999916E-1,5.666399956E0
4.385400000E1,7.901299953E0,-3.692999780E-1,5.847799778E0
4.387400000E1,8.633500099E0,-1.968599916E0,5.056999683E0
4.390400000E1,1.074139977E1,-5.252099991E0,3.296299934E0
4.393400000E1,1.105249977E1,-8.683599472E0,2.817299843E0
4.395400000E1,8.803500175E0,-9.647299767E0,3.184599876E0
4.397400000E1,5.087199688E0,-8.833600044E0,3.249500036E0
4.400400000E1,-2.303999960E-1,-5.809199810E0,2.476199865E0
4.402400000E1,-1.870299935E0,-4.518899918E0,1.541499972E0
4.404400000E1,-2.290699959E0,-4.031499863E0,1.004500031E0
4.406400000E1,-2.549799919E0,-4.160699844E0,5.512999892E-1
4.409400000E1,-3.471699953E0,-4.927299976E0,-2.879000008E-1
4.411400000E1,-4.730599880E0,-5.155799866E0,-8.044999838E-1
4.413400000E1,-5.490599632E0,-5.846499920E0,-1.324399948E0
4.416400000E1,-6.056399822E0,-7.390999794E0,-1.986499906E0
4.419400000E1,-6.983599663E0,-7.500499725E0,-2.021399975E0
4.421400000E1,-7.114699841E0,-7.350699902E0,-1.964699984E0
4.423400000E1,-6.428699970E0,-7.740699768E0,-2.028100014E0
4.426400000E1,-5.157799721E0,-8.840000153E0,-1.949499965E0
4.429399844E1,-5.978399754E0,-8.252900124E0,-1.890699983E0
4.431399844E1,-6.167999744E0,-7.945299625E0,-1.371599913E0
4.433400000E1,-5.446399689E0,-8.277099609E0,-9.949999452E-1
4.436400000E1,-4.633800030E0,-7.328899860E0,-1.926999986E-1
4.438400000E1,-3.920099974E0,-6.381299973E0,2.662000060E-1
4.440400000E1,-2.124500036E0,-6.069099903E0,2.716000080E-1
4.443400000E1,1.241500020E0,-7.167099953E0,-2.101999968E-1
4.445400156E1,2.748600006E0,-8.415200233E0,-6.961999536E-1
4.448400000E1,4.148699760E0,-7.664499760E0,-8.023999929E-1
4.451400000E1,5.903599739E0,-3.996199846E0,-6.954999566E-1
4.453400000E1,6.831999779E0,-1.338799953E0,-5.985000134E-1
4.455400000E1,6.890100002E0,7.152999640E-1,-3.021999896E-1
4.457400000E1,6.545799732E0,1.930399895E0,1.132799983E0
4.459400000E1,5.803299904E0,2.943300009E0,2.965999842E0
4.461400000E1,5.308700085E0,3.815699816E0,4.419799805E0
4.463400000E1,4.718199730E0,4.768799782E0,5.775700092E0
4.465400000E1,4.675899982E0,5.172399998E0,7.302199841E0
4.467400000E1,4.378999710E0,5.652299881E0,8.345299721E0
4.469400000E1,4.079999924E0,5.968499660E0,8.051300049E0
4.471400000E1,4.372999668E0,5.928599834E0,6.943899632E0
4.473400000E1,5.283099651E0,5.737099648E0,5.694900036E0
4.476400000E1,6.559899807E0,5.033299923E0,3.838099957E0
4.478400000E1,7.335199833E0,4.372900009E0,2.874199867E0
4.480400000E1,8.363599777E0,3.432099819E0,2.232599974E0
4.482400000E1,8.907499313E0,2.686199903E0,1.917400002E0
4.484400000E1,9.182799339E0,1.531499982E0,2.558099985E0
4.487400000E1,7.751999855E0,-2.109999955E-2,3.495800018E0
4.489400000E1,6.176099777E0,-8.100000210E-3,4.236199856E0
4.491400000E1,5.802199841E0,-7.434999943E-1,3.917699814E0
4.493400000E1,7.014999866E0,-2.944499969E0,2.911000013E0
4.495400000E1,8.713999748E0,-6.058700085E0,1.772399902E0
4.497400000E1,8.404999733E0,-7.800099850E0,1.305599928E0
4.500399844E1,4.814499855E0,-7.623399734E0,1.533499956E0
4.502400000E1,1.855099916E0,-5.971399784E0,1.486199975E0
4.504400312E1,-5.198999643E-1,-4.151299953E0,1.412699938E0
4.507399844E1,-2.848500013E0,-2.380699873E0,4.839999974E-1
4.509400000E1,-4.005599976E0,-1.899999976E0,-1.930999905E-1
4.511400000E1,-5.084399700E0,-1.734699965E0,-6.202999949E-1
4.513400000E1,-5.896999836E0,-1.774299979E0,-1.394999981E0
4.515400000E1,-6.390299797E0,-2.131899834E0,-2.044600010E0
4.518399844E1,-6.490200043E0,-3.428699970E0,-2.724099874E0
4.520400000E1,-6.782799721E0,-3.840699911E0,-2.489899874E0
4.523400000E1,-6.087399960E0,-4.267699718E0,-1.744399905E0
4.526400000E1,-4.614999771E0,-5.341099739E0,-1.928799987E0
4.528400000E1,-3.832499981E0,-6.289700031E0,-1.847899914E0
4.530400000E1,-3.134399891E0,-7.145299911E0,-1.642099977E0
4.533400000E1,-2.171499968E0,-7.531199932E0,-1.455599904E0
4.535400000E1,-1.827099919E0,-7.152599812E0,-9.114999771E-1
4.537400000E1,-1.105099916E0,-7.370999813E0,-3.741999865E-1
4.540400000E1,-1.442600012E0,-6.502199650E0,3.764999807E-1
