"Time (s)","Linear Acceleration x (m/s^2)","Linear Acceleration y (m/s^2)","Linear Acceleration z (m/s^2)"
1.598593700E-2,1.334399939E0,-3.329999745E-2,-1.772300005E0
3.598593700E-2,4.271000028E-1,9.167999625E-1,-1.476199985E0
6.598593700E-2,1.208999977E-1,1.632299900E0,3.256999850E-1
8.598593700E-2,1.565999985E-1,1.784599900E0,1.061000004E-1
1.159859370E-1,5.771999955E-1,7.881000042E-1,1.640000008E-2
1.359859370E-1,4.206999838E-1,4.935999811E-1,-2.219999954E-2
1.559859370E-1,-8.069999516E-2,4.424999952E-1,1.947999895E-1
1.759875000E-1,-6.122999787E-1,7.285999656E-1,5.109999701E-2
2.059843750E-1,-4.032000005E-1,6.943999529E-1,-3.449999988E-1
2.259843750E-1,1.473999918E-1,3.716000021E-1,-6.470999718E-1
2.459843750E-1,1.796000004E-1,3.018999994E-1,-1.040999964E-1
2.659843750E-1,6.039999798E-2,1.119999960E-2,-8.619999886E-2
2.859859370E-1,-8.799999952E-3,-6.272999644E-1,-5.008999705E-1
3.159859370E-1,-1.893000007E-1,-4.682999849E-1,-2.708999813E-1
3.459859370E-1,4.044999778E-1,-5.230999589E-1,1.853999972E0
3.659921870E-1,6.097999811E-1,-3.731999993E-1,3.051599979E0
3.959843750E-1,-4.400999844E-1,-8.967999816E-1,1.775999904E0
4.159890620E-1,-4.691999853E-1,-1.108600020E0,2.312099934E0
4.459843750E-1,-1.791999936E-1,-2.084300041E0,1.786700010E0
4.659875000E-1,7.702999711E-1,-2.305799961E0,6.275999546E-1
4.959843750E-1,3.129999936E-1,-9.492999911E-1,1.219399929E0
5.159843750E-1,7.192999721E-1,-5.880999565E-1,3.411999941E-1
5.359859370E-1,3.497000039E-1,-1.006999969E0,1.096799970E0
5.659906250E-1,-4.634999931E-1,-5.537999868E-1,1.278699994E0
5.959843750E-1,-4.138000011E-1,-3.285000026E-1,-1.773999929E-1
6.159843750E-1,3.630000055E-1,-1.807999909E-1,-9.144999981E-1
6.359843750E-1,8.763999939E-1,-3.804000020E-1,-1.094599962E0
6.559843750E-1,-2.534999847E-1,2.458999902E-1,-3.005999923E-1
6.759843750E-1,-5.663999915E-1,5.500999689E-1,-4.201999903E-1
6.959843750E-1,-2.243999988E-1,5.640999675E-1,-3.859999776E-1
7.159859370E-1,2.400999963E-1,-8.299999870E-3,-5.212000012E-1
7.459843750E-1,4.468999803E-1,-7.056999803E-1,-9.330999851E-1
7.659843750E-1,8.416000009E-1,-6.687999964E-1,-9.712999463E-1
7.859859370E-1,5.381999612E-1,-5.240000039E-2,-5.040000007E-2
8.159843750E-1,-2.527000010E-1,6.074999571E-1,7.045999765E-1
8.359843750E-1,-5.536000133E-1,3.543999791E-1,-2.773000002E-1
8.559843750E-1,1.137499928E0,-1.191299915E0,-2.827000022E-1
8.759843750E-1,8.756999969E-1,-1.017499924E0,-1.371999979E-1
8.959843750E-1,-1.909999996E-1,-8.122999668E-1,7.603999972E-1
9.159843750E-1,-4.958999753E-1,-1.494300008E0,2.157899857E0
9.359843750E-1,-7.670999765E-1,-1.440500021E0,3.316900015E0
9.559843750E-1,-7.071999907E-1,-3.194999993E-1,2.135400057E0
9.759843750E-1,7.809999585E-2,-1.877999902E-1,1.092499971E0
9.959843750E-1,1.889999956E-1,-2.981999815E-1,1.115399957E0
1.015984375E0,3.959999979E-2,1.469999924E-2,1.469599962E0
1.035984375E0,2.098999918E-1,-4.178999960E-1,1.692799926E0
1.055984375E0,1.673399925E0,-6.557999849E-1,1.120100021E0
1.075984375E0,1.880199909E0,-6.344000101E-1,3.125000000E-1
1.095985937E0,1.967999935E0,-2.180999964E-1,-2.361999899E-1
1.115985937E0,9.738000035E-1,3.289999962E-1,2.335999906E-1
1.145984375E0,-6.590999961E-1,7.523999810E-1,-1.087199926E0
1.165984375E0,4.420999885E-1,3.306999803E-1,-2.040899992E0
1.185984375E0,2.055999935E-1,6.409999728E-1,-2.748199940E0
1.205984375E0,-2.504999936E-1,1.123299956E0,-2.032500029E0
1.225987500E0,-2.949999869E-1,1.813099980E0,-2.949000001E-1
1.255984375E0,-1.284999996E-1,1.257799983E0,-9.361000061E-1
1.275984375E0,3.219999745E-2,9.219999909E-1,-1.277799964E0
1.295984375E0,4.935999811E-1,3.980000019E-1,-7.893999815E-1
1.315984375E0,1.629000008E-1,6.753000021E-1,7.696999907E-1
1.335984375E0,1.370000001E-2,1.350399971E0,8.865000010E-1
1.355984375E0,-1.944999993E-1,9.939000010E-1,-4.217499733E0
1.375984375E0,1.328999996E-1,1.789999902E-1,1.291800022E0
1.395989062E0,4.039999843E-1,-4.016999900E-1,1.698499918E0
1.425984375E0,3.324999809E-1,3.974999785E-1,1.554899931E0
1.445985937E0,-2.765599966E0,1.679799914E0,2.067800045E0
1.465985937E0,-2.383399963E0,5.579999834E-2,3.668200016E0
1.495998437E0,-9.771999717E-1,-1.444299936E0,3.162799835E0
1.525984375E0,4.007000029E-1,-1.661399961E0,1.527799964E0
1.545987500E0,5.095999837E-1,-1.762799978E0,-7.081999779E-1
1.575984375E0,-1.633999944E-1,-1.299299955E0,-8.493999839E-1
1.595989062E0,9.264000058E-1,-1.527999997E0,1.049999986E-2
1.625984375E0,2.293999940E-1,-1.007499933E0,3.542000055E-1
1.645990625E0,2.929999828E-1,-8.007999659E-1,-9.936999679E-1
1.675984375E0,2.685999870E-1,-3.951999843E-1,-2.209899902E0
1.695987500E0,7.620000094E-2,2.757999897E-1,-4.148699760E0
1.725984375E0,8.897999525E-1,-4.930000007E-2,-2.973399878E0
1.745989062E0,2.870000005E-1,2.462999970E-1,-1.019400001E0
1.775984375E0,-2.031899929E0,2.085799932E0,8.303999901E-1
1.795984375E0,-1.773999929E0,1.650200009E0,-5.315999985E-1
1.815984375E0,-2.574000061E-1,3.109999932E-2,-7.220000029E-2
1.835989062E0,-4.250000045E-2,-3.334999979E-1,-9.950000048E-2
1.865984375E0,4.509999976E-2,2.701999843E-1,8.147000074E-1
1.885985937E0,5.036999583E-1,3.086999953E-1,1.358399987E0
1.915984375E0,9.052000046E-1,1.042999998E-1,1.189499974E0
1.935987500E0,1.213099957E0,-1.083000004E-1,1.491199970E0
1.965984375E0,1.541599989E0,1.638000011E-1,1.568000019E-1
1.985984375E0,1.162699938E0,4.561999738E-1,-7.459999919E-1
2.005984375E0,2.551999986E-1,5.024999976E-1,-6.809099674E0
2.025984375E0,1.237299919E0,-1.569999933E0,-2.181999981E-1
2.045984375E0,2.177599907E0,-1.735599995E0,2.407899857E0
2.065984375E0,2.483000040E0,-4.951999784E-1,2.036099911E0
2.085992187E0,1.424999952E0,2.053999901E-1,8.325999975E-1
2.115985937E0,-1.133599997E0,-4.484999776E-1,1.366500020E0
2.145984375E0,-6.837999821E-1,-1.190199971E0,1.359399915E0
2.165984375E0,2.703000009E-1,-5.781999826E-1,5.309999585E-1
2.185984375E0,4.299999680E-3,-4.884999990E-1,2.234999985E-1
2.205984375E0,-4.255999923E-1,-5.152999759E-1,-8.255999684E-1
2.225993750E0,-2.972999811E-1,-3.838999867E-1,-1.560699940E0
2.255984375E0,-3.129999936E-1,9.167999625E-1,-2.466399908E0
2.275984375E0,4.120999873E-1,1.077099919E0,-2.197299957E0
2.295984375E0,4.999999655E-4,1.625000000E0,-2.520999908E0
2.315984375E0,-7.270000130E-2,1.172500014E0,-2.529000044E0
2.335985937E0,-5.600000024E-1,1.114899993E0,-2.591599941E0
2.355985937E0,8.199999481E-2,4.054999948E-1,-1.963099957E0
2.375990625E0,1.126699924E0,8.118999600E-1,-2.103399992E0
2.405984375E0,-1.847499967E0,1.690899968E0,9.389999509E-1
2.425989062E0,-2.352799892E0,1.816499949E0,3.008599997E0
2.455984375E0,-8.290999532E-1,4.884999990E-1,1.654199958E0
2.475984375E0,-1.288999915E-1,-4.615999758E-1,2.533999920E0
2.495990625E0,6.316999793E-1,-3.252999783E-1,1.842299938E0
2.525990625E0,4.142999947E-1,-4.402000010E-1,2.734999895E0
2.555984375E0,2.779999971E-1,-1.316799998E0,4.365499973E0
2.575987500E0,8.143000007E-1,-1.673299909E0,4.548799992E0
2.605984375E0,1.570500016E0,-1.431999922E0,1.795099974E0
2.625984375E0,8.945999742E-1,-1.016299963E0,-2.813999951E-1
2.645985937E0,4.738999903E-1,-9.262999892E-1,-1.122599959E0
2.665992187E0,-4.729999974E-2,-1.299899936E0,-1.434799910E0
2.695987500E0,-3.119999915E-2,-1.609899998E0,-1.818399906E0
2.725985937E0,-1.028800011E0,-3.412999809E-1,-1.423999965E-1
2.755985937E0,-4.095999897E-1,3.100000024E-1,-6.283000112E-1
2.775985937E0,5.336999893E-1,-2.694000006E-1,-1.564700007E0
2.795985937E0,8.100999594E-1,1.048000008E-1,-2.785399914E0
2.815987500E0,6.209999695E-2,4.842999876E-1,-1.833099961E0
2.845984375E0,8.366999626E-1,2.422999889E-1,-1.914299965E0
2.865985937E0,9.772999883E-1,2.522000074E-1,-2.069799900E0
2.895985937E0,1.074999943E-1,1.205500007E0,-1.128799915E0
2.915989062E0,3.946999907E-1,1.231099963E0,-1.513299942E0
2.945984375E0,2.017999887E-1,6.360999942E-1,-1.522099972E0
2.965992187E0,1.065999940E-1,4.663999975E-1,-5.171899796E0
2.995985937E0,4.982999861E-1,-2.211999893E-1,4.271999896E-1
3.015985937E0,2.190299988E0,-8.702999949E-1,2.296799898E0
3.035985937E0,1.032099962E0,1.178999990E-1,2.821099997E0
3.055992187E0,-2.669999897E-1,8.431999683E-1,1.483299971E0
3.085984375E0,-7.030999660E-1,-1.432799935E0,1.169600010E0
3.105989062E0,-8.565999866E-1,-2.316599846E0,2.781800032E0
3.135984375E0,2.549000084E-1,-7.945999503E-1,3.189699888E0
3.155989062E0,1.750999928E0,-5.810999870E-1,2.250599861E0
3.185984375E0,8.138999939E-1,-8.098999858E-1,1.117200017E0
3.205990625E0,4.160000011E-2,-8.484999537E-1,1.360700011E0
3.235984375E0,8.079999685E-2,-8.545999527E-1,1.461499929E0
3.255989062E0,-3.949999809E-1,-1.685999930E-1,-2.337999940E-1
3.285984375E0,-8.499999642E-1,-3.814999759E-1,-9.756000042E-1
3.305992187E0,-5.860999823E-1,-1.002999991E-1,-2.651399851E0
3.335984375E0,-5.110999942E-1,2.069000006E-1,-2.595899820E0
3.355989062E0,-3.869999945E-1,7.053999901E-1,-1.469599962E0
3.385984375E0,-8.636999726E-1,1.837399960E0,-2.025199890E0
3.405987500E0,-9.106000066E-1,1.919999957E0,-2.402499914E0
3.435984375E0,-4.765999913E-1,1.260100007E0,-2.293599844E0
3.455985937E0,2.653000057E-1,9.307999611E-1,-2.799700022E0
3.485984375E0,-4.465000033E-1,1.059499979E0,-7.523999810E-1
3.505987500E0,-6.661999822E-1,1.796499968E0,-4.688999951E-1
3.535984375E0,-6.302999854E-1,8.001999855E-1,-8.323000073E-1
3.555984375E0,3.437999785E-1,-2.895999849E-1,-3.587999940E-1
3.575984375E0,-2.536999881E-1,-1.837700009E0,-4.248999953E-1
3.595984375E0,-5.279999971E-1,-2.412099838E0,3.487200022E0
3.615984375E0,-6.876999736E-1,-2.242799997E0,4.312900066E0
3.635984375E0,-1.350799918E0,-1.435699940E0,2.811199903E0
3.655984375E0,-1.400099993E0,-2.501999855E0,1.746599913E0
3.675984375E0,6.625999808E-1,-2.864300013E0,9.567999840E-1
3.695984375E0,9.922999740E-1,-1.659699917E0,2.813999951E-1
3.715984375E0,8.576999903E-1,-1.046999931E0,-1.997999996E-1
3.735984375E0,-9.529999644E-2,-2.656999826E-1,-4.302999973E-1
3.755984375E0,-1.026399970E0,1.463000029E-1,-1.791299939E0
3.775984375E0,-6.059999764E-2,-6.868999600E-1,-2.228899956E0
3.795984375E0,2.210799932E0,-1.071499944E0,-4.195999801E-1
3.815984375E0,1.184299946E0,-5.539000034E-1,-1.109200001E0
3.835984375E0,1.387999952E-1,1.305799961E0,-1.867999882E-1
3.855984375E0,-6.117999554E-1,1.312399983E0,-1.961999983E-1
3.875984375E0,-1.649699926E0,9.390999675E-1,1.666999936E0
3.895984375E0,-3.049999848E-2,1.899099946E0,1.269799948E0
3.915984375E0,4.774999917E-1,1.382799983E0,2.936199903E0
3.935984375E0,-1.243999958E0,1.660799980E0,8.065999746E-1
3.955984375E0,-1.575199962E0,1.005999923E0,6.202999949E-1
3.975984375E0,-4.675999880E-1,9.110999703E-1,-2.368000001E-1
3.995984375E0,-3.912999928E-1,1.959999949E-1,-1.662499905E0
4.015984375E0,-9.739999771E-1,-5.245000124E-1,-2.049900055E0
4.035984375E0,-1.274999976E-1,-1.690199971E0,-8.873999715E-1
4.055984375E0,6.480000168E-2,-1.007699966E0,4.528999925E-1
4.075984375E0,-1.132399917E0,-1.358000040E-1,1.287500024E0
4.095985937E0,-1.825999975E0,-7.786999941E-1,1.325799942E0
4.115985937E0,-6.129999831E-2,-1.805199981E0,2.951999903E-1
4.145984375E0,8.297999501E-1,-3.089299917E0,7.591999769E-1
4.165984375E0,-2.174000025E0,-1.325500011E0,2.701999903E0
4.185984375E0,-3.292199850E0,-5.468999743E-1,-8.569999784E-2
4.205984375E0,-1.084699988E0,-1.110199928E0,-1.093799949E0
4.225984375E0,9.883999825E-1,-2.582999945E0,-1.860700011E0
4.245984375E0,1.623499990E0,-3.744099855E0,-2.581699848E0
4.265984375E0,1.241699934E0,-2.534699917E0,-2.802999973E0
4.285992187E0,2.059900045E0,-3.599999905E0,-3.364099979E0
4.315984375E0,2.536499977E0,-3.780900002E0,-3.678499937E0
4.335984375E0,1.462499976E0,-3.130800009E0,-3.419199944E0
4.355984375E0,8.337999582E-1,-3.098599911E0,-4.461100101E0
4.375984375E0,3.168999851E-1,-2.791899920E0,-3.238099813E0
4.395984375E0,-7.129999995E-1,-2.089999914E0,-1.302899957E0
4.415984375E0,-1.937500000E0,-1.603299975E0,3.355000019E-1
4.435984375E0,-3.189899921E0,-1.598599911E0,1.924699903E0
4.455984375E0,-4.833699703E0,-1.645699978E0,3.773000002E0
4.475984375E0,-5.312099934E0,-5.219999701E-2,3.471099854E0
4.495984375E0,-5.652999878E0,1.232800007E0,4.238599777E0
4.515990625E0,-4.401700020E0,1.517099977E0,3.797499895E0
4.545984375E0,-3.165599823E0,2.530999899E0,4.363999844E0
4.565984375E0,-2.655099869E0,2.949499846E0,4.748199940E0
4.585984375E0,-1.434299946E0,2.969099998E0,4.958099842E0
4.605984375E0,-2.314999998E-1,2.630100012E0,5.396499634E0
4.625984375E0,-7.428999543E-1,2.571099997E0,5.163000107E0
4.645985937E0,-1.725899935E0,2.637300014E0,2.654899836E0
4.665985937E0,-8.298999667E-1,1.607499957E0,5.201900005E0
4.695987500E0,-1.160399914E0,-2.646999955E-1,1.925199986E0
4.725985937E0,-1.162000000E-1,-2.079200029E0,-9.832999706E-1
4.755985937E0,1.151999980E-1,-3.018499851E0,-8.898999691E-1
4.785985937E0,6.566999555E-1,-4.875400066E0,-1.584899902E0
4.815984375E0,-2.526099920E0,-2.491799831E0,-1.385699987E0
4.835985937E0,-2.958799839E0,-2.658200026E0,-2.579999924E0
4.855985937E0,-4.593999982E-1,-9.728999734E-1,-7.213000059E-1
4.885985937E0,1.282599926E0,1.985799909E0,8.804000020E-1
4.915984375E0,4.024099827E0,9.476999640E-1,-4.989999905E-2
4.935984375E0,4.800999641E0,2.027099848E0,8.488999605E-1
4.955984375E0,3.898599863E0,4.095600128E0,8.879999518E-1
4.975984375E0,3.709399939E0,4.831999779E0,1.185599923E0
4.995984375E0,2.199300051E0,4.543200016E0,1.142499924E0
5.015984375E0,1.807899952E0,2.342299938E0,2.813499928E0
5.035984375E0,1.414799929E0,2.827899933E0,1.849000007E-1
5.055984375E0,1.094599962E0,1.865599990E0,1.086199999E0
5.075984375E0,-1.070099950E0,7.380999923E-1,-1.620899916E0
5.095985937E0,-3.080499887E0,-2.163800001E0,-1.564599991E0
5.115985937E0,-1.915699959E0,-2.517199993E0,1.686499953E0
5.135985937E0,-4.423099995E0,2.888000011E-1,1.759999990E-1
5.165984375E0,-7.304100037E0,-5.403999686E-1,-3.901000023E-1
5.185984375E0,-6.649399757E0,-5.498999953E-1,7.073000073E-1
5.205984375E0,-3.607599974E0,-1.840899944E0,1.348099947E0
5.225984375E0,-2.334999889E-1,-3.008100033E0,1.832199931E0
5.245984375E0,3.655200005E0,-2.206699848E0,3.237200022E0
5.265984375E0,2.857699871E0,1.868399978E0,3.347699881E0
5.285984375E0,3.410300016E0,4.444900036E0,3.941299915E0
5.305985937E0,2.505999804E-1,3.533699989E0,2.248299837E0
5.335984375E0,2.343999892E-1,2.045300007E0,-3.879999742E-2
5.355985937E0,-1.163999915E0,3.327499866E0,2.203999907E-1
5.385984375E0,3.376999795E-1,2.786000073E-1,-9.548999667E-1
5.405984375E0,1.214800000E0,-1.713400006E0,-1.701499939E0
5.425984375E0,2.470700026E0,-1.824299932E0,-3.586899996E0
5.445984375E0,1.959199905E0,-6.049000025E-1,-3.378899813E0
5.465984375E0,2.280200005E0,-1.870299935E0,-4.786299706E0
5.485984375E0,3.440699816E0,-3.436000049E-1,-2.909699917E0
5.505984375E0,8.989999443E-2,4.765999913E-1,-2.007900000E0
5.525984375E0,-4.236999750E-1,1.503999978E-1,-2.673499823E0
5.545984375E0,9.957000017E-1,-7.374999523E-1,-2.987900019E0
5.565984375E0,1.530699968E0,-3.499199867E0,-2.857999802E-1
5.585984375E0,-2.985999882E-1,-4.263000011E0,1.397599936E0
5.605984375E0,3.380999863E-1,-3.840799809E0,1.286599994E0
5.625984375E0,1.664499998E0,-5.291199684E0,3.046599865E0
5.645984375E0,1.566299915E0,-2.098899841E0,5.446399689E0
5.665984375E0,-2.664099932E0,9.344999790E-1,2.894500017E0
5.685984375E0,-2.761299849E0,-1.119199991E0,-2.857599974E0
5.705984375E0,-1.072799921E0,-5.113800049E0,-3.093199968E0
5.725984375E0,-2.293999940E-1,-4.594500065E0,-1.558399916E0
5.745984375E0,-2.626000047E-1,-1.188499928E0,-5.159000158E-1
5.765984375E0,-1.834999919E-1,1.145099998E0,-1.844599962E0
5.785985937E0,1.134999990E-1,3.922999799E-1,-2.360499859E0
5.815984375E0,1.976899981E0,-1.740599990E0,-4.284999847E0
5.835984375E0,9.235999584E-1,-5.428000093E-1,-2.175699949E0
5.855984375E0,3.209999800E-1,1.087899923E0,-1.139799953E0
5.875984375E0,-6.523999572E-1,1.421499968E0,-8.826999664E-1
5.895984375E0,-1.036899924E0,5.712000132E-1,-1.533699989E0
5.915984375E0,-1.549899936E0,-3.637000024E-1,-2.082700014E0
5.935984375E0,-1.030699968E0,-1.115199924E0,-1.359699965E0
5.955984375E0,-2.031999975E-1,-1.230999947E0,-8.007000089E-1
5.975984375E0,3.721999824E-1,-8.465999961E-1,8.682000041E-1
5.995984375E0,7.921999693E-1,1.843999922E-1,1.891099930E0
6.015984375E0,1.275499940E0,7.028999925E-1,1.670899987E0
6.035984375E0,1.430599928E0,5.425999761E-1,8.096999526E-1
6.055984375E0,8.811999559E-1,3.409999982E-2,3.015999794E-1
6.075984375E0,-1.850000024E-2,5.723999739E-1,3.495999873E-1
6.095984375E0,-4.473999739E-1,1.080799937E0,-1.138999939E0
6.115984375E0,-1.081900001E0,1.274699926E0,6.931999922E-1
6.135984375E0,-1.369799972E0,4.222999811E-1,1.839100003E0
6.155984375E0,-2.012099981E0,-1.558399916E0,2.546499968E0
6.175985937E0,-2.754099846E0,-4.386000037E-1,8.018999696E-1
6.205984375E0,-3.746299982E0,-2.159100056E0,2.273900032E0
6.225984375E0,-3.974299908E0,-2.195999861E0,1.592599988E0
6.245984375E0,-4.664099693E0,-7.012999654E-1,-4.319999814E-1
6.265984375E0,-4.668399811E0,-5.634999871E-1,-6.355999708E-1
6.285984375E0,-2.579900026E0,-1.167599916E0,2.511999905E-1
6.305984375E0,-5.543000102E-1,-1.582700014E0,1.462299943E0
6.325984375E0,7.299000025E-1,-1.456799984E0,1.931899905E0
6.345984375E0,8.896999955E-1,-2.131000012E-1,1.306299925E0
6.365984375E0,9.739999771E-1,-5.613999963E-1,1.549600005E0
6.385984375E0,1.199399948E0,8.486999869E-1,1.079599977E0
6.405984375E0,2.287600040E0,1.700500011E0,1.227499962E0
6.425984375E0,3.079399824E0,1.970099926E0,1.447600007E0
6.445984375E0,2.845599890E0,9.120999575E-1,2.719999850E-1
6.465984375E0,2.552000046E0,5.776999593E-1,-9.312999845E-1
6.485984375E0,3.063299894E0,9.997999668E-1,-1.088999957E-1
6.505984375E0,3.608199835E0,1.915899992E0,1.176100016E0
6.525984375E0,2.337199926E0,1.525299907E0,5.967000127E-1
6.545987500E0,1.865499973E0,-6.133999825E-1,-8.060000092E-2
6.575984375E0,-6.075999737E-1,-1.884000003E-1,-3.285999894E-1
6.595985937E0,-9.143999815E-1,1.912400007E0,1.607100010E0
6.615987500E0,-3.678999841E-1,3.282799959E0,3.942799807E0
6.645984375E0,1.599999890E-2,-8.609999716E-2,4.088099957E0
6.665984375E0,-7.840999961E-1,-2.539799929E0,1.471199989E0
6.685984375E0,-3.348299980E0,-2.248499870E0,-4.444999993E-1
6.705984375E0,-1.537699938E0,-3.369899988E0,5.536000133E-1
6.725984375E0,-1.526999950E0,-5.146299839E0,6.353999972E-1
6.745984375E0,-9.167999625E-1,-5.487999916E0,5.052999854E-1
6.765984375E0,4.171999991E-1,-4.826499939E0,2.691999972E-1
6.785984375E0,2.313400030E0,-4.392299652E0,2.964999974E-1
6.805984375E0,1.220499992E0,-3.526399851E0,-1.414499998E0
6.825984375E0,1.839599967E0,-4.161399841E0,-1.175999999E0
6.845984375E0,2.159899950E0,-3.555099964E0,-2.701299906E0
6.865984375E0,1.227100015E0,-2.025300026E0,-2.872900009E0
6.885984375E0,8.528999686E-1,-9.763000011E-1,-2.863499880E0
6.905984375E0,1.043900013E0,-3.131999969E-1,-2.387399912E0
6.925984375E0,1.389799953E0,3.027999997E-1,-1.023000002E0
6.945984375E0,4.873999953E-1,2.956399918E0,5.946999788E-1
6.965984375E0,-2.685999870E-1,4.411600113E0,1.759499907E0
6.985984375E0,4.291999936E-1,3.293099880E0,1.798999906E0
7.005984375E0,1.368999958E0,1.658399940E0,2.456500053E0
7.025984375E0,2.960799932E0,3.671000004E-1,2.960299969E0
7.045984375E0,1.763000011E0,-1.981099963E0,1.976699948E0
7.065984375E0,6.992999911E-1,-1.999300003E0,2.161399841E0
7.085984375E0,-1.212999970E-1,1.268000007E-1,1.945699930E0
7.105984375E0,-2.819999866E-2,7.759999633E-1,1.939299941E0
7.125985937E0,-7.710000128E-2,-3.718000054E-1,1.949599981E0
7.155984375E0,-4.170300007E0,3.391999900E-1,-2.135099888E0
7.175984375E0,-1.870399952E0,7.795999646E-1,-5.004999638E-1
7.195984375E0,7.620999813E-1,1.569700003E0,-6.579999626E-2
7.215984375E0,-5.241000056E-1,1.131099939E0,-2.096000016E-1
7.235984375E0,-2.356400013E0,2.924999893E-1,-8.538999557E-1
7.255984375E0,-8.507999778E-1,1.016099930E0,-8.542999625E-1
7.275984375E0,-2.802000046E-1,3.247200012E0,2.131000012E-1
7.295984375E0,-2.835399866E0,5.204699993E0,1.433699965E0
7.315984375E0,-7.905099869E0,5.321499825E0,4.181099892E0
7.335984375E0,-8.606599808E0,4.999199867E0,2.724699974E0
7.355984375E0,-5.024399757E0,2.165299892E0,6.196799755E0
7.375984375E0,-8.667999506E-1,-2.430599928E0,1.808399916E0
7.395984375E0,-1.749599934E0,-1.835799932E0,2.710199833E0
7.415984375E0,2.627499819E0,-7.863399982E0,-1.744000018E-1
7.435984375E0,1.777999997E-1,-3.776099920E0,-4.456000030E-1
7.455984375E0,-5.192999840E-1,-2.199300051E0,4.431699753E0
7.475984375E0,-1.110299945E0,-3.414399862E0,3.274099827E0
7.495984375E0,2.896199942E0,-4.740999699E0,-3.640899897E0
7.515984375E0,1.463599920E0,-8.055500031E0,-1.364079952E1
7.535984375E0,5.213999748E0,-6.580199718E0,-7.652699947E0
7.555984375E0,6.697299957E0,-3.695999861E0,-6.816199780E0
7.575984375E0,6.148499966E0,-4.036499977E0,-5.541500092E0
7.595985937E0,-8.269999921E-2,6.001999974E-1,3.280999959E-1
7.625984375E0,1.709699988E0,-4.431099892E0,-3.804000020E-1
7.645984375E0,1.223099947E0,-4.978600025E0,1.241099954E0
7.665984375E0,-1.330399990E0,1.715600014E0,4.120500088E0
7.685984375E0,-2.804600000E0,3.939099789E0,3.053299904E0
7.705984375E0,2.109999955E-2,2.291999906E-1,2.067399979E0
7.725984375E0,1.089599967E0,5.583999753E-1,2.252199888E0
7.745984375E0,1.001999974E-1,1.988899946E0,3.255999804E0
7.765984375E0,-1.577000022E-1,7.779999971E-1,2.341699839E0
7.785984375E0,-1.009999961E-2,3.671999872E-1,2.586799860E0
7.805984375E0,-9.993000031E-1,2.856799841E0,3.403599977E0
7.825984375E0,-2.640399933E0,2.830899954E0,3.915499926E0
7.845984375E0,-1.642499924E0,8.639999628E-1,3.542199850E0
7.865984375E0,-2.548399925E0,1.190500021E0,2.123199940E0
7.885984375E0,-2.268499851E0,-1.796999931E0,-8.861999512E-1
7.905984375E0,-3.424499989E0,-3.999899864E0,-5.442899704E0
7.925984375E0,-4.231899738E0,-4.943200111E0,-6.284800053E0
7.945984375E0,-5.428999662E-1,-3.696299791E0,-1.380100012E0
7.965984375E0,1.642300010E0,-1.682599902E0,-1.077700019E0
7.985984375E0,2.229300022E0,-1.414799929E0,-2.916100025E0
8.005984375E0,2.953099966E0,-1.621500015E0,-5.109999657E0
8.025984375E0,3.723199844E0,-1.465199947E0,-5.125499725E0
8.045984375E0,4.462399960E0,-7.231999636E-1,-2.761899948E0
8.065984375E0,3.872799873E0,3.817999959E-1,-1.128299952E0
8.085984375E0,1.955399990E0,1.246899962E0,7.429999709E-1
8.105984375E0,-7.344999909E-1,1.459999919E0,7.486000061E-1
8.125984375E0,-2.616299868E0,1.514499903E0,2.324999869E-1
8.145984375E0,-2.847299814E0,1.155200005E0,1.752299905E0
8.165984375E0,-1.808899999E0,5.726999640E-1,2.986899853E0
8.185984375E0,3.827999830E-1,6.053999662E-1,2.747200012E0
8.205985937E0,1.431899905E0,4.726999998E-1,7.680999637E-1
8.235984375E0,9.767999649E-1,3.123999834E-1,-4.817999899E-1
8.255984375E0,1.485000014E0,3.825999796E-1,-3.773999810E-1
8.275984375E0,2.144500017E0,4.254999757E-1,-3.360999823E-1
8.295984375E0,2.152199984E0,2.311999947E-1,1.213599920E0
8.315984375E0,6.929000020E-1,8.500000089E-2,3.429999828E0
8.335984375E0,-1.913999915E-1,-1.659999974E-2,2.762699842E0
8.355984375E0,-7.261999846E-1,-2.087999880E-1,1.571699977E0
8.375984375E0,-7.150999904E-1,-4.703999758E-1,7.663999796E-1
8.395984375E0,-4.707999825E-1,-4.032000005E-1,2.036000013E0
8.415984375E0,-1.407799959E0,6.534999609E-1,2.838999987E0
8.435984375E0,-4.525599957E0,2.996000051E-1,6.599999905E0
8.455984375E0,-4.234399796E0,-3.383800030E0,4.187099934E0
8.475992187E0,-2.376600027E0,-5.070799828E0,4.290999889E0
8.505984375E0,-2.732399940E0,-7.095900059E0,3.312500000E0
8.525984375E0,-7.542999983E-1,-4.407899857E0,-1.697199941E0
8.545984375E0,7.777000070E-1,-2.880300045E0,-3.499300003E0
8.565984375E0,2.883000076E-1,-3.593499899E0,-9.465000033E-1
8.585984375E0,1.245499969E0,-3.708499908E0,1.183799982E0
8.605984375E0,9.176999927E-1,-1.378899932E0,5.354999900E-1
8.625984375E0,8.168999553E-1,1.405999959E-1,-2.013799906E0
8.645985937E0,4.619999826E-1,1.650599957E0,-2.319900036E0
8.675984375E0,1.093699932E0,1.133099914E0,-2.320400000E0
8.695984375E0,2.398299932E0,1.530999988E-1,-2.998600006E0
8.715984375E0,2.068099976E0,5.029000044E-1,-4.154200077E0
8.735984375E0,1.320099950E0,1.303300023E0,-5.766900063E0
8.755984375E0,8.394999504E-1,3.186299801E0,-6.049299717E0
8.775984375E0,1.371799946E0,4.129300117E0,-5.127699852E0
8.795984375E0,1.989099979E0,3.179399967E0,-5.376599789E0
8.815984375E0,2.169899940E0,3.082799911E0,-4.555200100E0
8.835984375E0,2.891499996E0,3.684099913E0,-2.897599936E0
8.855984375E0,2.594499826E0,4.229399681E0,3.316999972E-1
8.875984375E0,-6.294999719E-1,4.508899689E0,3.524899960E0
8.895984375E0,-3.106099844E0,1.327799916E0,5.107100010E0
8.915984375E0,-3.930999994E0,-5.809999943E0,1.095639992E1
8.935984375E0,-5.396999836E0,-1.071010017E1,1.526489925E1
8.955984375E0,-1.471399903E0,-5.988199711E0,6.999199867E0
8.975984375E0,-1.695400000E0,-3.705999851E-1,2.685999870E0
8.995984375E0,-1.248700023E0,-3.090399981E0,-5.218800068E0
9.015984375E0,2.185799837E0,-5.031300068E0,-1.034410000E1
9.035984375E0,3.875299931E0,-4.365099907E0,-9.353499413E0
9.055984375E0,3.954199791E0,4.579999745E-1,-4.481599808E0
9.075985937E0,4.167599678E0,3.727199793E0,-2.028100014E0
9.095985937E0,5.271100044E0,3.905999899E0,2.567100048E0
9.115985937E0,8.453999758E-1,-3.044999838E-1,-3.428399801E0
9.135985937E0,-2.395499945E0,-3.119599819E0,-6.216399670E0
9.165984375E0,-1.947299957E0,-4.147000015E-1,-5.254600048E0
9.185984375E0,-5.630999804E-1,2.805599928E0,-5.692699909E0
9.205984375E0,9.659000039E-1,2.696699858E0,3.815199852E0
9.225984375E0,2.381999969E0,7.462999821E-1,1.126629925E1
9.245984375E0,1.127200007E0,4.098999798E-1,2.903800011E0
9.265984375E0,-2.009999938E-2,6.065999866E-1,-5.373899937E0
9.285984375E0,-7.850999832E-1,-1.093999967E-1,-3.288499832E0
9.305984375E0,-7.700999975E-1,1.251999974E0,3.672199965E0
9.325984375E0,-6.358000040E-1,1.356699944E0,5.525000095E0
9.345984375E0,-1.449999928E0,5.776999593E-1,7.540999651E-1
9.365984375E0,-2.307699919E0,1.088999987E0,4.940999746E-1
9.385984375E0,-1.026000023E0,9.792999625E-1,3.173599958E0
9.405984375E0,-8.213999867E-1,2.379999869E-2,4.068200111E0
9.425984375E0,-8.533999920E-1,-1.478899956E0,3.715299845E0
9.445984375E0,-2.092499971E0,-2.208799839E0,4.155299664E0
9.465984375E0,-3.412599802E0,-9.377999902E-1,2.511600018E0
9.485984375E0,-3.373999834E0,1.127999946E-1,3.308799982E0
9.505984375E0,-4.904699802E0,-1.253399968E0,4.708499908E0
9.525984375E0,-3.532099962E0,-1.696699977E0,5.396199703E0
9.545984375E0,-2.462399960E0,-9.514999986E-1,8.841199875E0
9.565984375E0,-1.865999937E0,-2.428299904E0,1.124300003E0
9.585984375E0,-2.978899956E0,-4.312699795E0,-4.092199802E0
9.605985937E0,-1.040300012E0,-6.505699635E0,-6.080100060E0
9.635984375E0,6.161999702E-1,-8.404500008E0,4.122999907E-1
9.655984375E0,2.409199953E0,-5.916100025E0,3.959100008E0
9.675984375E0,1.973399997E0,-2.361899853E0,-8.449999690E-1
9.695984375E0,1.421800017E0,-3.795000017E-1,-1.710599899E0
9.715984375E0,1.212999970E-1,7.271999717E-1,-2.895699978E0
9.735984375E0,5.056999922E-1,1.530599952E0,-3.359799862E0
9.755984375E0,7.892000079E-1,1.992499948E0,-3.992199898E0
9.775984375E0,1.714299917E0,2.465199947E0,-3.953799963E0
9.795984375E0,2.375000000E0,2.645699978E0,-3.865799904E0
9.815984375E0,2.701099873E0,2.416800022E0,-5.563099861E0
9.835984375E0,3.450599909E0,2.343099833E0,-7.273900032E0
9.855984375E0,3.914099932E0,2.809299946E0,-8.150599480E0
9.875984375E0,3.883699894E0,3.533900023E0,-7.542599678E0
9.895984375E0,3.231599808E0,3.370800018E0,-4.868799686E0
9.915984375E0,1.672799945E0,4.192399979E0,-2.116299868E0
9.935984375E0,-1.233199954E0,2.389099836E0,3.386399984E0
9.955984375E0,-3.527699947E0,-3.467799902E0,1.261889935E1
9.975984375E0,-7.750399590E0,-9.785999298E0,2.070329857E1
9.995984375E0,-6.585299969E0,-5.502999783E0,6.818599701E0
1.001598438E1,-7.100999951E-1,-3.782999814E-1,6.507999897E-1
1.003598438E1,4.408999979E-1,-1.572399974E0,-1.384899974E0
1.005598438E1,-1.240999937E0,-5.254799843E0,-8.118700027E0
1.007598438E1,2.721099854E0,-7.320899963E0,-1.062430000E1
1.009598438E1,5.677299976E0,-6.164199829E0,-6.384899616E0
1.011598438E1,5.727699757E0,-1.100000024E0,-3.049799919E0
1.013598438E1,7.703799725E0,3.005299807E0,6.101599693E0
1.015598438E1,2.609599829E0,2.128200054E0,-5.282799721E0
1.017598438E1,-1.663100004E0,-2.320199966E0,-1.074440002E1
1.019598438E1,-3.828599930E0,-3.371500015E0,-7.957899570E0
1.021598438E1,-2.828199863E0,-1.425999999E-1,-5.610799789E0
1.023598438E1,-9.995999932E-1,2.264600039E0,-4.331399918E0
1.025598594E1,3.079999983E-1,3.747999907E0,8.892999887E-1
1.028599375E1,2.531699896E0,1.720199943E0,1.165030003E1
1.031598438E1,-4.575999975E-1,7.391999960E-1,-3.593899965E0
1.033598438E1,-5.566999912E-1,-7.339999825E-2,-4.935199738E0
1.035598594E1,-3.520999849E-1,9.181999564E-1,1.975499988E0
1.038598438E1,-2.125799894E0,1.021000028E0,8.894000053E0
1.040598594E1,-2.552599907E0,2.098899841E0,2.677399874E0
1.042598594E1,-2.219300032E0,2.225100040E0,4.461999834E-1
1.044598594E1,-1.957099915E0,1.248299956E0,-7.756999731E-1
1.046598594E1,-2.464900017E0,3.850999773E-1,1.642300010E0
1.048598594E1,-2.117899895E0,-2.832999825E-1,4.792900085E0
1.050598594E1,-1.015599966E0,-9.279999733E-1,2.703299999E0
1.052598594E1,-5.925999880E-1,-1.309399962E0,1.594099998E0
1.055598438E1,-2.266899824E0,-6.101999879E-1,4.763799667E0
1.057598594E1,-4.937900066E0,-1.478500009E0,6.348999977E0
1.060598906E1,-5.737799644E0,7.726999521E-1,7.391999722E0
1.063598438E1,-4.582299709E0,-1.436399937E0,1.230599999E0
1.065598594E1,-3.429999828E0,-3.842000008E0,-3.803299904E0
1.068598438E1,-6.017999649E-1,-8.948399544E0,-4.717700005E0
1.070598438E1,7.793999910E-1,-9.954400063E0,1.955500007E0
1.072598438E1,3.172299862E0,-6.752799988E0,3.322199821E0
1.074598438E1,2.882299900E0,-2.655799866E0,-4.887000024E-1
1.076598438E1,2.741499901E0,-3.967999816E-1,-2.445799828E0
1.078598438E1,1.779699922E0,-8.489999920E-2,-3.555199862E0
1.080598438E1,1.652699947E0,1.005200028E0,-3.668499947E0
1.082598438E1,1.270399928E0,2.560999870E0,-4.233799934E0
1.084598438E1,1.821399927E0,3.040099859E0,-4.851500034E0
1.086598438E1,1.914399981E0,2.904099941E0,-4.474299908E0
1.088598438E1,2.682099819E0,2.662499905E0,-5.661299706E0
1.090598438E1,4.117499828E0,2.630800009E0,-8.119999886E0
1.092598438E1,4.730999947E0,3.098399878E0,-9.079199791E0
1.094598438E1,5.014400005E0,3.473399878E0,-8.242499352E0
1.096598438E1,4.285999775E0,3.979899883E0,-4.977600098E0
1.098598438E1,6.712999940E-1,3.820999861E0,-2.026799917E0
1.100598438E1,-3.251899958E0,-4.931999743E-1,6.769099712E0
1.102598438E1,-7.414199829E0,-8.566599846E0,2.727680016E1
1.104598438E1,-8.848599434E0,-1.249259949E1,1.357949924E1
1.106598438E1,-3.880999804E0,-5.996999741E-1,4.517600060E0
1.108598438E1,1.751899958E0,5.423500061E0,3.531699896E0
1.110598438E1,2.306999922E0,3.443300009E0,-8.230699539E0
1.112598438E1,-6.441000104E-1,-3.062000036E0,-1.336689949E1
1.114598438E1,2.600199938E0,-7.347300053E0,-1.145669937E1
1.116598438E1,4.303899765E0,-9.487999916E0,-5.851199627E0
1.118598438E1,8.668899536E0,-1.248469925E1,1.740369987E1
1.120598438E1,6.084499836E0,-3.837599993E0,-1.413100004E0
1.122598438E1,2.690099955E0,2.444200039E0,-1.151449966E1
1.124598438E1,-2.073299885E0,1.743399978E0,-1.007219982E1
1.126598438E1,-2.604899883E0,7.677999735E-1,-7.177099705E0
1.128598438E1,-2.143300056E0,1.003499985E0,-5.662399769E0
1.130598438E1,-1.030799985E0,2.116899967E0,-4.908499718E0
1.132598438E1,6.909999996E-2,2.404399872E0,3.258299828E0
1.134598438E1,9.968999624E-1,1.615999937E0,1.659169960E1
1.136598438E1,1.212299943E0,1.730499983E0,3.932999849E0
1.138598438E1,1.476999998E0,-8.554999828E-1,-5.142199993E0
1.140598438E1,7.754999995E-1,-2.280999869E-1,-1.207299948E0
1.142598438E1,-1.630000025E-2,1.642399907E0,5.468400002E0
1.144598438E1,-1.658199906E0,1.827899933E0,5.590199947E0
1.146598438E1,-2.971199989E0,1.981999993E0,7.730999589E-1
1.148598438E1,-2.646399975E0,2.100699902E0,5.058999658E-1
1.150598438E1,-2.405699968E0,2.221699953E0,2.596199989E0
1.152598438E1,-2.569000006E0,6.607999802E-1,3.843400002E0
1.154598438E1,-2.641499996E0,-1.384400010E0,3.418599844E0
1.156598438E1,-2.440700054E0,-2.242399931E0,4.432600021E0
1.158598438E1,-3.197799921E0,-1.129299998E0,4.180699825E0
1.160598438E1,-4.979899883E0,-1.089900017E0,5.788399696E0
1.162598438E1,-6.215199947E0,-1.323699951E0,5.022099972E0
1.164598594E1,-5.372200012E0,-1.430999935E-1,6.780599594E0
1.167598438E1,-4.787899971E0,-2.461899996E0,-8.669999987E-2
1.169598438E1,-2.361700058E0,-6.162099838E0,-3.207999945E0
1.171598438E1,3.836999834E-1,-8.867300034E0,-4.015100002E0
1.173598438E1,9.455999732E-1,-9.012199402E0,1.147300005E0
1.175598438E1,1.357399940E0,-4.910899639E0,3.775699854E0
1.177598438E1,1.146499991E0,-2.330600023E0,-1.788899899E0
1.179598438E1,9.587999582E-1,-1.296000004E0,-2.804999828E0
1.181598438E1,-5.604999661E-1,-6.261000037E-1,-2.015699863E0
1.183598438E1,1.130399942E0,-1.375000030E-1,-2.871099949E0
1.185598438E1,2.520999908E0,8.183000088E-1,-3.280299902E0
1.187598438E1,3.554299831E0,1.469999909E0,-3.858199835E0
1.189598438E1,3.253099918E0,2.784600019E0,-5.184799671E0
1.191598438E1,2.032299995E0,3.469299793E0,-6.469599724E0
1.193598438E1,2.241999865E0,2.979899883E0,-8.401999474E0
1.195598438E1,3.733500004E0,2.260900021E0,-9.455399513E0
1.197598438E1,5.240399837E0,2.034800053E0,-9.001099586E0
1.199598438E1,5.632799625E0,2.423599958E0,-6.916699886E0
1.201598438E1,3.513000011E0,3.718400002E0,-4.719399929E0
1.203598438E1,3.366999924E-1,1.830799937E0,6.359999627E-2
1.205598438E1,-7.339999676E-1,-4.512799740E0,6.582900047E0
1.207598438E1,-5.826999664E0,-1.278749943E1,3.096789932E1
1.209598438E1,-5.040199757E0,-9.315599442E0,1.222189999E1
1.211598438E1,-1.095299959E0,1.145200014E0,1.602100015E0
1.213598438E1,9.512999654E-1,3.909099817E0,-3.335899830E0
1.215598438E1,-1.082700014E0,-2.003000021E0,-9.799200058E0
1.217598438E1,-1.478299975E0,-6.744199753E0,-9.075200081E0
1.219598438E1,1.626199961E0,-6.547800064E0,-6.555099964E0
1.221598438E1,8.789999485E-1,-2.616099834E0,-1.775999904E0
1.223598438E1,2.938799858E0,6.351999640E-1,8.561999798E-1
1.225598438E1,2.347100019E0,5.683000088E-1,-5.756499767E0
1.227598438E1,1.055999994E-1,-1.240299940E0,-8.363900185E0
1.229598438E1,-2.353600025E0,-1.978199959E0,-6.752199650E0
1.231598438E1,-1.009099960E0,5.981000066E-1,-6.043900013E0
1.233598438E1,5.119999647E-1,2.810199976E0,-5.732399940E0
1.235598438E1,2.084100008E0,1.322999954E0,5.962399960E0
1.237598438E1,4.143099785E0,9.611999989E-1,9.576499939E0
1.239598438E1,1.830199957E0,8.341999650E-1,1.950999945E-1
1.241598438E1,-1.750999987E-1,6.563999653E-1,-2.832399845E0
1.243598438E1,-1.239799976E0,1.245399952E0,-1.735999942E0
1.245598438E1,-5.523999929E-1,1.579299927E0,1.430799961E0
1.247598438E1,-3.469999880E-2,1.798999906E0,6.093800068E0
1.249598594E1,-6.019999981E-1,1.572799921E0,4.709199905E0
1.252598438E1,-1.406499982E0,6.559999585E-1,1.978099942E0
1.254598594E1,-1.270099998E0,6.837999821E-1,2.106199980E0
1.257598438E1,-2.127899885E0,-6.556000113E-1,3.355099916E0
1.259598438E1,-3.432199955E0,-1.316999912E0,4.688699722E0
1.261598594E1,-4.721699715E0,6.309999526E-2,5.970000029E-1
1.264598438E1,-4.658999920E0,4.786999822E-1,5.437500000E0
1.266598438E1,-5.394299984E0,-2.020699978E0,5.907099724E0
1.268598438E1,-3.155799866E0,-1.042099953E0,8.866899490E0
1.270598438E1,-2.180799961E0,-1.307299972E0,3.597100019E0
1.272598438E1,-2.308699846E0,-2.148699999E0,-2.142799854E0
1.274598438E1,-2.706899881E0,-5.437900066E0,-4.493299961E0
1.276598438E1,-1.231999993E0,-1.024009991E1,-4.091399670E0
1.278598438E1,2.353999913E-1,-1.096729946E1,1.811299920E0
1.280598438E1,2.851699829E0,-6.287399769E0,4.044099808E0
1.282598438E1,2.648699999E0,-2.243199825E0,-1.990999877E-1
1.284598438E1,1.010800004E0,7.800000161E-2,-3.181299925E0
1.286598438E1,-1.686999947E-1,1.006600022E0,-2.379099846E0
1.288598438E1,1.531000018E0,1.264299989E0,-4.683000088E0
1.290598438E1,3.108899832E0,1.053799987E0,-3.806099892E0
1.292598438E1,3.520200014E0,1.905299902E0,-3.355499983E0
1.294598438E1,2.756299973E0,3.044799805E0,-5.663099766E0
1.296598438E1,2.222899914E0,2.628700018E0,-6.722699642E0
1.298598438E1,3.659099817E0,2.547399998E0,-8.907999992E0
1.300598594E1,5.022299767E0,3.037499905E0,-8.929800034E0
1.303598438E1,5.615900040E0,3.963699818E0,-7.557600021E0
1.305598438E1,3.951299906E0,4.976699829E0,-5.414000034E0
1.307598594E1,-1.628600001E0,2.380599976E0,1.946999878E-1
1.310598438E1,-8.153900146E0,-9.589499474E0,2.103909874E1
1.312598438E1,-6.744400024E0,-1.805130005E1,2.566639900E1
1.314598438E1,-5.267999768E-1,-2.923799992E0,2.833699942E0
1.316598438E1,4.800499916E0,5.369199753E0,-5.298899651E0
1.318598594E1,2.391799927E0,8.224999905E-1,-6.631099701E0
1.321598594E1,-2.738299847E0,-7.155200005E0,-9.531999588E0
1.324598438E1,2.664000034E0,-5.218599796E0,-5.490099907E0
1.326598438E1,5.350800037E0,-3.439499855E0,6.977999687E0
1.328598594E1,5.546799660E0,-1.830799937E0,-1.781799912E0
1.331598438E1,1.220899940E0,-2.241999865E0,-1.025659943E1
1.333598438E1,-1.943699956E0,-1.947899938E0,-7.361499786E0
1.335598594E1,-1.899599910E0,1.645999998E-1,-7.298899651E0
1.337598594E1,-1.749300003E0,1.346099973E0,-8.706399918E0
1.340598438E1,-6.380999684E-1,1.494599938E0,1.367499924E1
1.342598438E1,1.520799994E0,2.511199951E0,5.238499641E0
1.344598438E1,3.012999892E-1,1.510299921E0,-5.435400009E0
1.346598438E1,3.783999979E-1,8.551999927E-1,-2.807999849E0
1.348598438E1,1.011899948E0,1.648800015E0,1.994699955E0
1.350598594E1,4.687999785E-1,1.854799986E0,4.438099861E0
1.353598438E1,-3.524999917E-1,1.583400011E0,3.910599947E0
1.355598438E1,-1.267599940E0,1.268899918E0,4.728699684E0
1.357598594E1,-1.975499988E0,1.509499907E0,3.443099976E0
1.359598750E1,-2.015399933E0,2.297499895E0,2.668999910E0
1.362598438E1,-3.587099791E0,2.439800024E0,2.981400013E0
1.364598438E1,-4.733999729E0,-5.411999822E-1,2.444900036E0
1.366598438E1,-4.606199741E0,-2.720000029E0,1.818399906E0
1.368598594E1,-2.033999920E0,-1.588199973E0,4.355199814E0
1.371598438E1,-4.221600056E0,-3.279699802E0,6.173599720E0
1.373598438E1,-3.683399916E0,-1.848799944E0,7.795699596E0
1.375598438E1,-3.368599892E0,-1.652599931E0,2.466399908E0
1.377598438E1,-2.792999983E0,-3.569599867E0,-2.936100006E0
1.379598594E1,-9.473999739E-1,-7.213099957E0,-3.751299858E0
1.382598438E1,1.602499962E0,-1.077639961E1,-2.090800047E0
1.384598438E1,2.039599895E0,-7.538899899E0,3.737799883E0
1.386598438E1,2.547699928E0,-2.727399826E0,2.606999874E0
1.388598438E1,1.399299979E0,2.962000072E-1,-6.474999785E-1
1.390598438E1,-1.679999940E-2,1.105299950E0,-3.889499903E0
1.392598438E1,2.036999911E-1,8.310999870E-1,-3.909299850E0
1.394598594E1,2.223299980E0,1.030599952E0,-4.105999947E0
1.397598594E1,2.865099907E0,1.937399983E0,-4.599299908E0
1.399598594E1,2.515499830E0,2.478799820E0,-5.175099850E0
1.401598594E1,2.121799946E0,2.077100039E0,-6.636099815E0
1.404598594E1,4.103699684E0,1.325199962E0,-8.619999886E0
1.407598594E1,5.420000076E0,2.141000032E0,-7.620899677E0
1.410598438E1,4.947899818E0,3.309000015E0,-3.669099808E0
1.412598438E1,1.975399971E0,4.421999931E0,1.454000026E-1
1.414598594E1,-1.768899918E0,2.098000050E0,6.940999985E0
1.417598438E1,-4.269199848E0,-9.940199852E0,2.110700035E1
1.419598438E1,-6.641099930E0,-1.155049992E1,1.233419991E1
1.421598438E1,-1.457599998E0,-1.034899950E0,8.841999769E-1
1.423598438E1,1.848299980E0,1.928000003E-1,1.872900009E0
1.425598594E1,-1.246399999E0,-3.088399887E0,-5.396199703E0
1.428598594E1,1.161499977E0,-6.759599686E0,-8.073399544E0
1.431598438E1,5.180699825E0,-1.422299981E0,-6.385999918E-1
1.433598438E1,5.434400082E0,1.621399999E0,1.436800003E0
1.435598594E1,2.492300034E0,1.716599941E0,-6.292799950E0
1.438598438E1,-3.144500017E0,-3.629999876E0,-8.437199593E0
1.440598438E1,-4.147399902E0,-1.521499991E0,-6.667999744E0
1.442598438E1,-8.743000031E-1,8.665999770E-1,-6.418399811E0
1.444598594E1,9.957000017E-1,1.688199997E0,-1.820699930E0
1.447598594E1,3.941499949E0,8.126999736E-1,1.014249992E1
1.449598594E1,3.142499924E0,1.173900008E0,-7.200999856E-1
1.451598594E1,1.112499952E0,3.946999907E-1,-6.104399681E0
1.454598438E1,-7.048000097E-1,9.667999744E-1,-1.036100030E0
1.456598438E1,-9.019999951E-2,1.847499967E0,3.580799818E0
1.458598594E1,-4.943999946E-1,1.987399936E0,6.714200020E0
1.461598438E1,-2.147099972E0,1.623399973E0,2.206799984E0
1.463598438E1,-2.249699831E0,4.362999797E-1,1.397699952E0
1.465598438E1,-1.628600001E0,8.041999936E-1,9.720000029E-1
1.467598438E1,-9.422999620E-1,1.368199944E0,2.934099913E0
1.469598438E1,-1.148100019E0,2.228999883E-1,6.127500057E0
1.471598594E1,-2.647899866E0,-8.600999713E-1,2.375499964E0
1.474598438E1,-4.292599678E0,-8.786999583E-1,7.127999663E-1
1.476598438E1,-5.584099770E0,-2.129899979E0,4.867799759E0
1.478598594E1,-5.334399700E0,-2.096600056E0,8.173299789E0
1.481598438E1,-3.627300024E0,-1.508700013E0,3.210299969E0
1.483598438E1,-2.717499971E0,-3.469599962E0,-1.105999947E-1
1.485598594E1,-3.804999888E-1,-6.309799671E0,-2.748399973E0
1.488598438E1,1.968999982E0,-7.858599663E0,-3.256099939E0
1.490598438E1,1.437099934E0,-5.962699890E0,3.246999979E0
1.492598438E1,1.156199932E0,-2.744899988E0,1.934999943E0
1.494598594E1,8.849999905E-1,-8.375999928E-1,-1.960500002E0
1.497598438E1,-7.246999741E-1,-4.662999809E-1,-2.176800013E0
1.499598594E1,8.542000055E-1,4.230000079E-2,-2.943199873E0
1.501598594E1,1.756500006E0,1.319899917E0,-3.831099987E0
1.504598438E1,2.161099911E0,2.041300058E0,-5.055200100E0
1.506598438E1,1.601199985E0,2.085000038E0,-5.657000065E0
1.508598594E1,1.946299911E0,1.776299953E0,-7.052599907E0
1.511598438E1,4.478300095E0,1.276899934E0,-8.870699883E0
1.513598438E1,5.733299732E0,2.388000011E0,-7.616999626E0
1.515598438E1,6.013299942E0,3.007099867E0,-5.326799870E0
1.517598594E1,4.582200050E0,3.142899990E0,-2.986500025E0
1.520598438E1,-2.345499992E0,2.149899960E0,3.559599876E0
1.522598438E1,-4.369999886E0,-4.933099747E0,9.302800179E0
1.524598438E1,-8.057799339E0,-1.265889931E1,2.667280006E1
1.526598438E1,-4.144000053E0,-4.152999878E0,7.181799889E0
1.528598594E1,2.631999850E-1,2.611299992E0,-1.873199940E0
1.531598594E1,-3.199100018E0,-2.613499880E0,-7.171399593E0
1.534598438E1,1.191299915E0,-5.790699959E0,-6.237699986E0
1.536598594E1,5.340799809E0,-2.311399937E0,-3.593299866E0
1.539598438E1,7.050600052E0,1.118499994E0,3.389599800E0
1.541598438E1,3.846599817E0,-3.278000057E-1,-6.091899872E0
1.543598438E1,-1.874699950E0,-3.146099806E0,-1.010479927E1
1.545598438E1,-4.960899830E0,-1.734200001E0,-8.406199455E0
1.547598438E1,-3.182299852E0,8.988999724E-1,-7.068299770E0
1.549598438E1,-8.680999875E-1,1.986099958E0,-3.482699871E0
1.551598594E1,8.428999782E-1,1.218400002E0,1.401379967E1
1.554598438E1,2.776000023E0,1.169600010E0,-1.395399928E0
1.556598438E1,1.524399996E0,9.262999892E-1,-5.011699677E0
1.558598438E1,4.043000042E-1,1.114899993E0,-2.543699980E0
1.560598438E1,4.913999736E-1,9.708999991E-1,8.695999980E-1
1.562598438E1,1.305999905E-1,1.751799941E0,3.856699944E0
1.564598594E1,2.410999984E-1,1.909500003E0,2.388599873E0
1.567598594E1,8.969999850E-2,1.350899935E0,1.162000000E-1
1.570598438E1,-8.402999640E-1,-9.097999930E-1,9.369999766E-1
1.572598438E1,-1.452899933E0,-1.167999953E-1,4.090199947E0
1.574598438E1,-2.842099905E0,2.428999990E-1,4.169699669E0
1.576598438E1,-3.350199938E0,-6.769999862E-2,3.064800024E0
1.578598594E1,-4.120299816E0,2.541999817E-1,1.547599912E0
1.581598438E1,-6.305699825E0,-1.615999937E0,4.580999851E0
1.583598438E1,-6.525499821E0,-2.418699980E0,5.446700096E0
1.585598594E1,-4.849699974E0,-1.350700021E0,6.981299877E0
1.588598438E1,-1.773499966E0,-3.199999809E0,1.703499913E0
1.590598438E1,-6.478999853E-1,-5.985300064E0,-7.392999530E-1
1.592598438E1,6.719999760E-2,-8.736700058E0,-4.967199802E0
1.594598438E1,2.009099960E0,-8.902299881E0,-2.166100025E0
1.596598438E1,2.286200047E0,-5.540800095E0,2.091300011E0
1.598598438E1,1.490499973E0,-1.763700008E0,1.155799985E0
1.600598438E1,3.344999850E-1,-2.062999904E-1,-1.600999981E-1
1.602598438E1,-1.759999990E-2,6.929999590E-2,-2.743999958E0
1.604598438E1,-4.741999805E-1,7.515999675E-1,-3.187899828E0
1.606598438E1,1.744099975E0,8.402000070E-1,-4.454599857E0
1.608598438E1,2.891099930E0,9.011999965E-1,-4.696799755E0
1.610598438E1,2.911999941E0,1.341099977E0,-4.815399647E0
1.612598438E1,2.719599962E0,1.564799905E0,-4.873099804E0
1.614598438E1,3.190099955E0,1.072399974E0,-6.653699875E0
1.616598438E1,4.378099918E0,1.364300013E0,-8.170899391E0
1.618598438E1,5.144399643E0,2.229500055E0,-7.725999832E0
1.620598438E1,5.522199631E0,3.057899952E0,-6.930199623E0
1.622598438E1,4.502199650E0,3.825799942E0,-5.058700085E0
1.624598438E1,1.046100020E0,5.609299660E0,-1.591300011E0
1.626598438E1,-3.488899946E0,2.696300030E0,4.212899685E0
1.628598594E1,-6.989999771E0,-4.722700119E0,1.475759983E1
1.631598438E1,-6.124599934E0,-7.892299652E0,1.136259937E1
1.633598438E1,-9.260999560E-1,-2.409100056E0,-2.305999994E-1
1.635598594E1,1.959499955E0,-3.180799961E0,-3.159999847E0
1.638598438E1,5.167999864E-1,-5.319200039E0,-7.922899723E0
1.640598438E1,2.928400040E0,-4.609699726E0,-5.582299709E0
1.642598594E1,4.870699883E0,-1.542899966E0,-3.908899784E0
1.645598438E1,6.529199600E0,1.704100013E0,8.530599594E0
1.647598438E1,2.491999865E0,-1.737100005E0,-1.566399932E0
1.649598438E1,-2.615700006E0,-3.203199863E0,-1.205219936E1
1.651598438E1,-3.935299873E0,-2.042599916E0,-7.806499958E0
1.653598438E1,-2.372400045E0,4.377000034E-1,-5.488299847E0
1.655598438E1,-6.234999895E-1,1.654899955E0,-6.506099701E0
1.657598594E1,-3.253999949E-1,1.965099931E0,1.980199933E0
1.660598438E1,2.886899948E0,5.889999866E-1,6.685099602E0
1.662598438E1,2.831399918E0,7.684999704E-1,-2.400899887E0
1.664598594E1,1.938099980E0,5.566999912E-1,-3.204599857E0
1.667598438E1,-5.969999731E-2,1.263199925E0,7.599999756E-2
1.669598438E1,-3.730999827E-1,1.958399892E0,2.170699835E0
1.671598594E1,-1.573999971E-1,2.265499830E0,3.613499880E0
1.673598594E1,-4.468999803E-1,1.780699968E0,4.305500031E0
1.675598594E1,-1.525900006E0,1.395200014E0,2.877199888E0
1.678598594E1,-2.884099960E0,1.574800014E0,3.379499912E0
1.681598438E1,-2.498299837E0,1.027799964E0,2.379299879E0
1.683598438E1,-2.587199926E0,-1.712999940E-1,8.682999611E-1
1.685598438E1,-3.390599966E0,-5.625000000E-1,1.123700023E0
1.687598594E1,-4.864999771E0,-1.258700013E0,5.173099995E0
1.690598438E1,-6.577300072E0,-2.802799940E0,5.549299717E0
1.692598438E1,-4.319600105E0,-9.576999545E-1,8.057099342E0
1.694598594E1,-2.086199999E0,-1.977899909E0,1.584100008E0
1.697598438E1,-2.529999986E-2,-6.274299622E0,-2.306299925E0
1.699598438E1,8.140999675E-1,-9.118700027E0,-4.085799694E0
1.701598438E1,1.074000001E0,-8.538499832E0,5.949999765E-2
1.703598750E1,6.746000051E-1,-4.292299747E0,2.959899902E0
1.706598438E1,6.902999878E-1,2.443999946E-1,-4.596999884E-1
1.708598438E1,-1.979999989E-1,8.790999651E-1,-3.334299803E0
1.710598438E1,-2.023999989E-1,7.755999565E-1,-4.289899826E0
1.712598438E1,2.065399885E0,8.114999533E-1,-3.868999958E0
1.714598594E1,2.854199886E0,8.234999776E-1,-4.032199860E0
1.717598438E1,2.834300041E0,1.401700020E0,-4.996599674E0
1.719598438E1,1.963499904E0,2.086799860E0,-5.280999660E0
1.721598594E1,2.437999964E0,1.748299956E0,-6.125699997E0
1.724598438E1,4.553599834E0,1.762099981E0,-8.327099800E0
1.726598438E1,5.390299797E0,2.306799889E0,-7.552299976E0
1.728598594E1,5.152400017E0,2.460199833E0,-5.548299789E0
1.730598594E1,2.747999907E0,3.747099876E0,-2.929199934E0
1.733598438E1,-4.055299759E0,-2.590999901E-1,5.462599754E0
1.735598438E1,-5.688600063E0,-8.378199577E0,1.535069942E1
1.737598438E1,-4.425099850E0,-1.357339954E1,2.129829979E1
1.739598438E1,-1.210799932E0,-6.173999906E-1,3.136899948E0
1.741598438E1,2.620399952E0,2.820600033E0,-2.242799997E0
1.743598438E1,2.619999945E-1,-2.085399866E0,-2.886199951E0
1.745598438E1,-3.204399824E0,-5.020599842E0,-8.730400085E0
1.747598438E1,-2.483999878E-1,-5.492699623E0,-6.506599903E0
1.749598438E1,3.532899857E0,-3.197999954E0,-5.227999687E0
1.751598438E1,4.178800106E0,1.421199918E0,-3.414899826E0
1.753598438E1,4.988499641E0,2.547899961E0,3.555099964E0
1.755598438E1,2.641599894E0,-4.997999966E-1,-2.287600040E0
1.757598594E1,-2.092999935E0,-4.032299995E0,-8.962599754E0
1.760598438E1,-2.654399872E0,3.319999948E-2,-7.099199772E0
1.762598438E1,-6.603999734E-1,1.953599930E0,-5.448999882E0
1.764598594E1,1.324399948E0,1.307799935E0,6.255499840E0
1.767598438E1,3.009399891E0,9.966999888E-1,2.902599812E0
1.769598438E1,1.333299994E0,2.228000015E-1,-3.754599810E0
1.771598594E1,4.961999953E-1,1.398800015E0,-3.232899904E0
1.774598438E1,5.839999914E-1,1.559199929E0,1.224599957E0
1.776598594E1,7.679999620E-2,1.544699907E0,3.689999819E0
1.778598594E1,-7.242999673E-1,1.332299948E0,3.375900030E0
1.781598438E1,-9.607999921E-1,1.105000019E0,1.657899976E0
1.783598438E1,-1.629699945E0,6.639999896E-2,-4.299999774E-2
1.785598438E1,-1.941899896E0,4.177999794E-1,2.402099848E0
1.787598438E1,-2.461899996E0,-9.259999543E-2,5.227499962E0
1.789598438E1,-2.941299915E0,-4.570999742E-1,4.576699734E0
1.791598438E1,-3.939099789E0,2.405999899E-1,7.358999848E-1
1.793598594E1,-3.751099825E0,1.193799973E0,1.921899915E0
1.796598438E1,-6.079299927E0,-2.671900034E0,3.842099905E0
1.798598438E1,-5.033999920E0,-2.370899916E0,8.161199570E0
1.800598594E1,-2.250099897E0,-1.990099907E0,5.622099876E0
1.803598438E1,-3.696999848E-1,-3.583799839E0,-8.069999516E-2
1.805598438E1,-9.608999491E-1,-6.677799702E0,-3.187799931E0
1.807598594E1,-9.659999609E-1,-8.012999535E0,-4.656799793E0
1.810598438E1,2.395000011E-1,-5.369499683E0,1.681399941E0
1.812598438E1,1.288999915E0,-2.271999836E0,1.080999970E0
1.814598594E1,8.501999974E-1,-7.024999857E-1,-9.149999619E-1
1.817598438E1,-8.158999681E-1,2.395000011E-1,-3.144399881E0
1.819598438E1,1.209499955E0,6.021999717E-1,-3.634699821E0
1.821598438E1,3.011899948E0,1.124699950E0,-4.093199730E0
1.823598438E1,3.466699839E0,1.870599985E0,-4.949199677E0
1.825598438E1,3.026099920E0,2.003799915E0,-5.131000042E0
1.827598438E1,2.122099876E0,1.742100000E0,-5.158400059E0
1.829598594E1,3.051800013E0,1.522799969E0,-6.503200054E0
1.832598438E1,4.971199989E0,2.470799923E0,-8.251399994E0
1.834598438E1,5.439499855E0,3.201299906E0,-6.835799694E0
1.836598594E1,4.887599945E0,3.910300016E0,-4.910899639E0
1.839598438E1,-1.248399973E0,3.342599869E0,9.556999803E-1
1.841598438E1,-3.895699978E0,-3.030400038E0,7.409299850E0
1.843598594E1,-8.331199646E0,-1.261369991E1,3.008399963E1
1.846598438E1,-3.079099894E0,-2.692100048E0,3.528699875E0
1.848598438E1,1.495000005E0,6.043999791E-1,-2.734999895E0
1.850598594E1,-1.573999971E-1,-4.978099823E0,-3.063199997E0
1.853598438E1,1.296499968E0,-6.572999954E0,-9.556499481E0
1.855598438E1,5.550899982E0,-3.604399920E0,-7.917199612E0
1.857598438E1,5.443099976E0,2.140100002E0,3.222999871E-1
1.859598438E1,3.664599895E0,1.413299918E0,-2.604599953E0
1.861598438E1,-4.580000043E-2,-2.778599977E0,-9.448299408E0
1.863598438E1,-2.998399973E0,-4.805900097E0,-8.056900024E0
1.865598438E1,-2.564699888E0,-1.999199986E0,-6.327300072E0
1.867598594E1,1.629000008E-1,7.717999816E-1,-4.560699940E0
1.870598438E1,2.634699821E0,1.250499964E0,8.199500084E0
1.872598438E1,4.052099705E0,7.264999747E-1,2.407899857E0
1.874598438E1,2.395999908E0,3.190000057E-1,-4.361599922E0
1.876598438E1,1.582499981E0,6.769999862E-1,-3.906499863E0
1.878598438E1,6.502000093E-1,9.526000023E-1,-1.877999902E-1
1.880598438E1,4.308999777E-1,1.143599987E0,2.034399986E0
1.882598438E1,-2.956999838E-1,1.505999923E0,3.214999914E0
1.884598438E1,-1.220700026E0,2.000299931E0,3.352599859E0
1.886598438E1,-2.562700033E0,2.125099897E0,2.506599903E0
1.888598438E1,-3.145999908E0,1.100799918E0,2.073999941E-1
1.890598438E1,-1.875299931E0,1.454299927E0,-7.520999908E-1
1.892598438E1,-1.739300013E0,1.249499917E0,4.841799736E0
1.894598438E1,-1.965699911E0,5.360000134E-1,9.425700188E0
1.896598438E1,-3.049899817E0,-1.043099999E0,2.872699976E0
1.898598438E1,-3.146999836E0,-7.939999700E-1,-8.078999519E-1
1.900598438E1,-3.185799837E0,6.961999536E-1,1.881799936E0
1.902598438E1,-4.851799965E0,-1.049999952E0,6.325099945E0
1.904598438E1,-4.586299896E0,-2.880399942E0,4.280399799E0
1.906598438E1,-2.831799984E0,-1.710599899E0,8.782899857E0
1.908598438E1,-8.643999696E-1,-2.196799994E0,3.030099869E0
1.910598438E1,-2.290099859E0,-4.261899948E0,-7.396999598E-1
1.912598438E1,-1.905499935E0,-7.052999973E0,-3.911199808E0
1.914598438E1,5.342000127E-1,-8.551400185E0,-3.584100008E0
1.916598438E1,1.339900017E0,-6.468199730E0,2.373499870E0
1.918598438E1,2.402899981E0,-3.891899824E0,1.620099902E0
1.920598438E1,1.691499949E0,-2.174000025E0,-1.777199984E0
1.922598594E1,5.758000016E-1,-1.072499990E0,-2.114500046E0
1.925598438E1,1.842099905E0,-1.079599977E0,-2.889899969E0
1.927598594E1,1.616299987E0,5.088999867E-1,-2.849699974E0
1.930598438E1,1.688799977E0,3.632200003E0,-5.663099766E0
1.932598438E1,1.394199967E0,4.038700104E0,-5.910099983E0
1.934598438E1,2.201599836E0,2.638900042E0,-6.472300053E0
1.936598438E1,4.026599884E0,1.802999973E0,-7.797999859E0
1.938598438E1,5.569699764E0,2.245399952E0,-9.583799362E0
1.940598438E1,6.062900066E0,3.704699993E0,-8.143499374E0
1.942598438E1,4.423999786E0,5.630599976E0,-5.311500072E0
1.944598438E1,-1.290799975E0,4.997799873E0,-7.218999863E-1
1.946598438E1,-3.860999823E0,-1.036000013E0,5.164799690E0
1.948598438E1,-8.450399399E0,-1.134340000E1,3.567989731E1
1.950598594E1,-6.762799740E0,-1.223499966E1,1.491529942E1
1.953598438E1,2.463299990E0,8.299999833E-1,-3.027999878E0
1.955598438E1,2.102799892E0,-3.573199987E0,-2.470199823E0
1.957598438E1,-2.542899847E0,-6.975999832E0,-8.622900009E0
1.959598438E1,2.417799950E0,-5.959699631E0,-1.017609978E1
1.961598594E1,5.363599777E0,-2.368299961E0,-4.370500088E0
1.964598438E1,4.306200027E0,1.573199987E0,-2.032199860E0
1.966598438E1,2.369199991E0,-1.851999998E0,-8.829299927E0
1.968598438E1,-9.056999683E-1,-4.626100063E0,-8.536899567E0
1.970598438E1,-2.174599886E0,-3.393599987E0,-6.519199848E0
1.972598438E1,1.318999976E-1,-7.798999548E-1,-6.321399689E0
1.974598438E1,7.404999733E-1,1.330500007E0,-2.654399872E0
1.976598438E1,2.314499855E0,1.444999933E0,8.364399910E0
1.978598594E1,3.238600016E0,1.859899998E0,3.501099825E0
1.981598438E1,4.713999927E-1,6.212999821E-1,-4.172399998E0
1.983598438E1,-4.140000045E-2,1.154199958E0,-6.629999727E-2
1.985598438E1,-2.152999938E-1,1.556399941E0,3.512899876E0
1.987598438E1,-6.344999671E-1,1.537400007E0,2.382499933E0
1.989598438E1,-1.214399934E0,1.450899959E0,2.472499847E0
1.991598438E1,-1.232100010E0,1.552500010E0,3.630899906E0
1.993598438E1,-1.439599991E0,1.828499913E0,1.200199962E0
1.995598438E1,-1.466099977E0,1.550199986E0,-2.109999955E-1
1.997598438E1,-1.008899927E0,1.383199930E0,1.575599909E0
1.999598438E1,-1.648099899E0,9.533999562E-1,7.001999855E0
2.001598438E1,-2.508299828E0,-9.978999496E-1,5.344999790E0
2.003598438E1,-3.776399851E0,-1.453899980E0,6.338999867E-1
2.005598438E1,-3.308899879E0,-1.519999951E-1,8.296999931E-1
2.007598594E1,-3.856999874E0,1.218999997E-1,6.743799686E0
2.010598438E1,-4.579099655E0,-2.709499836E0,3.993999958E0
2.012598438E1,-3.393899918E0,-1.800399899E0,8.171899796E0
2.014598438E1,-2.035899878E0,-2.092700005E0,3.295899868E0
2.016598438E1,-1.898999929E0,-3.877599955E0,-2.228000015E-1
2.018598438E1,-8.576999903E-1,-6.167500019E0,-3.173599958E0
2.020598438E1,8.599999547E-1,-8.027799606E0,-3.534299850E0
2.022598438E1,1.168699980E0,-6.782799721E0,2.535300016E0
2.024598438E1,1.804600000E0,-4.021299839E0,3.262899876E0
2.026598438E1,1.795300007E0,-1.874199986E0,-8.166999817E-1
2.028598438E1,6.089999676E-1,-5.144000053E-1,-1.739399910E0
2.030598594E1,1.272699952E0,-2.922999859E-1,-3.227999926E0
2.033598438E1,8.652999997E-1,9.144999981E-1,-3.788299799E0
2.035598438E1,2.208499908E0,1.854699969E0,-2.984999895E0
2.037598438E1,2.848099947E0,1.928699970E0,-4.735699654E0
2.039598438E1,2.231400013E0,2.420699835E0,-5.537199974E0
2.041598438E1,2.485199928E0,2.228199959E0,-6.344299793E0
2.043598594E1,3.902199984E0,1.767099977E0,-7.152599812E0
2.046598438E1,5.017499924E0,3.124300003E0,-6.560199738E0
2.048598438E1,5.203499794E0,3.425999880E0,-4.858599663E0
2.050598594E1,3.837799788E0,4.642799854E0,-3.037699938E0
2.053598438E1,-1.913999915E0,1.595799923E0,4.407000065E0
2.055598438E1,-6.105999947E0,-6.000400066E0,1.724239922E1
2.057598438E1,-1.079549980E1,-1.121529961E1,2.117840004E1
2.059598438E1,-4.123300076E0,-1.458899975E0,4.256999969E0
2.061598438E1,1.158999920E0,1.425799966E0,-1.121999994E-1
2.063598438E1,7.409999520E-2,-5.443099976E0,-4.328599930E0
2.065598438E1,4.855999947E-1,-8.728599548E0,-1.062239933E1
2.067598594E1,5.071799755E0,-7.276700020E0,-8.475799561E0
2.070598438E1,6.416199684E0,5.274999738E-1,2.536799908E0
2.072598594E1,4.779099941E0,5.338000059E-1,-2.799099922E0
2.075598438E1,3.129000068E-1,-4.884500027E0,-9.619299889E0
2.077598438E1,-2.077800035E0,-3.244499922E0,-6.696899891E0
2.079598438E1,-1.107999921E0,-9.884999990E-1,-5.968499660E0
2.081598438E1,-1.977999955E-1,1.328599930E0,-3.518299818E0
2.083598438E1,9.934999943E-1,1.676599979E0,9.155699730E0
2.085598438E1,3.327600002E0,2.128599882E0,5.534299850E0
2.087598438E1,2.042500019E0,1.105700016E0,-3.949100018E0
2.089598438E1,8.200999498E-1,6.003999710E-1,-3.845699787E0
2.091598438E1,-4.669999778E-1,1.065299988E0,1.179899931E0
2.093598438E1,-7.308999896E-1,1.675300002E0,4.477900028E0
2.095598438E1,-8.287999630E-1,2.502599955E0,4.183599949E0
2.097598438E1,-1.558099985E0,2.971199989E0,2.640599966E0
2.099598438E1,-2.186599970E0,2.288899899E0,1.987100005E0
2.101598438E1,-1.561699986E0,9.180999994E-1,3.634999990E-1
2.103598438E1,-7.594000101E-1,1.363999993E-1,9.983999729E-1
2.105598438E1,-1.632699966E0,5.338999629E-1,5.398600101E0
2.107598438E1,-3.812099934E0,-6.552999616E-1,4.896999836E0
2.109598438E1,-4.681399822E0,-1.016600013E0,1.692600012E0
2.111598438E1,-3.695699930E0,-4.790000021E-1,2.060600042E0
2.113598438E1,-2.511999846E0,-9.059999883E-2,6.471399784E0
2.115598438E1,-4.163399696E0,-1.069100022E0,7.124699593E0
2.117598438E1,-5.464600086E0,-1.078499913E0,5.971399784E0
2.119598438E1,-3.514999866E0,-5.227000117E-1,8.053899765E0
2.121598438E1,-2.193599939E0,-1.784699917E0,1.812699914E0
2.123598438E1,-2.572899818E0,-4.567599773E0,-1.487599969E0
2.125598438E1,-2.437399864E0,-8.127900124E0,-4.599100113E0
2.127598594E1,-7.342000008E-1,-1.111159992E1,-2.856099844E0
2.129598594E1,1.099799991E0,-9.729599953E0,2.326400042E0
2.132598438E1,3.341799974E0,-3.502199888E0,2.126100063E0
2.134598438E1,2.797799826E0,-6.908000112E-1,-6.894999743E-1
2.136598594E1,9.424999952E-1,1.040400028E0,-3.010999918E0
2.139598438E1,8.625999689E-1,3.183199883E0,-3.325299978E0
2.141598438E1,2.888099909E0,3.191399813E0,-2.309700012E0
2.143598594E1,4.512300014E0,1.737100005E0,-4.590300083E0
2.145598594E1,4.110399723E0,1.748899937E0,-5.903999805E0
2.147598594E1,3.605099916E0,1.704199910E0,-6.348000050E0
2.150598438E1,4.750799656E0,2.474599838E0,-7.522500038E0
2.152598438E1,5.180299759E0,2.802000046E0,-8.158499718E0
2.154598594E1,5.227600098E0,3.326200008E0,-6.527799606E0
2.157599063E1,1.125100017E0,4.030999660E0,-1.213099957E0
2.160598438E1,-4.831699848E0,-3.112499952E0,1.427869987E1
2.162598438E1,-8.134499550E0,-1.331540012E1,2.545019913E1
2.164598438E1,-5.687699795E0,-7.041999817E0,9.278699875E0
2.166598438E1,5.327999592E-1,2.314800024E0,-1.601400018E0
2.168598438E1,3.165099859E0,2.910999954E-1,-3.093199968E0
2.170598438E1,8.549999595E-1,-6.155799866E0,-8.028699875E0
2.172598594E1,2.320400000E0,-8.366999626E0,-9.718500137E0
2.175598438E1,4.830699921E0,-6.346299648E0,2.881000042E0
2.177598438E1,7.551599979E0,-3.031599998E0,2.842499971E0
2.179598438E1,5.081999779E0,-1.829999924E0,-7.114899635E0
2.181598438E1,7.285999656E-1,-2.376499891E0,-9.693599701E0
2.183598438E1,-7.690999508E-1,-2.162600040E0,-7.643799782E0
2.185598438E1,-1.047799945E0,-7.620000094E-2,-6.500799656E0
2.187598438E1,-4.089999944E-2,1.176699996E0,-6.712299824E0
2.189598438E1,-8.660999537E-1,2.730700016E0,-1.295499921E0
2.191598438E1,3.779999912E-2,2.998800039E0,1.331619930E1
2.193598594E1,1.242100000E0,1.964199901E0,4.653500080E0
2.196598438E1,-8.720000088E-2,-3.066999912E-1,-5.364899635E0
2.198598438E1,-1.344999909E0,1.075699925E0,1.163399935E0
2.200598438E1,-1.514400005E0,2.019199848E0,5.777699947E0
2.202598438E1,-2.239300013E0,2.469300032E0,5.026700020E0
2.204598438E1,-2.088500023E0,1.978999972E0,2.923399925E0
2.206598438E1,-1.661299944E0,1.591699958E0,1.572399974E0
2.208598438E1,-1.819999889E-2,7.390999794E-1,3.229899883E0
2.210598438E1,6.920000166E-2,-2.359999903E-2,6.766699791E0
2.212598438E1,-2.530099869E0,-6.204000115E-1,2.570099831E0
2.214598594E1,-3.658599854E0,-1.617900014E0,2.262199879E0
2.217598438E1,-3.059099913E0,-4.010000080E-2,6.001999855E0
2.219598438E1,-4.626199722E0,-6.356999874E-1,6.892399788E0
2.221598438E1,-4.990600109E0,-1.904699922E0,7.511199951E0
2.223598594E1,-3.481299877E0,-2.299399853E0,7.078499794E0
2.226598438E1,-3.299199820E0,-5.921099663E0,-1.829299927E0
2.228598438E1,-1.008899927E0,-8.891399384E0,-4.764899731E0
2.230598438E1,1.723099947E0,-1.226589966E1,-2.097199917E0
2.232598438E1,3.357899904E0,-1.076659966E1,3.636299849E0
2.234598438E1,4.407700062E0,-5.307499886E0,4.497099876E0
2.236598438E1,3.078899860E0,-6.683999896E-1,1.551999897E-1
2.238598438E1,1.357199907E0,3.393999934E-1,-6.822799683E0
2.240598438E1,-2.513000071E-1,1.850099921E0,-4.032799721E0
2.242598438E1,1.906999946E-1,3.462899923E0,-5.618000031E-1
2.244598438E1,1.870000005E0,3.310400009E0,-3.116499901E0
2.246598438E1,2.498999834E0,2.945299864E0,-4.487199783E0
2.248598438E1,2.793499947E0,2.682199955E0,-5.137599945E0
2.250598438E1,3.468799829E0,2.117499828E0,-6.769999981E0
2.252598438E1,4.823299885E0,1.861899972E0,-8.413700104E0
2.254598438E1,6.059999943E0,1.946900010E0,-7.986999989E0
2.256598438E1,5.911099911E0,3.350600004E0,-6.474299908E0
2.258598438E1,4.513000011E0,4.510399818E0,-4.605299950E0
2.260598438E1,1.769999973E-2,4.855499744E0,-5.647999644E-1
2.262598594E1,-3.798199892E0,2.123999894E-1,7.721499920E0
2.264598594E1,-7.732800007E0,-8.116000175E0,1.985179901E1
2.267598438E1,-5.678599834E0,-5.283199787E0,7.436800003E0
2.269598438E1,1.511699915E0,1.639799953E0,1.547199965E0
2.271598438E1,5.404099941E0,2.565500021E0,-2.199300051E0
2.273598438E1,1.811399937E0,-2.524099827E0,-7.889899731E0
2.275598438E1,1.686199903E0,-6.608900070E0,-8.353899956E0
2.277598438E1,3.655900002E0,-7.844499588E0,-4.783400059E0
2.279598438E1,3.055399895E0,-8.255399704E0,-1.436200023E0
2.281598438E1,5.372999668E0,-1.961799979E0,8.271299362E0
2.283598438E1,4.573499680E0,4.131999910E-1,-3.971199989E0
2.285598438E1,2.075999975E0,-8.559999615E-2,-9.823900223E0
2.287598438E1,-1.466599941E0,-1.206200004E0,-8.436399460E0
2.289598438E1,-1.129299998E0,-8.109999448E-2,-7.568999767E0
2.291598438E1,-5.493000150E-1,1.229099989E0,-7.865699768E0
2.293598438E1,2.290999889E-1,4.772000015E-1,4.162699699E0
2.295598438E1,2.131299973E0,7.608000040E-1,1.575919914E1
2.297598438E1,2.408900023E0,9.720999599E-1,1.975199938E0
2.299598438E1,4.432999790E-1,1.979999989E-2,-5.882599831E0
2.301598438E1,-9.165999889E-1,5.383999944E-1,-2.133599997E0
2.303598438E1,-1.642399907E0,1.872200012E0,3.950500011E0
2.305598438E1,-1.574699998E0,2.968799829E0,7.129600048E0
2.307598594E1,-1.380299926E0,2.499199867E0,3.158999920E0
2.310598438E1,-1.475299954E0,1.000800014E0,2.099099874E0
2.312598594E1,-7.428999543E-1,1.380599976E0,2.624300003E0
2.315598438E1,-2.081699848E0,1.645999998E-1,4.070600033E0
2.317598438E1,-2.002599955E0,-1.409600019E0,4.003699780E0
2.319598438E1,-1.906499982E0,-2.414099932E0,4.491399765E0
2.321598594E1,-3.326299906E0,-7.450999618E-1,3.305299997E0
2.323598594E1,-5.190700054E0,-8.113999963E-1,5.178299904E0
2.326598438E1,-6.883800030E0,-1.820799947E0,6.204299927E0
2.328598750E1,-5.288799763E0,-1.256199956E0,9.219599724E0
2.331598594E1,-2.714999914E0,-2.869999886E0,2.158400059E0
2.333598594E1,-1.053099990E0,-4.417900085E0,-1.311800003E0
2.336598438E1,1.384400010E0,-5.713999748E0,-3.399899960E0
2.338598438E1,3.179000020E-1,-5.017299652E0,2.524799824E0
2.340598438E1,4.224999845E-1,-3.815500021E0,2.742199898E0
2.342598438E1,5.293999910E-1,-2.908200026E0,-1.085999966E0
2.344598438E1,1.350099921E0,-2.119199991E0,-1.866999984E0
2.346598438E1,1.517199993E0,-1.513599992E0,-1.195699930E0
2.348598438E1,2.085099936E0,-6.851999760E-1,-1.459100008E0
2.350598438E1,3.698400021E0,6.466999650E-1,-3.521399975E0
2.352598438E1,3.521299839E0,2.007599831E0,-4.813399792E0
2.354598438E1,3.071699858E0,2.910699844E0,-5.341399670E0
2.356598438E1,2.486099958E0,2.813400030E0,-5.825200081E0
2.358598438E1,3.460799932E0,2.512799978E0,-6.309999943E0
2.360598438E1,5.068599701E0,2.690899849E0,-6.978099823E0
2.362598438E1,5.782399654E0,3.487099886E0,-6.813600063E0
2.364598438E1,5.479899883E0,4.241099834E0,-4.690399647E0
2.366598438E1,2.143399954E0,5.063099861E0,-1.301299930E0
2.368598594E1,-2.110199928E0,7.723000050E-1,3.611799955E0
2.370598594E1,-4.495100021E0,-6.430999756E0,1.360509968E1
2.372598594E1,-8.246299744E0,-1.269699955E1,2.437430000E1
2.374598594E1,-4.450999737E0,-3.508999944E-1,4.537199974E0
2.377598594E1,-2.639999986E-1,7.246999741E-1,-8.617999554E-1
2.379598594E1,-2.076099873E0,-6.285199642E0,-9.593799591E0
2.381598594E1,4.625999928E-1,-7.617499828E0,-7.997099876E0
2.383598594E1,5.507999897E0,-3.691499949E0,-5.194999695E0
2.386598594E1,8.551199913E0,3.091000021E-1,7.815099716E0
2.389598438E1,1.950099945E0,-7.615000010E-1,-1.087220001E1
2.391598438E1,-3.677099943E0,-2.249300003E0,-1.007670021E1
2.393598438E1,-5.278999805E0,-9.547999501E-1,-6.833600044E0
2.395598438E1,-2.548799992E0,7.634999752E-1,-5.791699886E0
2.397598438E1,-9.382999539E-1,2.036399841E0,-5.039199829E0
2.399598438E1,-2.636999786E-1,1.335799932E0,1.346219921E1
2.401598438E1,2.418900013E0,5.938999653E-1,8.745100021E0
2.403598438E1,2.485800028E0,3.281999826E-1,-2.090499878E0
2.405598438E1,2.138000011E0,-2.303999960E-1,-4.906899929E0
2.407598594E1,2.312500000E0,4.824000001E-1,-1.598799944E0
2.410598438E1,2.073199987E0,1.011299968E0,3.318699837E0
2.412598438E1,-2.581000030E-1,9.023000002E-1,2.491699934E0
2.414598594E1,-1.749099970E0,1.598399997E0,3.156199932E0
2.417598438E1,-2.136399984E0,1.313300014E0,1.987100005E0
2.419598438E1,-1.854200006E0,1.155399919E0,2.566599846E0
2.421598438E1,-2.442100048E0,1.072799921E0,4.876699924E0
2.423598438E1,-3.636600018E0,-8.929999918E-2,5.463099957E0
2.425598438E1,-4.037799835E0,-1.029299974E0,4.160900116E0
2.427598438E1,-4.252999783E0,-4.509999752E-1,1.573499918E0
2.429598438E1,-4.404699802E0,-4.278999865E-1,4.815399647E0
2.431598438E1,-5.449699879E0,-2.659600019E0,4.193999767E0
2.433598438E1,-4.121999741E0,-1.835500002E0,6.379600048E0
2.435598438E1,-2.830999851E0,-8.087999821E-1,5.053800106E0
2.437598438E1,-1.658899903E0,-2.271800041E0,2.166699886E0
2.439598438E1,-3.222999871E-1,-4.529299736E0,-4.508999884E-1
2.441598438E1,-3.694999814E-1,-6.498600006E0,-3.670099974E0
2.443598438E1,6.365000010E-1,-7.624599934E0,-6.699000001E-1
2.445598438E1,1.013299942E0,-5.124300003E0,3.470199823E0
2.447598438E1,2.012399912E0,-2.737799883E0,1.396999955E0
2.449598438E1,1.628700018E0,-9.246999621E-1,-1.236899972E0
2.451598438E1,1.452999949E0,-4.941999912E-1,-2.068099976E0
2.453598438E1,4.569999874E-1,3.051999807E-1,-1.902099967E0
2.455598438E1,1.390200019E0,1.009899974E0,-4.039099693E0
2.457598438E1,2.830499887E0,1.573899984E0,-1.745700002E0
2.459598438E1,3.293299913E0,2.157999992E0,-3.399199963E0
2.461598438E1,3.160599947E0,2.028800011E0,-4.460199833E0
2.463598594E1,2.997799873E0,1.655499935E0,-5.641399860E0
2.466598438E1,4.617899895E0,2.356999874E0,-6.926599979E0
2.468598438E1,5.366399765E0,3.107199907E0,-6.891999722E0
2.470598438E1,4.802199841E0,3.254599810E0,-5.571199894E0
2.472598438E1,3.292599916E0,3.921899796E0,-2.644500017E0
2.474598438E1,-5.985999703E-1,2.516299963E0,1.902999997E0
2.476598438E1,-4.607199669E0,-2.211599827E0,8.013699532E0
2.478598438E1,-7.362499714E0,-1.024249935E1,2.488879967E1
2.480598594E1,-5.564499855E0,-6.218899727E0,1.180900002E1
2.483598438E1,1.265999913E0,3.867899895E0,1.667999923E-1
2.485598438E1,1.586199999E0,-1.656399965E0,-2.685600042E0
2.487598438E1,-1.980399966E0,-6.366600037E0,-9.703899384E0
2.489598438E1,2.894999981E-1,-6.462100029E0,-6.904899597E0
2.491598438E1,5.170700073E0,-3.175699949E0,-1.378299952E0
2.493598438E1,1.086810017E1,-2.034899950E0,9.777199745E0
2.495598438E1,1.057079983E1,-1.133399963E0,-2.935000062E-1
2.497598438E1,2.581300020E0,-1.220999956E0,-9.622300148E0
2.499598438E1,-3.491599798E0,-3.561800003E0,-1.080840015E1
2.501598438E1,-5.567100048E0,-2.443799973E0,-7.529899597E0
2.503598438E1,-3.655399799E0,8.310999870E-1,-5.486599922E0
2.505598438E1,-1.222000003E0,1.491500020E0,-7.831199646E0
2.507598594E1,-8.356999755E-1,5.870000124E-1,1.324969959E1
2.509598594E1,2.322499990E0,1.574599981E0,1.296910000E1
2.512598438E1,2.490799904E0,1.129099965E0,-6.825599670E0
2.514598438E1,1.425400019E0,6.028000116E-1,-4.920700073E0
2.516598438E1,1.258099914E0,2.639999986E-1,3.077899933E0
2.518598438E1,-6.309999824E-1,1.371500015E0,7.188299656E0
2.520598438E1,-1.000900030E0,2.720099926E0,4.809000015E0
2.522598438E1,-2.265100002E0,2.125599861E0,2.213500023E0
2.524598438E1,-2.485299826E0,1.230299950E0,8.468999863E-1
2.526598438E1,-1.446200013E0,1.272300005E0,6.994000077E-1
2.528598438E1,-3.739999831E-1,3.791999817E-1,3.391799927E0
2.530598594E1,-5.566999912E-1,2.117999941E-1,5.962100029E0
2.533598438E1,-3.456799984E0,9.979999810E-2,4.242700100E0
2.535598438E1,-4.123799801E0,-1.855999976E-1,2.143899918E0
2.537598438E1,-3.732999802E0,3.066000044E-1,2.319900036E0
2.539598438E1,-5.458399773E0,-4.537999928E-1,6.799699783E0
2.541598438E1,-6.825500011E0,-1.300699949E0,6.066400051E0
2.543598438E1,-6.410699844E0,-7.779999822E-2,6.952299595E0
2.545598438E1,-4.535399914E0,-1.130499959E0,2.003200054E0
2.547598438E1,-1.983099937E0,-4.759099960E0,9.950999618E-1
2.549598438E1,5.607999563E-1,-8.317399979E0,-1.364899993E0
2.551598438E1,1.310500026E0,-9.558300018E0,-3.359400034E0
2.553598438E1,1.288599968E0,-7.976399899E0,1.795799971E0
2.555598438E1,2.017799854E0,-4.680799961E0,4.434000015E0
2.557598438E1,1.985499978E0,-2.274699926E0,6.660000086E-1
2.559598438E1,1.354900002E0,-1.158100009E0,-1.461799979E0
2.561598438E1,5.992999673E-1,-1.020599961E0,-3.380599976E0
2.563598438E1,1.028599977E0,7.288999557E-1,4.984999895E-1
2.565598438E1,3.156100035E0,1.004199982E0,-8.694999814E-1
2.567598438E1,3.753299952E0,1.975899935E0,-3.378599882E0
2.569598438E1,3.245199919E0,2.341899872E0,-4.355499744E0
2.571598438E1,3.183499813E0,2.024299860E0,-5.508899689E0
2.573598438E1,3.579399824E0,1.905699968E0,-6.638000011E0
2.575598438E1,5.033099651E0,2.076900005E0,-7.438999653E0
2.577598438E1,5.811500072E0,3.020699978E0,-7.311800003E0
2.579598438E1,5.354399681E0,3.786599874E0,-6.292399883E0
2.581598438E1,4.400799751E0,4.393499851E0,-4.626499653E0
2.583598438E1,1.659999937E-1,4.239799976E0,-1.038999915E0
2.585598438E1,-4.040999889E0,-2.399999946E-1,7.588399887E0
2.587598438E1,-8.717100143E0,-8.720399857E0,2.209280014E1
2.589598438E1,-7.412199974E0,-1.171630001E1,1.967959976E1
2.591598438E1,-2.450000048E0,-3.281999826E-1,3.084199905E0
2.593598438E1,3.976199865E0,3.674599886E0,-2.231899977E0
2.595598438E1,3.929799795E0,-7.512999773E-1,5.006999969E-1
2.597598438E1,-2.418999910E0,-4.720499992E0,-3.042199850E0
2.599598438E1,-5.126299858E0,-4.524499893E0,-7.306200027E0
2.601598438E1,4.553800106E0,-3.265499830E0,-1.017369938E1
2.603598438E1,8.234600067E0,-5.703999996E-1,-3.290099859E0
2.605598438E1,1.351399994E1,-4.148499966E0,1.201099968E1
2.607598594E1,4.779599667E0,-3.630100012E0,-7.061699867E0
2.609598594E1,-1.185400009E0,-5.537600040E0,-1.003299999E1
2.611598594E1,-3.476499796E0,-2.781699896E0,-8.913399696E0
2.614598594E1,-1.046000004E0,1.409099936E0,-5.613800049E0
2.617598438E1,-1.427699924E0,1.683599949E0,5.594599724E0
2.619598594E1,1.990999877E-1,1.478599906E0,1.492420006E1
2.621598594E1,1.735000014E0,9.016000032E-1,2.480599880E0
2.623598594E1,5.281000137E-1,8.324999809E-1,-4.995800018E0
2.626598438E1,-6.679999828E-2,1.482699990E0,5.008999705E-1
2.628598438E1,1.579999924E-1,1.666099906E0,4.076600075E0
2.630598594E1,-9.864999652E-1,1.371500015E0,3.187500000E0
2.633598594E1,-6.825000048E-1,1.440699935E0,2.585399866E0
2.635599062E1,-1.330799937E0,1.255199909E0,3.987499952E0
2.638598438E1,-2.503499985E0,1.669899940E0,3.417999983E0
2.640598438E1,-2.454799891E0,1.471199989E0,4.905900002E0
2.642598906E1,-2.572599888E0,2.400000021E-2,4.355499744E0
2.645598438E1,-3.253000021E0,-1.518299937E0,4.607299805E0
2.647598438E1,-3.959199905E0,-5.918999910E-1,4.658199787E0
2.649598438E1,-6.068999767E0,-1.881699920E0,5.077499866E0
2.651598438E1,-5.306900024E0,-1.117499948E0,5.878099918E0
2.653598438E1,-3.456499815E0,9.699999355E-3,8.244899750E0
2.655598438E1,-3.421000004E0,-1.831499934E0,1.524500012E0
2.657598438E1,-3.671000004E0,-5.357599735E0,-1.704100013E0
2.659598594E1,-1.896799922E0,-7.492599964E0,-4.274199963E0
2.662598438E1,5.128999949E-1,-7.690899849E0,8.973000050E-1
2.664598438E1,2.095900059E0,-3.717000008E0,4.613800049E0
2.666598438E1,1.311100006E0,-5.950999856E-1,7.684999704E-1
2.668598438E1,-1.736999899E-1,-9.290000051E-2,-1.667099953E0
2.670598438E1,-8.370999694E-1,2.298000008E-1,-3.588099957E0
2.672598438E1,9.111999869E-1,5.148999691E-1,-3.679099798E0
2.674598438E1,2.185299873E0,1.477599978E0,-2.151499987E0
2.676598438E1,3.337699890E0,1.974599957E0,-3.258199930E0
2.678598438E1,3.123999834E0,2.590800047E0,-5.048500061E0
2.680598594E1,2.430099964E0,2.292000055E0,-6.238699913E0
2.683598438E1,4.759900093E0,1.242499948E0,-7.597299576E0
2.685598438E1,6.230899811E0,1.679600000E0,-6.997399807E0
2.687598438E1,6.260900021E0,2.650799990E0,-5.361499786E0
2.689598438E1,5.369400024E0,3.644799948E0,-3.569499969E0
2.691598594E1,2.209399939E0,3.287499905E0,-1.220299959E0
2.693598594E1,-9.538999796E-1,-1.158499956E0,4.417200089E0
2.695598594E1,-4.056799889E0,-7.336099625E0,1.300899982E1
2.697598594E1,-8.024299622E0,-1.056919956E1,2.191339874E1
2.700598438E1,-3.422600031E0,4.249000072E0,2.620299816E0
2.702598438E1,-7.116999626E-1,3.577099800E0,8.324999809E-1
2.704598438E1,-4.561800003E0,-4.001599789E0,-9.660200119E0
2.706598438E1,-2.564399958E0,-8.981200218E0,-9.493100166E0
2.708598438E1,4.440499783E0,-6.470099926E0,-6.280499935E0
2.710598438E1,7.340299606E0,-2.241799831E0,1.589900017E0
2.712598438E1,1.128030014E1,-5.077999830E-1,1.108230019E1
2.714598438E1,6.179199696E0,2.516999841E-1,-8.837499619E0
2.716598438E1,-1.451999992E-1,-3.323400021E0,-1.261590004E1
2.718598438E1,-3.917699814E0,-3.384199858E0,-9.002699852E0
2.720598438E1,-2.325999975E0,-4.958999753E-1,-5.702499866E0
2.722598594E1,-1.934999973E-1,1.547599912E0,-5.645599842E0
2.724598594E1,-3.157999814E-1,1.309899926E0,3.004999876E0
2.726598594E1,-1.767999977E-1,1.207299948E0,1.398269939E1
2.728598594E1,1.172699928E0,2.504799843E0,2.221099854E0
2.730598594E1,2.589499950E0,-6.290999651E-1,-6.345599651E0
2.732598594E1,2.366299868E0,-6.672999859E-1,-1.401799917E0
2.734598594E1,1.056399941E0,1.250699997E0,4.811599731E0
2.736598594E1,-1.656000018E-1,2.127699852E0,3.440899849E0
2.739598438E1,-1.168299913E0,1.956900001E0,2.279199839E0
2.741598438E1,-1.389099956E0,1.992299914E0,2.800400019E0
2.743598438E1,-2.017199993E0,1.316200018E0,1.213999987E0
2.745598438E1,-2.229099989E0,9.735999703E-1,4.194499969E0
2.747598438E1,-2.767799854E0,5.015999675E-1,6.226299763E0
2.749598438E1,-2.421099901E0,-2.660000026E-1,4.178100109E0
2.751598438E1,-3.099200010E0,-7.849999666E-1,2.678699970E0
2.753598438E1,-4.165499687E0,-6.974999905E-1,1.431499958E0
2.755598438E1,-5.272299767E0,-1.586399913E0,4.644099712E0
2.757598438E1,-5.067199707E0,-2.168200016E0,5.793499947E0
2.759598594E1,-4.558499813E0,-6.258999705E-1,7.166999817E0
2.762598438E1,-1.094799995E0,-2.370300055E0,4.138400078E0
2.764598438E1,-1.309399962E0,-5.227699757E0,8.283999562E-1
2.766598438E1,-5.801999569E-1,-7.429599762E0,-4.148699760E0
2.768598438E1,1.559899926E0,-8.036999702E0,-2.720899820E0
2.770598438E1,1.183399916E0,-6.366799831E0,2.108500004E0
2.772598438E1,1.989999890E0,-2.953699827E0,2.840600014E0
2.774598438E1,1.913699985E0,-8.960999846E-1,-9.789999574E-2
2.776598438E1,4.812999964E-1,-6.079999730E-2,-1.768399954E0
2.778598438E1,-4.393999875E-1,5.324999690E-1,-2.267099857E0
2.780598438E1,1.657799959E0,1.125299931E0,-3.383100033E0
2.782598438E1,2.783099890E0,1.539399981E0,-2.157399893E0
2.784598438E1,3.286599874E0,1.171100020E0,-2.902999878E0
2.786598438E1,3.331799984E0,1.459800005E0,-4.755499840E0
2.788598438E1,2.232300043E0,1.109099984E0,-4.644799709E0
2.790598438E1,3.090699911E0,6.696000099E-1,-5.965399742E0
2.792598438E1,4.795599937E0,1.467399955E0,-7.457799911E0
2.794598438E1,5.945099831E0,2.471199989E0,-6.588399887E0
2.796598438E1,6.111999989E0,2.688299894E0,-4.956099987E0
2.798598438E1,5.146899700E0,3.484899998E0,-2.843999863E0
2.800598438E1,8.630999923E-1,2.961699963E0,9.192999601E-1
2.802598438E1,-4.077699661E0,-1.176399946E0,8.101099968E0
2.804598438E1,-8.710299492E0,-8.929299355E0,2.776159859E1
2.806598438E1,-6.671199799E0,-1.221350002E1,1.590459919E1
2.808598438E1,-7.799999714E-1,-5.625999570E-1,1.932099938E0
2.810598594E1,4.411299706E0,3.619699955E0,7.389999926E-2
2.812598594E1,2.321999967E-1,4.883999825E-1,-4.275199890E0
2.815598438E1,-1.393499970E0,-6.707799911E0,-9.090700150E0
2.817598438E1,5.044099808E0,-5.196199894E0,-6.564399719E0
2.819598594E1,5.325399876E0,-1.499199986E0,-9.231999516E-1
2.822598438E1,6.416899681E0,-2.216799974E0,1.457999945E-1
2.824598438E1,3.099099874E0,-4.863199711E0,-9.330999374E0
2.826598438E1,-9.408999681E-1,-3.719199896E0,-7.804699898E0
2.828599219E1,-4.538999796E-1,-5.943999887E-1,-7.584499836E0
2.831598594E1,-8.052999973E-1,1.532299995E0,-4.982800007E0
2.834598438E1,1.354399920E0,6.633999944E-1,1.110509968E1
2.836598594E1,2.372299910E0,8.062999845E-1,1.434199929E0
2.839598438E1,2.877999842E-1,2.289000005E-1,-2.911599874E0
2.841598438E1,-4.310999811E-1,1.463899970E0,2.026200056E0
2.843598438E1,-1.867299914E0,1.807199955E0,4.173399925E0
2.845598438E1,-2.378999949E0,1.840799928E0,3.272300005E0
2.847598438E1,-2.754299879E0,1.697299957E0,3.687699795E0
2.849598438E1,-2.043900013E0,9.049999714E-1,4.010799885E0
2.851598438E1,-1.524599910E0,1.210600019E0,3.612499952E0
2.853598438E1,-6.387000084E-1,2.263299942E0,2.906199932E0
2.855598438E1,-1.292199969E0,2.682199955E0,5.070199966E0
2.857598438E1,-2.894899845E0,1.727899909E0,3.369999886E0
2.859598594E1,-2.759899855E0,-6.539999843E-1,2.222199917E0
2.861598594E1,-1.301999927E0,-1.618099928E0,3.133899927E0
2.864598438E1,-3.173499823E0,-1.668399930E0,4.382599831E0
2.866598438E1,-5.019700050E0,-2.240299940E0,3.594499826E0
2.868598438E1,-5.664899826E0,-1.994599938E0,6.803799629E0
2.870598438E1,-4.353099823E0,-1.772300005E0,4.326299667E0
2.872598438E1,-1.246899962E0,-4.534299850E0,3.343899965E0
2.874598438E1,1.455899954E0,-7.040099621E0,4.065999985E-1
2.876598438E1,2.167000055E0,-7.309599876E0,-3.080699921E0
2.878598438E1,3.618499994E0,-6.594699860E0,-1.508299947E0
2.880598594E1,2.061699867E0,-3.244799852E0,3.367199898E0
2.883598438E1,1.546000004E0,-8.909999579E-2,1.129999980E-1
2.885598438E1,-1.434499979E0,1.122499943E0,-9.918999672E-1
2.887598438E1,-4.474999905E-1,6.836000085E-1,-4.583699703E0
2.889598438E1,-1.140000001E-1,7.851999998E-1,-2.610499859E0
2.891598438E1,6.055999994E-1,5.067999959E-1,-2.191900015E0
2.893598438E1,2.671000004E0,7.739999890E-2,-1.655799985E0
2.895598438E1,3.135900021E0,2.982999980E-1,-1.748799920E0
2.897598438E1,4.059400082E0,3.731999993E-1,-4.178899765E0
2.899598438E1,5.130399704E0,1.048599958E0,-5.052899837E0
2.901598438E1,5.733799934E0,2.120100021E0,-5.073299885E0
2.903598438E1,6.092599869E0,2.603899956E0,-5.048799992E0
2.905598438E1,5.519599915E0,2.584599972E0,-4.273799896E0
2.907598594E1,4.465099812E0,3.266899824E0,-3.422699928E0
2.909598594E1,2.901499987E0,4.512799740E0,-1.083699942E0
2.911598594E1,-1.348099947E0,2.401900053E0,2.660399914E0
2.914598438E1,-9.269000053E0,-7.014599800E0,1.770439911E1
2.916598438E1,-8.786799431E0,-8.949799538E0,1.549839973E1
2.918598438E1,-2.589299917E0,1.113999963E0,7.690599918E0
2.920598438E1,2.447199821E0,5.255499840E0,1.063400030E0
2.922598438E1,1.798299909E0,-5.079999939E-2,-8.159899712E0
2.924598594E1,1.275699973E0,-4.929100037E0,-9.564000130E0
2.927598438E1,3.495299816E0,-5.884899616E0,-2.805699825E0
2.929598594E1,2.731099844E0,-5.990999699E0,7.027899742E0
2.932598438E1,4.602600098E0,-1.264099956E0,-3.484200001E0
2.934598438E1,3.703199863E0,-6.000000052E-3,-7.264199734E0
2.936598594E1,9.722999930E-1,-2.017999887E-1,-6.359200001E0
2.939598438E1,-1.500399947E0,-4.305999875E-1,-7.149799824E0
2.941598438E1,-1.546700001E0,6.593999863E-1,-7.353799820E0
2.943598438E1,-5.020999908E-1,9.517999887E-1,3.106099844E0
2.945598438E1,2.843199968E0,-1.743000001E-1,1.532149982E1
2.947598438E1,2.620100021E0,-4.317999780E-1,1.531599998E0
2.949598438E1,9.472000003E-1,-1.420000009E-2,-4.979499817E0
2.951598438E1,-1.964000016E-1,1.125199914E0,-7.831000090E-1
2.953598438E1,-4.549999833E-1,1.623799920E0,3.641599894E0
2.955599219E1,-1.389799953E0,1.660599947E0,3.580099821E0
2.958598438E1,-1.143599987E0,2.318099976E0,3.440599918E0
2.960598438E1,-1.035899997E0,2.580099821E0,2.427500010E0
2.962598438E1,-1.424099922E0,1.697099924E0,1.470199943E0
2.964598438E1,-1.801399946E0,8.463999629E-1,2.771299839E0
2.966598438E1,-2.230099916E0,8.084999919E-1,5.471600056E0
2.968598438E1,-2.640300035E0,6.110999584E-1,4.595099926E0
2.970598438E1,-2.674999952E0,-1.012599945E0,4.564699650E0
2.972598438E1,-3.259500027E0,-1.021099925E0,4.353600025E0
2.974598438E1,-5.324299812E0,-1.633700013E0,4.335899830E0
2.976598438E1,-7.008599758E0,-2.646499872E0,4.222199917E0
2.978598438E1,-6.707399845E0,-1.136199951E0,7.315099716E0
2.980598438E1,-5.115200043E0,-3.158999979E-1,4.572700024E0
2.982598438E1,-2.929299831E0,-2.813999891E0,2.746199846E0
2.984598438E1,7.409999520E-2,-5.865299702E0,9.299999475E-1
2.986598438E1,1.158900023E0,-7.081299782E0,-2.346699953E0
2.988598438E1,2.145299911E0,-7.075299740E0,-2.550999820E-1
2.990598438E1,1.000499964E0,-4.437599659E0,3.337800026E0
2.992598438E1,1.321299911E0,-2.186199903E0,9.966999888E-1
2.994598438E1,1.626399994E0,-1.087199926E0,-1.865199924E0
2.996598438E1,5.403999686E-1,-7.277999520E-1,-3.503499985E0
2.998598438E1,9.736999869E-1,-5.472999811E-1,-1.993399978E0
3.000598438E1,1.998899937E0,-4.863999784E-1,-1.527499914E0
3.002598438E1,2.891199827E0,3.159999847E-1,-1.675099969E0
3.004598438E1,3.010299921E0,1.138599992E0,-3.519899845E0
3.006598438E1,2.254099846E0,1.742100000E0,-4.507100105E0
3.008598438E1,2.319200039E0,1.971499920E0,-4.924200058E0
3.010598438E1,3.434700012E0,2.247299910E0,-6.402199745E0
3.012598438E1,4.438199997E0,2.831099987E0,-6.625799656E0
3.014598438E1,4.920099735E0,3.529299974E0,-5.868700027E0
3.016598438E1,4.633699894E0,3.761099815E0,-4.641599655E0
3.018598438E1,3.079499960E0,5.022799969E0,-1.845999956E0
3.020598438E1,-1.200500011E0,3.695699930E0,1.814299941E0
3.022598438E1,-4.669699669E0,-3.454399824E0,7.729899883E0
3.024598438E1,-7.985599995E0,-1.117199993E1,2.679979897E1
3.026598438E1,-2.912999868E0,-7.318799973E0,9.615900040E0
3.028598438E1,2.187500000E0,1.141600013E0,9.196999669E-1
3.030598594E1,3.520699978E0,-1.621899962E0,1.378999949E-1
3.033598438E1,-1.191399932E0,-5.894399643E0,-5.352999687E0
3.035598438E1,-6.245999932E-1,-4.000599861E0,-3.134500027E0
3.037598438E1,3.683699846E0,-1.406899929E0,-4.700999737E0
3.039598438E1,5.795199871E0,1.403899908E0,-1.371399999E0
3.041598438E1,6.513000011E0,3.028999865E-1,-6.850000024E-1
3.043598438E1,2.562199831E0,-1.654999971E0,-4.832299709E0
3.045598438E1,-2.872200012E0,-2.950199842E0,-6.538399696E0
3.047598438E1,-3.911599874E0,-8.484999537E-1,-7.586199760E0
3.049598438E1,-1.256099939E0,1.263000011E0,-7.735199928E0
3.051598438E1,-1.095799923E0,1.607800007E0,-3.311599970E0
3.053598438E1,8.032000065E-1,3.190999925E-1,1.264330006E1
3.055598438E1,2.984400034E0,-2.447999865E-1,5.928799629E0
3.057598594E1,1.620599985E0,7.348999977E-1,-2.797699928E0
3.059598594E1,1.275999993E-1,1.230099916E0,-2.700999975E0
3.061598594E1,-1.745999902E-1,1.634999990E0,1.358999968E0
3.064598438E1,-1.114999950E-1,1.743899941E0,4.199699879E0
3.066598438E1,-1.304000020E0,1.416899920E0,2.463700056E0
3.068598438E1,-1.571299911E0,1.339699984E0,3.497200012E0
3.070598438E1,-1.400699973E0,1.308200002E0,3.468299866E0
3.072598438E1,-2.266599894E0,1.094699979E0,2.399899960E0
3.074598438E1,-2.742399931E0,1.186499953E0,3.333999872E0
3.076598438E1,-2.252300024E0,1.441399932E0,3.789699793E0
3.078598438E1,-1.634499907E0,3.039999902E-1,3.581199884E0
3.080598438E1,-2.883299828E0,-1.144699931E0,3.130999804E0
3.082598438E1,-4.442999840E0,-7.560999990E-1,3.331799984E0
3.084598438E1,-6.735799789E0,-2.579399824E0,4.662899971E0
3.086598594E1,-6.455599785E0,-2.730599880E0,3.624300003E0
3.089598438E1,-4.536699772E0,3.510999978E-1,6.821499825E0
3.091598438E1,-1.626299977E0,2.456999868E-1,4.488999844E0
3.093598438E1,1.788999885E-1,-2.613999844E0,5.979999900E-1
3.095598438E1,8.425999880E-1,-6.031399727E0,-3.206499815E0
3.097598438E1,1.243999958E0,-8.033800125E0,-3.212699890E0
3.099598438E1,1.381299973E0,-6.849299908E0,1.727999926E0
3.101598438E1,1.682199955E0,-3.984099865E0,2.407999992E0
3.103598438E1,1.199000001E0,-1.793399930E0,-3.033999801E-1
3.105598438E1,-8.240000159E-2,-9.200999737E-1,-6.236000061E-1
3.107598594E1,-5.856999755E-1,-1.683000028E-1,-2.491699934E0
3.109598594E1,2.277999967E-1,1.421599984E0,-2.667899847E0
3.111598594E1,1.499199986E0,1.670799971E0,-3.265199900E0
3.114598438E1,3.154299974E0,2.439199924E0,-3.828299999E0
3.116598438E1,3.622399807E0,2.114199877E0,-4.996799946E0
3.118598438E1,3.874599934E0,1.526899934E0,-5.878900051E0
3.120598438E1,4.460599899E0,1.846799970E0,-7.036599636E0
3.122598438E1,4.924900055E0,2.527299881E0,-7.037799835E0
3.124598438E1,4.868599892E0,2.267899990E0,-5.815099716E0
3.126598438E1,4.012499809E0,2.763200045E0,-4.418399811E0
3.128598438E1,2.273399830E0,3.770499945E0,-1.720399976E0
3.130598594E1,-1.696799994E0,1.235099912E0,2.977999926E0
3.133598438E1,-7.981899738E0,-9.013500214E0,2.064509964E1
3.135599219E1,-5.999300003E0,-1.093760014E1,1.772760010E1
3.138598438E1,6.266999841E-1,1.559199929E0,-9.554999471E-1
3.140598438E1,2.728299856E0,-2.492899895E0,-4.954999983E-1
3.142598438E1,-1.093400002E0,-4.487899780E0,-4.985199928E0
3.144598438E1,-2.769999802E-1,-4.378799915E0,-5.701200008E0
3.146598438E1,3.326399803E0,-3.230399847E0,-4.752999842E-1
3.148598438E1,5.188399792E0,5.504999757E-1,-5.249700069E0
3.150598438E1,5.618899822E0,2.422399998E0,-1.309799910E0
3.152598438E1,4.474199772E0,8.087999821E-1,1.696799994E0
3.154598594E1,-1.278699994E0,-2.667799950E0,-4.800699711E0
3.157598594E1,-5.663799763E0,1.319999993E-2,-6.949699879E0
3.159598594E1,-1.717199922E0,2.039499998E0,-4.853499889E0
3.161598594E1,2.694000006E-1,2.411599874E0,-6.721999645E-1
3.164598438E1,2.142199993E0,5.166999698E-1,8.302599907E0
3.166598438E1,2.581300020E0,-4.209999740E-2,3.006999791E-1
3.168598438E1,1.376299977E0,-3.731999993E-1,-1.810799956E0
3.170598438E1,2.811000049E-1,4.544000030E-1,-3.744999766E-1
3.172598438E1,8.506999612E-1,1.359599948E0,2.093099833E0
3.174598438E1,5.536999702E-1,2.094899893E0,3.243999958E0
3.176598438E1,-5.728999972E-1,2.223899841E0,2.334300041E0
3.178598438E1,-1.316599965E0,1.650399923E0,1.422899961E0
3.180598438E1,-7.030999660E-1,1.515799999E0,1.917999983E0
3.182598438E1,-4.255999923E-1,1.800399899E0,1.502099991E0
3.184598438E1,-1.786799908E0,2.004600048E0,2.703399897E0
3.186598438E1,-3.677099943E0,2.050799847E0,5.525599957E0
3.188598438E1,-3.134500027E0,-8.399999700E-3,5.404900074E0
3.190598438E1,-2.857499838E0,-1.350999951E0,1.923900008E0
3.192598438E1,-2.671000004E0,-1.480000019E-1,9.332999587E-1
3.194598438E1,-4.877099991E0,-1.757900000E0,5.583999634E0
3.196598438E1,-5.519199848E0,-3.448799849E0,4.955599785E0
3.198598438E1,-4.036699772E0,-1.342299938E0,8.419099808E0
3.200598438E1,-2.681599855E0,-1.083400011E0,5.988299847E0
3.202598438E1,-2.134899855E0,-2.788699865E0,1.562899947E0
3.204598438E1,-5.281000137E-1,-5.410999775E0,-1.089100003E0
3.206598438E1,-5.615000129E-1,-7.251799583E0,-4.086999893E0
3.208598906E1,4.426999986E-1,-8.955299377E0,-1.222599983E0
3.211598438E1,2.238999903E-1,-3.396799803E0,1.518299937E0
3.213598438E1,6.893999577E-1,-6.554999948E-1,-4.792999923E-1
3.215598438E1,3.590000048E-2,4.093999863E-1,-2.428900003E0
3.217598438E1,-4.661999941E-1,6.222000122E-1,-2.884999990E0
3.219598438E1,1.006199956E0,9.914000034E-1,-2.800499916E0
3.221598438E1,2.717399836E0,1.393700004E0,-4.178400040E0
3.223598438E1,3.217399836E0,1.886599898E0,-4.848799706E0
3.225598438E1,3.338599920E0,2.082799911E0,-4.686500072E0
3.227598438E1,3.202600002E0,1.720399976E0,-5.167799950E0
3.229598438E1,4.194699764E0,1.618600011E0,-6.806900024E0
3.231598438E1,5.421099663E0,2.120699883E0,-7.979699612E0
3.233598438E1,5.559799671E0,2.459300041E0,-6.905699730E0
3.235598438E1,5.224799633E0,3.444099903E0,-5.816699982E0
3.237598594E1,2.608700037E0,4.469799995E0,-2.801599979E0
3.240598438E1,-5.975899696E0,-1.561800003E0,5.771100044E0
3.242598438E1,-9.534299850E0,-1.058939934E1,2.407429886E1
3.244598438E1,-5.381099701E0,-1.564379978E1,2.103769875E1
3.246598438E1,1.635800004E0,-1.891599894E0,9.445999861E-1
3.248598438E1,4.829599857E0,4.024600029E0,-2.975100040E0
3.250598438E1,-1.121999994E-1,2.491799831E0,-5.806599617E0
3.252598438E1,-3.925400019E0,-3.697399855E0,-7.526700020E0
3.254598438E1,-1.240599990E0,-5.165100098E0,-4.208899975E0
3.256598438E1,1.013399959E0,-3.671599865E0,-7.469999790E-2
3.258598438E1,2.934799910E0,3.058999777E-1,-3.928299904E0
3.260598438E1,6.873199940E0,1.588099957E0,1.130039978E1
3.262598438E1,5.737599850E0,-6.477000117E-1,-6.044999957E-1
3.264598438E1,1.982999921E0,-2.425799847E0,-6.117300034E0
3.266598438E1,-3.344899893E0,-1.596499920E0,-1.007929993E1
3.268598438E1,-2.007299900E0,1.446999907E0,-5.167799950E0
3.270598438E1,-6.450999975E-1,2.518800020E0,-3.756899834E0
3.272598438E1,-6.059999764E-2,1.552599907E0,-1.979499936E0
3.274598438E1,9.971999526E-1,-2.897999883E-1,8.154099464E0
3.276598438E1,1.754599929E0,-7.782999873E-1,5.558799744E0
3.278598438E1,1.148899913E0,-4.174000025E-1,-1.500999928E-1
3.280598438E1,1.163399935E0,4.509999752E-1,-1.296399951E0
3.282598438E1,1.804999948E0,9.217999578E-1,-8.919999748E-2
3.284598438E1,1.425899982E0,1.441699982E0,2.244099855E0
3.286598438E1,-4.099999741E-2,2.089099884E0,2.493199825E0
3.288598438E1,-1.132099986E0,1.722299933E0,2.168599844E0
3.290598438E1,-9.276999831E-1,1.425300002E0,2.383800030E0
3.292598438E1,-9.208999872E-1,7.511000037E-1,1.294999957E0
3.294598750E1,-1.699999928E0,4.204999804E-1,2.085899830E0
3.297598438E1,-2.215800047E0,2.708999813E-1,4.744400024E0
3.299598438E1,-5.457999706E-1,-7.030000091E-1,3.811399937E0
3.301598438E1,-1.588400006E0,-9.758999944E-1,1.815199971E0
3.303598438E1,-4.610699654E0,-7.692999840E-1,1.844199896E0
3.305598438E1,-7.874799728E0,-1.999699950E0,1.879899979E0
3.307598438E1,-7.483799934E0,-1.514699936E0,3.815599918E0
3.309598594E1,-5.575999737E0,-1.131199956E0,5.101299763E0
3.312598438E1,1.126199961E0,-3.172099829E0,5.064599991E0
3.314598438E1,3.326499939E0,-4.527599812E0,1.750899911E0
3.316598438E1,3.418699980E0,-5.410299778E0,-2.071599960E0
3.318598438E1,2.734699965E0,-5.306299686E0,-1.443399906E0
3.320598438E1,6.459000111E-1,-4.068500042E0,7.877999544E-1
3.322598438E1,-8.664000034E-1,-1.576900005E0,1.667299986E0
3.324598438E1,-9.839999676E-2,-1.578999907E-1,-8.483999968E-1
3.326598438E1,-7.551999688E-1,1.269999985E-2,-1.965799928E0
3.328598438E1,-2.820999920E-1,-1.958999932E-1,-3.016899824E0
3.330598438E1,2.223599911E0,-7.670999765E-1,-2.767599821E0
3.332598438E1,3.420899868E0,-5.460000038E-1,-2.441900015E0
3.334598438E1,3.372699976E0,-2.779999934E-2,-2.392099857E0
3.336598594E1,2.509299994E0,8.621999621E-1,-3.042500019E0
3.339598438E1,2.114599943E0,1.639400005E0,-3.444000006E0
3.341598438E1,3.612599850E0,1.900099993E0,-4.748499870E0
3.343598438E1,4.732999802E0,2.433599949E0,-5.277899742E0
3.345598438E1,5.268899918E0,2.638599873E0,-4.820600033E0
3.347598438E1,4.970599651E0,2.863299847E0,-3.706799984E0
3.349598438E1,3.044899940E0,3.766699791E0,-1.671499968E0
3.351598438E1,-8.539999723E-1,2.403699875E0,2.368399858E0
3.353598438E1,-6.445399761E0,-6.209999919E-1,9.342899323E0
3.355598438E1,-1.059270000E1,-5.392799854E0,2.340059853E1
3.357598438E1,-6.529299736E0,-2.331500053E0,1.047480011E1
3.359598438E1,4.602999985E-1,8.402999640E-1,1.300899982E0
3.361598438E1,2.120499849E0,-3.110800028E0,-2.746500015E0
3.363598438E1,3.236999810E-1,-5.769700050E0,-6.537399769E0
3.365598438E1,8.824999928E-1,-7.293900013E0,-6.855499744E0
3.367598438E1,4.865099907E0,-4.251800060E0,-4.257100105E0
3.369598438E1,6.205899715E0,2.983999848E-1,5.825799942E0
3.371598438E1,5.277699947E0,6.721999645E-1,-1.001799941E0
3.373598438E1,3.594999790E0,-1.635800004E0,-7.516199589E0
3.375598438E1,-1.237100005E0,-2.475600004E0,-8.106900215E0
3.377598438E1,-2.631099939E0,-7.524999976E-1,-8.531700134E0
3.379598594E1,-9.327999949E-1,6.801999807E-1,-6.889899731E0
3.382598438E1,5.385000110E-1,5.175999999E-1,4.520800114E0
3.384598750E1,2.868000031E0,-1.356699944E0,1.065829945E1
3.387598438E1,1.721699953E0,-2.953000069E-1,-1.404199958E0
3.389598438E1,2.224999964E-1,6.563000083E-1,-2.232699871E0
3.391598438E1,-5.950999856E-1,1.558599949E0,2.329999954E-2
3.393598438E1,-7.944999933E-1,1.877200007E0,2.708600044E0
3.395598438E1,-1.165599942E0,2.066599846E0,1.900599957E0
3.397598438E1,-1.145499945E0,1.653999925E0,8.319999576E-1
3.399598438E1,-4.772999883E-1,1.578499913E0,2.178400040E0
3.401598438E1,-4.529999942E-2,1.373099923E0,2.191200018E0
3.403598438E1,-9.549999833E-1,3.148999810E-1,7.134000063E-1
3.405598438E1,-7.493000031E-1,6.059999764E-2,1.660699964E0
3.407598438E1,-1.431299925E0,2.094999999E-1,4.843899727E0
3.409598594E1,-2.442600012E0,-1.809999943E-1,5.324500084E0
3.411598594E1,-3.591499805E0,-1.845999956E-1,4.081399918E0
3.413598594E1,-4.120199680E0,3.581999838E-1,2.121399879E0
3.416598438E1,-5.536599636E0,-6.803999543E-1,3.818599939E0
3.418598438E1,-6.173500061E0,-2.437099934E0,3.364599943E0
3.420598438E1,-4.826299667E0,-1.707199931E0,5.822299957E0
3.422598438E1,-2.281800032E0,-1.547399998E0,5.116600037E0
3.424598594E1,9.344999790E-1,-3.266599894E0,3.148599863E0
3.426598594E1,2.209300041E0,-4.917900085E0,1.845999956E-1
3.428598594E1,1.849399924E0,-6.655299664E0,-3.341099977E0
3.430598594E1,2.601099968E0,-7.635099888E0,-1.636299968E0
3.433598594E1,1.492100000E0,-3.990999937E0,3.508699894E0
3.436598594E1,6.894999743E-1,-5.354999900E-1,-8.870999813E-1
3.439598438E1,-4.845999777E-1,4.050000012E-2,-2.505800009E0
3.441598594E1,7.556999922E-1,-2.664999962E-1,-2.755100012E0
3.443598594E1,2.739099979E0,3.814999759E-1,-2.494999886E0
3.445598594E1,3.490000010E0,1.151000023E0,-3.144799948E0
3.448598438E1,3.733099937E0,2.214499950E0,-3.483099937E0
3.450598594E1,3.263700008E0,2.246899843E0,-4.294899940E0
3.453598438E1,3.480700016E0,2.387399912E0,-5.644199848E0
3.455598438E1,4.355899811E0,2.661399841E0,-5.756000042E0
3.457598594E1,4.295099735E0,2.793999910E0,-5.269599915E0
3.459598594E1,3.680399895E0,3.672999859E0,-4.327600002E0
3.461598594E1,1.113299966E0,3.643499851E0,-6.057999730E-1
3.464598438E1,-6.567999840E0,-2.686599970E0,9.254099846E0
3.466598594E1,-1.035579967E1,-9.378399849E0,2.464089966E1
3.468598594E1,-6.680399895E0,-3.529500008E0,9.157699585E0
3.470598594E1,1.365000010E-1,1.552899957E0,2.031299829E0
3.472598594E1,3.570899963E0,-1.725199938E0,-2.076400042E0
3.474598594E1,1.716199994E0,-5.497799873E0,-4.855999947E0
3.476598594E1,2.815199852E0,-6.577099800E0,-6.671399593E0
3.478598594E1,4.835999966E0,-3.576099873E0,-3.955899954E0
3.480598594E1,5.130899906E0,-4.757999778E-1,-3.526999950E-1
3.482598594E1,6.122999668E0,-4.025000036E-1,5.921599865E0
3.484598594E1,3.587499857E0,-1.545399904E0,-5.708799839E0
3.486598594E1,-3.590000048E-2,-2.308799982E0,-9.512599945E0
3.488598594E1,-2.884099960E0,-7.576000094E-1,-9.274299622E0
3.490598594E1,-1.757399917E0,3.598999977E-1,-7.694200039E0
3.492598594E1,-7.125999928E-1,1.848399997E0,-7.540899754E0
3.494598594E1,-1.503999978E-1,5.442000031E-1,6.620800018E0
3.496598594E1,3.391000032E0,5.749999732E-2,1.390429974E1
3.498598594E1,2.982499838E0,-1.673000008E-1,-3.419999778E-2
3.500598594E1,9.205999970E-1,1.722999960E-1,-4.202699661E0
3.502598594E1,-1.120599985E0,1.572799921E0,-8.111000061E-1
3.504598594E1,-1.587299943E0,1.778699994E0,2.272699833E0
3.506598594E1,-1.811499953E0,1.637199998E0,4.206900120E0
3.508598594E1,-1.691799998E0,1.788800001E0,5.742399693E0
3.510598594E1,-1.979299903E0,1.330600023E0,2.842200041E0
3.512598594E1,-1.321599960E0,1.041100025E0,1.358099937E0
3.515598594E1,4.290999770E-1,6.855999827E-1,2.428099871E0
3.517598594E1,3.901999891E-1,4.700999856E-1,2.953899860E0
3.520598438E1,-1.509699941E0,-8.676999807E-1,2.556499958E0
3.522598438E1,-3.234899998E0,-2.940999866E-1,1.812299967E0
3.524598594E1,-3.525499821E0,9.412999749E-1,3.002699852E0
3.527598438E1,-4.108599663E0,-3.774999976E-1,7.294499874E0
3.529598438E1,-5.660799980E0,-2.299799919E0,7.851500034E0
3.531598438E1,-3.641099930E0,-1.031999946E0,1.058889961E1
3.533598594E1,-2.536999941E0,-7.998999953E-1,3.055799961E0
3.536598594E1,-1.847199917E0,-3.794699907E0,-2.634599924E0
3.539598594E1,-1.284999967E0,-1.000150013E1,-4.137799740E0
3.542598438E1,9.460999966E-1,-8.834499359E0,4.569999695E0
3.544598438E1,2.540199995E0,-4.821499825E0,3.048399925E0
3.546598438E1,1.698599935E0,-1.472800016E0,-4.000999928E-1
3.548598438E1,-6.696999669E-1,8.431999683E-1,-3.390499830E0
3.550598438E1,-2.301999927E-1,1.962899923E0,-2.830699921E0
3.552598438E1,1.833799958E0,2.022599936E0,-3.192499876E0
3.554598438E1,2.655999899E0,2.545799971E0,-3.905900002E0
3.556598438E1,2.482300043E0,2.335399866E0,-4.648299694E0
3.558598594E1,3.016099930E0,1.844999909E0,-5.455599785E0
3.560598594E1,5.201999664E0,1.354799986E0,-7.570999622E0
3.562598594E1,6.772299767E0,2.082499981E0,-8.733699799E0
3.565598594E1,6.547299862E0,3.673499823E0,-7.144899845E0
3.568598438E1,3.652099848E0,4.222599983E0,-3.935599804E0
3.570598438E1,-3.935000002E-1,3.670499802E0,-1.506000012E-1
3.572598594E1,-3.394599915E0,-2.069999933E0,7.952699661E0
3.574598594E1,-9.206899643E0,-1.003459930E1,2.196369934E1
3.577598594E1,-7.131099701E0,-3.451399803E0,5.383299828E0
3.579598594E1,2.626999915E-1,-1.103799939E0,3.309899807E0
3.581602812E1,1.927500010E0,-2.428499937E0,-3.080099821E0
3.584598438E1,2.088399887E0,-5.993000031E0,-6.785099983E0
3.586598594E1,5.832399845E0,-3.177799940E0,-4.258699894E0
3.589598438E1,8.343299866E0,-9.419999719E-1,6.536799908E0
3.591598438E1,4.203299999E0,-1.075600028E0,-8.840999603E-1
3.593598438E1,-1.903899908E0,-8.973999619E-1,-1.179089928E1
3.595598438E1,-5.263199806E0,-9.641999602E-1,-1.025739956E1
3.597598438E1,-4.585400105E0,2.502999902E-1,-6.963699818E0
3.599598438E1,-1.855699897E0,1.830799937E0,-6.467799664E0
3.601598438E1,-4.195999801E-1,2.774799824E0,-3.474999964E-1
3.603598438E1,2.791199923E0,8.166999817E-1,1.476779938E1
3.605598438E1,4.284699917E0,5.087999701E-1,2.865599871E0
3.607598438E1,3.965899944E0,-1.102299929E0,-5.042599678E0
3.609598594E1,2.946300030E0,-7.188999653E-1,-2.051199913E0
3.612598594E1,2.000999898E-1,1.437500000E0,2.437500000E0
3.615598594E1,-7.278999686E-1,2.007499933E0,3.431099892E0
3.617598594E1,-1.532899976E0,1.709800005E0,3.132200003E0
3.620598438E1,-1.157199979E0,6.147999763E-1,5.113999844E-1
3.622598438E1,-2.163999975E-1,7.953999639E-1,5.868999958E-1
3.624598438E1,-6.535999775E-1,8.949999809E-1,3.497299910E0
3.626598438E1,-1.336499929E0,-2.609999850E-2,3.793099880E0
3.628598438E1,-1.205199957E0,-8.680999875E-1,2.670799971E0
3.630598594E1,-3.098899841E0,-5.848000050E-1,1.077000022E0
3.632598594E1,-5.021999836E0,5.115999579E-1,1.816199899E0
3.634599062E1,-6.101799965E0,1.137899995E0,5.774199963E0
3.637598594E1,-7.820899963E0,-9.954999685E-1,6.575099945E0
3.640598438E1,-4.017399788E0,-1.374000013E-1,5.845499992E0
3.642598438E1,-3.030999899E-1,-2.412600040E0,5.194999576E-1
3.644598438E1,1.513999999E-1,-5.675399780E0,-7.583999634E-1
3.646598438E1,-4.133999944E-1,-8.621999741E0,-3.884499788E0
3.648600000E1,9.474999905E-1,-1.000369930E1,-2.202100039E0
3.651598594E1,8.913999796E-1,-4.043900013E0,3.997099876E0
3.653598594E1,8.425999880E-1,-1.639099956E0,9.655999541E-1
3.655598594E1,3.832999766E-1,-2.223999947E-1,-2.147300005E0
3.658598438E1,-6.277999878E-1,1.131999940E-1,-4.268700123E0
3.660598594E1,1.445299983E0,6.801999807E-1,-3.229099989E0
3.663598438E1,3.493399858E0,1.850099921E0,-3.887399912E0
3.665598438E1,3.373799801E0,2.565099955E0,-4.887899876E0
3.667598594E1,2.814399958E0,2.648699999E0,-5.196199894E0
3.670598438E1,4.418399811E0,2.162999868E0,-7.503699780E0
3.672598438E1,5.596600056E0,2.247799873E0,-7.727200031E0
3.674598438E1,5.941699982E0,2.649099827E0,-6.550600052E0
3.676598438E1,5.063699722E0,3.849299908E0,-4.965499878E0
3.678598438E1,8.648999929E-1,3.335799932E0,-1.894199967E0
3.680598438E1,-1.723899961E0,-1.916599989E0,2.430999994E0
3.682598438E1,-4.567899704E0,-9.119199753E0,1.371560001E1
3.684598438E1,-6.394899845E0,-1.264009953E1,2.278409958E1
3.686598438E1,-2.985599995E0,-3.610000014E-2,4.402199745E0
3.688598438E1,1.084800005E0,5.214399815E0,1.424999952E0
3.690598438E1,-1.180299997E0,9.797999859E-1,-3.882299900E0
3.692598438E1,-3.405599833E0,-4.976399899E0,-9.446299553E0
3.694598438E1,9.350999594E-1,-5.894399643E0,-5.665699959E0
3.696598438E1,4.646199703E0,-5.028199673E0,-4.340799809E0
3.698598438E1,5.276499748E0,-1.454899907E0,-1.167899966E0
3.700598438E1,6.792799950E0,2.141999900E-1,5.112299919E0
3.702598438E1,4.127399921E0,-2.393100023E0,-3.318199873E0
3.704598438E1,-5.317999721E-1,-3.388099909E0,-7.001899719E0
3.706598438E1,-2.547299862E0,-4.976999760E-1,-7.514999866E0
3.708598438E1,-1.179499984E0,9.663999677E-1,-7.753599644E0
3.710598438E1,-8.794999719E-1,1.822499990E0,-4.602600098E0
3.712598438E1,7.799999788E-3,1.739199996E0,9.357699394E0
3.714598438E1,1.713400006E0,1.712199926E0,5.786299706E0
3.716598438E1,1.507699966E0,1.897999942E-1,-2.535500050E0
3.718598438E1,6.503999829E-1,3.070999980E-1,-2.009099960E0
3.720598438E1,9.311999679E-1,8.471999764E-1,1.186599970E0
3.722598438E1,9.504999518E-1,1.632599950E0,3.017899990E0
3.724598438E1,8.729999661E-1,1.669799924E0,2.239899874E0
3.726598438E1,-1.008999944E-1,8.815999627E-1,2.426899910E0
3.728598438E1,-1.329299927E0,5.916999578E-1,1.836199999E0
3.730598594E1,-1.173599958E0,7.154999971E-1,1.589299917E0
3.733598438E1,-1.979200006E0,1.632499933E0,3.711499929E0
3.735598438E1,-2.916199923E0,5.314999819E-1,4.234799862E0
3.737598438E1,-4.021899700E0,-1.508299947E0,3.728199959E0
3.739598438E1,-4.761399746E0,-9.929999709E-1,1.023199916E0
3.741598438E1,-5.141200066E0,-6.112999916E-1,3.541499853E0
3.743598438E1,-5.701099873E0,-2.183699846E0,5.946599960E0
3.745598438E1,-2.982899904E0,-1.092000008E0,1.022429943E1
3.747598438E1,-1.188899994E0,-7.791000009E-1,5.975499630E0
3.749598438E1,-9.368000031E-1,-2.929399967E0,1.482699990E0
3.751598438E1,-1.711899996E0,-6.163499832E0,-4.017099857E0
3.753598594E1,5.956999660E-1,-9.071800232E0,-5.417500019E0
3.756598438E1,2.026900053E0,-8.234299660E0,3.947799921E0
3.758598594E1,2.798499823E0,-4.787399769E0,3.357699871E0
3.760598594E1,1.802299976E0,-1.427099943E0,-1.195899963E0
3.762598594E1,-1.900999993E-1,4.917999804E-1,-3.437699795E0
3.765598438E1,-4.459999874E-2,9.301999807E-1,-2.804699898E0
3.767598594E1,1.733599901E0,1.632499933E0,-2.984699965E0
3.769598594E1,2.785599947E0,1.838599920E0,-4.663399696E0
3.772598594E1,3.259699821E0,2.414199829E0,-4.950299740E0
3.774598594E1,3.253299952E0,2.278199911E0,-5.361399651E0
3.777598594E1,5.342499733E0,2.267199993E0,-7.593999863E0
3.779598594E1,6.136699677E0,2.692899942E0,-7.880199909E0
3.781598594E1,5.933300018E0,3.825199842E0,-6.199699879E0
3.784598594E1,9.804999828E-1,4.536799908E0,-1.134099960E0
3.786598594E1,-3.708999872E0,7.519999892E-2,3.162199974E0
3.789598594E1,-1.013159943E1,-1.248530006E1,3.278529739E1
3.792598438E1,-7.642999887E-1,-1.659299970E0,3.007200003E0
3.794598594E1,4.916599751E0,3.725499868E0,-3.282500029E0
3.796598594E1,1.425799966E0,-1.469099998E0,-3.926999807E0
3.798598594E1,-3.146899939E0,-7.026700020E0,-8.413299561E0
3.800598594E1,6.007999778E-1,-7.773299694E0,-6.819999695E0
3.802598594E1,3.963799953E0,-5.279299736E0,-3.691699982E0
3.805598594E1,5.450299740E0,1.168299913E0,-1.137899995E0
3.807598594E1,5.646199703E0,-4.168999791E-1,-7.513700008E0
3.809598594E1,1.122099996E0,-2.722599983E0,-6.959399700E0
3.812598594E1,-2.677700043E0,-2.088999987E0,-8.272399902E0
3.814598594E1,-6.371999979E-1,-1.111999974E-1,-8.350399971E0
3.817598594E1,3.044999838E-1,1.262399912E0,7.167599678E0
3.819598594E1,2.849299908E0,1.474399924E0,1.010799980E1
3.821598594E1,1.986799955E0,1.631999910E-1,-1.580399990E0
3.823598594E1,9.565999508E-1,5.526999831E-1,-3.839299917E0
3.825598594E1,8.098999858E-1,1.361500025E0,-9.332999587E-1
3.827598594E1,4.978999794E-1,1.314199924E0,1.689199924E0
3.829598594E1,-7.190999985E-1,8.725000024E-1,2.741400003E0
3.831598594E1,-1.324399948E0,8.521999717E-1,4.053999901E0
3.834598438E1,-1.831999898E0,1.589800000E0,3.735099792E0
3.836598594E1,-2.474599838E0,1.509400010E0,1.241899967E0
3.839598438E1,-2.270400047E0,1.123899937E0,3.488999844E0
3.841598438E1,-1.292500019E0,1.264599919E0,6.762399673E0
3.843598594E1,-1.770599961E0,2.047999948E-1,2.326999903E0
3.845598594E1,-2.089099884E0,-7.400000095E-1,-3.289999813E-2
3.848598594E1,-3.253999949E0,-5.827000141E-1,4.274399757E0
3.851598438E1,-4.257899761E0,-2.448600054E0,5.356599808E0
3.853598438E1,-3.446799994E0,-1.091099977E0,1.034389973E1
3.855598594E1,-1.866899967E0,-2.039000034E0,3.856799841E0
3.858598438E1,-5.590000153E-1,-6.027999878E0,3.720000014E-2
3.860598438E1,3.583000004E-1,-8.111100197E0,-4.565499783E0
3.862598594E1,2.814999819E0,-8.557199478E0,-3.213599920E0
3.865598438E1,1.873299956E0,-5.595799923E0,3.822299957E0
3.867598594E1,2.080399990E0,-2.465699911E0,6.195999980E-1
3.869598594E1,9.878999591E-1,-4.186999798E-1,-2.211400032E0
3.872598438E1,-5.029999614E-1,7.724999785E-1,-2.642999887E0
3.874598438E1,1.590600014E0,7.299999595E-1,-2.433899879E0
3.876598438E1,2.959100008E0,8.982999921E-1,-3.558199883E0
3.878598750E1,3.072799921E0,2.051899910E0,-3.852799892E0
3.881598594E1,2.343299866E0,2.533499956E0,-5.093499660E0
3.884598438E1,3.481499910E0,1.805099964E0,-7.006499767E0
3.886598438E1,5.054999828E0,1.724799991E0,-7.283799648E0
3.888598594E1,5.057499886E0,2.582499981E0,-6.982899666E0
3.891598594E1,3.742399931E0,3.561199903E0,-4.493199825E0
3.894598438E1,-1.560099959E0,2.328399897E0,3.243299961E0
3.896598438E1,-5.862199783E0,-3.622799873E0,9.972099304E0
3.898598438E1,-7.942499638E0,-1.220209980E1,2.540619850E1
3.900598594E1,-3.085199833E0,-6.913699627E0,1.200689983E1
3.902598594E1,2.860299826E0,1.053799987E0,-1.653399944E0
3.904598594E1,4.484200001E0,-2.508100033E0,-1.411899924E0
3.907598594E1,-5.482000113E-1,-5.985899925E0,-6.515100002E0
3.909598594E1,1.055199981E0,-5.202699661E0,-3.866400003E0
3.912598594E1,3.816799879E0,-1.999999955E-2,-4.542900085E0
3.914598594E1,6.507099628E0,1.601099968E0,-2.252999991E-1
3.916598594E1,5.718599796E0,1.094999984E-1,8.240000159E-2
3.918598594E1,5.314999819E-1,-2.979300022E0,-6.447799683E0
3.921598438E1,-4.326900005E0,-2.178200006E0,-7.676099777E0
3.923598594E1,-2.709199905E0,1.112299919E0,-6.882999897E0
3.925598594E1,-8.816999793E-1,2.403300047E0,-4.394099712E0
3.927598594E1,1.309999973E-1,2.182800055E0,1.179139996E1
3.929598594E1,2.119999886E0,8.938999772E-1,8.130700111E0
3.932598594E1,5.606999993E-1,4.108999968E-1,-4.011899948E0
3.934598594E1,3.993999958E-1,1.275300026E0,-1.727599978E0
3.936598594E1,3.617999852E-1,1.583999991E0,1.710099936E0
3.938598594E1,-6.352999806E-1,9.072999954E-1,4.462399960E0
3.941598438E1,-1.084999919E0,1.947099924E0,3.836199999E0
3.943598438E1,-1.022300005E0,2.291399956E0,1.885699987E0
3.945598594E1,-1.379899979E0,1.572399974E0,2.087999880E-1
3.948598594E1,-3.707000017E-1,7.547000051E-1,2.151000023E0
3.950598594E1,-4.115999937E-1,5.681999922E-1,5.767999649E0
3.952598594E1,-1.864299893E0,-4.099999964E-1,3.357100010E0
3.954598594E1,-2.994299889E0,-9.705999494E-1,2.223799944E0
3.956598594E1,-3.937699795E0,-5.138999820E-1,2.664099932E0
3.959598594E1,-5.650599957E0,-1.806800008E0,5.392899990E0
3.961598594E1,-6.090099812E0,-1.845600009E0,4.979700089E0
3.963598594E1,-4.675899982E0,-1.910099983E0,3.549000025E0
3.965598594E1,-1.811699986E0,-3.281899929E0,4.909499645E0
3.967598594E1,-5.415999889E-1,-4.790100098E0,4.937999845E-1
3.969598594E1,6.451999545E-1,-6.706099987E0,-3.674399853E0
3.972598438E1,3.499099970E0,-7.381199837E0,-1.180299997E0
3.974598594E1,3.421499968E0,-6.174900055E0,2.550199986E0
3.977598594E1,4.124300003E0,-3.006899834E0,-6.836000085E-1
3.979598594E1,1.939899921E0,-1.297999978E0,-9.117999673E-1
3.981598594E1,-2.516999841E-1,-1.555999964E-1,-2.226899862E0
3.984598594E1,4.151999950E-1,1.928499937E0,-2.572999954E0
3.986598594E1,1.104499936E0,2.469599962E0,-3.044999838E0
3.988598594E1,2.357899904E0,2.307800055E0,-3.300699949E0
3.991598594E1,3.402199984E0,2.175499916E0,-5.209399700E0
3.994598594E1,4.625599861E0,2.158599854E0,-6.354300022E0
3.996598594E1,5.265100002E0,2.365599871E0,-6.376100063E0
3.998598594E1,5.183300018E0,2.763700008E0,-5.811500072E0
4.000598594E1,4.435999870E0,3.600299835E0,-4.615099907E0
4.002598594E1,9.986999631E-1,4.285500050E0,-2.173300028E0
4.005598594E1,-6.198499680E0,-2.387399912E0,1.002629948E1
4.007598594E1,-1.080449963E1,-1.007429981E1,2.752989960E1
4.009598594E1,-7.344399929E0,-6.334899902E0,1.441419983E1
4.011598594E1,5.439999700E-2,9.325999618E-1,-1.657999992E0
4.013598594E1,2.488699913E0,-1.701599956E0,-3.224200010E0
4.015598594E1,1.551299930E0,-5.650099754E0,-9.108300209E0
4.017598594E1,3.319399834E0,-7.844699860E0,-6.993399620E0
4.019598594E1,5.982699871E0,-6.671099663E0,-4.505000114E0
4.021598594E1,6.413799763E0,1.168099999E0,4.643899918E0
4.023598594E1,3.776399851E0,3.435899973E0,-6.565999985E-1
4.025598594E1,1.806000024E-1,4.715999961E-1,-8.527599335E0
4.027598594E1,-3.645900011E0,-2.346199989E0,-8.991600037E0
4.029598594E1,-4.696399689E0,-2.008399963E0,-6.906899929E0
4.031598594E1,-1.360000014E0,2.074999958E-1,-4.297800064E0
4.033598594E1,1.612100005E0,1.825500011E0,-1.197700024E0
4.035598594E1,2.639699936E0,1.067399979E0,1.019969940E1
4.037598594E1,3.393399954E0,1.280999929E-1,4.063300133E0
4.040598438E1,1.802199960E0,2.058999985E-1,-3.015899897E0
4.042598438E1,1.001199961E0,1.149799943E0,-1.992599964E0
4.044598438E1,2.999999933E-2,1.818599939E0,5.324999690E-1
4.046598438E1,-6.038999557E-1,2.013499975E0,1.767499924E0
4.048598594E1,-1.273499966E0,1.629499912E0,2.178699970E0
4.051598438E1,-1.950999975E0,1.294399977E0,4.694399834E0
4.053598438E1,-2.300799847E0,8.395999670E-1,6.382899761E0
4.055598438E1,-2.500999928E0,1.098999977E-1,4.641499996E0
4.057598594E1,-2.262099981E0,-8.282999992E-1,3.977599859E0
4.059598594E1,-2.197599888E0,-8.187999725E-1,3.463999987E0
4.062598594E1,-3.162199974E0,-1.426999927E0,5.143399715E0
4.064598594E1,-3.574199915E0,-2.572499990E0,5.631199837E0
4.066598594E1,-2.884699821E0,-2.489399910E0,5.605400085E0
4.068598594E1,-1.831599951E0,-3.764799833E0,-5.101999640E-1
4.070598594E1,-1.585799932E0,-6.213099957E0,-3.068799973E0
4.072598594E1,2.165400028E0,-8.185199738E0,-3.125399828E0
4.074598594E1,3.996199846E0,-7.882299900E0,-1.431999952E-1
4.077598594E1,3.638099909E0,-4.547800064E0,3.301999807E0
4.079598594E1,2.594499826E0,-6.103999615E-1,-8.646999598E-1
4.081598594E1,-1.284899950E0,1.643399954E0,-2.187000036E0
4.084598594E1,-1.803599954E0,1.236099958E0,-2.462899923E0
4.086598594E1,-7.409999520E-2,1.033999920E0,-3.027400017E0
4.088598594E1,2.642899990E0,5.270999670E-1,-3.761899948E0
4.091598594E1,4.189099789E0,1.451299906E0,-3.962999821E0
4.093598594E1,4.621599674E0,2.049700022E0,-5.013599873E0
4.095598594E1,5.657899857E0,1.955299973E0,-6.394199848E0
4.097598594E1,6.591399670E0,1.873600006E0,-6.586299896E0
4.100598594E1,5.803400040E0,3.727299929E0,-4.883800030E0
4.103598438E1,-5.128999949E-1,3.110100031E0,-5.676000118E-1
4.105598438E1,-7.129099846E0,9.339999408E-2,7.705199718E0
4.107598594E1,-1.280159950E1,-5.532499790E0,2.737519836E1
4.109598594E1,-7.795199871E0,-4.637599945E0,1.680029869E1
4.111598594E1,-6.990999579E-1,3.369099855E0,2.535199881E0
4.114598594E1,4.404299736E0,4.548199654E0,-1.063980007E1
4.116598594E1,3.348199844E0,-4.747699738E0,-1.149249935E1
4.118598594E1,2.702499866E0,-1.127400017E1,-7.125000000E0
4.120598594E1,2.728299856E0,-1.399729919E1,1.569299936E0
4.123598594E1,3.755999804E-1,-1.335199952E0,-5.610300064E0
4.125598594E1,3.069700003E0,1.243600011E0,-1.067280006E1
4.127598594E1,2.402499914E0,1.680799961E0,-7.395599842E0
4.129598594E1,-1.802199960E0,-5.692999959E-1,-3.710199833E0
4.131598594E1,-2.190700054E0,-1.131699920E0,-3.292699814E0
4.134598594E1,1.624499917E0,3.476999998E-1,2.259700060E0
4.136598594E1,3.869599819E0,4.113000035E-1,6.001499653E0
4.138598594E1,3.763299942E0,8.475999832E-1,2.575099945E0
4.141598594E1,1.415399909E0,9.452999830E-1,-1.417099953E0
4.143598594E1,5.358999968E-1,1.406199932E0,-6.566999555E-1
4.145598594E1,7.175999880E-1,1.351300001E0,1.044499993E0
4.147598594E1,7.037999630E-1,1.639799953E0,4.425099850E0
4.149598594E1,-7.511999607E-1,2.307800055E0,4.275000095E0
4.151598594E1,-2.736999989E0,1.998899937E0,2.746700048E0
4.153598594E1,-3.953699827E0,1.220399976E0,3.306200027E0
4.155598594E1,-4.326900005E0,6.493999958E-1,3.176800013E0
4.157598594E1,-4.142099857E0,-2.153999954E-1,4.760299683E0
4.159598594E1,-3.748199940E0,-1.527999997E0,4.413599968E0
4.161598594E1,-2.209699869E0,-1.304700017E0,2.707900047E0
4.164598594E1,-3.546000004E0,-3.671999931E0,4.641799927E0
4.166598594E1,-3.281899929E0,-2.729399920E0,7.916699886E0
4.168598594E1,-1.924199939E0,-6.566999555E-1,7.869599819E0
4.170598594E1,-2.331799984E0,-1.720099926E0,-6.434999704E-1
4.172598594E1,-1.644299984E0,-3.920399904E0,-2.592999935E0
4.174598594E1,-1.048599958E0,-7.241600037E0,-3.951999903E0
4.176598594E1,1.067999974E-1,-9.183300018E0,-2.947000027E0
4.179598594E1,5.767999887E-1,-4.215399742E0,5.990099907E0
4.181598594E1,1.201900005E0,-6.144999862E-1,1.196699977E0
4.184598594E1,-1.460500002E0,2.377899885E0,-2.693399906E0
4.187598594E1,2.139999904E-2,1.369599938E0,-3.235499859E0
4.189598594E1,1.891299963E0,1.077700019E0,-3.919099808E0
4.192598438E1,3.726899862E0,9.404999614E-1,-4.155600071E0
4.194598594E1,3.351799965E0,1.146700025E0,-5.116799831E0
4.196598594E1,3.399199963E0,1.309000015E0,-6.508899689E0
4.198598594E1,4.849199772E0,1.434599996E0,-8.342299461E0
4.201598438E1,6.260799885E0,2.440799952E0,-6.363299847E0
4.203598594E1,5.442899704E0,3.166399956E0,-4.801499844E0
4.205598594E1,3.420099974E0,4.267899990E0,-3.110899925E0
4.207598594E1,-1.160099983E0,3.192499876E0,1.439700007E0
4.209598594E1,-6.059499741E0,-1.818300009E0,9.400099754E0
4.211598594E1,-9.863299370E0,-1.128969955E1,2.946949959E1
4.213598594E1,-6.453299999E0,-8.098299980E0,1.207509995E1
4.215598594E1,-2.348999977E-1,1.827600002E0,-3.116999865E-1
4.218598438E1,5.393999815E-1,-8.965999484E-1,-4.742799759E0
4.220598594E1,-1.200999990E-1,-6.573400021E0,-1.123390007E1
4.222598594E1,3.170199871E0,-6.596199989E0,-6.651899815E0
4.225598594E1,5.386199951E0,-1.910399914E0,2.540499926E0
4.227598594E1,5.917500019E0,1.437999904E-1,6.198999882E0
4.230598594E1,9.888999462E-1,-1.894999892E-1,-1.052050018E1
4.233598438E1,-4.545700073E0,-1.425400019E0,-7.984699726E0
4.235598594E1,-3.355199814E0,7.509999871E-1,-6.202499866E0
4.238598594E1,2.682999969E-1,1.944799900E0,-9.768999815E-1
4.241598594E1,3.098999977E0,1.322700024E0,1.179579926E1
4.244598594E1,1.714999914E0,-4.600000102E-3,-5.461199760E0
4.246598594E1,8.510999680E-1,4.603999853E-1,-4.009599686E0
4.249598438E1,1.429499984E0,1.068699956E0,2.680099964E0
4.251598438E1,1.212399960E0,9.937999845E-1,4.793900013E0
4.253598594E1,2.089999989E-2,9.308999777E-1,3.864199877E0
4.255598594E1,-1.133499980E0,1.020699978E0,2.479199886E0
4.257598594E1,-2.127599955E0,1.001600027E0,1.403999925E0
4.259598594E1,-2.681299925E0,1.233999968E0,2.513599873E0
4.262598438E1,-3.924299955E0,1.067499995E0,4.721600056E0
4.264598438E1,-3.709599972E0,1.171000004E-1,5.476799965E0
4.266598594E1,-4.958799839E0,-5.230999589E-1,2.533900023E0
4.268598594E1,-4.852200031E0,-1.222399950E0,2.406100035E0
4.271598438E1,-4.594899654E0,-3.707000017E0,6.119799614E0
4.273598438E1,-3.796899796E0,-2.045300007E0,7.491999626E0
4.275598438E1,-1.404999971E0,-1.379699945E0,3.126399994E0
4.277598594E1,-2.239300013E0,-2.674099922E0,-7.519999892E-2
4.280598438E1,-6.983000040E-1,-7.154699802E0,-4.455299854E0
4.282598594E1,1.156499982E0,-8.063599586E0,-2.577199936E0
4.285598594E1,2.553799868E0,-4.539099693E0,3.714799881E0
4.287598594E1,3.304499865E0,-1.075099945E0,1.080899954E0
4.289598594E1,1.920899987E0,6.538000107E-1,-1.492299914E0
4.292598438E1,-4.809999838E-2,1.149399996E0,-2.734999895E0
4.294598438E1,4.720000029E-1,9.296999574E-1,-2.556200027E0
4.296598438E1,7.117999792E-1,1.305699944E0,-2.689899921E0
4.298598438E1,1.906899929E0,1.257699966E0,-3.580099821E0
4.300598438E1,2.703999996E0,1.624599934E0,-4.830899715E0
4.302598594E1,3.327399969E0,1.799600005E0,-5.848899841E0
4.305598438E1,5.167900085E0,1.928699970E0,-7.275300026E0
4.307598594E1,6.003200054E0,2.257099867E0,-6.849499702E0
4.309598594E1,5.813099861E0,2.391299963E0,-5.090399742E0
4.311598594E1,4.029999733E0,3.435699940E0,-2.999799967E0
4.313598594E1,5.430999994E-1,3.443399906E0,9.800999761E-1
4.315598594E1,-3.954699993E0,-2.773999870E-1,6.898900032E0
4.317598594E1,-8.674399376E0,-8.061100006E0,2.075129890E1
4.320598438E1,-4.627199650E0,-3.589499950E0,8.558099747E0
4.322598594E1,5.453999639E-1,2.560699940E0,-3.426299810E0
4.324598594E1,6.247999668E-1,-1.561699986E0,-3.674799919E0
4.327598594E1,1.162199974E0,-8.128000259E0,-8.369299889E0
4.329598594E1,4.854000092E0,-6.218100071E0,-5.410399914E0
4.331598594E1,5.609499931E0,-7.695999742E-1,2.076900005E0
4.334598438E1,3.256399870E0,1.265699983E0,-3.063599825E0
4.336598438E1,7.795999646E-1,-8.289999962E-1,-8.938399315E0
4.338598594E1,-3.212999821E0,-1.391899943E0,-8.168700218E0
4.341598438E1,-2.545199871E0,8.468999863E-1,-5.496900082E0
4.343598438E1,-2.295999974E-1,2.151700020E0,-2.923199892E0
4.345598438E1,1.151399970E0,1.724299908E0,1.117420006E1
4.347598438E1,3.001899958E0,1.350499988E0,5.941199780E0
4.349598438E1,1.821299911E0,7.662000060E-1,-2.879799843E0
4.351598438E1,6.854000092E-1,5.719000101E-1,-3.101300001E0
4.353598438E1,4.296999872E-1,4.579999745E-1,-5.975999832E-1
4.355598438E1,4.190999866E-1,9.158999920E-1,2.982300043E0
4.357598438E1,9.240999818E-1,1.622499943E0,5.787399769E0
4.359598594E1,-2.456000000E-1,1.510499954E0,3.449899912E0
4.361598594E1,-1.402400017E0,9.894999862E-1,1.182699919E0
4.364598438E1,-1.411499977E0,4.377000034E-1,1.856599927E0
4.366598594E1,-1.972499967E0,5.005999804E-1,4.895299911E0
4.369598438E1,-3.312500000E0,-1.999000013E-1,5.985599995E0
4.371598438E1,-4.971199989E0,3.099999949E-2,1.943499923E0
4.373598594E1,-5.334899902E0,-1.590999961E-1,1.023999929E0
4.375598594E1,-6.217599869E0,-1.847700000E0,4.795099735E0
4.377598594E1,-4.586100101E0,-2.570799828E0,8.037400246E0
4.379598594E1,-3.234400034E0,-1.587599993E0,5.890299797E0
4.381598594E1,-1.859799981E0,-2.449599981E0,1.862299919E0
4.384598438E1,-3.258000016E-1,-6.580599785E0,-2.075799942E0
4.386598438E1,2.135999948E-1,-8.059999466E0,-3.951900005E0
4.388598594E1,7.813000083E-1,-7.813599586E0,-5.977999568E-1
4.391598438E1,9.140999913E-1,-2.509099960E0,3.313199997E0
4.393598438E1,1.084399939E0,-7.343999743E-1,-7.737999558E-1
4.395598594E1,-1.215099931E0,5.446000099E-1,-2.221099854E0
4.398598438E1,6.147999763E-1,1.311699986E0,-2.689499855E0
4.400598438E1,2.394799948E0,1.708299994E0,-3.211099863E0
4.402598594E1,3.415999889E0,1.939000010E0,-4.281399727E0
4.405598594E1,3.611099958E0,1.969999909E0,-5.367499828E0
4.408598438E1,3.375499964E0,1.635399938E0,-6.534399986E0
4.410598438E1,4.806399822E0,1.587199926E0,-7.836899757E0
4.412598438E1,5.908999920E0,1.822799921E0,-7.661299706E0
4.414598594E1,5.912799835E0,2.046200037E0,-5.520099640E0
4.417598594E1,3.667099953E0,3.335599899E0,-2.244400024E0
4.420598594E1,-4.040699959E0,3.761999905E-1,6.136199951E0
4.422598594E1,-8.909999847E0,-7.524600029E0,1.829229927E1
4.424598594E1,-1.201340008E1,-1.071439934E1,2.248359871E1
4.427598594E1,-9.402999878E-1,3.546199799E0,4.422999918E-1
4.430598438E1,-4.201999903E-1,-4.487699986E0,-7.667799950E0
4.432598438E1,4.511999786E-1,-9.220600128E0,-1.155659962E1
4.434599688E1,5.151899815E0,-6.892199993E0,-6.869899750E0
4.437598594E1,6.988899708E0,2.613999844E-1,-2.421200037E0
4.439598594E1,1.107919979E1,7.023999691E-1,1.998919868E1
4.442598438E1,1.337899923E0,-2.844499826E0,-1.121459961E1
4.444598594E1,-3.009500027E0,-2.320899963E0,-1.055700016E1
