"Time (s)","Acceleration x (m/s^2)","Acceleration y (m/s^2)","Acceleration z (m/s^2)"
0.000000000E0,-5.283916950E0,3.835894346E0,9.269467354E0
2.198125000E-2,-3.729400158E0,2.954138517E0,1.065229225E1
4.198593800E-2,-2.381636858E0,1.990433931E0,1.180619144E1
6.397968800E-2,-1.929640412E0,1.458346605E0,1.260099030E1
8.398437500E-2,-2.585536718E0,1.138165116E0,1.232325268E1
1.059796880E-1,-2.896639347E0,1.291346192E0,1.290348339E1
1.259796880E-1,-3.295024872E0,1.393080592E0,1.342320728E1
1.459796880E-1,-2.453012943E0,1.710063338E0,1.448042870E1
1.659812500E-1,-1.576313734E0,9.676213861E-1,1.271186066E1
1.879796880E-1,-1.178675056E0,-4.176445305E-1,1.142474747E1
2.079828130E-1,-7.446255088E-1,-1.012938857E0,1.101224613E1
2.299796880E-1,-2.444001138E-1,-9.411511421E-1,6.912682533E0
2.500062500E-1,9.395900965E-1,-1.531331427E-2,6.614719868E0
2.719796880E-1,3.022631705E-1,9.120184779E-1,8.345890999E0
2.919843750E-1,3.266361356E-1,8.124484420E-1,7.234961510E0
3.139796880E-1,5.131157041E-1,-1.036689281E-1,7.686067581E0
3.339796880E-1,1.307818413E0,2.372749597E-1,7.527389050E0
3.539796880E-1,6.009159088E-1,3.735433221E-1,7.620207310E0
3.739843750E-1,-8.937746286E-1,7.848767638E-1,4.590967655E0
3.959796880E-1,-1.264215112E0,7.267359495E-1,4.303175449E0
4.159796880E-1,-8.992429972E-1,9.331065416E-1,7.619412422E0
4.359796880E-1,-8.728110194E-1,1.151773810E0,7.576776981E0
4.559796880E-1,-4.599740356E-2,1.082025886E0,7.921311855E0
4.759796880E-1,8.266700059E-2,1.695650220E0,7.903844357E0
4.959796880E-1,-8.746018410E-1,2.342707157E0,6.957981110E0
5.159859380E-1,-1.170142055E0,1.871250629E0,5.830886841E0
5.379812500E-1,-1.438024521E0,1.460692883E0,8.447116852E0
5.599875000E-1,8.728780746E-1,7.753574252E-1,8.319563866E0
5.819796880E-1,1.362990379E0,1.394191533E-1,8.315694809E0
6.019796880E-1,1.687653542E0,-6.790913641E-2,7.769011974E0
6.219796880E-1,3.270862579E0,-8.968104720E-1,7.676768780E0
6.419796880E-1,5.591945171E0,-1.959270954E0,7.378067970E0
6.619796880E-1,7.881463051E0,-3.182870865E0,6.562334538E0
6.819796880E-1,8.548267365E0,-5.639982224E0,5.207627773E0
7.019796880E-1,6.339175701E0,-4.750297546E0,5.775005817E0
7.219812500E-1,6.338984489E0,-3.617504597E0,6.011868954E0
7.439796880E-1,9.412611961E0,-5.317081451E0,4.387173176E0
7.639796880E-1,1.033795261E1,-5.759396076E0,3.299219370E0
7.839796880E-1,9.628780365E0,-5.128705502E0,2.712113380E0
8.039796880E-1,9.881387711E0,-5.045780182E0,1.972190142E0
8.239796880E-1,1.107371902E1,-5.922919750E0,1.918914318E0
8.439812500E-1,1.159936142E1,-6.693957806E0,1.710791111E0
8.659796880E-1,1.161644650E1,-7.007771015E0,1.758713484E0
8.859796880E-1,1.161826515E1,-7.370425224E0,1.474196196E0
9.059796880E-1,1.052583027E1,-6.268642426E0,2.039917469E0
9.259796880E-1,1.007815266E1,-5.705191135E0,1.053008199E0
9.459796880E-1,9.866849899E0,-6.726049900E0,1.637269974E0
9.659796880E-1,1.029562283E1,-6.442279816E0,1.901656985E0
9.859796880E-1,1.133763695E1,-7.581239700E0,7.233170867E-1
1.005979688E0,1.185653687E1,-8.393477440E0,-4.923436344E-1
1.025979688E0,1.285409546E1,-9.568590164E0,-1.260585427E0
1.045979688E0,1.303732777E1,-1.004255581E1,-1.447764158E0
1.065979688E0,1.206617260E1,-9.860883713E0,-9.982672334E-1
1.085979688E0,1.147294712E1,-9.912895203E0,4.020247757E-1
1.105979688E0,1.233156586E1,-1.171552849E1,8.073152304E-1
1.125979688E0,1.156380272E1,-1.080381680E1,1.506163597E0
1.145979688E0,9.274677277E0,-7.489848137E0,2.821499825E0
1.165979688E0,7.903901577E0,-5.372952461E0,3.497612476E0
1.185979688E0,7.704541206E0,-4.427472591E0,3.498646975E0
1.205979688E0,7.843797207E0,-3.017153740E0,4.033511639E0
1.225979688E0,8.869923592E0,-2.194285870E0,3.783921003E0
1.245979688E0,1.089855957E1,-2.615033150E0,2.602784634E0
1.265979688E0,1.188146591E1,-2.648609638E0,1.475757241E0
1.285979688E0,1.089021778E1,-1.970543027E0,8.785666227E-1
1.305979688E0,8.724145889E0,-8.477197886E-1,1.030473948E0
1.325979688E0,7.203492165E0,-4.171369672E-1,1.400904894E0
1.345979688E0,6.571125984E0,-3.093117177E-1,1.556700349E0
1.365979688E0,6.746611118E0,-4.318469465E-1,1.902643323E0
1.385979688E0,7.465503693E0,-3.882916272E-1,1.981632829E0
1.405979688E0,8.718360901E0,-1.020121455E0,1.782732129E0
1.425979688E0,9.847092628E0,-1.747585297E0,1.217126012E0
1.445979688E0,1.098958683E1,-2.718261719E0,5.067471862E-1
1.465979688E0,1.139502144E1,-3.132650137E0,-3.685825467E-1
1.485979688E0,1.173802471E1,-3.282632589E0,-4.273745716E-1
1.505979688E0,1.220963383E1,-3.786516190E0,-6.634237170E-1
1.525979688E0,1.248400974E1,-4.322932243E0,-3.124912083E-1
1.545979688E0,1.287282848E1,-4.725742340E0,-1.123838276E-1
1.565979688E0,1.380439281E1,-5.907194614E0,-3.399287760E-1
1.585979688E0,1.411466217E1,-6.516270161E0,-4.604720175E-1
1.605979688E0,1.410576439E1,-6.303999901E0,2.379166037E-1
1.625979688E0,1.382912922E1,-6.451942444E0,-2.212721258E-1
1.645979688E0,1.323263741E1,-7.034853935E0,-1.076490641E0
1.665979688E0,1.223651600E1,-6.979844570E0,-1.056484580E0
1.685979688E0,1.201530075E1,-7.131072044E0,-1.037426710E0
1.705979688E0,1.154010963E1,-6.978417873E0,-1.957978129E0
1.725979688E0,1.041963291E1,-6.106535912E0,-2.262702703E0
1.745979688E0,8.782133102E0,-4.613703251E0,-2.028587818E0
1.766023438E0,7.571959972E0,-3.398942947E0,-1.176453233E0
1.787979688E0,6.911916733E0,-2.578804255E0,-7.588374615E-1
1.807979688E0,7.062234402E0,-2.580652475E0,-1.076279879E0
1.827979688E0,7.307438850E0,-2.859251499E0,-1.350186110E0
1.847979688E0,7.376784801E0,-3.183502913E0,-1.467367887E0
1.867996875E0,7.821684361E0,-3.833978653E0,-1.470087767E0
1.889992188E0,8.286054611E0,-4.261420250E0,-1.685087085E0
1.911979688E0,8.546476364E0,-4.533248425E0,-1.595706701E0
1.931979688E0,8.588145256E0,-4.863858700E0,-1.672474384E0
1.951979688E0,8.193216324E0,-5.085983276E0,-1.746091366E0
1.971979688E0,7.506434917E0,-5.255962372E0,-1.833278537E0
1.991979688E0,7.214783192E0,-5.690625191E0,-1.772676468E0
2.011979688E0,6.675819874E0,-5.903708935E0,-1.903505206E0
2.031981250E0,5.702270031E0,-5.493782997E0,-1.870407820E0
2.053982813E0,6.167281628E0,-5.542471886E0,-1.312798262E0
2.075981250E0,8.336859703E0,-7.520963192E0,-1.871451616E0
2.097979688E0,8.697961807E0,-8.054888725E0,-2.311036587E0
2.117979688E0,8.136924744E0,-7.110233307E0,-1.364081979E0
2.137979688E0,9.094145775E0,-7.405706406E0,-8.161354810E-2
2.157979688E0,1.116768646E1,-8.906028748E0,6.957550049E-1
2.177981250E0,1.241926098E1,-9.920633316E0,1.880463481E0
2.199979688E0,1.195174026E1,-8.613437653E0,3.040061474E0
2.219985938E0,1.152042961E1,-7.199919701E0,1.983806729E0
2.241981250E0,1.200602150E1,-6.397632122E0,7.860547304E-1
2.261981250E0,1.187772083E1,-4.873426437E0,4.893269241E-1
2.283979688E0,1.104230785E1,-3.608196020E0,1.108745217E0
2.303979688E0,9.494418144E0,-3.179614782E0,2.568604946E0
2.323979688E0,8.299031258E0,-2.898027897E0,4.520846844E0
2.343979688E0,8.103146553E0,-2.895586014E0,6.030122757E0
2.363979688E0,8.728799820E0,-3.327394485E0,6.634725571E0
2.383979688E0,8.822805405E0,-3.051544189E0,6.926866055E0
2.403979688E0,8.647396088E0,-2.466142654E0,6.584514141E0
2.423979688E0,9.097277641E0,-2.241873026E0,6.057933807E0
2.443979688E0,9.191389084E0,-1.790393591E0,5.807337284E0
2.463979688E0,9.915720940E0,-2.067919970E0,5.809444427E0
2.483979688E0,1.187772083E1,-3.210605145E0,5.445400715E0
2.503979688E0,1.391250515E1,-4.251451015E0,4.454239845E0
2.523979688E0,1.514347839E1,-4.848402023E0,3.585977793E0
2.543979688E0,1.528674793E1,-5.157234669E0,3.128809929E0
2.563979688E0,1.530272198E1,-6.011007309E0,2.839494467E0
2.583979688E0,1.415766239E1,-4.968839645E0,3.284988165E0
2.603979688E0,1.261775875E1,-3.784265518E0,3.787512302E0
2.623979688E0,1.191638279E1,-4.394729614E0,3.532070160E0
2.643979688E0,1.224347878E1,-5.623711586E0,3.275909662E0
2.663979688E0,1.329933071E1,-7.248799801E0,2.873798609E0
2.683979688E0,1.393416786E1,-8.420273781E0,1.689932823E0
2.703979688E0,1.311763000E1,-8.568397522E0,6.747435331E-1
2.723979688E0,1.119587135E1,-7.755432129E0,-1.888546348E-2
2.743979688E0,9.730284691E0,-6.856658459E0,-1.175744534E-1
2.764023438E0,8.769367218E0,-5.662277222E0,-4.242334068E-1
2.785979688E0,8.278947830E0,-4.628585339E0,-5.463759899E-1
2.805979688E0,7.784593582E0,-3.773328781E0,-4.170507789E-1
2.825979688E0,7.697665215E0,-3.861071587E0,1.107366160E-1
2.845979688E0,7.741957664E0,-4.524380207E0,7.038570046E-1
2.865979688E0,7.703104496E0,-5.089852333E0,9.322351217E-1
2.885979688E0,7.684056282E0,-5.679075241E0,4.822401106E-1
2.905979688E0,7.310187340E0,-6.204803944E0,-3.484425247E-1
2.925979688E0,6.110510349E0,-6.441915512E0,-6.504854560E-1
2.945979688E0,4.216141224E0,-6.013066292E0,-5.371152163E-1
2.965979688E0,3.588065624E0,-5.725608826E0,-1.063925743E0
2.985979688E0,4.428181171E0,-5.916895866E0,-4.161955357E0
3.005981250E0,5.823522091E0,-6.996173382E0,-6.353291988E0
3.027979688E0,7.820928097E0,-7.819213867E0,-5.910287857E0
3.047979688E0,9.221660614E0,-8.091711998E0,-3.786497116E0
3.067981250E0,1.067766094E1,-9.088457108E0,-2.630930901E0
3.089979688E0,1.146138859E1,-1.042838573E1,-3.159800291E0
3.109979688E0,9.013020515E0,-7.995503426E0,-2.378170252E0
3.129985938E0,7.594359875E0,-6.783894062E0,-6.010978222E-1
3.150004688E0,8.040657997E0,-7.318155289E0,1.193748936E-1
3.171979688E0,1.034142876E1,-8.202572823E0,4.378324449E-1
3.191979688E0,1.169297504E1,-8.327492714E0,-2.380028069E-1
3.211979688E0,1.226323509E1,-7.730072975E0,-9.698336124E-1
3.231979688E0,1.169619274E1,-6.513463974E0,-9.586479664E-1
3.251979688E0,1.010822392E1,-4.684198380E0,-5.240907669E-1
3.271979688E0,8.425741196E0,-2.663051605E0,-1.827350408E-1
3.291979688E0,7.550680161E0,-1.091468573E0,7.053317875E-2
3.311979688E0,7.557996750E0,-1.044733897E-1,4.754884541E-1
3.331979688E0,8.867835999E0,7.784699202E-1,-1.596645266E-1
3.351979688E0,1.011987877E1,5.878052115E-1,-6.314754486E-1
3.371981250E0,1.021376991E1,5.002923608E-1,-1.470260143E0
3.393979688E0,1.040573692E1,5.194555521E-1,-6.442030668E-1
3.413979688E0,1.161410904E1,1.771709183E-3,5.931778550E-1
3.433979688E0,1.282880306E1,-1.903390288E-1,1.690612912E0
3.453979688E0,1.399465561E1,-7.951431274E-1,2.377164602E0
3.473979688E0,1.499981785E1,-1.659555316E0,2.127487659E0
3.493981250E0,1.604660034E1,-3.271427631E0,1.062230706E0
3.513981250E0,1.635918808E1,-4.613933086E0,4.270872772E-1
3.535979688E0,1.536722183E1,-5.596657276E0,6.860920191E-1
3.555979688E0,1.306812763E1,-4.982946873E0,1.213601708E0
3.575981250E0,1.088130188E1,-4.371017456E0,1.530708909E0
3.597979688E0,1.033945560E1,-5.225258827E0,1.841208100E0
3.617981250E0,1.010908604E1,-5.029260159E0,2.653800249E0
3.639979688E0,1.113746166E1,-5.433248043E0,3.559019089E0
3.659981250E0,1.376037693E1,-8.093388557E0,2.128340006E0
3.679981250E0,1.594578552E1,-1.066009712E1,3.149333000E-1
3.701979688E0,1.586596298E1,-1.143735027E1,-1.388014555E0
3.721979688E0,1.413389206E1,-1.008248138E1,-8.156853914E-1
3.741979688E0,1.180920792E1,-8.256615639E0,4.080677405E-2
3.762020313E0,8.970891953E0,-5.102532387E0,1.003975034E0
3.783979688E0,7.307065487E0,-2.633583546E0,2.122938633E0
3.803979688E0,5.809204578E0,-1.527050495E0,1.926125765E0
3.823979688E0,4.417560577E0,-2.182564020E0,5.334185958E-1
3.843979688E0,2.747834921E0,-2.372682571E0,-9.202641249E-1
3.863979688E0,2.062863350E0,-2.431771517E0,-1.955124259E0
3.883979688E0,2.435841560E0,-2.640287399E0,-2.520471811E0
3.903979688E0,4.103805065E0,-3.345322371E0,-2.567321539E0
3.923981250E0,6.862644196E0,-5.088233948E0,-2.807517529E0
3.943981250E0,9.392578125E0,-6.649033070E0,-2.699328423E0
3.963981250E0,1.020403004E1,-7.926378250E0,-2.516200781E0
3.983981250E0,9.418444633E0,-8.413234711E0,-2.058706999E0
4.003981250E0,8.442530632E0,-9.027318001E0,-1.661269546E0
4.023981250E0,7.948989391E0,-9.264727592E0,-1.374367595E0
4.043981250E0,7.227415085E0,-8.593786240E0,-1.623498559E0
4.063981250E0,6.606387615E0,-7.302602768E0,-1.581063747E0
4.083981250E0,8.010683060E0,-9.089912415E0,-3.003640890E0
4.103981250E0,8.117866516E0,-8.663935661E0,-4.268670082E0
4.123998438E0,8.115471840E0,-7.923734665E0,-2.674984217E0
4.145981250E0,9.843559265E0,-8.447892189E0,-9.187892675E-1
4.165981250E0,1.187931061E1,-8.886357307E0,-4.388763011E-1
4.187981250E0,1.348559952E1,-8.895723343E0,-1.297274381E-1
4.207981250E0,1.362041187E1,-8.490738869E0,8.166143298E-2
4.227981250E0,1.103367901E1,-6.590241432E0,1.998679489E-1
4.247981250E0,8.624067307E0,-4.585844040E0,8.152927160E-1
4.267981250E0,7.661225319E0,-3.068916559E0,3.237726688E-1
4.287981250E0,6.793240547E0,-1.697182536E0,-7.034739256E-1
4.307981250E0,6.381141186E0,-5.038549304E-1,-1.316609859E0
4.327981250E0,6.661559582E0,1.398788393E-1,-1.964001894E0
4.347981250E0,6.994190693E0,-1.667130589E-1,-2.757574558E0
4.367981250E0,7.217359543E0,-5.012500882E-1,-3.276455641E0
4.387981250E0,7.986252308E0,-1.007978082E0,-2.499383688E0
4.407981250E0,9.451264381E0,-1.649978518E0,-7.626107335E-1
4.427981250E0,1.119504738E1,-2.078732252E0,2.905603349E-1
4.447981250E0,1.268986225E1,-2.645334244E0,3.470060229E-1
4.467981250E0,1.352980709E1,-3.087064505E0,-2.233407199E-1
4.489985938E0,1.431222153E1,-4.050749779E0,-1.053956270E0
4.511979688E0,1.531390858E1,-4.537271023E0,-1.066157222E0
4.531979688E0,1.537201118E1,-4.563606739E0,-9.685024619E-1
4.551981250E0,1.468238449E1,-4.307704926E0,2.485564351E-1
4.571985938E0,1.462949181E1,-6.658428192E0,1.821901202E0
4.593979688E0,1.345691681E1,-6.451482773E0,3.659872532E0
4.613979688E0,1.410264301E1,-6.590002060E0,4.966829300E0
4.633979688E0,1.600284386E1,-9.292346954E0,3.493609667E0
4.653982813E0,1.695589828E1,-1.244209194E1,2.064635038E0
4.675979688E0,1.633328247E1,-1.427968979E1,1.406162620E0
4.695979688E0,1.360204411E1,-1.321870422E1,1.467674375E0
4.715981250E0,9.915298462E0,-1.019347668E1,1.728661537E0
4.737978125E0,6.630023479E0,-6.837868690E0,1.762065411E0
4.757979688E0,4.850001335E0,-4.993308544E0,1.505406976E0
4.777979688E0,3.948507786E0,-4.343685150E0,1.064126849E0
4.797981250E0,3.578182459E0,-4.041986942E0,1.032523394E0
4.819985938E0,3.359227896E0,-4.241242409E0,5.500630736E-1
4.841979688E0,3.365452528E0,-4.904963017E0,9.928275645E-2
4.861979688E0,3.407044649E0,-5.935599804E0,-2.091383040E-1
4.881981250E0,3.598609686E0,-7.489943981E0,-5.413768888E-1
4.903979688E0,4.347793579E0,-9.163156509E0,4.578671232E-2
4.923981250E0,5.170661449E0,-1.060600662E1,4.908688068E-1
4.945979688E0,6.450745583E0,-1.157960415E1,9.301282167E-1
4.965979688E0,8.140831947E0,-1.416213417E1,-3.643209040E-1
4.985979688E0,8.992172241E0,-1.429459095E1,-1.731276035E0
5.005979688E0,7.946422577E0,-1.219945431E1,-2.897932053E0
5.025979688E0,5.552680492E0,-1.002857304E1,-5.117270947E-1
5.045979688E0,4.322884083E0,-1.044401550E1,-4.988366961E-1
5.065979688E0,2.450762272E0,-9.138170242E0,-8.790167570E-1
5.085979688E0,2.368823290E0,-8.928628922E0,-3.795958757E-1
5.105979688E0,3.627292156E0,-9.837774277E0,-1.404812217E0
5.125979688E0,6.741229057E0,-1.116072464E1,-1.987924814E0
5.145979688E0,9.176745415E0,-1.236718178E1,-1.866510034E0
5.165979688E0,1.077471161E1,-1.175627708E1,-1.248777390E0
5.185979688E0,1.010104084E1,-9.746287346E0,-1.347753525E0
5.205979688E0,8.779078484E0,-7.237633228E0,-6.602633595E-1
5.225979688E0,7.275117397E0,-5.406873703E0,-2.127487659E-1
5.245979688E0,5.068400383E0,-3.444403887E0,1.003342867E0
5.265979688E0,4.009377956E0,-1.602659464E0,9.987460375E-1
5.285979688E0,4.371496201E0,-1.066751003E0,1.125111938E0
5.305979688E0,5.388821125E0,-1.672723413E0,6.685472727E-1
5.325979688E0,6.410608768E0,-1.983155489E0,3.886459768E-1
5.345979688E0,7.604061127E0,-2.467962265E0,-2.309159636E-1
5.365979688E0,8.690291405E0,-2.977314234E0,-7.368395329E-1
5.385979688E0,1.049925518E1,-3.084670305E0,-9.686748385E-1
5.405979688E0,1.226821518E1,-3.461508036E0,-1.984189868E0
5.425979688E0,1.384698009E1,-3.912498951E0,-2.435295820E0
5.445979688E0,1.515823746E1,-4.418183327E0,-2.334796906E0
5.465979688E0,1.572644806E1,-5.095665455E0,-1.879639864E0
5.485979688E0,1.592394066E1,-5.922201633E0,-7.404690981E-1
5.505981250E0,1.506702709E1,-5.732619286E0,5.046210885E-1
5.525981250E0,1.344960022E1,-7.172090054E0,1.794080734E0
5.547979688E0,8.744467735E0,-6.471642017E0,4.067069054E0
5.567979688E0,7.154066563E0,-5.740136623E0,6.226667404E0
5.587979688E0,1.031739998E1,-9.257756233E0,4.652202129E0
5.607979688E0,1.368721962E1,-1.277851582E1,3.284231901E0
5.627979688E0,1.487861347E1,-1.488671494E1,2.423315287E0
5.647979688E0,1.251487541E1,-1.398969460E1,1.441012621E0
5.667979688E0,8.854495049E0,-1.219636059E1,1.620491445E-1
5.687979688E0,5.708111763E0,-9.866792679E0,-1.124575734E0
5.707979688E0,4.366123676E0,-7.224034309E0,-1.193959713E0
5.727979688E0,3.859711647E0,-5.182335854E0,3.769431263E-2
5.747979688E0,3.533180952E0,-3.914366484E0,9.969072938E-1
5.767979688E0,2.910592794E0,-3.717323780E0,7.036750317E-1
5.787982813E0,1.779495239E0,-3.642231941E0,9.004688263E-1
5.809979688E0,2.254399300E0,-4.669325352E0,1.065324023E-1
5.829982813E0,3.079881907E0,-5.920391560E0,-1.250721455E0
5.850006250E0,3.589731932E0,-7.465466022E0,-1.888354778E0
5.871981250E0,5.210089207E0,-1.014336109E1,-2.519792080E0
5.891981250E0,6.673195839E0,-1.178923988E1,-2.678910732E0
5.913979688E0,7.274370193E0,-1.334213829E1,-3.480326414E0
5.933979688E0,5.818101406E0,-1.353098392E1,-1.444488883E0
5.953979688E0,3.820542574E0,-1.356821918E1,1.599757671E0
5.973979688E0,1.576945662E0,-1.211170101E1,2.454870939E0
5.993979688E0,2.075887680E0,-1.166038513E1,1.230370760E0
6.013979688E0,4.580701828E0,-1.238088703E1,-2.028942257E-1
6.033979688E0,5.028005600E0,-1.081239605E1,-1.103535444E-1
6.053981250E0,5.599884987E0,-9.706323624E0,9.348208904E-1
6.073981250E0,7.632695675E0,-9.774088860E0,1.416706681E0
6.095979688E0,9.551044464E0,-9.979406357E0,2.306688786E0
6.115979688E0,1.109984493E1,-9.990994453E0,2.047549963E0
6.135979688E0,1.187366009E1,-9.340394020E0,1.264511943E0
6.155989063E0,1.200706577E1,-8.445748329E0,-2.493034303E-1
6.177981250E0,1.045643616E1,-6.945732594E0,-5.551674962E-1
6.199981250E0,7.915403366E0,-4.695182800E0,5.955241919E-1
6.219981250E0,6.586649895E0,-2.903458118E0,1.515903234E0
6.239981250E0,6.087210178E0,-1.273313165E0,1.819985986E0
6.261979688E0,6.549042225E0,-1.109501839E0,1.232784033E0
6.281979688E0,6.533967972E0,-1.491846204E0,3.447267413E-1
6.301979688E0,7.217253685E0,-2.963887691E0,-2.385582589E-2
6.321996875E0,8.150724411E0,-4.055997849E0,1.147531271E0
6.343979688E0,9.105857849E0,-5.086366653E0,2.238655329E0
6.363979688E0,9.420302391E0,-5.113420963E0,2.939581871E0
6.383979688E0,9.270425797E0,-4.941383362E0,2.087169170E0
6.403979688E0,9.124561310E0,-4.821328640E0,1.351306677E0
6.423979688E0,9.575417519E0,-5.528182983E0,1.781956434E0
6.443979688E0,1.044279003E1,-6.494712353E0,2.955143929E0
6.463979688E0,1.062325478E1,-6.119397640E0,3.691906929E0
6.483979688E0,1.185042667E1,-6.839812756E0,4.070688725E0
6.503979688E0,1.233767605E1,-7.829384327E0,4.375317574E0
6.523979688E0,1.187208939E1,-6.847158432E0,4.721604824E0
6.543979688E0,1.287740517E1,-6.892418385E0,3.262933016E0
6.563981250E0,1.510312176E1,-9.321929932E0,2.144562960E0
6.583982813E0,1.659342575E1,-1.136051559E1,2.646311045E0
6.605979688E0,1.865820503E1,-1.355300140E1,2.653082132E0
6.625979688E0,1.749649048E1,-1.280979252E1,7.093540430E-1
6.645979688E0,1.408417892E1,-1.085615349E1,-1.001561642E0
6.665979688E0,9.782362938E0,-8.521585464E0,-2.268582821E0
6.685979688E0,6.637876511E0,-6.509681225E0,-2.574944735E0
6.705979688E0,5.379838467E0,-5.287652016E0,-1.970868587E0
6.725981250E0,5.299134254E0,-5.027612686E0,-1.438378930E0
6.747979688E0,5.199631214E0,-5.469582558E0,-6.363404989E-1
6.767979688E0,4.752232075E0,-6.023371220E0,2.686198354E-1
6.787979688E0,4.634341240E0,-6.625101089E0,9.352039099E-1
6.807979688E0,4.772783756E0,-6.865995884E0,8.183285594E-1
6.827979688E0,5.407409668E0,-7.712240696E0,5.496034026E-1
6.847979688E0,6.375462532E0,-9.290555954E0,5.321639776E-1
6.867979688E0,6.708686829E0,-1.029346752E1,2.462580055E-1
6.887979688E0,6.211746693E0,-1.057605076E1,3.170880675E-2
6.907979688E0,5.543850422E0,-1.018311405E1,-2.832053304E-1
6.927979688E0,5.035887241E0,-9.093791008E0,3.512198329E-1
6.947979688E0,4.697749615E0,-7.601858616E0,1.716814995E0
6.967981250E0,6.013851643E0,-8.006669998E0,1.711882949E0
6.989979688E0,7.409671307E0,-9.574537277E0,-5.828253031E-1
7.009990625E0,5.449308395E0,-7.776252270E0,-1.634282112E0
7.031979688E0,5.458559513E0,-6.983254433E0,-1.002768278E0
7.051979688E0,7.292269230E0,-8.079587936E0,-8.604186177E-1
7.071979688E0,8.832584381E0,-9.444445610E0,-5.729228854E-1
7.091979688E0,9.048138618E0,-1.007053947E1,-5.177413225E-1
7.111979688E0,8.789315224E0,-9.801507950E0,-7.364947796E-1
7.131979688E0,8.800107956E0,-9.120069504E0,-5.756810308E-1
7.151979688E0,8.852426529E0,-8.238763809E0,-4.444021285E-1
7.171979688E0,8.310523033E0,-7.188408852E0,1.666364260E-2
7.191979688E0,8.160158157E0,-6.739735126E0,2.873808146E-1
7.211979688E0,7.829346180E0,-6.029519081E0,4.758619368E-1
7.231979688E0,8.320435524E0,-5.946095467E0,6.436859369E-1
7.251979688E0,9.310264587E0,-6.205914497E0,5.569200516E-1
7.271979688E0,1.026671982E1,-6.829450607E0,-9.125739336E-2
7.291979688E0,1.097507858E1,-7.651504993E0,-6.211708188E-1
7.311979688E0,1.130708694E1,-8.831971169E0,-1.293003082E0
7.331979688E0,1.128511715E1,-9.388105392E0,-1.170869946E0
7.351979688E0,1.189089870E1,-1.012780857E1,-6.865229607E-1
7.371979688E0,1.240501976E1,-1.056785393E1,-1.449353993E-1
7.391979688E0,1.228735924E1,-1.007179356E1,3.842980862E-1
7.411979688E0,1.215580273E1,-8.937890053E0,4.240801632E-1
7.431979688E0,1.217690086E1,-8.380491257E0,2.690604031E-1
7.451979688E0,1.224369812E1,-9.498908997E0,-1.825243682E-1
7.471979688E0,9.866074562E0,-8.849687576E0,1.879256815E-1
7.491979688E0,8.378164291E0,-7.774567127E0,1.641637087E0
7.511979688E0,8.274035454E0,-7.269026279E0,1.446538329E0
7.531979688E0,9.078640938E0,-8.134721756E0,2.066674978E-1
7.551979688E0,9.694199562E0,-9.229964256E0,-1.148670912E0
7.571998438E0,9.584602356E0,-1.029561329E1,-2.393809080E0
7.593979688E0,6.949103355E0,-1.094244003E1,-2.937790871E0
7.613979688E0,2.365959644E0,-9.415724754E0,-1.297829747E0
7.633979688E0,-1.168705583E0,-6.900797844E0,1.308718562E0
7.653981250E0,-2.338502884E0,-5.670341492E0,2.198882818E0
7.675979688E0,-2.462273598E0,-5.434225082E0,5.368087888E-1
7.695979688E0,-2.320354939E0,-5.259917259E0,-1.167767048E0
7.715979688E0,-1.019077539E0,-5.658293247E0,-1.775080323E0
7.735979688E0,2.325536013E-1,-6.450036526E0,-1.664813042E0
7.755979688E0,1.499794960E0,-7.281160355E0,-1.729159594E0
7.775979688E0,2.868330240E0,-8.811112404E0,-2.632290840E0
7.795979688E0,3.569505692E0,-9.999938011E0,-2.755352497E0
7.815979688E0,4.437653065E0,-1.186208248E1,-1.704652429E0
7.835979688E0,5.027919292E0,-1.348100281E1,-2.475029975E-1
7.855979688E0,5.042629242E0,-1.455988789E1,6.073898077E-1
7.875979688E0,4.335439682E0,-1.454793549E1,1.720549941E0
7.895979688E0,2.385917664E0,-1.253663349E1,2.634617805E0
7.915979688E0,2.466525555E0,-1.239621830E1,2.584090471E0
7.935979688E0,3.312780380E0,-1.272207928E1,1.849951744E-1
7.955979688E0,1.789282680E0,-9.059017181E0,9.307793975E-1
7.975979688E0,1.419627547E0,-7.513148308E0,2.562973976E0
7.995979688E0,2.736371279E0,-7.846354485E0,1.710561395E0
8.015979688E0,4.495429516E0,-9.322973251E0,-6.040570736E-1
8.035979688E0,5.815965652E0,-1.050625515E1,-3.803572416E0
8.055979688E0,5.847147942E0,-1.036356068E1,-6.141357422E0
8.075979688E0,4.566786766E0,-8.906401634E0,-5.469333649E0
8.095979688E0,2.685480118E0,-6.939277649E0,-3.416152239E0
8.115979688E0,1.426628232E0,-5.096680641E0,-2.062480211E0
8.135979688E0,1.537642598E0,-3.756416321E0,-1.248959184E0
8.155992188E0,2.176856041E0,-2.872764349E0,-9.109746218E-1
8.177982813E0,3.078752041E0,-2.540650129E0,-1.036852121E0
8.199979688E0,4.105060101E0,-2.878395557E0,-1.300156832E0
8.219979688E0,4.926673412E0,-3.369436741E0,-1.405156970E0
8.239985938E0,5.990570545E0,-4.294996738E0,-1.520289302E0
8.261981250E0,7.787792683E0,-5.817871571E0,-9.360945225E-1
8.283979688E0,9.820076942E0,-7.220127106E0,3.645028472E-1
8.303979688E0,1.134367943E1,-7.841824532E0,1.481225610E0
8.323979688E0,1.190767670E1,-8.327272415E0,1.946639180E0
8.343979688E0,1.187216568E1,-9.241887093E0,2.089228153E0
8.363979688E0,1.152459526E1,-9.787276268E0,2.150223017E0
8.383979688E0,1.098095798E1,-1.021985054E1,2.221474409E0
8.403979688E0,1.098373508E1,-1.094056320E1,2.121396780E0
8.423979688E0,1.111873913E1,-1.176316261E1,2.484529972E0
8.443979688E0,1.157256508E1,-1.249213982E1,2.356641293E0
8.463979688E0,1.207202435E1,-1.300012302E1,1.790901065E0
8.483979688E0,1.229777813E1,-1.375898838E1,1.682376862E0
8.503981250E0,1.196737862E1,-1.445231152E1,2.273811817E0
8.525979688E0,1.134525967E1,-1.511417389E1,2.672915459E0
8.545979688E0,1.029341984E1,-1.423552132E1,2.675233126E0
8.567979688E0,8.971973419E0,-1.244390106E1,2.341979504E0
8.587979688E0,7.559845448E0,-1.038109589E1,1.998986125E0
8.607979688E0,5.963056087E0,-8.366825104E0,1.552342892E0
8.627979688E0,4.653111935E0,-6.492289543E0,1.305673122E0
8.647979688E0,3.885751009E0,-5.637138367E0,1.304150343E0
8.667979688E0,3.240092278E0,-5.198090076E0,1.630700350E0
8.687979688E0,3.333724737E0,-5.840176105E0,1.165535688E0
8.707979688E0,2.769200802E0,-6.722659588E0,-3.257646561E-1
8.727979688E0,1.722340822E0,-7.153367043E0,-1.377853513E0
8.747979688E0,9.615976214E-1,-7.385355473E0,-1.956426740E0
8.767979688E0,1.076739550E0,-7.797579765E0,-2.263324976E0
8.787979688E0,1.439863324E0,-8.248168945E0,-2.901839495E0
8.807979688E0,2.797117233E0,-9.564050674E0,-2.093882561E0
8.827979688E0,4.074538708E0,-1.062604237E1,-8.226285577E-1
8.847979688E0,5.291472912E0,-1.011385441E1,1.223551989E0
8.867979688E0,6.807970047E0,-9.975230217E0,1.912622452E0
8.887979688E0,8.896116257E0,-1.109605312E1,9.712031484E-1
8.907979688E0,9.111163139E0,-1.160247326E1,-7.408713102E-1
8.927979688E0,7.627869129E0,-1.014696217E1,-7.864378095E-1
8.947979688E0,7.608246326E0,-9.767730713E0,-4.489511251E-1
8.967979688E0,9.036588669E0,-1.109247112E1,-6.000348330E-1
8.987979688E0,9.722996712E0,-1.254708195E1,-3.151631355E-1
9.007979688E0,1.023847771E1,-1.367026997E1,-3.155940771E-1
9.027979688E0,1.042570400E1,-1.359626961E1,-7.158184052E-1
9.047979688E0,1.024544048E1,-1.170097160E1,-5.810344219E-1
9.067979688E0,9.144452095E0,-9.208674431E0,3.421793282E-1
9.087979688E0,8.149843216E0,-7.359929085E0,1.111809850E0
9.107979688E0,7.117674351E0,-6.338333130E0,1.371504068E0
9.127979688E0,6.155655384E0,-5.647663116E0,1.245798945E0
9.147979688E0,5.693957329E0,-5.686947346E0,8.201577067E-1
9.167979688E0,5.965412140E0,-6.194422245E0,7.954112291E-1
9.187979688E0,6.605545044E0,-7.588125706E0,8.447988033E-1
9.207979688E0,6.868112087E0,-8.978591919E0,1.274510145E0
9.227979688E0,6.761790752E0,-1.007500172E1,1.687873960E0
9.247979688E0,6.861667156E0,-1.092634201E1,1.454285979E0
9.267979688E0,7.072232246E0,-1.169053268E1,7.552652955E-1
9.289985938E0,7.297009945E0,-1.216254520E1,8.942630887E-1
9.311979688E0,7.119925022E0,-1.197333622E1,1.623575211E0
9.331979688E0,6.729823112E0,-1.129751968E1,2.482183933E0
9.351979688E0,6.346415997E0,-1.040710640E1,2.862201214E0
9.371979688E0,6.452076435E0,-1.061614799E1,2.289584637E0
9.391979688E0,4.884123325E0,-1.006891155E1,1.287371874E0
9.411979688E0,3.389950275E0,-9.964055061E0,1.527031422E0
9.431979688E0,2.765418053E0,-9.542015076E0,1.534798265E0
9.451979688E0,3.685155392E0,-1.017978096E1,1.148843288E0
9.471979688E0,4.369303226E0,-1.089612675E1,1.346403360E0
9.491979688E0,3.866837025E0,-1.170907307E1,1.403308630E0
9.511979688E0,1.727665544E0,-1.100292778E1,2.073436022E0
9.531981250E0,-1.124910831E0,-9.017531395E0,2.639894724E0
9.551981250E0,-2.378390312E0,-6.978006363E0,2.861118793E0
9.571989063E0,-2.340035439E0,-5.528748035E0,1.707372308E0
9.593979688E0,-1.926623702E0,-4.331867695E0,1.779274940E-1
9.613979688E0,-1.441357255E0,-4.158354759E0,-1.291537762E0
9.633979688E0,-1.106944799E0,-4.363911629E0,-1.572272182E0
9.653979688E0,-3.922372758E-1,-5.282231331E0,-9.636662006E-1
9.673979688E0,6.774058342E-1,-6.989038467E0,1.099225953E-1
9.693981250E0,1.081824780E0,-8.297278404E0,1.613423824E0
9.713981250E0,1.965764046E0,-9.825142860E0,3.160968781E0
9.735979688E0,2.687481880E0,-1.157680798E1,3.833701134E0
9.755979688E0,2.081049919E0,-1.317372131E1,3.427414656E0
9.775979688E0,6.561932564E-1,-1.484404087E1,3.221733570E0
9.795981250E0,-1.881172061E0,-1.472110367E1,3.706540346E0
9.817979688E0,-3.527702808E0,-1.323059750E1,3.997196198E0
9.837979688E0,-2.734839201E0,-1.193184853E1,3.736314535E0
9.857979688E0,-6.875764132E-1,-1.254146099E1,1.723221898E0
9.877979688E0,-1.410778522E0,-9.860931396E0,1.942061543E0
9.897979688E0,-9.109458327E-1,-8.899928093E0,3.146699190E0
9.917979688E0,2.261658609E-1,-8.857416153E0,3.505159140E0
9.937979688E0,1.233521461E0,-9.667728424E0,2.367281199E0
9.957979688E0,2.528717518E0,-1.073203850E1,-8.449617028E-2
9.977979688E0,3.626727104E0,-1.089502525E1,-2.669439316E0
9.997979688E0,3.807125568E0,-9.681375504E0,-3.374023914E0
1.001798125E1,3.357245445E0,-8.455122948E0,-2.337516546E0
1.003997969E1,2.412809372E0,-6.626623631E0,-6.432262659E-1
1.005998750E1,1.653473973E0,-5.052799702E0,-6.381026655E-2
1.008197969E1,1.481340408E0,-3.859769344E0,1.646923572E-1
1.010197969E1,2.292783260E0,-3.324981213E0,1.363258511E-1
1.012197969E1,3.272864342E0,-3.414734840E0,-3.807067871E-1
1.014197969E1,4.058708191E0,-3.891171694E0,-2.497822791E-1
1.016197969E1,5.587683678E0,-5.648228168E0,3.415855467E-1
1.018197969E1,7.277243137E0,-7.909493923E0,8.176102638E-1
1.020197969E1,7.437262058E0,-9.083889008E0,1.670434594E0
1.022197969E1,7.548180580E0,-9.502778053E0,2.726689100E0
1.024197969E1,6.904829502E0,-9.052821159E0,2.713080645E0
1.026197969E1,6.753851414E0,-8.451148987E0,1.561651587E0
1.028197969E1,8.414738655E0,-8.100762367E0,3.749607205E-1
1.030197969E1,1.110109997E1,-8.262935638E0,5.764088631E-1
1.032199531E1,1.293423462E1,-8.781520844E0,1.466151595E0
1.034397969E1,1.326646328E1,-9.874673843E0,1.915323019E0
1.036397969E1,1.233412266E1,-1.111918068E1,2.851743221E0
1.038397969E1,1.224600697E1,-1.314717484E1,4.417761803E0
1.040397969E1,1.388168621E1,-1.631121826E1,4.643362999E0
1.042397969E1,1.525687790E1,-1.851400757E1,3.433927059E0
1.044397969E1,1.398232937E1,-1.941133499E1,1.591435432E0
1.046397969E1,1.034106445E1,-1.760470963E1,1.335907102E0
1.048397969E1,7.555612087E0,-1.431949997E1,1.983165145E0
1.050397969E1,6.223583698E0,-1.058133698E1,2.515721798E0
1.052397969E1,5.421037674E0,-7.254469395E0,1.846619010E0
1.054397969E1,4.481897354E0,-5.078772068E0,4.452832043E-1
1.056397969E1,4.027574062E0,-3.882322550E0,-7.476421595E-1
1.058397969E1,3.182152510E0,-4.079192638E0,-2.087265253E0
1.060397969E1,2.559870958E0,-5.034460545E0,-3.005326509E0
1.062397969E1,2.286960602E0,-6.630990505E0,-2.164894581E0
1.064397969E1,2.019049406E0,-8.228191376E0,-1.167556405E0
1.066397969E1,1.171463728E0,-9.208320618E0,-1.241728783E0
1.068397969E1,7.739304900E-1,-1.045031738E1,-1.072075725E0
1.070397969E1,9.707051516E-1,-1.268596458E1,-1.497372031E0
1.072397969E1,-3.190034255E-2,-1.307761860E1,-4.667352736E-1
1.074397969E1,-6.970000267E-1,-1.229748154E1,1.796273828E0
1.076397969E1,7.906898856E-1,-1.164417076E1,2.678345442E0
1.078397969E1,2.981010914E0,-1.072260475E1,3.262684107E0
1.080397969E1,6.109648228E0,-1.044976139E1,2.682846785E0
1.082397969E1,1.033325005E1,-1.346833324E1,3.822007775E-1
1.084397969E1,1.033368111E1,-1.258069611E1,-2.729552746E0
1.086397969E1,8.776865005E0,-1.079082966E1,-3.059971571E0
1.088397969E1,9.099115372E0,-1.203892708E1,-2.368181467E0
1.090397969E1,1.132773399E1,-1.431826496E1,-7.273967862E-1
1.092397969E1,1.383531570E1,-1.546490574E1,2.522435188E-1
1.094397969E1,1.532992935E1,-1.484886742E1,-3.348434865E-1
1.096398125E1,1.464029408E1,-1.254993629E1,-1.853112102E0
1.098597969E1,1.158079243E1,-9.397997856E0,-2.747978449E0
1.100597969E1,8.965528488E0,-7.332999706E0,-1.826909900E0
1.102598125E1,6.890713215E0,-5.653370857E0,-4.201345146E-1
1.104797969E1,5.840722084E0,-4.583239079E0,1.018541217E0
1.106799375E1,5.759319305E0,-3.973148823E0,1.500312090E0
1.108999062E1,6.039210796E0,-3.841439247E0,6.668139100E-1
1.111197969E1,6.469229221E0,-4.368977547E0,-7.576690912E-1
1.113197969E1,7.261958599E0,-5.409162521E0,-1.537431836E0
1.115197969E1,8.198445320E0,-6.074041843E0,-1.699442625E0
1.117198125E1,9.104556084E0,-6.101680756E0,-1.904654503E0
1.119397969E1,1.082185841E1,-6.574669361E0,-2.557151079E0
1.121397969E1,1.279649162E1,-7.950349331E0,-3.277528048E0
1.123397969E1,1.351734638E1,-8.583347321E0,-2.961828709E0
1.125398125E1,1.358877087E1,-8.193369865E0,-8.728014231E-1
1.127398125E1,1.380333900E1,-7.427608490E0,1.507964015E0
1.129597969E1,1.407952404E1,-6.807079792E0,3.039132595E0
1.131597969E1,1.376438999E1,-7.710842609E0,1.943411827E0
1.133597969E1,1.097183132E1,-6.591476440E0,1.706261396E0
1.135597969E1,9.528032303E0,-6.170211792E0,2.324137688E0
1.137598125E1,1.048597145E1,-7.876128674E0,3.118706226E0
1.139797969E1,1.226938343E1,-1.115298653E1,3.261668921E0
1.141797969E1,1.320457840E1,-1.429315472E1,3.036738396E0
1.143797969E1,1.301212215E1,-1.589490414E1,2.629791260E0
1.145797969E1,1.156909847E1,-1.571789551E1,2.012843609E0
1.147797969E1,9.107351303E0,-1.411714268E1,1.717820525E0
1.149797969E1,6.209754944E0,-1.146757507E1,1.235216498E0
1.151798125E1,4.076185703E0,-8.725514412E0,5.870582461E-1
1.153798125E1,2.847127199E0,-7.053605556E0,-5.524381399E-1
1.155997969E1,1.493704081E0,-5.838653088E0,-1.918282270E0
1.157997969E1,9.042612314E-1,-5.565015793E0,-2.320029259E0
1.159997969E1,7.303943634E-1,-5.474265575E0,-1.517339706E0
1.161997969E1,1.754384756E0,-6.141558170E0,-6.425175071E-1
1.163997969E1,4.052598000E0,-8.758966446E0,5.634418130E-1
1.165998281E1,5.259361744E0,-1.105065823E1,1.143480301E0
1.168197969E1,5.104849815E0,-1.188119698E1,-4.588822722E-1
1.170197969E1,4.504326820E0,-1.204662704E1,-1.890614867E0
1.172197969E1,3.825407505E0,-1.233699608E1,-2.764929533E0
1.174197969E1,3.321878195E0,-1.249294472E1,-2.852538109E0
1.176197969E1,1.932762504E0,-1.146185780E1,-2.232660055E0
1.178198125E1,1.463240385E0,-1.110317802E1,-4.033846855E-1
1.180198281E1,2.589779377E0,-1.241828346E1,1.263468117E-1
1.182199531E1,3.385190487E0,-1.206933403E1,4.203547537E-1
1.184397969E1,5.037687302E0,-1.196413326E1,1.218255997E0
1.186397969E1,7.629315376E0,-1.257891464E1,1.728460431E0
1.188397969E1,1.044889927E1,-1.360560608E1,1.302139282E0
1.190397969E1,1.183220196E1,-1.374175930E1,8.846575022E-1
1.192397969E1,1.112086582E1,-1.268898106E1,1.955679804E-1
1.194597969E1,9.237299919E0,-1.070420837E1,-8.925583959E-2
1.196597969E1,6.736690044E0,-7.917270660E0,2.289623022E-1
1.198597969E1,4.885694504E0,-5.474591255E0,8.131953478E-1
1.200597969E1,4.107846737E0,-3.584914684E0,1.265211105E0
1.202598125E1,4.125697613E0,-2.537853718E0,6.840904355E-1
1.204797969E1,4.448953629E0,-1.752814174E0,-5.727313757E-1
1.206797969E1,5.042438030E0,-1.687979221E0,-2.021098852E0
1.208797969E1,5.785004616E0,-2.751952887E0,-2.988490582E0
1.210797969E1,6.802492142E0,-4.727686405E0,-3.314274073E0
1.212797969E1,8.007311821E0,-6.942533493E0,-3.405723095E0
1.214797969E1,9.224821091E0,-8.386610031E0,-3.193606377E0
1.216797969E1,1.045351601E1,-8.890906334E0,-2.917622089E0
1.218798125E1,1.205301476E1,-9.491955757E0,-2.756137848E0
1.220998125E1,1.305823421E1,-9.898271561E0,-2.254868746E0
1.222998750E1,1.334053993E1,-9.874645233E0,-1.009002805E0
1.225000469E1,1.272228050E1,-8.987287521E0,5.958018899E-1
1.227197969E1,1.198016453E1,-8.248216629E0,1.784925342E0
1.229197969E1,1.177618790E1,-9.039155006E0,1.821451187E0
1.231197969E1,9.787678719E0,-8.555956841E0,1.476485014E0
1.233197969E1,8.503763199E0,-8.316154480E0,1.511038184E0
1.235197969E1,8.658304214E0,-9.021716118E0,1.517224789E0
1.237199531E1,1.011028290E1,-1.074001598E1,1.261246324E0
1.239397969E1,1.129729843E1,-1.313571072E1,1.184220076E0
1.241397969E1,1.072624397E1,-1.412617302E1,1.394526720E0
1.243397969E1,8.970719337E0,-1.360359573E1,1.773643851E0
1.245397969E1,6.782246590E0,-1.139210892E1,2.458203554E0
1.247397969E1,4.895156384E0,-8.954630852E0,2.466228724E0
1.249397969E1,3.410645723E0,-6.727850437E0,2.181634903E0
1.251397969E1,2.675587416E0,-5.137496948E0,2.039237261E0
1.253397969E1,2.573431730E0,-4.391463757E0,1.643954754E0
1.255398125E1,2.804012537E0,-4.401576996E0,1.121606946E0
1.257597969E1,2.973474026E0,-5.298099995E0,1.581705511E-1
1.259597969E1,2.925810337E0,-6.520158291E0,-1.133530021E0
1.261597969E1,3.307225943E0,-8.289109230E0,-2.530019999E0
1.263597969E1,3.506595612E0,-9.995044708E0,-2.747202873E0
1.265598125E1,3.183320999E0,-1.140244293E1,-2.296106339E0
1.267797969E1,2.310490608E0,-1.183971977E1,-1.917631149E0
1.269797969E1,1.782990694E0,-1.199004650E1,-1.979631305E0
1.271797969E1,1.068225741E0,-1.154279137E1,-1.778010726E0
1.273997969E1,4.376600683E-1,-1.074602890E1,-6.775399446E-1
1.275997969E1,1.933040142E0,-1.260247421E1,-1.951178610E-1
1.277999062E1,3.259810925E0,-1.415291119E1,-6.875189543E-1
1.280197969E1,3.857432365E0,-1.342799473E1,4.129902124E-1
1.282199531E1,5.287948608E0,-1.277701187E1,1.746081710E0
1.284397969E1,7.459556580E0,-1.302760887E1,1.727943182E0
1.286397969E1,9.136244774E0,-1.368494987E1,1.836563349E0
1.288397969E1,8.976896286E0,-1.334331703E1,1.951705337E0
1.290397969E1,7.490604877E0,-1.201134586E1,1.609066367E0
1.292397969E1,5.973255157E0,-1.007067299E1,1.504324794E0
1.294397969E1,5.026080608E0,-8.001115799E0,1.460740685E0
1.296397969E1,4.670991898E0,-6.223104954E0,1.618777275E0
1.298397969E1,4.896103859E0,-4.937083721E0,1.675165534E0
1.300397969E1,5.197486401E0,-4.116264820E0,1.320488453E0
1.302397969E1,5.555409431E0,-3.852404594E0,5.352190137E-1
1.304397969E1,5.779669762E0,-4.260845661E0,-6.032621861E-1
1.306397969E1,6.594589233E0,-5.468826294E0,-1.573019266E0
1.308397969E1,7.463761330E0,-6.989651203E0,-1.406277418E0
1.310397969E1,8.940993309E0,-8.156078339E0,-7.807970792E-2
1.312397969E1,1.027163315E1,-8.690071106E0,2.582290173E-1
1.314397969E1,1.131030464E1,-8.852887154E0,6.081655025E-1
1.316397969E1,1.196626759E1,-9.176610947E0,8.799361587E-1
1.318397969E1,1.211458397E1,-9.109784126E0,1.917621493E0
1.320397969E1,1.173295784E1,-8.288812637E0,2.987456083E0
1.322397969E1,1.145819950E1,-7.261853218E0,4.013189793E0
1.324397969E1,1.210223961E1,-8.026589394E0,3.361305952E0
1.326397969E1,1.156023026E1,-8.443516731E0,2.045969963E0
1.328397969E1,1.067062187E1,-8.623291969E0,1.862296224E0
1.330598125E1,1.098646450E1,-9.783513069E0,1.948363066E0
1.332797969E1,1.231253624E1,-1.238989830E1,2.515970707E0
1.334797969E1,1.311305237E1,-1.547909832E1,3.165383577E0
1.336797969E1,1.148268795E1,-1.675666428E1,3.830684423E0
1.338797969E1,8.797121048E0,-1.567866898E1,4.693832397E0
1.340797969E1,7.079922199E0,-1.374225807E1,5.103308201E0
1.342797969E1,5.943624973E0,-1.198880196E1,4.534129620E0
1.344797969E1,4.676220894E0,-1.055376530E1,3.206410646E0
1.346797969E1,3.204064369E0,-9.211958885E0,1.639903665E0
1.348797969E1,2.052357674E0,-8.511052132E0,2.239440531E-1
1.350997969E1,1.118427396E0,-8.329102516E0,-7.456406355E-1
1.352997969E1,5.845203996E-1,-8.756055832E0,-1.240876436E0
1.355000000E1,1.113504887E0,-1.002820015E1,-1.554947734E0
1.357197969E1,1.594030738E0,-1.089654827E1,-1.467042327E0
1.359197969E1,1.766078115E0,-1.113646698E1,-1.696387649E0
1.361197969E1,1.990951061E0,-1.167178154E1,-2.131433249E0
1.363197969E1,2.348664045E0,-1.262168598E1,-1.962507963E0
1.365197969E1,1.701472878E0,-1.291351986E1,-9.782899618E-1
1.367197969E1,4.854579270E-1,-1.278134918E1,6.023811176E-2
1.369197969E1,-1.258698821E0,-1.206824207E1,1.260413051E0
1.371197969E1,-7.408521771E-1,-1.373641586E1,1.681620240E0
1.373197969E1,3.984526396E-1,-1.488581562E1,1.254398942E0
1.375197969E1,1.188740373E0,-1.436887836E1,2.407570839E0
1.377197969E1,4.286626339E0,-1.406972790E1,4.513251781E0
1.379197969E1,8.613399506E0,-1.444229412E1,4.372242928E0
1.381197969E1,1.242056274E1,-1.450977230E1,2.156218052E0
1.383197969E1,1.375283146E1,-1.408390141E1,-5.902090669E-1
1.385197969E1,1.242271805E1,-1.241053581E1,-2.104982138E0
1.387197969E1,9.920470238E0,-9.912166595E0,-1.970236421E0
1.389197969E1,7.652711391E0,-7.514920235E0,-1.241920292E-1
1.391197969E1,6.109025955E0,-5.392230511E0,1.261179328E0
1.393197969E1,5.480097771E0,-4.067633629E0,1.948966384E0
1.395197969E1,5.454729080E0,-3.532041311E0,1.096525311E0
1.397198438E1,5.620723724E0,-3.605457067E0,-1.686763018E-1
1.399397969E1,6.634639263E0,-4.514966488E0,-1.334432244E0
1.401397969E1,7.229952812E0,-5.143846512E0,-1.868310571E0
1.403397969E1,7.666530609E0,-5.667822361E0,-1.981996775E0
1.405398125E1,9.270473480E0,-6.814233303E0,-1.683516502E0
1.407597812E1,1.094413567E1,-7.829805851E0,-1.596032381E0
1.409597969E1,1.161849594E1,-7.982019424E0,-1.048957229E0
1.411597969E1,1.214579487E1,-8.322465897E0,-2.289144099E-1
1.413597969E1,1.221498775E1,-8.284771919E0,1.022621036E0
1.415599063E1,1.212305927E1,-7.966993809E0,2.032935858E0
1.417797969E1,1.277222347E1,-8.402421951E0,2.928894043E0
1.419797969E1,1.333105850E1,-9.535320282E0,3.313977242E0
1.421797969E1,1.224039459E1,-9.102218628E0,2.939562559E0
1.423797969E1,1.136247921E1,-8.482378960E0,2.422367096E0
1.425797969E1,1.215591812E1,-9.443966866E0,1.650399923E0
1.427797969E1,1.322589588E1,-1.148065758E1,1.691934466E0
1.429797969E1,1.372592926E1,-1.414609241E1,1.734876871E0
1.431797969E1,1.187278938E1,-1.482067394E1,1.668088198E0
1.433797969E1,9.642657280E0,-1.385819530E1,1.665780187E0
1.435797969E1,7.852895737E0,-1.189954567E1,2.097397327E0
1.437797969E1,6.494731903E0,-9.935937881E0,2.593111992E0
1.439798125E1,5.427387238E0,-8.630446434E0,2.474790573E0
1.441997969E1,4.635844707E0,-7.831835747E0,2.412387848E0
1.443998125E1,4.095435143E0,-7.224819660E0,2.435123205E0
1.446198125E1,4.010191917E0,-7.261547089E0,1.750554085E0
1.448397969E1,4.279051304E0,-8.034988403E0,9.601227641E-1
1.450397969E1,4.555945873E0,-9.139616013E0,3.254869282E-1
1.452397969E1,4.587529659E0,-1.030542946E1,-2.411727309E-1
1.454397969E1,3.741255999E0,-1.044615173E1,-7.777228951E-1
1.456397969E1,3.510426521E0,-1.069592381E1,-1.753034472E0
1.458397969E1,3.647087336E0,-1.098957729E1,-2.469073296E0
1.460397969E1,4.009397030E0,-1.129593945E1,-3.016665459E0
1.462397969E1,4.248300076E0,-1.148418999E1,-3.257665873E0
1.464397969E1,3.715810537E0,-1.037140465E1,-1.935271502E0
1.466398125E1,3.708829165E0,-1.025053501E1,-1.293922365E-1
1.468597969E1,4.211056232E0,-1.096598053E1,1.072190523E0
1.470597969E1,3.727580547E0,-1.035893440E1,1.202990651E0
1.472598125E1,3.829659700E0,-9.401043892E0,1.981355071E0
1.474598125E1,6.187354565E0,-9.742170334E0,1.967277169E0
1.476797969E1,8.895436287E0,-1.069556904E1,1.320823550E0
1.478797969E1,1.051574612E1,-1.124922371E1,9.197182059E-1
1.480797969E1,1.029303741E1,-1.057141590E1,6.526114941E-1
1.482797969E1,9.031551361E0,-9.413905144E0,-9.791327268E-2
1.484797969E1,7.539312363E0,-8.034385681E0,-2.815581160E-3
1.486797969E1,6.312111855E0,-6.718493462E0,3.531160355E-1
1.488797969E1,5.537271500E0,-5.515991688E0,1.161695480E0
1.490797969E1,4.975553036E0,-4.721212387E0,1.704345942E0
1.492797969E1,5.054734230E0,-4.119587898E0,2.004780054E0
1.494797969E1,5.699933529E0,-4.261985302E0,1.190550327E0
1.496797969E1,6.408061504E0,-5.007520676E0,-3.276033998E-1
1.498797969E1,7.222301006E0,-5.923206806E0,-1.812927842E0
1.500797969E1,8.344271660E0,-6.910499573E0,-2.422692537E0
1.502798125E1,9.759972572E0,-7.585654736E0,-1.950699806E0
1.504798125E1,1.134268379E1,-7.976589203E0,-1.695659757E0
1.506997969E1,1.318580723E1,-8.485252380E0,-2.239325762E0
1.508999375E1,1.419288445E1,-8.651572227E0,-2.296834230E0
1.511197969E1,1.472790337E1,-8.423174858E0,-1.153344393E0
1.513197969E1,1.418320274E1,-7.681240559E0,7.424228191E-1
1.515197969E1,1.437986183E1,-7.841479778E0,2.278418303E0
1.517197969E1,1.422809887E1,-8.874875069E0,1.911195397E0
1.519197969E1,1.191713905E1,-7.860661983E0,2.125840425E0
1.521197969E1,1.046139717E1,-7.428662300E0,2.179135323E0
1.523197969E1,1.091845036E1,-8.653458595E0,1.975570798E0
1.525197969E1,1.245345879E1,-1.121681499E1,1.538753390E0
1.527197969E1,1.325177288E1,-1.373407936E1,1.395675898E0
1.529198125E1,1.249514771E1,-1.451830482E1,1.430142879E0
1.531397969E1,1.021938229E1,-1.332568645E1,1.830108643E0
1.533397969E1,8.017243385E0,-1.127612495E1,1.975005746E0
1.535397969E1,5.959838390E0,-9.149671555E0,1.668183923E0
1.537398125E1,4.666145802E0,-7.449568272E0,1.382239580E0
1.539597969E1,4.044697285E0,-6.448485374E0,6.404393911E-1
1.541597969E1,3.868417025E0,-6.349939823E0,5.915114880E-1
1.543597969E1,3.670387983E0,-6.296108723E0,6.210176349E-1
1.545598125E1,3.490267277E0,-6.876760483E0,2.216743529E-1
1.547798125E1,3.008486748E0,-7.315138817E0,9.739612229E-3
1.549998125E1,2.605954647E0,-7.923734665E0,-8.868506551E-1
1.551998750E1,2.769918919E0,-8.657577515E0,-1.397141218E0
1.554197969E1,3.151487827E0,-9.299463272E0,-1.788689017E0
1.556197969E1,3.458462715E0,-9.758717537E0,-2.115660191E0
1.558197969E1,3.481830120E0,-1.029249096E1,-2.180255890E0
1.560197969E1,3.317808151E0,-1.062659740E1,-1.483102679E0
1.562197969E1,2.757718086E0,-9.987670898E0,-2.951571941E-1
1.564197969E1,2.804615736E0,-9.736691475E0,5.938769579E-1
1.566197969E1,3.861196041E0,-1.093335152E1,7.778474092E-1
1.568197969E1,4.117231846E0,-1.041568756E1,1.050259590E0
1.570197969E1,5.316784859E0,-1.024631119E1,1.545677543E0
1.572198125E1,7.235181808E0,-1.080014801E1,1.358374238E0
1.574397969E1,9.730974197E0,-1.221175003E1,9.417448640E-1
1.576397969E1,1.067513275E1,-1.302379704E1,5.339453220E-1
1.578397969E1,9.945581436E0,-1.228807735E1,4.141873121E-1
1.580397969E1,8.349606514E0,-1.048707199E1,2.911732495E-1
1.582397969E1,7.300179482E0,-8.461309433E0,3.336751163E-1
1.584397969E1,6.446579456E0,-6.399567127E0,6.921924353E-1
1.586397969E1,5.974893093E0,-4.983320236E0,9.303005934E-1
1.588397969E1,5.537721634E0,-4.091566086E0,8.894554973E-1
1.590397969E1,5.336761951E0,-3.873100042E0,6.113450527E-1
1.592397969E1,5.106171608E0,-4.066733837E0,5.665638670E-2
1.594397969E1,5.235927582E0,-4.647384644E0,-7.547481656E-1
1.596397969E1,5.968783379E0,-5.566193581E0,-1.447754622E0
1.598397969E1,7.170317650E0,-6.895502090E0,-1.863819003E0
1.600397969E1,8.394003868E0,-7.704148293E0,-1.729858637E0
1.602397969E1,9.620926857E0,-8.430050850E0,-1.328370094E0
1.604397969E1,1.085708237E1,-8.961477280E0,-1.036267996E0
1.606397969E1,1.202411270E1,-9.523530960E0,-6.517687440E-1
1.608397969E1,1.244572163E1,-9.219275475E0,-1.144045368E-1
1.610397969E1,1.166344929E1,-7.856994152E0,9.978554249E-1
1.612397969E1,1.197429276E1,-7.906055927E0,1.715512514E0
1.614397969E1,1.204071808E1,-9.045648575E0,1.428102970E0
1.616397969E1,1.037793541E1,-8.989508629E0,1.201333761E0
1.618397969E1,9.747063637E0,-8.938818932E0,1.232266903E0
1.620397969E1,1.118884182E1,-1.044979954E1,8.609549403E-1
1.622397969E1,1.289577389E1,-1.314179230E1,6.975171566E-1
1.624397969E1,1.314489555E1,-1.561971474E1,7.883244157E-1
1.626397969E1,1.073894215E1,-1.526180077E1,1.431713462E0
1.628397969E1,7.491801739E0,-1.284738159E1,2.011809349E0
1.630397969E1,5.184500217E0,-1.013774872E1,2.474800110E0
1.632397969E1,3.593371153E0,-8.215338707E0,2.324290991E0
1.634397969E1,2.842731476E0,-7.022921562E0,1.629225612E0
1.636397969E1,2.622598886E0,-6.527781487E0,7.168623209E-1
1.638397969E1,2.592125416E0,-6.343581200E0,5.772899091E-2
1.640397969E1,2.359428167E0,-6.071312428E0,-4.727399349E-1
1.642397969E1,2.351422071E0,-6.460446835E0,-1.325631261E0
1.644397969E1,2.420451641E0,-7.213834763E0,-1.652956963E0
1.646397969E1,2.274558544E0,-7.759090424E0,-1.748581290E0
1.648397969E1,2.243079662E0,-7.901603222E0,-1.270009041E0
1.650397969E1,3.018092394E0,-8.260101318E0,-8.050838709E-1
1.652397969E1,3.997742176E0,-9.276544571E0,-7.476612926E-1
1.654397969E1,4.491599083E0,-9.626070023E0,-9.242672324E-1
1.656397969E1,4.366976261E0,-9.264372826E0,-8.938034177E-1
1.658397969E1,3.526170731E0,-8.068622589E0,-1.324280798E-1
1.660398125E1,4.687942982E0,-9.213740349E0,4.846055806E-1
1.662398125E1,5.641084194E0,-1.088614750E1,-1.000105888E-1
1.664597969E1,5.606397152E0,-1.159820175E1,-2.729389966E-1
1.666597969E1,6.524228573E0,-1.243533993E1,5.176264048E-2
1.668597969E1,7.633548260E0,-1.251387882E1,5.493256450E-1
1.670597969E1,9.494733810E0,-1.254301167E1,1.544786811E0
1.672597969E1,1.093168545E1,-1.237406731E1,1.141871452E0
1.674597969E1,1.012276173E1,-1.090779114E1,2.009788603E-1
1.676597969E1,8.125317574E0,-9.123814583E0,-5.583661795E-1
1.678597969E1,6.127192974E0,-7.150579929E0,-9.858939648E-1
1.680598125E1,4.834419727E0,-5.272731304E0,-8.798403740E-1
1.682797969E1,4.353606701E0,-3.875551701E0,-2.760418653E-1
1.684797969E1,4.162415504E0,-3.141843796E0,1.679771841E-1
1.686797969E1,4.090742588E0,-2.920868635E0,2.634771168E-1
1.688797969E1,3.776929617E0,-2.892693520E0,-2.184661031E-1
1.690797969E1,3.617035389E0,-3.178456068E0,-8.904132247E-1
1.692797969E1,3.937542439E0,-3.890520334E0,-1.437478781E0
1.694797969E1,5.119416237E0,-5.261612892E0,-1.557294130E0
1.696798125E1,5.360904694E0,-6.127336979E0,-2.240589619E0
1.698999375E1,5.262254238E0,-7.491351604E0,-2.735691309E0
1.701197969E1,5.928981781E0,-9.609798431E0,-1.810083508E0
1.703197969E1,6.716367722E0,-1.133432293E1,2.429635823E-2
1.705197969E1,8.090783119E0,-1.258946037E1,1.539327979E0
1.707197969E1,9.008643150E0,-1.273004723E1,2.407954216E0
1.709197969E1,1.060447502E1,-1.320437717E1,2.609267950E0
1.711197969E1,1.131770706E1,-1.250868893E1,2.074978113E0
1.713197969E1,1.050320053E1,-1.001796246E1,2.614563942E0
1.715197969E1,9.675045967E0,-8.229349136E0,2.290801048E0
1.717199531E1,9.543844223E0,-8.237251282E0,1.091717601E0
1.719397969E1,9.394818306E0,-9.260666847E0,-4.992197752E-1
1.721397969E1,8.881549835E0,-1.007528877E1,-2.092810154E0
1.723397969E1,7.727439404E0,-9.928745270E0,-2.776699543E0
1.725397969E1,5.758639336E0,-8.908758163E0,-1.454985142E0
1.727397969E1,2.916539907E0,-7.218843937E0,-1.843343824E-1
1.729397969E1,8.218240738E-1,-5.742895126E0,4.455705285E-1
1.731397969E1,9.256941080E-2,-5.034134865E0,2.905124128E-1
1.733397969E1,5.511451960E-1,-5.178629398E0,-6.825965047E-1
1.735397969E1,1.691379070E0,-5.997685909E0,-1.503817320E0
1.737397969E1,2.556250811E0,-6.923628807E0,-2.059597731E0
1.739397969E1,3.501788139E0,-7.783262253E0,-2.345714331E0
1.741397969E1,4.217568398E0,-8.738040924E0,-2.597862005E0
1.743397969E1,4.033626556E0,-9.317399025E0,-2.915764093E0
1.745398594E1,3.954799891E0,-9.876263618E0,-2.776670694E0
1.747597969E1,4.324512482E0,-1.044958878E1,-1.985329509E0
1.749597969E1,4.712985992E0,-1.114877224E1,-1.164108753E0
1.751598125E1,4.468566895E0,-1.134700298E1,-3.411162794E-1
1.753797969E1,3.861243963E0,-1.081615162E1,7.207505405E-2
1.755797969E1,5.455954552E0,-1.168425941E1,-6.741401553E-1
1.757797969E1,6.706446171E0,-1.117775154E1,-1.197119951E0
1.759797969E1,6.670370579E0,-9.230193138E0,-3.815782666E-1
1.761797969E1,6.381246567E0,-8.083016396E0,8.615965843E-1
1.763797969E1,5.980131626E0,-7.704320908E0,1.698542476E0
1.765797969E1,5.636161804E0,-7.138015747E0,2.174768209E0
1.767797969E1,6.081367970E0,-6.898528099E0,6.572467089E-1
1.769797969E1,6.811628342E0,-6.519037724E0,-1.187782645E0
1.771797969E1,6.999305248E0,-5.726729393E0,-2.957873344E0
1.773797969E1,6.273402214E0,-4.890674114E0,-3.811636209E0
1.775797969E1,5.634523869E0,-4.667582512E0,-3.331254005E0
1.777797969E1,4.810880184E0,-4.525050640E0,-1.934438348E0
1.779797969E1,4.345667362E0,-4.818139076E0,-5.939535499E-1
1.781797969E1,4.277164459E0,-5.605037212E0,4.566508830E-1
1.783798125E1,4.226886749E0,-6.417628765E0,8.155512810E-1
1.785998125E1,4.747654438E0,-7.317819595E0,6.216688156E-1
1.787998125E1,5.496378422E0,-7.676136017E0,3.748936653E-1
1.790197969E1,6.360809803E0,-7.792599678E0,2.387497947E-2
1.792197969E1,6.765649796E0,-7.356308937E0,-4.200674891E-1
1.794197969E1,7.030323982E0,-7.264831543E0,-9.092507958E-1
1.796197969E1,7.447796345E0,-7.870104790E0,-1.176261663E0
1.798197969E1,7.491878510E0,-8.391274452E0,-4.313393831E-1
1.800197969E1,7.205062389E0,-8.399003029E0,-1.009299681E-1
1.802197969E1,7.750950336E0,-9.531747818E0,-3.644645512E-1
1.804197969E1,7.805116653E0,-1.075300217E1,-1.910955906E-1
1.806197969E1,6.744102001E0,-1.007824802E1,1.008964419E0
1.808197969E1,7.038569927E0,-1.018273163E1,1.524397850E0
1.810197969E1,7.262083054E0,-1.045473099E1,1.517071486E0
1.812197969E1,7.278957367E0,-1.065947437E1,1.378102541E0
1.814197969E1,6.984940052E0,-1.036311054E1,1.231720924E0
1.816197969E1,6.302170753E0,-9.235566139E0,1.719103932E0
1.818197969E1,5.675110340E0,-8.009274483E0,2.003965855E0
1.820197969E1,5.103815556E0,-6.947877407E0,2.084755898E0
1.822197969E1,4.583421230E0,-6.241109371E0,2.295924664E0
1.824197969E1,3.436110258E0,-5.327970028E0,2.524436712E0
1.826197969E1,2.791390181E0,-4.749272346E0,2.606375694E0
1.828197969E1,3.213516712E0,-5.001832008E0,1.808283091E0
1.830197969E1,4.330143452E0,-5.745413780E0,1.399602413E0
1.832199688E1,5.367148876E0,-6.830389023E0,8.737208247E-1
1.834397969E1,5.753170967E0,-7.702625275E0,5.151364580E-2
1.836397969E1,6.147620678E0,-8.916687965E0,-9.135603309E-1
1.838397969E1,6.252840996E0,-9.495480537E0,-1.626572728E0
1.840397969E1,6.238197803E0,-9.995840073E0,-2.340226889E0
1.842397969E1,5.947254181E0,-1.037555122E1,-2.620319605E0
1.844397969E1,5.748411179E0,-1.148614407E1,-2.436157703E0
1.846398125E1,4.980207443E0,-1.229197598E1,-1.899109483E0
1.848597969E1,3.422549486E0,-1.174074459E1,-1.087484717E0
1.850597969E1,3.742386341E0,-1.284687519E1,-9.956814647E-1
1.852597969E1,2.666154385E0,-1.279982281E1,-1.378830314E0
1.854597969E1,9.408542514E-1,-1.110430717E1,7.361691445E-2
1.856597969E1,1.259484172E0,-9.356539726E0,1.993010163E0
1.858598125E1,3.651042700E0,-8.323135376E0,3.142351389E0
1.860797969E1,7.645653248E0,-9.300372124E0,3.460454702E0
1.862797969E1,1.023306751E1,-9.620581627E0,2.727465153E0
1.864797969E1,1.084000683E1,-8.996519089E0,-1.499823779E-1
1.866797969E1,9.422955513E0,-7.876684189E0,-3.260960102E0
1.868797969E1,6.983991623E0,-6.242583752E0,-3.577291727E0
1.870797969E1,5.145283222E0,-4.808811665E0,-1.435563326E0
1.872797969E1,4.275450706E0,-3.706961632E0,4.064301252E-1
1.874797969E1,4.182871819E0,-2.973273039E0,1.373984456E0
1.876797969E1,4.576114178E0,-2.768300533E0,1.203833342E0
1.878797969E1,5.112224102E0,-3.020084143E0,6.532818675E-1
1.880797969E1,5.157215595E0,-3.624505281E0,3.495534416E-3
1.882797969E1,5.482521057E0,-4.401998520E0,-4.158632457E-1
1.884797969E1,6.386168957E0,-5.284539700E0,-7.728195786E-1
1.886797969E1,6.697243214E0,-6.076780796E0,-1.502888322E0
1.888797969E1,5.865746021E0,-6.169560909E0,-1.539577007E0
1.890797969E1,6.192228794E0,-6.153931618E0,-3.469485343E-1
1.892797969E1,8.394406319E0,-6.584169388E0,6.706446409E-1
1.894797969E1,1.044126701E1,-7.089365005E0,7.812662721E-1
1.896797969E1,1.162736416E1,-7.117051601E0,7.322139144E-1
1.898798125E1,1.257903957E1,-7.303378582E0,9.967731833E-1
1.900798125E1,1.363303375E1,-9.160004616E0,6.793690920E-1
1.902997969E1,1.330830479E1,-9.917396545E0,8.391293883E-1
1.905000469E1,1.248053360E1,-9.369516373E0,1.267567039E0
1.907198125E1,1.318412209E1,-1.030826378E1,6.046125293E-1
1.909397969E1,1.362959671E1,-1.197531796E1,-2.512954175E-2
1.911397969E1,1.244322205E1,-1.262110138E1,5.414438844E-1
1.913397969E1,1.006921768E1,-1.207986832E1,1.066386938E0
1.915398125E1,7.120576382E0,-1.004138756E1,1.507964015E0
1.917598125E1,4.952339172E0,-7.704981327E0,1.546338201E0
1.919797969E1,3.705821991E0,-6.092975140E0,8.529774547E-1
1.921797969E1,2.554344893E0,-4.710486412E0,-2.412014604E-1
1.923797969E1,1.684646487E0,-3.668520212E0,-7.309114933E-1
1.925798125E1,1.572032809E0,-3.179289103E0,-5.581171513E-1
1.927997969E1,1.809202552E0,-3.141968250E0,-2.656223178E-1
1.929997969E1,2.736064911E0,-3.740432501E0,-4.863868654E-1
1.931997969E1,4.555716038E0,-5.547643185E0,-5.090647340E-1
1.933997969E1,5.852913380E0,-7.103031158E0,-7.290056944E-1
1.935998125E1,6.488880157E0,-8.008796692E0,-1.552591920E0
1.938197969E1,6.706283569E0,-8.523502350E0,-2.094122171E0
1.940197969E1,6.691621780E0,-8.880218506E0,-2.245694160E0
1.942197969E1,6.859704018E0,-9.615496635E0,-1.558634877E0
1.944197969E1,6.779038429E0,-1.045221329E1,-6.083858013E-1
1.946198125E1,5.988951683E0,-1.034252071E1,1.229087338E-1
1.948398125E1,6.045062542E0,-1.066401386E1,4.920275807E-1
1.950597969E1,7.203520775E0,-1.202262783E1,1.989102811E-1
1.952597969E1,6.927009583E0,-1.131437492E1,5.973437428E-1
1.954597969E1,5.700230598E0,-9.078266144E0,1.861415148E0
1.956597969E1,5.951592922E0,-7.978476048E0,2.407858133E0
1.958598125E1,7.505400658E0,-8.681087494E0,2.419714451E0
1.960797969E1,9.545184135E0,-9.584285736E0,2.387890577E0
1.962797969E1,1.049194717E1,-9.423903465E0,1.652458906E0
1.964797969E1,9.983313560E0,-8.180393219E0,2.935674489E-1
1.966798906E1,8.498266220E0,-6.407678604E0,-5.130295157E-1
1.968998125E1,6.517821312E0,-4.694071770E0,-4.813015759E-1
1.970998438E1,5.052320957E0,-3.700191021E0,8.983044885E-3
1.973003125E1,4.127364159E0,-2.931853294E0,2.769421041E-1
1.975198125E1,4.052272320E0,-2.497286320E0,2.326014936E-1
1.977198281E1,4.772697449E0,-2.870734215E0,3.942867219E-1
1.979397969E1,5.291501999E0,-3.546894789E0,3.990750909E-1
1.981397969E1,5.328688622E0,-4.456145287E0,2.790010870E-1
1.983397969E1,5.107186317E0,-5.035322189E0,-6.073610857E-2
1.985398125E1,5.598917484E0,-5.522216797E0,-3.825455606E-1
1.987399219E1,7.086338997E0,-5.928828716E0,-9.905961752E-1
1.989597969E1,8.772336006E0,-6.570072651E0,-1.648810029E0
1.991597969E1,1.017094231E1,-7.322120190E0,-1.687251329E0
1.993597969E1,1.154581738E1,-8.151212692E0,-1.397801995E0
1.995597969E1,1.185846233E1,-7.847819805E0,-1.139371872E0
1.997597969E1,1.288799667E1,-8.078697205E0,-6.222721338E-1
1.999597969E1,1.379502678E1,-8.513675690E0,-2.447544485E-1
2.001598125E1,1.380265903E1,-8.035812378E0,4.613530934E-1
2.003797969E1,1.293917561E1,-6.590135574E0,1.376388311E0
2.005798125E1,1.284587860E1,-6.902713299E0,9.165099859E-1
2.007998125E1,1.383848572E1,-9.393009186E0,8.426632285E-1
2.009999219E1,1.439549255E1,-1.210787964E1,7.125719190E-1
2.012198125E1,1.219320011E1,-1.259056091E1,1.143901706E0
2.014198125E1,9.181907654E0,-1.158133793E1,1.647919416E0
2.016198125E1,6.165672779E0,-9.223212242E0,2.095443487E0
2.018198125E1,4.077833176E0,-6.967040539E0,2.004281998E0
2.020198125E1,3.362330675E0,-5.384090424E0,1.565606833E0
2.022397969E1,3.198873758E0,-4.131577969E0,1.099551558E0
2.024399063E1,3.543092966E0,-3.794924498E0,8.724279404E-1
2.026597969E1,4.174989700E0,-4.190820217E0,2.803610265E-1
2.028597969E1,4.422282219E0,-4.793526649E0,-1.864604466E-2
2.030597969E1,5.224789619E0,-6.373048782E0,-5.094765425E-1
2.032597969E1,6.676212311E0,-8.740014076E0,-1.678392768E0
2.034597969E1,7.370933056E0,-1.045514393E1,-3.691284418E0
2.036597969E1,6.144977093E0,-1.005736160E1,-5.462380886E0
2.038597969E1,4.396118164E0,-9.868602753E0,-6.654932499E0
2.040597969E1,2.360759497E0,-9.181112289E0,-6.063152790E0
2.042597969E1,1.219462633E0,-8.945743561E0,-3.645478487E0
2.044597969E1,1.632835984E0,-9.070365906E0,-1.305682778E0
2.046597969E1,3.262789249E0,-9.492177010E0,6.777027845E-1
2.048598125E1,6.385805130E0,-1.162634850E1,1.520701170E0
2.050598125E1,7.657346725E0,-1.185885429E1,1.513173819E0
2.052598125E1,7.584160805E0,-1.077887821E1,1.132045627E0
2.054598125E1,8.090170860E0,-1.026556110E1,9.395517707E-1
2.056797969E1,9.494819641E0,-1.056657887E1,8.705891967E-1
2.058797969E1,1.154904461E1,-1.141753578E1,7.382664680E-1
2.060797969E1,1.190314770E1,-1.042608833E1,4.439424574E-1
2.062798125E1,1.113270283E1,-8.774873734E0,-4.137563407E-1
2.065000781E1,9.273835182E0,-6.811283588E0,-1.053496599E0
2.067198125E1,7.216947556E0,-5.172461987E0,-4.860420823E-1
2.069397969E1,6.485183716E0,-4.659920692E0,5.731144547E-1
2.071397969E1,6.662766457E0,-4.054379463E0,1.430190802E0
2.073397969E1,6.268096447E0,-3.349488258E0,2.254006863E0
2.075397969E1,5.172806740E0,-2.722906590E0,2.460635900E0
2.077397969E1,4.241405010E0,-3.421525002E0,2.237640142E0
2.079397969E1,4.059694767E0,-4.177757263E0,7.608198524E-1
2.081397969E1,3.719382763E0,-4.234586239E0,3.156994283E-1
2.083397969E1,4.674276352E0,-4.552066803E0,2.306861281E-1
2.085398594E1,5.807969093E0,-4.706176758E0,-7.896076888E-2
2.087597969E1,6.740472794E0,-4.297065258E0,-4.730463922E-1
2.089597969E1,7.485059738E0,-4.414898396E0,-1.035578370E0
2.091597969E1,8.320569038E0,-4.870821476E0,-1.493464708E0
2.093597969E1,9.388306618E0,-5.347784519E0,-1.593590260E0
2.095597969E1,1.016061783E1,-5.234031200E0,-1.227047443E0
2.097597969E1,1.270575142E1,-7.526335716E0,-1.289038181E0
2.099597969E1,1.403685951E1,-8.982164383E0,-5.113344193E-1
2.101598125E1,1.392667866E1,-7.686872005E0,1.337544680E0
2.103598125E1,1.658724022E1,-8.841576576E0,2.108429670E0
2.105797969E1,1.929927826E1,-1.185776234E1,1.637662768E0
2.107797969E1,1.870582008E1,-1.374606895E1,1.287161112E0
2.109797969E1,1.724116325E1,-1.359674835E1,1.102520227E0
2.111797969E1,1.640985870E1,-1.180020618E1,1.576294541E0
2.113797969E1,1.604910088E1,-9.708717346E0,2.414504528E0
2.115797969E1,1.606793785E1,-8.163969040E0,2.219348431E0
2.117797969E1,1.701358032E1,-7.997926712E0,2.105930090E0
2.119797969E1,1.602017784E1,-8.705231667E0,2.091325760E0
2.121797969E1,1.409511566E1,-9.090573311E0,1.657458067E0
2.123797969E1,1.133570194E1,-8.501972198E0,2.659287751E-1
2.125797969E1,1.013393784E1,-7.553734779E0,1.214339025E-2
2.127797969E1,9.655058861E0,-6.623961449E0,1.459888518E-1
2.129797969E1,9.936329842E0,-6.234204292E0,-3.852749243E-2
2.131797969E1,1.010289955E1,-5.258021355E0,-1.928768903E-1
2.133797969E1,9.781578064E0,-4.048154354E0,-9.835380130E-3
2.135797969E1,9.822787285E0,-2.707391977E0,-1.241632998E-1
2.137797969E1,1.002204227E1,-3.241940737E-1,-1.062297702E0
2.139797969E1,1.082363129E1,-7.119685411E-1,-2.002290010E0
2.141797969E1,8.886176109E0,2.183512002E-1,1.428074241E0
2.143798125E1,7.016170025E0,2.713712692E0,5.098088264E0
2.145798125E1,6.441887379E0,3.413154840E0,3.845949888E0
2.147798125E1,6.153203487E0,3.756626844E0,5.144842625E0
2.149998125E1,4.487222195E0,4.120862007E0,6.521767139E0
2.151998125E1,2.585010052E0,5.842790604E0,5.918840408E0
2.153998125E1,2.744473457E0,6.470387459E0,5.328343868E0
2.156197969E1,5.101670265E0,6.663264751E0,5.176292896E0
2.158198125E1,5.480327606E0,7.571356297E0,4.146814823E0
2.160397969E1,1.870455742E0,7.645462036E0,2.003946781E0
2.162398125E1,-4.192093849E0,9.032978058E0,3.645354033E0
2.164398125E1,-8.947793007E0,1.068525505E1,3.603235245E0
2.166597969E1,-8.245611191E0,8.150648117E0,2.257042646E0
2.168597969E1,-1.492210150E0,1.362003922E0,9.224992752E0
2.170597969E1,1.598100901E0,-1.300760269E0,1.234490585E1
2.172602031E1,2.035004377E0,-2.205107689E0,1.360512829E1
2.174797969E1,-1.062259451E-1,-2.672245026E0,1.350644779E1
2.176798125E1,-6.090274453E-1,-3.044371128E0,1.017526150E1
2.178999531E1,5.809482336E-1,-3.856752396E0,3.608109951E0
2.181197969E1,1.406986237E0,-3.441463947E0,3.523594737E-1
2.183197969E1,1.072774768E0,-2.084497213E0,1.199293971E0
2.185197969E1,2.727857530E-1,-7.238342166E-1,3.519591331E0
2.187197969E1,7.313519716E-1,-1.802929640E-1,4.409219265E0
2.189197969E1,7.278851867E-1,1.944168329E0,4.077929020E0
2.191197969E1,-9.016276002E-1,2.331502438E0,3.777533293E0
2.193197969E1,8.289396167E-1,1.185943842E0,3.217203856E0
2.195198125E1,1.178732514E0,-1.555273384E-1,2.384031296E0
2.197198438E1,-4.635174293E-3,1.700476885E0,1.299745083E0
2.199398125E1,1.037599087E0,2.809069157E0,1.823577285E0
2.201598125E1,7.997208238E-1,2.633459091E0,7.926052809E-1
2.203797969E1,-1.869258642E0,3.943010807E0,3.325555563E0
2.205797969E1,6.812940538E-2,1.313966632E0,6.607287884E0
2.207798906E1,2.498052597E0,7.770237923E-1,8.914320946E0
2.209998125E1,5.252198696E0,-1.136862710E-1,1.134931087E1
2.211998125E1,6.832802773E0,-7.499789000E-1,1.195151997E1
2.214197969E1,5.619852066E0,-1.299189627E-1,1.146916485E1
2.216197969E1,6.012626171E0,-3.991517425E-1,1.112762737E1
2.218198125E1,6.812633991E0,-1.471562505E0,9.817222595E0
2.220397969E1,5.184634209E0,-4.380144179E-1,8.177511215E0
2.222397969E1,5.652097225E0,1.578257792E-2,9.284101486E0
2.224397969E1,7.046327114E0,-8.819952011E-1,9.530225754E0
2.226397969E1,9.350544930E0,-2.379482269E0,8.042228699E0
2.228398125E1,9.844410896E0,-3.199917793E0,6.451454163E0
2.230597969E1,1.142251587E1,-5.579207897E0,4.337594032E0
2.232597969E1,1.210827255E1,-9.023181915E0,5.268871784E0
2.234597969E1,1.122146130E1,-1.227313805E1,8.341724396E0
2.236597969E1,1.118156338E1,-1.566660213E1,9.993627548E0
2.238597969E1,8.376335144E0,-1.707844353E1,1.147732449E1
2.240597969E1,5.091805935E0,-1.556075954E1,1.387836361E1
2.242597969E1,5.330019474E0,-1.392529964E1,1.431608105E1
2.244597969E1,7.971868038E0,-1.322477531E1,1.289999676E1
2.246597969E1,9.861208916E0,-1.147472858E1,1.303795147E1
2.248597969E1,1.044209957E1,-9.427926064E0,1.291979218E1
2.250598125E1,8.682754517E0,-7.523721218E0,1.022811604E1
2.252598125E1,6.054553032E0,-5.532655239E0,8.274945259E0
2.254598125E1,3.651052237E0,-3.333533287E0,7.159458160E0
2.256798125E1,2.773673058E0,-3.089679003E0,5.069080353E0
2.258798125E1,1.023923516E0,-3.287564516E0,2.675625801E0
2.260997969E1,2.867487371E-1,-3.958621025E0,2.221962929E0
2.262999219E1,2.245828152E0,-5.339826107E0,5.432759762E0
2.265000625E1,6.102724075E0,-7.647855759E0,5.048882961E0
2.267198125E1,3.228111744E0,-5.062500954E0,3.046937704E0
2.269198125E1,3.853707016E-2,-6.080056190E0,-1.531618685E-1
2.271397969E1,9.843041748E-2,-8.826368332E0,-1.155978084E0
2.273397969E1,3.462609291E0,-1.325760460E1,-1.230993152E0
2.275397969E1,6.229042530E0,-1.759166527E1,-1.789148688E0
2.277397969E1,9.306099892E0,-2.248794174E1,-3.905862331E0
2.279397969E1,1.127805996E1,-2.313708687E1,-5.540173531E0
2.281397969E1,1.126725674E1,-1.957770348E1,-5.198884487E0
2.283397969E1,8.107753754E0,-1.474266148E1,-2.147139072E0
2.285398125E1,2.970380545E0,-1.284905720E1,2.264819145E0
2.287597969E1,-1.451930046E0,-1.213812447E1,3.243616581E0
2.289597969E1,-4.672064304E0,-1.041729546E1,2.685997248E0
2.291597969E1,-5.657862186E0,-7.662173271E0,1.201448679E0
2.293597969E1,-4.215384960E0,-5.421583652E0,-7.178582549E-1
2.295597969E1,-1.760140538E0,-4.629456997E0,-1.351593852E0
2.297597969E1,-1.830127686E-1,-4.199285984E0,-1.292926431E0
2.299597969E1,-1.852154359E-2,-3.754874468E0,-9.854151011E-1
2.301597969E1,-2.399947792E-1,-4.005978107E0,-8.912655115E-1
2.303598125E1,-1.063197970E0,-4.530490398E0,-2.838565707E-1
2.305797969E1,-2.602717638E0,-5.563856602E0,2.575586438E-1
2.307797969E1,-3.940080404E0,-6.706790924E0,9.192489386E-1
2.309797969E1,-5.177633762E0,-7.998644829E0,1.643025756E0
2.311797969E1,-4.193128586E0,-9.570639610E0,2.260365725E0
2.313797969E1,-2.278676748E0,-1.059934139E1,2.211495399E0
2.315797969E1,-1.362846732E0,-1.117556858E1,1.701664567E0
2.317797969E1,1.386558890E0,-1.513908291E1,1.891064882E0
2.319797969E1,2.696139097E0,-1.984857368E1,1.934888482E0
2.321797969E1,5.189384222E-1,-1.952530861E1,4.155654430E0
2.323797969E1,-1.502313763E-1,-1.633977509E1,7.845607281E0
2.325797969E1,3.245742559E0,-1.419246387E1,8.062780380E0
2.327797969E1,5.400064468E0,-1.237196064E1,1.267203093E0
2.329797969E1,4.785367489E0,-1.128459072E1,-6.278401375E0
2.331797969E1,1.462167740E0,-9.219457626E0,-9.983198166E0
2.333797969E1,-1.279183745E0,-8.436228752E0,-7.412007809E0
2.335797969E1,-1.883767486E0,-6.860316753E0,-3.088414907E0
2.337797969E1,-7.698124647E-1,-4.931547642E0,5.445372462E-1
2.339797969E1,8.341590166E-1,-4.120545387E0,1.733507276E0
2.341797969E1,7.199268937E-1,-3.137199163E0,1.705380201E0
2.343797969E1,7.505822182E-1,-2.596693516E0,9.966295958E-1
2.345797969E1,1.136891484E0,-2.317807674E0,9.604579210E-2
2.347798125E1,1.690737247E0,-2.671268225E0,1.236078516E-1
2.349999844E1,1.865188479E0,-2.690987110E0,8.515121937E-1
2.352197969E1,2.093777418E0,-3.197408438E0,7.713926435E-1
2.354198125E1,2.839188099E0,-4.556309700E0,1.826584339E-1
2.356397969E1,3.327777624E0,-6.819663048E0,-3.759854659E-2
2.358397969E1,3.159283161E0,-8.903269768E0,1.351249099E0
2.360397969E1,3.493887186E0,-1.189662457E1,4.543352127E0
2.362397969E1,8.193695068E0,-1.627721024E1,7.534054756E0
2.364397969E1,1.417001534E1,-2.303348351E1,5.662430763E0
2.366397969E1,1.477274132E1,-2.318964386E1,8.421748281E-1
2.368397969E1,1.494538307E1,-2.085155296E1,3.184958398E-1
2.370397969E1,1.567803669E1,-1.978976250E1,5.292890549E0
2.372397969E1,1.416407776E1,-1.897800446E1,8.851410866E0
2.374397969E1,1.160274220E1,-1.762686920E1,7.484992504E0
2.376397969E1,9.713898659E0,-1.761116409E1,5.188771248E0
2.378397969E1,7.190553665E0,-1.583441734E1,3.806962729E0
2.380397969E1,6.501253605E0,-1.439070415E1,2.891678572E0
2.382397969E1,6.157504082E0,-1.312288761E1,2.288521767E0
2.384397969E1,5.682158470E0,-1.302079868E1,1.824554086E0
2.386397969E1,4.266247272E0,-1.182270241E1,2.147081852E0
2.388397969E1,4.704299927E0,-1.074244785E1,2.096841812E0
2.390397969E1,6.301663399E0,-1.059081841E1,1.979133248E0
2.392397969E1,8.816111565E0,-1.089974689E1,2.732234240E0
2.394397969E1,1.068807983E1,-1.143182468E1,2.886612415E0
2.396397969E1,1.303696442E1,-1.310473919E1,1.719458222E0
2.398397969E1,1.504148674E1,-1.600437546E1,-2.116761655E-1
2.400397969E1,1.395791817E1,-1.599164009E1,-1.581197858E0
2.402397969E1,1.037311840E1,-1.206819439E1,-4.248941839E-1
2.404397969E1,9.099776268E0,-8.877450943E0,2.119165182E0
2.406397969E1,8.157639503E0,-7.026014805E0,3.644578457E0
2.408397969E1,7.229368687E0,-6.475616932E0,2.827389479E0
2.410397969E1,4.688057423E0,-5.971493244E0,-6.183361411E-1
2.412399688E1,2.506528139E0,-3.996698141E0,-2.873587847E0
2.414597969E1,4.025629997E0,-1.220190525E0,-1.747298002E0
2.416597969E1,6.769672394E0,7.057819366E-1,-8.523070812E-1
2.418597969E1,8.277043343E0,1.773500085E0,-1.100106955E0
2.420597969E1,6.688700676E0,2.568020821E0,-1.671526194E0
2.422597969E1,4.267252922E0,3.323199987E0,-1.838928819E0
2.424597969E1,2.077841520E0,4.952023029E0,-2.125141382E0
2.426597969E1,2.183559895E0,5.850030899E0,-2.788689375E0
2.428597969E1,3.525050402E0,6.637263298E0,-2.892875433E0
2.430598125E1,4.037467003E0,7.069225311E0,-2.076711416E0
2.432598125E1,4.004331112E0,6.944870472E0,-1.093709588E0
2.434798125E1,1.909653544E0,6.989575386E0,-1.164290667E0
2.437000469E1,-1.178617626E-1,6.568693161E0,-1.102807641E0
2.439198125E1,-1.419847727E0,6.033551216E0,7.390709519E-1
2.441397969E1,-1.666498423E0,5.789294243E0,2.729265451E0
2.443398125E1,-1.660445929E0,5.599760056E0,4.150166512E0
2.445398438E1,-9.436985850E-2,5.387854099E0,4.080878258E0
2.447598281E1,1.581226587E0,5.044927597E0,4.776920795E0
2.449797969E1,5.912845135E0,4.909837246E-1,5.781068325E0
2.451798125E1,1.229952145E1,-4.819786549E0,6.022595406E0
2.453997969E1,1.422953510E1,-7.954888344E0,3.571947813E0
2.455998125E1,1.166932011E1,-9.462621689E0,1.059539557E0
2.457998125E1,8.358646393E0,-1.067451954E1,-7.196682692E-1
2.460197969E1,7.211143970E0,-1.224072933E1,-2.450139999E0
2.462197969E1,9.958030701E0,-1.290784073E1,-4.271150589E0
2.464197969E1,1.276083660E1,-1.302848911E1,-5.966954231E0
2.466197969E1,1.312600040E1,-1.167500877E1,-5.330010414E0
2.468197969E1,1.203257847E1,-1.001503181E1,-2.174366236E0
2.470198125E1,1.061314201E1,-8.487875938E0,1.482968628E-1
2.472397969E1,1.043055916E1,-7.769155979E0,8.401733041E-1
2.474398125E1,1.015250683E1,-6.969281673E0,3.713023663E-1
2.476598125E1,9.306089401E0,-6.938454151E0,-1.471083760E0
2.478797969E1,7.339023113E0,-7.686239719E0,-3.138463020E0
2.480797969E1,5.372186661E0,-8.489974022E0,-3.481485367E0
2.482797969E1,3.743344069E0,-8.740779877E0,-1.843956709E0
2.484797969E1,5.583421707E0,-1.075356674E1,-1.932408214E-1
2.486797969E1,9.403542519E0,-1.444992638E1,-3.544280529E-1
2.488797969E1,1.147482395E1,-2.020893860E1,-2.478171110E0
2.490797969E1,7.608466148E0,-2.052336502E1,-1.630250216E0
2.492797969E1,5.518347740E0,-1.721445274E1,3.297179699E0
2.494797969E1,9.277799606E0,-1.506218147E1,4.969682693E0
2.496798125E1,1.607146263E1,-1.424458122E1,3.398578882E0
2.498997969E1,1.571269512E1,-1.017414093E1,1.522041857E-1
2.500998750E1,1.136907673E1,-6.529380798E0,-3.797807217E0
2.503198125E1,7.826195240E0,-3.336703062E0,-4.621613979E0
2.505397969E1,6.681805134E0,-1.748504639E0,-2.059070826E0
2.507397969E1,6.022154808E0,-1.155384302E0,-3.181798458E-1
2.509397969E1,4.938491344E0,-5.991920829E-1,7.842446864E-2
2.511397969E1,3.750976562E0,-2.591962814E-1,-7.221678495E-1
2.513397969E1,2.974460363E0,-2.608530521E-1,-9.911420345E-1
2.515397969E1,2.705917120E0,-2.495715767E-1,-5.387145281E-1
2.517397969E1,3.107740641E0,-1.314043164E0,-3.483754992E-1
2.519397969E1,3.614535809E0,-2.117374420E0,6.288418770E-1
2.521397969E1,5.139594078E0,-3.834907770E0,1.428658485E0
2.523397969E1,7.636612892E0,-7.865402699E0,1.270593286E0
2.525397969E1,1.088064194E1,-1.481896877E1,3.869508803E-1
2.527397969E1,1.325560379E1,-2.248715591E1,3.623001575E-1
2.529398125E1,1.235750866E1,-2.683826447E1,4.643496513E0
2.531597969E1,9.542694092E0,-2.382698059E1,1.051967144E1
2.533597969E1,9.070577621E0,-2.036051178E1,1.135269165E1
2.535597969E1,7.987344265E0,-1.625212860E1,1.134743404E1
2.537597969E1,7.117454052E0,-1.389835072E1,1.014729691E1
2.539597969E1,5.667697906E0,-1.227554131E1,7.561540127E0
2.541597969E1,4.568893433E0,-1.084797478E1,5.144775391E0
2.543597969E1,4.226790428E0,-9.450009346E0,3.090741873E0
2.545597969E1,4.436647415E0,-8.637331963E0,2.058467627E0
2.547597969E1,4.908189774E0,-8.877872467E0,1.481943846E0
2.549597969E1,4.227547169E0,-8.733109474E0,1.232209444E0
2.551598125E1,4.054503918E0,-8.945762634E0,2.074930191E0
2.553797969E1,5.190227032E0,-1.019499874E1,2.880799294E0
2.555797969E1,6.087784767E0,-1.196898746E1,2.693735600E0
2.557797969E1,6.266726971E0,-1.303815269E1,2.019145250E0
2.559797969E1,6.825265408E0,-1.355439949E1,1.675232530E0
2.561797969E1,8.159621239E0,-1.350047302E1,2.183033228E0
2.563797969E1,8.756073952E0,-1.213821983E1,3.280180931E0
2.565999375E1,9.442424774E0,-1.155178452E1,3.659192562E0
2.568197969E1,8.674307823E0,-9.936578751E0,3.645708561E0
2.570197969E1,7.157925606E0,-9.385577202E0,1.586560845E0
2.572197969E1,4.966215611E0,-8.168221474E0,-6.553409100E-1
2.574197969E1,3.296202898E0,-7.086779594E0,-1.695918441E0
2.576197969E1,3.626889944E0,-6.750298500E0,6.299623847E-2
2.578198125E1,5.631421089E0,-6.295716286E0,3.999513865E0
2.580397969E1,7.223076820E0,-4.277174473E0,5.773483276E0
2.582397969E1,7.186502934E0,-2.793315172E0,3.952645063E0
2.584397969E1,7.544733047E0,-2.422443628E0,1.290273547E0
2.586398125E1,7.617363453E0,-1.893181562E0,-9.624307752E-1
2.588598125E1,5.886901379E0,-4.427357912E-1,-5.333936691E0
2.590598125E1,3.888537884E0,3.806493580E-1,-8.508906364E0
2.592598125E1,2.207712650E0,2.613759518E0,-6.070038795E0
2.594598125E1,3.079259634E0,3.562543392E0,1.629302204E-1
2.596797969E1,3.310347557E0,4.508396626E0,4.153853416E0
2.598797969E1,3.116867542E0,4.110873222E0,1.862334609E0
2.600797969E1,2.655294180E0,4.370414257E0,-6.508302093E-1
2.602798125E1,3.473890781E0,5.669986725E0,1.126232445E-1
2.604798125E1,4.357638836E0,8.406826973E0,4.439539433E0
2.606998281E1,8.130689621E0,1.070163155E1,1.107520294E1
2.609197969E1,1.358270836E1,9.577017784E0,1.097637081E1
2.611198125E1,1.791559219E1,7.855328083E0,1.045049858E1
2.613398125E1,2.155756378E1,5.795375824E0,1.274789810E1
2.615597969E1,1.991942406E1,4.328467846E0,1.262511444E1
2.617597969E1,1.500593662E1,3.507467270E0,1.165128708E1
2.619597969E1,1.081029034E1,2.371044874E0,1.203350639E1
2.621598125E1,9.487426758E0,-7.823772430E-1,1.127644157E1
2.623598281E1,8.457124710E0,-3.061523199E0,8.825640678E0
2.625798125E1,7.760019302E0,-4.981797218E0,8.801123619E0
2.627798125E1,8.252631187E0,-6.730445862E0,9.943752289E0
2.629798125E1,8.638289452E0,-8.593258858E0,7.917510033E0
2.631997969E1,9.656945229E0,-1.036911488E1,3.238875866E0
2.633998125E1,1.050127506E1,-9.102591515E0,-2.995625436E-1
2.635998125E1,9.139118195E0,-7.072242260E0,-3.528880835E0
2.637998125E1,5.391789913E0,-4.885119438E0,-4.511700630E0
2.640197969E1,1.337994814E0,-3.550514936E0,-5.274474144E0
2.642197969E1,-7.806055248E-2,-3.025112152E0,-4.143051147E0
2.644197969E1,3.484138250E-1,-3.030944347E0,-3.569170713E0
2.646198125E1,6.117280722E-1,-2.657181025E0,-3.870466471E0
2.648397969E1,2.961071968E0,-2.654786587E0,-3.152052641E0
2.650398125E1,7.005606651E0,-3.035550833E0,-2.620875359E0
2.652597969E1,1.119633102E1,-4.129595757E0,-4.601157665E0
2.654597969E1,1.529126835E1,-6.283917427E0,-5.852913380E0
2.656597969E1,1.672824860E1,-8.785724640E0,-2.407369852E0
2.658598125E1,1.552146626E1,-1.080435276E1,2.621449709E0
2.660598125E1,1.498276043E1,-1.190775394E1,6.777764797E0
2.662798125E1,1.924206352E1,-1.564108944E1,8.215023041E0
2.665000000E1,2.047404480E1,-1.528508186E1,1.070472431E1
2.667197969E1,1.721477890E1,-9.898797989E0,1.114817905E1
2.669197969E1,1.417246819E1,-4.734735012E0,7.091538906E0
2.671197969E1,1.212208271E1,-1.536273122E0,2.810495853E0
2.673197969E1,1.091599941E1,3.628747761E-1,1.142723799E0
2.675198125E1,8.910318375E0,7.902684808E-1,-4.288877249E-1
2.677398125E1,5.582387924E0,1.327038884E0,4.945750535E-1
2.679597969E1,4.023120880E0,1.796781421E0,2.725875139E0
2.681597969E1,3.989123106E0,2.299027443E0,1.778518319E0
2.683597969E1,4.263680458E0,2.873980522E0,4.999093246E-3
2.685597969E1,4.649194717E0,3.014127493E0,-8.866878152E-1
2.687597969E1,4.331225395E0,3.355540752E0,-2.108429670E-1
2.689597969E1,4.560686111E0,3.244229555E0,1.372844815E0
2.691597969E1,4.602546215E0,3.077296257E0,3.087926626E0
2.693597969E1,4.978043556E0,1.942607403E0,3.805688858E0
2.695597969E1,5.004992485E0,1.408633351E0,4.745824814E0
2.697597969E1,4.929220676E0,1.743917346E0,3.372482061E0
2.699597969E1,4.207234859E0,3.791419506E0,4.208048880E-1
2.701598125E1,5.022843838E0,4.842042923E0,1.280265927E0
2.703598125E1,8.503409386E0,1.117872000E0,3.219224453E0
2.705798125E1,1.014531422E1,-6.158499718E0,4.907835960E0
2.707998125E1,8.110301018E0,-1.098269176E1,6.553974152E0
2.710198125E1,4.376074314E0,-1.240080547E1,6.972835064E0
2.712397969E1,2.116512775E0,-1.207938957E1,7.183524609E0
2.714398125E1,2.934103727E0,-1.167834091E1,5.438285828E0
2.716598125E1,2.530604362E0,-1.064744663E1,2.899224997E0
2.718797969E1,2.251315594E0,-8.782908440E0,2.121348858E0
2.720797969E1,3.074624300E0,-7.264802933E0,1.836946368E0
2.722797969E1,3.917843103E0,-5.814031601E0,1.497458220E0
2.724797969E1,4.982822418E0,-5.682618618E0,7.983130217E-1
2.726797969E1,5.696591377E0,-6.173429489E0,-2.918435931E-1
2.728798125E1,5.904293060E0,-7.770017624E0,-5.539416671E-1
2.730998125E1,5.203816414E0,-1.120775604E1,-3.845470846E-1
2.732998125E1,1.933509350E0,-1.528584766E1,7.785273194E-1
2.735000625E1,-2.534233809E0,-1.975546837E1,4.321122169E0
2.737197969E1,-3.038864613E0,-3.011976624E1,7.222597599E0
2.739197969E1,-4.131913185E0,-3.202127075E1,1.115540886E1
2.741197969E1,3.698936224E0,-3.055049133E1,1.423953438E1
2.743197969E1,1.081443691E1,-2.585456276E1,1.332595444E1
2.745197969E1,1.281785679E1,-2.105517387E1,9.185939789E0
2.747197969E1,1.169117355E1,-1.696989059E1,5.144066811E0
2.749197969E1,1.073828220E1,-1.161222267E1,2.518383980E0
2.751197969E1,1.029673386E1,-6.800777912E0,1.846073151E0
2.753197969E1,9.084052086E0,-4.067652702E0,3.967345476E0
2.755197969E1,7.823686123E0,-2.625165462E0,4.301059246E0
2.757198750E1,7.087928772E0,-2.453060865E0,2.494221926E0
2.759397969E1,6.940589905E0,-2.150673151E0,-1.897069663E-1
2.761397969E1,6.098223209E0,-1.054971457E0,-3.610494375E0
2.763397969E1,6.139824867E0,-5.365788937E-1,-5.322252750E0
2.765398125E1,5.537644863E0,4.000902772E-1,-5.376208305E0
2.767597969E1,6.165174961E0,-1.084477603E-1,-2.630911589E0
2.769597969E1,7.574420929E0,-2.211284637E0,8.580819368E-1
2.771597969E1,1.036279488E1,-6.970325470E0,2.290523291E0
2.773597969E1,1.179514980E1,-1.244800949E1,1.904913068E0
2.775597969E1,1.287170696E1,-1.670165443E1,1.888230205E0
2.777597969E1,1.292515564E1,-1.837940598E1,3.734198093E0
2.779597969E1,1.252695179E1,-1.799724197E1,8.492032051E0
2.781597969E1,1.081767368E1,-1.551681137E1,1.359735203E1
2.783797969E1,8.401291847E0,-1.130010509E1,1.514188957E1
2.785797969E1,8.396245003E0,-1.158038998E1,1.098342037E1
2.787797969E1,1.162631989E1,-1.637028694E1,5.895137787E0
2.789797969E1,1.633178902E1,-2.296000290E1,3.354458570E0
2.791797969E1,1.778815269E1,-2.690727425E1,4.147887230E0
2.793797969E1,1.689147568E1,-2.826378059E1,7.317293644E0
2.795797969E1,1.594534492E1,-2.872114944E1,9.756458282E0
2.797797969E1,1.572205162E1,-2.921887589E1,8.566109657E0
2.799797969E1,1.422262096E1,-2.957133293E1,6.133379936E0
2.801797969E1,1.028871822E1,-2.700444031E1,4.146671295E0
2.803797969E1,8.730800629E0,-2.404353142E1,2.790911436E0
2.805798125E1,8.597338676E0,-2.154395485E1,1.968464732E0
2.807998125E1,8.417323112E0,-1.934242058E1,1.392975211E0
2.809998750E1,8.040984154E0,-1.808424759E1,1.081231117E0
2.811999219E1,8.068641663E0,-1.677591133E1,1.675835848E0
2.814197969E1,8.540117264E0,-1.619225311E1,1.944072604E0
2.816197969E1,8.784344673E0,-1.570821381E1,2.076558113E0
2.818198125E1,8.675265312E0,-1.540028095E1,1.697393179E0
2.820398125E1,8.512372971E0,-1.550663185E1,1.826593995E0
2.822597969E1,7.193542004E0,-1.432499695E1,2.016214609E0
2.824597969E1,6.120824814E0,-1.255114269E1,1.912995815E0
2.826597969E1,5.386245251E0,-1.112698555E1,1.455147982E0
2.828597969E1,5.951123714E0,-1.123223400E1,1.005871177E0
2.830598125E1,6.862040520E0,-1.288591862E1,-1.126979470E0
2.832797969E1,3.739302397E0,-1.125180912E1,-3.694827795E0
2.834797969E1,-7.833732367E-1,-7.783444405E0,-3.118409395E0
2.836798594E1,-4.148031235E0,-4.739446640E0,-2.180294275E0
2.838997969E1,-4.167539120E0,-3.536092281E0,-2.733268499E0
2.840997969E1,-1.886353254E0,-3.221685886E0,-3.703475475E0
2.842997969E1,5.559815168E-1,-2.855277061E0,-4.567935467E0
2.845001094E1,3.915209293E0,-2.274482012E0,-4.826136112E0
2.847197969E1,5.141356468E0,-1.256247163E0,-6.054802418E0
2.849197969E1,3.683833838E0,-1.212174773E0,-7.333066463E0
2.851198125E1,1.793678522E0,-2.013523579E0,-6.821454048E0
2.853198125E1,6.842915416E-1,-2.259714603E0,-3.313115597E0
2.855397969E1,7.462056279E-1,-3.734543085E0,-2.824487686E-1
2.857397969E1,3.879085779E-1,-4.862442017E0,1.885395527E0
2.859397969E1,7.344836593E-1,-6.788567543E0,2.720339775E0
2.861397969E1,1.754490137E0,-9.351866722E0,3.170430660E0
2.863397969E1,4.266908169E0,-1.300503540E1,3.388331890E0
2.865398125E1,8.778847694E0,-1.651351738E1,3.704423904E0
2.867597969E1,1.232912445E1,-2.005310631E1,2.338550806E0
2.869597969E1,1.336438560E1,-2.233680153E1,1.778135300E0
2.871597969E1,1.459843445E1,-2.661066246E1,6.563368440E-1
2.873597969E1,1.672035789E1,-2.987232018E1,1.515951037E0
2.875597969E1,1.899721527E1,-3.187580872E1,3.556682348E0
2.877602344E1,1.904619980E1,-3.120769119E1,4.362350464E0
2.879797812E1,1.736640739E1,-2.772722054E1,7.189855099E0
2.881797969E1,1.661476326E1,-2.349521065E1,9.320119858E0
2.883797969E1,1.442757416E1,-1.694112396E1,1.061214542E1
2.885797969E1,1.107945633E1,-1.132240009E1,8.459988594E0
2.887797969E1,8.127146721E0,-7.259487629E0,5.460226059E0
2.889797969E1,6.032660484E0,-4.625310421E0,2.610120296E0
2.891797969E1,5.059427261E0,-2.191163778E0,6.561644673E-1
2.893797969E1,5.112108707E0,-4.286961555E-1,-5.787072778E-1
2.895797969E1,5.723693371E0,5.748860836E-1,-1.244477272E0
2.897797969E1,5.484033585E0,-3.842214867E-2,-1.967401743E0
2.899797969E1,4.127757072E0,-2.030311823E0,-3.783509016E0
2.901797969E1,3.024240732E0,-4.184040070E0,-5.944774151E0
2.903797969E1,2.438906193E0,-5.610304356E0,-5.390353680E0
2.905797969E1,2.778365612E0,-8.433700562E0,-1.743333101E0
2.907797969E1,3.023216009E0,-1.200406742E1,1.557686806E0
2.909797969E1,2.303432703E0,-1.510376358E1,2.692576647E0
2.911798125E1,1.279930711E0,-1.605098724E1,3.375853062E0
2.913798125E1,1.015984297E0,-1.547640705E1,3.314331770E0
2.915997969E1,1.225113034E0,-1.309735584E1,2.092216253E0
2.917998594E1,2.250865698E0,-1.000424767E1,1.308804631E0
2.920197969E1,6.011993885E0,-9.149795532E0,-2.303222008E-2
2.922197969E1,5.677849293E0,-5.721911907E0,-2.062556982E0
2.924197969E1,6.631000042E0,-4.658178329E0,-2.763157606E0
2.926197969E1,7.431668758E0,-5.615753651E0,-3.107922792E0
2.928197969E1,8.368088722E0,-7.645049572E0,-2.547095537E0
2.930197969E1,9.962140083E0,-1.029592037E1,-1.381866217E0
2.932199688E1,9.527649879E0,-1.132112598E1,-1.035272002E0
2.934397969E1,6.010174274E0,-9.963020325E0,-1.292677402E0
2.936397969E1,3.214713812E0,-7.655172825E0,-1.160613179E0
2.938397969E1,2.219635725E0,-5.252408981E0,-3.947463930E-1
2.940397969E1,2.475594997E0,-3.463519335E0,1.502313763E-1
2.942397969E1,3.023110628E0,-2.394853115E0,4.597729146E-1
2.944397969E1,3.788766861E0,-1.815312505E0,8.195161223E-1
2.946397969E1,4.437681675E0,-1.670195103E0,1.043948650E0
2.948397969E1,4.521478653E0,-1.847375631E0,7.450467944E-1
2.950397969E1,5.143013000E0,-3.456566334E0,4.909549952E-1
2.952397969E1,5.594099998E0,-5.542806625E0,7.701188922E-1
2.954397969E1,5.846784115E0,-7.531679630E0,9.743922353E-1
2.956397969E1,6.391072273E0,-9.305400848E0,1.139592171E0
2.958397969E1,7.391532898E0,-1.021727562E1,1.520337224E0
2.960397969E1,8.358474731E0,-1.039988613E1,1.569590688E0
2.962397969E1,9.454960823E0,-1.036801338E1,1.285829902E0
2.964397969E1,1.009779453E1,-9.745989799E0,1.115420341E0
2.966397969E1,1.157855034E1,-1.018373775E1,1.126108050E0
2.968397969E1,1.310001850E1,-1.162646389E1,1.248767734E0
2.970397969E1,1.261959743E1,-1.166163921E1,1.575298548E0
2.972397969E1,1.172048950E1,-1.147227764E1,2.182784081E0
2.974397969E1,1.329130554E1,-1.321924877E1,2.864872932E0
2.976397969E1,1.683631516E1,-1.706534386E1,3.280410528E0
2.978397969E1,1.857523155E1,-2.002322578E1,2.724141836E0
2.980397969E1,1.643244171E1,-1.944490242E1,2.495342255E0
2.982397969E1,1.246040249E1,-1.631457901E1,2.876518250E0
2.984397969E1,8.430548668E0,-1.236937523E1,2.487738371E0
2.986397969E1,5.569286823E0,-9.091530800E0,1.070687056E0
2.988397969E1,3.861473799E0,-6.739974499E0,6.406883895E-2
2.990397969E1,3.514103889E0,-5.844791889E0,-8.176007271E-1
2.992397969E1,3.053536177E0,-5.436169147E0,-1.651587367E0
2.994397969E1,2.111858368E0,-5.124242783E0,-2.657841444E0
2.996397969E1,1.133443832E0,-5.002732277E0,-3.164943218E0
2.998397969E1,3.699520528E-1,-4.956850052E0,-2.872285366E0
3.000398125E1,3.344220817E-1,-5.298425674E0,-1.762439013E0
3.002398125E1,1.021165371E0,-6.616682529E0,-4.313681126E-1
3.004597969E1,1.289612770E0,-7.107446194E0,7.665084600E-1
3.006599219E1,1.563231826E0,-6.556511879E0,1.380113602E0
3.008797969E1,2.753916264E0,-6.696946144E0,1.795162797E0
3.010797969E1,4.065306664E0,-7.139959335E0,1.480181694E0
3.012797969E1,4.541953564E0,-6.988560200E0,8.941960335E-1
3.014797969E1,4.021080971E0,-6.681575298E0,3.216657937E-1
3.016797969E1,4.021933556E0,-7.381391048E0,1.864317060E-1
3.018797969E1,3.860008478E0,-8.279513359E0,5.733059645E-1
3.020797969E1,3.227383852E0,-8.686642647E0,1.547899246E0
3.022797969E1,3.741715908E0,-9.677919388E0,2.599107265E0
3.024797969E1,6.523442745E0,-1.238103008E1,2.620769739E0
3.026798281E1,1.024643612E1,-1.613576126E1,2.629063129E0
3.028999375E1,1.347498798E1,-1.781177902E1,3.261304855E0
3.031197969E1,1.516512299E1,-1.728315735E1,2.323400497E0
3.033197969E1,1.475568581E1,-1.521200085E1,9.356349111E-1
3.035197969E1,1.255532837E1,-1.197705173E1,5.546025038E-1
3.037197969E1,9.927662849E0,-8.392778397E0,7.726280689E-1
3.039197969E1,8.849620819E0,-6.824604988E0,8.730217218E-1
3.041197969E1,8.318960190E0,-5.938798428E0,1.247484326E0
3.043197969E1,8.167636871E0,-5.519324303E0,1.320565104E0
3.045197969E1,8.218787193E0,-5.580654144E0,1.551576734E0
3.047197969E1,8.215406418E0,-5.813859463E0,1.911195397E0
3.049197969E1,8.538546562E0,-6.373403549E0,2.375191689E0
3.051197969E1,9.141435623E0,-7.065758228E0,2.344296932E0
3.053198125E1,9.720870972E0,-7.973802567E0,1.847327709E0
3.055397969E1,9.902724266E0,-8.773150444E0,1.326636672E0
3.057397969E1,1.098300743E1,-9.692246437E0,2.091277838E0
3.059397969E1,1.192643833E1,-9.593345642E0,2.818846941E0
3.061397969E1,1.241450119E1,-8.857798576E0,3.020160913E0
3.063397969E1,1.302542496E1,-7.879021168E0,3.200999737E0
3.065398125E1,1.465972519E1,-8.649312973E0,3.272835493E0
3.067597969E1,1.270705318E1,-7.162216187E0,2.740278721E0
3.069597969E1,1.062987232E1,-6.248387814E0,2.842472792E0
3.071597969E1,1.013194561E1,-6.576642036E0,2.941506624E0
3.073597969E1,1.156103516E1,-8.718935966E0,3.184690475E0
3.075597969E1,1.316957378E1,-1.124212742E1,2.819900274E0
3.077597969E1,1.374789810E1,-1.344319344E1,2.555465460E0
3.079597969E1,1.265061760E1,-1.432555294E1,2.210595131E0
3.081597969E1,1.049570084E1,-1.389285374E1,2.225736141E0
3.083597969E1,7.923658371E0,-1.199793816E1,2.087102413E0
3.085598125E1,6.108211994E0,-9.992459297E0,2.025465965E0
3.087598125E1,5.107110023E0,-8.564930916E0,2.110766649E0
3.089797969E1,4.657507896E0,-7.809167385E0,1.789704084E0
3.091797969E1,4.647404194E0,-7.540863991E0,1.266216636E0
3.093797969E1,5.426218987E0,-8.307879448E0,9.472994208E-1
3.095797969E1,6.135352612E0,-9.660402298E0,9.601994157E-1
3.097797969E1,6.179166317E0,-1.112184238E1,5.553015471E-1
3.099797969E1,5.158719063E0,-1.173200035E1,2.345072627E-1
3.101797969E1,3.882456541E0,-1.092103577E1,2.036029100E-2
3.103798125E1,3.722466469E0,-1.051335144E1,-1.460846066E-1
3.105798125E1,4.460579395E0,-1.067381096E1,-6.109907031E-1
3.107998125E1,4.896831989E0,-1.071877480E1,-6.612593532E-1
3.110197969E1,4.110116482E0,-1.012467670E1,-5.509250164E-1
3.112197969E1,2.829486847E0,-9.163846016E0,-7.432559878E-2
3.114198125E1,3.081940889E0,-1.031467056E1,-1.366610359E-2
3.116198594E1,2.307004929E0,-9.868333817E0,3.016789854E-1
3.118397969E1,2.613654375E0,-8.689333916E0,1.722110987E0
3.120397969E1,4.895711422E0,-8.818457603E0,2.126357555E0
3.122397969E1,7.918257236E0,-9.903816223E0,1.917305470E0
3.124397969E1,1.006819248E1,-1.124156284E1,1.492478251E0
3.126397969E1,1.026107883E1,-1.152274704E1,1.031489134E0
3.128398125E1,8.973410606E0,-1.053882599E1,3.914711177E-1
3.130598125E1,7.330509186E0,-8.608524323E0,-2.157558799E-1
3.132797969E1,6.570321083E0,-6.722027779E0,-1.620874554E-1
3.134798125E1,6.341368675E0,-5.345860004E0,3.640910387E-1
3.136998750E1,5.623108387E0,-4.286885262E0,1.047405720E0
3.139198125E1,4.980293751E0,-4.070353508E0,1.445685983E0
3.141198594E1,4.921731949E0,-4.629035473E0,1.610110283E0
3.143397969E1,5.133139610E0,-5.683710575E0,1.537144542E0
3.145397969E1,5.641553402E0,-7.052906036E0,1.418660283E0
3.147397969E1,6.734621048E0,-8.758592606E0,1.374089837E0
3.149398125E1,7.350726128E0,-9.422793388E0,1.777349949E0
3.151597969E1,8.688998222E0,-9.664434433E0,1.464322567E0
3.153598125E1,1.027452564E1,-9.763353348E0,3.688507080E-1
3.155797969E1,1.183415604E1,-9.641105652E0,-1.297226310E0
3.157797969E1,1.260892868E1,-9.156374931E0,-2.400694847E0
3.159797969E1,1.318207264E1,-8.740110397E0,-2.848209381E0
3.161797969E1,1.363837910E1,-8.365962982E0,-2.005900621E0
3.163797969E1,1.430699348E1,-9.232865334E0,-4.934832752E-1
3.165797969E1,1.264801216E1,-8.777823448E0,1.501662493E0
3.167797969E1,1.025413609E1,-7.465819836E0,3.455063105E0
3.169798125E1,9.454175949E0,-7.418031693E0,4.398818970E0
3.171998125E1,1.013923359E1,-8.757224083E0,4.235850811E0
3.174197969E1,1.032310867E1,-1.006982136E1,3.483879328E0
3.176197969E1,9.994174004E0,-1.123159313E1,2.989381075E0
3.178197969E1,9.277588844E0,-1.171673393E1,3.085369349E0
3.180197969E1,8.516357422E0,-1.106941891E1,3.948325872E0
3.182199688E1,7.615046024E0,-9.682007790E0,4.485144138E0
3.184397969E1,6.897800446E0,-8.195783615E0,4.267357826E0
3.186397969E1,6.146643639E0,-7.227367401E0,3.327729702E0
3.188397969E1,5.455916405E0,-6.751389980E0,2.249630213E0
3.190397969E1,4.819518566E0,-6.716597557E0,1.104914546E0
3.192398125E1,4.764403820E0,-7.216899395E0,6.402095556E-1
3.194597969E1,4.894237041E0,-8.113968849E0,2.571947277E-1
3.196597969E1,4.700526714E0,-8.825113297E0,2.715407610E-1
3.198597969E1,3.909530163E0,-9.611416817E0,7.880467176E-1
3.200597969E1,2.663061142E0,-1.000381756E1,1.748734474E0
3.202598125E1,2.463719845E0,-1.109523869E1,2.983950853E0
3.204797969E1,1.977189183E0,-1.161714554E1,2.381273031E0
3.206797969E1,1.629110575E0,-1.195056248E1,6.735942960E-1
3.208797969E1,1.285849094E0,-1.169235229E1,-2.892482877E-1
3.210797969E1,1.607208490E0,-1.132374954E1,1.784925163E-1
3.212797969E1,3.143644333E0,-1.246435738E1,2.615234256E-1
3.214797969E1,3.127009392E0,-1.240654278E1,1.305989027E-1
3.216798125E1,2.548962831E0,-1.107627678E1,1.088145494E0
3.218999062E1,3.802710533E0,-1.045281601E1,2.113381147E0
3.220999219E1,6.172941208E0,-1.138979244E1,2.018829107E0
3.223197969E1,8.295669556E0,-1.273089981E1,1.315268993E0
3.225197969E1,8.648632050E0,-1.293754768E1,7.863228917E-1
3.227197969E1,7.552442551E0,-1.214478874E1,4.254783690E-1
3.229197969E1,5.836153984E0,-1.062354183E1,1.301430583E0
3.231197969E1,4.466747284E0,-8.767796516E0,2.375115156E0
3.233198125E1,3.932533741E0,-6.878627300E0,3.178130388E0
3.235198125E1,4.177977562E0,-5.622696400E0,3.446625710E0
3.237198438E1,4.195675850E0,-4.760841370E0,3.238397121E0
3.239397969E1,4.270776749E0,-4.719316483E0,2.301249266E0
3.241397969E1,4.281713963E0,-5.028781414E0,1.300798416E0
3.243397969E1,4.746303558E0,-5.892972946E0,4.022929370E-1
3.245398125E1,5.546790600E0,-6.928407669E0,-6.183073521E-1
3.247597969E1,6.750250340E0,-8.184607506E0,-1.123359442E0
3.249597969E1,7.377531052E0,-8.832267761E0,-7.478336692E-1
3.251597969E1,8.564002037E0,-9.594017029E0,-1.511794776E-1
3.253598125E1,9.812492371E0,-1.031272697E1,1.225352436E-1
3.255797969E1,1.098924255E1,-1.035392666E1,3.463260531E-1
3.257797969E1,1.176615143E1,-9.829298973E0,6.641323566E-1
3.259797969E1,1.287798882E1,-9.591286659E0,1.480076313E0
3.261797969E1,1.412489986E1,-1.060625553E1,1.762831569E0
3.263797969E1,1.265988731E1,-9.477188110E0,2.808082581E0
3.265797969E1,1.074211216E1,-7.927479267E0,3.329549313E0
3.267798125E1,1.078345585E1,-8.446370125E0,2.696435928E0
3.269997969E1,1.108342934E1,-1.010971737E1,2.614037275E0
3.271998125E1,1.073816681E1,-1.186792374E1,2.599250793E0
3.273998750E1,9.135000229E0,-1.277580452E1,2.729006767E0
3.276198125E1,6.796927929E0,-1.188498020E1,3.522291899E0
3.278397969E1,4.963132381E0,-1.002724266E1,4.126712799E0
3.280398125E1,3.817736626E0,-8.184013367E0,4.119511127E0
3.282597969E1,2.996276379E0,-6.613081932E0,3.153326511E0
3.284597969E1,2.615186453E0,-5.765955925E0,2.164425373E0
3.286597969E1,2.702086449E0,-5.683537960E0,1.156619668E0
3.288598125E1,3.156544209E0,-6.043788433E0,2.463250458E-1
3.290797969E1,4.030351162E0,-7.174321175E0,-5.957731605E-1
3.292797969E1,4.867632389E0,-8.655278206E0,-7.767460942E-1
3.294797969E1,5.063621521E0,-1.001506996E1,-6.821750998E-1
3.296797969E1,4.573806286E0,-1.100660419E1,-2.635154128E-1
3.298797969E1,3.568375826E0,-1.234982872E1,7.728291750E-1
3.300797969E1,1.152875066E0,-1.339769459E1,3.474781513E0
3.302797969E1,-1.524531841E0,-1.406906605E1,7.714462280E0
3.304797969E1,-3.193778753E0,-1.381094360E1,9.940552711E0
3.306797969E1,-3.784495354E0,-1.313355637E1,6.629918098E0
3.308797969E1,-1.819535851E0,-1.456700325E1,2.315518618E0
3.310797969E1,-7.714022398E-1,-1.410864735E1,-5.754511952E-1
3.312797969E1,5.168315172E-1,-1.285710239E1,-4.174817502E-1
3.314797969E1,3.072977066E0,-1.205579185E1,7.341580391E-1
3.316797969E1,5.920104027E0,-1.184645176E1,1.173714280E0
3.318797969E1,8.541007996E0,-1.271668720E1,-2.560263574E-1
3.320797969E1,9.156691551E0,-1.252390671E1,-1.889657259E0
3.322797969E1,8.784699440E0,-1.176980972E1,-2.286376476E0
3.324797969E1,7.658256531E0,-1.066927147E1,-2.902251184E-1
3.326797969E1,6.410886765E0,-9.749888420E0,1.402695656E0
3.328797969E1,4.811339855E0,-7.957579613E0,2.710006475E0
3.330798281E1,3.708149195E0,-5.938166142E0,3.379444361E0
3.332997969E1,4.036489964E0,-4.607095242E0,3.355550289E0
3.335000312E1,4.751686096E0,-3.968178749E0,2.195099831E0
3.337198281E1,5.579945564E0,-4.038769245E0,3.510761857E-1
3.339398125E1,5.878502369E0,-4.880589962E0,-1.119519114E0
3.341597969E1,6.038186073E0,-6.223334312E0,-1.927533388E0
3.343597969E1,6.415339947E0,-7.450314999E0,-1.659172297E0
3.345597969E1,7.358923912E0,-8.171735764E0,5.347689241E-2
3.347597969E1,8.374390602E0,-8.717383385E0,1.146496892E0
3.349597969E1,8.907130241E0,-8.761629105E0,1.584358096E0
3.351597969E1,9.534055710E0,-8.828351021E0,1.498176455E0
3.353597969E1,1.059614277E1,-8.708266258E0,1.209780574E0
3.355597969E1,1.159120178E1,-8.273873329E0,8.728972077E-1
3.357597969E1,1.295276546E1,-8.888272285E0,7.595556974E-1
3.359598125E1,1.325184822E1,-1.035692406E1,2.167135626E-1
3.361797969E1,1.028092289E1,-9.417678833E0,1.144054890E0
3.363797969E1,9.174303055E0,-9.555738449E0,1.900239587E0
3.365797969E1,9.647837639E0,-1.076722240E1,2.383906841E0
3.367797969E1,1.048110676E1,-1.281387329E1,2.500015974E0
3.369797969E1,1.066833305E1,-1.447404099E1,2.624859095E0
3.371797969E1,9.382608414E0,-1.451670647E1,2.728298187E0
3.373798125E1,7.605220318E0,-1.313440800E1,3.280832052E0
3.375997969E1,5.986040592E0,-1.091095257E1,3.891870499E0
3.377997969E1,4.832370758E0,-8.829174042E0,4.264255524E0
3.379997969E1,3.940386772E0,-7.401483059E0,3.890462875E0
3.381998594E1,3.174922228E0,-6.415426254E0,2.843660355E0
3.384198125E1,2.865361214E0,-6.199239254E0,1.686150074E0
3.386198125E1,2.736141682E0,-6.470425606E0,1.082341909E0
3.388198125E1,2.357848167E0,-7.028121471E0,-2.342486829E-1
3.390198125E1,1.835596204E0,-7.862845898E0,-1.369416356E0
3.392397969E1,1.191986799E0,-9.415878296E0,-9.405382276E-1
3.394397969E1,9.473664761E-1,-1.057927799E1,1.094063997E0
3.396397969E1,7.801075578E-1,-1.100529289E1,3.090291977E0
3.398397969E1,8.410830498E-1,-1.154242706E1,3.490506649E0
3.400397969E1,1.313162208E0,-1.265223503E1,2.971050978E0
3.402397969E1,1.171865940E0,-1.253122234E1,2.418133974E0
3.404398125E1,1.641914845E0,-1.247369576E1,1.678689718E0
3.406599063E1,3.709393978E0,-1.405807209E1,1.139592171E0
3.408797969E1,4.591542244E0,-1.420636940E1,1.026509166E0
3.410797969E1,4.375039577E0,-1.281159401E1,2.171196222E0
3.412797969E1,4.643085003E0,-1.121632671E1,3.152541161E0
3.414797969E1,6.764385700E0,-1.132881641E1,3.245043516E0
3.416797969E1,9.056900978E0,-1.167015362E1,2.810850382E0
3.418797969E1,1.059990597E1,-1.206347275E1,1.621851444E0
3.420797969E1,1.023469543E1,-1.137613583E1,-9.720458835E-2
3.422797969E1,8.886721611E0,-1.048600006E1,-1.079641342E0
3.424797969E1,6.804512501E0,-9.124282837E0,-7.006583214E-1
3.426798750E1,4.957147121E0,-7.488545895E0,2.247101963E-1
3.428998125E1,4.020745754E0,-6.034843922E0,1.009500742E0
3.430998125E1,4.149094105E0,-5.449595928E0,1.052759290E0
3.433197969E1,4.725770950E0,-5.501846790E0,4.518241584E-1
3.435197969E1,4.887973785E0,-5.928158283E0,-1.233109683E-1
3.437198281E1,5.043318748E0,-6.749005318E0,-6.930926442E-1
3.439397969E1,5.137526035E0,-7.718791485E0,-8.716809750E-1
3.441597969E1,5.586362362E0,-8.285412788E0,-2.499929667E-1
3.443597969E1,6.357458115E0,-8.517554283E0,2.278992832E-1
3.445597969E1,7.302698135E0,-8.573971748E0,4.050989449E-1
3.447597969E1,8.211614609E0,-8.650135994E0,2.455397546E-1
3.449598125E1,8.268288612E0,-8.793826103E0,4.931768179E-1
3.451598125E1,9.026494980E0,-9.286409378E0,1.209991217E0
3.453598125E1,9.498219490E0,-9.163011551E0,1.354648948E0
3.455797969E1,1.003298855E1,-8.935247421E0,1.058601022E0
3.457797969E1,9.746986389E0,-9.922750473E0,-7.665946484E-1
3.459797969E1,7.414047718E0,-9.875382423E0,-1.571937054E-1
3.461797969E1,5.930820942E0,-9.885247231E0,1.051341772E0
3.463797969E1,6.095091820E0,-1.032357693E1,1.636819959E0
3.465797969E1,6.937362194E0,-1.178575516E1,1.739722729E0
3.467797969E1,6.768800735E0,-1.262773800E1,1.503137350E0
3.469797969E1,5.229798317E0,-1.214565182E1,7.013382912E-1
3.471797969E1,3.186443090E0,-1.009824467E1,5.296453238E-1
3.473797969E1,2.235801220E0,-8.525569916E0,1.365365386E0
3.475798125E1,3.253566980E0,-8.897226334E0,2.170391798E0
3.477997969E1,3.111322403E0,-7.952580452E0,2.109167337E0
3.479997969E1,1.582270384E0,-7.102360725E0,7.095360160E-1
3.481997969E1,-4.806599319E-1,-6.697511196E0,-3.283695281E-1
3.483997969E1,-1.066454053E0,-7.612411976E0,-6.996623278E-1
3.485997969E1,-1.367318988E0,-8.085075378E0,-5.561539531E-1
3.487997969E1,-6.711234450E-1,-8.821215630E0,4.774325490E-1
3.489997969E1,1.314809322E0,-1.051381111E1,1.314483762E0
3.491997969E1,3.586255550E0,-1.280387497E1,1.280160546E0
3.493997969E1,3.308633566E0,-1.253431606E1,1.660618305E0
3.495998125E1,3.030312300E0,-1.306030369E1,1.825569272E0
3.497998438E1,3.103852510E0,-1.389008617E1,1.866261125E0
3.500197969E1,2.799472809E0,-1.441437817E1,9.705231786E-1
3.502197969E1,9.799754620E-1,-1.313288593E1,9.418981075E-1
3.504197969E1,1.702641368E0,-1.451001167E1,2.039371490E0
3.506197969E1,1.494087100E0,-1.358660603E1,2.821212292E0
3.508197969E1,1.462847710E0,-1.096195793E1,3.930244923E0
3.510197969E1,3.397161722E0,-1.025323582E1,3.813694954E0
3.512197969E1,5.897129536E0,-1.119505787E1,2.858284235E0
3.514197969E1,7.962367535E0,-1.233315563E1,2.002922058E0
3.516197969E1,9.121132851E0,-1.230563164E1,8.964849263E-2
3.518198594E1,9.690809250E0,-1.096112537E1,-2.732138395E0
3.520397969E1,8.858680725E0,-8.237864494E0,-4.387135029E0
3.522397969E1,6.890789986E0,-5.888634682E0,-3.897396564E0
3.524397969E1,4.845969677E0,-4.277633667E0,-3.221053600E0
3.526397969E1,3.832379341E0,-3.364810944E0,-2.580403566E0
3.528397969E1,3.611873627E0,-2.834016562E0,-1.757468462E0
3.530397969E1,3.780185699E0,-2.626688242E0,-1.379989147E0
3.532397969E1,3.961503744E0,-3.191355944E0,-1.742662787E0
3.534397969E1,4.510886669E0,-4.078283310E0,-1.642096758E0
3.536397969E1,6.173803329E0,-6.008775711E0,-5.121197701E-1
3.538397969E1,7.921379089E0,-8.302784920E0,-7.788816839E-2
3.540397969E1,7.889297009E0,-8.691028595E0,1.497812569E-2
3.542397969E1,6.935686588E0,-8.470063210E0,8.464939594E-1
3.544397969E1,6.433248520E0,-8.258051872E0,2.482806444E0
3.546397969E1,7.413434982E0,-9.067704201E0,3.536887169E0
3.548397969E1,8.986089706E0,-1.004282379E1,2.975829840E0
3.550397969E1,9.605192184E0,-1.054005146E1,1.236183882E0
3.552397969E1,9.441619873E0,-1.159261894E1,3.127497733E-1
3.554397969E1,7.762691498E0,-1.132135677E1,4.678653181E-1
3.556397969E1,6.097054482E0,-9.889575958E0,2.294574261E0
3.558397969E1,6.029921532E0,-9.159679413E0,3.588238001E0
3.560397969E1,7.739122868E0,-9.886693001E0,3.566690207E0
3.562397969E1,9.395144463E0,-1.140433884E1,3.355310678E0
3.564397969E1,1.032279205E1,-1.275997448E1,2.868176937E0
3.566397969E1,1.008543110E1,-1.317787838E1,1.446356416E0
3.568397969E1,9.676510811E0,-1.238815498E1,3.781018853E-1
3.570397969E1,8.995724678E0,-1.046130180E1,2.963255644E-1
3.572397969E1,7.548496723E0,-8.777258873E0,3.980791271E-1
3.574397969E1,7.192469120E0,-7.353292465E0,6.948547959E-1
3.576397969E1,5.920908928E0,-7.229263306E0,3.012959361E-1
3.578398125E1,4.451337814E0,-7.335517883E0,7.895789742E-1
3.580598125E1,2.578287125E0,-7.195754051E0,2.627281904E0
3.582797969E1,1.167767048E0,-7.407200336E0,2.492689610E0
3.584797969E1,5.788605213E-1,-7.961572647E0,1.134008765E0
3.586797969E1,6.197055578E-1,-8.569757462E0,1.233492717E-1
3.588797969E1,8.671990633E-1,-8.804503441E0,5.875370651E-2
3.590797969E1,1.755016804E0,-9.142412186E0,-2.902730182E-2
3.592797969E1,3.741476536E0,-1.046509361E1,-3.692720830E-1
3.595000469E1,5.253386021E0,-1.177490425E1,-1.054358482E0
3.597198281E1,4.982056141E0,-1.140358257E1,-1.973789454E0
3.599397969E1,3.795834541E0,-1.020203781E1,-1.563701034E0
3.601398125E1,5.043692589E0,-1.183792019E1,-1.494393706E0
3.603597969E1,5.789802074E0,-1.198404312E1,-1.386434317E0
3.605597969E1,5.314342499E0,-1.031036091E1,-5.725781322E-1
3.607597969E1,6.348101139E0,-9.621904373E0,4.399010241E-1
3.609597969E1,8.254345894E0,-1.022067451E1,5.248855948E-1
3.611597969E1,9.786375999E0,-1.109566879E1,2.693476975E-1
3.613797969E1,1.003963470E1,-1.105911446E1,-2.577118762E-2
3.615797969E1,9.347558022E0,-1.031537056E1,-5.901898742E-1
3.617797969E1,8.295439720E0,-9.040256500E0,-7.369065285E-1
3.619797969E1,6.777161598E0,-7.124176979E0,-2.720291913E-1
3.621797969E1,5.768254280E0,-5.373239517E0,5.379675031E-1
3.623797969E1,5.194077015E0,-4.110059261E0,1.142484426E0
3.625797969E1,4.827849865E0,-3.511805534E0,1.172316074E0
3.627797969E1,5.009665966E0,-3.687970877E0,9.519059062E-1
3.629797969E1,5.294020653E0,-4.430355549E0,-2.871509790E-1
3.631797969E1,5.480739117E0,-5.462610722E0,-1.119681835E0
3.633797969E1,6.107263565E0,-6.772344112E0,-1.786428809E0
3.635797969E1,6.880801678E0,-7.825419426E0,-1.964001894E0
3.637797969E1,7.468118668E0,-8.001068115E0,-2.044064045E0
3.639797969E1,8.423337936E0,-7.829058647E0,-2.586053848E0
3.641797969E1,9.456953049E0,-8.179885864E0,-2.764642000E0
3.643997969E1,1.073170280E1,-8.829959869E0,-1.920781851E0
3.645997969E1,1.202559662E1,-9.113854408E0,-1.535008907E0
3.647998281E1,1.279428768E1,-8.357698441E0,-9.342079759E-1
3.650197969E1,1.356157207E1,-8.089892387E0,-2.935099900E-1
3.652197969E1,1.325297928E1,-8.556771278E0,-3.531734943E-1
3.654197969E1,1.066034603E1,-7.574976444E0,6.665936112E-1
3.656197969E1,9.472380638E0,-7.724843979E0,1.440342188E0
3.658201406E1,1.054556751E1,-9.594792366E0,1.447237372E0
3.660397969E1,1.195064831E1,-1.199101448E1,1.536024094E0
3.662397969E1,1.201711178E1,-1.317647934E1,1.462972164E0
3.664397969E1,1.051432800E1,-1.301394272E1,1.536924362E0
3.666397969E1,7.969713211E0,-1.145050907E1,1.708760858E0
3.668397969E1,5.581803799E0,-9.333537102E0,1.692997456E0
3.670397969E1,3.988519669E0,-7.379762650E0,1.934265971E0
3.672397969E1,2.975399017E0,-5.995598316E0,1.855908513E0
3.674397969E1,2.522846937E0,-5.254161835E0,1.386434317E0
3.676398281E1,2.234240294E0,-4.843173504E0,7.664605975E-1
3.678597969E1,2.246853113E0,-4.970295906E0,-4.687846825E-2
3.680597969E1,3.005269051E0,-5.927823067E0,-5.534244776E-1
3.682597969E1,3.911417007E0,-7.034739494E0,-5.183542371E-1
3.684597969E1,4.864682674E0,-8.519373894E0,-7.381132245E-1
3.686597969E1,5.007932663E0,-9.733790398E0,-7.931894660E-1
3.688597969E1,4.455801010E0,-1.039028072E1,-6.926329732E-1
3.690597969E1,4.056735516E0,-1.078781319E1,-3.529819250E-1
3.692598125E1,4.277394295E0,-1.218695641E1,-7.316871881E-1
3.694797969E1,3.675243139E0,-1.304208755E1,-6.654157043E-1
3.696797969E1,2.029440403E0,-1.195539856E1,6.920679212E-1
3.698797969E1,2.058237791E0,-1.163580036E1,2.118849277E0
3.700797969E1,3.908112764E0,-1.288406181E1,2.090789318E0
3.702797969E1,4.126348972E0,-1.189534187E1,1.090348125E0
3.704797969E1,4.119108677E0,-1.010587788E1,5.167549253E-1
3.706798438E1,5.701935291E0,-9.335241318E0,2.626056075E-1
3.708997969E1,8.264861107E0,-9.742917061E0,1.721335351E-1
3.710998750E1,9.986435890E0,-1.056180096E1,-5.949112400E-2
3.712999688E1,9.892180443E0,-1.077683830E1,-5.390784144E-1
3.715000938E1,8.093062401E0,-1.016879654E1,-8.154938221E-1
3.717197969E1,5.836776257E0,-8.660402298E0,-5.781518295E-2
3.719197969E1,4.175497532E0,-6.893797398E0,1.327201724E0
3.721197969E1,3.267204285E0,-5.419189453E0,2.343703032E0
3.723197969E1,3.006494761E0,-4.443638325E0,2.687979698E0
3.725197969E1,3.066656351E0,-3.887168407E0,2.339556456E0
3.727197969E1,2.849128723E0,-3.641446829E0,1.449497581E0
3.729197969E1,3.117719889E0,-3.838881969E0,1.733785123E-1
3.731197969E1,4.170584679E0,-4.713886261E0,-1.248154759E0
3.733197969E1,5.249852180E0,-5.658973694E0,-2.275755882E0
3.735197969E1,6.564010143E0,-6.239701748E0,-2.291021347E0
3.737198438E1,8.239549637E0,-6.711636543E0,-2.146239042E0
3.739397969E1,9.981944084E0,-7.101202011E0,-2.052165985E0
3.741397969E1,1.150522137E1,-7.737533092E0,-1.920465827E0
3.743397969E1,1.239062595E1,-8.484983444E0,-1.659057260E0
3.745397969E1,1.287099838E1,-9.077013016E0,-1.398548961E0
3.747397969E1,1.276549149E1,-8.613207817E0,-5.881882906E-1
3.749397969E1,1.341196346E1,-9.302900314E0,5.015373603E-2
3.751398125E1,1.264165306E1,-9.441879272E0,6.291483045E-1
3.753598125E1,1.018064308E1,-8.013374329E0,1.875023842E0
3.755797969E1,9.735523224E0,-8.126897812E0,2.509401083E0
3.757797969E1,1.099131012E1,-1.004266071E1,2.213554382E0
3.759798125E1,1.179800415E1,-1.178339863E1,1.797126055E0
3.761997969E1,1.134742355E1,-1.257995892E1,2.089410067E0
3.763999219E1,1.021827984E1,-1.258627033E1,2.615061998E0
3.766198438E1,8.445709229E0,-1.141719151E1,3.019366026E0
3.768397969E1,6.245207787E0,-9.037651062E0,2.858044624E0
3.770397969E1,4.818493843E0,-7.084059715E0,2.634253979E0
3.772397969E1,3.806809425E0,-5.792636871E0,2.099044323E0
3.774397969E1,3.126128435E0,-5.217770100E0,1.299275756E0
3.776397969E1,2.467962265E0,-4.995243073E0,4.418259859E-1
3.778397969E1,2.445945024E0,-5.596082687E0,-7.328172028E-2
3.780397969E1,2.550935745E0,-6.444415092E0,-6.661913991E-1
3.782397969E1,3.275085926E0,-8.421087265E0,-1.306017876E0
3.784397969E1,3.825618267E0,-1.075928402E1,-2.150203943E0
3.786397969E1,2.770915031E0,-1.152008533E1,-2.345628262E0
3.788397969E1,1.459218025E0,-1.170771313E1,-1.697996616E0
3.790397969E1,1.278139830E0,-1.228334713E1,-4.445745349E-1
3.792397969E1,2.260614634E0,-1.302563477E1,4.385219812E-1
3.794397969E1,2.505896091E0,-1.277999973E1,6.141702533E-1
3.796397969E1,1.940644145E0,-1.218801880E1,9.640684128E-1
3.798397969E1,2.958878994E0,-1.368548679E1,1.385438323E0
3.800397969E1,2.883346796E0,-1.372727013E1,1.729494810E0
3.802397969E1,2.781066418E0,-1.225337124E1,2.777580261E0
3.804397969E1,4.181387424E0,-1.084771538E1,3.438667536E0
3.806398125E1,7.469104767E0,-1.111558914E1,2.626956224E0
3.808597969E1,1.064905453E1,-1.209715462E1,9.432005882E-1
3.810597969E1,1.131472969E1,-1.219628429E1,-8.544235229E-1
3.812598125E1,9.855750084E0,-1.132537937E1,-2.236787796E0
3.814797969E1,6.945244312E0,-9.691747665E0,-1.455904365E0
3.816797969E1,4.631621361E0,-7.867567062E0,4.255262315E-1
3.818797969E1,3.108794212E0,-6.024117947E0,2.135235310E0
3.820797969E1,2.683478832E0,-4.916158199E0,2.827581167E0
3.822797969E1,2.999341011E0,-4.278295040E0,2.135809898E0
3.824797969E1,3.555035114E0,-3.865697384E0,8.742762208E-1
3.826797969E1,4.940607548E0,-4.696743488E0,-7.591439486E-1
3.828797969E1,6.547126293E0,-6.468548775E0,-2.557170153E0
3.830797969E1,7.822919846E0,-8.128007889E0,-3.876825333E0
3.832797969E1,8.216469765E0,-8.530128479E0,-3.648150444E0
3.834797969E1,8.861113548E0,-8.351779938E0,-1.982303262E0
3.836797969E1,1.002101803E1,-8.591611862E0,-1.212605715E0
3.838797969E1,1.101868153E1,-8.554817200E0,-9.512258768E-1
3.840797969E1,1.207438087E1,-8.483815193E0,-1.114788175E0
3.842797969E1,1.281979084E1,-8.476766586E0,-1.490582108E0
3.844797969E1,1.240257835E1,-7.453168869E0,-1.290513039E0
3.846797969E1,1.259103966E1,-7.396522522E0,-4.103949070E-1
3.848797969E1,1.236702824E1,-7.640759945E0,-4.746265337E-2
3.850797969E1,1.070207214E1,-6.980266094E0,1.236107230E0
3.852797969E1,1.083088970E1,-8.340670586E0,1.533744693E0
3.854797969E1,1.207906342E1,-1.102184200E1,1.538140535E0
3.856797969E1,1.304358196E1,-1.431157970E1,1.551969528E0
3.858798281E1,1.202070236E1,-1.561144066E1,2.180993080E0
3.860997969E1,9.645769119E0,-1.503360462E1,2.906302214E0
3.862999063E1,6.977862358E0,-1.287046146E1,3.711769342E0
3.865001875E1,4.904139042E0,-1.048307896E1,4.006983757E0
3.867197969E1,3.582616568E0,-8.595481873E0,3.236634970E0
3.869202344E1,3.258336067E0,-7.574258327E0,1.939858913E0
3.871397969E1,2.919815302E0,-6.636841774E0,1.101112604E0
3.873397969E1,2.570960999E0,-6.253051281E0,3.699999452E-1
3.875398125E1,2.580499172E0,-6.584677219E0,-2.648369968E-1
3.877399219E1,2.910027504E0,-7.596485615E0,-7.452766895E-1
3.879597969E1,3.076865196E0,-8.963182449E0,-1.146420360E0
3.881597969E1,2.966454029E0,-1.044195652E1,-2.090664864E0
3.883597969E1,1.825301051E0,-1.127342415E1,-2.449909925E0
3.885597969E1,1.295291901E0,-1.201353931E1,-1.598445654E0
3.887597969E1,2.319933653E0,-1.349943829E1,3.876691312E-2
3.889597969E1,2.482605219E0,-1.346102524E1,1.425680041E0
3.891597969E1,1.718232393E0,-1.229853535E1,2.431397915E0
3.893597969E1,1.964950085E0,-1.237038994E1,3.017393351E0
3.895597969E1,2.575394869E0,-1.324981880E1,2.767601252E0
3.897597969E1,2.275870562E0,-1.298083496E1,2.013389587E0
3.899597969E1,2.610829115E0,-1.193287373E1,2.395580769E0
3.901597969E1,4.825207233E0,-1.234332657E1,2.286089182E0
3.903597969E1,7.374744415E0,-1.279968929E1,2.007710457E0
3.905597969E1,9.090238571E0,-1.274854946E1,1.315575600E0
3.907598125E1,9.502155304E0,-1.217325211E1,1.158602089E-1
3.909797969E1,8.504452705E0,-1.082858181E1,-9.084846377E-1
3.911797969E1,7.149478912E0,-9.135631561E0,-9.281841516E-1
3.913797969E1,6.153625011E0,-7.532589436E0,3.473220468E-1
3.915797969E1,5.039727688E0,-6.076847553E0,1.229604483E0
3.917797969E1,4.392144203E0,-5.100300789E0,1.428620100E0
3.919797969E1,4.093797684E0,-4.520348549E0,5.700306892E-1
3.921797969E1,4.046248913E0,-4.477310658E0,-1.043613434E0
3.923797969E1,4.807978630E0,-5.128772259E0,-2.264685154E0
3.925797969E1,5.904647350E0,-5.953632832E0,-2.584310770E0
3.927797969E1,7.568521500E0,-7.285910130E0,-2.213171482E0
3.929797969E1,8.831808090E0,-7.966572285E0,-1.542392612E0
3.931797969E1,9.676865578E0,-8.125269890E0,-1.544307947E0
3.933797969E1,1.102767372E1,-8.679795265E0,-1.589893579E0
3.935797969E1,1.222023582E1,-8.929941177E0,-1.466984868E0
3.937797969E1,1.272822762E1,-8.424783707E0,-1.022506118E0
3.939797969E1,1.263976669E1,-7.368184566E0,-4.660170078E-1
3.941797969E1,1.323026276E1,-8.428968430E0,3.926586509E-1
3.943797969E1,1.251012516E1,-9.845608711E0,1.243146062E0
3.945797969E1,9.565908432E0,-9.305667877E0,1.585258365E0
3.947798125E1,8.493756294E0,-9.346818924E0,1.791494966E0
3.949997969E1,8.776214600E0,-1.048737907E1,1.784963489E0
3.951998281E1,9.040649414E0,-1.204371548E1,2.117901325E0
3.954198125E1,8.680245399E0,-1.314385128E1,1.608846068E0
3.956397969E1,7.655977249E0,-1.262610054E1,1.162480712E0
3.958397969E1,6.589130402E0,-1.120328426E1,1.369971752E0
3.960397969E1,5.421209812E0,-9.503928185E0,1.622684598E0
3.962397969E1,4.095310688E0,-7.667134285E0,1.634435296E0
3.964397969E1,3.097043514E0,-6.258318901E0,1.299563169E0
3.966397969E1,2.784935236E0,-5.573194027E0,9.681673050E-1
3.968397969E1,2.560397625E0,-5.311479092E0,3.582875133E-1
3.970397969E1,2.624820709E0,-5.645422459E0,-3.107290566E-1
3.972397969E1,2.787961721E0,-6.775131226E0,-8.262006640E-1
3.974397969E1,3.441080809E0,-8.766943932E0,-8.323873281E-1
3.976397969E1,4.445956230E0,-1.128856564E1,-8.304336667E-1
3.978397969E1,4.463558197E0,-1.228135490E1,-1.158343554E0
3.980397969E1,3.157137871E0,-1.246677113E1,-9.184253812E-1
3.982397969E1,2.231348038E0,-1.351629257E1,-5.676173419E-2
3.984397969E1,8.839871287E-1,-1.349615288E1,1.168197989E0
3.986397969E1,-2.491406202E-1,-1.289713383E1,2.332900524E0
3.988397969E1,-1.056101561E0,-1.187401485E1,3.035981894E0
3.990397969E1,9.623158574E-1,-1.330462742E1,2.426590681E0
3.992397969E1,2.131385565E0,-1.324337292E1,1.375535846E0
3.994397969E1,3.177086353E0,-1.229669666E1,1.859988332E0
3.996597969E1,5.076838017E0,-1.219040298E1,2.586580515E0
3.998597969E1,7.575244427E0,-1.337087917E1,2.576457977E0
4.000597969E1,9.058796883E0,-1.410215473E1,1.921365976E0
4.002597969E1,8.520418167E0,-1.302657318E1,6.792350411E-1
4.004597969E1,7.422695637E0,-1.145848656E1,-5.884947777E-1
4.006599063E1,5.970478058E0,-9.366786957E0,-4.650018513E-1
4.008797969E1,4.453464508E0,-6.984537601E0,2.567350566E-1
4.010797969E1,3.685883045E0,-5.244853020E0,7.358052135E-1
4.012797969E1,3.892138720E0,-4.330775738E0,7.417620420E-1
4.014797969E1,4.438380718E0,-4.019060135E0,4.888001829E-2
4.016798125E1,4.970975399E0,-4.456490040E0,-9.155331254E-1
4.018997969E1,4.858371735E0,-4.839323044E0,-2.046314478E0
4.020999531E1,5.443208218E0,-5.557152748E0,-2.477462292E0
4.023197969E1,6.526421547E0,-6.536898613E0,-2.151937246E0
4.025198125E1,7.544321060E0,-7.401272297E0,-1.233923674E0
4.027397969E1,8.420502663E0,-7.962358475E0,-5.908027887E-1
4.029397969E1,9.302115440E0,-8.441169739E0,-4.523030221E-1
4.031397969E1,9.993378639E0,-8.756926537E0,-1.100566611E-1
4.033397969E1,1.030747890E1,-8.880744934E0,2.296230942E-1
4.035397969E1,1.040972042E1,-8.797024727E0,7.561271787E-1
4.037397969E1,1.056318951E1,-9.391773224E0,7.946833968E-1
4.039397969E1,9.564011574E0,-9.348649025E0,1.173474908E0
4.041397969E1,8.919148445E0,-8.941902161E0,1.497697592E0
4.043397969E1,9.721722603E0,-9.562431335E0,1.001743555E0
4.045397969E1,1.028699398E1,-1.040247154E1,9.201300144E-1
4.047397969E1,9.606916428E0,-1.069059849E1,1.600265265E0
4.049397969E1,8.079693794E0,-1.077925205E1,1.644213200E0
4.051398125E1,5.719805241E0,-9.829041481E0,1.916194558E0
4.053598125E1,3.301718950E0,-8.127988815E0,1.992674947E0
4.055797969E1,2.150797606E0,-6.634984493E0,1.811050773E0
4.057797969E1,2.363527060E0,-5.925016880E0,1.116847157E0
4.059797969E1,2.363900661E0,-5.611807823E0,1.513805836E-1
4.061797969E1,2.452016830E0,-6.157465458E0,-6.643718481E-1
4.063797969E1,2.584876060E0,-7.011189938E0,-9.374065399E-1
4.065797969E1,2.922889471E0,-8.521117210E0,-9.375789762E-1
4.067797969E1,3.032160759E0,-1.031514931E1,-5.227979422E-1
4.069797969E1,2.034027576E0,-1.152366638E1,1.804078817E-1
4.071797969E1,9.389484525E-1,-1.248717976E1,1.446442604E0
4.073797969E1,-1.483064294E-1,-1.329396820E1,2.326531887E0
4.075797969E1,-7.226179838E-1,-1.424354649E1,1.670539975E0
4.077797969E1,-9.854246974E-1,-1.451881218E1,1.135320902E0
4.079797969E1,-9.892650247E-1,-1.407469845E1,1.522855997E0
4.081797969E1,8.649963140E-1,-1.510798740E1,1.874688745E0
4.083797969E1,2.814891577E0,-1.630919647E1,2.130763054E0
4.085797969E1,2.670703411E0,-1.425793076E1,4.001620770E0
4.087797969E1,3.326350689E0,-1.176943588E1,5.765524864E0
4.089797969E1,5.241003513E0,-1.049966621E1,5.087506294E0
4.091797969E1,7.498294830E0,-9.969254494E0,2.819411755E0
4.093797969E1,8.839919090E0,-9.994115829E0,-4.537586868E-1
4.095797969E1,8.289242744E0,-9.532159805E0,-3.251651525E0
4.097797969E1,6.297995567E0,-7.969493389E0,-4.041172981E0
4.099797969E1,4.573480606E0,-6.410542011E0,-3.113113642E0
4.101798125E1,3.483486891E0,-5.168372631E0,-1.997846484E0
4.103997969E1,3.205069780E0,-4.155787945E0,-8.635215163E-1
4.105998125E1,3.666308165E0,-3.753543139E0,-6.307093501E-1
4.107998125E1,4.164896011E0,-3.787837982E0,-7.025928497E-1
4.110197969E1,4.941105366E0,-4.420769215E0,-9.105914831E-1
4.112197969E1,5.928014755E0,-5.293685436E0,-1.080551147E0
4.114198125E1,6.749015331E0,-6.070708752E0,-1.463067889E0
4.116397969E1,7.378259182E0,-6.559605122E0,-2.080752850E0
4.118397969E1,8.180211067E0,-6.715170860E0,-2.558290720E0
4.120397969E1,8.994555473E0,-6.949141502E0,-2.716260195E0
4.122397969E1,9.400603294E0,-6.880858898E0,-2.158985853E0
4.124397969E1,1.007341194E1,-7.236215591E0,-1.952902436E0
4.126399531E1,1.055793190E1,-7.397681236E0,-1.708042622E0
4.128598125E1,1.145527840E1,-8.115989685E0,-1.168552399E0
4.130797969E1,1.115719032E1,-8.327196121E0,-6.014809608E-1
4.132797969E1,1.061490440E1,-8.681518555E0,6.802022457E-1
4.134797969E1,1.119867802E1,-9.780218124E0,1.488618851E0
4.136798750E1,1.248623180E1,-1.154706287E1,1.961186409E0
4.138997969E1,1.362843704E1,-1.407796383E1,2.277680635E0
4.140999219E1,1.268339825E1,-1.569824409E1,1.932044148E0
4.143198125E1,1.037985039E1,-1.543723869E1,2.166445971E0
4.145397969E1,8.344913483E0,-1.351458931E1,2.531025648E0
4.147397969E1,7.057244778E0,-1.102068233E1,2.420873165E0
4.149397969E1,5.980476379E0,-8.547472954E0,1.438455582E0
4.151398125E1,4.868934631E0,-6.754052639E0,6.113354564E-1
4.153398125E1,3.978387356E0,-5.742464066E0,4.148672894E-2
4.155597969E1,2.850249290E0,-4.708149910E0,1.745564640E-1
4.157598125E1,2.726229429E0,-4.412619114E0,5.455045104E-1
4.159598125E1,4.014358044E0,-6.080955982E0,3.890960813E-1
4.161598125E1,5.003134727E0,-8.470733643E0,-3.603752553E-1
4.163797969E1,5.350150585E0,-1.054662132E1,-1.597880602E0
4.165797969E1,4.984019279E0,-1.126441193E1,-2.512063503E0
4.167797969E1,4.458654881E0,-1.128907299E1,-3.305942297E0
4.169797969E1,3.684283733E0,-1.084089756E1,-3.032629967E0
4.171797969E1,2.613989592E0,-1.021640301E1,-1.792194128E0
4.173797969E1,1.449545503E0,-9.853614807E0,-4.953699112E-1
4.175797969E1,1.379807115E0,-9.960750580E0,4.218391776E-1
4.177797969E1,3.350407362E0,-1.154228306E1,3.219052255E-1
4.179797969E1,4.834017754E0,-1.157015228E1,6.173880100E-1
4.181797969E1,5.169703960E0,-1.024603462E1,1.726200342E0
4.183798125E1,6.792665958E0,-9.929846764E0,2.288109779E0
4.185997969E1,9.735475540E0,-1.111108780E1,1.898391247E0
4.187998125E1,1.220317841E1,-1.250005913E1,1.220295906E0
4.190198125E1,1.216988087E1,-1.220279598E1,-7.523539662E-2
4.192397969E1,1.068540859E1,-1.082808399E1,-1.322681546E0
4.194398125E1,8.664682388E0,-8.684555054E0,-1.355644941E0
4.196598125E1,7.077882767E0,-6.528796196E0,-2.872754931E-1
4.198797969E1,6.023610115E0,-4.801370621E0,8.618551493E-1
4.200797969E1,5.424514294E0,-3.586475849E0,1.591100216E0
4.202797969E1,5.653581619E0,-3.441492558E0,1.379768968E0
4.204797969E1,6.116007328E0,-4.119386673E0,1.835778058E-1
4.206797969E1,7.057378769E0,-4.908410072E0,-1.105173111E0
4.208797969E1,8.029884338E0,-4.906073570E0,-1.898439050E0
4.210797969E1,9.605325699E0,-4.966732979E0,-2.696148872E0
4.212797969E1,1.182173443E1,-5.310847282E0,-3.082132578E0
