"Time (s)","Gyroscope x (rad/s)","Gyroscope y (rad/s)","Gyroscope z (rad/s)"
2.832250000E-3,-1.089923263E0,-7.953465730E-2,2.556907386E-2
2.283225000E-2,-1.786292076E0,1.647241712E-1,-2.126334608E-1
4.283693800E-2,-2.477861404E0,-1.669581980E-1,-4.203625619E-1
6.483068800E-2,-2.668992281E0,-7.735124826E-1,-3.952647150E-1
8.483537500E-2,-2.489083767E0,-7.442258596E-1,-1.412320435E-1
1.068306880E-1,-2.128254414E0,-5.363920331E-1,1.841671467E-1
1.268306880E-1,-1.694400549E0,-5.087285638E-1,1.903979629E-1
1.468306880E-1,-1.037720442E0,-5.334773660E-1,2.691297829E-1
1.668322500E-1,-3.277728260E-1,-7.375586629E-1,3.173357546E-1
1.888306880E-1,1.701172441E-1,-6.704158783E-1,4.407654405E-1
2.088338130E-1,4.077089131E-1,-1.078020096E0,5.890486240E-1
2.308306880E-1,2.612408698E-1,-1.089486837E0,5.233195424E-1
2.508572500E-1,-2.480461895E-1,-2.676985860E-1,9.093165398E-3
2.728306880E-1,-6.536607146E-1,-4.350931346E-1,-7.021285295E-1
2.928353750E-1,-4.758291245E-1,4.366813600E-2,-9.298067093E-1
3.148306880E-1,-4.898615479E-1,-5.036496520E-1,-9.510996938E-1
3.348306880E-1,-5.309466124E-1,-1.627659202E0,-8.608836532E-1
3.548306880E-1,-5.603379607E-1,-2.791706562E0,-1.298490047E0
3.748353750E-1,-3.095515966E-1,-1.632738113E0,-1.468816757E0
3.968306880E-1,-3.155555204E-2,1.237508297E0,-9.738588333E-1
4.168306880E-1,-1.454033852E-1,1.276167274E0,-3.658733666E-1
4.368306880E-1,-3.527659476E-1,9.824458361E-1,1.149124801E-1
4.568306880E-1,-7.540345788E-1,1.312138587E-1,3.762057126E-1
4.768306880E-1,-1.049274445E0,-7.668452859E-1,5.766393542E-1
4.968306880E-1,-9.679945111E-1,-8.710065484E-1,8.833285570E-1
5.168369380E-1,-8.512145281E-1,-7.056366205E-1,5.638809800E-1
5.388322500E-1,-8.897863030E-1,-3.502526879E-1,-7.004355192E-1
5.608385000E-1,-1.156210780E0,-1.555315256E0,-1.161446810E0
5.828306880E-1,-9.705078006E-1,-1.803762913E0,-1.299188137E0
6.028306880E-1,-5.144881606E-1,-2.035385609E0,-1.302940607E0
6.228306880E-1,-2.000496387E-1,-2.900370598E0,-1.203142762E0
6.428306880E-1,-2.499136925E-1,-3.591346502E0,-1.200105786E0
6.628306880E-1,-6.795788407E-1,-3.790925026E0,-1.597813964E0
6.828306880E-1,-1.162563801E0,-3.317190170E0,-1.966916203E0
7.028306880E-1,-1.292206883E0,-3.073018551E0,-1.915045023E0
7.228322500E-1,-1.046726346E0,-3.616147757E0,-1.366994262E0
7.448306880E-1,-6.989170909E-1,-4.232563019E0,-1.004262447E0
7.648306880E-1,-7.547327280E-1,-4.294696808E0,-1.076763391E0
7.848306880E-1,-1.099208355E0,-4.298902988E0,-9.208182693E-1
8.048306880E-1,-1.484437466E0,-4.256753445E0,-4.642750323E-1
8.248306880E-1,-1.833206534E0,-4.150811672E0,-1.860171854E-1
8.448322500E-1,-2.031633139E0,-4.222405434E0,-1.805368513E-1
8.668306880E-1,-2.192465067E0,-4.615174294E0,-1.858251989E-1
8.868306880E-1,-2.246186495E0,-4.516650200E0,-6.393141299E-2
9.068306880E-1,-2.056940317E0,-3.651542902E0,2.016204298E-1
9.268306880E-1,-1.829925299E0,-2.157837868E0,5.864131451E-1
9.468306880E-1,-1.532940149E0,-1.321877480E0,9.376257658E-1
9.668306880E-1,-1.109383583E0,-1.222498417E0,1.055627465E0
9.868306880E-1,-9.693384171E-1,-1.707891941E0,8.634318113E-1
1.006830688E0,-1.181064248E0,-1.826696515E0,6.320535541E-1
1.026830688E0,-1.637991548E0,-1.613137960E0,4.895125031E-1
1.046830688E0,-2.202535629E0,-1.326572418E0,3.514569402E-1
1.066830688E0,-2.793469191E0,-1.064423919E0,3.300243020E-1
1.086830688E0,-3.190461874E0,-8.379674554E-1,4.479736686E-1
1.106830688E0,-3.228544950E0,-8.681616783E-1,7.090574503E-1
1.126830688E0,-2.954126835E0,-9.418320060E-1,8.518079519E-1
1.146830688E0,-2.626284122E0,-1.143801570E0,9.270316362E-1
1.166830688E0,-2.224265099E0,-1.168864489E0,1.059030890E0
1.186830688E0,-1.719044566E0,-9.665982723E-1,1.150276661E0
1.206830688E0,-1.207523465E0,-9.288817048E-1,1.263373971E0
1.226830688E0,-6.933844090E-1,-9.982236028E-1,1.434590816E0
1.246830688E0,-3.000220954E-1,-7.134208083E-1,1.412809134E0
1.266830688E0,-1.700474322E-1,7.401940972E-2,1.025537968E0
1.286830688E0,-2.866528630E-1,9.582206607E-1,5.239652991E-1
1.306830688E0,-4.271693230E-1,1.634553194E0,2.190737277E-1
1.326830688E0,-4.277452826E-1,1.888498545E0,1.808859259E-1
1.346830688E0,-3.278775513E-1,1.864465475E0,2.249205858E-1
1.366830688E0,-1.010720134E-1,1.639038682E0,2.685538232E-1
1.386830688E0,3.067416251E-1,1.228170753E0,3.954392374E-1
1.406830688E0,7.550643086E-1,8.029561639E-1,3.855955899E-1
1.426830688E0,1.153121591E0,4.107283354E-1,2.216742635E-1
1.446830688E0,1.388950467E0,6.023131311E-2,1.277231872E-1
1.466830688E0,1.461015105E0,-6.878342479E-2,2.306278050E-1
1.486830688E0,1.395722389E0,-8.443903178E-2,2.346246094E-1
1.506830688E0,1.317025423E0,3.775146976E-2,2.016378939E-1
1.526830688E0,1.301177859E0,1.419127136E-1,1.469392627E-1
1.546830688E0,1.307007313E0,1.550725102E-1,7.070329040E-2
1.566830688E0,1.336992025E0,3.322059810E-1,2.172934823E-2
1.586830688E0,1.395041704E0,6.823888421E-1,-2.050587386E-1
1.606830688E0,1.520635605E0,8.171107769E-1,-5.652248859E-1
1.626830688E0,1.708310843E0,1.123119354E0,-9.269094467E-1
1.646830688E0,1.762590528E0,1.618007421E0,-1.199983716E0
1.666830688E0,1.876176596E0,1.956007957E0,-1.306029916E0
1.686830688E0,2.045508385E0,1.799678802E0,-1.240300775E0
1.706830688E0,2.045560837E0,1.700980425E0,-1.241173387E0
1.726830688E0,1.846907377E0,1.671711206E0,-1.284963727E0
1.746830688E0,1.566677332E0,1.612108231E0,-1.299956083E0
1.766874438E0,1.353816986E0,1.388583899E0,-1.253966689E0
1.788830688E0,1.265450954E0,1.189180136E0,-1.265206575E0
1.808830688E0,1.162563801E0,1.083395720E0,-1.229462266E0
1.828830688E0,9.939650297E-1,1.109156728E0,-1.257579565E0
1.848830688E0,8.038811684E-1,1.117673993E0,-1.273828506E0
1.868847875E0,6.455100179E-1,1.087828755E0,-1.217559099E0
1.890843188E0,4.859869182E-1,1.100953698E0,-1.108563304E0
1.912830688E0,3.072302938E-1,1.021209598E0,-1.120239615E0
1.932830688E0,1.176700965E-1,9.355488420E-1,-1.150800347E0
1.952830688E0,-4.726351425E-2,9.254608154E-1,-1.142318010E0
1.972830688E0,-2.491806597E-1,8.663116097E-1,-1.067443371E0
1.992830688E0,-4.613952339E-1,7.023205161E-1,-9.073792100E-1
2.012830688E0,-6.921452284E-1,4.707502127E-1,-6.826331615E-1
2.032832250E0,-1.010179162E0,7.597418129E-2,-3.399552405E-1
2.054833813E0,-1.459549069E0,-8.315097690E-1,1.406386346E-1
2.076832250E0,-1.845790386E0,-1.699549317E0,5.527981520E-1
2.098830688E0,-2.420439959E0,-2.260236263E0,7.731110454E-1
2.118830688E0,-3.184841871E0,-2.611850262E0,1.086833954E0
2.138830688E0,-3.700918198E0,-2.755159378E0,1.453126192E0
2.158830688E0,-3.814015627E0,-2.425658703E0,1.646316767E0
2.178832250E0,-3.411909342E0,-1.953075767E0,1.643698692E0
2.200830688E0,-2.572685003E0,-1.826068163E0,1.676563263E0
2.220836938E0,-1.914853096E0,-1.727422118E0,1.901640892E0
2.242832250E0,-1.875670433E0,-1.537408113E0,1.791737556E0
2.262832250E0,-2.462485075E0,-1.170906544E0,1.458379626E0
2.284830688E0,-3.251443624E0,-4.704535007E-1,9.717818499E-1
2.304830688E0,-3.768410206E0,3.353475630E-1,6.066415310E-1
2.324830688E0,-3.841906071E0,8.107926846E-1,4.247956872E-1
2.344830688E0,-3.427355289E0,7.632848620E-1,3.995058537E-1
2.364830688E0,-2.604415178E0,4.715879560E-1,3.434982598E-1
2.384830688E0,-1.766482592E0,-4.567526653E-2,1.797514558E-1
2.404830688E0,-1.131008267E0,-6.706427336E-1,7.255333662E-2
2.424830688E0,-5.887868404E-1,-1.072609544E0,-8.649851382E-2
2.444830688E0,-1.092227027E-1,-1.334723115E0,-1.566781998E-1
2.464830688E0,3.715806007E-1,-1.665044069E0,-8.780751377E-2
2.484830688E0,8.303578496E-1,-2.114117384E0,-3.616322204E-2
2.504830688E0,1.144656777E0,-2.090904474E0,-9.341002256E-2
2.524830688E0,1.214434981E0,-1.450735092E0,-3.174928427E-1
2.544830688E0,1.081371069E0,-5.358335376E-1,-5.831668377E-1
2.564830688E0,9.283930063E-1,3.182956874E-1,-7.723780274E-1
2.584830688E0,1.019202471E0,1.139368415E0,-9.777159691E-1
2.604830688E0,1.367709756E0,1.602508903E0,-1.240562558E0
2.624830688E0,1.779537678E0,1.670192838E0,-1.437191367E0
2.644830688E0,2.249816656E0,1.537966728E0,-1.518890262E0
2.664830688E0,2.757009268E0,1.308682799E0,-1.567288160E0
2.684830688E0,3.173916101E0,1.278837681E0,-1.638550043E0
2.704830688E0,3.377596140E0,1.499831200E0,-1.810430050E0
2.724830688E0,3.378765345E0,1.604149580E0,-1.886997581E0
2.744830688E0,3.291691065E0,1.534476042E0,-1.769467115E0
2.764874438E0,3.083665133E0,1.359576583E0,-1.554425120E0
2.786830688E0,2.804883718E0,1.293742776E0,-1.451153994E0
2.806830688E0,2.532280684E0,1.398863912E0,-1.458135366E0
2.826830688E0,2.361500263E0,1.478887320E0,-1.564094305E0
2.846830688E0,2.362983704E0,1.339836955E0,-1.654449940E0
2.866830688E0,2.556174278E0,1.145599246E0,-1.608687401E0
2.886830688E0,2.738805532E0,9.486911893E-1,-1.492256522E0
2.906830688E0,2.790816307E0,7.965508103E-1,-1.318892956E0
2.926830688E0,2.914228678E0,5.629210472E-1,-9.530195594E-1
2.946830688E0,3.259245396E0,-2.674542665E-1,-4.148298502E-1
2.966830688E0,3.657145500E0,-1.831129670E0,6.174974889E-2
2.986830688E0,3.404229879E0,-2.921646357E0,3.748443723E-1
3.006832250E0,2.238262653E0,-3.015056372E0,8.380373120E-1
3.028830688E0,8.172329664E-1,-2.277619839E0,1.498190641E0
3.048830688E0,7.257079333E-2,-1.691817403E0,1.867903709E0
3.068832250E0,-2.500707805E-1,-1.398602128E0,2.159478426E0
3.090830688E0,-5.604601502E-1,-1.227385283E0,2.146091700E0
3.110830688E0,-9.693034887E-1,-8.894895911E-1,2.051948786E0
3.130836938E0,-1.197557688E0,-8.265530467E-1,2.167925835E0
3.150855688E0,-1.150695562E0,-8.159588575E-1,2.411626101E0
3.172830688E0,-7.877718210E-1,-9.100146890E-1,2.640578508E0
3.192830688E0,-4.499982297E-1,-8.196240664E-1,2.700495481E0
3.212830688E0,-3.194301724E-1,-4.409574270E-1,2.626668215E0
3.232830688E0,-3.685437143E-1,-9.676105529E-2,2.388989210E0
3.252830688E0,-4.367511868E-1,1.621410809E-2,2.143665791E0
3.272830688E0,-4.832816720E-1,1.733111963E-2,2.062176228E0
3.292830688E0,-4.531747401E-1,-1.541125681E-2,2.138028383E0
3.312830688E0,-2.663023472E-1,-3.930481523E-2,2.296521664E0
3.332830688E0,-1.319468953E-2,3.551745042E-2,2.298581123E0
3.352830688E0,-7.536331564E-2,-1.599419713E-1,1.872947693E0
3.372832250E0,-5.067389011E-1,-4.189313650E-1,1.484507203E0
3.394830688E0,-9.698445797E-1,-5.476145148E-1,1.342297792E0
3.414830688E0,-1.045766354E0,-3.711093664E-1,1.281700015E0
3.434830688E0,-8.026071191E-1,-2.988003790E-1,1.047057867E0
3.454830688E0,-3.657337427E-1,-4.595975578E-1,6.447770000E-1
3.474830688E0,5.068436265E-2,-7.205417156E-1,1.789835095E-1
3.494832250E0,1.766098738E-1,-7.357261181E-1,-3.056071401E-1
3.514832250E0,3.563962504E-2,-2.967059612E-1,-8.245459199E-1
3.536830688E0,-1.455255598E-1,4.325449467E-1,-1.304162383E0
3.556830688E0,-2.110103071E-1,1.074861050E0,-1.608477950E0
3.576832250E0,-1.665916741E-1,1.622178793E0,-1.747336388E0
3.598830688E0,1.152091846E-1,1.893699646E0,-1.601740956E0
3.618832250E0,7.349581718E-1,1.778612733E0,-1.472848415E0
3.640830688E0,1.663525701E0,7.850490808E-1,-1.453038931E0
3.660832250E0,2.304497719E0,-3.142465353E-1,-1.396595001E0
3.680832250E0,2.493691444E0,-1.002552032E0,-1.507336140E0
3.702830688E0,2.108008623E0,-1.060776234E0,-1.781265616E0
3.722830688E0,1.607029319E0,-6.575004458E-1,-1.952866316E0
3.742830688E0,1.335456133E0,-2.327745557E-1,-2.202378511E0
3.762871313E0,1.255799294E0,9.164723754E-2,-2.475784540E0
3.784830688E0,1.793779612E0,2.124065757E-1,-2.745001554E0
3.804830688E0,2.749190331E0,1.445830762E-1,-2.825653076E0
3.824830688E0,3.506034851E0,-1.704663038E-1,-2.868570805E0
3.844830688E0,3.636288881E0,-7.405955791E-1,-2.731597424E0
3.864830688E0,3.265580893E0,-1.345212460E0,-2.380664110E0
3.884830688E0,2.664995670E0,-1.465413332E0,-1.918308854E0
3.904830688E0,1.967754006E0,-1.142719388E0,-1.403855562E0
3.924832250E0,1.307844996E0,-6.119822264E-1,-9.711884856E-1
3.944832250E0,7.846825719E-1,-8.562584966E-2,-8.119969964E-1
3.964832250E0,3.560995162E-1,2.729345858E-1,-1.010091901E0
3.984832250E0,2.387610450E-2,4.001341760E-1,-1.122281671E0
4.004832250E0,-1.379333735E-1,3.560471535E-1,-6.909060478E-1
4.024832250E0,-6.084217876E-2,3.142465353E-1,-5.700245500E-2
4.044832250E0,1.941155195E-1,3.449992239E-1,4.875053763E-1
4.064832250E0,4.519355595E-1,1.411447823E-1,9.468934536E-1
4.084832250E0,4.583932757E-1,-3.641280532E-1,1.561668277E0
4.104832250E0,-2.599318922E-1,-6.817604899E-1,1.803151965E0
4.124849438E0,-1.173716426E0,-7.974234819E-1,2.236831427E0
4.146832250E0,-1.473284721E0,-5.023232102E-1,2.870682716E0
4.166832250E0,-1.390311837E0,-1.599943340E-1,3.312861919E0
4.188832250E0,-1.016462326E0,1.588424146E-1,3.468108892E0
4.208832250E0,-5.805139542E-1,3.425557613E-1,3.248301983E0
4.228832250E0,-3.304082751E-1,4.529827535E-1,2.894314289E0
4.248832250E0,-1.609368026E-1,4.381823540E-1,2.736030579E0
4.268832250E0,4.094542563E-2,5.023930073E-1,2.568112373E0
4.288832250E0,6.501351297E-2,7.462678552E-1,2.430702686E0
4.308832250E0,-1.359436959E-1,9.191427231E-1,2.295928240E0
4.328832250E0,-4.006228745E-1,9.443103671E-1,2.060710192E0
4.348832250E0,-7.652570605E-1,8.654215336E-1,1.895654440E0
4.368832250E0,-1.331721067E0,7.049559355E-1,1.841217637E0
4.388832250E0,-1.843172431E0,4.538379610E-1,1.989116788E0
4.408832250E0,-1.883960724E0,1.535540670E-1,2.117450953E0
4.428832250E0,-1.451572895E0,-2.092824280E-1,2.163248301E0
4.448832250E0,-8.730136752E-1,-5.442460179E-1,2.038020849E0
4.468832250E0,-5.446823239E-1,-9.951169491E-1,1.757686138E0
4.490836938E0,-5.513669848E-1,-1.364446044E0,1.562575817E0
4.512830688E0,-8.762949109E-1,-1.332628727E0,1.285120845E0
4.532830688E0,-1.361862898E0,-7.755544782E-1,6.854256988E-1
4.552832250E0,-1.809784293E0,1.042659655E-1,-5.787511915E-2
4.572836938E0,-1.694854379E0,9.643642306E-1,-5.308942795E-1
4.594830688E0,-7.938106656E-1,1.429703951E0,-7.567573190E-1
4.614830688E0,3.596251011E-1,6.939079762E-1,-1.051630735E0
4.634830688E0,1.190192342E0,-3.376863003E-1,-1.703563571E0
4.654833813E0,1.522328496E0,-1.012064099E0,-2.535439730E0
4.676830688E0,1.724699497E0,-1.210490584E0,-3.172554731E0
4.696830688E0,1.945885062E0,-8.563807011E-1,-3.447810650E0
4.716832250E0,2.182569027E0,-3.257831633E-1,-3.435715437E0
4.738829125E0,2.455503702E0,1.141270772E-1,-3.244828939E0
4.758830688E0,2.656373739E0,8.969247341E-2,-2.989469767E0
4.778830688E0,2.801305771E0,-2.438923120E-1,-2.799333572E0
4.798832250E0,2.943811893E0,-8.692786694E-1,-2.805232763E0
4.820836938E0,3.050887823E0,-1.518174648E0,-2.875744104E0
4.842830688E0,3.051324129E0,-1.710544825E0,-2.906043053E0
4.862830688E0,2.987846613E0,-1.760391474E0,-2.857470512E0
4.882832250E0,2.911034584E0,-1.538961530E0,-2.488996506E0
4.904830688E0,2.736239910E0,-1.697838783E0,-1.746533513E0
4.924832250E0,2.600732565E0,-2.123594522E0,-9.063494802E-1
4.946830688E0,2.853438854E0,-2.375253439E0,1.228711754E-2
4.966830688E0,3.186185837E0,-2.283972740E0,9.885370135E-1
4.986830688E0,2.680232286E0,-1.918221593E0,1.319660902E0
5.006830688E0,1.603311777E0,-9.492845535E-1,1.021680832E0
5.026830688E0,9.577668905E-1,-1.916895062E-1,7.094414234E-1
5.046830688E0,7.584153414E-1,1.146681309E-1,6.295577288E-1
5.066830688E0,2.902657092E-1,4.895823002E-1,7.734426260E-1
5.086830688E0,-1.234820411E-1,6.459463835E-1,1.315227747E0
5.106830688E0,-5.521349311E-1,9.406277537E-1,2.038684130E0
5.126830688E0,-1.050408959E0,1.321842551E0,2.586194038E0
5.146830688E0,-1.474558830E0,1.893874168E0,2.785056829E0
5.166830688E0,-1.720929503E0,2.356142044E0,2.587729931E0
5.186830688E0,-2.071059942E0,2.652062654E0,2.151659250E0
5.206830688E0,-2.434839010E0,2.648607016E0,1.614342332E0
5.226830688E0,-2.679534197E0,2.521529436E0,1.169632435E0
5.246830688E0,-2.679813385E0,2.521808863E0,1.009131908E0
5.266830688E0,-2.444211483E0,2.400281429E0,1.103676438E0
5.286830688E0,-2.001177073E0,2.057778120E0,1.212427855E0
5.306830688E0,-1.531770706E0,1.446110010E0,1.335438728E0
5.326830688E0,-1.086153269E0,6.669426560E-1,1.355475068E0
5.346830688E0,-6.621779203E-1,-1.386315078E-1,1.437557936E0
5.366830688E0,-2.853962481E-1,-8.308116198E-1,1.642773747E0
5.386830688E0,8.843583614E-2,-1.267859578E0,1.870224953E0
5.406830688E0,3.659431934E-1,-1.163802981E0,1.956461668E0
5.426830688E0,3.624350727E-1,-7.660075426E-1,1.913055420E0
5.446830688E0,1.324355900E-1,-4.288797677E-1,1.748610497E0
5.466830688E0,-2.516415715E-1,-9.738937020E-2,1.454557419E0
5.486830688E0,-6.959500313E-1,1.912182719E-1,8.744448423E-1
5.506832250E0,-9.736319184E-1,9.646958113E-1,-3.665191308E-2
5.526832250E0,-8.936085701E-1,2.000269413E0,-5.761506557E-1
5.548830688E0,-1.850049011E-2,3.159517288E0,-3.678630590E-1
5.568830688E0,1.238031864E0,2.304759741E0,1.839227974E-1
5.588830688E0,2.257234335E0,6.454052925E-1,3.641105890E-1
5.608830688E0,2.682815313E0,-6.470633745E-1,-3.288723826E-1
5.628830688E0,2.796296597E0,-1.489795566E0,-1.604760408E0
5.648830688E0,2.799263716E0,-1.824375153E0,-2.642166615E0
5.668830688E0,2.587782145E0,-1.693300962E0,-3.001844168E0
5.688830688E0,2.105198622E0,-1.371724010E0,-2.770780087E0
5.708830688E0,1.494315982E0,-9.233838916E-1,-2.254249811E0
5.728830688E0,1.211066484E0,-3.312634826E-1,-1.944645882E0
5.748830688E0,1.295034289E0,-2.167698890E-1,-1.936547518E0
5.768830688E0,1.540008664E0,-3.906396031E-1,-2.024250269E0
5.788833813E0,1.843189836E0,-7.271565199E-1,-1.924504757E0
5.810830688E0,2.080921173E0,-1.143714309E0,-1.773935199E0
5.830833813E0,1.949969053E0,-1.226722121E0,-1.744107485E0
5.850857250E0,1.580814481E0,-1.311230898E0,-1.562191844E0
5.872832250E0,9.103637338E-1,-1.300340056E0,-1.157711744E0
5.892832250E0,1.208640486E-1,-1.050653338E0,-8.826130033E-1
5.914830688E0,-1.281769753E0,-2.767917514E-1,-8.634318113E-1
5.934830688E0,-2.472764969E0,6.429094672E-1,-9.479232430E-1
5.954830688E0,-2.640822887E0,1.318753362E0,-6.844134331E-1
5.974830688E0,-2.024145603E0,1.758768320E0,8.052948862E-2
5.994830688E0,-1.431937933E0,1.841182709E0,1.015938759E0
6.014830688E0,-1.386157990E0,1.588005304E0,1.674189568E0
6.034830688E0,-1.543551683E0,1.322383642E0,2.061338663E0
6.054832250E0,-1.628985643E0,9.736668468E-1,2.426932573E0
6.074832250E0,-1.543097973E0,7.226361036E-1,2.620419979E0
6.096830688E0,-1.188097954E0,4.849222898E-1,2.735384703E0
6.116830688E0,-7.639829516E-1,1.994911283E-1,2.770780087E0
6.136830688E0,-5.661848187E-1,-8.529423922E-2,2.698034763E0
6.156840063E0,-7.825183868E-1,-2.156179696E-1,2.338444471E0
6.178832250E0,-1.329172969E0,-4.153883550E-3,1.879178524E0
6.200832250E0,-1.689059854E0,2.826386094E-1,1.670384765E0
6.220832250E0,-1.688431501E0,4.991292655E-1,1.602875471E0
6.240832250E0,-1.486235142E0,4.861265421E-1,1.429756284E0
6.262830688E0,-1.282467961E0,3.721216619E-1,1.078945041E0
6.282830688E0,-1.346783280E0,2.454631031E-1,7.385360599E-1
6.302830688E0,-1.666492701E0,1.055575162E-1,6.327865720E-1
6.322847875E0,-1.825666785E0,1.143539697E-1,5.816833377E-1
6.344830688E0,-1.585509419E0,1.919513047E-1,5.185198784E-1
6.364830688E0,-1.134638548E0,2.956587821E-2,3.909886479E-1
6.384830688E0,-8.311083317E-1,-1.306553483E-1,2.891661525E-1
6.404830688E0,-8.851611614E-1,-3.406882659E-2,2.461612374E-1
6.424830688E0,-9.826203585E-1,9.189158678E-2,2.051809132E-1
6.444830688E0,-9.127025008E-1,-1.101302728E-2,1.633453667E-1
6.464830688E0,-6.001139879E-1,-1.335700452E-1,7.227408141E-2
6.484830688E0,-1.737300754E-1,-1.110378429E-1,-2.251998335E-1
6.504830688E0,4.978900850E-1,3.839724232E-4,-5.501452088E-1
6.524830688E0,1.432339311E0,-2.062630057E-1,-6.591933966E-1
6.544830688E0,2.053432226E0,-8.239350319E-1,-9.547998309E-1
6.564832250E0,2.153195143E0,-1.344479442E0,-1.606593013E0
6.584833813E0,2.142932653E0,-1.676650524E0,-2.320973635E0
6.606830688E0,2.401416063E0,-1.803640723E0,-3.037902594E0
6.626830688E0,2.660056353E0,-1.056936502E0,-3.725178480E0
6.646830688E0,2.736676216E0,1.364323944E-1,-4.178248405E0
6.666830688E0,2.521320105E0,9.208357334E-1,-4.289443493E0
6.686830688E0,2.028439045E0,1.069223642E0,-4.130461216E0
6.706830688E0,1.611759186E0,8.399047852E-1,-3.898716450E0
6.726832250E0,1.315437198E0,5.086063743E-1,-3.743591547E0
6.748830688E0,1.152214050E0,2.000147253E-1,-3.670462370E0
6.768830688E0,1.149089813E0,-1.828930527E-1,-3.515337467E0
6.788830688E0,1.247020245E0,-5.803568959E-1,-3.215838909E0
6.808830688E0,1.308787465E0,-7.958352566E-1,-2.885744810E0
6.828830688E0,1.271716714E0,-7.287622094E-1,-2.560973883E0
6.848830688E0,1.134638548E0,-5.204222798E-1,-2.241997480E0
6.868830688E0,1.012657523E0,-3.196570575E-1,-1.909564734E0
6.888830688E0,8.044571280E-1,-1.581442803E-1,-1.468886495E0
6.908830688E0,4.191582799E-1,-1.000073627E-1,-8.798902631E-1
6.928830688E0,8.775515109E-2,2.487443238E-1,-2.138028294E-1
6.948830688E0,2.817659676E-1,4.393168390E-1,3.629063070E-1
6.968832250E0,8.786336780E-1,2.257408798E-1,7.719940543E-1
6.990830688E0,1.165251613E0,-1.145808622E-1,1.069659948E0
7.010841625E0,8.460832834E-1,-3.164805472E-1,1.527424932E0
7.032830688E0,4.088084698E-1,-4.348662496E-1,2.111028194E0
7.052830688E0,1.404815465E-1,-2.159321308E-1,2.435886145E0
7.072830688E0,-1.153662615E-2,3.942698613E-2,2.583890200E0
7.092830688E0,-8.452629298E-2,2.058266848E-1,2.872480392E0
7.112830688E0,-2.351307571E-1,3.023957312E-1,3.311989069E0
7.132830688E0,-4.139397442E-1,3.555235565E-1,3.666290998E0
7.152830688E0,-6.356838346E-1,4.121944010E-1,3.767607450E0
7.172830688E0,-7.890284657E-1,4.135034084E-1,3.763680458E0
7.192830688E0,-8.641299605E-1,4.120547771E-1,3.769509792E0
7.212830688E0,-8.101818562E-1,4.530002177E-1,3.808046579E0
7.232830688E0,-6.790378094E-1,4.236961305E-1,3.821887016E0
7.252830688E0,-5.459564328E-1,3.150493801E-1,3.674790621E0
7.272830688E0,-4.781503975E-1,1.834690124E-1,3.374384642E0
7.292830688E0,-5.952619910E-1,1.116487086E-1,3.123476028E0
7.312830688E0,-8.249298930E-1,2.142217159E-1,3.036506414E0
7.332830688E0,-1.089120388E0,5.149419308E-1,3.158365250E0
7.352830688E0,-1.219304442E0,7.216413021E-1,3.256976366E0
7.372830688E0,-1.122909904E0,7.547152638E-1,3.257203341E0
7.392830688E0,-9.400692582E-1,5.049412251E-1,3.173951149E0
7.412830688E0,-8.105134368E-1,2.389181256E-1,2.949379444E0
7.432830688E0,-6.906442642E-1,2.609616220E-1,2.454770565E0
7.452830688E0,-6.709220409E-1,4.755847752E-1,1.754143119E0
7.472830688E0,-5.331107974E-1,6.158219576E-1,1.334321618E0
7.492830688E0,7.836528122E-3,1.090656221E-1,1.123084426E0
7.512830688E0,6.255434752E-1,-9.251815677E-1,5.989620686E-1
7.532830688E0,8.416850567E-1,-1.904031992E0,-2.985560298E-1
7.552830688E0,6.002711058E-1,-2.405098677E0,-1.290374279E0
7.572849438E0,-1.431868076E-1,-2.337083101E0,-2.195711374E0
7.594830688E0,-1.059135556E0,-1.223336220E0,-2.884627819E0
7.614830688E0,-1.443300009E0,2.237163037E-1,-2.837940216E0
7.634830688E0,-1.013599992E0,9.853954315E-1,-2.264058590E0
7.654832250E0,-1.565036774E-1,8.379325867E-1,-1.601880670E0
7.676830688E0,6.056467295E-1,3.933623135E-1,-1.011435747E0
7.696830688E0,7.990640998E-1,8.667305112E-2,-4.080579877E-1
7.716830688E0,7.236658931E-1,-8.683013171E-2,8.283332735E-2
7.736830688E0,6.491228342E-1,-2.144137025E-1,2.975262702E-1
7.756830688E0,6.216862798E-1,-4.072376788E-1,4.800353646E-1
7.776830688E0,3.209137022E-1,-4.255810976E-1,4.983438551E-1
7.796830688E0,-3.243868947E-1,-2.504547536E-1,3.035127521E-1
7.816830688E0,-9.327563047E-1,-1.361182332E-1,8.470083028E-2
7.836830688E0,-1.307321429E0,-1.259778589E-1,-7.274532318E-2
7.856830688E0,-1.446982622E0,-1.234122291E-1,-1.600117832E-1
7.876830688E0,-1.347376704E0,-8.827875555E-2,-8.880235255E-2
7.896830688E0,-8.350876570E-1,9.300859272E-2,1.757372022E-1
7.916830688E0,-5.965535343E-2,5.988224596E-2,6.426476836E-1
7.936830688E0,9.777334332E-2,-2.000845522E-1,1.050618410E0
7.956830688E0,1.272694021E-1,8.274605870E-2,1.281403303E0
7.976830688E0,7.803192735E-1,2.043955028E-1,1.353712320E0
7.996830688E0,1.644606352E0,4.536110535E-2,1.135738134E0
8.016830688E0,2.164051294E0,-7.389724255E-2,7.617838383E-1
8.036830688E0,2.039783716E0,1.041961554E-2,3.560297191E-1
8.056830688E0,1.054702520E0,4.118453562E-1,-8.068656921E-2
8.076830688E0,4.712388909E-4,1.006234646E0,-4.026823640E-1
8.096830688E0,-4.490033984E-1,1.270721912E0,-4.423885942E-1
8.116830688E0,-4.577998519E-1,1.088265181E0,-2.570520937E-1
8.136830688E0,-2.815914154E-1,5.999918580E-1,-6.112143025E-2
8.156843188E0,-3.153809905E-2,1.365196556E-1,2.654645778E-2
8.178833813E0,1.839751601E-1,-2.020567656E-1,2.216568217E-2
8.200830688E0,2.417106479E-1,-3.185225725E-1,-5.848598480E-2
8.220830688E0,2.143962383E-1,-3.202330172E-1,-1.018574163E-1
8.240836938E0,5.249950290E-2,-1.983566731E-1,-5.590289459E-2
8.262832250E0,-2.066993415E-1,-7.189010829E-2,3.131120652E-2
8.284830688E0,-2.898992002E-1,-1.137431040E-1,1.050688233E-2
8.304830688E0,-2.199289352E-1,-2.488315850E-1,-3.174753785E-1
8.324830688E0,-1.309695095E-1,-4.004308879E-1,-9.471552968E-1
8.344830688E0,-1.567305624E-2,-4.083721340E-1,-1.461625934E0
8.364830688E0,9.751154482E-2,-3.033033311E-1,-1.842247367E0
8.384830688E0,1.684591770E-1,-8.187339455E-2,-2.093592167E0
8.404830688E0,2.674542665E-1,1.459793448E-1,-2.322195530E0
8.424830688E0,4.806462228E-1,2.404889166E-1,-2.554987431E0
8.444830688E0,8.151036501E-1,-3.127630055E-2,-2.699465752E0
8.464830688E0,9.133831263E-1,-4.069758654E-1,-2.906252384E0
8.484830688E0,7.335095406E-1,-7.429692149E-1,-3.296542883E0
8.504832250E0,4.745724797E-1,-1.076693654E0,-3.749857426E0
8.526830688E0,2.954842448E-1,-1.200227976E0,-4.068257809E0
8.546830688E0,3.045774102E-1,-8.846550584E-1,-4.098277569E0
8.568830688E0,4.945215881E-1,-1.551248580E-1,-3.997065783E0
8.588830688E0,7.808952332E-1,5.831145048E-1,-3.838118553E0
8.608830688E0,1.088614225E0,1.155809402E0,-3.631454229E0
8.628830688E0,1.343257785E0,1.460700989E0,-3.362341881E0
8.648830688E0,1.578301191E0,1.242953658E0,-3.190653801E0
8.668830688E0,1.912025690E0,6.079331040E-1,-3.048130274E0
8.688830688E0,2.377784252E0,-8.543386310E-2,-2.967775345E0
8.708830688E0,2.623282194E0,-5.093569160E-1,-2.847155571E0
8.728830688E0,2.462903976E0,-7.796734571E-1,-2.572981834E0
8.748830688E0,1.986010194E0,-1.045644164E0,-2.063083887E0
8.768830688E0,1.360170007E0,-1.127692103E0,-1.289274693E0
8.788830688E0,5.593605638E-1,-8.834332824E-1,-4.006927013E-1
8.808830688E0,-3.880565166E-1,-5.382944345E-1,6.602755189E-1
8.828830688E0,-9.445198178E-1,-2.834240198E-1,1.779677272E0
8.848830688E0,-9.195616245E-1,-3.421892524E-1,2.650875807E0
8.868830688E0,-3.392396569E-1,-6.676931381E-1,3.006416798E0
8.888830688E0,3.167597950E-1,-9.023002982E-1,3.073297977E0
8.908830688E0,5.353797674E-1,-9.065763950E-1,3.027971745E0
8.928830688E0,5.221501589E-1,-8.747590184E-1,3.175277472E0
8.948830688E0,6.430839896E-1,-8.444601297E-1,3.497517586E0
8.968830688E0,8.970293999E-1,-6.283534169E-1,3.841190338E0
8.988830688E0,1.251645446E0,-2.305929065E-1,4.257172108E0
9.008830688E0,1.526848912E0,2.226691097E-1,4.741658211E0
9.028830688E0,1.389386773E0,6.546031833E-1,4.877933502E0
9.048830688E0,9.360724092E-1,1.119838119E0,4.605225563E0
9.068830688E0,4.834561944E-1,1.446336865E0,4.019981861E0
9.088830688E0,2.091428041E-1,1.535470843E0,3.384542465E0
9.108830688E0,1.459095180E-1,1.584095716E0,2.898607969E0
9.128830688E0,1.727875918E-1,1.573990226E0,2.685782433E0
9.148830688E0,1.329068244E-1,1.476967454E0,2.626982212E0
9.168830688E0,1.090830751E-2,1.244210362E0,2.523187637E0
9.188830688E0,-1.502204835E-1,9.258797169E-1,2.302927017E0
9.208830688E0,-2.431069165E-1,5.818753242E-1,2.056940317E0
9.228830688E0,-1.278279126E-1,2.811550796E-1,2.061338663E0
9.248830688E0,3.644247353E-2,1.437278688E-1,2.215067148E0
9.268830688E0,5.550147034E-3,2.003986984E-1,2.341324329E0
9.290836938E0,-1.301841140E-1,3.519281745E-1,2.407856226E0
9.312830688E0,-2.126509100E-1,3.691022396E-1,2.344186544E0
9.332830688E0,-1.077915356E-1,2.765648663E-1,2.186408758E0
9.352830688E0,1.620189101E-1,2.672622800E-1,1.896736503E0
9.372830688E0,4.110075831E-1,5.285555124E-1,1.386995673E0
9.392830688E0,5.284682512E-1,1.083605170E0,9.177464843E-1
9.412830688E0,6.768212318E-1,1.390556216E0,8.252091408E-1
9.432830688E0,6.184749007E-1,8.521220684E-1,7.998495102E-1
9.452830688E0,2.621484399E-1,-2.309070528E-2,2.611885071E-1
9.472830688E0,-1.786868125E-1,-6.062400937E-1,-6.679375172E-1
9.492830688E0,-5.093045235E-1,-5.257629752E-1,-1.495520234E0
9.512830688E0,-5.910906792E-1,1.180191636E-1,-1.816224575E0
9.532832250E0,-2.362477630E-1,9.079203010E-1,-1.482639790E0
9.552832250E0,3.350683153E-1,1.119401813E0,-8.198335171E-1
9.572840063E0,8.332201838E-1,8.288219571E-1,-2.759016454E-1
9.594830688E0,1.130554438E0,4.136604965E-1,2.382374369E-2
9.614830688E0,1.043061137E0,1.473930478E-1,1.666265875E-1
9.634830688E0,6.687577963E-1,-7.122688740E-2,2.600540519E-1
9.654830688E0,3.045774102E-1,-2.672622800E-1,2.787465453E-1
9.674830688E0,2.216568217E-2,-4.176049232E-1,1.848478168E-1
9.694832250E0,-1.841147840E-1,-5.033529401E-1,1.219112501E-1
9.714832250E0,-2.335774153E-1,-4.940328896E-1,-4.136430472E-2
9.736830688E0,-1.539380401E-1,-3.770085573E-1,-5.819625854E-1
9.756830688E0,-2.719048560E-1,-1.457524449E-1,-1.153697491E0
9.776830688E0,-6.211277843E-1,2.152689099E-1,-1.511263132E0
9.796832250E0,-8.004080057E-1,7.227059603E-1,-1.199285507E0
9.818830688E0,-6.136403084E-1,1.159212828E0,-2.817659676E-1
9.838830688E0,-1.573065221E-1,1.099644661E0,3.859795630E-1
9.858830688E0,-1.583188176E-1,4.132415950E-1,4.061904848E-1
9.878830688E0,-4.179190993E-1,-1.033060402E-1,4.756371379E-1
9.898830688E0,-2.709972858E-1,-2.659183741E-1,5.515763760E-1
9.918830688E0,1.726305187E-1,-1.460316926E-1,3.065321743E-1
9.938830688E0,7.249574065E-1,1.005484164E-1,-2.677335031E-2
9.958830688E0,1.001923680E0,3.949680030E-1,-1.819505692E-1
9.978830688E0,6.157521605E-1,6.348111629E-1,-3.641280532E-1
9.998830688E0,-1.458746195E-1,9.372069240E-1,-6.456845403E-1
1.001883225E1,-7.260743976E-1,1.108214259E0,-9.000139236E-1
1.004083069E1,-8.808676600E-1,9.002583027E-1,-9.903696179E-1
1.006083850E1,-7.599512339E-1,5.440365672E-1,-9.042026997E-1
1.008283069E1,-5.504070520E-1,1.688780636E-1,-6.691069007E-1
1.010283069E1,-3.672172725E-1,1.488765888E-2,-5.346990824E-1
1.012283069E1,-2.892010510E-1,6.902777404E-2,-5.393067598E-1
1.014283069E1,-3.249453902E-1,1.386838555E-1,-6.005154252E-1
1.016283069E1,-3.558551669E-1,-5.084143952E-2,-7.174699306E-1
1.018283069E1,-3.173357546E-1,-3.020990491E-1,-8.264483213E-1
1.020283069E1,-1.865058839E-1,-2.046573013E-1,-8.142135739E-1
1.022283069E1,2.692170441E-1,-5.708971992E-2,-8.498182893E-1
1.024283069E1,9.723404050E-1,-1.407433450E-1,-8.531343937E-1
1.026283069E1,1.341215730E0,-4.883431196E-1,-6.487388611E-1
1.028283069E1,1.201990843E0,-8.575500846E-1,-4.153709114E-1
1.030283069E1,8.247902393E-1,-1.200577140E0,-6.863507032E-1
1.032284631E1,4.990943372E-1,-1.527808905E0,-1.401673913E0
1.034483069E1,9.609782696E-2,-1.670210242E0,-2.361116409E0
1.036483069E1,-2.298773080E-1,-1.511664510E0,-2.997777462E0
1.038483069E1,-2.262819409E-1,-1.534964681E0,-3.198752165E0
1.040483069E1,-1.134987622E-1,-1.931363940E0,-3.360544205E0
1.042483069E1,-9.532988071E-2,-2.080694199E0,-3.716120005E0
1.044483069E1,-3.812846243E-1,-1.495886803E0,-4.251761436E0
1.046483069E1,-7.149392366E-1,-4.862836301E-1,-4.179819107E0
1.048483069E1,-7.169812322E-1,3.598868847E-1,-3.719436169E0
1.050483069E1,-2.261772156E-1,6.023654938E-1,-3.438926935E0
1.052483069E1,3.122219443E-1,2.833367586E-1,-3.529317617E0
1.054483069E1,4.969301522E-1,-3.112445772E-1,-3.812444925E0
1.056483069E1,4.784994721E-1,-6.843785048E-1,-4.115242004E0
1.058483069E1,1.658237278E-1,-7.341727614E-1,-4.353549480E0
1.060483069E1,-5.440016985E-1,-5.764473677E-1,-4.449664593E0
1.062483069E1,-1.252256274E0,-3.164631128E-1,-4.338016033E0
1.064483069E1,-1.554669499E0,-9.094911069E-2,-4.030279160E0
1.066483069E1,-1.759414077E0,1.228362694E-1,-3.525774479E0
1.068483069E1,-2.053432226E0,3.609864414E-1,-2.672238588E0
1.070483069E1,-2.460983992E0,7.921351194E-1,-1.705640435E0
1.072483069E1,-2.813348532E0,1.268644929E0,-3.759439290E-1
1.074483069E1,-2.563312769E0,1.057983637E0,1.251313806E0
1.076483069E1,-1.917261600E0,2.784323692E-1,2.720811129E0
1.078483069E1,-8.758062124E-1,-6.660001874E-1,3.691109657E0
1.080483069E1,4.364719391E-1,-1.487474322E0,4.289425850E0
1.082483069E1,1.407573104E0,-2.183825731E0,4.433485508E0
1.084483069E1,1.317147613E0,-2.331864595E0,4.192089081E0
1.086483069E1,7.509627938E-1,-2.015959978E0,4.169521809E0
1.088483069E1,1.797863692E-1,-1.792959332E0,4.352589130E0
1.090483069E1,1.075471863E-1,-1.597080946E0,4.652908325E0
1.092483069E1,5.000717640E-1,-1.474768281E0,4.664427280E0
1.094483069E1,9.076759219E-1,-1.132317305E0,4.251133442E0
1.096483225E1,7.682590485E-1,-5.568996668E-1,3.473850965E0
1.098683069E1,-6.860889494E-2,3.852639794E-1,2.731143475E0
1.100683069E1,-8.186118007E-1,1.262030125E0,2.364484787E0
1.102683225E1,-1.294371128E0,1.851689577E0,2.198905468E0
1.104883069E1,-1.366714954E0,2.096524477E0,2.162480354E0
1.106884475E1,-1.076728463E0,2.068372250E0,2.136056185E0
1.109084163E1,-6.995105147E-1,2.016919851E0,2.058860302E0
1.111283069E1,-5.911255479E-1,1.679530382E0,1.956182480E0
1.113283069E1,-6.872757673E-1,1.106102467E0,1.906702399E0
1.115283069E1,-6.447595358E-1,5.930978060E-1,2.004405975E0
1.117283225E1,-3.682819307E-1,3.381226361E-1,2.238943338E0
1.119483069E1,-1.912008226E-1,4.289844632E-1,2.425222158E0
1.121483069E1,-3.221877813E-1,8.566599488E-1,2.385306597E0
1.123483069E1,-8.646884561E-1,1.293411136E0,2.144154549E0
1.125483225E1,-1.309031844E0,1.242098451E0,1.857710958E0
1.127483225E1,-1.299711823E0,8.549495339E-1,1.359087825E0
1.129683069E1,-8.349131346E-1,5.023406744E-1,3.638138771E-1
1.131683069E1,-3.559773564E-1,6.335545182E-1,-6.318789721E-1
1.133683069E1,-2.300344035E-2,9.745743871E-1,-1.227647185E0
1.135683069E1,2.208190560E-1,7.650127411E-1,-1.602090120E0
1.137683225E1,5.882981420E-1,8.386307210E-2,-2.119004250E0
1.139883069E1,9.528799653E-1,-8.127300143E-1,-2.931088448E0
1.141883069E1,1.158985853E0,-1.484332681E0,-3.663044691E0
1.143883069E1,1.267859578E0,-1.880347967E0,-4.184514046E0
1.145883069E1,1.290287018E0,-1.759571075E0,-4.530385971E0
1.147883069E1,1.391341567E0,-1.224348426E0,-4.670291424E0
1.149883069E1,1.521804929E0,-5.133537054E-1,-4.547891617E0
1.151883225E1,1.697280288E0,3.512649536E-1,-4.181267738E0
1.153883225E1,1.945518494E0,1.355736852E0,-3.814172745E0
1.156083069E1,2.022347927E0,2.367259979E0,-3.379236698E0
1.158083069E1,1.764667511E0,2.560432911E0,-2.854677916E0
1.160083069E1,1.488224745E0,1.969045520E0,-2.197788477E0
1.162083069E1,1.314791441E0,7.240847349E-1,-1.674678326E0
1.164083069E1,1.354881644E0,-7.912450433E-1,-1.519536018E0
1.166083381E1,1.548962235E0,-2.349457502E0,-1.486217618E0
1.168283069E1,1.651203632E0,-2.822424173E0,-1.182582736E0
1.170283069E1,1.434835196E0,-2.387051821E0,-8.541292548E-1
1.172283069E1,8.506560326E-1,-1.735695004E0,-5.144008994E-1
1.174283069E1,1.381951720E-1,-1.163523793E0,1.607448235E-2
1.176283069E1,-4.272042513E-1,-4.499982297E-1,6.815336347E-1
1.178283225E1,-5.646663904E-1,-4.111995548E-2,1.361374259E0
1.180283381E1,-4.749913514E-1,-1.030791476E-1,2.083451986E0
1.182284631E1,-4.691619575E-1,-3.544938266E-1,2.656914711E0
1.184483069E1,-4.805240333E-1,-6.811321974E-1,3.148172617E0
1.186483069E1,-2.920983136E-1,-8.827525973E-1,3.257272959E0
1.188483069E1,-6.134832278E-2,-8.247204423E-1,2.946552038E0
1.190483069E1,1.152091846E-1,-4.905073345E-1,2.413702965E0
1.192483069E1,1.889493465E-1,1.848303713E-2,1.973565936E0
1.194683069E1,-1.455604564E-2,7.270517945E-1,1.745573640E0
1.196683069E1,-2.039068192E-1,1.257317781E0,1.713686466E0
1.198683069E1,-2.145707756E-1,1.576468587E0,1.849350810E0
1.200683069E1,8.550368249E-2,1.735607743E0,2.042541265E0
1.202683225E1,5.222548842E-1,1.644588828E0,2.194070816E0
1.204883069E1,8.587020040E-1,1.236024737E0,2.265332699E0
1.206883069E1,9.029461145E-1,5.998696685E-1,2.127329350E0
1.208883069E1,7.958875895E-1,-6.270968169E-2,1.910088301E0
1.210883069E1,6.018767953E-1,-5.825908780E-1,1.852876425E0
1.212883069E1,4.095938802E-1,-9.966702461E-1,1.909145832E0
1.214883069E1,2.293188125E-1,-1.183123827E0,2.108654499E0
1.216883069E1,3.679154068E-2,-1.085874081E0,2.251282692E0
1.218883225E1,-2.674019039E-1,-7.847523689E-1,2.075929403E0
1.221083225E1,-7.591832876E-1,-2.401049435E-1,1.629526615E0
1.223083850E1,-1.141497731E0,3.086963892E-1,1.135197043E0
1.225085569E1,-1.234541178E0,7.288494706E-1,5.034227967E-1
1.227283069E1,-1.045748949E0,9.740333557E-1,-2.770535648E-1
1.229283069E1,-7.818377018E-1,1.156734467E0,-1.102873564E0
1.231283069E1,-4.598942697E-1,1.445795894E0,-1.663874745E0
1.233283069E1,-1.350710243E-1,1.432897806E0,-1.891203880E0
1.235283069E1,1.598721594E-1,9.173275828E-1,-2.047009468E0
1.237284631E1,2.125287354E-1,-4.757767543E-2,-2.398937702E0
1.239483069E1,-8.028514567E-4,-1.028208375E0,-3.059981108E0
1.241483069E1,-2.486221492E-1,-1.517144918E0,-3.508338690E0
1.243483069E1,-4.207639694E-1,-1.437418222E0,-3.602569103E0
1.245483069E1,-2.454456538E-1,-9.964608550E-1,-3.353440762E0
1.247483069E1,1.465378404E-1,-3.842516840E-1,-2.999959230E0
1.249483069E1,5.932374001E-1,2.341010123E-1,-2.570625544E0
1.251483069E1,1.026253581E0,5.283809900E-1,-2.189777374E0
1.253483069E1,1.471731424E0,3.781604767E-1,-1.958137274E0
1.255483225E1,1.842317224E0,-4.169591516E-2,-1.890243888E0
1.257683069E1,2.075161457E0,-7.473674417E-1,-1.955397129E0
1.259683069E1,1.997843504E0,-1.382684708E0,-2.011230230E0
1.261683069E1,1.579662561E0,-1.681205869E0,-1.962570429E0
1.263683069E1,9.939301014E-1,-1.531439185E0,-1.795716882E0
1.265683225E1,5.176995397E-1,-1.237490773E0,-1.438919187E0
1.267883069E1,9.117600322E-2,-7.296348810E-1,-8.634842038E-1
1.269883069E1,-2.761634588E-1,-1.331511736E-1,-1.803623289E-1
1.271883069E1,-6.435726881E-1,6.113539338E-1,5.091300011E-1
1.274083069E1,-8.871682882E-1,1.234611034E0,1.189633846E0
1.276083069E1,-8.625940681E-1,1.313290477E0,1.664677620E0
1.278084162E1,-1.072382689E0,1.013076305E0,2.141414165E0
1.280283069E1,-1.410540223E0,6.581112742E-1,2.713829994E0
1.282284631E1,-1.452654958E0,4.013733566E-1,3.019646406E0
1.284483069E1,-1.426021218E0,4.554436803E-1,2.940233946E0
1.286483069E1,-1.373225093E0,6.514790654E-1,2.547255754E0
1.288483069E1,-1.182443142E0,9.210277200E-1,2.207579613E0
1.290483069E1,-1.008154511E0,1.239462972E0,2.163614750E0
1.292483069E1,-9.588664174E-1,1.438238621E0,2.365758896E0
1.294483069E1,-9.106779099E-1,1.627153039E0,2.576175690E0
1.296483069E1,-8.152083755E-1,1.689478755E0,2.726396322E0
1.298483069E1,-5.848773122E-1,1.696791649E0,2.726221800E0
1.300483069E1,-2.934072912E-1,1.675812840E0,2.651923180E0
1.302483069E1,-1.267109066E-2,1.531334400E0,2.531390667E0
1.304483069E1,-3.420845373E-3,1.212043881E0,2.428642988E0
1.306483069E1,-2.857452929E-1,8.466243148E-1,2.371134520E0
1.308483069E1,-6.409023404E-1,5.823290944E-1,2.423703909E0
1.310483069E1,-7.150962949E-1,2.576978505E-1,2.477896214E0
1.312483069E1,-6.921975613E-1,-5.457644537E-2,2.337554455E0
1.314483069E1,-7.143807411E-1,-2.808234692E-1,1.986865401E0
1.316483069E1,-8.063071966E-1,-2.722888291E-1,1.569853902E0
1.318483069E1,-7.557101250E-1,-1.017526984E-1,1.186021090E0
1.320483069E1,-4.698775411E-1,7.630579174E-2,8.057661653E-1
1.322483069E1,2.757620253E-2,5.478588492E-2,3.043679595E-1
1.324483069E1,5.425530672E-1,-1.054178849E-1,-4.432787299E-1
1.326483069E1,7.819424272E-1,-7.714354992E-2,-1.154290915E0
1.328483069E1,9.393187761E-1,-1.068665087E-1,-1.619351387E0
1.330683225E1,9.838072062E-1,-5.579643250E-1,-2.129772902E0
1.332883069E1,8.305149078E-1,-1.457995653E0,-2.943235874E0
1.334883069E1,5.732184649E-1,-2.291111231E0,-3.873304367E0
1.336883069E1,3.707951903E-1,-2.691105604E0,-4.464901447E0
1.338883069E1,4.767715931E-1,-2.646407843E0,-4.552429676E0
1.340883069E1,8.953713775E-1,-2.489816904E0,-4.422227859E0
1.342883069E1,1.450508237E0,-2.226062775E0,-4.318555355E0
1.344883069E1,1.944942594E0,-1.921048999E0,-4.268708706E0
1.346883069E1,2.188503265E0,-1.548299074E0,-4.118505955E0
1.348883069E1,2.177891731E0,-1.210595250E0,-3.896499872E0
1.351083069E1,1.966305375E0,-9.705601335E-1,-3.557103157E0
1.353083069E1,1.624220848E0,-1.091144919E0,-3.162833214E0
1.355085100E1,1.195934534E0,-1.563012123E0,-2.676619530E0
1.357283069E1,7.879812717E-1,-1.811931014E0,-2.213618517E0
1.359283069E1,4.081801474E-1,-1.585806131E0,-1.773237109E0
1.361283069E1,-7.384487987E-2,-9.644514918E-1,-1.373783588E0
1.363283069E1,-6.368706226E-1,-3.015405238E-1,-1.048192382E0
1.365283069E1,-1.086345315E0,-1.300270297E-2,-7.688698769E-1
1.367283069E1,-1.278628230E0,9.896016680E-3,-3.480884731E-1
1.369283069E1,-1.147082686E0,-2.167698927E-2,3.255737126E-1
1.371283069E1,-8.518602848E-1,-3.107209802E-1,1.148601174E0
1.373283069E1,-9.008167982E-1,-7.398625016E-1,2.034617662E0
1.375283069E1,-1.010720134E0,-1.061264873E0,3.115028620E0
1.377283069E1,-6.156474352E-1,-1.368128657E0,4.183012962E0
1.379283069E1,2.975611687E-1,-1.185061097E0,4.579202652E0
1.381283069E1,1.065104604E0,-1.457698941E-1,4.258341789E0
1.383283069E1,1.063115001E0,1.224837184E0,3.634962320E0
1.385283069E1,3.520503640E-1,2.560328245E0,3.136007547E0
1.387283069E1,-5.693613291E-1,3.549161911E0,2.842670202E0
1.389283069E1,-1.195183992E0,3.969454765E0,2.644435644E0
1.391283069E1,-1.236443639E0,3.993627548E0,2.490672112E0
1.393283069E1,-8.167966604E-1,3.786718607E0,2.404662371E0
1.395283069E1,-3.054151535E-1,3.265947342E0,2.316069365E0
1.397283538E1,-4.356341809E-2,2.452693701E0,2.234126091E0
1.399483069E1,-2.457423508E-2,1.225587606E0,2.072840214E0
1.401483069E1,-1.613731384E-1,2.083923109E-2,1.872930288E0
1.403483069E1,-3.489960432E-1,-9.638231397E-1,1.842544079E0
1.405483225E1,-5.790827870E-1,-1.476007462E0,1.889598131E0
1.407682913E1,-8.342324495E-1,-1.134254575E0,1.783447266E0
1.409683069E1,-1.044858813E0,-2.441366613E-1,1.641970873E0
1.411683069E1,-1.182931781E0,5.521872640E-1,1.404658437E0
1.413683069E1,-1.098091364E0,1.125877023E0,1.134952664E0
1.415684162E1,-8.217708468E-1,1.219950199E0,7.911403179E-1
1.417883069E1,-3.791029751E-1,7.276975513E-1,1.775174439E-1
1.419883069E1,1.090481728E-1,5.969025940E-2,-5.389053226E-1
1.421883069E1,7.143807411E-1,-4.283212423E-1,-1.110954404E0
1.423883069E1,1.157432556E0,-7.358133793E-1,-1.524841785E0
1.425883069E1,1.285120845E0,-1.193787694E0,-2.146196365E0
1.427883069E1,1.163331747E0,-1.762992024E0,-3.078272104E0
1.429883069E1,9.049183130E-1,-2.561916351E0,-4.100057602E0
1.431883069E1,5.784370303E-1,-2.843944311E0,-4.709683895E0
1.433883069E1,2.300692946E-1,-2.506380081E0,-4.826219559E0
1.435883069E1,9.635962546E-2,-1.802401543E0,-4.659488201E0
1.437883069E1,2.604729235E-1,-1.126435518E0,-4.508743763E0
1.439883225E1,5.580341220E-1,-6.404136419E-1,-4.340127468E0
1.442083069E1,9.579414129E-1,-3.944967687E-1,-4.137948513E0
1.444083225E1,1.326310635E0,-4.592659473E-1,-3.911579609E0
1.446283225E1,1.672287226E0,-7.376285195E-1,-3.707986832E0
1.448483069E1,1.823991179E0,-1.021453977E0,-3.469452858E0
1.450483069E1,1.862842321E0,-1.271961093E0,-3.215873957E0
1.452483069E1,1.863156438E0,-1.415741324E0,-2.865551472E0
1.454483069E1,1.766220808E0,-1.407677889E0,-2.315144300E0
1.456483069E1,1.526203156E0,-1.160364747E0,-1.640644431E0
1.458483069E1,1.065331459E0,-7.730063200E-1,-1.008643270E0
1.460483069E1,3.704112172E-1,-4.332779944E-1,-4.879416823E-1
1.462483069E1,-4.794768393E-1,-6.239552051E-2,-2.734931000E-2
1.464483069E1,-1.200751662E0,3.055198789E-1,3.566056788E-1
1.466483225E1,-1.539345503E0,4.647113681E-1,6.152459979E-1
1.468683069E1,-1.481609941E0,3.377037644E-1,9.539969563E-1
1.470683069E1,-1.386786222E0,2.481160015E-1,1.457018256E0
1.472683225E1,-1.230649114E0,2.075022012E-1,2.195187807E0
1.474683225E1,-9.692860246E-1,1.317549050E-1,2.708489180E0
1.476883069E1,-7.221300006E-1,3.465002179E-1,2.812597990E0
1.478883069E1,-5.319588780E-1,7.021808624E-1,2.641625643E0
1.480883069E1,-3.981794119E-1,1.037318945E0,2.460757256E0
1.482883069E1,-4.958131313E-1,1.335002303E0,2.407681704E0
1.484883069E1,-7.117801905E-1,1.537530303E0,2.449848890E0
1.486883069E1,-9.436471462E-1,1.659982681E0,2.551845789E0
1.488883069E1,-1.012989044E0,1.669704080E0,2.638728380E0
1.490883069E1,-8.371297121E-1,1.577882409E0,2.709798098E0
1.492883069E1,-4.138350189E-1,1.319015145E0,2.789193153E0
1.494883069E1,1.164309159E-1,1.014978766E0,2.797815084E0
1.496883069E1,3.866253197E-1,6.233094335E-1,2.836823225E0
1.498883069E1,2.379407287E-1,1.879021525E-1,2.905833483E0
1.500883069E1,-7.290240377E-2,-8.309512585E-2,3.064693451E0
1.502883225E1,-1.947089285E-1,-2.145533264E-1,3.287397385E0
1.504883225E1,-1.728574038E-1,-2.648886144E-1,3.351084471E0
1.507083069E1,-3.573212624E-1,-1.825788915E-1,3.113021612E0
1.509084475E1,-7.794116735E-1,1.169894189E-1,2.691158056E0
1.511283069E1,-1.222638011E0,6.011786461E-1,2.075824738E0
1.513283069E1,-1.291369081E0,1.062888026E0,1.376366615E0
1.515283069E1,-9.990439415E-1,1.151288986E0,4.879242480E-1
1.517283069E1,-5.844060183E-1,1.260302305E0,-4.735078216E-1
1.519283069E1,-9.356710315E-2,1.401063085E0,-1.132631421E0
1.521283069E1,4.427027702E-1,1.066745281E0,-1.562453628E0
1.523283069E1,8.364490271E-1,2.356194556E-1,-2.028596163E0
1.525283069E1,8.661894798E-1,-8.648804426E-1,-2.747078419E0
1.527283069E1,6.751980782E-1,-1.700736046E0,-3.513522387E0
1.529283225E1,4.588296115E-1,-1.930054903E0,-3.990468502E0
1.531483069E1,4.308345318E-1,-1.498522282E0,-4.120914459E0
1.533483069E1,6.648482680E-1,-8.101469278E-1,-4.029267311E0
1.535483069E1,9.828298092E-1,-9.218829125E-2,-3.836477995E0
1.537483225E1,1.292678118E0,3.739193380E-1,-3.586354971E0
1.539683069E1,1.495659947E0,5.639682412E-1,-3.345970631E0
1.541683069E1,1.630661130E0,4.340633750E-1,-3.186482430E0
1.543683069E1,1.797287703E0,-1.389282104E-2,-3.038338900E0
1.545683225E1,1.897923350E0,-5.452408791E-1,-2.962190151E0
1.547883225E1,1.916720629E0,-1.063237071E0,-2.800677538E0
1.550083225E1,1.776029587E0,-1.412320375E0,-2.451419592E0
1.552083850E1,1.504246950E0,-1.432862997E0,-1.966741681E0
1.554283069E1,1.092174649E0,-1.288594007E0,-1.360135078E0
1.556283069E1,6.344271898E-1,-9.763371944E-1,-8.647582531E-1
1.558283069E1,8.213519305E-2,-5.007873178E-1,-3.266209066E-1
1.560283069E1,-4.079008996E-1,-1.173210293E-1,2.940007150E-1
1.562283069E1,-6.869092584E-1,1.302713752E-1,9.428792000E-1
1.564283069E1,-7.066314220E-1,2.265437394E-1,1.550009489E0
1.566283069E1,-6.226811409E-1,1.714436859E-1,2.068843365E0
1.568283069E1,-5.738642812E-1,1.525417715E-2,2.533799171E0
1.570283069E1,-4.515690506E-1,-2.080606967E-1,2.875709295E0
1.572283225E1,-3.306526244E-1,-2.639286816E-1,3.000308275E0
1.574483069E1,-2.175203860E-1,-1.280897111E-1,2.728036880E0
1.576483069E1,-1.752310544E-1,1.100953668E-1,2.363891363E0
1.578483069E1,-1.071457639E-1,4.246734977E-1,2.282838345E0
1.580483069E1,-1.126610041E-1,8.033052683E-1,2.428555727E0
1.582483069E1,-1.770461947E-1,1.087322712E0,2.570695400E0
1.584483069E1,-2.433163524E-1,1.298839092E0,2.568478823E0
1.586483069E1,-2.096315026E-1,1.409719944E0,2.406616926E0
1.588483069E1,-9.328784794E-2,1.467944026E0,2.221420050E0
1.590483069E1,9.147270769E-2,1.420383811E0,2.089089394E0
1.592483069E1,2.338043004E-1,1.244088173E0,2.065509796E0
1.594483069E1,2.701944113E-1,8.389099836E-1,2.084621191E0
1.596483069E1,1.084373072E-1,4.016177058E-1,2.155080080E0
1.598483069E1,-1.607099175E-1,4.558800161E-2,2.219116211E0
1.600483069E1,-4.129623473E-1,-1.197470427E-1,2.278998613E0
1.602483069E1,-5.391147733E-1,-1.398183256E-1,2.276363134E0
1.604483069E1,-6.875550151E-1,-8.447393775E-3,2.141309500E0
1.606483069E1,-8.473573327E-1,1.949358284E-1,1.810290456E0
1.608483069E1,-9.922196865E-1,6.128200293E-1,1.347935200E0
1.610483069E1,-9.368403554E-1,1.105893016E0,8.452629447E-1
1.612483069E1,-6.689149141E-1,1.399928570E0,1.737649739E-1
1.614483069E1,-2.612583339E-1,1.545489073E0,-6.557551026E-1
1.616483069E1,1.413018554E-1,1.481784582E0,-1.127203465E0
1.618483069E1,4.982740581E-1,9.098575711E-1,-1.367500424E0
1.620483069E1,6.071127653E-1,-1.055924222E-1,-1.855616570E0
1.622483069E1,4.065569937E-1,-1.119663596E0,-2.720374823E0
1.624483069E1,8.300785720E-2,-1.817044854E0,-3.645539045E0
1.626483069E1,-1.664171368E-1,-1.841235042E0,-4.056145191E0
1.628483069E1,-1.149473861E-1,-1.370240569E0,-3.965510130E0
1.630483069E1,2.765299678E-1,-6.598740816E-1,-3.653113842E0
1.632483069E1,8.319460750E-1,1.048942842E-2,-3.334905386E0
1.634483069E1,1.342193127E0,2.526538670E-1,-3.051830292E0
1.636483069E1,1.626245379E0,5.700245500E-2,-2.813627720E0
1.638483069E1,1.728678823E0,-3.602010608E-1,-2.663773775E0
1.640483069E1,1.697629452E0,-7.582408190E-1,-2.545807123E0
1.642483069E1,1.514265060E0,-8.770279288E-1,-2.527359009E0
1.644483069E1,1.194520831E0,-8.292757273E-1,-2.424454212E0
1.646483069E1,8.343895674E-1,-8.176344037E-1,-2.046695232E0
1.648483069E1,5.137725472E-1,-7.785564661E-1,-1.478346229E0
1.650483069E1,3.317870796E-1,-7.076960802E-1,-9.651670456E-1
1.652483069E1,1.945867538E-1,-6.163979173E-1,-5.243842006E-1
1.654483069E1,-1.652826741E-2,-5.704433918E-1,-1.601165086E-1
1.656483069E1,-3.270572424E-1,-3.909886479E-1,1.684242785E-1
1.658483069E1,-5.681744814E-1,-8.669050038E-2,5.502324700E-1
1.660483225E1,-5.820673108E-1,1.163261905E-1,8.002508879E-1
1.662483225E1,-6.408848763E-1,2.110801190E-1,8.866097927E-1
1.664683069E1,-9.097005129E-1,2.233672440E-1,1.191763163E0
1.666683069E1,-1.200402498E0,1.955117881E-1,1.673491478E0
1.668683069E1,-1.316170216E0,3.576005101E-1,2.143159628E0
1.670683069E1,-1.059030890E0,6.010564566E-1,2.307744026E0
1.672683069E1,-6.287723184E-1,9.715724587E-1,1.965816736E0
1.674683069E1,-3.321186900E-1,1.374917984E0,1.454993725E0
1.676683069E1,-3.243170679E-1,1.612946033E0,1.144621849E0
1.678683069E1,-4.932125807E-1,1.745608449E0,1.141410470E0
1.680683225E1,-7.565129399E-1,1.827150226E0,1.251034498E0
1.682883069E1,-9.096655846E-1,1.914416790E0,1.297722101E0
1.684883069E1,-8.288917542E-1,1.968137980E0,1.206179619E0
1.686883069E1,-6.246184111E-1,1.905533075E0,1.092296839E0
1.688883069E1,-4.389677644E-1,1.714367151E0,1.021261930E0
1.690883069E1,-4.169591665E-1,1.478765130E0,1.081144214E0
1.692883069E1,-5.751034617E-1,1.249411345E0,1.238939404E0
1.694883069E1,-7.703709006E-1,1.065977335E0,1.409126520E0
1.696883225E1,-1.049204707E0,1.131025672E0,1.531788230E0
1.699084475E1,-1.598896146E0,1.420663118E0,1.700195074E0
1.701283069E1,-2.417542696E0,1.298088670E0,1.812454581E0
1.703283069E1,-2.804272890E0,8.818973899E-1,1.980250597E0
1.705283069E1,-2.680057764E0,3.310714960E-1,2.151240587E0
1.707283069E1,-2.278736830E0,9.058258496E-3,2.246989250E0
1.709283069E1,-1.743601322E0,-1.182460561E-1,2.266083241E0
1.711283069E1,-1.228031158E0,1.648114473E-1,2.078023911E0
1.713283069E1,-5.941798687E-1,6.259274483E-1,1.739621997E0
1.715283069E1,1.011418328E-1,7.734775543E-1,1.219461560E0
1.717284631E1,5.966058969E-1,6.002536416E-1,4.690223336E-1
1.719483069E1,7.626565099E-1,2.325127572E-1,-3.503050208E-1
1.721483069E1,4.220555127E-1,4.764748737E-3,-8.935038447E-1
1.723483069E1,-2.730044127E-1,2.965314388E-1,-1.246077776E0
1.725483069E1,-6.983236670E-1,8.999091983E-1,-1.482569933E0
1.727483069E1,-6.428222060E-1,1.351932049E0,-1.484018564E0
1.729483069E1,-2.849948108E-1,1.376401544E0,-1.195707560E0
1.731483069E1,1.349139512E-1,1.104217410E0,-7.327764630E-1
1.733483069E1,3.925420046E-1,7.445749044E-1,-3.472855985E-1
1.735483069E1,4.756545722E-1,5.111720562E-1,-1.755103022E-1
1.737483069E1,3.630633950E-1,4.440292120E-1,-7.185520232E-2
1.739483069E1,1.617920250E-1,4.686732590E-1,-9.822712839E-2
1.741483069E1,-1.153837144E-1,5.356590152E-1,-2.834589183E-1
1.743483069E1,-4.541346729E-1,6.571688056E-1,-4.852364361E-1
1.745483694E1,-8.417723179E-1,6.511648893E-1,-5.371250510E-1
1.747683069E1,-1.260529160E0,4.930729568E-1,-5.704608560E-1
1.749683069E1,-1.449600697E0,3.794869483E-1,-6.043028235E-1
1.751683225E1,-1.408655286E0,3.244741559E-1,-4.849397242E-1
1.753883069E1,-1.116190434E0,2.988876402E-1,-1.152440906E-1
1.755883069E1,-9.824807644E-1,1.097637564E-1,3.123790324E-1
1.757883069E1,-1.163419008E0,4.302236438E-2,4.946961105E-1
1.759883069E1,-1.344217658E0,2.682920098E-1,4.908040464E-1
1.761883069E1,-1.180994511E0,5.803394318E-1,3.581590056E-1
1.763883069E1,-5.994507670E-1,8.366584778E-1,2.923077345E-1
1.765883069E1,3.826634288E-1,7.981739640E-1,3.883706629E-1
1.767883069E1,1.305087447E0,4.406432807E-1,5.473003387E-1
1.769883069E1,1.739883780E0,1.629090309E-1,5.065818429E-1
1.771883069E1,1.582158446E0,3.200933710E-2,1.403419226E-1
1.773883069E1,9.699841738E-1,7.058111578E-2,-3.114714622E-1
1.775883069E1,2.899689972E-1,1.917767823E-1,-5.936039090E-1
1.777883069E1,-1.710248142E-1,1.794372946E-1,-7.382218838E-1
1.779883069E1,-3.397283256E-1,7.192502171E-2,-8.135154247E-1
1.781883069E1,-2.495122701E-1,-1.566258520E-1,-8.207759857E-1
1.783883225E1,-1.326450263E-3,-4.837529063E-1,-6.582683921E-1
1.786083225E1,2.333854288E-1,-7.920478582E-1,-3.287502229E-1
1.788083225E1,4.075518250E-1,-9.040979743E-1,-7.892379165E-2
1.790283069E1,5.324999690E-1,-9.378875494E-1,1.617920212E-2
1.792283069E1,5.541943908E-1,-8.385085464E-1,-3.272492439E-2
1.794283069E1,4.337492287E-1,-6.156474352E-1,-1.631882787E-1
1.796283069E1,2.215870023E-1,-2.779785991E-1,-3.492054641E-1
1.798283069E1,1.270250678E-1,-6.824237108E-2,-4.861265421E-1
1.800283069E1,1.718451232E-1,-6.700319052E-2,-5.587148070E-1
1.802283069E1,1.146681309E-1,-9.944885969E-2,-6.875026226E-1
1.804283069E1,-3.735004691E-3,-1.727526933E-1,-7.715926170E-1
1.806283069E1,1.202357337E-1,-2.923600972E-1,-5.740736723E-1
1.808283069E1,4.300142229E-1,-6.565055847E-1,-4.539426863E-1
1.810283069E1,6.694559455E-1,-1.033915639E0,-4.983613193E-1
1.812283069E1,7.701963186E-1,-1.450071931E0,-5.704259276E-1
1.814283069E1,7.261791229E-1,-1.788945079E0,-5.991017222E-1
1.816283069E1,6.727371812E-1,-1.948433161E0,-5.679475665E-1
1.818283069E1,6.734178066E-1,-2.015331745E0,-5.755397677E-1
1.820283069E1,7.213096619E-1,-1.875722766E0,-6.841865182E-1
1.822283069E1,8.587543368E-1,-1.574217200E0,-8.476365805E-1
1.824283069E1,1.155146122E0,-1.212480187E0,-8.396080732E-1
1.826283069E1,1.531107545E0,-1.058437467E0,-7.301585078E-1
1.828283069E1,1.733810067E0,-1.034491539E0,-6.129421592E-1
1.830283069E1,1.868671656E0,-1.008695602E0,-6.029239893E-1
1.832284788E1,1.990460753E0,-9.349204898E-1,-7.510151863E-1
1.834483069E1,2.022156000E0,-8.499404192E-1,-9.197186828E-1
1.836483069E1,1.823903918E0,-8.257327080E-1,-9.875596762E-1
1.838483069E1,1.453021526E0,-6.984109282E-1,-9.302779436E-1
1.840483069E1,9.070127010E-1,-4.154232740E-1,-9.591456652E-1
1.842483069E1,1.968207806E-1,-9.126326442E-2,-1.073726535E0
1.844483069E1,-4.829674959E-1,3.577052355E-1,-1.182338357E0
1.846483225E1,-9.917833209E-1,7.765668035E-1,-1.053759933E0
1.848683069E1,-1.348249435E0,1.117185235E0,-6.021560431E-1
1.850683069E1,-1.522223830E0,1.334653258E0,-2.143962383E-1
1.852683069E1,-1.842683673E0,1.611043572E0,1.301492006E-1
1.854683069E1,-2.050779343E0,1.603049994E0,6.942396164E-1
1.856683069E1,-1.786484122E0,1.196754813E0,1.359244943E0
1.858683225E1,-1.109697819E0,5.185547471E-1,1.749884605E0
1.860883069E1,2.911209129E-2,-3.162536621E-1,1.769973278E0
1.862883069E1,1.221468687E0,-1.066465974E0,1.622632623E0
1.864883069E1,1.741803646E0,-1.419685721E0,1.010964513E0
1.866883069E1,1.161499143E0,-1.116242766E0,3.117507100E-1
1.868883069E1,4.834562168E-2,-3.367438316E-1,3.839724232E-3
1.870883069E1,-6.762802005E-1,4.123514891E-1,1.458746195E-1
1.872883069E1,-7.358831763E-1,1.013285756E0,4.743630290E-1
1.874883069E1,-4.150393009E-1,1.308927178E0,6.544461250E-1
1.876883069E1,-2.935643867E-2,1.309729934E0,6.393489838E-1
1.878883069E1,2.055125237E-1,1.125318527E0,4.355469048E-1
1.880883069E1,2.587974072E-1,7.657806873E-1,2.545562685E-1
1.882883069E1,1.872040182E-1,4.113740921E-1,1.992118806E-1
1.884883069E1,8.548622578E-2,9.993755072E-2,6.134832278E-2
1.886883069E1,-1.358389705E-1,-7.560766488E-2,-8.122762293E-2
1.888883069E1,-5.713858604E-1,-3.238807619E-1,1.636944264E-1
1.890883069E1,-8.536928892E-1,-6.988996267E-1,8.155748844E-1
1.892883069E1,-8.039858937E-1,-1.024613023E0,1.271611929E0
1.894883069E1,-6.683912873E-1,-1.120309353E0,1.269151092E0
1.896883069E1,-5.432162881E-1,-7.909134030E-1,1.008765340E0
1.898883225E1,-3.337942064E-1,-2.715034187E-1,4.767017663E-1
1.900883225E1,-1.236565784E-1,2.001194507E-1,-1.549328715E-1
1.903083069E1,2.192482650E-1,6.890385151E-1,-6.477440596E-1
1.905085569E1,7.446621656E-1,6.369578838E-1,-8.514239788E-1
1.907283225E1,1.026707411E0,-9.876818210E-2,-1.339732170E0
1.909483069E1,8.457865715E-1,-7.946833372E-1,-2.067604303E0
1.911483069E1,7.191280127E-1,-9.333846569E-1,-2.640613317E0
1.913483069E1,7.995178699E-1,-7.518005967E-1,-2.895658255E0
1.915483225E1,1.097724795E0,-3.351555765E-1,-2.726972342E0
1.917683225E1,1.571930766E0,1.312313080E-1,-2.302316189E0
1.919883069E1,1.945675611E0,3.442312777E-1,-2.042314529E0
1.921883069E1,2.016832590E0,4.570668340E-1,-1.872022748E0
1.923883069E1,1.886334419E0,3.847403824E-1,-1.662199259E0
1.925883225E1,1.737405419E0,7.079055160E-2,-1.445097685E0
1.928083069E1,1.668866396E0,-5.107531548E-1,-1.149979949E0
1.930083069E1,1.595789433E0,-1.020267129E0,-9.772621989E-1
1.932083069E1,1.483826518E0,-1.430960536E0,-9.343619943E-1
1.934083069E1,1.371479750E0,-1.744264603E0,-8.850913644E-1
1.936083225E1,1.088352442E0,-1.616192341E0,-7.123910189E-1
1.938283069E1,4.663519859E-1,-1.259830952E0,-4.982216954E-1
1.940283069E1,-3.030415177E-1,-6.871885061E-1,-3.305828273E-1
1.942283069E1,-1.002936006E0,-3.459242731E-2,-2.591464818E-1
1.944283069E1,-1.393331289E0,5.200906396E-1,-7.993607968E-2
1.946283225E1,-1.509221077E0,9.843482375E-1,2.356194556E-1
1.948483225E1,-1.498626947E0,1.096311092E0,5.658706427E-1
1.950683069E1,-1.609804392E0,7.578045130E-1,9.032776952E-1
1.952683069E1,-1.812384844E0,4.305378199E-1,1.146681309E0
1.954683069E1,-1.838215709E0,1.115963534E-1,1.408445835E0
1.956683069E1,-1.644850612E0,-1.357691586E-1,1.612666726E0
1.958683225E1,-1.318247199E0,-1.133242249E-1,1.699671388E0
1.960883069E1,-7.395832539E-1,3.211405873E-2,1.650557876E0
1.962883069E1,-1.901536286E-1,2.704736590E-1,1.518890262E0
1.964883069E1,-5.468116701E-2,5.218709111E-1,1.258295178E0
1.966884006E1,-2.883982062E-1,8.256279826E-1,9.424778223E-1
1.969083225E1,-6.935589314E-1,1.274770975E0,7.126004696E-1
1.971083538E1,-9.249372482E-1,1.673526406E0,6.893701553E-1
1.973088225E1,-9.582206607E-1,2.063014030E0,8.200429678E-1
1.975283225E1,-8.875871897E-1,2.380471945E0,1.097969174E0
1.977283381E1,-7.006100416E-1,2.368603706E0,1.126156211E0
1.979483069E1,-4.780980349E-1,1.856332183E0,1.006252170E0
1.981483069E1,-3.080331683E-1,9.919927716E-1,9.557597637E-1
1.983483069E1,-1.880068630E-1,8.518952131E-2,1.186335206E0
1.985483225E1,-8.347909898E-2,-5.547180176E-1,1.691101909E0
1.987484319E1,-9.913469851E-2,-7.886444926E-1,2.075021982E0
1.989683069E1,-3.296054304E-1,-5.951398015E-1,2.221245527E0
1.991683069E1,-6.391046643E-1,-2.613455951E-1,2.202954531E0
1.993683069E1,-8.856498599E-1,-1.516691130E-2,2.101027250E0
1.995683069E1,-1.081702709E0,2.239606529E-1,2.015104771E0
1.997683069E1,-1.336032033E0,3.479488492E-1,1.716531277E0
1.999683069E1,-1.515661359E0,4.701567888E-1,1.171185732E0
2.001683225E1,-1.505555868E0,7.205068469E-1,5.529726744E-1
2.003883069E1,-1.152929544E0,7.662519217E-1,-2.217964381E-1
2.005883225E1,-9.744521976E-1,5.152910352E-1,-1.041333199E0
2.008083225E1,-1.017474532E0,9.131562710E-2,-2.008385181E0
2.010084319E1,-1.040722370E0,-2.169444226E-2,-2.835304737E0
2.012283225E1,-9.011135101E-1,3.611086309E-1,-3.375484228E0
2.014283225E1,-5.733755827E-1,8.231496215E-1,-3.435279131E0
2.016283225E1,-1.354899108E-1,1.209233880E0,-3.172938824E0
2.018283225E1,4.076914489E-1,1.479009509E0,-2.718629599E0
2.020283225E1,9.349204898E-1,1.589785457E0,-2.224177837E0
2.022483069E1,1.446808100E0,1.485397339E0,-1.821722269E0
2.024484163E1,1.820657611E0,1.126103878E0,-1.662321329E0
2.026683069E1,2.113855600E0,5.148721337E-1,-1.688030124E0
2.028683069E1,2.246343374E0,-9.550441802E-2,-1.733687878E0
2.030683069E1,2.300483465E0,-7.623772621E-1,-1.785943031E0
2.032683069E1,2.286154509E0,-1.091249704E0,-1.749919415E0
2.034683069E1,2.073538303E0,-8.704655170E-1,-1.670210242E0
2.036683069E1,1.340342999E0,-2.259677798E-1,-1.528908372E0
2.038683069E1,4.478514940E-2,5.034402013E-1,-1.371758938E0
2.040683069E1,-1.354567528E0,1.187015891E0,-1.026777148E0
2.042683069E1,-2.279993296E0,1.485606790E0,-3.200759292E-1
2.044683069E1,-2.629862070E0,1.270774245E0,5.454677343E-1
2.046683069E1,-2.480706215E0,7.993608117E-1,1.316484451E0
2.048683225E1,-1.953791380E0,7.483971864E-2,1.794809341E0
2.050683225E1,-1.432444096E0,-7.085512877E-1,2.055020571E0
2.052683225E1,-1.213195801E0,-1.526482463E0,2.214770555E0
2.054683225E1,-1.197644949E0,-2.071915150E0,2.413458824E0
2.056883069E1,-1.159300089E0,-1.974717855E0,2.615864515E0
2.058883069E1,-8.862083554E-1,-1.250598192E0,2.641887426E0
2.060883069E1,-5.072275996E-1,-2.233323306E-1,2.467494011E0
2.062883225E1,-4.532968998E-1,6.045994759E-1,2.124257565E0
2.065085881E1,-8.430812955E-1,1.367954135E0,1.680298328E0
2.067283225E1,-1.346224785E0,1.927035451E0,1.320132136E0
2.069483069E1,-1.571389675E0,2.179881334E0,1.085141063E0
2.071483069E1,-1.421099424E0,2.256745577E0,8.039160967E-1
2.073483069E1,-9.325468540E-1,2.130034685E0,4.634198248E-1
2.075483069E1,-2.045002282E-1,1.688675880E0,1.159422249E-1
2.077483069E1,2.482381761E-1,1.015292883E0,3.770958483E-1
2.079483069E1,4.375889599E-1,5.414360166E-1,5.956634283E-1
2.081483069E1,4.280070961E-1,3.017674387E-1,1.004122853E0
2.083483069E1,4.420569837E-1,9.000662714E-2,1.430402040E0
2.085483694E1,5.320810676E-1,1.900663599E-2,1.726182938E0
2.087683069E1,5.604950190E-1,-1.130973361E-2,1.851131082E0
2.089683069E1,4.401371181E-1,-2.796017379E-2,1.807811975E0
2.091683069E1,1.886002719E-1,4.764748737E-3,1.742885828E0
2.093683069E1,-1.206895187E-1,3.529055789E-2,1.625652075E0
2.095683069E1,-4.409399927E-1,-6.520549953E-2,1.416561604E0
2.097683069E1,-8.347211480E-1,-2.168397009E-1,9.544158578E-1
2.099683069E1,-1.155879259E0,-1.238834709E-1,4.755673110E-1
2.101683225E1,-1.057878971E0,1.206022501E-1,1.619665474E-1
2.103683225E1,-7.090923786E-1,6.674139202E-2,-5.949478149E-1
2.105883069E1,-4.964065552E-1,1.055924222E-2,-2.246535540E0
2.107883069E1,-5.228133798E-1,9.876818210E-2,-3.408488274E0
2.109883069E1,-6.963165402E-1,6.077236533E-1,-3.823737144E0
2.111883069E1,-7.012209296E-1,1.576084614E0,-4.061520576E0
2.113883069E1,-4.044800401E-1,2.400211573E0,-4.411162376E0
2.115883069E1,-1.005135104E-1,2.926306248E0,-4.748482227E0
2.117883069E1,3.349286914E-1,3.365029573E0,-5.183488369E0
2.119883069E1,8.802219033E-1,3.531726122E0,-5.728519440E0
2.121883069E1,1.472935677E0,3.352306128E0,-5.979358196E0
2.123883069E1,1.928937912E0,3.288269997E0,-5.961817741E0
2.125883069E1,2.155097723E0,2.964441776E0,-5.771960735E0
2.127883069E1,2.294636726E0,2.322561979E0,-5.650660515E0
2.129883069E1,2.151135683E0,1.432391763E0,-5.510493279E0
2.131883069E1,1.894711971E0,1.029761672E0,-5.391269684E0
2.133883069E1,1.487823367E0,8.561887145E-1,-5.202302933E0
2.135883069E1,8.596968055E-1,8.343721032E-1,-4.927378654E0
2.137883069E1,-1.739395112E-1,1.161376953E0,-4.588121414E0
2.139883069E1,-1.517930269E0,2.122756720E0,-4.255426884E0
2.141883069E1,-1.989710212E0,3.369864225E0,-4.020610332E0
2.143883225E1,-1.503234625E0,3.475229740E0,-3.550819874E0
2.145883225E1,-7.366336584E-1,3.406987429E0,-3.081291437E0
2.147883225E1,-3.153460920E-1,2.748142958E0,-3.061639071E0
2.150083225E1,-3.406009972E-1,7.973536849E-1,-3.505266905E0
2.152083225E1,-3.813020885E-1,-4.176398218E-1,-3.074764013E0
2.154083225E1,-6.893352270E-1,-9.892351627E-1,-2.219255924E0
2.156283069E1,-1.041996479E0,-8.810247779E-1,-1.573414326E0
2.158283225E1,-1.093117118E0,-1.060811132E-1,-1.496375442E0
2.160483069E1,-1.072714210E0,1.654135823E0,-1.174693823E0
2.162483225E1,-1.509308338E0,3.129584789E0,-6.210928559E-1
2.164483225E1,-2.113332033E0,3.538393259E0,3.277379274E-1
2.166683069E1,-3.178157330E0,3.944444180E0,9.025446773E-1
2.168683069E1,-3.243642092E0,3.414300442E0,7.619234920E-1
2.170683069E1,-2.093574762E0,2.178432703E0,5.756968260E-1
2.172687131E1,-2.462659627E-1,1.179772735E0,-4.116533697E-1
2.174883069E1,2.190964222E0,-1.655444801E-1,-7.241894603E-1
2.176883225E1,4.138315201E0,-1.409894466E0,-2.851867974E-1
2.179084631E1,4.413536072E0,-1.743374467E0,-6.747443229E-2
2.181283069E1,3.183428288E0,-9.466665983E-1,1.822647303E-1
2.183283069E1,1.974962234E0,5.523966998E-2,3.747396469E-1
2.185283069E1,1.463441133E0,5.047317743E-1,5.776690841E-1
2.187283069E1,1.347847939E0,6.940999627E-1,5.946685672E-1
2.189283069E1,1.250929832E0,6.704682112E-1,4.207290709E-1
2.191283069E1,1.299851418E0,5.552067161E-1,5.005429983E-1
2.193283069E1,1.277423978E0,2.240828276E-1,9.631075859E-1
2.195283225E1,6.073047519E-1,-9.726545215E-1,8.242840767E-1
2.197283538E1,-4.544488192E-1,-1.286255240E0,7.712261081E-1
2.199483225E1,-1.734665275E0,-1.066797614E0,5.974087715E-1
2.201683225E1,-3.306334257E0,9.522516280E-2,4.140968025E-1
2.203883069E1,-4.565414906E0,1.160609007E0,1.264264107E0
2.205883069E1,-5.397273540E0,2.027322054E0,2.137748957E0
2.207884006E1,-5.810323238E0,1.505695581E0,2.350399971E0
2.210083225E1,-5.329328060E0,1.154011711E-1,1.717944980E0
2.212083225E1,-4.433904171E0,-7.693935037E-1,9.798103571E-1
2.214283069E1,-3.770103216E0,-1.496200919E0,6.203947067E-1
2.216283069E1,-3.278548717E0,-1.739587069E0,4.355818331E-1
2.218283225E1,-2.703864098E0,-1.549538255E0,-8.103563637E-2
2.220483069E1,-2.557413578E0,-1.923387766E0,-5.657484531E-1
2.222483069E1,-2.466673851E0,-2.721561670E0,-4.900535345E-1
2.224483069E1,-1.936844230E0,-3.130439997E0,-4.208337963E-1
2.226483069E1,-1.598459840E0,-3.235962629E0,-7.001214027E-1
2.228483225E1,-2.081671715E0,-3.722438097E0,-9.127722979E-1
2.230683069E1,-3.746715784E0,-3.837490320E0,-8.721584678E-1
2.232683069E1,-5.245150566E0,-1.796676874E0,-1.019376993E0
2.234683069E1,-5.695096493E0,5.558873415E-1,-1.490825295E0
2.236683069E1,-5.930541515E0,9.247975945E-1,-2.506990910E0
2.238683069E1,-6.171588898E0,-4.317246377E-1,-3.469662189E0
2.240683069E1,-5.900068283E0,-2.414156914E0,-3.199101210E0
2.242683069E1,-5.145108223E0,-3.998479605E0,-2.099351883E0
2.244683069E1,-4.377215862E0,-4.378140926E0,-1.014961362E0
2.246683069E1,-3.211388350E0,-3.792600393E0,-4.142538905E-1
2.248683069E1,-1.563483357E0,-3.399604559E0,-2.848726511E-1
2.250683225E1,-2.884156704E-1,-3.315287828E0,-2.135759443E-1
2.252683225E1,4.730365872E-1,-3.298707247E0,-2.743657492E-2
2.254683225E1,1.117097974E0,-3.435785294E0,4.507836401E-1
2.256883225E1,1.626856327E0,-3.690900087E0,1.086153269E0
2.258883225E1,1.510739565E0,-4.180011272E0,2.082352400E0
2.261083069E1,9.845751524E-1,-3.999160051E0,3.480867147E0
2.263084319E1,1.440821648E0,-3.641332865E0,4.377617359E0
2.265085725E1,2.440511227E0,-3.244724035E0,4.335502625E0
2.267283225E1,3.073716879E0,-3.650705099E0,3.494463205E0
2.269283225E1,3.024079561E0,-5.016477585E0,3.717202187E0
2.271483069E1,2.970218658E0,-5.762379169E0,4.561959267E0
2.273483069E1,3.116389990E0,-5.748695850E0,4.995847702E0
2.275483069E1,3.282912016E0,-5.457068443E0,4.992898464E0
2.277483069E1,3.157876492E0,-4.617844582E0,4.435736656E0
2.279483069E1,2.204193830E0,-3.908839464E0,3.512352943E0
2.281483069E1,3.875852525E-1,-2.494162798E0,2.172411203E0
2.283483069E1,-1.172669291E0,-6.568022966E-1,3.874107301E-1
2.285483225E1,-1.553709507E0,6.507285833E-1,-1.088334918E0
2.287683069E1,-7.866896987E-1,5.938831568E-1,-1.580046535E0
2.289683069E1,9.112364054E-2,7.668976486E-2,-9.763022661E-1
2.291683069E1,8.460308909E-1,-1.369559914E-1,4.649557173E-2
2.293683069E1,1.066308856E0,1.499237865E-2,7.247479558E-1
2.295683069E1,9.985552430E-1,1.979727000E-1,9.672091007E-1
2.297683069E1,9.238027930E-1,1.783552021E-1,8.506734967E-1
2.299683069E1,7.917860746E-1,-8.405505866E-2,4.235739410E-1
2.301683069E1,5.900608897E-1,-2.870891988E-1,-1.133591309E-1
2.303683225E1,2.825513482E-1,-9.944885969E-2,-6.235886812E-1
2.305883069E1,-4.194026068E-2,4.670675695E-1,-9.140114784E-1
2.307883069E1,-2.229658067E-1,1.114462495E0,-7.841240764E-1
2.309883069E1,-2.546260953E-1,1.561074853E0,-2.849599123E-1
2.311883069E1,-2.295980603E-1,1.439303160E0,3.295705318E-1
2.313883069E1,-2.555685639E-1,1.144394875E0,6.150540113E-1
2.315883069E1,-4.324576855E-1,1.083919287E0,6.937858462E-1
2.317883069E1,-9.015847445E-1,6.450213194E-1,3.176499307E-1
2.319883069E1,-1.806188822E0,-4.332081676E-1,-3.821747303E-1
2.321883069E1,-2.262068987E0,-1.509657383E0,-1.281071603E-1
2.323883069E1,-1.261977792E0,-2.561741829E0,7.116230726E-1
2.325883069E1,1.119436741E0,-3.318813324E0,9.292830825E-1
2.327883069E1,2.969730139E0,-2.812772512E0,-1.231504306E-1
2.329883069E1,2.477267981E0,-1.205394149E0,-1.495136261E0
2.331883069E1,4.005356133E-1,1.043148398E0,-1.984875679E0
2.333883069E1,-1.511489987E0,2.811463594E0,-1.736585140E0
2.335883069E1,-2.257670641E0,3.415574312E0,-1.213684559E0
2.337883069E1,-2.002678156E0,3.297729731E0,-9.054418802E-1
2.339883069E1,-1.301230192E0,2.995037317E0,-8.420515656E-1
2.341883069E1,-6.657907367E-1,2.920284986E0,-7.251144648E-1
2.343883069E1,-1.459269822E-1,3.024428606E0,-4.758814573E-1
2.345883069E1,1.157851443E-1,3.136409044E0,-1.950754523E-1
2.347883225E1,2.698977292E-1,3.030554771E0,2.321287990E-3
2.350084944E1,5.438271165E-1,2.365008354E0,1.796641946E-1
2.352283069E1,7.835131884E-1,1.515905738E0,4.574857056E-1
2.354283225E1,7.080975175E-1,8.089600801E-1,6.028541923E-1
2.356483069E1,3.149970174E-1,-3.815289587E-2,7.291461825E-1
2.358483069E1,-1.006356850E-1,-1.036359072E0,1.210246205E0
2.360483069E1,-2.611187100E-1,-3.122673273E0,1.841741204E0
2.362483069E1,4.322831333E-1,-5.732568741E0,1.875391126E0
2.364483069E1,1.425340533E0,-7.678488731E0,9.586046338E-1
2.366483069E1,1.158549547E0,-7.668522835E0,-1.342856288E-1
2.368483069E1,-5.241398215E-1,-6.430857658E0,-1.150573373E0
2.370483069E1,-1.602858067E0,-5.118509769E0,-2.649706602E0
2.372483069E1,-1.324652553E0,-4.158421516E0,-4.275428295E0
2.374483069E1,-5.849296451E-1,-3.036104918E0,-5.307354450E0
2.376483069E1,-1.302713752E-1,-1.938397527E0,-5.917067528E0
2.378483069E1,6.627015024E-2,-1.018713832E0,-6.011106014E0
2.380483069E1,1.416509151E-1,-7.667056918E-1,-6.069853783E0
2.382483069E1,1.706582904E-1,-8.424006104E-1,-6.303308964E0
2.384483069E1,1.561720669E-1,-1.086205602E0,-6.465798855E0
2.386483069E1,1.432391703E-1,-1.107934952E0,-6.168918610E0
2.388483069E1,1.464156657E-1,-1.050775528E0,-5.788192272E0
2.390483069E1,1.056098714E-1,-9.746616483E-1,-5.726582527E0
2.392483069E1,1.649336070E-1,-1.309188962E0,-6.029344559E0
2.394483069E1,3.797836304E-1,-1.953634262E0,-6.213878155E0
2.396483069E1,1.924574524E-1,-2.692344904E0,-6.393088818E0
2.398483069E1,-7.884699106E-1,-2.932397366E0,-6.573817730E0
2.400483069E1,-2.155952930E0,-2.158012390E0,-6.280916214E0
2.402483069E1,-3.000936508E0,-4.072725773E-1,-5.258171082E0
2.404483069E1,-2.622095346E0,1.372038245E0,-4.275323391E0
2.406483069E1,-1.384272933E0,2.012713671E0,-3.833842516E0
2.408483069E1,-2.052681744E-1,1.384796619E0,-3.508984566E0
2.410483069E1,-9.646435082E-2,3.718074858E-1,-2.888694525E0
2.412484788E1,-9.421811104E-1,2.356892675E-1,-1.408533096E0
2.414683069E1,-1.754055858E0,1.025834680E0,3.160093129E-1
2.416683069E1,-1.848129153E0,1.974717855E0,9.466665983E-1
2.418683069E1,-1.827045560E0,2.930268288E0,6.628236771E-1
2.420683069E1,-1.860311508E0,3.343352795E0,1.984090358E-1
2.422683069E1,-1.766325593E0,2.985944271E0,1.211433038E-1
2.424683069E1,-1.575351596E0,1.819156647E0,3.558377326E-1
2.426683069E1,-1.430803418E0,8.421911597E-1,5.745449066E-1
2.428683069E1,-1.483268023E0,3.466922045E-1,6.059085131E-1
2.430683225E1,-1.491331458E0,1.780759394E-1,4.293684363E-1
2.432683225E1,-1.366924405E0,-5.380849913E-2,7.941248268E-2
2.434883225E1,-1.357045889E0,-7.464773208E-2,-1.798387319E-1
2.437085569E1,-1.639928818E0,4.000294581E-2,-1.283689588E-1
2.439283225E1,-1.950422883E0,-7.874925435E-2,2.420073599E-1
2.441483069E1,-1.815055132E0,-6.290341020E-1,7.242592573E-1
2.443483225E1,-1.400487065E0,-1.544249892E0,1.331703663E0
2.445483538E1,-1.105578780E0,-2.298406601E0,1.930456281E0
2.447683381E1,-1.404850364E0,-3.520276785E0,2.523746014E0
2.449883069E1,-1.705954671E0,-5.738956928E0,3.158539772E0
2.451883225E1,-1.083482981E0,-7.342896938E0,2.894174814E0
2.454083069E1,7.410667837E-2,-7.328480244E0,2.284426451E0
2.456083225E1,1.069939137E0,-5.549047470E0,2.450529575E0
2.458083225E1,1.870242476E0,-3.697305441E0,3.566283703E0
2.460283069E1,2.362512589E0,-2.172673225E0,5.257263184E0
2.462283069E1,2.353593826E0,-7.825707197E-1,6.293098927E0
2.464283069E1,1.784267545E0,7.549421787E-1,6.405759811E0
2.466283069E1,9.109571576E-1,1.945186853E0,5.918114662E0
2.468283069E1,4.381823540E-1,2.289540291E0,5.317861080E0
2.470283225E1,6.360852718E-1,1.962238789E0,4.752636433E0
2.472483069E1,1.064807892E0,1.050443888E0,3.858050346E0
2.474483225E1,1.333134890E0,2.887472808E-1,2.796576023E0
2.476683225E1,1.227926373E0,-2.661627159E-2,1.509116411E0
2.478883069E1,4.707152843E-1,1.514422148E-1,6.313030124E-1
2.480883069E1,-5.346641541E-1,4.842416048E-1,4.516039491E-1
2.482883069E1,-1.299170732E0,7.582408190E-1,9.598263502E-1
2.484883069E1,-1.457646608E0,9.572956562E-1,1.547723055E0
2.486883069E1,-1.346870542E0,1.125754833E0,1.529554248E0
2.488883069E1,-1.718852639E0,1.122473598E0,1.062347054E0
2.490883069E1,-2.495140076E0,8.491899371E-1,1.773900270E0
2.492883069E1,-2.031598091E0,4.058763087E-1,3.944304466E0
2.494883069E1,-2.557430863E-1,5.573011041E-1,5.687207699E0
2.496883225E1,1.743217349E0,1.914224744E0,5.415826321E0
2.499083069E1,2.811620712E0,2.498386383E0,3.691266537E0
2.501083850E1,2.348637104E0,2.320816755E0,2.334604740E0
2.503283225E1,1.094042182E0,2.406233072E0,1.676615596E0
2.505483069E1,3.757519424E-1,2.293746710E0,1.194939613E0
2.507483069E1,3.671998084E-1,1.886666059E0,6.603278518E-1
2.509483069E1,5.614898801E-1,1.360903025E0,1.986708343E-1
2.511483069E1,6.058735847E-1,8.996474147E-1,-3.543018363E-3
2.513483069E1,4.389328659E-1,5.377708673E-1,6.202900037E-2
2.515483069E1,3.110002279E-1,1.448623240E-1,2.541722953E-1
2.517483069E1,1.972571164E-1,-2.174854726E-1,4.681147635E-1
2.519483069E1,1.792627722E-1,-5.320636034E-1,5.957506895E-1
2.521483069E1,3.347541392E-1,-8.790001869E-1,4.810127318E-1
2.523483069E1,4.410272539E-1,-1.135458827E0,1.921607554E-2
2.525483069E1,-7.504915446E-2,-1.186265349E0,-8.331154585E-1
2.527483069E1,-1.366627693E0,-1.167590380E0,-2.022871494E0
2.529483225E1,-2.596456528E0,-1.218554020E0,-2.555004835E0
2.531683069E1,-2.303433180E0,-1.434241772E0,-1.805804849E0
2.533683069E1,-1.015642047E0,-1.572908163E0,-1.771770954E0
2.535683069E1,2.243969738E-1,-2.016658068E0,-2.403353214E0
2.537683069E1,1.578981876E0,-1.972588539E0,-3.054989338E0
2.539683069E1,2.680179834E0,-1.589593530E0,-3.349565983E0
2.541683069E1,3.323019505E0,-1.158165574E0,-3.367874622E0
2.543683069E1,3.480622768E0,-9.184969664E-1,-3.356756926E0
2.545683069E1,3.321309090E0,-9.988170266E-1,-3.548376560E0
2.547683069E1,2.981877565E0,-1.432688475E0,-3.845763206E0
2.549683069E1,2.494633913E0,-1.819819927E0,-3.925018549E0
2.551683225E1,2.054933310E0,-2.140192509E0,-3.842220068E0
2.553883069E1,1.838599682E0,-2.458086729E0,-3.917077303E0
2.555883069E1,1.719254017E0,-2.538668633E0,-4.084768772E0
2.557883069E1,1.484419942E0,-2.179409981E0,-4.042252541E0
2.559883069E1,1.152022004E0,-1.600222588E0,-3.587751150E0
2.561883069E1,7.252541184E-1,-1.084495187E0,-3.103771448E0
2.563883069E1,5.104564428E-1,-8.066039085E-1,-2.697825193E0
2.566084475E1,6.487563252E-1,-5.469338298E-1,-2.512663364E0
2.568283069E1,9.949947596E-1,-5.488013029E-1,-2.652795792E0
2.570283069E1,9.296670556E-1,-6.663666964E-1,-2.911837578E0
2.572283069E1,2.649584413E-1,-3.258878887E-1,-2.800694942E0
2.574283069E1,-9.656208754E-1,1.126610041E-1,-1.958067417E0
2.576283069E1,-2.219430447E0,2.024581879E-1,-5.080828071E-1
2.578283225E1,-2.410910606E0,1.811651699E-2,6.679723859E-1
2.580483069E1,-1.188516855E0,-2.024407387E-1,9.911375642E-1
2.582483069E1,2.105216086E-1,1.016479731E-1,7.889237404E-1
2.584483069E1,1.142091155E0,8.338834047E-1,3.238458335E-1
2.586483225E1,1.516429305E0,1.947473288E0,-2.778389752E-1
2.588683225E1,1.028522491E0,3.392675638E0,-5.810026526E-1
2.590683225E1,-4.849222898E-1,4.623028278E0,-5.951223373E-1
2.592683225E1,-2.112895489E0,5.073794365E0,-3.189240098E-1
2.594683225E1,-2.364519596E0,3.732159615E0,-2.814343274E-1
2.596883069E1,-1.251889706E0,1.012064099E0,-4.747644663E-1
2.598883069E1,-3.617369533E-1,-7.439989448E-1,-3.531324565E-1
2.600883069E1,-4.381998181E-1,-1.106137276E0,1.329940930E-2
2.602883225E1,-8.877791762E-1,-7.688350081E-1,2.248333097E-1
2.604883225E1,-9.150936007E-1,-7.456220984E-1,2.464055866E-1
2.607083381E1,-1.592089385E-1,-1.875426054E0,2.321811467E-1
2.609283069E1,3.793473244E-1,-3.137909889E0,2.771582827E-2
2.611283225E1,-5.302310362E-2,-2.638728380E0,-2.989923656E-1
2.613483225E1,-3.353650272E-1,-1.351792455E0,-9.868963957E-1
2.615683069E1,-1.363102160E-2,4.068362340E-2,-1.907365561E0
2.617683069E1,5.782799125E-1,1.112245917E0,-2.534427404E0
2.619683069E1,1.232097745E0,8.037765026E-1,-2.629390955E0
2.621683225E1,1.364184260E0,-1.271088362E0,-2.010444641E0
2.623683381E1,9.312728047E-1,-3.094014883E0,-6.468189955E-1
2.625883225E1,6.778858900E-1,-3.946346521E0,1.248381615E0
2.627883225E1,1.659738302E0,-4.120111465E0,2.476831675E0
2.629883225E1,3.522493362E0,-3.416499376E0,3.163932800E0
2.632083069E1,5.125455856E0,-1.291194558E0,3.443639278E0
2.634083225E1,5.785225391E0,1.062067747E0,2.959153414E0
2.636083225E1,5.483108997E0,3.193603516E0,2.091340780E0
2.638083225E1,4.623429298E0,4.224586964E0,1.251104355E0
2.640283069E1,3.287170649E0,4.091959476E0,1.014036298E0
2.642283069E1,2.394225121E0,3.308219194E0,1.231766105E0
2.644283069E1,2.077430487E0,2.352546692E0,1.654223084E0
2.646283225E1,1.618600845E0,1.155250907E0,2.311007977E0
2.648483069E1,1.002831221E0,-5.765694976E-1,2.978858232E0
2.650483225E1,6.902602911E-1,-2.173004627E0,3.033294916E0
2.652683069E1,-3.818780556E-2,-2.868117094E0,2.214159489E0
2.654683069E1,-1.457419753E0,-1.832979679E0,7.785564661E-1
2.656683069E1,-2.777237654E0,-2.934072912E-1,-8.471130133E-1
2.658683225E1,-3.249366760E0,7.546454668E-1,-2.057167292E0
2.660683225E1,-3.175678968E0,6.235712171E-1,-1.824305415E0
2.662883225E1,-3.472943306E0,-3.635869920E-1,-8.439365029E-1
2.665085100E1,-3.175225019E0,-5.031784251E-2,-7.365289610E-3
2.667283069E1,-1.463807583E0,1.443352342E0,2.873335481E-1
2.669283069E1,-2.268928103E-2,2.490846634E0,3.154857159E-1
2.671283069E1,4.365940988E-1,3.098936796E0,1.123992074E-2
2.673283069E1,4.058937728E-1,2.695940256E0,-5.610884428E-1
2.675283225E1,-1.025031880E-1,1.909878850E0,-9.602627158E-1
2.677483225E1,-6.395235658E-1,1.560935259E0,-8.918457627E-1
2.679683069E1,-1.991420686E-1,1.144482255E0,-7.159515023E-1
2.681683069E1,6.418622732E-1,7.373318076E-1,-7.196865082E-1
2.683683069E1,1.089225054E0,6.287373900E-1,-9.820443988E-1
2.685683069E1,1.245240092E0,4.955164194E-1,-1.452079058E0
2.687683069E1,1.319591045E0,3.935891986E-1,-1.813973069E0
2.689683069E1,1.543202639E0,-6.942919642E-2,-2.181190252E0
2.691683069E1,1.855093002E0,-9.353743196E-1,-2.480880737E0
2.693683069E1,2.048405647E0,-1.576189399E0,-2.726797581E0
2.695683069E1,2.208993435E0,-1.620747685E0,-2.824728012E0
2.697683069E1,2.610105038E0,-2.602984011E-1,-2.581813097E0
2.699683069E1,2.371413708E0,2.171905279E0,-9.948551059E-1
2.701683225E1,8.841837943E-2,1.555245399E0,1.450490832E0
2.703683225E1,-2.677020788E0,-1.102262735E0,2.811498404E0
2.705883225E1,-4.084122658E0,-1.311108828E0,2.885256052E0
2.708083225E1,-3.946870089E0,-6.455449462E-1,2.436532021E0
2.710283225E1,-3.211004496E0,1.776919663E-1,2.495471716E0
2.712483069E1,-2.005104065E0,4.891634285E-1,3.097331047E0
2.714483225E1,-9.656208754E-1,7.820820063E-2,3.627771616E0
2.716683225E1,-4.090353549E-1,-4.830024242E-1,4.127529144E0
2.718883069E1,-2.460739762E-1,-9.135227799E-1,4.782393932E0
2.720883069E1,-7.871434838E-2,-1.254402995E0,4.932631969E0
2.722883069E1,6.752678752E-2,-1.534894943E0,4.600356102E0
2.724883069E1,1.852667034E-1,-1.624395370E0,3.867893934E0
2.726883069E1,3.419100121E-2,-1.373137832E0,2.883580685E0
2.728883225E1,-5.190958381E-1,-1.038209081E0,1.695692062E0
2.731083225E1,-1.464034557E0,-6.862111092E-1,4.080056250E-1
2.733083225E1,-2.822476625E0,2.590941191E-1,-5.515240431E-1
2.735085725E1,-4.064295769E0,2.004719973E0,-5.434431434E-1
2.737283069E1,-4.629887104E0,3.470081091E0,1.015327811E0
2.739283069E1,-4.459106922E0,4.170987606E0,4.457867622E0
2.741283069E1,-3.295687675E0,3.320541143E0,6.652008057E0
2.743283069E1,-1.622353315E0,2.332807064E0,6.271875381E0
2.745283069E1,-2.432116270E-1,1.979203343E0,4.971413136E0
2.747283069E1,5.013458133E-1,2.709152460E0,4.331872463E0
2.749283069E1,3.867300451E-1,3.597647190E0,4.094280720E0
2.751283069E1,-2.438748628E-1,4.538432121E0,3.265999794E0
2.753283069E1,-1.955990493E-1,5.065643787E0,2.274146557E0
2.755283069E1,7.062649131E-1,5.151653290E0,1.601775885E0
2.757283850E1,1.580465436E0,4.872540474E0,1.288716197E0
2.759483069E1,2.031720400E0,4.219403267E0,1.150817752E0
2.761483069E1,1.600711226E0,3.279875040E0,1.384848952E0
2.763483069E1,3.892956972E-1,2.076679945E0,1.494106531E0
2.765483225E1,-9.047437906E-1,1.174484372E0,1.384866357E0
2.767683069E1,-1.928012848E0,5.515938401E-1,1.129769087E0
2.769683069E1,-2.126247406E0,-3.854559660E-1,6.300638318E-1
2.771683069E1,-1.863470554E0,-1.508226275E0,-1.525243223E-1
2.773683069E1,-1.918622971E0,-2.031126976E0,-7.546454668E-1
2.775683069E1,-2.539925337E0,-2.201069593E0,-1.094687939E0
2.777683069E1,-3.732857943E0,-1.995679259E0,-1.322348714E0
2.779683069E1,-4.068763733E0,-1.356888771E0,-1.399649382E0
2.781683069E1,-2.717041254E0,-1.163907766E0,-1.594218612E0
2.783883069E1,1.316676438E-1,-1.889894843E0,-2.147837162E0
2.785883069E1,2.279312611E0,-2.614503145E0,-2.769750357E0
2.787883069E1,3.045948505E0,-2.642585516E0,-3.420007467E0
2.789883069E1,2.326035261E0,-2.991023064E0,-4.416992188E0
2.791883069E1,7.347487211E-1,-3.632047653E0,-5.644220352E0
2.793883069E1,-1.074250117E-1,-3.736278772E0,-6.506308079E0
2.795883069E1,1.319643408E-1,-3.932314157E0,-7.389444828E0
2.797883069E1,8.848121166E-1,-3.854681730E0,-8.522896767E0
2.799883069E1,1.566188693E0,-3.168837309E0,-9.379119873E0
2.801883069E1,2.011282444E0,-1.989431024E0,-9.109466553E0
2.803883069E1,2.185902596E0,-8.992111087E-1,-8.327698708E0
2.805883225E1,2.257024765E0,-1.056098714E-1,-7.623929977E0
2.808083225E1,2.192761898E0,3.665016890E-1,-6.927299023E0
2.810083850E1,2.017007113E0,5.585228205E-1,-6.174765587E0
2.812084319E1,1.865739465E0,3.371976018E-1,-5.524351120E0
2.814283069E1,1.791667700E0,-1.444259882E-1,-5.052466393E0
2.816283069E1,1.670105577E0,-7.568445802E-1,-4.844161510E0
2.818283225E1,1.386838675E0,-1.144674182E0,-4.802273273E0
2.820483225E1,1.054580331E0,-1.404257059E0,-4.818836689E0
2.822683069E1,8.632398248E-1,-1.429826021E0,-4.567631245E0
2.824683069E1,9.295623302E-1,-1.155774474E0,-4.028359413E0
2.826683069E1,1.185392737E0,-4.927413464E-1,-3.504987717E0
2.828683069E1,1.506166816E0,-1.754055917E-2,-3.079040051E0
2.830683225E1,1.306064725E0,-8.011060953E-2,-3.029577494E0
2.832883069E1,3.186272979E-1,5.302310362E-2,-2.994618416E0
2.834883069E1,-3.935717344E-1,5.161636472E-1,-2.004981995E0
2.836883694E1,-3.418227434E-1,6.806784272E-1,-1.164658219E-1
2.839083069E1,-6.298892945E-2,3.618416488E-1,2.194681644E0
2.841083069E1,1.149299294E-1,4.485496134E-2,3.617142439E0
2.843083069E1,1.144761443E-1,2.426007688E-1,4.320702076E0
2.845086194E1,5.452408642E-2,9.476265311E-1,4.323372364E0
2.847283069E1,-2.187595665E-1,2.011945724E0,3.663323879E0
2.849283069E1,-1.132963061E0,2.663023472E0,3.098064184E0
2.851283225E1,-2.556174278E0,2.873387814E0,2.987200737E0
2.853283225E1,-3.501235247E0,2.653092384E0,3.147352219E0
2.855483069E1,-3.716975451E0,2.051739216E0,3.308830023E0
2.857483069E1,-3.383198500E0,1.171081066E0,3.650391102E0
2.859483069E1,-2.801724672E0,8.407250792E-2,4.382312298E0
2.861483069E1,-2.219500303E0,-7.898836732E-1,5.646960258E0
2.863483069E1,-1.595300794E0,-1.162930369E0,7.135848522E0
2.865483225E1,-7.252715826E-1,-1.030285358E0,7.950271606E0
2.867683069E1,-2.051634490E-1,-3.053802550E-1,8.079600334E0
2.869683069E1,-2.423040569E-1,5.841616988E-1,8.092097282E0
2.871683069E1,-8.429591060E-1,1.824270487E0,7.961860180E0
2.873683069E1,-1.800411820E0,2.982034683E0,7.458106041E0
2.875683069E1,-2.560083866E0,3.299492598E0,6.435692310E0
2.877687444E1,-3.205262184E0,3.062040567E0,5.289865971E0
2.879882912E1,-3.557975769E0,1.981856227E0,4.543563366E0
2.881883069E1,-3.162274837E0,1.124917030E0,3.552355766E0
2.883883069E1,-1.839001060E0,5.547005534E-1,2.294165373E0
2.885883069E1,-2.832669318E-1,9.646958113E-1,1.299572110E0
2.887883069E1,7.728841305E-1,1.574304461E0,8.145276904E-1
2.889883069E1,1.247037768E0,2.181975603E0,7.345043421E-1
2.891883069E1,1.330970645E0,2.542979717E0,7.901629210E-1
2.893883069E1,1.156542420E0,2.586804867E0,6.605722308E-1
2.895883069E1,1.044265389E0,2.603123665E0,-7.833037525E-2
2.897883069E1,9.240995049E-1,2.624818087E0,-1.139054179E0
2.899883069E1,4.992863238E-1,2.851135015E0,-1.615511656E0
2.901883069E1,-6.593853831E-1,3.262910366E0,-1.445324659E0
2.903883069E1,-2.106385469E0,3.748565912E0,-1.414990783E0
2.905883069E1,-3.117769003E0,3.393879890E0,-1.857414246E0
2.907883069E1,-3.308516026E0,2.271842718E0,-2.264075994E0
2.909883069E1,-2.826700449E0,1.305453897E0,-2.035280704E0
2.911883225E1,-2.104971886E0,5.090602040E-1,-1.296413064E0
2.913883225E1,-1.240091324E0,-3.632902801E-1,-3.664667904E-1
2.916083069E1,-4.827929735E-1,-1.129734159E0,6.870488524E-1
2.918083694E1,2.132792324E-1,-1.386524439E0,1.535593033E0
2.920283069E1,7.885223031E-1,-1.662321329E0,1.541754007E0
2.922283069E1,7.252017260E-1,-1.323849678E0,9.645038247E-1
2.924283069E1,5.220977664E-1,-5.463927984E-1,2.800555229E-1
2.926283069E1,1.755975783E-1,1.966287941E-1,-4.106585085E-1
2.928283069E1,-1.431868076E-1,8.186118007E-1,-7.867594957E-1
2.930283069E1,-1.621236354E-1,1.155285835E0,-1.185724378E0
2.932284788E1,1.076868176E-2,1.412739277E0,-1.725170732E0
2.934483069E1,3.043155968E-1,1.756429553E0,-1.945029855E0
2.936483069E1,6.221924424E-1,1.641394854E0,-1.530950427E0
2.938483069E1,9.455670118E-1,1.043846488E0,-9.822887778E-1
2.940483069E1,1.244315028E0,2.877698839E-1,-5.921902061E-1
2.942483069E1,1.510163546E0,-3.213849366E-1,-3.453831971E-1
2.944483069E1,1.802942514E0,-7.767238617E-1,-2.641730309E-1
2.946483069E1,2.112947941E0,-1.250580788E0,-4.116184413E-1
2.948483069E1,2.292105913E0,-1.712098122E0,-7.086036801E-1
2.950483069E1,2.278824091E0,-2.232119083E0,-1.095996976E0
2.952483069E1,2.199830532E0,-2.745542526E0,-1.328579545E0
2.954483069E1,2.122878790E0,-3.155031681E0,-1.291351676E0
2.956483069E1,1.984264851E0,-3.359235287E0,-1.016043425E0
2.958483069E1,1.916458726E0,-3.398662090E0,-6.076538563E-1
2.960483069E1,1.904119253E0,-3.244444847E0,-2.222676724E-1
2.962483069E1,1.776588082E0,-2.966780424E0,-4.370304570E-2
2.964483069E1,1.546658397E0,-2.494092941E0,-1.462760419E-1
2.966483069E1,1.204626203E0,-2.032383442E0,-5.747718215E-1
2.968483069E1,8.221548200E-1,-1.617920160E0,-1.244681597E0
2.970483069E1,6.439043283E-1,-9.238725901E-1,-1.771980405E0
2.972483069E1,7.091796398E-1,-2.693217695E-1,-1.981140733E0
2.974483069E1,8.625242710E-1,-2.374171317E-1,-2.234929085E0
2.976483069E1,1.043218255E0,-8.658578396E-1,-2.829422951E0
2.978483069E1,9.476963282E-1,-1.632807851E0,-3.671352386E0
2.980483069E1,7.880336046E-1,-1.804373741E0,-4.342833042E0
2.982483069E1,9.407324791E-1,-1.304633617E0,-4.626989841E0
2.984483069E1,1.428674102E0,-4.375016689E-1,-4.530036926E0
2.986483069E1,1.880033731E0,6.255958080E-1,-4.255077839E0
2.988483069E1,2.271528482E0,1.534929752E0,-3.913691282E0
2.990483069E1,2.514583111E0,2.084481716E0,-3.660164833E0
2.992483069E1,2.532298088E0,2.116002321E0,-3.631052732E0
2.994483069E1,2.314341545E0,2.034966707E0,-3.648000002E0
2.996483069E1,1.843504071E0,1.830920219E0,-3.484916449E0
2.998483069E1,1.261070251E0,1.537827015E0,-3.074467182E0
3.000483225E1,7.045719624E-1,9.460033774E-1,-2.511354208E0
3.002483225E1,2.544515431E-1,-2.975786291E-2,-1.860835195E0
3.004683069E1,4.502949305E-3,-9.956230521E-1,-8.785638213E-1
3.006684319E1,-2.818706818E-2,-1.500023246E0,1.554564834E-1
3.008883069E1,3.595378250E-2,-1.872319460E0,1.073953390E0
3.010883069E1,3.996803984E-2,-1.986830473E0,1.506323814E0
3.012883069E1,-9.224065393E-2,-1.812908411E0,1.662495971E0
3.014883069E1,-3.915297091E-1,-1.331267357E0,1.789747834E0
3.016883069E1,-8.118398786E-1,-7.414507866E-1,1.963251114E0
3.018883069E1,-1.256741762E0,-1.879894137E-1,2.202797413E0
3.020883069E1,-1.545122504E0,1.228013635E-1,2.654087305E0
3.022883069E1,-1.608966708E0,1.722639948E-1,3.424458265E0
3.024883069E1,-1.500878453E0,1.333431602E-1,4.158892632E0
3.026883381E1,-1.333396673E0,-9.058258496E-3,4.740069866E0
3.029084475E1,-8.334121704E-1,-3.100751936E-1,5.235359192E0
3.031283069E1,-4.039913714E-1,-7.161784172E-1,5.174883842E0
3.033283069E1,-5.197765231E-1,-7.561464310E-1,4.650621891E0
3.035283069E1,-8.983733058E-1,-2.493551821E-1,4.169347286E0
3.037283069E1,-1.230771303E0,7.888538837E-1,3.933413506E0
3.039283069E1,-1.482377887E0,2.064881563E0,3.724864244E0
3.041283069E1,-1.644396901E0,3.192661047E0,3.461197376E0
3.043283069E1,-1.675882578E0,3.979909182E0,3.152727842E0
3.045283069E1,-1.609280825E0,4.269773483E0,2.833000898E0
3.047283069E1,-1.477944851E0,3.968145609E0,2.568234444E0
3.049283069E1,-1.328474760E0,2.921698570E0,2.294601917E0
3.051283069E1,-1.189878225E0,1.422739983E0,1.999239802E0
3.053283225E1,-1.061352134E0,6.492624432E-2,1.865128636E0
3.055483069E1,-1.184642196E0,-9.307142496E-1,1.942726016E0
3.057483069E1,-1.287442088E0,-1.476688147E0,2.048841953E0
3.059483069E1,-1.130327582E0,-1.758942842E0,2.085197210E0
3.061483069E1,-8.426798582E-1,-1.537443042E0,1.953197956E0
3.063483069E1,-4.768937528E-1,-9.940871596E-1,1.548403740E0
3.065483225E1,1.265363675E-2,-3.551046848E-1,6.544461250E-1
3.067683069E1,6.108477712E-1,5.400397778E-1,-2.838079929E-1
3.069683069E1,1.111181259E0,7.951545715E-1,-7.941946387E-1
3.071683069E1,1.468415260E0,3.850196302E-1,-1.273741245E0
3.073683069E1,1.782347679E0,-5.631304979E-1,-1.861323833E0
3.075683069E1,1.894973755E0,-1.729429245E0,-2.671645403E0
3.077683069E1,1.725973487E0,-2.777866125E0,-3.655260563E0
3.079683069E1,1.348406434E0,-3.302965879E0,-4.480835915E0
3.081683069E1,9.797754884E-1,-3.154700041E0,-4.921933174E0
3.083683069E1,8.067784309E-1,-2.366299868E0,-4.942161560E0
3.085683225E1,8.267101049E-1,-1.261716008E0,-4.739232063E0
3.087683225E1,1.024263978E0,-2.990796268E-1,-4.483593941E0
3.089883069E1,1.314599395E0,3.374768496E-1,-4.184793472E0
3.091883069E1,1.456686735E0,5.948780179E-1,-3.850702524E0
3.093883069E1,1.504770517E0,5.641602278E-1,-3.672451973E0
3.095883069E1,1.516289711E0,1.646718085E-1,-3.682033777E0
3.097883069E1,1.447035074E0,-4.369431734E-1,-3.647022486E0
3.099883069E1,1.281630158E0,-1.027353168E0,-3.366792440E0
3.101883069E1,1.069764614E0,-1.425759435E0,-2.789018631E0
3.103883225E1,7.861661315E-1,-1.640312791E0,-2.182446957E0
3.105883225E1,3.752108812E-1,-1.488381863E0,-1.631010175E0
3.108083225E1,-1.405164599E-1,-1.016846299E0,-1.175409436E0
3.110283069E1,-6.311634183E-1,-2.981720567E-1,-7.551516294E-1
3.112283069E1,-9.148143530E-1,3.953170776E-1,-2.877000868E-1
3.114283225E1,-1.048140049E0,9.321280122E-1,2.837032676E-1
3.116283694E1,-1.171377778E0,1.122421265E0,1.107533574E0
3.118483069E1,-1.090848207E0,7.403337359E-1,2.119859457E0
3.120483069E1,-8.344419003E-1,1.916895062E-1,2.716901779E0
3.122483069E1,-5.319763422E-1,-1.763306111E-1,2.767009974E0
3.124483069E1,-2.534392476E-1,-4.010592103E-1,2.461001396E0
3.126483069E1,-6.590363383E-2,-5.237558484E-1,2.211942911E0
3.128483225E1,-6.195918657E-3,-4.712563455E-1,2.317448139E0
3.130683225E1,-2.206968814E-1,-8.798204362E-2,2.656094313E0
3.132883069E1,-5.995904207E-1,5.344023705E-1,2.910807848E0
3.134883225E1,-9.186016917E-1,1.143452406E0,2.809072495E0
3.137083850E1,-1.084896684E0,1.701940417E0,2.541792870E0
3.139283225E1,-1.118389487E0,2.060081959E0,2.347904205E0
3.141283694E1,-1.045434713E0,2.082439661E0,2.253952980E0
3.143483069E1,-9.317091107E-1,1.766238332E0,2.261196136E0
3.145483069E1,-8.437445164E-1,1.168340802E0,2.370593548E0
3.147483069E1,-6.751456857E-1,4.716228545E-1,2.621135473E0
3.149483225E1,-2.144311517E-1,-2.362652272E-1,3.112986803E0
3.151683069E1,5.212076902E-1,-9.006248116E-1,3.631646156E0
3.153683225E1,1.061788559E0,-1.180802464E0,3.749176741E0
3.155883069E1,1.178359032E0,-1.063411713E0,3.512562275E0
3.157883069E1,8.226085901E-1,-6.320186257E-1,3.150773048E0
3.159883069E1,3.731513768E-2,-6.209881604E-2,2.631136179E0
3.161883069E1,-8.524886370E-1,5.700070858E-1,1.914277077E0
3.163883069E1,-1.509290934E0,1.093832731E0,9.041852951E-1
3.165883069E1,-1.675865173E0,1.668552160E0,-1.017526910E-2
3.167883069E1,-1.230352402E0,1.936739445E0,-5.242968798E-1
3.169883225E1,-4.881511331E-1,1.649824858E0,-9.229475856E-1
3.172083225E1,2.346944213E-1,7.284306288E-1,-1.526517272E0
3.174283069E1,6.086486578E-1,-3.878121674E-1,-2.215765238E0
3.176283069E1,5.329537392E-1,-1.393366098E0,-2.719676733E0
3.178283069E1,2.265437394E-1,-1.995818853E0,-2.966867685E0
3.180283069E1,1.210560352E-1,-2.174872160E0,-3.014707088E0
3.182284788E1,3.938335478E-1,-1.935290933E0,-3.017517090E0
3.184483069E1,9.481675625E-1,-1.407311320E0,-3.138939857E0
3.186483069E1,1.408218861E0,-8.064468503E-1,-3.298811913E0
3.188483069E1,1.694033980E0,-2.739817798E-1,-3.378730536E0
3.190483069E1,1.766535044E0,-4.129448906E-2,-3.334940195E0
3.192483225E1,1.725083470E0,-5.916666240E-3,-3.240151405E0
3.194683069E1,1.571913362E0,-3.241076469E-1,-3.168226480E0
3.196683069E1,1.363573432E0,-7.541393042E-1,-3.140161514E0
3.198683069E1,1.104479313E0,-1.138356090E0,-2.994409084E0
3.200683069E1,9.380097389E-1,-1.247997642E0,-2.518457651E0
3.202683225E1,1.098161221E0,-1.345875740E0,-1.904450893E0
3.204883069E1,1.412547350E0,-1.573902965E0,-1.182600141E0
3.206883069E1,1.337271214E0,-1.494315982E0,-5.027769804E-1
3.208883069E1,8.677427769E-1,-1.289658666E0,1.954768747E-1
3.210883069E1,4.389503002E-1,-8.281063437E-1,8.626987934E-1
3.212883069E1,2.198940367E-1,-4.757418334E-1,1.196196318E0
3.214883069E1,-1.892984062E-1,-2.100852877E-1,1.418132424E0
3.216883225E1,-5.090776086E-1,2.666863054E-2,1.926023126E0
3.219084163E1,-5.071926713E-1,2.525491416E-1,2.425728321E0
3.221084319E1,-3.808482885E-1,5.134932995E-1,2.382898092E0
3.223283069E1,-4.287750423E-1,8.019613624E-1,1.897382379E0
3.225283069E1,-6.633298397E-1,1.114340305E0,1.464680314E0
3.227283069E1,-1.058350205E0,1.547234416E0,1.331878185E0
3.229283069E1,-1.444713712E0,1.978086352E0,1.499325037E0
3.231283069E1,-1.547112226E0,2.274495602E0,1.831199408E0
3.233283225E1,-1.382230997E0,2.435973406E0,2.104727507E0
3.235283225E1,-1.009882450E0,2.458819866E0,2.195746422E0
3.237283538E1,-5.683315396E-1,2.282070398E0,2.111586571E0
3.239483069E1,-1.942202449E-1,1.871115088E0,2.047864676E0
3.241483069E1,9.477137588E-3,1.431641221E0,2.107467651E0
3.243483069E1,8.344419301E-2,9.201201200E-1,2.246587753E0
3.245483225E1,-5.979498103E-2,4.253018200E-1,2.369005203E0
3.247683069E1,-3.741287887E-1,8.374089748E-2,2.483603477E0
3.249683069E1,-6.392443180E-1,-5.215043947E-2,2.626668215E0
3.251683069E1,-7.282735109E-1,-1.690002382E-1,2.697615862E0
3.253683225E1,-7.593404055E-1,-1.258382350E-1,2.660387993E0
3.255883069E1,-8.169013262E-1,-2.490584925E-2,2.488944292E0
3.257883069E1,-9.656557441E-1,2.448696941E-1,2.136876345E0
3.259883069E1,-1.090167522E0,4.752705991E-1,1.503112435E0
3.261883069E1,-1.108301520E0,7.889935374E-1,5.069832206E-1
3.263883069E1,-8.013504744E-1,1.224104166E0,-3.620510995E-1
3.265883069E1,-2.397558838E-1,1.263251901E0,-9.492671490E-1
3.267883225E1,9.206611663E-2,8.741307259E-1,-1.646648288E0
3.270083069E1,2.430371046E-1,1.246514171E-1,-2.616964102E0
3.272083225E1,2.395638973E-1,-6.540970206E-1,-3.432085276E0
3.274083850E1,1.330464482E-1,-1.177015185E0,-3.856322527E0
3.276283225E1,1.784773618E-1,-1.327165842E0,-3.777555704E0
3.278483069E1,5.358684659E-1,-1.239532828E0,-3.444878578E0
3.280483225E1,1.077409148E0,-1.018678904E0,-3.056560278E0
3.282683069E1,1.656003237E0,-6.866299510E-1,-2.613229036E0
3.284683069E1,1.977440596E0,-4.939979911E-1,-2.259485722E0
3.286683069E1,2.102475882E0,-4.545011818E-1,-1.995295286E0
3.288683225E1,2.046939611E0,-5.679824948E-1,-1.843172431E0
3.290883069E1,1.758000374E0,-8.409519792E-1,-1.804495931E0
3.292883069E1,1.323797345E0,-1.259586692E0,-1.898953080E0
3.294883069E1,8.153654933E-1,-1.689792871E0,-2.045822620E0
3.296883069E1,2.109055817E-1,-1.838023663E0,-2.060832500E0
3.298883069E1,-4.159643054E-1,-1.584758997E0,-1.879824281E0
3.300883069E1,-9.219352603E-1,-9.079900980E-1,-1.400801301E0
3.302883069E1,-6.079679728E-1,-2.099805623E-1,-4.360007048E-1
3.304883069E1,7.142585516E-1,-1.028871611E-1,7.342948914E-1
3.306883069E1,1.975869775E0,-1.197993979E-1,1.815613627E0
3.308883069E1,2.237197876E0,-2.817659676E-1,2.562684298E0
3.310883069E1,1.500058174E0,-7.169463634E-1,2.984740019E0
3.312883069E1,6.919357777E-1,-8.021707535E-1,3.417860746E0
3.314883069E1,3.451912105E-1,-6.298893094E-1,3.617543936E0
3.316883069E1,3.792251348E-1,-2.100503743E-1,3.310226440E0
3.318883069E1,2.983640432E-1,4.300316870E-1,2.650387287E0
3.320883069E1,-2.318146378E-1,1.340430260E0,2.009956121E0
3.322883069E1,-1.135964990E0,2.210930824E0,1.467525244E0
3.324883069E1,-1.880208254E0,2.742034435E0,9.812589884E-1
3.326883069E1,-2.179916143E0,3.057659864E0,6.650751829E-1
3.328883069E1,-2.040062904E0,3.242891550E0,6.987949014E-1
3.330883381E1,-1.485484600E0,3.428873777E0,1.035695791E0
3.333083069E1,-6.382494569E-1,3.340874434E0,1.406979680E0
3.335085413E1,2.499311417E-2,3.008197069E0,1.429634094E0
3.337283381E1,3.248581290E-1,2.260759830E0,1.184834242E0
3.339483225E1,1.138303727E-1,1.344060540E0,9.071174264E-1
3.341683069E1,-3.816685975E-1,4.273962379E-1,8.579515219E-1
3.343683069E1,-9.117599726E-1,-2.495122701E-1,1.036498666E0
3.345683069E1,-1.155669808E0,-8.217533827E-1,1.200751662E0
3.347683069E1,-1.027056456E0,-1.208692908E0,1.239131451E0
3.349683069E1,-6.438868642E-1,-1.259673953E0,1.284440160E0
3.351683069E1,-2.329665422E-1,-1.091040254E0,1.306920052E0
3.353683069E1,6.122614816E-2,-9.767735004E-1,1.172110796E0
3.355683069E1,1.075122803E-1,-8.243015409E-1,6.946759224E-1
3.357683069E1,-3.104940802E-2,-6.475171447E-1,-2.114117295E-1
3.359683225E1,-2.972819209E-1,-3.476172388E-1,-1.320708036E0
3.361883069E1,-4.274834991E-1,2.929011583E-1,-2.001142263E0
3.363883069E1,-3.189065456E-1,3.409500718E-1,-2.294427395E0
3.365883069E1,-1.864360720E-1,-1.253146399E-2,-2.697528601E0
3.367883069E1,-1.177050024E-1,-5.648059845E-1,-3.253677607E0
3.369883069E1,-1.134114936E-1,-1.157502413E0,-3.757135391E0
3.371883069E1,-1.839751601E-1,-1.531700969E0,-3.933640480E0
3.373883225E1,-1.561371535E-1,-1.673700929E0,-3.801344633E0
3.376083069E1,9.559167922E-2,-1.590378881E0,-3.565463305E0
3.378083069E1,5.906543136E-1,-1.415706396E0,-3.365151882E0
3.380083069E1,1.176316977E0,-1.144534588E0,-3.164630890E0
3.382083694E1,1.634902239E0,-8.186815977E-1,-2.917614460E0
3.384283225E1,1.945134521E0,-5.257629752E-1,-2.666095257E0
3.386283225E1,2.103959560E0,-5.280318856E-1,-2.539087534E0
3.388283225E1,2.052507162E0,-6.455972791E-1,-2.535143137E0
3.390283225E1,1.615337133E0,-7.958526611E-1,-2.457755089E0
3.392483069E1,6.969623566E-1,-1.208780169E0,-2.117450953E0
3.394483069E1,6.323327869E-2,-1.615197539E0,-1.552610040E0
3.396483069E1,8.370599151E-2,-1.572960496E0,-7.947007418E-1
3.398483069E1,5.407029986E-1,-1.102157950E0,-7.440338284E-2
3.400483069E1,8.610232472E-1,-4.944692254E-1,6.089104414E-1
3.402483069E1,9.949598312E-1,-1.051037237E-1,1.299380183E0
3.404483225E1,9.924989343E-1,2.089333683E-1,1.988488555E0
3.406684162E1,7.575601339E-1,2.932676673E-1,2.468523979E0
3.408883069E1,2.798984647E-1,2.792003155E-1,2.682466269E0
3.410883069E1,6.344271451E-2,2.315702885E-1,3.042859316E0
3.412883069E1,2.626546025E-1,1.982170492E-1,3.470168352E0
3.414883069E1,7.034025788E-1,2.966885269E-1,3.591608286E0
3.416883069E1,1.227524996E0,4.150741994E-1,3.267012119E0
3.418883069E1,1.529135346E0,4.730714858E-1,2.569421291E0
3.420883069E1,1.353974104E0,6.262590289E-1,1.773830414E0
3.422883069E1,7.383266091E-1,8.846550584E-1,1.180139303E0
3.424883069E1,1.631533802E-1,1.279448509E0,9.976476431E-1
3.426883850E1,-1.113694608E-1,1.582734346E0,1.179423690E0
3.429083225E1,-5.124286562E-2,1.880435228E0,1.504491210E0
3.431083225E1,1.535540670E-1,2.032907248E0,1.682916284E0
3.433283069E1,2.971946597E-1,2.111150265E0,1.679757237E0
3.435283069E1,2.875604331E-1,1.994317889E0,1.552854300E0
3.437283381E1,1.555786431E-1,1.686598897E0,1.479393482E0
3.439483069E1,-8.353145421E-2,1.229043365E0,1.596243262E0
3.441683069E1,-1.554215699E-1,7.536506057E-1,1.866490006E0
3.443683069E1,-1.954768784E-2,3.530975580E-1,2.070745945E0
3.445683069E1,1.819854826E-1,1.630137488E-2,2.128289461E0
3.447683069E1,2.579771280E-1,-3.224844933E-1,1.937664509E0
3.449683225E1,1.381078959E-1,-6.701366305E-1,1.701818228E0
3.451683225E1,7.482226193E-2,-1.024002075E0,1.468013883E0
3.453683225E1,3.131120652E-2,-1.033217430E0,1.077653527E0
3.455883069E1,-6.511823088E-2,-6.066240668E-1,4.330336452E-1
3.457883069E1,-6.098355055E-1,1.447576135E-1,-4.120373428E-1
3.459883069E1,-1.170539975E0,1.104322195E0,-9.458637238E-1
3.461883069E1,-1.281874537E0,1.352263689E0,-1.015240550E0
3.463883069E1,-1.270669460E0,9.391267896E-1,-1.309101701E0
3.465883069E1,-1.190140009E0,3.819478452E-1,-1.911100626E0
3.467883069E1,-1.069782138E0,-3.017674200E-2,-2.458994389E0
3.469883069E1,-9.935461283E-1,-8.182103187E-2,-2.677753925E0
3.471883069E1,-9.772971272E-1,1.051735431E-1,-2.586036921E0
3.473883069E1,-8.983907700E-1,5.637413356E-3,-2.434350252E0
3.475883225E1,-6.534512639E-1,-4.995306730E-1,-2.495925426E0
3.478083069E1,-2.358463407E-1,-8.978846073E-1,-2.724685907E0
3.480083069E1,-7.853982039E-3,-7.544185519E-1,-2.952817917E0
3.482083069E1,-6.908012927E-2,-3.370928764E-1,-2.837556362E0
3.484083069E1,-2.459867001E-1,-9.913469851E-2,-2.357835054E0
3.486083069E1,-3.967657089E-1,-6.527531147E-2,-1.660802960E0
3.488083069E1,-3.725230694E-1,-1.922654659E-1,-9.227381349E-1
3.490083069E1,-1.760164499E-1,-6.350380182E-1,-3.538131416E-1
3.492083069E1,-5.904448777E-2,-1.158357620E0,-1.542172879E-1
3.494083069E1,-4.471533373E-2,-1.372317433E0,-1.380555481E-1
3.496083225E1,-2.087413706E-2,-1.440786719E0,-2.094220519E-1
3.498083538E1,-6.656685472E-2,-1.336101890E0,-1.790707856E-1
3.500283069E1,-3.410547972E-1,-8.627162576E-1,-3.005456924E-2
3.502283069E1,-7.050955892E-1,-1.386838555E-1,2.699675262E-1
3.504283069E1,-8.174772859E-1,2.708750963E-1,8.021009564E-1
3.506283069E1,-7.357086539E-1,1.084198505E-1,1.519396424E0
3.508283069E1,-2.665990293E-1,-1.059763953E-1,2.231752396E0
3.510283069E1,4.775395393E-1,-9.639453143E-2,2.606073380E0
3.512283069E1,1.217332244E0,2.169967890E-1,2.579544306E0
3.514283069E1,1.966200709E0,4.494571984E-1,2.478210449E0
3.516283069E1,2.612810135E0,5.553463101E-1,2.437177658E0
3.518283694E1,2.574395657E0,7.264932990E-1,2.161206245E0
3.520483069E1,1.768838882E0,1.257405043E0,1.522031784E0
3.522483069E1,1.023443580E0,1.868357539E0,1.035294414E0
3.524483069E1,5.916317105E-1,2.139860868E0,8.729438782E-1
3.526483069E1,3.388382196E-1,2.090590239E0,8.558920026E-1
3.528483069E1,2.559874356E-1,1.720214009E0,8.021358848E-1
3.530483069E1,2.543642819E-1,1.125597715E0,6.739239693E-1
3.532483069E1,1.074948311E-1,5.859070420E-1,5.658706427E-1
3.534483069E1,-1.729446799E-1,1.926494390E-1,5.203524828E-1
3.536483069E1,-3.570943773E-1,-3.266209066E-1,4.596673548E-1
3.538483069E1,-4.650080800E-1,-8.424878716E-1,1.943075061E-1
3.540483069E1,-7.380124927E-1,-9.750630856E-1,-1.220857799E-1
3.542483069E1,-1.074669003E0,-8.885645866E-1,-3.948807418E-1
3.544483069E1,-1.107428908E0,-8.840790987E-1,-5.155004263E-1
3.546483069E1,-7.100348473E-1,-1.015048623E0,-6.175149679E-1
3.548483069E1,-2.460739762E-1,-1.090446830E0,-9.434551597E-1
3.550483069E1,-1.735729873E-1,-8.081048727E-1,-1.464488268E0
3.552483069E1,-5.667956471E-1,-3.103195429E-1,-1.971506476E0
3.554483069E1,-9.579064846E-1,3.217689097E-1,-2.183860779E0
3.556483069E1,-7.769158483E-1,7.747865319E-1,-1.909268022E0
3.558483069E1,-1.243372560E-1,5.803917646E-1,-1.599192858E0
3.560483069E1,4.974013865E-1,-1.123992056E-1,-1.613888502E0
3.562483069E1,1.002098203E0,-1.024857283E0,-1.994684458E0
3.564483069E1,1.376122355E0,-2.039870977E0,-2.414645672E0
3.566483069E1,1.379420996E0,-2.570468664E0,-2.604118586E0
3.568483069E1,9.173101187E-1,-2.533467531E0,-2.600296259E0
3.570483069E1,3.606024683E-1,-2.130820036E0,-2.686480522E0
3.572483069E1,-1.101128235E-1,-1.496462703E0,-2.892028093E0
3.574483069E1,-5.382071733E-1,-7.071201205E-1,-3.133826017E0
3.576483069E1,-7.191280127E-1,1.565734893E-1,-3.336423635E0
3.578483225E1,-7.428121567E-1,8.075987697E-1,-3.591329098E0
3.580683225E1,-1.810953617E-1,7.652221322E-1,-3.737290859E0
3.582883069E1,6.468189955E-1,1.060985625E-1,-3.516070604E0
3.584883069E1,1.074808598E0,-5.309640765E-1,-3.018564463E0
3.586883069E1,1.133591294E0,-9.611527920E-1,-2.417647600E0
3.588883069E1,1.080899835E0,-1.191309333E0,-1.700596452E0
3.590883069E1,1.085751891E0,-1.237525702E0,-9.269967079E-1
3.592883069E1,1.095665336E0,-1.165373802E0,-2.515717447E-1
3.595085569E1,9.961990118E-1,-9.636312127E-1,2.973691821E-1
3.597283381E1,7.107504010E-1,-6.468015909E-1,6.495591998E-1
3.599483069E1,3.976558149E-1,-6.647086143E-1,9.639802575E-1
3.601483225E1,2.079908848E-1,-9.672614932E-1,1.355509996E0
3.603683069E1,-1.040565297E-1,-1.103816032E0,1.794093728E0
3.605683069E1,-3.477568626E-1,-8.926311731E-1,2.215486050E0
3.607683069E1,-3.547207117E-1,-4.807509482E-1,2.523379564E0
3.609683069E1,-1.354200989E-1,9.112364054E-2,2.529261351E0
3.611683069E1,1.033060402E-1,7.121466994E-1,2.397314548E0
3.613883069E1,3.449294269E-1,1.206179619E0,2.223043203E0
3.615883069E1,3.580193818E-1,1.462097168E0,2.168868303E0
3.617883069E1,1.824567169E-1,1.576486111E0,2.141239643E0
3.619883069E1,-4.438372329E-2,1.587342024E0,2.102458477E0
3.621883069E1,-1.458222568E-1,1.542626739E0,2.068895817E0
3.623883069E1,-4.108504951E-2,1.495642424E0,1.955449462E0
3.625883069E1,1.284387857E-1,1.484053493E0,1.838285446E0
3.627883069E1,2.902657092E-1,1.387746215E0,1.679320931E0
3.629883069E1,3.148399293E-1,1.300409913E0,1.561581016E0
3.631883069E1,1.835911870E-1,1.329679132E0,1.593188882E0
3.633883069E1,-1.896823794E-1,1.235885143E0,1.739115834E0
3.635883069E1,-4.984485805E-1,1.075594068E0,1.930700660E0
3.637883069E1,-7.187789679E-1,7.645065784E-1,2.225800991E0
3.639883069E1,-8.244935274E-1,3.835186362E-1,2.375009060E0
3.641883069E1,-9.775065780E-1,-6.010913849E-2,2.309855938E0
3.644083069E1,-1.055592537E0,-4.511676133E-1,2.211105347E0
3.646083069E1,-9.759008288E-1,-4.100127518E-1,2.124310017E0
3.648083381E1,-9.332973361E-1,-1.155582517E-1,1.824427605E0
3.650283069E1,-8.929453492E-1,2.592512071E-1,9.578716159E-1
3.652283069E1,-8.870984912E-1,8.402887583E-1,-8.168140426E-3
3.654283069E1,-6.734876633E-1,1.400085688E0,-6.429094672E-1
3.656283069E1,-1.977109015E-1,1.267440677E0,-9.131038785E-1
3.658286506E1,2.718524933E-1,5.889788270E-1,-1.276621103E0
3.660483069E1,5.604252219E-1,-4.527035058E-1,-1.937542319E0
3.662483069E1,6.916914582E-1,-1.309956908E0,-2.591604471E0
3.664483069E1,7.376983166E-1,-1.803675652E0,-3.098064184E0
3.666483069E1,7.533713579E-1,-1.866821647E0,-3.276366949E0
3.668483069E1,7.966032028E-1,-1.594288468E0,-3.192381620E0
3.670483069E1,9.893224239E-1,-1.160172701E0,-2.969782352E0
3.672483069E1,1.289501548E0,-7.974409461E-1,-2.703078747E0
3.674483069E1,1.556955814E0,-6.535036564E-1,-2.477704287E0
3.676483381E1,1.717438936E0,-6.513045430E-1,-2.300431252E0
3.678683069E1,1.690997124E0,-7.486415505E-1,-2.087169409E0
3.680683069E1,1.501192570E0,-7.727445364E-1,-1.852091074E0
3.682683069E1,1.278226733E0,-9.841562510E-1,-1.687331915E0
3.684683069E1,1.020808220E0,-1.182547808E0,-1.662478447E0
3.686683069E1,6.765070558E-1,-1.388479233E0,-1.653751850E0
3.688683069E1,3.214023709E-1,-1.458624005E0,-1.523864388E0
3.690683069E1,-2.138028294E-2,-1.284126043E0,-1.244245172E0
3.692683225E1,-3.875329196E-1,-8.129394650E-1,-9.800896645E-1
3.694883069E1,-9.378875494E-1,-2.137504667E-1,-6.220877171E-1
3.696883069E1,-1.231137753E0,3.005456924E-2,-7.813838869E-2
3.698883069E1,-1.035852909E0,-1.308996929E-3,5.364094973E-1
3.700883069E1,-5.531646609E-1,-8.824384958E-2,1.051997185E0
3.702883069E1,-2.866354287E-1,-6.754424423E-2,1.493303657E0
3.704883069E1,-2.391973734E-1,1.676737815E-1,1.995365143E0
3.706883538E1,-2.793399394E-1,4.731238484E-1,2.250567198E0
3.709083069E1,-2.937040031E-1,9.428966641E-1,2.065754175E0
3.711083850E1,-3.307398856E-1,1.228607059E0,1.510844231E0
3.713084788E1,-4.942947030E-1,1.376453876E0,9.378701448E-1
3.715086038E1,-8.180881739E-1,1.489952683E0,6.547777057E-1
3.717283069E1,-1.124585390E0,1.538210988E0,6.944839358E-1
3.719283069E1,-1.181727529E0,1.480301023E0,9.219003320E-1
3.721283069E1,-9.107477069E-1,1.363416314E0,1.154413104E0
3.723283069E1,-4.590564966E-1,1.262396693E0,1.338126421E0
3.725283069E1,6.695082784E-2,1.114637017E0,1.447663307E0
3.727283069E1,5.150466561E-1,9.351124763E-1,1.588860512E0
3.729283069E1,8.260643482E-1,6.556329131E-1,1.791754961E0
3.731283069E1,8.534136415E-1,3.010518551E-1,1.968818665E0
3.733283069E1,6.862983704E-1,-6.510078162E-2,2.144904852E0
3.735283069E1,5.287824273E-1,-4.735427201E-1,2.415169239E0
3.737283538E1,4.549375176E-1,-7.955908775E-1,2.555895090E0
3.739483069E1,3.240727484E-1,-8.878489733E-1,2.444665194E0
3.741483069E1,1.610589772E-1,-8.132187128E-1,2.061792374E0
3.743483069E1,-3.738495335E-2,-6.353347301E-1,1.619264126E0
3.745483069E1,-3.503748477E-1,-3.606722951E-1,1.258731484E0
3.747483069E1,-6.609562039E-1,-5.960299447E-2,8.222071528E-1
3.749483069E1,-9.235060811E-1,3.234094977E-1,2.096315026E-1
3.751483225E1,-1.050042391E0,7.195294499E-1,-4.901408255E-1
3.753683225E1,-8.021358848E-1,1.179353833E0,-8.962440491E-1
3.755883069E1,-2.311339527E-1,1.133940458E0,-1.146611452E0
3.757883069E1,1.892460436E-1,5.468116403E-1,-1.538490295E0
3.759883225E1,3.731688559E-1,-1.935570091E-1,-2.063520193E0
3.762083069E1,3.688229620E-1,-1.040006757E0,-2.580399513E0
3.764084319E1,3.694862127E-1,-1.624150991E0,-2.908748150E0
3.766283538E1,4.457919896E-1,-1.973426342E0,-3.065548658E0
3.768483069E1,6.640279889E-1,-1.743548989E0,-3.074728966E0
3.770483069E1,9.857968688E-1,-1.234471321E0,-2.951910257E0
3.772483069E1,1.322750092E0,-6.873630285E-1,-2.810974836E0
3.774483069E1,1.571442127E0,-3.140196502E-1,-2.662744045E0
3.776483069E1,1.657923102E0,-1.542347521E-1,-2.451594114E0
3.778483069E1,1.667173386E0,-2.721491754E-1,-2.261248589E0
3.780483069E1,1.565368295E0,-7.240847349E-1,-2.126683712E0
3.782483069E1,1.313674450E0,-1.302870870E0,-2.066208124E0
3.784483069E1,8.445299268E-1,-1.658446789E0,-2.009362698E0
3.786483069E1,2.120749503E-1,-1.670454621E0,-1.726863623E0
3.788483069E1,-4.080230594E-1,-1.374027848E0,-1.111914396E0
3.790483069E1,-7.261267900E-1,-9.600183368E-1,-3.101973534E-1
3.792483069E1,-7.430040836E-1,-5.970247984E-1,3.906570375E-1
3.794483069E1,-6.977128386E-1,-2.378883809E-1,8.271813393E-1
3.796483069E1,-6.764895916E-1,-4.188789986E-3,1.055714726E0
3.798483069E1,-6.166597009E-1,-7.307693362E-2,1.292346478E0
3.800483069E1,-6.087533832E-1,-3.458718956E-1,1.653472543E0
3.802483069E1,-4.275707603E-1,-5.694834590E-1,2.280272722E0
3.804483069E1,4.853760451E-2,-5.911255479E-1,2.844921589E0
3.806483225E1,5.953667164E-1,-2.726728022E-1,2.877960682E0
3.808683069E1,8.767138124E-1,3.316125572E-1,2.311671019E0
3.810683069E1,6.058212519E-1,8.456643820E-1,1.608163834E0
3.812683225E1,-1.933126599E-1,1.406229258E0,1.107585907E0
3.814883069E1,-1.176753283E0,2.052542210E0,9.703158140E-1
3.816883069E1,-1.620206594E0,2.323609114E0,1.154901862E0
3.818883069E1,-1.459496617E0,2.414278984E0,1.489010215E0
3.820883069E1,-8.733453155E-1,2.375061512E0,1.856524229E0
3.822883069E1,-2.157925069E-1,2.193145752E0,2.134328127E0
3.824883069E1,3.215594590E-1,1.907173634E0,2.323591709E0
3.826883069E1,6.468015909E-1,1.496846676E0,2.400840044E0
3.828883069E1,5.873207450E-1,9.068905115E-1,2.382479191E0
3.830883069E1,1.383347958E-1,3.001442850E-1,2.388674974E0
3.832883069E1,-3.143686950E-1,-6.993534416E-2,2.608202457E0
3.834883069E1,-3.612482548E-1,-3.475125134E-1,2.842652559E0
3.836883069E1,-1.354549974E-1,-5.035100579E-1,2.874661922E0
3.838883069E1,1.511629671E-1,-5.027246475E-1,2.733621836E0
3.840883069E1,3.577750325E-1,-3.945142329E-1,2.415867329E0
3.842883069E1,2.772280872E-1,-2.359161526E-1,1.874919891E0
3.844883069E1,-2.258456126E-2,-1.012639999E-1,1.190663576E0
3.846883069E1,-2.904227972E-1,6.246533245E-2,3.724009097E-1
3.848883069E1,-4.193502665E-1,3.175975680E-1,-5.492551327E-1
3.850883069E1,-2.352529317E-1,4.063999057E-1,-1.260302305E0
3.852883069E1,-9.909979254E-2,-6.768386811E-2,-1.961872220E0
3.854883069E1,-2.374694943E-1,-7.515038848E-1,-2.824990034E0
3.856883069E1,-5.899910927E-1,-1.235413909E0,-3.715352297E0
3.858883381E1,-8.644964695E-1,-1.284771800E0,-4.272129536E0
3.861083069E1,-8.154178262E-1,-9.772621989E-1,-4.485426426E0
3.863084162E1,-3.339338303E-1,-4.109203219E-1,-4.299705982E0
3.865086975E1,4.512374103E-1,4.049163777E-3,-3.859812975E0
3.867283069E1,1.277005076E0,1.099382862E-1,-3.314275503E0
3.869287444E1,1.701312065E0,4.237659276E-2,-2.937476397E0
3.871483069E1,1.924766541E0,-1.297826767E-1,-2.621467113E0
3.873483069E1,1.954681516E0,-2.911383808E-1,-2.417822123E0
3.875483225E1,1.851358056E0,-5.195321441E-1,-2.293537140E0
3.877484319E1,1.642895818E0,-8.106530905E-1,-2.276101351E0
3.879683069E1,1.315280080E0,-1.057111025E0,-2.262993813E0
3.881683069E1,8.350003958E-1,-1.066204190E0,-2.200074673E0
3.883683069E1,8.272860944E-2,-9.313426018E-1,-1.870486856E0
3.885683069E1,-7.225663066E-1,-7.155500650E-1,-1.196894407E0
3.887683069E1,-1.222254038E0,-5.355891585E-1,-4.783947468E-1
3.889683069E1,-1.377344012E0,-4.368384480E-1,1.233424172E-1
3.891683069E1,-1.255572438E0,-2.902657092E-1,5.382769704E-1
3.893683069E1,-8.306196332E-1,-1.699427068E-1,8.496786356E-1
3.895683069E1,-4.579220414E-1,-2.513274252E-1,1.121827841E0
3.897683069E1,-2.984687686E-1,-3.356442750E-1,1.538682222E0
3.899683069E1,-1.941678822E-1,-3.157649636E-1,2.133577824E0
3.901683069E1,-1.083849464E-2,-2.305405438E-1,2.510568857E0
3.903683069E1,2.546260953E-1,1.342158206E-2,2.595636129E0
3.905683069E1,5.167745352E-1,3.728372455E-1,2.434298038E0
3.907683225E1,5.158669949E-1,7.147123218E-1,2.186897516E0
3.909883069E1,7.321656495E-2,1.040512919E0,1.962448239E0
3.911883069E1,-4.890761673E-1,1.333204627E0,1.914434195E0
3.913883069E1,-8.279318213E-1,1.548543334E0,1.893978953E0
3.915883069E1,-7.955908775E-1,1.651029110E0,1.857030272E0
3.917883069E1,-4.942248762E-1,1.669529557E0,1.895514846E0
3.919883069E1,-8.408996463E-2,1.612841249E0,2.002573252E0
3.921883069E1,8.567821234E-2,1.429860950E0,2.211524248E0
3.923883069E1,-5.143485218E-2,1.058646917E0,2.414697886E0
3.925883069E1,-3.070208728E-1,6.086835861E-1,2.577240467E0
3.927883069E1,-4.118453562E-1,2.608743608E-1,2.733377695E0
3.929883069E1,-2.942974269E-1,-4.213224724E-2,2.855341196E0
3.931883069E1,-1.681450158E-1,-2.465801090E-1,2.909236908E0
3.933883069E1,-1.449844986E-1,-3.418751061E-1,2.785720110E0
3.935883069E1,-2.114989907E-1,-2.638763189E-1,2.509329557E0
3.937883069E1,-3.278950155E-1,-6.038839370E-2,2.116683006E0
3.939883069E1,-5.226388574E-1,2.551322281E-1,1.430768609E0
3.941883069E1,-6.431014538E-1,5.096186996E-1,3.799058199E-1
3.943883069E1,-5.486966372E-1,5.060582161E-1,-7.031233311E-1
3.945883069E1,-2.400351316E-1,3.751585186E-1,-1.224976778E0
3.947883225E1,1.256637042E-3,-3.262020275E-2,-1.457419753E0
3.950083069E1,1.620014608E-1,-5.117130876E-1,-2.009065866E0
3.952083381E1,3.448596001E-1,-9.045168757E-1,-2.675484896E0
3.954283225E1,5.094441772E-1,-1.196737409E0,-3.162641287E0
3.956483069E1,5.024453998E-1,-1.067164063E0,-3.243764162E0
3.958483069E1,5.129173398E-1,-8.696451783E-1,-3.158592224E0
3.960483069E1,6.360678077E-1,-7.337538600E-1,-3.072442770E0
3.962483069E1,8.554382324E-1,-7.046417594E-1,-2.923129797E0
3.964483069E1,1.044509768E0,-7.202275395E-1,-2.702118635E0
3.966483069E1,1.187713981E0,-6.963514686E-1,-2.502418280E0
3.968483069E1,1.310689926E0,-6.706427336E-1,-2.337659121E0
3.970483069E1,1.319695830E0,-5.991889834E-1,-2.207509995E0
3.972483069E1,1.175392032E0,-6.701889634E-1,-2.147871971E0
3.974483069E1,8.917759657E-1,-9.541366100E-1,-2.030865192E0
3.976483069E1,5.734104514E-1,-1.297826886E0,-1.913334608E0
3.978483069E1,9.281660616E-2,-1.374342084E0,-1.801162362E0
3.980483069E1,-5.387482047E-1,-1.019569039E0,-1.720371008E0
3.982483069E1,-1.094129443E0,-6.069905758E-1,-1.441781640E0
3.984483069E1,-1.353433013E0,-1.222428605E-1,-8.546004891E-1
3.986483069E1,-1.172093272E0,2.938959897E-1,-1.763480604E-1
3.988483069E1,-6.369753480E-1,4.598942697E-1,6.026447415E-1
3.990483069E1,-1.064476296E-1,2.092475295E-1,1.287546873E0
3.992483069E1,-4.223696887E-2,-2.390577495E-1,1.766238332E0
3.994483069E1,-1.472010612E-1,-5.097582936E-1,2.122250557E0
3.996683069E1,-5.890486389E-2,-4.815363288E-1,2.210005760E0
3.998683069E1,1.506393701E-1,-2.399478704E-1,1.966113448E0
4.000683069E1,4.449367821E-1,2.326349318E-1,1.655706644E0
4.002683069E1,5.811597109E-1,7.640528083E-1,1.530461788E0
4.004683069E1,3.187669218E-1,1.241592288E0,1.498818994E0
4.006684162E1,-7.068583369E-2,1.452148795E0,1.526482463E0
4.008883069E1,-2.671051919E-1,1.441799045E0,1.621847153E0
4.010883069E1,-2.124763876E-1,1.287634134E0,1.736305952E0
4.012883069E1,-1.462585945E-2,1.158113241E0,1.787199736E0
4.014883069E1,1.984962970E-1,1.006409168E0,1.697803974E0
4.016883225E1,3.060260415E-1,7.565827966E-1,1.483809114E0
4.019083069E1,8.463101834E-2,5.753477812E-1,1.464697719E0
4.021084631E1,-2.901086211E-1,4.831769466E-1,1.566380620E0
4.023283069E1,-6.663318276E-1,5.502848625E-1,1.699758649E0
4.025283225E1,-8.051204085E-1,6.166422963E-1,1.756045580E0
4.027483069E1,-7.546977997E-1,6.740286946E-1,1.753654480E0
4.029483069E1,-7.080102563E-1,6.572735310E-1,1.650924444E0
4.031483069E1,-6.657732725E-1,6.314426661E-1,1.476024985E0
4.033483069E1,-5.946685672E-1,6.344795227E-1,1.207191825E0
4.035483069E1,-4.659680128E-1,5.858721137E-1,8.577944040E-1
4.037483069E1,-3.476346731E-1,5.220279694E-1,3.404090106E-1
4.039483069E1,-1.033409461E-1,4.308519661E-1,-2.733185515E-2
4.041483069E1,2.992716134E-1,5.143485218E-2,-1.661204398E-1
4.043483069E1,4.283736050E-1,-5.326570272E-1,-5.325523019E-1
4.045483069E1,2.734407187E-1,-1.089958072E0,-1.222184300E0
4.047483069E1,1.602735817E-1,-1.385704160E0,-1.928553939E0
4.049483069E1,1.203579083E-1,-1.281385779E0,-2.440930128E0
4.051483225E1,1.930857748E-1,-8.143357038E-1,-2.541112185E0
4.053683225E1,5.018869042E-1,-3.267954588E-1,-2.242102385E0
4.055883069E1,9.022130370E-1,-2.567030191E-1,-1.742449403E0
4.057883069E1,1.158444881E0,-4.783423841E-1,-1.459304690E0
4.059883069E1,1.251261473E0,-7.208733559E-1,-1.453580022E0
4.061883069E1,1.094548345E0,-1.034683585E0,-1.508592844E0
4.063883069E1,7.801098228E-1,-1.287459612E0,-1.548909903E0
4.065883069E1,3.624350727E-1,-1.406787753E0,-1.548962235E0
4.067883069E1,-4.009021446E-2,-1.362578511E0,-1.582071185E0
4.069883069E1,-4.561417997E-1,-1.166316271E0,-1.554913878E0
4.071883069E1,-6.172007918E-1,-8.280190825E-1,-1.431798339E0
4.073883069E1,-4.407654405E-1,-4.442910254E-1,-1.158025980E0
4.075883069E1,-2.934247553E-1,-1.789660603E-1,-7.571238279E-1
4.077883069E1,-4.532794654E-1,7.749261800E-3,-2.304881811E-1
4.079883069E1,-6.163979173E-1,1.224697530E-1,3.924372792E-1
4.081883069E1,-6.720739603E-1,8.941321820E-2,8.951967955E-1
4.083883069E1,-8.847423196E-1,-1.435358822E-1,1.146000624E0
4.085883069E1,-9.094735980E-1,-4.516388476E-1,1.462969899E0
4.087883069E1,-2.779262364E-1,-7.080277205E-1,1.914783239E0
4.089883069E1,7.104362845E-1,-6.692290306E-1,2.019974232E0
4.091883069E1,1.521682739E0,-2.308023423E-1,1.668098450E0
4.093883069E1,1.734979391E0,4.909262061E-1,1.089591622E0
4.095883069E1,1.203439474E0,1.233232141E0,6.281265616E-1
4.097883069E1,2.624277174E-1,1.795507431E0,4.617792070E-1
4.099883069E1,-4.694935679E-1,2.088024616E0,4.858822227E-1
4.101883225E1,-8.599062562E-1,2.191138744E0,6.423684359E-1
4.104083069E1,-8.671493530E-1,2.132966757E0,8.708494902E-1
4.106083225E1,-6.971717477E-1,1.936146140E0,9.804910421E-1
4.108083225E1,-4.934743941E-1,1.673509002E0,1.036289215E0
4.110283069E1,-2.779960334E-1,1.281857014E0,1.113869071E0
4.112283069E1,-5.454153940E-2,8.168489933E-1,1.144953489E0
4.114283225E1,1.862266362E-1,4.290542901E-1,1.218658686E0
4.116483069E1,3.717376888E-1,9.691813588E-2,1.373434544E0
4.118483069E1,3.632553816E-1,-1.184205860E-1,1.413786530E0
4.120483069E1,2.372076958E-1,-2.097536623E-1,1.287407160E0
4.122483069E1,1.504822820E-1,-2.082875967E-1,1.110989332E0
4.124483069E1,8.485791087E-2,-2.022662014E-1,8.609359860E-1
4.126484631E1,-1.143365204E-1,-1.256462485E-1,5.025326610E-1
