"Time (s)","Linear Acceleration x (m/s^2)","Linear Acceleration y (m/s^2)","Linear Acceleration z (m/s^2)"
7.998438000E-3,-3.148999810E-1,1.186999977E-1,1.615399957E0
3.798125000E-2,2.000599861E0,-1.068799973E0,3.565099955E0
5.798437500E-2,2.511199951E0,-1.108999968E0,4.270100117E0
8.797968800E-2,1.489799976E0,-7.069999576E-1,3.781599998E0
1.079843750E-1,1.078799963E0,-1.799999923E-1,4.089900017E0
1.379796880E-1,6.406999826E-1,8.301999569E-1,4.777199745E0
1.579812500E-1,1.972299933E0,7.100999951E-1,4.646100044E0
1.879796880E-1,1.955500007E0,-9.498999715E-1,2.138099909E0
2.079828130E-1,2.137199879E0,-1.578499913E0,1.644400001E0
2.379796880E-1,2.402299881E0,-1.225000024E0,-3.660599947E0
2.579843750E-1,3.255899906E0,-4.194999933E-1,-2.311499834E0
2.879796880E-1,2.069700003E0,7.387999892E-1,-2.384099960E0
3.079843750E-1,1.823699951E0,-1.011999995E-1,-1.925499916E0
3.379796880E-1,2.442299843E0,2.087000012E-1,-1.928499937E0
3.579796880E-1,6.776999831E-1,7.863999605E-1,-2.612399817E0
3.779796880E-1,-1.318699956E0,1.108099937E0,-5.630099773E0
3.979796880E-1,-1.730499983E0,1.104599953E0,-5.198199749E0
4.179796880E-1,-1.157099962E0,1.242900014E0,-2.049399853E0
4.379796880E-1,-9.253000021E-1,1.464900017E0,-2.161499977E0
4.579843750E-1,1.099999994E-1,1.482899904E0,-1.914299965E0
4.879796880E-1,-5.913999677E-1,2.822799921E0,-2.283099890E0
5.079796880E-1,-7.829999924E-1,3.147099972E0,-3.322000027E0
5.279796880E-1,-2.703399897E0,2.302399874E0,-3.424799919E0
5.479859380E-1,-3.642999828E-1,2.557999849E0,-6.700999737E-1
5.779796880E-1,6.884999871E-1,1.393399954E0,-1.395699978E0
5.979796880E-1,3.167999983E-1,1.411299944E0,-1.816199899E0
6.179796880E-1,1.262099981E0,9.846999645E-1,-1.767699957E0
6.379796880E-1,2.670500040E0,-3.143000007E-1,-2.023699999E0
6.579796880E-1,4.653800011E0,-1.302099943E0,-2.450000048E0
6.779796880E-1,4.955999851E0,-3.790899992E0,-3.502499819E0
6.979796880E-1,2.415400028E0,-3.617599964E0,-3.050799847E0
7.179796880E-1,1.025099993E0,-2.024100065E0,-2.188499928E0
7.379796880E-1,2.929199934E0,-3.086099863E0,-2.884199858E0
7.579796880E-1,3.915499926E0,-4.220299721E0,-3.778899908E0
7.779796880E-1,2.889699936E0,-3.728399992E0,-3.824299812E0
7.979796880E-1,1.962799907E0,-3.312399864E0,-3.700399876E0
8.179796880E-1,2.523200035E0,-3.892099857E0,-3.234999895E0
8.379812500E-1,2.976300001E0,-4.660999775E0,-2.606600046E0
8.679796880E-1,2.534899950E0,-4.952699661E0,-1.341499925E0
8.879796880E-1,2.200500011E0,-5.101799965E0,-4.883999825E-1
9.079796880E-1,9.632999897E-1,-3.782199860E0,6.904999614E-1
9.279796880E-1,5.949000120E-1,-3.308799982E0,7.724999785E-1
9.479796880E-1,4.034000039E-1,-4.045700073E0,1.755999923E0
9.679859380E-1,1.010900021E0,-3.714799881E0,2.438099861E0
9.979796880E-1,2.276700020E0,-4.887300014E0,1.007200003E0
1.017979688E0,3.467399836E0,-5.788799763E0,4.105999768E-1
1.037979688E0,4.069200039E0,-6.503399849E0,3.711999953E-1
1.057979688E0,3.749099970E0,-6.662399769E0,1.136399984E0
1.077979688E0,2.711699963E0,-6.276299953E0,2.537799835E0
1.097979688E0,3.356199980E0,-7.729599953E0,3.898299932E0
1.117979688E0,3.603099823E0,-8.469099998E0,4.452899933E0
1.137979688E0,1.760899901E0,-5.576399803E0,6.091000080E0
1.157979688E0,-3.260000050E-2,-2.676100016E0,7.310499668E0
1.177979688E0,-3.659999967E-1,-1.532599926E0,8.019499779E0
1.197979688E0,-2.105000019E-1,-2.824999988E-1,8.517199516E0
1.217979688E0,5.444999933E-1,1.107299924E0,8.799599648E0
1.247979688E0,3.582399845E0,1.144999981E0,7.585399628E0
1.267985938E0,4.550699711E0,1.403100014E0,6.551799774E0
1.297979688E0,2.207200050E0,2.902199984E0,5.925999641E0
1.317979688E0,2.532999814E-1,3.660799980E0,6.006299973E0
1.337979688E0,-9.743999839E-1,3.854199886E0,6.012399673E0
1.357979688E0,-1.281700015E0,3.803699970E0,5.853999615E0
1.377979688E0,-8.737999797E-1,3.895399809E0,5.823999882E0
1.397979688E0,1.404999942E-1,3.568599939E0,5.479099751E0
1.417979688E0,1.362699986E0,2.967900038E0,4.841399670E0
1.437979688E0,2.434700012E0,2.227900028E0,3.936699867E0
1.457979688E0,3.127599955E0,1.612999916E0,2.781299829E0
1.477979688E0,3.464900017E0,1.556899905E0,2.373600006E0
1.497979688E0,3.926800013E0,1.341499925E0,1.996699929E0
1.517979688E0,4.241099834E0,8.418999910E-1,1.891299963E0
1.537979688E0,4.561899662E0,4.939000010E-1,2.081300020E0
1.557979688E0,5.236700058E0,-2.141999900E-1,1.813099980E0
1.577979688E0,5.923899651E0,-1.388899922E0,1.192999959E0
1.597981250E0,5.917900085E0,-1.199699998E0,1.587700009E0
1.627979688E0,5.407700062E0,-1.483500004E0,6.820999980E-1
1.647979688E0,4.613999844E0,-2.211599827E0,-5.451999903E-1
1.667981250E0,3.492899895E0,-2.346799850E0,-9.199999571E-1
1.697979688E0,2.998999834E0,-2.960700035E0,-2.305399895E0
1.717979688E0,2.000099897E0,-2.492499828E0,-3.402299881E0
1.737979688E0,5.390999913E-1,-1.648399949E0,-3.871399879E0
1.757979688E0,-9.742999673E-1,-4.029999971E-1,-3.546499968E0
1.777981250E0,-1.875199914E0,1.598999947E-1,-3.331899881E0
1.807979688E0,-1.962599993E0,3.159999847E-2,-3.925400019E0
1.827979688E0,-1.705999970E0,-5.478999615E-1,-4.438099861E0
1.847979688E0,-1.633499980E0,-1.164899945E0,-4.800199986E0
1.867996875E0,-1.166999936E0,-2.094300032E0,-5.019199848E0
1.897979688E0,-5.056999922E-1,-2.984899998E0,-5.442899704E0
1.917979688E0,-2.997999787E-1,-3.452799797E0,-5.586699963E0
1.937979688E0,-3.048999906E-1,-3.999599934E0,-5.888999939E0
1.957979688E0,-7.895999551E-1,-4.388499737E0,-6.035199642E0
1.977981250E0,-1.317799926E0,-4.782000065E0,-6.339999676E0
2.007979688E0,-1.780999899E0,-5.504299641E0,-6.572199821E0
2.027979688E0,-2.734799862E0,-5.264199734E0,-6.635099888E0
2.047979688E0,-2.926299810E0,-4.830999851E0,-5.993299961E0
2.067979688E0,-1.107599974E0,-6.156599998E0,-6.028699875E0
2.087979688E0,-2.489999868E-2,-7.240499973E0,-6.178199768E0
2.107979688E0,-6.757000089E-1,-6.423099995E0,-5.584499836E0
2.127979688E0,-8.514999747E-1,-5.334199905E0,-3.778800011E0
2.147979688E0,8.104999661E-1,-5.912199974E0,-2.022699833E0
2.167981250E0,2.736399889E0,-7.012199879E0,-2.994000018E-1
2.187981250E0,3.139600039E0,-6.561500072E0,1.648000002E0
2.217979688E0,2.342700005E0,-3.681599855E0,1.875599980E0
2.237979688E0,2.937999964E0,-2.657699823E0,1.183300018E0
2.257981250E0,3.187399864E0,-9.290999770E-1,1.153299928E0
2.287979688E0,2.175299883E0,1.068899989E0,2.696499825E0
2.307979688E0,6.958999634E-1,1.485199928E0,4.545000076E0
2.327979688E0,-3.229999840E-1,1.673099995E0,6.854499817E0
2.347979688E0,-2.579999864E-1,1.516600013E0,8.315400124E0
2.367979688E0,3.775999844E-1,1.016700029E0,9.041699409E0
2.387979688E0,2.900999784E-1,1.504199982E0,9.321199417E0
2.407979688E0,3.068999946E-1,1.859399915E0,9.019100189E0
2.427979688E0,7.030999660E-1,2.100100040E0,8.828999519E0
2.447979688E0,9.122999907E-1,2.490399837E0,8.763400078E0
2.467981250E0,1.993499994E0,1.850299954E0,9.135199547E0
2.497979688E0,5.240299702E0,2.933999896E-1,8.356699944E0
2.517979688E0,6.956699848E0,-4.113999903E-1,7.553499699E0
2.537981250E0,7.351699829E0,-6.427999735E-1,7.025099754E0
2.567979688E0,7.224799633E0,-1.681699991E0,6.553799629E0
2.587979688E0,5.695499897E0,-3.238999844E-1,6.997099876E0
2.607979688E0,4.087800026E0,3.420999944E-1,6.946599960E0
2.627979688E0,3.342799902E0,-5.773999691E-1,6.154500008E0
2.657979688E0,4.169600010E0,-3.062799931E0,5.052099705E0
2.677979688E0,4.833899975E0,-4.519999981E0,3.657199860E0
2.697979688E0,4.318599701E0,-5.335700035E0,1.874099970E0
2.717979688E0,2.483399868E0,-4.977900028E0,6.644999981E-1
2.737979688E0,6.374999881E-1,-4.397500038E0,-1.247999966E-1
2.757979688E0,-5.313000083E-1,-3.724099874E0,-9.029999971E-1
2.777979688E0,-1.097399950E0,-2.955899954E0,-1.417899966E0
2.797979688E0,-1.617399931E0,-2.374899864E0,-1.743499994E0
2.817979688E0,-1.901600003E0,-2.424799919E0,-1.838799953E0
2.837979688E0,-1.802599907E0,-3.310199976E0,-1.455999970E0
2.857979688E0,-1.862100005E0,-4.381000042E0,-1.431499958E0
2.877979688E0,-1.776699901E0,-5.410799980E0,-1.809799910E0
2.897979688E0,-1.900099993E0,-6.331299782E0,-2.809999943E0
2.917979688E0,-2.635799885E0,-7.233199596E0,-3.498600006E0
2.937979688E0,-4.335899830E0,-7.353999615E0,-3.561100006E0
2.957979688E0,-5.711599827E0,-7.191799641E0,-3.391399860E0
2.977979688E0,-5.468100071E0,-7.413599968E0,-5.324299812E0
2.997979688E0,-4.286799908E0,-8.251299858E0,-7.433099747E0
3.017981250E0,-2.850399971E0,-8.934700012E0,-7.869999886E0
3.037981250E0,-1.055199981E0,-9.465799332E0,-5.394299984E0
3.067981250E0,8.791999817E-1,-9.789799690E0,-2.712199926E0
3.097979688E0,8.082999587E-1,-9.772799492E0,-2.876600027E0
3.117979688E0,-1.596399903E0,-6.859799862E0,-1.011299968E0
3.147979688E0,-1.808200002E0,-6.210099697E0,8.100999594E-1
3.167979688E0,2.495999932E-1,-6.463199615E0,1.478099942E0
3.187979688E0,1.967000008E0,-6.246599674E0,1.146499991E0
3.217979688E0,2.939399958E0,-4.597899914E0,3.813999891E-1
3.237979688E0,2.151700020E0,-2.622599840E0,7.058999538E-1
3.257979688E0,6.175000072E-1,-3.249000013E-1,1.094300032E0
3.277979688E0,-6.881999969E-1,2.055099964E0,1.492499948E0
3.297979688E0,-1.115899920E0,4.000800133E0,1.623299956E0
3.317979688E0,-4.831999838E-1,5.242399693E0,2.037199974E0
3.337979688E0,1.292400002E0,6.015199661E0,1.562500000E0
3.357979688E0,2.317600012E0,6.194299698E0,6.484999657E-1
3.377979688E0,2.551100016E0,6.342999935E0,4.610999823E-1
3.397979688E0,3.070499897E0,6.507599831E0,1.445799947E0
3.417979688E0,4.566199780E0,6.161699772E0,2.958199978E0
3.437979688E0,5.919099808E0,6.075200081E0,4.100500107E0
3.457979688E0,7.195299625E0,5.488999844E0,4.789099693E0
3.477981250E0,8.250299454E0,4.558799744E0,4.444499969E0
3.507979688E0,9.428400040E0,2.185400009E0,3.110499859E0
3.527979688E0,8.869799614E0,9.541999698E-1,3.147699833E0
3.547981250E0,6.834699631E0,8.039000034E-1,3.591699839E0
3.577979688E0,3.153999805E0,1.358999968E0,3.935199976E0
3.597979688E0,2.463700056E0,2.470999956E-1,3.952999830E0
3.617981250E0,1.961199999E0,1.642999947E-1,4.388000011E0
3.647979688E0,3.663399935E0,-1.474999905E0,4.369999886E0
3.667979688E0,6.240200043E0,-4.642799854E0,2.338399887E0
3.687979688E0,7.524899960E0,-6.839699745E0,4.837999940E-1
3.707979688E0,6.603600025E0,-6.956999779E0,-5.909999609E-1
3.727979688E0,4.605299950E0,-5.758499622E0,4.431999922E-1
3.747979688E0,1.719299912E0,-3.961199999E0,1.107699990E0
3.767982813E0,-8.375999928E-1,-1.205099940E0,2.225199938E0
3.797979688E0,-3.277299881E0,7.236999869E-1,2.570999861E0
3.827979688E0,-5.597599983E0,-7.903999686E-1,5.267999768E-1
3.847979688E0,-7.276700020E0,-1.299899936E0,-8.535999656E-1
3.867979688E0,-7.711400032E0,-1.936699986E0,-1.617299914E0
3.887979688E0,-7.160699844E0,-2.537699938E0,-1.870599985E0
3.907981250E0,-5.081899643E0,-3.792799950E0,-1.618499994E0
3.927981250E0,-2.319099903E0,-5.745399952E0,-1.622299910E0
3.947981250E0,2.049999870E-2,-7.455099583E0,-1.435599923E0
3.967981250E0,4.293999970E-1,-8.618899345E0,-1.194999933E0
3.987981250E0,-5.544999838E-1,-9.373099327E0,-8.234999776E-1
4.007981250E0,-1.394599915E0,-1.014579964E1,-5.503000021E-1
4.027981250E0,-1.805999994E0,-1.030499935E1,-3.156999946E-1
4.047981250E0,-2.778699875E0,-9.359600067E0,-6.765999794E-1
4.067985938E0,-2.905900002E0,-8.422900200E0,-8.141999841E-1
4.097981250E0,-1.467599988E0,-9.828399658E0,-3.192899942E0
4.117981250E0,-1.908199906E0,-8.005700111E0,-2.218499899E0
4.137981250E0,-6.625999808E-1,-7.993099689E0,-2.417999953E-1
4.157981250E0,1.393299937E0,-8.028599739E0,7.759999633E-1
4.177981250E0,3.325500011E0,-7.650799751E0,1.266499996E0
4.197981250E0,4.368400097E0,-6.826499939E0,1.463400006E0
4.217981250E0,3.248799801E0,-5.190399647E0,1.428599954E0
4.237981250E0,3.032999933E-1,-2.402099848E0,1.948699951E0
4.257981250E0,-9.473999739E-1,-1.746999919E-1,2.036999941E0
4.277981250E0,-1.643199921E0,1.617799997E0,1.044099927E0
4.297981250E0,-2.233899832E0,3.415199995E0,9.699999355E-3
4.317981250E0,-1.983299971E0,4.835499763E0,-6.886999607E-1
4.337981250E0,-1.431899905E0,5.278199673E0,-1.438300014E0
4.357981250E0,-1.013299942E0,5.190999985E0,-2.414799929E0
4.377981250E0,-3.640999794E-1,5.172100067E0,-2.228299856E0
4.397981250E0,1.011899948E0,4.701099873E0,-7.540999651E-1
4.417981250E0,2.894199848E0,4.498099804E0,9.255999923E-1
4.437981250E0,4.848999977E0,4.287899971E0,1.698199987E0
4.467981250E0,6.862899780E0,3.944299936E0,1.399099946E0
4.497979688E0,8.449799538E0,3.049000025E0,8.513999581E-1
4.517979688E0,9.526800156E0,2.824599981E0,1.171399951E0
4.537981250E0,9.308300018E0,3.217599869E0,1.742199898E0
4.567978125E0,8.981599808E0,1.108099937E0,4.443099976E0
4.587979688E0,7.855299950E0,5.300999880E-1,6.062299728E0
4.607979688E0,7.546499729E0,8.741999865E-1,7.899099827E0
4.627979688E0,9.220600128E0,-1.344599962E0,6.932399750E0
4.647979688E0,1.035929966E1,-4.710099697E0,5.154099941E0
4.667979688E0,9.971300125E0,-7.212599754E0,4.167799950E0
4.687979688E0,7.875199795E0,-7.922599792E0,4.000699997E0
4.707979688E0,3.951099873E0,-5.644299984E0,4.229399681E0
4.727979688E0,1.305999905E-1,-2.878000021E0,4.063799858E0
4.747979688E0,-2.588099957E0,-7.310999632E-1,3.758099794E0
4.767979688E0,-4.270999908E0,-1.850000024E-2,2.993999958E0
4.787979688E0,-5.001199722E0,7.939999551E-2,2.682799816E0
4.807979688E0,-5.457399845E0,-2.169999927E-1,2.433300018E0
4.827979688E0,-5.808300018E0,-1.092199922E0,1.810899973E0
4.847979688E0,-5.820899963E0,-2.212599993E0,1.667999983E0
4.867981250E0,-5.879299641E0,-3.931599855E0,1.240999937E0
4.897979688E0,-5.261099815E0,-6.664799690E0,1.966599941E0
4.917979688E0,-4.440700054E0,-8.456899643E0,2.515199900E0
4.937979688E0,-3.611799955E0,-9.469099998E0,3.414700031E0
4.957979688E0,-1.765100002E0,-1.125679970E1,3.295799971E0
4.977979688E0,-1.805000007E-1,-1.243999958E1,2.044299841E0
4.997979688E0,-1.658999920E-1,-1.061399937E1,6.017999649E-1
5.017981250E0,-2.209399939E0,-7.623499870E0,2.094399929E0
5.037981250E0,-3.886299849E0,-6.981799603E0,3.426800013E0
5.067979688E0,-6.153100014E0,-5.519000053E0,2.637300014E0
5.087979688E0,-6.046199799E0,-5.428599834E0,2.888399839E0
5.107979688E0,-4.543499947E0,-6.133999825E0,1.705199957E0
5.127979688E0,-1.370000005E0,-7.127099991E0,1.049899936E0
5.147979688E0,1.144500017E0,-7.844399929E0,1.110399961E0
5.167992188E0,2.776000023E0,-6.710499763E0,1.468799949E0
5.197979688E0,1.404699922E0,-2.947999954E0,1.419799924E0
5.217979688E0,7.499999553E-2,-5.882999897E-1,1.858999968E0
5.237979688E0,-2.088599920E0,1.117699981E0,2.728899956E0
5.257979688E0,-3.592700005E0,3.423799992E0,2.707299948E0
5.277979688E0,-3.669499874E0,4.399699688E0,3.151499987E0
5.297979688E0,-2.697099924E0,4.438299656E0,2.803699970E0
5.317979688E0,-1.686800003E0,3.976199865E0,2.273200035E0
5.337979688E0,-3.572999835E-1,3.816399813E0,1.898199916E0
5.357979688E0,9.098999500E-1,3.405200005E0,1.315400004E0
5.377979688E0,2.565500021E0,3.427999973E0,1.250499964E0
5.397979688E0,4.713200092E0,3.469499826E0,6.006999612E-1
5.417979688E0,6.718299866E0,3.196399927E0,4.829999804E-2
5.437979688E0,8.552199364E0,3.082099915E0,6.579999626E-2
5.457979688E0,9.580900192E0,2.647399902E0,2.038999945E-1
5.477979688E0,1.027559948E1,1.945799947E0,1.233500004E0
5.497979688E0,9.934899330E0,1.837399960E0,2.399600029E0
5.517981250E0,8.910299301E0,1.459999919E0,4.325500011E0
5.537981250E0,5.389699936E0,-9.599999525E-3,4.850299835E0
5.567979688E0,1.174299955E0,1.796799898E0,8.182999611E0
5.587979688E0,4.310299873E0,-1.640199900E0,6.167999744E0
5.607979688E0,7.711999893E0,-5.069299698E0,4.395800114E0
5.627979688E0,8.809999466E0,-7.207900047E0,3.244400024E0
5.647979688E0,6.165799618E0,-6.513899803E0,2.019999981E0
5.667979688E0,2.134700060E0,-5.051599979E0,5.760999918E-1
5.687979688E0,-1.401899934E0,-3.107699871E0,-8.145999908E-1
5.707979688E0,-3.095000029E0,-8.438000083E-1,-9.532999992E-1
5.727979688E0,-3.860299826E0,8.741999865E-1,1.944999993E-1
5.747979688E0,-4.419300079E0,1.852099895E0,1.061299920E0
5.767979688E0,-5.266799927E0,1.732399940E0,6.563999653E-1
5.787982813E0,-6.607599735E0,1.465399981E0,7.610999942E-1
5.817979688E0,-6.086299896E0,-4.452999830E-1,-7.768999934E-1
5.837979688E0,-5.580299854E0,-2.043099880E0,-1.579199910E0
5.857979688E0,-4.680799961E0,-4.869599819E0,-2.065799952E0
5.877981250E0,-3.509099960E0,-6.736099720E0,-2.279199839E0
5.907979688E0,-1.805199981E0,-9.486499786E0,-3.148200035E0
5.927979688E0,-2.907399893E0,-9.965899467E0,-1.740199924E0
5.947979688E0,-4.778800011E0,-1.058529949E1,1.259899974E0
5.967984375E0,-7.284800053E0,-9.529699326E0,2.851999998E0
5.997979688E0,-6.713099957E0,-8.792799950E0,9.328999519E-1
6.017981250E0,-4.456699848E0,-8.797499657E0,-4.567999840E-1
6.037981250E0,-4.120399952E0,-6.839599609E0,-3.283999860E-1
6.067981250E0,-1.923299909E0,-5.305900097E0,8.768999577E-1
6.087981250E0,2.118999958E-1,-5.123600006E0,1.714499950E0
6.117979688E0,3.019500017E0,-4.479799747E0,1.623299956E0
6.137979688E0,4.109699726E0,-3.371399879E0,8.942999840E-1
6.157979688E0,4.394299984E0,-2.057999849E0,-5.189999938E-1
6.177981250E0,3.214900017E0,-3.165999949E-1,-5.439000130E-1
6.207979688E0,3.887999952E-1,3.013000011E0,1.256699920E0
6.227979688E0,-4.268999994E-1,4.915699959E0,2.302999973E0
6.247979688E0,-1.056999937E-1,6.102699757E0,2.276000023E0
6.267982813E0,2.782999873E-1,6.427399635E0,1.704299927E0
6.297979688E0,9.468999505E-1,4.958199978E0,9.411000013E-1
6.317979688E0,1.922299981E0,3.852099895E0,2.130699873E0
6.337979688E0,3.065699816E0,2.780900002E0,3.442299843E0
6.357979688E0,3.524899960E0,2.602699995E0,4.684199810E0
6.377979688E0,3.591599941E0,2.714799881E0,4.407000065E0
6.397979688E0,3.435799837E0,2.910899878E0,3.531199932E0
6.417979688E0,3.671399832E0,2.509099960E0,3.710099936E0
6.437979688E0,4.571300030E0,1.320400000E0,4.830999851E0
6.457985938E0,4.919499874E0,1.303699970E0,6.050799847E0
6.487979688E0,6.549499989E0,3.937999904E-1,6.667899609E0
6.507979688E0,6.495199680E0,-1.237000003E-1,7.085599899E0
6.527979688E0,6.227699757E0,7.817999721E-1,7.110499859E0
6.547981250E0,7.487199783E0,2.578999996E-1,5.361099720E0
6.577979688E0,9.907099724E0,-3.189599991E0,4.383100033E0
6.597979688E0,1.186259937E1,-5.858099937E0,4.773699760E0
6.617979688E0,1.182109928E1,-6.531399727E0,3.313099861E0
6.637979688E0,8.546899796E0,-5.178499699E0,1.286399961E0
6.657979688E0,3.809999943E0,-3.397499800E0,-5.630999804E-1
6.677981250E0,-5.708999634E-1,-1.799299955E0,-1.729699969E0
6.707979688E0,-3.476999998E0,-9.129999876E-1,-1.617599964E0
6.727979688E0,-3.794899940E0,-1.386500001E0,-1.321799994E0
6.747979688E0,-4.136199951E0,-2.424900055E0,-7.190999985E-1
6.767979688E0,-4.798299789E0,-3.767799854E0,8.039999753E-2
6.787979688E0,-5.041699886E0,-4.933099747E0,7.434999943E-1
6.807979688E0,-4.988699913E0,-5.849599838E0,7.422999740E-1
6.827979688E0,-4.402100086E0,-7.251199722E0,6.032999754E-1
6.847979688E0,-3.440199852E0,-9.313099861E0,7.089999914E-1
6.867979688E0,-3.094599962E0,-1.071840000E1,5.203999877E-1
6.887979688E0,-3.570599794E0,-1.136109924E1,3.709999919E-1
6.907979688E0,-4.212199688E0,-1.122079945E1,1.207999960E-1
6.927979688E0,-4.707099915E0,-1.025199986E1,7.451999784E-1
6.947979688E0,-5.042500019E0,-8.765500069E0,2.044899940E0
6.967981250E0,-3.741699934E0,-9.080200195E0,1.967299938E0
6.997979688E0,-3.030999899E0,-9.853300095E0,-1.083699942E0
7.017981250E0,-4.774199963E0,-7.753599644E0,-1.097999930E0
7.047979688E0,-2.940500021E0,-7.732999802E0,-3.964000046E-1
7.067979688E0,-1.188499928E0,-8.645199776E0,-1.151999980E-1
7.087979688E0,-6.577000022E-1,-8.990699768E0,-1.609999873E-2
7.107979688E0,-8.661999702E-1,-8.325699806E0,-2.483000010E-1
7.127979688E0,-7.594000101E-1,-7.045799732E0,-1.958999932E-1
7.147979688E0,-4.442999959E-1,-5.552700043E0,-2.023999989E-1
7.167979688E0,-7.289999723E-1,-3.684700012E0,3.137999773E-1
7.187979688E0,-6.189999580E-1,-2.553699970E0,4.883999825E-1
7.207979688E0,-5.773000121E-1,-1.212299943E0,7.303000093E-1
7.227979688E0,2.459999919E-2,-4.316999912E-1,1.022400022E0
7.247979688E0,1.472399950E0,5.619999766E-2,8.970999718E-1
7.267979688E0,3.009299994E0,1.339999959E-2,4.398999810E-1
7.287979688E0,4.092199802E0,-1.914999932E-1,-1.068999991E-1
7.307979688E0,5.051699638E0,-1.176800013E0,-6.881999969E-1
7.327979688E0,5.488499641E0,-1.322099924E0,-6.639999747E-1
7.347979688E0,6.402599812E0,-1.774699926E0,-1.269000024E-1
7.367979688E0,7.666199684E0,-1.960699916E0,6.413999796E-1
7.387979688E0,8.201499939E0,-1.450799942E0,1.281899929E0
7.407979688E0,8.553199768E0,-6.610000134E-2,1.519999981E0
7.427979688E0,8.988599777E0,8.884999752E-1,1.538599968E0
7.447979688E0,9.774299622E0,-7.599999662E-3,1.219299912E0
7.467979688E0,8.138099670E0,2.886999846E-1,1.431299925E0
7.487979688E0,6.416800022E0,1.517699957E0,2.913899899E0
7.517979688E0,6.539799690E0,2.190799952E0,2.681599855E0
7.537981250E0,7.542999744E0,1.081599951E0,1.176499963E0
7.567979688E0,7.664499760E0,-4.617999792E-1,-9.093999863E-1
7.587979688E0,5.557399750E0,-1.425199986E0,-1.530299902E0
7.607979688E0,9.415999651E-1,-1.018700004E0,-4.004999995E-1
7.627979688E0,-3.745800018E0,1.671000004E0,2.626299858E0
7.647979688E0,-6.113800049E0,3.080899954E0,4.397299767E0
7.667981250E0,-6.438199997E0,2.995499849E0,3.250999928E0
7.697979688E0,-6.650599957E0,3.331300020E0,5.536999702E-1
7.717979688E0,-5.286900043E0,2.847399950E0,-1.052999943E-1
7.737979688E0,-4.020800114E0,2.060499907E0,-7.050000131E-2
7.757979688E0,-2.717999935E0,1.331799984E0,-3.041999936E-1
7.777979688E0,-1.291399956E0,-1.967999935E-1,-1.303900003E0
7.797979688E0,-1.777999997E-1,-1.337700009E0,-9.443999529E-1
7.817979688E0,9.053999782E-1,-3.098899841E0,3.574000001E-1
7.837981250E0,1.539099932E0,-4.659599781E0,1.777199984E0
7.867985938E0,1.159399986E0,-5.735300064E0,3.196199894E0
7.897979688E0,-1.254400015E0,-3.262199879E0,4.566499710E0
7.917979688E0,-6.100999713E-1,-3.581399918E0,4.097000122E0
7.937979688E0,2.539999969E-2,-3.072999954E0,1.503299952E0
7.957979688E0,-1.066399932E0,4.351999760E-1,2.338700056E0
7.977979688E0,-1.043799996E0,2.004199982E0,3.574100018E0
7.997979688E0,7.566999793E-1,1.472000003E0,2.081799984E0
8.017979688E0,2.664899826E0,1.811999977E-1,-7.181000113E-1
8.037979688E0,3.998199940E0,-9.820999503E-1,-4.430099964E0
8.057979688E0,3.878099918E0,-6.097999811E-1,-6.962299824E0
8.077979688E0,2.473399878E0,8.333999515E-1,-6.139499664E0
8.097979688E0,4.378999770E-1,2.792199850E0,-4.096499920E0
8.117979688E0,-8.187999725E-1,4.650899887E0,-2.638200045E0
8.137979688E0,-6.624000072E-1,5.877599716E0,-1.854599953E0
8.157979688E0,-6.079999730E-2,6.695399761E0,-1.462499976E0
8.177982813E0,7.364000082E-1,6.981099606E0,-1.543099999E0
8.207979688E0,2.013999939E0,6.421700001E0,-1.810799956E0
8.227979688E0,2.675599813E0,5.932799816E0,-1.997199893E0
8.247979688E0,4.183199883E0,4.412199974E0,-1.907799959E0
8.267981250E0,5.639800072E0,3.237699986E0,-9.358999729E-1
8.297979688E0,8.133699417E0,1.774399996E0,9.928999543E-1
8.317979688E0,8.957699776E0,1.130399942E0,1.675699949E0
8.337979688E0,8.677199364E0,3.425000012E-1,1.961999893E0
8.357979688E0,8.143400192E0,-5.748999715E-1,2.156899929E0
8.377979688E0,6.946899891E0,-1.107299924E0,2.194099903E0
8.397979688E0,6.541199684E0,-2.114599943E0,2.149600029E0
8.417979688E0,5.960999966E0,-3.092399836E0,2.168499947E0
8.437979688E0,5.882599831E0,-4.225999832E0,2.322499990E0
8.457979688E0,5.801199913E0,-5.171099663E0,1.552599907E0
8.477979688E0,5.778899670E0,-6.284599781E0,1.160699964E0
8.497979688E0,5.019499779E0,-7.449599743E0,1.645799994E0
8.517981250E0,4.078199863E0,-8.953000069E0,2.172999859E0
8.547979688E0,1.891699910E0,-8.918099403E0,2.487099886E0
8.567979688E0,2.030999959E-1,-8.027500153E0,2.249099970E0
8.587979688E0,-1.534799933E0,-6.678699970E0,1.841699958E0
8.607979688E0,-3.383999825E0,-5.376999855E0,1.193799973E0
8.627979688E0,-4.856499672E0,-4.114900112E0,6.539999843E-1
8.647979688E0,-5.739399910E0,-3.978399992E0,2.766999900E-1
8.667979688E0,-6.433799744E0,-4.202499866E0,3.274999857E-1
8.687979688E0,-6.371599674E0,-5.429100037E0,-2.567999959E-1
8.707979688E0,-6.939099789E0,-6.926699638E0,-1.717199922E0
8.727979688E0,-7.985599995E0,-7.931200027E0,-2.631399870E0
8.747979688E0,-8.716300011E0,-8.605500221E0,-3.043200016E0
8.767979688E0,-8.567199707E0,-9.420999527E0,-3.056799889E0
8.787979688E0,-8.194999695E0,-1.001669979E1,-3.466300011E0
8.807979688E0,-6.846099854E0,-1.129780006E1,-2.493599892E0
8.827979688E0,-5.618199825E0,-1.210149956E1,-1.159299970E0
8.847979688E0,-4.464299679E0,-1.111339951E1,8.994999528E-1
8.867979688E0,-3.000499964E0,-1.033379936E1,1.657599926E0
8.887979688E0,-9.161999822E-1,-1.076589966E1,8.611999750E-1
8.907979688E0,-6.536999941E-1,-1.058179951E1,-6.635999680E-1
8.927979688E0,-2.034999847E0,-8.436100006E0,-5.554999709E-1
8.947979688E0,-1.892599940E0,-7.324499607E0,-6.109999865E-2
8.967979688E0,-2.303999960E-1,-7.867099762E0,-1.102999970E-1
8.987979688E0,7.673000097E-1,-8.567199707E0,1.906999946E-1
9.007979688E0,1.900200009E0,-8.492899895E0,2.569999918E-2
9.027979688E0,2.523299932E0,-7.762099743E0,-5.464000106E-1
9.047979688E0,3.009699821E0,-5.052799702E0,-6.969000101E-1
9.067979688E0,2.610299826E0,-1.884999990E0,-8.500000089E-2
9.087979688E0,2.290899992E0,4.882999957E-1,4.404999912E-1
9.107979688E0,1.817099929E0,1.885999918E0,5.080000162E-1
9.127979688E0,1.458400011E0,2.913300037E0,1.753000021E-1
9.147979688E0,1.557099938E0,3.130899906E0,-4.143999815E-1
9.167979688E0,2.369499922E0,2.848899841E0,-5.633000135E-1
9.187979688E0,3.482999802E0,1.611299992E0,-5.896999836E-1
9.207979688E0,4.270999908E0,3.748999834E-1,-1.692000031E-1
9.227979688E0,4.585999966E0,-6.126999855E-1,2.653000057E-1
9.247979688E0,5.108799934E0,-1.367699981E0,3.619999811E-2
9.267979688E0,5.782199860E0,-2.060199976E0,-6.694999933E-1
9.297979688E0,6.617799759E0,-2.465800047E0,-2.714000046E-1
9.317979688E0,6.835000038E0,-2.136299849E0,5.519999862E-1
9.337981250E0,6.802399635E0,-1.201699972E0,1.327999949E0
9.367979688E0,7.403599739E0,-9.912999868E-1,1.107699990E0
9.387979688E0,6.366199970E0,-5.647999644E-1,6.709999591E-2
9.407979688E0,4.894999981E0,-3.332999945E-1,-3.119999915E-2
9.427979688E0,4.119499683E0,-1.889999956E-2,-2.919999883E-2
9.447979688E0,5.047800064E0,-4.869999886E-1,-4.941999912E-1
9.467979688E0,5.823599815E0,-1.182299972E0,-4.737999737E-1
9.487979688E0,5.470399857E0,-2.031499863E0,-3.373999894E-1
9.507979688E0,3.133199930E0,-1.580500007E0,3.392999768E-1
9.527979688E0,2.279999852E-2,1.854999959E-1,1.045599937E0
9.547979688E0,-1.901600003E0,2.353099823E0,1.400099993E0
9.567979688E0,-2.194399834E0,3.914299965E0,3.871999979E-1
9.587979688E0,-1.876899958E0,5.045599937E0,-1.094399929E0
9.607979688E0,-1.394400001E0,5.445899963E0,-2.801800013E0
9.627979688E0,-1.041000009E0,5.329299927E0,-3.716899872E0
9.647979688E0,-4.824000001E-1,4.677400112E0,-3.480499983E0
9.667979688E0,6.661999822E-1,2.995299816E0,-2.549599886E0
9.687979688E0,1.211799979E0,1.631299973E0,-1.159699917E0
9.707979688E0,1.896999955E0,2.081999928E-1,3.851999938E-1
9.727979688E0,2.757699966E0,-1.358999968E0,1.508700013E0
9.747979688E0,2.523499966E0,-3.007900000E0,1.419899940E0
9.767979688E0,1.195400000E0,-4.673500061E0,1.023299932E0
9.787979688E0,-1.355499983E0,-5.325999737E0,1.484099984E0
9.807979688E0,-3.468400002E0,-4.750499725E0,2.068399906E0
9.827981250E0,-4.492499828E0,-2.447900057E0,2.346999884E0
9.857979688E0,-1.264799953E0,-2.903399944E0,-5.379999802E-2
9.877979688E0,-1.901499987E0,-2.041999996E-1,2.114999890E-1
9.897979688E0,-1.307899952E0,7.647999525E-1,1.494899988E0
9.917979688E0,-8.649999648E-2,8.240999579E-1,1.896399975E0
9.937979688E0,9.600999951E-1,1.999999862E-3,7.039999962E-1
9.957979688E0,2.248199940E0,-1.090299964E0,-1.910299897E0
9.977979688E0,3.319399834E0,-1.295400023E0,-4.685899734E0
9.997979688E0,3.445400000E0,-9.820000082E-2,-5.471199989E0
1.001798125E1,2.891099930E0,1.132099986E0,-4.400799751E0
1.004797969E1,1.400299907E0,3.617599964E0,-2.197999954E0
1.006797969E1,6.542999744E-1,5.064199924E0,-1.544099927E0
1.008797969E1,6.678000093E-1,5.983099937E0,-1.412099957E0
1.010797969E1,1.541099906E0,6.347099781E0,-1.585899949E0
1.012797969E1,2.215899944E0,6.176599979E0,-1.740700006E0
1.014797969E1,3.070199966E0,5.356199741E0,-1.373799920E0
1.016797969E1,4.687999725E0,3.306399822E0,-6.923999786E-1
1.018797969E1,5.884299755E0,1.122900009E0,-2.585999966E-1
1.021797969E1,5.554399967E0,1.613999903E-1,1.444299936E0
1.023797969E1,4.939399719E0,3.723999858E-1,1.641799927E0
1.025797969E1,4.400099754E0,9.149999619E-1,4.695999920E-1
1.027797969E1,5.430699825E0,1.269199967E0,-1.086699963E0
1.029797969E1,8.017099380E0,1.136399984E0,-1.292299986E0
1.031797969E1,9.948100090E0,5.317999721E-1,-5.396000147E-1
1.033797969E1,1.005639935E1,-2.963999808E-1,2.549999952E-2
1.035797969E1,9.047699928E0,-1.901199937E0,6.818000078E-1
1.037797969E1,7.816999912E0,-3.646299839E0,2.516000032E0
1.039797969E1,8.453299522E0,-6.823999882E0,3.336699963E0
1.041797969E1,9.371799469E0,-9.851799965E0,2.753399849E0
1.043797969E1,8.644800186E0,-1.185839939E1,1.133899927E0
1.045797969E1,4.757699966E0,-1.128450012E1,6.390999556E-1
1.047799531E1,7.843999863E-1,-8.978899956E0,1.205299973E0
1.050797969E1,-2.074300051E0,-4.363199711E0,1.962700009E0
1.052797969E1,-3.189199924E0,-1.769299984E0,1.090700030E0
1.054798125E1,-4.349299908E0,-3.980000019E-1,-3.339000046E-1
1.057797969E1,-5.824800014E0,-6.517999768E-1,-2.195999861E0
1.059797969E1,-6.824800014E0,-2.196399927E0,-3.166299820E0
1.061797969E1,-7.301799774E0,-4.568099976E0,-2.725499868E0
1.063797969E1,-7.662199974E0,-6.903299809E0,-1.430999994E0
1.065797969E1,-8.345199585E0,-8.919699669E0,-1.202499986E0
1.067797969E1,-9.068900108E0,-1.055280018E1,-1.170300007E0
1.069797969E1,-8.685299873E0,-1.321490002E1,-1.504199982E0
1.071797969E1,-9.463600159E0,-1.461259937E1,-1.389199972E0
1.073797969E1,-1.021599960E1,-1.422839928E1,6.086999774E-1
1.075797969E1,-9.530599594E0,-1.302969933E1,1.416399956E0
1.077797969E1,-7.506899834E0,-1.164050007E1,1.984799981E0
1.079797969E1,-4.745699883E0,-1.013719940E1,1.997299910E0
1.081797969E1,-4.933999777E-1,-1.166049957E1,5.733000040E-1
1.083797969E1,1.232399940E0,-1.167539978E1,-2.178099871E0
1.085797969E1,-4.347999990E-1,-8.250199318E0,-3.044399977E0
1.087797969E1,-5.792999864E-1,-8.061999321E0,-2.250900030E0
1.089797969E1,1.747200012E0,-9.531000137E0,-4.946999848E-1
1.091797969E1,4.868400097E0,-1.018400002E1,1.182299972E0
1.093797969E1,7.312399864E0,-9.396999359E0,1.075500011E0
1.095797969E1,8.010199547E0,-6.847399712E0,2.499999944E-3
1.097797969E1,6.338999748E0,-3.510599852E0,-1.504400015E0
1.099797969E1,3.704999924E0,-5.748999715E-1,-1.151799917E0
1.101798125E1,1.790599942E0,1.518899918E0,2.360000014E-1
1.103798125E1,5.730000138E-1,3.188799858E0,1.582299948E0
1.106799375E1,7.382999659E-1,4.394299984E0,2.613199949E0
1.109797969E1,1.740199924E0,4.659599781E0,1.207399964E0
1.111797969E1,2.375099897E0,4.164499760E0,-2.939999849E-2
1.113797969E1,3.708400011E0,3.185199976E0,-6.402999759E-1
1.115797969E1,4.832999706E0,3.034199953E0,-6.050999761E-1
1.117797969E1,6.303400040E0,3.101399899E0,-9.056999683E-1
1.119797969E1,8.514599800E0,2.613100052E0,-1.477800012E0
1.121797969E1,1.068239975E1,1.288900018E0,-2.170599937E0
1.123797969E1,1.157739925E1,9.789999723E-1,-1.405399919E0
1.125797969E1,1.203849983E1,1.480000019E0,1.060299993E0
1.127797969E1,1.252919960E1,2.406800032E0,3.488699913E0
1.129797969E1,1.301620007E1,2.665199995E0,4.866799831E0
1.131797969E1,1.229889965E1,1.928900003E0,3.733699799E0
1.133797969E1,9.362899780E0,3.016199827E0,3.684000015E0
1.135797969E1,7.785399914E0,3.233399868E0,4.331599712E0
1.137798125E1,8.559800148E0,1.258299947E0,4.995699883E0
1.140797969E1,1.012709999E1,-3.675299883E0,4.750000000E0
1.142797969E1,9.736700058E0,-6.173599720E0,4.355999947E0
1.144797969E1,8.307099342E0,-7.320600033E0,3.644399881E0
1.146798125E1,5.529399872E0,-6.755899906E0,3.156199932E0
1.149797969E1,2.222999930E-1,-3.770499945E0,2.420399904E0
1.151798125E1,-2.584800005E0,-1.586199999E0,1.589900017E0
1.153798125E1,-4.451699734E0,-5.202999711E-1,1.111999974E-1
1.156797969E1,-6.780299664E0,-9.640000015E-2,-2.431799889E0
1.158797969E1,-7.547799587E0,-2.143999934E-1,-2.977200031E0
1.160797969E1,-7.668099880E0,-7.256000042E-1,-2.375599861E0
1.162797969E1,-5.819299698E0,-2.863899946E0,-1.920899987E0
1.164797969E1,-4.033800125E0,-5.716300011E0,-5.724999905E-1
1.166797969E1,-3.581399918E0,-7.991299629E0,-8.664000034E-1
1.168797969E1,-4.178400040E0,-8.422399521E0,-1.913100004E0
1.170797969E1,-5.005499840E0,-8.812799454E0,-3.042500019E0
1.172797969E1,-5.625400066E0,-9.399600029E0,-3.281299829E0
1.174797969E1,-6.282599926E0,-9.378799438E0,-2.966599941E0
1.176797969E1,-7.859999657E0,-7.750199795E0,-1.580299973E0
1.178797969E1,-7.366999626E0,-8.283900261E0,-9.129999578E-2
1.181797969E1,-5.827699661E0,-8.252699852E0,4.505999982E-1
1.183798125E1,-4.409899712E0,-7.579799652E0,1.143999934E0
1.186797969E1,-9.309999645E-2,-7.559899807E0,2.171099901E0
1.188797969E1,2.947599888E0,-8.020699501E0,1.834699988E0
1.190797969E1,4.236899853E0,-7.532499790E0,1.584199905E0
1.192797969E1,3.478099823E0,-5.946199894E0,7.703999877E-1
1.194797969E1,1.863899946E0,-3.676499844E0,6.578999758E-1
1.196798281E1,-3.543999791E-1,-7.012000084E-1,8.830999732E-1
1.199797969E1,-2.273399830E0,3.033200026E0,1.487800002E0
1.201798125E1,-2.084599972E0,4.675299644E0,1.136799932E0
1.203798125E1,-1.739300013E0,5.830899715E0,-1.550000012E-1
1.206797969E1,-3.041000068E-1,6.533199787E0,-2.570099831E0
1.208797969E1,7.874999642E-1,5.664700031E0,-3.719599962E0
1.210797969E1,2.123100042E0,3.863299847E0,-4.148999691E0
1.212797969E1,3.638999939E0,1.805599928E0,-4.266599655E0
1.214797969E1,5.149699688E0,5.074999928E-1,-4.035999775E0
1.216797969E1,6.798799992E0,1.853999943E-1,-3.685899973E0
1.218798125E1,8.769199371E0,-2.658999860E-1,-3.454499960E0
1.221797969E1,1.040649986E1,-4.703999758E-1,-2.348599911E0
1.223797969E1,1.074879932E1,-2.230999917E-1,-6.520999670E-1
1.225797969E1,9.827599525E0,1.105099916E0,1.032699943E0
1.227798125E1,9.727899551E0,9.831999540E-1,1.895599961E0
1.230797969E1,7.636799812E0,7.002999783E-1,1.696099997E0
1.232797969E1,5.645199776E0,1.046000004E0,1.667899966E0
1.234797969E1,5.129399776E0,4.838999808E-1,1.658599973E0
1.236797969E1,5.984600067E0,-1.199499965E0,1.347199917E0
1.238797969E1,7.084699631E0,-3.695199966E0,1.223199964E0
1.240797969E1,6.343999863E0,-5.224499702E0,1.662899971E0
1.242797969E1,4.378299713E0,-5.798399925E0,1.839100003E0
1.244797969E1,1.524199963E0,-4.181600094E0,2.858000040E0
1.246797969E1,-8.701999784E-1,-2.288599968E0,3.191900015E0
1.248797969E1,-3.047999859E0,-2.114999890E-1,2.972699881E0
1.250797969E1,-4.404699802E0,1.113299966E0,2.662400007E0
1.252797969E1,-4.830499649E0,1.819299936E0,2.195799828E0
1.254797969E1,-4.999300003E0,1.844499946E0,1.416999936E0
1.256797969E1,-4.981299877E0,8.586999774E-1,4.415999949E-1
1.258797969E1,-5.140599728E0,-5.286999941E-1,-8.168999553E-1
1.260797969E1,-5.332599640E0,-2.155400038E0,-2.054399967E0
1.262797969E1,-5.023799896E0,-4.567599773E0,-2.964599848E0
1.264797969E1,-5.298999786E0,-6.442599773E0,-2.277999878E0
1.266798594E1,-6.165799618E0,-7.430799961E0,-1.651699901E0
1.269797969E1,-7.156499863E0,-7.950199604E0,-1.515299916E0
1.271797969E1,-7.872299671E0,-7.510599613E0,-1.291999936E0
1.274797969E1,-8.111199379E0,-6.813899994E0,-1.069999952E-2
1.276797969E1,-6.093100071E0,-9.062500000E0,-1.924999952E-1
1.278797969E1,-5.063799858E0,-9.207099915E0,-4.136999846E-1
1.280797969E1,-4.125699997E0,-7.886699677E0,9.788999557E-1
1.282797969E1,-2.127399921E0,-7.041599751E0,1.902699947E0
1.284797969E1,2.228000015E-1,-6.919999599E0,1.942799926E0
1.286798281E1,2.026799917E0,-7.124300003E0,2.230000019E0
1.289797969E1,1.143599987E0,-5.419899940E0,2.089099884E0
1.291797969E1,-1.641999930E-1,-3.345999956E0,1.937699914E0
1.294797969E1,-1.110800028E0,1.902999878E-1,1.883999944E0
1.296797969E1,-8.542999625E-1,2.208199978E0,1.903899908E0
1.298797969E1,-1.468999982E-1,3.662499905E0,1.831599951E0
1.301798125E1,1.074599981E0,4.935400009E0,9.426999688E-1
1.303798125E1,1.663199902E0,4.871900082E0,-2.387999892E-1
1.306797969E1,3.490700006E0,3.417099953E0,-1.825299978E0
1.308797969E1,4.856100082E0,2.125399828E0,-1.220899940E0
1.310797969E1,6.813399792E0,1.254899979E0,6.639999896E-2
1.312797969E1,8.612599373E0,9.171999693E-1,4.910999835E-1
1.314797969E1,9.946999550E0,7.281999588E-1,8.806999922E-1
1.316797969E1,1.087790012E1,5.511999726E-1,1.422099948E0
1.318797969E1,1.122929955E1,7.154999971E-1,2.724400043E0
1.320797969E1,1.086670017E1,1.773099899E0,3.970799923E0
1.322797969E1,1.098849964E1,2.473099947E0,4.840199947E0
1.324797969E1,1.151900005E1,1.594499946E0,3.721299887E0
1.326797969E1,1.059399986E1,1.297799945E0,2.504499912E0
1.328797969E1,9.610899925E0,1.037299991E0,2.279099941E0
1.330797969E1,9.668899536E0,-1.960999966E-1,2.214099884E0
1.332797969E1,1.047410011E1,-2.740599871E0,2.577100039E0
1.334797969E1,1.066090012E1,-5.976799965E0,3.164799929E0
1.336797969E1,8.226200104E0,-7.496599674E0,3.871599913E0
1.338797969E1,4.845200062E0,-6.692800045E0,4.850899696E0
1.340797969E1,2.271299839E0,-5.182600021E0,5.392199993E0
1.342797969E1,4.190999866E-1,-3.873099804E0,4.902299881E0
1.344797969E1,-1.506299973E0,-2.942399979E0,3.575199842E0
1.346797969E1,-3.615499973E0,-2.151200056E0,1.936499953E0
1.348797969E1,-5.289400101E0,-1.990599990E0,4.370999932E-1
1.351797969E1,-7.156299591E0,-2.769899845E0,-9.235999584E-1
1.353798125E1,-7.717499733E0,-4.041100025E0,-1.247499943E0
1.356797969E1,-7.151000023E0,-6.455599785E0,-1.265599966E0
1.358797969E1,-7.203399658E0,-7.049499989E0,-1.122499943E0
1.360797969E1,-7.142199993E0,-7.748999596E0,-1.259400010E0
1.362797969E1,-6.802299976E0,-8.927100182E0,-1.086799979E0
1.364797969E1,-7.307499886E0,-9.618399620E0,-1.956999898E-1
1.366797969E1,-8.385499954E0,-9.763999939E0,9.512999654E-1
1.368797969E1,-1.033349991E1,-8.946499825E0,2.209499836E0
1.370797969E1,-1.010739994E1,-1.030539989E1,2.944299936E0
1.372797969E1,-9.002099991E0,-1.151719952E1,2.603600025E0
1.374798281E1,-7.951499939E0,-1.088109970E1,3.607399940E0
1.376798281E1,-5.247600079E0,-9.844099998E0,6.034499645E0
1.379797969E1,1.889499903E0,-9.236000061E0,6.072399616E0
1.382797969E1,6.482299805E0,-8.069899559E0,2.152799845E0
1.384797969E1,5.986299992E0,-5.924900055E0,-1.125999987E-1
1.387797812E1,2.885499954E0,-1.768899918E0,-2.845999897E-1
1.389797969E1,1.105899930E0,9.595999718E-1,1.357900023E0
1.391797969E1,1.859999895E-1,3.059700012E0,2.230499983E0
1.394797969E1,3.104999959E-1,4.848199844E0,1.699800014E0
1.396797969E1,8.678999543E-1,5.116300106E0,5.309999734E-2
1.398797969E1,2.045300007E0,4.609499931E0,-1.201599956E0
1.401798125E1,3.532999992E0,3.855299950E0,-2.196500063E0
1.403798125E1,4.440299988E0,3.347399950E0,-2.134399891E0
1.406797969E1,7.620599747E0,1.714399934E0,-1.598999977E0
1.408797969E1,8.825499535E0,1.603500009E0,-1.126999974E0
1.411797969E1,1.008839989E1,1.210799932E0,4.438999891E-1
1.413797969E1,1.032569981E1,1.341499925E0,1.846399903E0
1.415797969E1,1.040559959E1,1.743799925E0,3.047799826E0
1.417797969E1,1.117829990E1,1.231899977E0,3.914999962E0
1.419797969E1,1.174079990E1,9.929999709E-2,4.343299866E0
1.421797969E1,1.052499962E1,5.134999752E-1,3.917299986E0
1.423797969E1,9.423500061E0,1.103099942E0,3.268899918E0
1.425797969E1,9.884799957E0,8.569999784E-2,2.279099941E0
1.427797969E1,1.056820011E1,-2.034899950E0,2.161299944E0
1.429797969E1,1.047029972E1,-4.896599770E0,2.115099907E0
1.431797969E1,7.776799679E0,-5.900799751E0,2.093400002E0
1.433797969E1,4.828399658E0,-5.325799942E0,2.228699923E0
1.435797969E1,2.199699879E0,-3.901899815E0,2.906199932E0
1.437797969E1,1.727000028E-1,-2.490999937E0,3.570799828E0
1.439798125E1,-1.523399949E0,-1.771199942E0,3.531899929E0
1.442797969E1,-3.431799889E0,-1.615999937E0,3.453199863E0
1.444797969E1,-4.097000122E0,-1.881500006E0,3.236599922E0
1.446797969E1,-4.511600018E0,-2.662499905E0,2.449699879E0
1.448797969E1,-4.501599789E0,-4.096099854E0,1.735000014E0
1.450797969E1,-4.563399792E0,-5.902100086E0,1.218599916E0
1.452797969E1,-4.844299793E0,-7.344799995E0,7.450999618E-1
1.454797969E1,-5.694499969E0,-7.890499592E0,3.674999774E-1
1.456797969E1,-5.964699745E0,-8.474900246E0,-4.851999879E-1
1.458797969E1,-5.773200035E0,-8.970799446E0,-1.014299989E0
1.461797969E1,-5.246299744E0,-9.568699837E0,-1.551899910E0
1.463797969E1,-5.539399624E0,-8.889100075E0,-7.022999525E-1
1.465798125E1,-5.889400005E0,-8.190199852E0,1.064800024E0
1.468797969E1,-5.243899822E0,-8.952799797E0,2.751399994E0
1.470797969E1,-5.759699821E0,-8.051599503E0,2.923499823E0
1.472797969E1,-5.307699680E0,-6.870699883E0,3.725499868E0
1.474797969E1,-2.809000015E0,-6.917099953E0,3.608699799E0
1.476797969E1,-1.595999897E-1,-7.310199738E0,3.040899992E0
1.478797969E1,1.633399963E0,-7.442100048E0,2.619999886E0
1.480797969E1,1.599599957E0,-6.282899857E0,2.246599913E0
1.482797969E1,5.099999905E-1,-4.749199867E0,1.372900009E0
1.484797969E1,-7.645999789E-1,-2.946899891E0,1.260999918E0
1.486797969E1,-1.754799962E0,-1.227100015E0,1.421000004E0
1.488797969E1,-2.283200026E0,3.499999940E-1,2.088500023E0
1.490797969E1,-2.589999914E0,1.495999932E0,2.494899988E0
1.492797969E1,-2.149800062E0,2.526099920E0,2.665999889E0
1.494797969E1,-1.163999915E0,2.729300022E0,1.726699948E0
1.496797969E1,-2.699999837E-3,2.424199820E0,3.999999911E-2
1.498797969E1,1.220000029E0,1.841099977E0,-1.549799919E0
1.500797969E1,2.947899818E0,1.287400007E0,-2.199599981E0
1.502798125E1,4.736099720E0,8.394999504E-1,-1.702899933E0
1.504798125E1,6.887099743E0,7.712999582E-1,-1.394299984E0
1.507797969E1,1.003139973E1,4.726999998E-1,-1.986599922E0
1.509797969E1,1.142539978E1,5.986999869E-1,-1.537899971E0
1.511797969E1,1.205349922E1,1.110700011E0,-1.352999955E-1
1.513797969E1,1.167249966E1,2.080100060E0,2.243199825E0
1.515797969E1,1.244219971E1,1.148100019E0,3.305500031E0
1.517797969E1,1.141090012E1,8.473999500E-1,2.994400024E0
1.519797969E1,8.886599541E0,1.867199898E0,3.290299892E0
1.521797969E1,7.695299625E0,1.805299997E0,3.194999933E0
1.523797969E1,8.242300034E0,-3.029999882E-2,2.708600044E0
1.525797969E1,9.286199570E0,-2.881000042E0,2.216799974E0
1.527797969E1,9.131599426E0,-5.232599735E0,2.024100065E0
1.529797969E1,7.326799870E0,-5.787399769E0,2.206699848E0
1.531797969E1,4.450799942E0,-4.706399918E0,2.755300045E0
1.533797969E1,1.620800018E0,-3.059199810E0,2.839799881E0
1.535797969E1,-8.971999884E-1,-1.448400021E0,2.444299936E0
1.537797969E1,-2.613800049E0,-4.210999906E-1,1.879599929E0
1.539797969E1,-3.508299828E0,-1.014999971E-1,1.026199937E0
1.541797969E1,-4.125499725E0,-5.220999718E-1,7.757999897E-1
1.543797969E1,-4.591199875E0,-1.028299928E0,5.005999804E-1
1.545797969E1,-5.141399860E0,-2.141499996E0,-4.719999805E-2
1.547798125E1,-5.830899715E0,-3.052699804E0,-2.836000025E-1
1.550797813E1,-6.597199917E0,-4.791500092E0,-1.276999950E0
1.552797969E1,-6.403399944E0,-5.939599991E0,-1.528100014E0
1.554797969E1,-6.149499893E0,-6.663599968E0,-1.706799984E0
1.556797969E1,-5.957999706E0,-7.371799946E0,-1.883599997E0
1.558797969E1,-6.018799782E0,-8.010999680E0,-1.565599918E0
1.560797969E1,-6.318199635E0,-8.005399704E0,-6.028999686E-1
1.562797969E1,-6.931099892E0,-7.009099960E0,6.347999573E-1
1.564797969E1,-6.184599876E0,-7.336599827E0,1.266099930E0
1.566797969E1,-5.282099724E0,-7.736299992E0,1.375199914E0
1.568797969E1,-4.751100063E0,-6.653499603E0,1.831200004E0
1.570797969E1,-3.090499878E0,-6.370800018E0,2.119199991E0
1.572797969E1,-7.353999615E-1,-6.431099892E0,2.009199858E0
1.574797969E1,1.687099934E0,-7.402999878E0,1.589199901E0
1.576798281E1,2.546999931E0,-7.417799950E0,1.301699996E0
1.579797969E1,1.094300032E0,-5.052399635E0,1.014299989E0
1.581797969E1,2.083999962E-1,-2.668699980E0,9.691999555E-1
1.583797969E1,-4.601999819E-1,-2.080999911E-1,1.056399941E0
1.585797969E1,-6.550999880E-1,1.783699989E0,1.265699983E0
1.587797969E1,-7.914999723E-1,3.151499987E0,1.123999953E0
1.589797969E1,-7.322999835E-1,3.881699800E0,8.975999951E-1
1.591797969E1,-6.678999662E-1,4.012199879E0,6.949999928E-2
1.593797969E1,-1.776999980E-1,3.695099831E0,-8.089999557E-1
1.595797969E1,5.715000033E-1,3.212999821E0,-1.675300002E0
1.597797969E1,2.184499979E0,2.058500051E0,-2.304299831E0
1.599797969E1,3.729199886E0,1.375100017E0,-2.314199924E0
1.601798125E1,5.326999664E0,7.500999570E-1,-1.819000006E0
1.604798125E1,7.913799763E0,9.129999578E-2,-1.158299923E0
1.607797969E1,9.723199844E0,4.910000041E-2,-3.287999928E-1
1.609798125E1,9.447999954E0,1.220899940E0,7.527999878E-1
1.612797969E1,9.885999680E0,1.365800023E0,1.999599934E0
1.614797969E1,9.366000175E0,4.781000018E-1,1.665199995E0
1.616797969E1,7.581999779E0,5.575999618E-1,1.471099973E0
1.618797969E1,7.088799953E0,3.391000032E-1,1.331900001E0
1.620797969E1,8.559999466E0,-1.673200011E0,7.172999978E-1
1.622797969E1,9.715199471E0,-4.536999702E0,6.778999567E-1
1.624797969E1,8.793899536E0,-6.838999748E0,8.289999962E-1
1.626797969E1,5.307799816E0,-6.336199760E0,1.748299956E0
1.628797969E1,1.495700002E0,-4.060199738E0,2.533200026E0
1.630797969E1,-1.144099951E0,-2.004699945E0,2.935099840E0
1.632797969E1,-3.159699917E0,-5.464000106E-1,2.741299868E0
1.634797969E1,-4.218299866E0,8.289999515E-2,1.698300004E0
1.636797969E1,-4.719999790E0,-8.179999888E-2,5.805999637E-1
1.638797969E1,-5.232100010E0,-1.339000016E-1,-1.572999954E-1
1.640797969E1,-5.685100079E0,-4.807999730E-1,-9.355999827E-1
1.642797969E1,-5.955599785E0,-1.355499983E0,-1.739499927E0
1.644797969E1,-6.141499996E0,-2.578299999E0,-1.967299938E0
1.646798594E1,-6.529899597E0,-3.435999870E0,-1.924199939E0
1.649797969E1,-6.347499847E0,-3.974999905E0,-1.020399928E0
1.651798125E1,-5.388999939E0,-5.202099800E0,-7.811999917E-1
1.654798125E1,-4.562299728E0,-6.023299694E0,-8.269000053E-1
1.657797969E1,-5.437599659E0,-4.659800053E0,-1.312000006E-1
1.659798125E1,-4.898799896E0,-4.854499817E0,7.838000059E-1
1.661798125E1,-3.398299932E0,-6.698299885E0,4.475999773E-1
1.664797969E1,-3.251899958E0,-7.509099960E0,1.326999962E-1
1.666798594E1,-2.106799841E0,-8.128099442E0,5.065999627E-1
1.669797969E1,7.429999858E-2,-7.518999577E0,1.796099901E0
1.671797969E1,2.327100039E0,-7.447000027E0,1.960599899E0
1.673798125E1,2.558199883E0,-5.950799942E0,1.069299936E0
1.675798125E1,1.120599985E0,-4.133899689E0,3.199999919E-3
1.678797969E1,-1.792199969E0,-8.506000042E-1,-9.790999889E-1
1.680797969E1,-2.795199871E0,1.134099960E0,-1.049199939E0
1.682797969E1,-3.033399820E0,2.585599899E0,-6.419000030E-1
1.684797969E1,-3.044299841E0,3.505899906E0,-3.849999905E-1
1.686797969E1,-2.930399895E0,3.917500019E0,-4.614000022E-1
1.688797969E1,-3.067399979E0,4.093699932E0,-1.100999951E0
1.690797969E1,-3.065299988E0,3.941399813E0,-1.915299892E0
1.692797969E1,-2.530799866E0,3.397199869E0,-2.609699965E0
1.694797969E1,-1.133599997E0,2.204799891E0,-2.785099983E0
1.696798125E1,-6.416999698E-1,1.548699975E0,-3.464200020E0
1.699797969E1,-2.064999938E-1,-1.960999966E-1,-3.810899973E0
1.701798125E1,8.517000079E-1,-1.941100001E0,-2.265199900E0
1.704797969E1,3.061100006E0,-3.756099939E0,9.677999616E-1
1.706797969E1,4.455699921E0,-3.979499817E0,2.204999924E0
1.708797969E1,6.288099766E0,-4.142499924E0,3.011099815E0
1.710797969E1,7.724199772E0,-3.710899830E0,2.756299973E0
1.712797969E1,7.527999878E0,-1.282499909E0,3.371699810E0
1.714797969E1,6.848199844E0,9.285999537E-1,3.438899994E0
1.716797969E1,6.872799873E0,1.253799915E0,2.234499931E0
1.718797969E1,6.833499908E0,4.878999889E-1,7.317000031E-1
1.720797969E1,6.377699852E0,-4.899999797E-1,-1.011600018E0
1.722797969E1,5.326900005E0,-7.157999873E-1,-2.348299980E0
1.724797969E1,3.451900005E0,-1.026999950E-1,-1.396199942E0
1.726797969E1,3.476999998E-1,1.501500010E0,5.549999699E-2
1.728797969E1,-2.321599960E0,2.949100018E0,1.028800011E0
1.730797969E1,-3.748199940E0,3.923599958E0,9.932000041E-1
1.732797969E1,-3.734200001E0,3.829499960E0,6.129999831E-2
1.734797969E1,-2.731699944E0,3.216099977E0,-8.792999983E-1
1.736797969E1,-1.809899926E0,2.172800064E0,-1.818199992E0
1.738797969E1,-9.218999743E-1,1.334200025E0,-2.138799906E0
1.740797969E1,-1.344999969E-1,4.540999830E-1,-2.372400045E0
1.742797969E1,-6.119999662E-2,-3.118999898E-1,-2.895299911E0
1.744797969E1,-3.795000017E-1,-8.960999846E-1,-2.801299810E0
1.746797969E1,-2.745999992E-1,-1.437500000E0,-2.204400063E0
1.748797969E1,7.039999962E-2,-2.137599945E0,-1.204199910E0
1.750797969E1,-9.200000204E-3,-2.718199968E0,-3.460000083E-2
1.752797969E1,-6.987000108E-1,-2.367599964E0,7.038999796E-1
1.754797969E1,-2.667999864E-1,-2.699399948E0,8.062999845E-1
1.756797969E1,1.538800001E0,-3.078199863E0,8.760000020E-2
1.758797969E1,2.152600050E0,-1.688300014E0,2.439999878E-1
1.760797969E1,1.987499952E0,3.819999844E-2,1.647799969E0
1.762797969E1,1.666599989E0,8.003999591E-1,2.914899826E0
1.764797969E1,1.319499969E0,1.116899967E0,3.715999842E0
1.766797969E1,1.334499955E0,1.595499992E0,3.190899849E0
1.768797969E1,2.115599871E0,1.968199968E0,1.105599999E0
1.770797969E1,2.743599892E0,2.622200012E0,-1.087399960E0
1.772798125E1,2.467999935E0,3.512899876E0,-2.783200026E0
1.775797969E1,1.314599991E0,4.136199951E0,-2.850499868E0
1.777797969E1,3.896999955E-1,4.235199928E0,-1.503299952E0
1.779797969E1,-2.142999917E-1,3.861399889E0,-1.457999945E-1
1.781797969E1,-4.247999787E-1,2.997999907E0,9.379999638E-1
1.783798125E1,-6.085999608E-1,2.105700016E0,1.367200017E0
1.786797969E1,6.849999726E-2,9.684999585E-1,1.143299937E0
1.788797969E1,8.301999569E-1,6.547999978E-1,8.955000043E-1
1.790797969E1,1.555999994E0,7.580999732E-1,5.999999642E-1
1.792797969E1,1.833199978E0,1.197099924E0,1.252000034E-1
1.794797969E1,2.216899872E0,1.065599918E0,-4.159999788E-1
1.796797969E1,2.510099888E0,3.561999798E-1,-3.490999937E-1
1.798797969E1,2.371099949E0,-3.219999745E-2,4.057999849E-1
1.801798125E1,2.414399862E0,-9.120000005E-1,2.653000057E-1
1.804797969E1,2.061199903E0,-2.427799940E0,6.498999596E-1
1.806797969E1,1.233600020E0,-1.905399919E0,1.972700000E0
1.808797969E1,1.635699987E0,-2.286200047E0,2.086999893E0
1.810797969E1,1.589599967E0,-2.410599947E0,2.139999866E0
1.812797969E1,1.528699994E0,-2.697999954E0,2.018699884E0
1.814797969E1,1.025599957E0,-2.187299967E0,2.033999920E0
1.816797969E1,2.349999994E-1,-9.616999626E-1,2.648900032E0
1.818797969E1,-3.789999783E-1,1.587999910E-1,3.003999949E0
1.820797969E1,-1.018999934E0,1.084699988E0,3.170799971E0
1.822797969E1,-1.808200002E0,1.742100000E0,3.464599848E0
1.824797969E1,-2.947199821E0,2.496599913E0,3.781599998E0
1.826797969E1,-3.382799864E0,2.824399948E0,3.532299995E0
1.828797969E1,-2.830999851E0,2.326599836E0,2.638599873E0
1.830797969E1,-1.676800013E0,1.338500023E0,2.090699911E0
1.832797969E1,-8.659999967E-1,2.876999974E-1,1.351300001E0
1.834797969E1,-7.312999964E-1,-5.823000073E-1,4.126999974E-1
1.836797969E1,-5.410000086E-1,-1.858500004E0,-7.723000050E-1
1.838797969E1,-4.998999834E-1,-2.581399918E0,-1.562299967E0
1.840797969E1,-8.248999715E-1,-3.088899851E0,-2.318699837E0
1.842797969E1,-1.154500008E0,-3.803200006E0,-2.590699911E0
1.844797969E1,-1.575500011E0,-5.068699837E0,-2.274099827E0
1.847797969E1,-3.504699945E0,-5.592299938E0,-1.274299979E0
1.849797969E1,-4.016799927E0,-5.914700031E0,-7.507999539E-1
1.851798125E1,-4.108299732E0,-7.054399967E0,-1.267400026E0
1.853798125E1,-6.202099800E0,-5.410699844E0,-6.635000110E-1
1.856797969E1,-5.989899635E0,-2.747200012E0,2.266799927E0
1.858797969E1,-3.287499905E0,-1.651499987E0,3.346999884E0
1.860797969E1,6.687999964E-1,-2.402799845E0,3.689299822E0
1.862797969E1,3.470999956E0,-2.498699903E0,2.971400023E0
1.864797969E1,4.321399689E0,-1.646999955E0,6.340000033E-2
1.866797969E1,3.030299902E0,-4.134999812E-1,-3.126999855E0
1.868797969E1,6.247999668E-1,1.246899962E0,-3.448299885E0
1.870797969E1,-1.205399990E0,2.671000004E0,-1.256199956E0
1.872797969E1,-2.043999910E0,3.807199955E0,6.006000042E-1
1.874797969E1,-2.074399948E0,4.599899769E0,1.529099941E0
1.876797969E1,-1.569399953E0,4.889400005E0,1.230299950E0
1.878797969E1,-9.440999627E-1,4.711400032E0,5.267999768E-1
1.880797969E1,-8.333999515E-1,4.147200108E0,-2.795999944E-1
1.882797969E1,-4.676999748E-1,3.399600029E0,-7.978000045E-1
1.884797969E1,4.629999995E-1,2.535399914E0,-1.222000003E0
1.886797969E1,7.778999805E-1,1.741400003E0,-1.956399918E0
1.888797969E1,-6.529999524E-2,1.648699999E0,-1.942399979E0
1.890797969E1,3.079999983E-1,1.712299943E0,-6.031000018E-1
1.892797969E1,2.667299986E0,1.396999955E0,6.363999844E-1
1.894797969E1,4.928100109E0,1.031800032E0,9.862999916E-1
1.896797969E1,6.329299927E0,1.134899974E0,1.165799975E0
1.898798125E1,7.408899784E0,1.021999955E0,1.556699991E0
1.900798125E1,8.522799492E0,-7.972999811E-1,1.311499953E0
1.903797969E1,7.718199730E0,-1.357699990E0,1.653399944E0
1.905798125E1,7.220499992E0,-1.198199987E0,1.648599982E0
1.908797969E1,7.983299732E0,-3.556499958E0,1.708000004E-1
1.910797969E1,7.044999599E0,-4.749599934E0,4.341999888E-1
1.912797969E1,4.510099888E0,-4.954699993E0,1.065599918E0
1.914797969E1,1.180400014E0,-3.675299883E0,1.517300010E0
1.916797969E1,-1.714899898E0,-1.732100010E0,1.568599939E0
1.918798125E1,-3.230099916E0,-3.687999845E-1,1.094900012E0
1.921797969E1,-5.302899837E0,1.154899955E0,-8.754000068E-1
1.923797969E1,-6.357299805E0,1.895599961E0,-1.635499954E0
1.925798125E1,-6.623600006E0,2.095200062E0,-1.712399960E0
1.928797969E1,-6.333600044E0,1.538499951E0,-1.705899954E0
1.930797969E1,-5.109299660E0,3.200999796E-1,-2.031100035E0
1.932797969E1,-3.506500006E0,-1.815799952E0,-1.672199965E0
1.934797969E1,-2.665199995E0,-3.224900007E0,-2.295599937E0
1.936797969E1,-2.189599991E0,-4.255899906E0,-2.737699986E0
1.938797969E1,-2.256700039E0,-4.592199802E0,-2.955799818E0
1.940797969E1,-2.250799894E0,-5.152899742E0,-2.711599827E0
1.942797969E1,-2.087399960E0,-6.055500031E0,-1.699000001E0
1.944797969E1,-2.443699837E0,-6.688299656E0,-8.051999807E-1
1.946798438E1,-3.224499941E0,-6.375699997E0,-2.179999948E-1
1.949797969E1,-2.058799982E0,-7.686999798E0,-2.583000064E-1
1.951797969E1,-1.590600014E0,-7.679999828E0,-3.246999979E-1
1.953797969E1,-2.686499834E0,-5.561500072E0,7.141000032E-1
1.955797969E1,-2.936399937E0,-3.564800024E0,1.967799902E0
1.957797969E1,-1.722299933E0,-3.334599972E0,2.133800030E0
1.959797969E1,3.507999778E-1,-3.999099970E0,2.401000023E0
1.961797969E1,1.982299924E0,-4.143499851E0,2.116799831E0
1.963797969E1,2.430899858E0,-3.176399946E0,9.896000028E-1
1.965797969E1,1.514099956E0,-1.306100011E0,-2.361999899E-1
1.967797969E1,-1.187999994E-1,5.051000118E-1,-7.574999928E-1
1.969797969E1,-1.754999995E0,1.979499936E0,-5.349000096E-1
1.971797969E1,-2.788699865E0,2.961400032E0,-1.407999992E-1
1.973797969E1,-3.492199898E0,3.755599976E0,-2.387999892E-1
1.975797969E1,-2.993299961E0,4.048200130E0,-3.901000023E-1
1.977797969E1,-2.046900034E0,3.700899839E0,-5.637999773E-1
1.979797969E1,-1.519500017E0,3.209199905E0,-7.809999585E-1
1.981797969E1,-1.404299974E0,2.477799892E0,-1.068899989E0
1.983798125E1,-1.429199934E0,2.108599901E0,-1.436399937E0
1.986797969E1,4.254999757E-1,1.735099912E0,-2.020499945E0
1.988797969E1,2.326599836E0,1.493399978E0,-2.602399826E0
1.990797969E1,4.054899693E0,1.075699925E0,-2.787099838E0
1.992797969E1,5.909699917E0,3.631999791E-1,-2.380800009E0
1.994797969E1,6.914399624E0,4.298999906E-1,-1.953199983E0
1.996797969E1,7.849999905E0,8.598999977E-1,-1.401399970E0
1.998797969E1,9.321199417E0,5.103999972E-1,-7.132999897E-1
2.000797969E1,1.008469963E1,5.918999910E-1,-5.619999766E-2
2.002797969E1,9.491000175E0,1.956900001E0,1.273000002E0
2.004797969E1,8.906199455E0,2.633999825E0,1.454399943E0
2.006798125E1,9.118999481E0,1.182600021E0,1.203299999E0
2.008798125E1,9.977899551E0,-1.758999944E0,1.336799979E0
2.010798125E1,9.200200081E0,-4.032999992E0,1.441799998E0
2.012798125E1,6.067399979E0,-4.203999996E0,2.172600031E0
2.014798125E1,2.414700031E0,-3.158599854E0,2.664199829E0
2.016798125E1,-9.377999902E-1,-1.128499985E0,2.927099943E0
2.018798125E1,-3.090899944E0,6.277999878E-1,2.520799875E0
2.020798125E1,-3.868699789E0,1.699399948E0,1.702199936E0
2.023797969E1,-4.112299919E0,2.462499857E0,6.506999731E-1
2.025797969E1,-3.740099907E0,2.122699976E0,-1.300000004E-3
2.027797969E1,-3.611999989E0,1.217800021E0,-9.353999496E-1
2.029797969E1,-3.225399971E0,-2.035999894E-1,-1.445099950E0
2.031797969E1,-2.379600048E0,-2.594300032E0,-2.616299868E0
2.033797969E1,-1.100099921E0,-5.405099869E0,-4.085799694E0
2.035797969E1,-2.133399963E0,-5.559599876E0,-6.264100075E0
2.037797969E1,-3.592299938E0,-6.104499817E0,-7.855099678E0
2.039797969E1,-5.826099873E0,-5.627399921E0,-8.152400017E0
2.041797969E1,-7.415299892E0,-5.438999653E0,-6.478099823E0
2.043797969E1,-7.552499771E0,-5.397199631E0,-4.002900124E0
2.045797969E1,-6.564099789E0,-5.272999763E0,-2.011399984E0
2.047798125E1,-3.533799887E0,-6.615900040E0,-4.580999911E-1
2.049798125E1,-1.237699986E0,-7.497900009E0,-1.451999992E-1
2.051798125E1,-6.963999867E-1,-6.490699768E0,-2.481999993E-1
2.053798125E1,-3.461000025E-1,-5.133899689E0,-2.339999937E-2
2.055798125E1,5.956999660E-1,-4.501199722E0,2.667999864E-1
2.057798125E1,2.871399879E0,-5.040100098E0,5.643000007E-1
2.060797969E1,4.689499855E0,-3.757299900E0,6.902999878E-1
2.062798125E1,4.248099804E0,-1.778800011E0,-8.289999515E-2
2.065797969E1,2.042500019E0,1.196799994E0,-7.220000029E-1
2.068798125E1,3.871999979E-1,2.850999832E0,5.009999871E-1
2.071797969E1,6.995999813E-1,3.891299963E0,1.770599961E0
2.073797969E1,2.472999990E-1,4.624899864E0,2.521800041E0
2.075797969E1,-1.440799952E0,6.055599689E0,2.423499823E0
2.077797969E1,-1.395999908E0,4.193099976E0,1.788699985E0
2.079797969E1,-1.810999990E0,3.830399990E0,1.714999974E-1
2.081797969E1,-1.800899982E0,3.740999937E0,-1.678999960E-1
2.083797969E1,-4.740999937E-1,3.558599949E0,-3.546999991E-1
2.085797969E1,8.455999494E-1,3.786299944E0,-8.094999790E-1
2.087797969E1,1.993399978E0,4.216099739E0,-1.247299910E0
2.089797969E1,3.073299885E0,4.203000069E0,-1.905799985E0
2.091797969E1,4.200399876E0,3.911599874E0,-2.420599937E0
2.093797969E1,5.533699989E0,3.597100019E0,-2.468699932E0
2.095797969E1,6.765399933E0,3.737900019E0,-2.053900003E0
2.097797969E1,9.592499733E0,1.434700012E0,-1.992399931E0
2.099797969E1,1.071129990E1,3.849000037E-1,-9.756999612E-1
2.101798125E1,1.096159935E1,1.592499971E0,1.188199997E0
2.103798125E1,1.375239944E1,1.929999888E-1,1.898399949E0
2.106797969E1,1.556219959E1,-3.701200008E0,1.508700013E0
2.108797969E1,1.402189922E1,-5.294699669E0,1.171800017E0
2.110797969E1,1.187290001E1,-4.213799953E0,1.341300011E0
2.112797969E1,1.057730007E1,-2.450500011E0,2.206699848E0
2.114797969E1,9.938599586E0,-1.296599984E0,2.295300007E0
2.116797969E1,9.520400047E0,-7.681999803E-1,1.769499898E0
2.118797969E1,9.521399498E0,-2.297299862E0,1.138499975E0
2.120797969E1,6.989099979E0,-3.525499821E0,4.720999897E-1
2.122797969E1,4.214499950E0,-4.658499718E0,-1.395799994E0
2.124797969E1,1.696499944E0,-4.750999928E0,-2.911099911E0
2.126798906E1,9.520999789E-1,-5.046999931E0,-3.545699835E0
2.129797969E1,1.108399987E0,-5.945999622E0,-4.316199780E0
2.131797969E1,1.400799990E0,-6.014100075E0,-4.666999817E0
2.133797969E1,1.316499949E0,-5.883599758E0,-4.603099823E0
2.135797969E1,1.701299906E0,-5.617099762E0,-4.792500019E0
2.137797969E1,2.271399975E0,-3.983699799E0,-5.821799755E0
2.139797969E1,3.619299889E0,-5.051399708E0,-7.048799992E0
2.141797969E1,2.252500057E0,-4.503399849E0,-4.067599773E0
2.143798125E1,1.161000013E0,-2.271800041E0,-1.015100002E0
2.145798125E1,1.380399942E0,-1.780599952E0,-2.781499863E0
2.147798125E1,1.943799973E0,-1.655900002E0,-1.888899922E0
2.150797969E1,2.263000011E-1,-8.115999699E-1,-8.234999776E-1
2.152797969E1,-4.553000033E-1,3.030999899E-1,-1.745399952E0
2.154797969E1,5.810999870E-1,7.741999626E-1,-2.029599905E0
2.156797969E1,2.982599974E0,8.772999644E-1,-2.399799824E0
2.158798125E1,1.976799965E0,2.138099909E0,-4.029900074E0
2.161797969E1,-4.027800083E0,2.439699888E0,-5.151499748E0
2.163798125E1,-9.820099831E0,5.483200073E0,-3.886099815E0
2.165798594E1,-1.055459976E1,4.845499992E0,-6.447099686E0
2.168797969E1,-1.156599998E0,-3.103099823E0,9.064999819E-1
2.170797969E1,2.160699844E0,-5.364599705E0,3.424000025E0
2.172797969E1,2.673499823E0,-5.765500069E0,4.567100048E0
2.174797969E1,7.761999965E-1,-6.222799778E0,4.396399975E0
2.176798125E1,2.196999937E-1,-7.120399952E0,1.294099927E0
2.179797969E1,1.525200009E0,-8.924799919E0,-6.269199848E0
2.181797969E1,1.576200008E0,-8.922299385E0,-7.821300030E0
2.183797969E1,8.986999989E-1,-7.654999733E0,-5.482500076E0
2.185797969E1,1.735999882E-1,-6.732499599E0,-3.597299814E0
2.187797969E1,2.723999918E-1,-5.769599915E0,-2.974499941E0
2.189797969E1,3.238999844E-1,-4.867899895E0,-2.818399906E0
2.191797969E1,-7.157999873E-1,-4.401999950E0,-3.276199818E0
2.193797969E1,1.342899919E0,-6.613899708E0,-3.579299927E0
2.195797969E1,8.395999670E-1,-7.284899712E0,-4.760099888E0
2.197797969E1,-1.949999928E-1,-5.101500034E0,-5.158599854E0
2.199798125E1,5.904999971E-1,-4.483900070E0,-4.848799706E0
2.201798125E1,-2.485999912E-1,-4.154999733E0,-6.006799698E0
2.204797969E1,-1.717099905E0,-4.326600075E0,-3.967599869E0
2.206797969E1,-3.141999841E-1,-3.371599913E0,-2.057699919E0
2.208797969E1,3.220799923E0,-3.795799971E0,1.162500024E0
2.210797969E1,5.457200050E0,-3.381799936E0,2.725499868E0
2.212797969E1,5.612400055E0,-2.674299955E0,2.279799938E0
2.214797969E1,4.426899910E0,-1.503600001E0,1.901499987E0
2.216797969E1,5.036399841E0,-1.317699909E0,1.154899955E0
2.218798125E1,4.882899761E0,-1.728599906E0,-3.872999847E-1
2.221797969E1,2.922799826E0,6.980999708E-1,-6.365999579E-1
2.223797969E1,3.851999998E0,5.489000082E-1,2.333000004E-1
2.225798125E1,5.268399715E0,-4.199999869E-1,-4.930000007E-1
2.228797969E1,5.760699749E0,-1.546700001E0,-2.440000057E0
2.230797969E1,6.484899998E0,-3.695899963E0,-3.978599787E0
2.232797969E1,6.524999619E0,-6.605000019E0,-1.952799916E0
2.234798125E1,5.405099869E0,-9.074099541E0,1.358899951E0
2.237797969E1,4.133899689E0,-1.281389999E1,4.104700089E0
2.239797969E1,-8.839999884E-2,-1.159299946E1,7.049799919E0
2.241797969E1,-1.848299980E0,-9.573900223E0,9.044400215E0
2.243797969E1,-4.743999839E-1,-8.420299530E0,9.236899376E0
2.245798438E1,1.576200008E0,-7.062500000E0,9.751299858E0
2.248797969E1,2.323499918E0,-3.873699903E0,1.109879971E1
2.250797969E1,2.768999934E-1,-1.971399903E0,9.113800049E0
2.252798125E1,-2.546200037E0,1.769999973E-2,7.726399899E0
2.254798125E1,-4.664599895E0,2.085199833E0,7.045699596E0
2.256798125E1,-5.369299889E0,2.377500057E0,5.527299881E0
2.258798125E1,-6.922099590E0,2.420099974E0,3.567399979E0
2.261797969E1,-6.271699905E0,1.710099936E0,5.217899799E0
2.263797969E1,-4.091099739E0,1.961199999E0,7.628199577E0
2.265798125E1,3.847000003E-1,5.070999861E-1,5.883800030E0
2.268797969E1,-4.225800037E0,2.901199818E0,2.518199921E0
2.270797969E1,-4.379699707E0,9.437999725E-1,6.807999611E-1
2.272797969E1,-4.183000028E-1,-2.584599972E0,3.608999848E-1
2.274797969E1,3.218899965E0,-5.687200069E0,1.521999985E-1
2.276798281E1,7.924199581E0,-1.143239975E1,-2.574300051E0
2.279797969E1,1.201079941E1,-1.283199978E1,-5.707399845E0
2.281797969E1,1.212599945E1,-8.759099960E0,-4.994299889E0
2.283797969E1,8.626299858E0,-4.459000111E0,-1.769299984E0
2.285797969E1,3.528599977E0,-2.983700037E0,2.868899822E0
2.287797969E1,-6.453999877E-1,-2.316200018E0,3.469899893E0
2.289797969E1,-4.085799694E0,-3.107999861E-1,2.996099949E0
2.291797969E1,-4.850699902E0,2.349400043E0,1.321099997E0
2.293797969E1,-3.120399952E0,4.427799702E0,-7.120999694E-1
2.295797969E1,-5.708999634E-1,5.228600025E0,-1.464299917E0
2.297797969E1,1.084699988E0,5.594799995E0,-1.511699915E0
2.299797969E1,1.262799978E0,5.974799633E0,-1.380199909E0
2.301797969E1,1.015599966E0,5.642999649E0,-1.566299915E0
2.303797969E1,1.133999974E-1,5.096699715E0,-8.973999619E-1
2.305797969E1,-1.442299962E0,4.161099911E0,-4.883999825E-1
2.307797969E1,-2.951900005E0,3.034299850E0,2.014999986E-1
2.309797969E1,-4.295399666E0,1.754400015E0,9.888999462E-1
2.311797969E1,-3.315099955E0,1.908999979E-1,1.693399906E0
2.313797969E1,-1.309199929E0,-8.435999751E-1,1.704100013E0
2.315797969E1,-2.626999915E-1,-1.422899961E0,1.272400022E0
2.317797969E1,2.603199959E0,-5.396800041E0,1.597899914E0
2.319797969E1,3.947799921E0,-1.011380005E1,1.856599927E0
2.321797969E1,1.688499928E0,-9.785099983E0,4.465699673E0
2.323797969E1,1.076499939E0,-6.628900051E0,8.493499756E0
2.325797969E1,4.672399998E0,-4.507800102E0,8.792200089E0
2.327797969E1,6.982800007E0,-2.687799931E0,1.620899916E0
2.329797969E1,6.283599854E0,-1.594200015E0,-6.625000000E0
2.331797969E1,2.662899971E0,4.950999916E-1,-1.071010017E1
2.333797969E1,-4.147000015E-1,1.320400000E0,-8.097100258E0
2.335797969E1,-1.330299973E0,2.932999849E0,-3.350299835E0
2.337797969E1,-4.413999915E-1,4.886099815E0,7.278999686E-1
2.339797969E1,9.697999954E-1,5.681999683E0,2.258800030E0
2.341797969E1,6.606999636E-1,6.648399830E0,2.460099936E0
2.343797969E1,5.087999701E-1,7.176799774E0,1.852299929E0
2.345797969E1,7.567999959E-1,7.447499752E0,9.472999573E-1
2.347798125E1,1.223699927E0,7.105399609E0,9.123999476E-1
2.350797969E1,1.406299949E0,6.969899654E0,1.675799966E0
2.352797969E1,1.841499925E0,6.224099636E0,1.028100014E0
2.354797969E1,2.716899872E0,4.724699974E0,3.181999922E-1
2.356798281E1,2.909799814E0,2.613199949E0,2.208999991E-1
2.359797969E1,2.995100021E0,-1.002900004E0,3.727899790E0
2.361797969E1,6.741099834E0,-4.672800064E0,7.113599777E0
2.363797969E1,1.363729954E1,-1.172769928E1,6.793499947E0
2.365797969E1,1.593739986E1,-1.407179928E1,1.848699927E0
2.367797969E1,1.555579948E1,-1.170969963E1,-9.873999953E-1
2.369797969E1,1.629229927E1,-1.026439953E1,2.756299973E0
2.371797969E1,1.507179928E1,-9.495499611E0,7.853899956E0
2.373797969E1,1.130389977E1,-7.977900028E0,8.059700012E0
2.375797969E1,8.786799431E0,-8.135999680E0,5.945899963E0
2.377798125E1,4.810400009E0,-6.985799789E0,4.243700027E0
2.380797969E1,1.841199994E0,-5.429999828E0,2.955199957E0
2.382797969E1,6.294999719E-1,-4.958199978E0,2.531199932E0
2.384797969E1,-1.146299958E0,-5.693199635E0,2.170699835E0
2.386797969E1,-3.270499945E0,-5.144299984E0,2.697799921E0
2.388797969E1,-3.151000023E0,-5.173599720E0,2.692199945E0
2.390797969E1,-1.800099969E0,-6.026199818E0,2.937999964E0
2.392797969E1,5.949999765E-2,-7.491699696E0,3.825399876E0
2.394797969E1,1.784299970E0,-9.389800072E0,4.123300076E0
2.396797969E1,3.984200001E0,-1.258990002E1,2.959699869E0
2.398797969E1,5.507599831E0,-1.642350006E1,1.784399986E0
2.400797969E1,4.137799740E0,-1.722920036E1,1.391999960E0
2.402797969E1,8.535999656E-1,-1.374779987E1,2.930999994E0
2.404797969E1,3.348000050E-1,-1.221700001E1,5.213099957E0
2.406797969E1,-5.396000147E-1,-1.112230015E1,5.884199619E0
2.408797969E1,-1.387799978E0,-1.159589958E1,4.112699986E0
2.410797969E1,-3.864699841E0,-1.120870018E1,4.152999818E-1
2.412797969E1,-5.139499664E0,-9.412499428E0,-1.355999947E0
2.414797969E1,-3.299499989E0,-7.138399601E0,-2.249999940E-1
2.416797969E1,-6.223999858E-1,-5.149099827E0,2.449999936E-2
2.418798750E1,4.154999852E-1,-4.067999840E0,-7.933999896E-1
2.421797813E1,-2.428099871E0,-3.042699814E0,-2.691099882E0
2.423797969E1,-5.115600109E0,-1.389699936E0,-3.290099859E0
2.425798125E1,-5.966399670E0,-2.217999995E-1,-4.423399925E0
2.427798125E1,-4.829400063E0,7.152000070E-1,-5.094999790E0
2.430797969E1,-3.785899878E0,1.757099986E0,-4.497600079E0
2.432797969E1,-3.998999834E0,1.790599942E0,-3.758199930E0
2.434798125E1,-5.991399765E0,1.872599959E0,-3.958599806E0
2.437797969E1,-8.593999863E0,1.514999986E0,-3.738600016E0
2.439797969E1,-9.361999512E0,1.006500006E0,-1.962700009E0
2.441797969E1,-9.609999657E0,9.199000001E-1,-1.427000016E-1
2.443797969E1,-9.626599312E0,1.272599936E0,8.356999755E-1
2.445797969E1,-8.069000244E0,1.251999974E0,8.208000064E-1
2.447797969E1,-6.859599590E0,1.056800008E0,2.167799950E0
2.449797969E1,-3.178599834E0,-2.571399927E0,3.676299810E0
2.451798125E1,2.842499971E0,-7.229199886E0,4.948299885E0
2.454797969E1,4.004199982E0,-1.062279987E1,3.314999819E0
2.456798438E1,8.090999722E-1,-1.103940010E1,2.694200039E0
2.459797969E1,-2.197000027E0,-1.215950012E1,1.225199938E0
2.461797969E1,2.090999931E-1,-1.171000004E1,-1.358999908E-1
2.463797969E1,3.657799959E0,-1.077190018E1,-1.924399972E0
2.465797969E1,4.737699986E0,-8.422800064E0,-2.118099928E0
2.467797969E1,4.239200115E0,-5.773599625E0,2.344999909E-1
2.469798125E1,3.081899881E0,-3.266499996E0,2.477599859E0
2.472797969E1,3.381799936E0,-1.049099922E0,3.019899845E0
2.474797969E1,3.563499928E0,1.024999991E-1,2.099200010E0
2.476798125E1,2.874599934E0,4.409999847E-1,1.083000004E-1
2.479797969E1,3.089999855E-1,-5.992000103E-1,-2.095999956E0
2.481797969E1,-1.625699997E0,-1.052799940E0,-1.214900017E0
2.483797969E1,-1.736400008E0,-1.732699990E0,7.358999848E-1
2.485797969E1,1.703799963E0,-4.601699829E0,1.757099986E0
2.487797969E1,5.681699753E0,-9.540599823E0,5.559999943E-1
2.489797969E1,4.754699707E0,-1.336870003E1,-8.840000033E-1
2.491797969E1,7.092999816E-1,-1.086439991E1,3.042799950E0
2.493797969E1,1.935899973E0,-7.549799919E0,7.443999767E0
2.495797969E1,9.397699356E0,-6.196599960E0,6.965199947E0
2.497797969E1,1.400809956E1,-3.248399973E0,4.549599648E0
2.499797969E1,1.211399937E1,5.353999734E-1,3.105999827E-1
2.501798125E1,8.130899429E0,4.409599781E0,-3.600899935E0
2.504797969E1,5.717199802E0,7.656299591E0,-2.154399872E0
2.506797969E1,5.298999786E0,8.461500168E0,-1.837999970E-1
2.508797969E1,4.431799889E0,8.977299690E0,5.320000052E-1
2.510797969E1,3.294799805E0,9.484799385E0,-1.181999967E-1
2.512797969E1,2.272199869E0,9.556300163E0,-8.689999580E-1
2.514797969E1,1.888999939E0,9.567899704E0,-5.730999708E-1
2.516797969E1,2.298399925E0,8.748799324E0,-4.601999819E-1
2.518798125E1,2.687799931E0,8.019399643E0,1.908999979E-1
2.521797969E1,5.120699883E0,5.429599762E0,1.466300011E0
2.523797969E1,7.609599590E0,7.928999662E-1,9.050999880E-1
2.525797969E1,1.106219959E1,-6.585799694E0,9.499999695E-3
2.527797969E1,1.304010010E1,-1.463109970E1,7.734000087E-1
2.529797969E1,9.778999329E0,-1.595580006E1,6.192800045E0
2.531797969E1,7.889899731E0,-1.407249928E1,1.165660000E1
2.533797969E1,6.983799934E0,-1.033239937E1,1.272329998E1
2.535797969E1,5.642999649E0,-6.507299900E0,1.274809933E1
2.537797969E1,4.318299770E0,-4.431999683E0,1.140670013E1
2.539797969E1,2.300999880E0,-2.967999935E0,8.523300171E0
2.541797969E1,6.664999723E-1,-1.620399952E0,5.626999855E0
2.543797969E1,-1.638000011E-1,-6.051999927E-1,3.194000006E0
2.545797969E1,-5.623999834E-1,-1.661999971E-1,1.744199991E0
2.547797969E1,-7.565999627E-1,-8.657000065E-1,7.360999584E-1
2.549797969E1,-2.086999893E0,-1.307799935E0,3.021999896E-1
2.551798125E1,-2.795599937E0,-2.076900005E0,1.120599985E0
2.554797969E1,-1.956499934E0,-4.940799713E0,2.028499842E0
2.556797969E1,-1.845899940E0,-7.518099785E0,1.636299968E0
2.558797969E1,-2.235800028E0,-8.552800179E0,1.417799950E0
2.560797969E1,-1.370299935E0,-9.775199890E0,1.518899918E0
2.562797969E1,-4.709999859E-1,-9.741199493E0,2.575299978E0
2.564797969E1,-3.208999932E-1,-8.826199532E0,3.700199842E0
2.566798750E1,-1.973999888E-1,-8.587599754E0,3.936499834E0
2.569797969E1,-2.088799953E0,-7.930299759E0,2.321399927E0
2.571802188E1,-4.438199997E0,-7.281299591E0,6.909999996E-2
2.574797969E1,-6.782700062E0,-6.401799679E0,-1.124599934E0
2.576797969E1,-5.711499691E0,-6.568299770E0,1.464200020E0
2.578797969E1,-3.573899984E0,-5.716099739E0,5.330399990E0
2.580797969E1,-2.519999981E0,-3.584399939E0,5.934199810E0
2.583797969E1,-2.422399998E0,-1.950699925E0,2.405099869E0
2.585798125E1,-2.079099894E0,-1.666399956E0,-7.819999754E-2
2.588797969E1,-4.014699936E0,7.279999554E-2,-6.164299965E0
2.590798125E1,-6.116399765E0,9.495999813E-1,-9.814899445E0
2.592798125E1,-7.305799961E0,3.065399885E0,-7.518399715E0
2.595797969E1,-5.787299633E0,4.709300041E0,-3.583000004E-1
2.597798125E1,-5.960099697E0,4.901999950E0,-9.989999980E-2
2.600797969E1,-6.532499790E0,4.776199818E0,-4.061199665E0
2.602798125E1,-5.765100002E0,6.126100063E0,-3.191900015E0
2.604798125E1,-4.916399956E0,8.955299377E0,1.284199953E0
2.607797969E1,7.387999892E-1,1.140649986E1,9.350099564E0
2.609797969E1,5.424399853E0,9.673399925E0,8.096599579E0
2.611798125E1,9.488299370E0,7.921899796E0,9.182199478E0
2.614797969E1,1.150150013E1,5.218999863E0,1.192079926E1
2.616797969E1,7.428899765E0,3.755899906E0,1.074459934E1
2.618798125E1,2.319700003E0,2.655099869E0,1.040520000E1
2.620798125E1,1.314000040E-1,-2.186999917E-1,1.037919998E1
2.622798125E1,-6.487999558E-1,-3.726799965E0,8.363999367E0
2.624798125E1,-1.979999900E0,-5.744899750E0,7.533699989E0
2.626798125E1,-1.816899896E0,-7.178799629E0,9.574299812E0
2.629798125E1,-1.073099971E0,-9.266900063E0,9.149799347E0
2.632797969E1,6.491999626E-1,-9.710800171E0,3.895099878E0
2.634798125E1,5.220999718E-1,-6.952899933E0,1.632999927E-1
2.636798125E1,-1.836099982E0,-4.151299953E0,-2.953399897E0
2.639797969E1,-7.581099987E0,-1.383799911E0,-5.646899700E0
2.641797969E1,-9.508399963E0,-4.266999960E-1,-5.617399693E0
2.643797969E1,-8.947599411E0,-3.836999834E-1,-5.535899639E0
2.645797969E1,-8.552100182E0,6.340000033E-2,-6.451600075E0
2.647797969E1,-6.713899612E0,5.546000004E-1,-6.344999790E0
2.649797969E1,-2.919899940E0,8.376999497E-1,-5.276099682E0
2.651798125E1,1.102699995E0,3.030000031E-1,-6.094699860E0
2.654797969E1,7.247099876E0,-1.999799967E0,-7.569299698E0
2.656797969E1,8.245299339E0,-4.224899769E0,-3.379299879E0
2.658797969E1,6.719699860E0,-6.240099907E0,1.902099967E0
2.660797969E1,6.503499985E0,-7.835199833E0,5.952699661E0
2.662798125E1,1.037529945E1,-1.150059986E1,7.371500015E0
2.665797969E1,1.066059971E1,-9.779299736E0,1.119029999E1
2.667797969E1,7.276099682E0,-4.038599968E0,1.020289993E1
2.669798125E1,4.395800114E0,7.498999834E-1,4.821000099E0
2.672797969E1,2.489300013E0,4.253499985E0,1.180000007E-1
2.674797969E1,7.964999676E-1,4.815999985E0,-1.968400002E0
2.676797969E1,-2.376799822E0,5.131799698E0,-2.411999941E0
2.678797969E1,-4.255000114E0,5.332900047E0,-4.816999733E-1
2.680797969E1,-4.876999855E0,5.796199799E0,-4.099999741E-2
2.682797969E1,-4.610899925E0,6.171000004E0,-2.295500040E0
2.684797969E1,-3.990700006E0,6.247799873E0,-3.478799820E0
2.686797969E1,-4.417799950E0,6.154799938E0,-3.909899950E0
2.688797969E1,-4.548399925E0,6.108099937E0,-2.611599922E0
2.690797969E1,-4.450599670E0,5.294099808E0,-6.117999554E-1
2.692797969E1,-4.045599937E0,3.678799868E0,1.823000014E-1
2.694797969E1,-4.362899780E0,2.336799860E0,1.020399928E0
2.696797969E1,-4.429299831E0,1.847700000E0,1.631500006E0
2.698797969E1,-5.278699875E0,2.649099827E0,-1.149600029E0
2.700797969E1,-4.918399811E0,3.213500023E0,-3.091699839E0
2.702797969E1,-2.164599895E0,3.052299976E0,-6.740000099E-2
2.704798125E1,5.454999804E-1,-2.977699995E0,1.180999950E-1
2.706798438E1,4.226000011E-1,-8.039899826E0,3.098299980E0
2.709797969E1,-4.341499805E0,-1.054399967E1,4.160599709E0
2.711797969E1,-6.720399857E0,-1.002159977E1,4.702499866E0
2.713797969E1,-6.347099781E0,-8.816199303E0,3.750000000E0
2.715797969E1,-5.616699696E0,-7.509999752E0,1.191299915E0
2.717797969E1,-6.388299942E0,-5.149799824E0,-3.669999912E-2
2.719798125E1,-5.415299892E0,-2.761499882E0,-1.819999963E-1
2.722797969E1,-3.369599819E0,4.887000024E-1,-3.847000003E-1
2.724797969E1,-1.725699902E0,1.293599963E0,-8.506999612E-1
2.726797969E1,-5.180000067E-1,1.293799996E0,-1.739499927E0
2.728798125E1,2.730000019E-2,-6.399999838E-3,-1.836799979E0
2.731797969E1,-1.023399949E0,-5.121099949E0,-1.228899956E0
2.733797969E1,-6.090499878E0,-8.547699928E0,1.209399939E0
2.735797969E1,-7.844499588E0,-1.563569927E1,5.526400089E0
2.737798125E1,-9.854199409E0,-2.328269958E1,8.415599823E0
2.740797969E1,-3.170099974E0,-2.268719864E1,1.469939995E1
2.742797969E1,5.746699810E0,-1.802519989E1,1.459009933E1
2.744797969E1,9.936599731E0,-1.228349972E1,1.108399963E1
2.746797969E1,1.018480015E1,-8.394800186E0,6.725999832E0
2.748797969E1,9.821700096E0,-3.093099833E0,3.795599937E0
2.750797969E1,1.026830006E1,2.197900057E0,2.437700033E0
2.752797969E1,9.637199402E0,5.291399956E0,4.386099815E0
2.754797969E1,8.667499542E0,6.997799873E0,5.265599728E0
2.756797969E1,8.019899368E0,7.337699890E0,3.609099865E0
2.758797969E1,8.117799759E0,7.276000023E0,1.112900019E0
2.760797969E1,7.417699814E0,8.540599823E0,-2.339900017E0
2.762797969E1,7.638199806E0,8.801899910E0,-5.157499790E0
2.764797969E1,7.642199993E0,9.793000221E0,-5.469599724E0
2.766798594E1,7.693099976E0,9.962800026E0,-3.702399969E0
2.769797969E1,1.024839973E1,6.802099705E0,2.027999878E0
2.771797969E1,1.290530014E1,2.042700052E0,3.373699903E0
2.773797969E1,1.423759937E1,-3.401000023E0,3.325899839E0
2.775797969E1,1.531449986E1,-7.777799606E0,3.604799986E0
2.777797969E1,1.497659969E1,-8.991099358E0,6.263400078E0
2.779797969E1,1.441969967E1,-8.705599785E0,1.173950005E1
2.781797969E1,1.242949963E1,-6.119400024E0,1.745069885E1
2.783797969E1,9.964099884E0,-2.362099886E0,1.887940025E1
2.785797969E1,9.723599434E0,-2.541599989E0,1.455589962E1
2.787797969E1,1.260589981E1,-7.092999935E0,8.944999695E0
2.789797969E1,1.672699928E1,-1.344919968E1,5.750799656E0
2.791797969E1,1.745529938E1,-1.731489944E1,6.187699795E0
2.793797969E1,1.563349915E1,-1.873639870E1,9.330499649E0
2.795797969E1,1.347579956E1,-1.947649956E1,1.193649960E1
2.797797969E1,1.205239964E1,-2.043089867E1,1.093769932E1
2.799797969E1,9.378299713E0,-2.140239906E1,8.625299454E0
2.801797969E1,4.029200077E0,-1.988999939E1,6.727200031E0
2.803797969E1,1.485299945E0,-1.792919922E1,5.346999645E0
2.805798125E1,4.766999781E-1,-1.657819939E1,4.394599915E0
2.808797969E1,-6.660000086E-1,-1.583669949E1,3.118899822E0
2.810797969E1,-1.477599978E0,-1.543540001E1,3.200399876E0
2.812797969E1,-1.380800009E0,-1.543879986E1,3.656699896E0
2.814797969E1,-1.042899966E0,-1.597709942E1,3.816699982E0
2.816799062E1,-9.172999859E-1,-1.636369896E1,3.667199850E0
2.819797969E1,-7.504999638E-1,-1.757099915E1,3.908899784E0
2.821797969E1,-1.178099990E0,-1.795979881E1,4.364699841E0
2.823797969E1,-2.127799988E0,-1.687829971E1,4.842999935E0
2.825797969E1,-2.635099888E0,-1.594819927E1,4.669799805E0
2.827797969E1,-2.432499886E0,-1.567569923E1,4.587299824E0
2.829797969E1,-7.391999960E-1,-1.756459999E1,3.375999928E0
2.831797969E1,-1.508999944E0,-1.815009880E1,8.129000068E-1
2.833797969E1,-5.617699623E0,-1.545679951E1,1.359999925E-2
2.835797969E1,-9.168499947E0,-1.254839993E1,1.150300026E0
2.837799844E1,-1.152530003E1,-1.026099968E1,1.216599941E0
2.840797969E1,-9.154199600E0,-9.277500153E0,-2.733999789E-1
2.842797969E1,-7.086499691E0,-8.399499893E0,-1.199499965E0
2.844797969E1,-4.270599842E0,-7.099299908E0,-1.472800016E0
2.846797969E1,-3.059700012E0,-5.528800011E0,-2.675999880E0
2.848797969E1,-4.669699669E0,-4.570600033E0,-4.251800060E0
2.850797969E1,-7.012499809E0,-4.829499722E0,-5.217199802E0
2.852797969E1,-8.598099709E0,-4.638599873E0,-2.512500048E0
2.854797969E1,-8.843400002E0,-5.311599731E0,-7.779999822E-2
2.856799062E1,-9.315499306E0,-5.894199848E0,1.617599964E0
2.859797969E1,-8.977899551E0,-7.439499855E0,2.815799952E0
2.861797969E1,-7.692799568E0,-9.655799866E0,3.233199835E0
2.863797969E1,-4.541599751E0,-1.187150002E1,3.779899836E0
2.866797969E1,2.394999981E0,-1.478579998E1,3.352699995E0
2.868797969E1,4.669300079E0,-1.569559956E1,2.838799953E0
2.870797969E1,6.840299606E0,-1.851869965E1,1.748499990E0
2.872797969E1,9.571999550E0,-2.088909912E1,1.490700006E0
2.874797969E1,1.331400013E1,-2.270569992E1,3.613399982E0
2.876799375E1,1.587189960E1,-2.316779900E1,4.710499763E0
2.879797812E1,1.499659920E1,-1.830629921E1,8.562099457E0
2.881797969E1,1.500179958E1,-1.401629925E1,1.129509926E1
2.883797969E1,1.332469940E1,-7.491299629E0,1.305239964E1
2.885797969E1,1.035699940E1,-1.925399899E0,1.118729973E1
2.887797969E1,7.560499668E0,2.145599842E0,8.181799889E0
2.889797969E1,5.519999981E0,4.848999977E0,5.140699863E0
2.891797969E1,4.581999779E0,7.349899769E0,2.924499989E0
2.893797969E1,4.671599865E0,9.178099632E0,1.436100006E0
2.895797969E1,5.287499905E0,1.020959949E1,5.173000097E-1
2.897797969E1,4.895899773E0,9.641699791E0,-4.420999885E-1
2.899797969E1,3.247999907E0,7.646199703E0,-2.440099955E0
2.901797969E1,1.718999982E0,5.481499672E0,-4.753299713E0
2.903797969E1,8.222999573E-1,3.991199970E0,-4.111499786E0
2.905797969E1,7.767999768E-1,1.046800017E0,-1.604999900E-1
2.907797969E1,5.309999585E-1,-2.725899935E0,3.582599878E0
2.909797969E1,-7.385999560E-1,-6.133999825E0,5.244400024E0
2.911798125E1,-2.124799967E0,-7.316400051E0,6.281599998E0
2.913798125E1,-2.592599869E0,-6.943899632E0,6.531899929E0
2.916797969E1,-2.179399967E0,-3.330399990E0,5.276599884E0
2.918797969E1,4.263999760E-1,-1.044999957E0,4.769399643E0
2.920797969E1,3.396699905E0,4.083999991E-1,2.746399879E0
2.922797969E1,3.430299997E0,3.695699930E0,1.275300026E0
2.924797969E1,4.582799911E0,4.171000004E0,6.294999719E-1
2.926798125E1,5.237899780E0,2.715899944E0,3.194999993E-1
2.929797969E1,7.187299728E0,-1.021399975E0,1.860099912E0
2.931797969E1,7.060400009E0,-2.534299850E0,2.424700022E0
2.933798125E1,3.812899828E0,-1.872799993E0,2.060999870E0
2.936797969E1,-1.103600025E0,1.376299977E0,1.916299939E0
2.938797969E1,-1.961499929E0,3.596999884E0,2.540400028E0
2.940797969E1,-1.832099915E0,5.195099831E0,2.764600039E0
2.942797969E1,-1.279699922E0,6.181599617E0,2.801399946E0
2.944798125E1,-5.374999642E-1,6.758100033E0,2.963399887E0
2.947798125E1,-4.749999940E-2,6.889599800E0,2.557499886E0
2.950797969E1,5.977999568E-1,4.671700001E0,1.785899997E0
2.952797969E1,8.715999722E-1,2.504899979E0,2.042799950E0
2.954797969E1,9.878999591E-1,4.930000007E-1,2.100600004E0
2.956798594E1,1.481499910E0,-1.216400027E0,2.309399843E0
2.959797969E1,2.858599901E0,-2.064599991E0,2.716599941E0
2.961797969E1,4.120299816E0,-2.162600040E0,2.527999878E0
2.963797969E1,4.890100002E0,-1.571399927E0,2.276200056E0
2.965797969E1,6.045799732E0,-1.459199905E0,2.246999979E0
2.967797969E1,7.679699898E0,-2.867899895E0,2.355799913E0
2.969797969E1,7.813299656E0,-3.611199856E0,2.526599884E0
2.971797969E1,6.275799751E0,-3.163699865E0,3.110299826E0
2.973797969E1,6.793399811E0,-4.593899727E0,3.692799807E0
2.975797969E1,9.601299286E0,-8.164500237E0,4.246999741E0
2.977797969E1,1.203989983E1,-1.226639938E1,3.849099874E0
2.979797969E1,1.029939938E1,-1.315349960E1,3.415299892E0
2.981797969E1,6.272199631E0,-1.125489998E1,3.958499908E0
2.983797969E1,1.544799924E0,-7.943199635E0,3.966699839E0
2.985797969E1,-2.182600021E0,-5.207799911E0,2.726099968E0
2.987797969E1,-4.615499973E0,-3.174099922E0,1.318899989E0
2.989797969E1,-5.603499889E0,-2.557299852E0,-3.649999946E-2
2.991797969E1,-6.138400078E0,-2.798300028E0,-1.459199905E0
2.993797969E1,-7.129899979E0,-3.183599949E0,-3.118599892E0
2.995797969E1,-8.249799728E0,-3.642199993E0,-4.011399746E0
2.997797969E1,-9.135399818E0,-4.459399700E0,-4.444799900E0
2.999797969E1,-9.423199654E0,-5.140299797E0,-3.907099962E0
3.001797969E1,-8.774899483E0,-6.842399597E0,-2.729099989E0
3.003797969E1,-8.316299438E0,-8.056900024E0,-1.529399991E0
3.005797969E1,-8.277699471E0,-7.965299606E0,-6.805999875E-1
3.007797969E1,-7.432399750E0,-7.756700039E0,2.221999913E-1
3.009797969E1,-6.322700024E0,-7.899699688E0,4.921000004E-1
3.011797969E1,-5.310999870E0,-7.879499912E0,3.867999911E-1
3.013797969E1,-5.471799850E0,-7.265499592E0,1.171999946E-1
3.015797969E1,-5.872499943E0,-6.990900040E0,6.419999897E-2
3.017800156E1,-5.772299767E0,-7.625399590E0,3.137999773E-1
3.020797969E1,-6.532000065E0,-7.715999603E0,1.667999983E0
3.022797969E1,-5.962299824E0,-8.160300255E0,2.725399971E0
3.024797969E1,-3.032699823E0,-1.016109943E1,2.772300005E0
3.026798281E1,9.006999731E-1,-1.310229969E1,2.837499857E0
3.029797969E1,5.497600079E0,-1.338009930E1,3.554999828E0
3.031797969E1,6.916899681E0,-1.165030003E1,2.361999989E0
3.033797969E1,6.476299763E0,-8.341699600E0,1.417699933E0
3.035797969E1,4.593299866E0,-4.175600052E0,1.430699944E0
3.037798594E1,2.825199842E0,-5.361999869E-1,1.789799929E0
3.040797969E1,2.583799839E0,1.765899897E0,2.126399994E0
3.042797969E1,2.869799852E0,2.675699949E0,2.154399872E0
3.044797969E1,3.326699972E0,3.004599810E0,2.222300053E0
3.046798281E1,3.832299948E0,2.978499889E0,2.428099871E0
3.049797969E1,4.914000034E0,2.438099861E0,2.992599964E0
3.051797969E1,5.841899872E0,1.841399908E0,2.872099876E0
3.053797969E1,6.621599674E0,1.071099997E0,2.351199865E0
3.055797969E1,7.329299927E0,3.307999969E-1,2.272699833E0
3.057797969E1,8.803899765E0,-2.541999817E-1,3.666299820E0
3.059797969E1,1.014289951E1,-9.800000116E-3,4.420199871E0
3.061797969E1,1.094460011E1,9.375999570E-1,4.928599834E0
3.063797969E1,1.234169960E1,1.488299966E0,5.269299984E0
3.065797969E1,1.383119965E1,9.395999908E-1,5.220900059E0
3.067797969E1,1.167889977E1,2.592599869E0,4.778299809E0
3.069798125E1,9.653399467E0,3.339200020E0,4.720399857E0
3.072797969E1,9.564499855E0,1.961199999E0,4.568200111E0
3.074797969E1,1.094059944E1,-5.636999607E-1,4.117399693E0
3.076798438E1,1.173460007E1,-3.164000034E0,3.455199957E0
3.079797969E1,9.497799873E0,-5.006700039E0,2.742199898E0
3.081797969E1,6.464599609E0,-4.724599838E0,2.768499851E0
3.083798125E1,3.043399811E0,-3.119899988E0,2.745100021E0
3.086797969E1,-4.980999827E-1,-1.166000009E0,2.742599964E0
3.088797969E1,-1.666299939E0,-8.683999777E-1,2.647599936E0
3.090797969E1,-2.619299889E0,-7.305999994E-1,2.010499954E0
3.092797969E1,-2.604599953E0,-1.722199917E0,1.186599970E0
3.094797969E1,-2.252399921E0,-3.274199963E0,8.655999899E-1
3.096797969E1,-2.246399879E0,-5.471099854E0,4.732999802E-1
3.098797969E1,-2.982199907E0,-7.358699799E0,-1.675999910E-1
3.100797969E1,-4.694099903E0,-7.910599709E0,-1.656999886E-1
3.102798125E1,-5.628699780E0,-7.489500046E0,-2.257999927E-1
3.104798125E1,-5.399600029E0,-7.841300011E0,-3.440999985E-1
3.106798125E1,-4.738100052E0,-8.457300186E0,-3.501999974E-1
3.109797969E1,-5.280699730E0,-8.225500107E0,-6.099999882E-3
3.111797969E1,-6.600999832E0,-7.386799812E0,5.152999759E-1
3.113797969E1,-6.596999645E0,-8.218699455E0,6.204000115E-1
3.115797969E1,-7.164299965E0,-8.207499504E0,6.345999837E-1
3.117797969E1,-7.262300014E0,-6.882699966E0,1.628899932E0
3.119797969E1,-5.445199966E0,-6.129699707E0,2.299000025E0
3.121797969E1,-2.344499826E0,-6.581500053E0,2.181499958E0
3.123797969E1,3.527999818E-1,-7.394899845E0,1.910699964E0
3.125797969E1,1.460099936E0,-7.766599655E0,1.489499927E0
3.127797969E1,5.877000093E-1,-6.565700054E0,1.036800027E0
3.129797969E1,-7.002999783E-1,-4.684799671E0,4.866999984E-1
3.131797969E1,-1.564499974E0,-2.416199923E0,3.805999756E-1
3.133797969E1,-1.553499937E0,-3.377999961E-1,6.270999908E-1
3.135797969E1,-1.594599962E0,1.246399999E0,1.193300009E0
3.137797969E1,-2.044100046E0,2.378099918E0,1.591699958E0
3.139797969E1,-2.200999975E0,2.635699987E0,1.814700007E0
3.141798125E1,-1.850799918E0,2.235899925E0,1.751599908E0
3.144797969E1,-8.741999865E-1,9.404999614E-1,1.458400011E0
3.146798281E1,5.609999895E-1,-4.765999913E-1,1.278199911E0
3.149797969E1,2.259099960E0,-1.169799924E0,1.863199949E0
3.151797969E1,4.091300011E0,-1.081799984E0,1.461399913E0
3.153798125E1,6.367799759E0,-8.526999950E-1,2.283999920E-1
3.156797969E1,9.225600243E0,-5.749999732E-2,-1.997199893E0
3.158797969E1,1.053800011E1,4.333999753E-1,-2.975499868E0
3.160797969E1,1.137080002E1,1.201900005E0,-2.985699892E0
3.162797969E1,1.267309952E1,9.334999919E-1,-1.436200023E0
3.164797969E1,1.251830006E1,4.468999803E-1,4.255999923E-1
3.166797969E1,1.011959934E1,1.650399923E0,2.953500032E0
3.168797969E1,8.210899353E0,2.501399994E0,4.579799652E0
3.170797969E1,8.243800163E0,1.669299960E0,5.069900036E0
3.172798125E1,8.574999809E0,2.384999990E-1,4.465799809E0
3.175797969E1,7.657499790E0,-1.436200023E0,3.508099794E0
3.177797969E1,6.526199818E0,-2.332299948E0,3.339399815E0
3.179797969E1,5.310599804E0,-2.086999893E0,4.241799831E0
3.181797969E1,3.813199997E0,-1.024999976E0,5.026199818E0
3.183797969E1,2.639499903E0,1.738999933E-1,5.094500065E0
3.185797969E1,1.427399993E0,1.002300024E0,4.292099953E0
3.187797969E1,1.055999994E-1,1.279999971E0,2.982300043E0
3.189797969E1,-1.130599976E0,1.109399915E0,1.810799956E0
3.191797969E1,-1.768899918E0,2.965999842E-1,7.908999920E-1
3.193797969E1,-2.157899857E0,-8.946999907E-1,1.396999955E-1
3.195797969E1,-2.577899933E0,-2.089099884E0,-1.909999922E-2
3.197798125E1,-3.539599895E0,-3.441499949E0,1.675999910E-1
3.200797969E1,-5.812699795E0,-5.010200024E0,1.548299909E0
3.202797969E1,-6.145499706E0,-6.369799614E0,2.826699972E0
3.204797969E1,-6.754099846E0,-7.135399818E0,2.278499842E0
3.206797969E1,-7.190799713E0,-7.645499706E0,7.299999595E-1
3.208797969E1,-7.562599659E0,-7.434099674E0,-7.620000094E-2
3.210797969E1,-7.197499752E0,-6.995199680E0,5.171999931E-1
3.212797969E1,-5.564899921E0,-7.956499577E0,6.977999806E-1
3.214797969E1,-5.477799892E0,-7.701900005E0,6.108999848E-1
3.216798125E1,-5.882799625E0,-6.069900036E0,1.633000016E0
3.219797969E1,-3.420499802E0,-5.239799976E0,2.756999969E0
3.221797969E1,-7.753999829E-1,-6.041499615E0,2.338999987E0
3.223797969E1,9.821999669E-1,-6.757599831E0,1.620800018E0
3.225798281E1,1.044700027E0,-6.317699909E0,1.102100015E0
3.228797969E1,-9.417999983E-1,-4.306399822E0,1.340899944E0
3.230797969E1,-2.243399858E0,-2.215600014E0,2.375099897E0
3.232797969E1,-2.706599951E0,-3.759999946E-2,3.153499842E0
3.234798125E1,-2.324800014E0,1.591499925E0,3.444599867E0
3.237797969E1,-1.714299917E0,3.180399895E0,2.818500042E0
3.239797969E1,-1.342100024E0,3.312500000E0,1.646199942E0
3.241797969E1,-8.608999848E-1,3.123399973E0,5.579999685E-1
3.243797969E1,1.759999990E-2,2.466500044E0,-5.074999928E-1
3.245797969E1,1.425499916E0,1.550699949E0,-1.519899964E0
3.247798125E1,2.842200041E0,6.071000099E-1,-1.885399938E0
3.250797969E1,4.862199783E0,5.909999833E-2,-9.730999470E-1
3.252797969E1,6.578000069E0,-6.406999826E-1,-5.435000062E-1
3.254798125E1,8.228699684E0,-9.059999585E-1,-3.549999744E-2
3.257797969E1,1.022789955E1,-1.304000020E-1,5.608999729E-1
3.259797969E1,1.171990013E1,1.577999890E-1,1.561999917E0
3.261797969E1,1.318959999E1,-8.416000009E-1,2.030299902E0
3.263797969E1,1.178230000E1,2.935000062E-1,3.272399902E0
3.265797969E1,9.751799583E0,1.826799989E0,3.892499924E0
3.267798125E1,9.569199562E0,1.281899929E0,3.270499945E0
3.270797969E1,9.231999397E0,-1.307199955E0,3.074599981E0
3.272797969E1,7.749099731E0,-2.943599939E0,2.955299854E0
3.274797969E1,5.083399773E0,-3.348899841E0,3.450299978E0
3.276798750E1,2.421099901E0,-2.470199823E0,4.243799686E0
3.279797969E1,-5.979999900E-1,-6.260000169E-2,4.788099766E0
3.281797969E1,-1.952299953E0,1.181800008E0,4.111299992E0
3.283797969E1,-2.914499998E0,1.972499967E0,2.889400005E0
3.285797969E1,-3.367599964E0,2.083299875E0,1.627599955E0
3.287798125E1,-3.425299883E0,1.677500010E0,4.268999994E-1
3.290797969E1,-2.710500002E0,-5.219999701E-2,-1.054399967E0
3.292797969E1,-2.158400059E0,-1.818899989E0,-1.350799918E0
3.294797969E1,-2.247999907E0,-3.474399805E0,-1.209599972E0
3.296797969E1,-3.030200005E0,-4.803100109E0,-5.970000029E-1
3.298797969E1,-4.247499943E0,-6.403499603E0,6.510999799E-1
3.300797969E1,-6.941499710E0,-7.849599838E0,3.757900000E0
3.302797969E1,-9.679999352E0,-8.639499664E0,8.124899864E0
3.304797969E1,-1.135969925E1,-8.408499718E0,1.040089989E1
3.306797969E1,-1.182959938E1,-7.538799763E0,6.992099762E0
3.308797969E1,-9.619099617E0,-8.639999390E0,2.450999975E0
3.310797969E1,-8.284500122E0,-7.806999683E0,-5.941999555E-1
3.312797969E1,-6.572299957E0,-6.053799629E0,-4.867999852E-1
3.314797969E1,-3.522399902E0,-4.773299694E0,6.656000018E-1
3.316797969E1,-1.338000000E-1,-4.116499901E0,1.122200012E0
3.318797969E1,2.983799934E0,-4.613699913E0,-3.419999778E-1
3.320797969E1,4.005000114E0,-4.166699886E0,-2.083400011E0
3.322797969E1,3.951699972E0,-3.225299835E0,-2.554800034E0
3.324797969E1,3.062399864E0,-1.996099949E0,-5.532999635E-1
3.326797969E1,1.984599948E0,-9.949999452E-1,1.214499950E0
3.328797969E1,5.073999763E-1,8.709999919E-1,2.628799915E0
3.330798281E1,-4.763000011E-1,2.941200018E0,3.352200031E0
3.333797969E1,4.398999810E-1,4.764299870E0,2.862399817E0
3.335797969E1,1.512300014E0,5.265299797E0,1.249099970E0
3.337797969E1,2.380599976E0,5.015399933E0,-6.319999695E-1
3.339797969E1,2.842499971E0,4.195899963E0,-2.043799877E0
3.341798125E1,3.145999908E0,2.950899839E0,-2.720099926E0
3.344797969E1,4.279599667E0,1.550599933E0,-1.197099924E0
3.346797969E1,5.704899788E0,8.873999715E-1,4.894999862E-1
3.348797969E1,6.464599609E0,8.560999632E-1,1.393499970E0
3.350797969E1,7.359399796E0,7.702999711E-1,1.695799947E0
3.352797969E1,8.515600204E0,8.652999997E-1,1.706299901E0
3.354797969E1,9.767199516E0,1.222499967E0,1.218099952E0
3.356797969E1,1.095129967E1,1.423399925E0,1.062999964E0
3.358797969E1,1.240159988E1,-3.533999920E-1,8.060999513E-1
3.360797969E1,1.002050018E1,-1.635999978E-1,6.427999735E-1
3.362797969E1,7.630199909E0,2.485999912E-1,1.942199945E0
3.364797969E1,6.954400063E0,-4.957000017E-1,2.689699888E0
3.366798125E1,7.293900013E0,-2.377399921E0,2.940699816E0
3.369797969E1,6.937799931E0,-5.406499863E0,3.200099945E0
3.371797969E1,4.997900009E0,-5.756999969E0,3.423799992E0
3.373798125E1,2.639799833E0,-4.706199646E0,4.133800030E0
3.376797969E1,-3.992999792E-1,-2.310600042E0,5.286999702E0
3.378797969E1,-1.858399987E0,-8.274999857E-1,5.448499680E0
3.380797969E1,-3.180899858E0,3.989999741E-2,4.858799934E0
3.382797969E1,-4.122900009E0,3.454999924E-1,3.581599951E0
3.384798125E1,-4.727099895E0,3.000000026E-3,2.610899925E0
3.386798438E1,-5.146699905E0,-7.135999799E-1,1.606299996E0
3.389797969E1,-6.351500034E0,-2.263700008E0,-5.026000142E-1
3.391797969E1,-7.027299881E0,-4.109399796E0,-6.219999790E-1
3.393797969E1,-7.618399620E0,-5.602999687E0,1.253799915E0
3.395797969E1,-7.928299904E0,-6.671499729E0,3.660599947E0
3.397797969E1,-8.018300056E0,-7.129799843E0,4.971099854E0
3.399797969E1,-7.501699924E0,-8.298699379E0,4.578000069E0
3.401798125E1,-7.511899948E0,-8.318499565E0,4.172699928E0
3.404797969E1,-6.577199936E0,-7.924699783E0,3.027199984E0
3.406798594E1,-4.364299774E0,-9.101900101E0,2.350199938E0
3.409797969E1,-3.306699991E0,-7.940299988E0,2.699399948E0
3.411797969E1,-3.238299847E0,-5.689499855E0,3.885599852E0
3.413797969E1,-1.551100016E0,-4.466700077E0,4.237599850E0
3.415797969E1,1.296899915E0,-4.218899727E0,4.021100044E0
3.417797969E1,3.919799805E0,-4.373699665E0,3.057199955E0
3.419797969E1,4.874399662E0,-3.763199806E0,1.181699991E0
3.421797969E1,4.297499657E0,-2.792899847E0,-6.651999950E-1
3.423798125E1,2.724200010E0,-1.532799959E0,-1.189399958E0
3.426798750E1,5.779999867E-2,1.023699999E0,-1.313000023E-1
3.429797969E1,-5.837999582E-1,3.003700018E0,5.965999961E-1
3.431797969E1,1.186999977E-1,3.410300016E0,1.226999983E-1
3.433797969E1,9.425999522E-1,3.341699839E0,-7.304999828E-1
3.435797969E1,1.341699958E0,2.992199898E0,-1.458299994E0
3.437797969E1,1.890599966E0,2.146600008E0,-2.162499905E0
3.439797969E1,2.278599977E0,1.433499932E0,-2.248699903E0
3.441797969E1,3.093600035E0,1.068400025E0,-1.651499987E0
3.443797969E1,4.252999783E0,9.093999863E-1,-1.226300001E0
3.445797969E1,5.631599903E0,9.501000047E-1,-1.100899935E0
3.447797969E1,6.820799828E0,9.635999799E-1,-1.304799914E0
3.449798125E1,7.184899807E0,8.646000028E-1,-9.763000011E-1
3.452797969E1,8.836500168E0,2.245999873E-1,-1.435000002E-1
3.454797969E1,9.208600044E0,9.106999636E-1,-3.172000051E-1
3.456797969E1,9.813799858E0,2.205999941E-1,-1.511699915E0
3.458797969E1,8.401499748E0,-4.733999968E-1,-2.485800028E0
3.460797969E1,5.866699696E0,-3.989999741E-2,-6.604999900E-1
3.462797969E1,5.152999878E0,-2.870000005E-1,2.856999934E-1
3.464797969E1,5.690399647E0,-1.302199960E0,7.917000055E-1
3.466797969E1,5.664700031E0,-2.470399857E0,1.025799990E0
3.468797969E1,4.453199863E0,-2.911199808E0,7.953000069E-1
3.470797969E1,1.942699909E0,-1.606400013E0,2.480999976E-1
3.472797969E1,-2.525999844E-1,3.159999847E-1,8.420999646E-1
3.474797969E1,-2.658999860E-1,4.799000025E-1,2.072700024E0
3.476797969E1,-4.041999876E-1,6.664999723E-1,2.518599987E0
3.478798125E1,-1.350600004E0,1.273999929E0,2.069799900E0
3.481797969E1,-5.131499767E0,1.862499952E0,2.991999984E-1
3.483797969E1,-6.278100014E0,7.195000052E-1,-5.489999801E-2
3.485797969E1,-6.981899738E0,-1.679999940E-2,8.999999613E-2
3.487797969E1,-6.675199986E0,-8.830999732E-1,1.053900003E0
3.489797969E1,-5.030099869E0,-2.568099976E0,2.046399832E0
3.491797969E1,-2.572399855E0,-5.027199745E0,2.192899942E0
3.493797969E1,-2.699399948E0,-4.918499947E0,2.638000011E0
3.495797969E1,-3.043099880E0,-5.302700043E0,3.074299812E0
3.497797969E1,-2.958400011E0,-6.201099873E0,3.327799797E0
3.499797969E1,-3.082899809E0,-6.799200058E0,2.655299902E0
3.501797969E1,-4.605999947E0,-5.903800011E0,2.582099915E0
3.503797969E1,-4.592099667E0,-6.415199757E0,3.563999891E0
3.505798125E1,-4.126399994E0,-6.596099854E0,4.559299946E0
3.508797969E1,-3.633299828E0,-2.569099903E0,6.210499763E0
3.510797969E1,-9.277999997E-1,-2.253399849E0,5.637300014E0
3.512798125E1,1.988899946E0,-3.123699903E0,4.517199993E0
3.515797969E1,5.002199650E0,-3.604499817E0,2.041899920E0
3.517797969E1,6.088399887E0,-2.268800020E0,-1.260999918E0
3.519797969E1,6.052299976E0,2.638999820E-1,-3.812299967E0
3.521797969E1,4.618000031E0,2.897500038E0,-4.222899914E0
3.523797969E1,2.620800018E0,4.777699947E0,-3.678900003E0
3.525797969E1,1.542099953E0,5.881000042E0,-3.378799915E0
3.527797969E1,1.360499978E0,6.515500069E0,-2.770200014E0
3.529797969E1,1.564299941E0,6.936100006E0,-2.238199949E0
3.531797969E1,1.901499987E0,6.567100048E0,-2.519799948E0
3.533797969E1,2.457200050E0,5.764699936E0,-2.924099922E0
3.535797969E1,3.766699791E0,4.324899673E0,-1.863999963E0
3.537798594E1,5.989999771E0,1.765799999E0,-1.012499928E0
3.540797969E1,6.065899849E0,1.011500001E0,-6.997999549E-1
3.542797969E1,5.031899929E0,1.239099979E0,6.503999829E-1
3.544797969E1,4.649600029E0,1.339299917E0,2.576499939E0
3.546798125E1,5.804299831E0,3.213000000E-1,3.499599934E0
3.549798125E1,7.377599716E0,-7.457999587E-1,1.820999980E0
3.552797969E1,6.633399963E0,-2.215800047E0,4.477999806E-1
3.554797969E1,4.285799980E0,-1.638899922E0,1.089100003E0
3.556797969E1,2.618399858E0,-5.360999703E-1,3.165099859E0
3.558797969E1,2.476300001E0,-4.050000012E-2,4.224899769E0
3.560797969E1,4.152199745E0,-1.199199915E0,3.987499952E0
3.562797969E1,5.353300095E0,-2.855099916E0,3.788100004E0
3.564797969E1,5.688399792E0,-4.357199669E0,2.983999968E0
3.566797969E1,4.852600098E0,-4.713099957E0,1.451099992E0
3.568797969E1,4.059700012E0,-3.990599871E0,7.231999636E-1
3.570797969E1,2.877499819E0,-2.246700048E0,8.808999658E-1
3.572797969E1,1.035699964E0,-9.963999987E-1,1.290699959E0
3.574797969E1,3.324999809E-1,-1.603000015E-1,1.615499973E0
3.576797969E1,-1.607199907E0,-6.381999850E-1,1.342299938E0
3.578797969E1,-3.563199997E0,-1.179099917E0,2.273000002E0
3.580797969E1,-5.626899719E0,-1.720699906E0,3.752199888E0
3.582797969E1,-7.259899616E0,-2.454599857E0,3.441200018E0
3.584797969E1,-8.195099831E0,-3.643999815E0,2.019099951E0
3.586797969E1,-8.384799957E0,-4.760299683E0,1.031099916E0
3.588797969E1,-8.271900177E0,-5.354599953E0,1.076599956E0
3.590797969E1,-7.452799797E0,-5.940299988E0,1.156899929E0
3.592797969E1,-5.488100052E0,-7.375099659E0,9.718999863E-1
3.595797969E1,-3.770699978E0,-8.748700142E0,4.989999905E-2
3.597797969E1,-4.592700005E0,-7.622099876E0,-3.317999840E-1
3.599797969E1,-5.109200001E0,-7.030200005E0,2.504000068E-1
3.601797969E1,-3.663499832E0,-8.403599739E0,2.951000035E-1
3.603797969E1,-2.997999907E0,-7.980799675E0,6.603999734E-1
3.605797969E1,-3.308300018E0,-5.961199760E0,1.713199973E0
3.607797969E1,-1.784099936E0,-5.052700043E0,2.847599983E0
3.609797969E1,3.240999877E-1,-5.256299973E0,2.904700041E0
3.611797969E1,2.005899906E0,-5.763700008E0,2.620899916E0
3.613797969E1,2.402299881E0,-5.295599937E0,2.210899830E0
3.615797969E1,1.943899989E0,-4.179199696E0,1.380100012E0
3.617797969E1,1.101999998E0,-2.567399979E0,9.739999771E-1
3.619797969E1,-2.110999972E-1,-3.805999756E-1,1.218099952E0
3.621797969E1,-9.639999866E-1,1.664499998E0,1.794999957E0
3.623797969E1,-1.262599945E0,3.209199905E0,2.209899902E0
3.625797969E1,-1.394400001E0,4.027400017E0,2.069200039E0
3.627797969E1,-9.402999878E-1,4.094900131E0,1.616499901E0
3.629797969E1,-4.134999812E-1,3.543900013E0,1.933999956E-1
3.631797969E1,-1.069999952E-2,2.672899961E0,-8.147999644E-1
3.633797969E1,9.032999873E-1,1.549299955E0,-1.656599998E0
3.635797969E1,1.975399971E0,6.791999936E-1,-1.918899894E0
3.637797969E1,2.895999908E0,6.909999847E-1,-1.999699950E0
3.639797969E1,4.217400074E0,1.046700001E0,-2.472499847E0
3.641797969E1,5.712599754E0,8.966999650E-1,-2.506599903E0
3.644797812E1,8.172399521E0,2.788999975E-1,-1.177099943E0
3.646797969E1,9.776199341E0,4.138000011E-1,-5.927000046E-1
3.648797969E1,1.056279945E1,1.574899912E0,4.195999801E-1
3.650797969E1,1.169589996E1,1.099300027E0,9.530999660E-1
3.652797969E1,1.062930012E1,1.161800027E0,8.836999536E-1
3.654797969E1,7.976699829E0,1.996199965E0,2.318300009E0
3.656798125E1,7.302799702E0,1.358099937E0,2.902400017E0
3.658798281E1,8.394700050E0,-8.574000001E-1,2.743899822E0
3.661797969E1,9.224399567E0,-3.773799896E0,2.673300028E0
3.663797969E1,7.676299572E0,-4.052199841E0,2.679999828E0
3.665797969E1,4.850100040E0,-3.174000025E0,2.776299953E0
3.667797969E1,1.733099937E0,-1.373700023E0,2.880800009E0
3.669797969E1,-6.341999769E-1,4.888999760E-1,3.073199987E0
3.671797969E1,-2.199699879E0,1.674600005E0,3.096599817E0
3.673797969E1,-3.270200014E0,2.403899908E0,2.623800039E0
3.675797969E1,-3.944499969E0,2.641399860E0,1.853500009E0
3.677797969E1,-4.365999699E0,2.373299837E0,9.477999806E-1
3.679797969E1,-4.277199745E0,1.603599906E0,1.100999936E-1
3.681797969E1,-3.592799902E0,2.026999891E-1,1.630000025E-2
3.683797969E1,-2.772699833E0,-1.425099969E0,-2.202999890E-1
3.685797969E1,-2.416599989E0,-3.078899860E0,-2.224999964E-1
3.687797969E1,-2.940399885E0,-4.260600090E0,-1.885999888E-1
3.689797969E1,-3.791999817E0,-4.714200020E0,3.538999856E-1
3.691797969E1,-3.879199982E0,-5.861799717E0,4.550999999E-1
3.693797969E1,-3.903499842E0,-7.513899803E0,3.377999961E-1
3.695797969E1,-5.307699680E0,-7.390499592E0,1.268499970E0
3.697797969E1,-6.609499931E0,-6.193399906E0,2.886600018E0
3.699797969E1,-5.049999714E0,-7.134599686E0,3.940899849E0
3.701797969E1,-3.858099937E0,-7.322199821E0,3.255199909E0
3.703797969E1,-3.938199997E0,-5.416999817E0,2.360999823E0
3.705797969E1,-2.972999811E0,-3.726899862E0,2.039399862E0
3.707797969E1,-5.336999893E-1,-3.264199972E0,1.875299931E0
3.709797969E1,1.810999990E0,-3.569199800E0,1.663199902E0
3.711797969E1,3.269999981E0,-4.115999699E0,1.197799921E0
3.713797969E1,2.312500000E0,-3.691799879E0,5.270000100E-1
3.715797969E1,4.408999979E-1,-2.717700005E0,6.372999549E-1
3.717797969E1,-1.466099977E0,-1.143100023E0,1.473199964E0
3.719797969E1,-2.884599924E0,6.868999600E-1,2.841099977E0
3.721797969E1,-3.431399822E0,2.157599926E0,3.584800005E0
3.723797969E1,-3.442099810E0,3.150599957E0,3.718799829E0
3.725797969E1,-3.197199821E0,3.679499865E0,2.981299877E0
3.727797969E1,-3.162099838E0,4.075299740E0,1.846499920E0
3.729797969E1,-2.489500046E0,3.922499895E0,2.287999988E-1
3.731797969E1,-9.346999526E-1,3.061800003E0,-1.287500024E0
3.733797969E1,4.196999967E-1,2.517699957E0,-2.125099897E0
3.735797969E1,2.356600046E0,2.140300035E0,-2.107599974E0
3.738798125E1,5.399399757E0,1.914299965E0,-2.057299852E0
3.741797969E1,8.293700218E0,1.317199945E0,-1.723899961E0
3.743797969E1,9.453100204E0,6.827999949E-1,-1.495800018E0
3.745797969E1,1.004479980E1,3.088999987E-1,-1.067899942E0
3.747797969E1,1.016349983E1,8.711999655E-1,-2.391999960E-1
3.749797969E1,1.103609943E1,-5.680000037E-2,6.488999724E-1
3.751797969E1,9.664899826E0,2.565000057E-1,1.383399963E0
3.753797969E1,7.379199982E0,1.487100005E0,2.724200010E0
3.755797969E1,6.873699665E0,1.227599978E0,3.304299831E0
3.757797969E1,7.910499573E0,-7.513999939E-1,2.977599859E0
3.759798125E1,8.401399612E0,-2.600899935E0,2.485499859E0
3.762797969E1,6.906499863E0,-3.767399788E0,2.815999985E0
3.764797969E1,5.108200073E0,-3.600499868E0,3.570499897E0
3.766797969E1,2.812599897E0,-2.474499941E0,3.803499937E0
3.768797969E1,3.805999756E-1,-4.590999782E-1,3.782099962E0
3.770797969E1,-1.323199987E0,9.878999591E-1,3.529599905E0
3.772797969E1,-2.684099913E0,1.803799987E0,2.881399870E0
3.774797969E1,-3.749399900E0,1.941799998E0,1.829899907E0
3.776797969E1,-4.667699814E0,1.710299969E0,8.888999820E-1
3.778797969E1,-4.902699947E0,7.463999987E-1,3.001999855E-1
3.780797969E1,-5.018799782E0,-6.466999650E-1,-5.490999818E-1
3.782797969E1,-4.475100040E0,-3.062099934E0,-1.280300021E0
3.784797969E1,-4.407599926E0,-5.594999790E0,-1.929499984E0
3.786797969E1,-5.858699799E0,-6.389800072E0,-1.708099961E0
3.788797969E1,-7.223099709E0,-6.800899982E0,-6.376999617E-1
3.790797969E1,-6.992300034E0,-7.746500015E0,8.978999853E-1
3.792797969E1,-6.137300014E0,-8.245399475E0,1.764299989E0
3.794797969E1,-6.074299812E0,-7.719599724E0,2.068199873E0
3.796797969E1,-6.259299755E0,-7.367399693E0,2.558099985E0
3.798797969E1,-5.135600090E0,-8.702899933E0,2.994599819E0
3.801797969E1,-5.120800018E0,-7.342700005E0,4.177799702E0
3.803797969E1,-4.225399971E0,-5.272999763E0,5.231499672E0
3.805797969E1,-1.025599957E0,-4.566599846E0,4.854399681E0
3.807797969E1,2.731499910E0,-5.139499664E0,3.483799934E0
3.809797969E1,4.802299976E0,-5.365399837E0,1.651699901E0
3.811797969E1,4.261399746E0,-4.397099972E0,-2.010999918E-1
3.813797969E1,2.038899899E0,-3.125999928E0,-6.981999874E-1
3.815797969E1,-4.963999987E-1,-1.246500015E0,8.636999726E-1
3.817797969E1,-2.342499971E0,7.185999751E-1,2.646399975E0
3.819798125E1,-3.119299889E0,2.328299999E0,3.859099865E0
3.822797969E1,-2.571499825E0,3.744199991E0,3.160099983E0
3.824797969E1,-1.664499998E0,4.413300037E0,1.656899929E0
3.826797969E1,7.759999484E-2,3.821299791E0,-2.148000002E-1
3.828797969E1,2.088500023E0,2.274799824E0,-2.248699903E0
3.830797969E1,3.780799866E0,8.211999536E-1,-3.714099884E0
3.832797969E1,4.611799717E0,6.042999625E-1,-3.504599810E0
3.834797969E1,5.711400032E0,9.413999915E-1,-1.772599936E0
3.836797969E1,7.462299824E0,8.840000033E-1,-9.181999564E-1
3.838797969E1,8.954099655E0,1.031299949E0,-6.195999980E-1
3.840797969E1,1.057079983E1,1.215199947E0,-8.151999712E-1
3.842797969E1,1.175909996E1,1.274699926E0,-1.248999953E0
3.844797969E1,1.167840004E1,2.335199833E0,-1.080099940E0
3.846797969E1,1.205319977E1,2.405499935E0,-1.846999973E-1
3.848797969E1,1.185419941E1,2.160099983E0,2.540000081E-1
3.850797969E1,1.000269985E1,2.812899828E0,1.594399929E0
3.852797969E1,9.893799782E0,1.429499984E0,1.918699980E0
3.854797969E1,1.071959972E1,-1.308899999E0,1.948799968E0
3.856797969E1,1.109739971E1,-4.697799683E0,2.059099913E0
3.858798281E1,9.422699928E0,-6.168299675E0,2.845599890E0
3.861797969E1,4.776299953E0,-5.371399879E0,4.279500008E0
3.863797969E1,1.429999948E0,-3.294399977E0,5.082799911E0
3.865797969E1,-9.128999710E-1,-1.441999912E0,5.063399792E0
3.867797969E1,-2.373600006E0,-4.772999883E-1,3.814099789E0
3.869797969E1,-3.230899811E0,2.611999810E-1,2.500399828E0
3.871797969E1,-3.878499985E0,6.259999871E-1,1.419499993E0
3.873797969E1,-4.487100124E0,5.482999682E-1,5.245000124E-1
3.875797969E1,-4.732899666E0,-2.900999784E-1,-2.751999795E-1
3.877798438E1,-4.726500034E0,-1.647199988E0,-9.311999679E-1
3.880797969E1,-4.822099686E0,-4.448499680E0,-1.857100010E0
3.882797969E1,-5.964099884E0,-5.714099884E0,-2.466899872E0
3.884797969E1,-7.273699760E0,-6.672299862E0,-1.913299918E0
3.886797969E1,-6.783999920E0,-8.227000237E0,-2.843999863E-1
3.888797969E1,-6.097599983E0,-9.102499962E0,1.419199944E0
3.890797969E1,-6.590699673E0,-8.280300140E0,2.700000048E0
3.892797969E1,-6.996999741E0,-7.386299610E0,3.700599909E0
3.894797969E1,-6.054899693E0,-8.353499413E0,3.903699875E0
3.896797969E1,-5.836499691E0,-8.433599472E0,3.324399948E0
3.898797969E1,-6.159499645E0,-6.946699619E0,3.381099939E0
3.900797969E1,-4.065700054E0,-6.605000019E0,3.672399998E0
3.902797969E1,-1.420699954E0,-6.782499790E0,3.441099882E0
3.904797969E1,1.141700029E0,-6.576799870E0,2.908999920E0
3.906798125E1,2.323999882E0,-5.833799839E0,1.820999980E0
3.908798125E1,2.239599943E0,-4.549799919E0,4.594999850E-1
3.911797969E1,6.796000004E-1,-1.784599900E0,-1.158999950E-1
3.913797969E1,-7.000000030E-2,3.559999913E-2,1.053399920E0
3.915797969E1,-9.107999802E-1,1.704399943E0,1.873399973E0
3.917797969E1,-1.258000016E0,2.911700010E0,1.987100005E0
3.919797969E1,-1.268299937E0,3.696999788E0,1.003099918E0
3.921797969E1,-1.012199998E0,3.927599907E0,-7.301999927E-1
3.923797969E1,1.317999959E-1,3.500900030E0,-2.099599838E0
3.925797969E1,1.688499928E0,2.915999889E0,-2.487599850E0
3.927797969E1,3.775499821E0,1.769499898E0,-2.109400034E0
3.929797969E1,5.544699669E0,1.286899924E0,-1.384400010E0
3.931797969E1,6.979300022E0,1.308099985E0,-1.324599981E0
3.933797969E1,8.828199387E0,8.854999542E-1,-1.335199952E0
3.935797969E1,1.054959965E1,7.348999977E-1,-1.165400028E0
3.937797969E1,1.157170010E1,1.318799973E0,-6.589999795E-1
3.939797969E1,1.183109951E1,2.410099983E0,-3.619999811E-2
3.941797969E1,1.265829945E1,1.352899909E0,9.096999764E-1
3.943797969E1,1.195119953E1,-6.639999896E-2,1.873899937E0
3.945797969E1,8.820799828E0,4.549999833E-1,2.312999964E0
3.947798125E1,7.525199890E0,3.941999972E-1,2.545099974E0
3.950797969E1,7.397500038E0,-1.475099921E0,2.645900011E0
3.952797969E1,7.131799698E0,-3.001699924E0,2.768999815E0
3.954797969E1,5.970900059E0,-3.653100014E0,2.045699835E0
3.956797969E1,4.348599911E0,-3.105799913E0,1.830799937E0
3.958798125E1,2.787799835E0,-1.753699899E0,2.043200016E0
3.961797969E1,3.720000014E-2,6.090999842E-1,2.244600058E0
3.963797969E1,-1.617599964E0,1.816199899E0,1.954399943E0
3.965797969E1,-2.510399818E0,2.483099937E0,1.375800014E0
3.967797969E1,-3.137899876E0,2.573199987E0,8.405999541E-1
3.969797969E1,-3.566099882E0,2.143300056E0,5.029999837E-2
3.971797969E1,-3.747799873E0,1.059000015E0,-6.385999918E-1
3.974797969E1,-3.224299908E0,-2.438099861E0,-8.902999759E-1
3.976797969E1,-2.741400003E0,-4.920099735E0,-9.375999570E-1
3.978797969E1,-3.173899889E0,-6.020999908E0,-1.143100023E0
3.980797969E1,-4.703000069E0,-6.505899906E0,-4.025999904E-1
3.982797969E1,-5.909100056E0,-7.746399879E0,6.958999634E-1
3.984797969E1,-7.342000008E0,-7.751599789E0,2.202499866E0
3.986797969E1,-8.529699326E0,-7.170199871E0,3.398699999E0
3.988797969E1,-8.823399544E0,-6.475499630E0,4.018000126E0
3.990797969E1,-6.657899857E0,-7.751099586E0,3.095499992E0
3.992797969E1,-5.403800011E0,-7.144399643E0,2.237799883E0
3.994797969E1,-4.111199856E0,-5.927899837E0,3.004599810E0
3.996797969E1,-1.937099934E0,-5.714600086E0,3.685099840E0
3.998797969E1,8.876999617E-1,-6.716199875E0,3.657099962E0
4.000797969E1,2.446499825E0,-6.849599838E0,2.963199854E0
4.002797969E1,1.990199924E0,-5.610199928E0,1.555999994E0
4.004797969E1,1.020699978E0,-3.712199926E0,1.506000012E-1
4.006797969E1,-2.120999992E-1,-1.437899947E0,2.052999884E-1
4.008797969E1,-1.348199964E0,9.213999510E-1,7.034999728E-1
4.010797969E1,-1.896299958E0,2.824100018E0,1.078799963E0
4.012797969E1,-1.382300019E0,3.944899797E0,9.685999751E-1
4.014797969E1,-5.414000154E-1,4.439899921E0,1.486999989E-1
4.016798125E1,2.802999914E-1,4.164599895E0,-9.336999655E-1
4.019797969E1,7.306999564E-1,3.697799921E0,-2.440700054E0
4.021797969E1,1.720099926E0,3.057699919E0,-2.652199984E0
4.023797969E1,3.125200033E0,2.217200041E0,-2.012500048E0
4.025797969E1,4.336199760E0,1.629599929E0,-1.051299930E0
4.027798125E1,5.524699688E0,1.224300027E0,-4.284999967E-1
4.030797969E1,7.072700024E0,8.865999579E-1,1.049999986E-2
4.032797969E1,7.987899780E0,5.626999736E-1,3.702999949E-1
4.034797969E1,8.124400139E0,9.121999741E-1,1.015499949E0
4.036797969E1,8.602999687E0,4.384000003E-1,1.267899990E0
4.038797969E1,8.135399818E0,2.679999918E-2,1.500999928E0
4.040797969E1,6.991099834E0,7.017999887E-1,2.065500021E0
4.042797969E1,7.500099659E0,2.766999900E-1,1.533599973E0
4.044797969E1,8.172699928E0,-5.651000142E-1,1.240700006E0
4.046797969E1,7.611399651E0,-1.103899956E0,1.780099988E0
4.048797969E1,6.059999943E0,-1.382799983E0,2.129600048E0
4.050797969E1,3.329399824E0,-9.319999814E-1,2.269299984E0
4.052797969E1,6.373999715E-1,3.172000051E-1,2.427999973E0
4.054797969E1,-1.468999982E0,1.816299915E0,2.385599852E0
4.056797969E1,-2.118700027E0,2.661299944E0,1.777300000E0
4.058797969E1,-2.035500050E0,2.961699963E0,7.155999541E-1
4.060797969E1,-2.304899931E0,2.711400032E0,-2.814999819E-1
4.062797969E1,-2.642999887E0,2.098500013E0,-9.508000016E-1
4.064797969E1,-2.458199978E0,4.222999811E-1,-1.115800023E0
4.066797969E1,-2.410699844E0,-1.305400014E0,-7.389000058E-1
4.068802188E1,-3.192199945E0,-3.121500015E0,-8.190000057E-2
4.071797969E1,-5.202300072E0,-4.833699703E0,1.854200006E0
4.073797969E1,-6.452600002E0,-5.807600021E0,2.889799833E0
4.075797969E1,-7.197899818E0,-6.912600040E0,2.345599890E0
4.077797969E1,-7.544699669E0,-7.275699615E0,1.878799915E0
4.079797969E1,-7.567399979E0,-6.842899799E0,2.332299948E0
4.081797969E1,-5.652100086E0,-7.818399906E0,2.755899906E0
4.083797969E1,-3.559399843E0,-8.903800011E0,3.110899925E0
4.085797969E1,-3.520799875E0,-6.721799850E0,5.148099899E0
4.087797969E1,-2.638999939E0,-4.078799725E0,7.079799652E0
4.089797969E1,-3.574999869E-1,-2.565500021E0,6.503799915E0
4.091797969E1,2.187500000E0,-1.810499907E0,4.164599895E0
4.093797969E1,3.799999952E0,-1.639499903E0,6.523000002E-1
4.095797969E1,3.408599854E0,-1.039099932E0,-2.533099890E0
4.097797969E1,1.499799967E0,5.862999558E-1,-3.617799997E0
4.099797969E1,-1.599999964E-1,2.189199924E0,-2.881000042E0
4.101798125E1,-1.169899940E0,3.479499817E0,-1.871199965E0
4.104797969E1,-1.115499973E0,4.845499992E0,-5.862999558E-1
4.106798125E1,-4.485999942E-1,5.144299984E0,-6.481999755E-1
4.109797969E1,7.594999671E-1,4.665100098E0,-9.490999579E-1
4.111797969E1,1.893399954E0,3.949800014E0,-1.103600025E0
4.113797969E1,3.008199930E0,3.180799961E0,-1.533399940E0
4.115798125E1,3.793399811E0,2.716099977E0,-2.136800051E0
4.117798125E1,4.762399673E0,2.684799910E0,-2.770299911E0
4.120797969E1,6.285500050E0,2.517699957E0,-3.028899908E0
4.122797969E1,7.078899860E0,2.505100012E0,-2.473199844E0
4.124797969E1,7.815999985E0,2.272799969E0,-2.400699854E0
4.126797969E1,8.456899643E0,2.147199869E0,-2.019000053E0
4.128797969E1,9.364199638E0,1.376899958E0,-1.510199904E0
4.130797969E1,8.969499588E0,1.240700006E0,-8.772999644E-1
4.132797969E1,8.252699852E0,8.482999802E-1,5.083000064E-1
4.134797969E1,8.592299461E0,-3.209999800E-1,1.404099941E0
4.136798750E1,9.544199944E0,-2.173799992E0,1.961299896E0
4.139798125E1,1.007579994E1,-5.957999706E0,2.316599846E0
4.141798438E1,7.599400043E0,-7.026899815E0,2.258199930E0
4.144797969E1,3.537599802E0,-5.941799641E0,2.908299923E0
4.146798125E1,1.458099961E0,-4.004600048E0,3.127799988E0
4.149797969E1,-9.408999681E-1,-9.429999590E-1,1.829599977E0
4.151797969E1,-2.473099947E0,7.769999653E-2,9.629999995E-1
4.153798125E1,-3.970499992E0,6.649999619E-1,3.638999760E-1
4.156797969E1,-5.669199944E0,8.840999603E-1,4.492999911E-1
4.158797969E1,-5.117399693E0,-3.987999856E-1,4.858999848E-1
4.160797969E1,-4.268300056E0,-3.217999935E0,-9.149999917E-2
4.162798125E1,-3.831499815E0,-6.082200050E0,-1.097199917E0
4.165797969E1,-4.419300079E0,-8.455699921E0,-2.154000044E0
4.167797969E1,-5.040800095E0,-8.891599655E0,-2.695499897E0
4.169797969E1,-5.883999825E0,-8.803400040E0,-2.211199999E0
4.171797969E1,-6.997799873E0,-8.378499985E0,-9.325999618E-1
4.173797969E1,-8.173799515E0,-8.073999405E0,3.001999855E-1
4.175797969E1,-8.238699913E0,-8.119500160E0,1.061399937E0
4.177797969E1,-6.229599953E0,-9.433799744E0,8.586999774E-1
4.179797969E1,-4.654999733E0,-9.111299515E0,1.150799990E0
4.181797969E1,-4.180500031E0,-7.305999756E0,2.360999823E0
4.183798125E1,-2.330499887E0,-6.401899815E0,3.122499943E0
4.186797969E1,2.212699890E0,-7.483699799E0,2.741600037E0
4.188797969E1,4.065700054E0,-7.715999603E0,1.994599938E0
4.190797969E1,3.710399866E0,-6.726299763E0,7.064999938E-1
4.192797969E1,2.342499971E0,-4.769499779E0,-2.345999926E-1
4.194797969E1,5.766999722E-1,-2.223099947E0,-5.959999934E-2
4.196797969E1,-3.674999774E-1,2.099999972E-2,9.837999940E-1
4.198797969E1,-1.066499949E0,1.884099960E0,2.049299955E0
4.200797969E1,-1.232499957E0,3.529299974E0,2.800499916E0
4.202797969E1,-7.734999657E-1,3.886499882E0,2.539000034E0
4.204797969E1,2.630000003E-2,3.512599945E0,1.213400006E0
4.206797969E1,1.341699958E0,3.026999950E0,-2.060000002E-1
4.208797969E1,2.757200003E0,3.332299948E0,-1.099900007E0
4.210797969E1,4.806200027E0,3.575199842E0,-1.940999985E0
4.212797969E1,7.551499844E0,3.494699955E0,-2.338299990E0
4.214797969E1,9.501199722E0,3.705699921E0,-2.420899868E0
4.216798594E1,1.116869926E1,3.573400021E0,-1.673999906E0
4.219797969E1,1.215950012E1,3.518399954E0,7.918999791E-1
4.221797969E1,1.210540009E1,3.533699989E0,2.969899893E0
4.223797969E1,1.263189983E1,2.733099937E0,5.088799953E0
4.225797969E1,1.294469929E1,1.325699925E0,6.464499950E0
4.227797969E1,1.106019974E1,1.744799972E0,7.372499943E0
4.229797969E1,9.768799782E0,1.264199972E0,7.053899765E0
4.231797969E1,9.954899788E0,-7.207999825E-1,5.593499660E0
4.233797969E1,1.004189968E1,-2.528399944E0,4.894099712E0
4.235797969E1,9.396999359E0,-3.681599855E0,4.514199734E0
4.237797969E1,7.550399780E0,-3.839399815E0,3.583400011E0
4.239797969E1,5.299999714E0,-2.943899870E0,2.735299826E0
4.241797969E1,3.582099915E0,-1.909899950E0,1.735999942E0
4.243797969E1,1.868199944E0,-7.317999601E-1,6.036999822E-1
4.245797969E1,-9.104999900E-1,6.848999858E-1,8.529999852E-2
4.247797969E1,-2.179899931E0,1.312799931E0,1.174499989E0
4.249797969E1,-1.488399982E0,3.725000024E-1,1.286599994E0
4.251798125E1,-1.302699924E0,-1.161899924E0,5.199999735E-2
4.254797969E1,-6.681999564E-1,-4.847499847E0,-2.417199850E0
4.256798125E1,-5.720999837E-1,-7.695600033E0,-2.526599884E0
4.259797969E1,-1.725600004E0,-1.119899940E1,-1.014099956E0
4.261797969E1,-3.480899811E0,-1.164219952E1,9.167999625E-1
4.263797969E1,-4.861000061E0,-1.084140015E1,2.863199949E0
4.265797969E1,-4.963099957E0,-9.963500023E0,3.598500013E0
4.267797969E1,-3.988999844E0,-9.693099976E0,2.544299841E0
4.269797969E1,-3.889299870E0,-8.982299805E0,1.660899997E0
4.271797969E1,-3.457199812E0,-9.884799957E0,1.220899940E0
4.273797969E1,-4.443500042E0,-1.054239941E1,5.146999955E-1
4.275797969E1,-6.878799915E0,-7.898299694E0,1.991799951E0
4.277798125E1,-6.259299755E0,-6.897199631E0,3.747299910E0
4.280797969E1,-1.473199964E0,-8.319999695E0,4.301700115E0
4.282797969E1,1.586099982E0,-8.564799309E0,3.189599991E0
4.284797969E1,1.610499978E0,-7.291399956E0,1.363099933E0
4.286798594E1,-4.799999893E-1,-5.532999992E0,-6.645999551E-1
4.289797969E1,-3.712499857E0,-2.646899939E0,-5.705999732E-1
4.291797969E1,-4.581599712E0,-1.383599997E0,1.156700015E0
4.293797969E1,-4.092799664E0,-9.788999557E-1,2.329900026E0
4.295797969E1,-2.872999907E0,-1.081499934E0,1.994399905E0
4.298798125E1,-1.662899971E0,-1.496500015E0,1.636999995E-1
4.301797969E1,-1.083000004E-1,-2.535599947E0,-1.409999967E0
4.303797969E1,5.870000124E-1,-2.645400047E0,-1.848299980E0
4.305797969E1,1.327099919E0,-2.614300013E0,-1.861699939E0
4.307797969E1,2.698299885E0,-3.042500019E0,-1.840399981E0
4.309797969E1,3.719499826E0,-3.179999828E0,-1.746899962E0
4.311797969E1,5.209799767E0,-3.513700008E0,-1.274799943E0
4.313797969E1,6.165899754E0,-3.589200020E0,-7.875999808E-1
4.315797969E1,6.697799683E0,-3.325699806E0,1.797000021E-1
4.317797969E1,7.788899899E0,-3.923999786E0,1.069100022E0
4.319797969E1,7.575999737E0,-4.238899708E0,1.960199952E0
4.321797969E1,6.785599709E0,-3.172600031E0,2.622599840E0
4.323797969E1,7.673799992E0,-2.345499992E0,3.234400034E0
4.325797969E1,8.623199463E0,-1.756599903E0,2.635699987E0
4.327797969E1,9.025300026E0,-1.250100017E0,1.744499922E0
4.329797969E1,8.117599487E0,-3.240000010E-1,1.055899978E0
4.331797969E1,6.529199600E0,7.843999863E-1,1.137699962E0
4.333797969E1,4.810699940E0,2.189300060E0,1.550999999E0
4.335797969E1,3.131299973E0,3.945799828E0,1.582599998E0
4.337797969E1,1.287099957E0,5.220699787E0,-8.579999954E-2
4.339797969E1,1.208999977E-1,6.130899906E0,-1.692699909E0
4.341797969E1,-2.423999906E-1,6.482100010E0,-3.059199810E0
4.343797969E1,-1.565999985E-1,6.241699696E0,-3.806099892E0
4.345797969E1,1.585000008E-1,5.068900108E0,-3.515999794E0
4.347797969E1,3.849999979E-2,3.174499989E0,-2.355799913E0
4.349797969E1,-9.689999819E-1,8.661999702E-1,-1.658999920E-1
4.351797969E1,-2.437599897E0,-8.933999538E-1,2.552999973E0
4.353797969E1,-4.278500080E0,-2.352999926E0,4.707499981E0
4.355797969E1,-5.903899670E0,-4.310899734E0,6.320199966E0
4.357797969E1,-7.056200027E0,-5.073899746E0,7.427000046E0
4.359797969E1,-7.395999908E0,-4.828599930E0,7.303899765E0
4.361797969E1,-6.386499882E0,-3.764199972E0,5.767899990E0
4.363797969E1,-3.395999908E0,-4.473799706E0,3.517499924E0
4.365797969E1,-2.735899925E0,-3.701699972E0,2.266700029E0
4.367797969E1,-3.192999840E0,-1.958299994E0,2.670300007E0
4.369797969E1,-2.095299959E0,-9.759999812E-2,2.254600048E0
4.371797969E1,6.572999954E-1,9.023999572E-1,-6.543999910E-1
4.373797969E1,3.295399904E0,8.894999623E-1,-4.578700066E0
4.375797969E1,5.018300056E0,2.456000000E-1,-7.744699955E0
4.377801406E1,4.608399868E0,-9.999999404E-2,-8.895500183E0
4.380797969E1,1.518099904E0,1.753000021E-1,-4.896399975E0
4.382797969E1,-5.599999800E-2,1.077299953E0,-2.232300043E0
4.384797969E1,-9.486999512E-1,2.790400028E0,-6.153999567E-1
