"Time (s)","Linear Acceleration x (m/s^2)","Linear Acceleration y (m/s^2)","Linear Acceleration z (m/s^2)"
2.000000000E-2,-1.328999996E-1,-1.200999990E-1,-1.413999945E-1
4.000625000E-2,-1.198999956E-1,-2.344999909E-1,7.292000055E-1
7.000000000E-2,-8.964999914E-1,-4.386000037E-1,1.964699984E0
9.000468800E-2,-1.614300013E0,-3.449999988E-1,2.495399952E0
1.200000000E-1,-2.037600040E0,-3.700000001E-3,3.436999798E0
1.400031250E-1,-2.798599958E0,2.063999921E-1,3.570699930E0
1.700000000E-1,-2.556200027E0,2.251999974E-1,1.374099970E0
1.900015630E-1,-1.181599975E0,2.371999919E-1,-7.019999623E-2
2.200000000E-1,-3.103999794E-1,1.955999881E-1,4.399999976E-3
2.400000000E-1,-5.084999800E-1,2.110999972E-1,-5.288999677E-1
2.600000000E-1,-4.952999949E-1,1.345999986E-1,-8.379999995E-1
2.800000000E-1,-3.695999980E-1,2.825999856E-1,-1.151000023E0
3.000093750E-1,-2.348999977E-1,3.897999823E-1,-7.069000006E-1
3.300000000E-1,5.453000069E-1,3.138999939E-1,-1.025399923E0
3.500031250E-1,7.708999515E-1,4.603999853E-1,-5.546000004E-1
3.800000000E-1,3.289999962E-1,3.888999820E-1,6.933999658E-1
4.000109380E-1,-6.983000040E-1,1.080999970E-1,6.965999603E-1
4.300000000E-1,9.950999618E-1,-1.569999941E-2,-6.039999723E-1
4.500109380E-1,4.801999927E-1,1.469999924E-2,3.147999942E-1
4.800000000E-1,-8.434999585E-1,6.150000095E-1,-9.187999964E-1
5.000046880E-1,-2.369699955E0,-1.992999911E-1,-2.853899956E0
5.300000000E-1,-1.892899990E0,5.020999908E-1,8.393999934E-1
5.500031250E-1,1.381999999E-1,6.069999933E-1,-2.076999992E-1
5.800000000E-1,5.339999869E-2,3.130000085E-2,1.929000020E-1
6.000000000E-1,-3.676999807E-1,-1.064999998E-1,3.698000014E-1
6.200000000E-1,-2.175000012E-1,-3.369999826E-1,-2.379999906E-1
6.400000000E-1,4.412999749E-1,-6.108999848E-1,-1.330399990E0
6.600000000E-1,1.073699951E0,-1.175199986E0,-1.788699985E0
6.800000000E-1,1.053599954E0,-1.028399944E0,-1.631899953E0
7.000000000E-1,8.628999591E-1,-1.232299924E0,-1.017499924E0
7.200000000E-1,1.341300011E0,-1.742100000E0,-6.599999964E-3
7.400000000E-1,5.399999619E-1,-1.525900006E0,1.275099993E0
7.600000000E-1,1.560999900E-1,-9.860999584E-1,1.968099952E0
7.800000000E-1,5.515999794E-1,-4.736999869E-1,9.711999893E-1
8.000015630E-1,1.489000022E-1,-5.667999983E-1,2.613100052E0
8.300000000E-1,9.057999849E-1,2.422999889E-1,7.831999660E-1
8.500000000E-1,4.913999736E-1,7.349999547E-1,9.631999731E-1
8.700000000E-1,-1.261999905E-1,1.117299914E0,1.990399957E0
8.900000000E-1,2.960000001E-2,9.488999844E-1,2.199300051E0
9.100000000E-1,3.524000049E-1,1.141899943E0,2.149999887E-1
9.300000000E-1,8.220999837E-1,1.044199944E0,-9.199999571E-1
9.500000000E-1,1.268700004E0,1.262899995E0,-1.204900026E0
9.700000000E-1,9.739999771E-1,9.404000044E-1,-1.510900021E0
9.900000000E-1,1.122699976E0,2.978999913E-1,-1.338199973E0
1.010000000E0,1.155900002E0,-3.382999897E-1,-3.802999854E-1
1.030000000E0,1.112999916E0,-4.111999869E-1,1.828999966E-1
1.050000000E0,8.499000072E-1,-2.435999960E-1,3.908999860E-1
1.070000000E0,1.006199956E0,3.779000044E-1,8.519999683E-2
1.090000000E0,1.589399934E0,-2.234999985E-1,-3.407000005E-1
1.110000000E0,2.258299828E0,-6.685999632E-1,-8.306999803E-1
1.130000000E0,2.254999876E0,-5.036000013E-1,-1.133800030E0
1.150000000E0,2.223599911E0,-5.543000102E-1,-1.152899981E0
1.170000000E0,2.360299826E0,-7.493999600E-1,-5.934000015E-1
1.190000000E0,2.131299973E0,-5.618000031E-1,-5.261999965E-1
1.210000000E0,2.101899862E0,-3.969999850E-1,-2.518999875E-1
1.230000000E0,1.975899935E0,-4.470000044E-2,-3.502999842E-1
1.250000000E0,1.255599976E0,5.891999602E-1,-6.406999826E-1
1.270000000E0,9.924999475E-1,7.832999825E-1,-2.327999920E-1
1.290000000E0,1.037699938E0,4.862999916E-1,8.100000210E-3
1.310000000E0,9.049999714E-1,3.928000033E-1,4.199000001E-1
1.330000000E0,6.548999548E-1,3.233999908E-1,1.467800021E0
1.350000000E0,2.527000010E-1,6.015999913E-1,2.085999966E0
1.370000000E0,3.387999833E-1,9.813999534E-1,1.110000014E0
1.390000000E0,5.622999668E-1,3.481999934E-1,7.615000010E-1
1.410000000E0,4.557999969E-1,2.578999996E-1,1.292999983E-1
1.430000000E0,8.500000089E-2,-4.222999811E-1,3.653999865E-1
1.450000000E0,-6.674999595E-1,-9.774000049E-1,1.414399981E0
1.470000000E0,-1.327700019E0,-7.012999654E-1,2.570199966E0
1.490000000E0,-2.053599834E0,-1.007699966E0,2.014699936E0
1.510000000E0,-2.223099947E0,-1.302699924E0,1.178099990E0
1.530000000E0,-2.027499914E0,-1.452700019E0,2.979999781E-1
1.550000000E0,-1.838099957E0,-1.573199987E0,-1.035799980E0
1.570000000E0,-1.342299938E0,-1.578099966E0,-2.110699892E0
1.590000000E0,-1.007300019E0,-1.062799931E0,-2.914199829E0
1.610000000E0,-8.718999624E-1,-9.041999578E-1,-2.931999922E0
1.630000000E0,-9.799999595E-1,-9.600999951E-1,-2.186199903E0
1.650000000E0,-1.034699917E0,-7.285999656E-1,-1.464599967E0
1.670006250E0,-9.435999990E-1,-4.095999897E-1,-7.005000114E-1
1.700000000E0,-6.514999866E-1,-9.640000015E-2,4.693000019E-1
1.720000000E0,-4.359999895E-1,3.339999914E-1,1.090299964E0
1.740000000E0,-2.655999959E-1,3.594000041E-1,1.033599973E0
1.760000000E0,1.907999963E-1,1.377999932E-1,7.585999966E-1
1.780000000E0,6.588999629E-1,8.839999884E-2,7.369999588E-2
1.800000000E0,5.385999680E-1,4.149999917E-1,-2.851999998E-1
1.820000000E0,2.425999939E-1,5.516999960E-1,-2.009999901E-1
1.840000000E0,1.815999895E-1,3.497000039E-1,-6.149999797E-2
1.860000000E0,1.074999943E-1,1.841000021E-1,3.989999741E-2
1.880000000E0,-1.772999913E-1,5.450999737E-1,6.390000135E-2
1.900000000E0,-3.012999892E-1,1.002300024E0,2.219999880E-1
1.920000000E0,-2.784000039E-1,1.035699964E0,-9.349999577E-2
1.940000000E0,-1.324999928E-1,1.118799925E0,-4.060999751E-1
1.960000000E0,4.429999739E-2,1.242499948E0,-3.461000025E-1
1.980000000E0,-3.680000082E-2,9.407999516E-1,-4.671999812E-1
2.000000000E0,2.437999994E-1,6.495999694E-1,-4.113000035E-1
2.020000000E0,2.137999982E-1,5.787000060E-1,-6.408999562E-1
2.040000000E0,1.375999898E-1,7.656999826E-1,-4.199999869E-1
2.060000000E0,1.233999953E-1,8.901000023E-1,-4.329999909E-2
2.080000000E0,4.264999926E-1,9.203999639E-1,-9.759999812E-2
2.100000000E0,5.442000031E-1,1.056200027E0,-1.436000019E-1
2.120000000E0,7.197999954E-1,9.638999701E-1,2.511999905E-1
2.140000000E0,6.148999929E-1,7.820999622E-1,1.059199929E0
2.160000000E0,9.059999883E-2,8.254999518E-1,1.933799982E0
2.180000000E0,-6.354999542E-1,4.500999749E-1,2.717999935E0
2.200000000E0,-1.284799933E0,-4.883999825E-1,3.300899982E0
2.220000000E0,-1.319000006E0,-1.362200022E0,3.311999798E0
2.240000000E0,-8.434999585E-1,-1.875999928E0,2.182100058E0
2.260000000E0,-6.868999600E-1,-1.613499999E0,7.249000072E-1
2.280000000E0,-3.502999842E-1,-1.230000019E0,-1.031000018E0
2.300000000E0,-1.897999942E-1,-9.781999588E-1,-2.191699982E0
2.320000000E0,6.650000066E-2,-9.438999891E-1,-3.245699883E0
2.340000000E0,-1.118999943E-1,-8.446999788E-1,-4.076900005E0
2.360000000E0,-7.393999696E-1,-7.228999734E-1,-3.314599991E0
2.380000000E0,-1.546399951E0,-8.025999665E-1,-8.815000057E-1
2.400000000E0,-2.050999880E0,-1.300999999E0,1.550099969E0
2.420000000E0,-1.712899923E0,-2.005800009E0,2.462599993E0
2.440000000E0,-7.160999775E-1,-2.625799894E0,1.516199946E0
2.460000000E0,4.023999870E-1,-2.964699984E0,-4.567999840E-1
2.480000000E0,1.061200023E0,-4.557199955E0,-2.434000015E0
2.500000000E0,1.502499938E0,4.467999935E-1,-4.067199707E0
2.520000000E0,-7.154999971E-1,3.296599865E0,-3.072099924E0
2.540000000E0,-6.809999943E-1,3.949499846E0,-1.409600019E0
2.560000000E0,-2.565999925E-1,1.294799924E0,-1.128999949E0
2.580000000E0,1.169099927E0,-4.235999882E-1,-3.480999768E-1
2.600000000E0,1.668299913E0,-6.354999542E-1,7.138999701E-1
2.620000000E0,1.062199950E0,4.636999965E-1,1.166700006E0
2.640000000E0,6.608999968E-1,1.051900029E0,1.262099981E0
2.660006250E0,4.476999938E-1,1.502200007E0,9.348999858E-1
2.690000000E0,4.925999939E-1,1.003799915E0,9.302999973E-1
2.710000000E0,6.020999551E-1,3.827999830E-1,6.166999936E-1
2.730000000E0,6.999999881E-1,4.079999775E-2,2.518999875E-1
2.750000000E0,6.165999770E-1,5.232999921E-1,8.743000031E-1
2.770000000E0,8.587999940E-1,1.185299993E0,4.327999949E-1
2.790000000E0,9.666999578E-1,1.187799931E0,-3.454999924E-1
2.810000000E0,8.373000026E-1,1.125900030E0,1.032999977E-1
2.830000000E0,3.964000046E-1,1.611599922E0,1.015399933E0
2.850000000E0,-2.919999883E-2,1.731299996E0,1.418099999E0
2.870000000E0,-1.138999984E-1,7.519999743E-1,1.963299990E0
2.890000000E0,-1.890999973E-1,4.499999806E-2,2.816999912E0
2.910000000E0,-3.748999834E-1,-1.167400002E0,3.408099890E0
2.930000000E0,-5.198000073E-1,-2.045599937E0,2.758499861E0
2.950000000E0,-6.211999655E-1,-2.259799957E0,1.329399943E0
2.970000000E0,-7.547999620E-1,-2.292000055E0,-5.117999911E-1
2.990000000E0,-1.469499946E0,-2.091399908E0,-1.713899970E0
3.010012500E0,-2.467000008E0,-1.478500009E0,-1.729399920E0
3.040000000E0,-3.410899878E0,-1.186599970E0,-1.120399952E0
3.060000000E0,-2.847599983E0,-8.554999828E-1,-1.109200001E0
3.080000000E0,-2.651799917E0,-5.203999877E-1,-1.743199944E0
3.100000000E0,-2.011899948E0,-7.386999726E-1,-2.095900059E0
3.120000000E0,-1.665499926E0,-2.281999886E-1,-1.791000009E0
3.140000000E0,-1.029699922E0,2.510000020E-2,-1.633199930E0
3.160000000E0,-7.657999992E-1,-4.217000008E-1,-1.258700013E0
3.180000000E0,-1.088999987E0,1.429999918E-1,-1.000599980E0
3.200000000E0,-6.586999893E-1,3.399999812E-3,-1.059499979E0
3.220000000E0,-6.186000109E-1,2.310999930E-1,-1.890699983E0
3.240000000E0,-1.086699963E0,2.053599834E0,-2.119799852E0
3.260000000E0,-1.195500016E0,2.629799843E0,-2.587199926E0
3.280000000E0,-1.050699949E0,1.781699896E0,-3.193699837E0
3.300000000E0,-1.978999972E-1,1.516199946E0,-3.752499819E0
3.320000000E0,8.896999955E-1,8.281999826E-1,-3.072399855E0
3.340000000E0,3.892299891E0,2.354199886E0,-1.307299972E0
3.360000000E0,6.191899776E0,1.983599901E0,6.645999551E-1
3.380000000E0,5.073599815E0,2.417999953E-1,2.233000040E0
3.400000000E0,1.072000027E0,-6.252999902E-1,3.151499987E0
3.420000000E0,3.700000048E-1,8.249999583E-2,2.769899845E0
3.440000000E0,9.167000055E-1,-1.517799973E0,2.095900059E0
3.460009375E0,6.139999628E-1,-4.255899906E0,2.621599913E0
3.490000000E0,8.264999986E-1,-4.529900074E0,4.537799835E0
3.510009375E0,9.540999532E-1,-3.244999886E0,3.066399813E0
3.540000000E0,1.039299965E0,-1.362699986E0,-1.194100022E0
3.560009375E0,-3.820999861E-1,-7.035999894E-1,-3.016799927E0
3.590000000E0,-1.524999976E0,-2.014699936E0,-2.028899908E0
3.610000000E0,-7.935000062E-1,-2.443599939E0,-1.918599963E0
3.630000000E0,-8.021999598E-1,-1.984799981E0,-1.757799983E0
3.650000000E0,-3.059999943E-1,-1.728799939E0,-1.213799953E0
3.670000000E0,2.204999924E-1,-1.198300004E0,-1.021099925E0
3.690000000E0,9.187999964E-1,-5.803999901E-1,-8.919000030E-1
3.710007813E0,2.012599945E0,2.980999947E-1,-2.286999971E-1
3.740000000E0,3.234400034E0,9.544999599E-1,-1.867799997E0
3.760004688E0,3.276099920E0,1.514699936E0,-3.010599852E0
3.790000000E0,1.903699994E0,2.224200010E0,-4.207799911E0
3.810000000E0,1.615999937E-1,2.087699890E0,-5.519199848E0
3.830000000E0,-9.529999495E-1,3.042999983E0,-6.493099689E0
3.850000000E0,-1.752799988E0,3.365999937E0,-7.967000008E0
3.870000000E0,-3.029500008E0,1.661099911E0,-8.161499977E0
3.890000000E0,-3.951799870E0,5.119999647E-1,-4.856999874E0
3.910000000E0,-4.902299881E0,5.020999908E-1,-1.152699947E0
3.930000000E0,-7.044799805E0,-3.558999896E-1,-9.418999553E-1
3.950000000E0,-7.506000042E0,-1.638299942E0,-1.396499991E0
3.970000000E0,-6.725499630E0,-2.100699902E0,-1.352699995E0
3.990000000E0,-5.575599670E0,-2.787999868E0,-1.360799909E0
4.010000000E0,-6.271199703E0,-2.841699839E0,-1.369899988E0
4.030000000E0,-7.942499638E0,-1.881799936E0,6.383000016E-1
4.050000000E0,-7.016599655E0,-1.431899905E0,1.939899921E0
4.070000000E0,-4.899600029E0,-2.228699923E0,1.983999968E0
4.090000000E0,-3.917299986E0,-2.910799980E0,1.705999970E0
4.110014063E0,-3.655699968E0,-3.084699869E0,1.547199965E0
4.140000000E0,-2.848399878E0,-2.889600039E0,1.164499998E0
4.160001563E0,-2.607499838E0,-2.219499826E0,1.854499936E0
4.190000000E0,-1.952099919E0,-1.022599936E0,1.721899986E0
4.210000000E0,-5.303999782E-1,-8.046000004E-1,6.083999872E-1
4.230000000E0,5.615000129E-1,-6.216999888E-1,1.352999955E-1
4.250000000E0,6.013000011E-1,1.483999938E-1,4.299999774E-1
4.270004688E0,3.791999817E-1,5.988999605E-1,5.587999821E-1
4.300000000E0,1.379199982E0,-4.089999944E-2,1.015900016E0
4.320003125E0,1.760299921E0,-8.492999673E-1,1.287899971E0
4.350000000E0,2.177399874E0,-1.163800001E0,1.865599990E0
4.370001563E0,1.682199955E0,-1.141399980E0,2.580199957E0
4.390017188E0,1.462099910E0,-1.103500009E0,2.854199886E0
4.420006250E0,1.027899981E0,-5.346999764E-1,4.206599712E0
4.450000000E0,5.771999955E-1,-1.225999966E-1,4.842000008E0
4.470003125E0,-1.178200006E0,8.718000054E-1,5.733099937E0
4.500000000E0,-3.552399874E0,1.285599947E0,6.179199696E0
4.520003125E0,-4.255899906E0,9.625999928E-1,6.942299843E0
4.550000000E0,-3.910599947E0,2.119999975E-1,6.853600025E0
4.570003125E0,-3.930099964E0,1.169999968E-2,7.659199715E0
4.600000000E0,-1.716899991E0,6.409999728E-2,7.415899754E0
4.620001563E0,-8.869999647E-2,-8.458999991E-1,5.939399719E0
4.650000000E0,-1.560000032E-1,-2.414299965E0,2.960500002E0
4.670001563E0,-7.612999678E-1,-2.620599985E0,1.290699959E0
4.700000000E0,-1.025099993E0,-2.789499998E0,-7.824999690E-1
4.720003125E0,-1.215399981E0,-2.806299925E0,-9.159999490E-1
4.750000000E0,-3.076999784E-1,-2.918099880E0,-7.653999925E-1
4.770000000E0,7.346000075E-1,-3.280699968E0,-1.077299953E0
4.790000000E0,1.080999970E0,-3.134899855E0,-1.235199928E0
4.810000000E0,1.150599957E0,-3.535899878E0,-1.469699979E0
4.830000000E0,1.760299921E0,-3.848699808E0,-1.900399923E0
4.850000000E0,1.949999928E0,-3.225899935E0,-2.419499874E0
4.870000000E0,9.820999503E-1,-2.684000015E0,-2.630800009E0
4.890004688E0,-3.023000062E-1,-2.046700001E0,-2.583099842E0
4.920000000E0,-6.157000065E-1,-2.152899981E0,-3.553399801E0
4.940003125E0,-2.080000006E-2,-2.352999926E0,-3.906299829E0
4.970000000E0,5.971999764E-1,-3.539199829E0,-4.728600025E0
4.990001563E0,-8.039999753E-2,-3.613699913E0,-4.828099728E0
5.020004688E0,-1.816799998E0,-3.409199953E0,-4.307600021E0
5.040007813E0,-1.872900009E0,-3.640599966E0,-4.253999710E0
5.070000000E0,-1.250499964E0,-4.231800079E0,-5.195699692E0
5.090006250E0,-9.169999957E-1,-4.318900108E0,-4.932799816E0
5.120000000E0,-1.032999992E0,-2.363699913E0,-3.940699816E0
5.140003125E0,-1.835799932E0,-9.796999693E-1,-3.596699953E0
5.170031250E0,-1.039099932E0,9.747999907E-1,-2.821199894E0
5.200000000E0,-2.065199852E0,1.293900013E0,-2.198799849E0
5.220000000E0,-3.645699978E0,1.347899914E0,-4.889999926E-1
5.240007813E0,-4.011699677E0,1.161100030E0,1.175499916E0
5.270000000E0,-2.824800014E0,-1.556999981E-1,2.833999872E0
5.290004688E0,-1.108299971E0,-9.721999764E-1,3.130899906E0
5.320000000E0,1.272300005E0,-9.465000033E-1,2.204599857E0
5.340000000E0,1.941699982E0,-5.816000104E-1,1.315299988E0
5.360000000E0,2.068099976E0,-1.174999997E-1,9.926999807E-1
5.380000000E0,2.074599981E0,2.462999970E-1,4.178999960E-1
5.400003125E0,2.255199909E0,2.662000060E-1,-6.444000006E-1
5.420010938E0,2.649799824E0,1.368999928E-1,-1.498899937E0
5.450010938E0,2.917299986E0,-9.600000083E-2,-1.963499904E0
5.480000000E0,2.870699883E0,-5.418999791E-1,-1.648999929E0
5.500004688E0,2.667199850E0,-3.589999974E-1,-8.848999739E-1
5.530000000E0,1.267599940E0,1.595999897E-1,8.640999794E-1
5.550007813E0,-4.957000017E-1,1.691000015E-1,2.830600023E0
5.580000000E0,-2.545300007E0,3.057999909E-1,5.517699718E0
5.600006250E0,-3.526700020E0,2.465999871E-1,7.131599903E0
5.630000000E0,-3.975399971E0,-1.806999892E-1,8.584300041E0
5.650003125E0,-3.693599939E0,-5.882999897E-1,8.296400070E0
5.680000000E0,-3.485999823E0,-1.258099914E0,7.173099995E0
5.700003125E0,-2.079699993E0,-1.265100002E0,6.189300060E0
5.730000000E0,-2.025000006E-1,-7.983999848E-1,4.054399967E0
5.750009375E0,-3.211999834E-1,-1.001600027E0,2.079599857E0
5.780000000E0,-1.518099904E0,-1.814999938E0,-7.152000070E-1
5.800006250E0,-1.698599935E0,-2.639400005E0,-2.194599867E0
5.830004688E0,-1.719200015E0,-2.513099909E0,-2.138499975E0
5.850009375E0,-1.622799993E0,-1.928599954E0,-1.889599919E0
5.880000000E0,-1.133999974E-1,-1.934999943E0,-3.532099962E0
5.900000000E0,1.123499990E0,-2.241499901E0,-3.425699949E0
5.920000000E0,1.436999917E0,-2.240299940E0,-2.835599899E0
5.940001563E0,1.095199943E0,-2.031599998E0,-2.748999834E0
5.960003125E0,6.524999738E-1,-2.022799969E0,-2.984200001E0
5.990000000E0,1.299000025E0,-2.269399881E0,-4.301199913E0
6.010009375E0,7.240999937E-1,-1.970299959E0,-4.662300110E0
6.040000000E0,1.500000013E-3,-1.606799960E0,-5.266699791E0
6.060004688E0,6.297000051E-1,-2.057899952E0,-6.092400074E0
6.090000000E0,5.406999588E-1,-2.468899965E0,-5.695699692E0
6.110000000E0,-1.787699938E0,-1.263800025E0,-3.776199818E0
6.130000000E0,-3.086099863E0,-3.867000043E-1,-2.687299967E0
6.150000000E0,-2.192800045E0,-3.549999893E-1,-3.556799889E0
6.170000000E0,-1.586899996E0,-4.161999822E-1,-4.331200123E0
6.190000000E0,-2.267799854E0,-6.211999655E-1,-4.350199699E0
6.210000000E0,-2.902999878E0,-8.592000008E-1,-4.046299934E0
6.230000000E0,-2.834199905E0,-8.531999588E-1,-3.389999866E0
6.250000000E0,-3.141000032E0,-4.255999923E-1,-2.461199999E0
6.270000000E0,-3.712699890E0,4.461999834E-1,-1.029099941E0
6.290000000E0,-3.647899866E0,1.444700003E0,2.122999877E-1
6.310000000E0,-3.424399853E0,1.368699908E0,7.620999813E-1
6.330000000E0,-2.997200012E0,2.335999906E-1,2.003799915E0
6.350006250E0,-2.020400047E0,-6.270999908E-1,3.183099985E0
6.380000000E0,-9.031999707E-1,-1.884899974E0,3.346699953E0
6.400000000E0,6.517999768E-1,-1.712499976E0,2.370399952E0
6.420000000E0,1.645900011E0,-1.580799937E0,1.311499953E0
6.440001563E0,2.154799938E0,-1.257399917E0,6.721000075E-1
6.470000000E0,2.381299973E0,-9.864999652E-1,-9.470000118E-2
6.490000000E0,2.242199898E0,-1.115199924E0,-8.089999557E-1
6.510000000E0,2.187000036E0,-1.119300008E0,-1.116699934E0
6.530000000E0,2.481600046E0,-8.837999701E-1,-1.220000029E0
6.550000000E0,2.554499865E0,-1.157899976E0,-1.463400006E0
6.570000000E0,2.583199978E0,-1.766600013E0,-1.421100020E0
6.590000000E0,2.812399864E0,-1.915599942E0,-1.588299990E0
6.610000000E0,2.620199919E0,-1.464599967E0,-1.342800021E0
6.630000000E0,2.238699913E0,-6.703000069E-1,-4.974999726E-1
6.650000000E0,1.354900002E0,-6.819999963E-2,3.024999797E-1
6.670000000E0,8.029999584E-2,5.834999681E-1,1.388299942E0
6.690000000E0,-1.436200023E0,9.343999624E-1,2.574800014E0
6.710000000E0,-2.975699902E0,1.197700024E0,3.593699932E0
6.730000000E0,-4.283299923E0,1.136899948E0,4.908999920E0
6.750000000E0,-4.670199871E0,8.843999505E-1,6.349400043E0
6.770000000E0,-4.063099861E0,4.921000004E-1,7.421499729E0
6.790000000E0,-3.142599821E0,1.168999970E-1,7.775399685E0
6.810000000E0,-2.702100039E0,-8.429999650E-2,8.082300186E0
6.830000000E0,-1.988399982E0,1.977999955E-1,7.787199974E0
6.850000000E0,-8.861999512E-1,2.572999895E-1,6.733500004E0
6.870000000E0,-5.539000034E-1,-5.995999575E-1,5.273999691E0
6.890000000E0,-7.156999707E-1,-1.675999999E0,3.542599916E0
6.910000000E0,-1.107599974E0,-2.474999905E0,2.023799896E0
6.930000000E0,-1.158499956E0,-2.821799994E0,8.396999836E-1
6.950000000E0,-1.203699946E0,-2.685400009E0,-9.250000119E-2
6.970000000E0,-1.425199986E0,-2.314699888E0,-5.482999682E-1
6.990000000E0,-1.104399920E0,-2.013000011E0,-1.109300017E0
7.010010938E0,-1.140999943E-1,-2.003799915E0,-1.998299956E0
7.040000000E0,1.620099902E0,-2.367199898E0,-2.804999828E0
7.060001563E0,1.953099966E0,-2.395099878E0,-3.090399981E0
7.090000000E0,1.079499960E0,-2.185799837E0,-2.972699881E0
7.110000000E0,6.751999855E-1,-2.148900032E0,-3.224399805E0
7.130000000E0,6.326999664E-1,-2.356999874E0,-3.676699877E0
7.150000000E0,5.561999679E-1,-2.455699921E0,-4.042299747E0
7.170000000E0,-3.579999879E-2,-2.443799973E0,-4.084899902E0
7.190000000E0,-4.242999852E-1,-2.476099968E0,-4.119199753E0
7.210000000E0,-3.586999774E-1,-2.745299816E0,-4.754199982E0
7.230000000E0,-8.104000092E-1,-2.981199980E0,-5.514999866E0
7.250000000E0,-1.561800003E0,-3.082399845E0,-5.215699673E0
7.270000000E0,-1.966399908E0,-3.030599833E0,-4.527299881E0
7.290000000E0,-1.849399924E0,-3.121500015E0,-4.321599960E0
7.310004688E0,-2.119099855E0,-2.970999956E0,-4.621999741E0
7.340000000E0,-2.947899818E0,-1.995700002E0,-4.545300007E0
7.360000000E0,-2.775399923E0,-9.951999784E-1,-4.267699718E0
7.380039063E0,-2.049799919E0,6.119999662E-2,-3.353699923E0
7.410000000E0,-1.118899941E0,1.744199991E0,-1.503000021E0
7.430004688E0,-1.250299931E0,2.066999912E0,-8.075999618E-1
7.460000000E0,-1.807099938E0,1.813099980E0,7.260000110E-1
7.480000000E0,-2.407299995E0,1.147499919E0,1.620599985E0
7.500000000E0,-2.664199829E0,4.851999879E-1,2.580399990E0
7.520000000E0,-1.859099984E0,3.253999949E-1,2.784799814E0
7.540000000E0,-4.083999991E-1,6.844999790E-1,1.761899948E0
7.560000000E0,1.005499959E0,1.055400014E0,5.529999733E-1
7.580000000E0,1.885199904E0,1.211199999E0,6.449999660E-2
7.600000000E0,2.553400040E0,7.299000025E-1,3.049999848E-2
7.620018750E0,3.034899950E0,4.199999850E-3,-5.499999970E-2
7.650000000E0,2.694700003E0,-6.330999732E-1,-2.809000015E-1
7.670000000E0,2.162799835E0,-9.979999661E-1,-5.982999802E-1
7.690000000E0,1.751899958E0,-1.382300019E0,-8.140999675E-1
7.710000000E0,1.523800015E0,-1.688499928E0,-6.527000070E-1
7.730000000E0,1.370700002E0,-1.762099981E0,1.826999933E-1
7.750000000E0,1.375599980E0,-1.535300016E0,1.419399977E0
7.770000000E0,1.149899960E0,-9.646999836E-1,1.952799916E0
7.790000000E0,1.353999972E-1,-2.583000064E-1,2.330600023E0
7.810000000E0,-1.530900002E0,4.082999825E-1,3.151299953E0
7.830000000E0,-2.868899822E0,3.249999881E-2,4.494899750E0
7.850000000E0,-3.179100037E0,-6.671999693E-1,5.524799824E0
7.870000000E0,-3.077999830E0,-8.438999653E-1,6.372699738E0
7.890000000E0,-3.089299917E0,-1.148399949E0,6.684199810E0
7.910000000E0,-3.495499849E0,-1.141399980E0,7.372200012E0
7.930004688E0,-3.046599865E0,-1.861999929E-1,8.131799698E0
7.960000000E0,-9.660999775E-1,3.048000038E-1,7.630300045E0
7.980004688E0,-1.832999885E-1,-8.479999900E-1,5.703199863E0
8.010000000E0,-8.589999676E-1,-2.073699951E0,2.995299816E0
8.030009375E0,-1.888099909E0,-2.182399988E0,1.372999907E0
8.060000000E0,-2.842599869E0,-2.277899981E0,-1.291700006E0
8.080010938E0,-2.566900015E0,-2.133100033E0,-2.444499969E0
8.110000000E0,-1.982699990E0,-2.382499933E0,-2.119600058E0
8.130007813E0,-1.000699997E0,-2.523399830E0,-1.659299970E0
8.160000000E0,3.384999931E-1,-2.634899855E0,-2.713299990E0
8.180004688E0,6.161999702E-1,-2.644700050E0,-3.962899923E0
8.210000000E0,5.853999853E-1,-2.385999918E0,-5.021100044E0
8.230007813E0,7.511000037E-1,-2.606099844E0,-5.792099953E0
8.260000000E0,1.504299998E0,-3.102299929E0,-6.121500015E0
8.280009375E0,1.758099914E0,-3.313199997E0,-6.163899899E0
8.310000000E0,1.728399992E0,-3.225600004E0,-6.845399857E0
8.330000000E0,1.214699984E0,-3.114499807E0,-6.933099747E0
8.350000000E0,4.129000008E-1,-3.262300014E0,-6.738599777E0
8.370000000E0,-8.405999541E-1,-3.599900007E0,-6.470799923E0
8.390000000E0,-2.063199997E0,-3.591099977E0,-5.987799644E0
8.410000000E0,-3.432299852E0,-3.097899914E0,-4.958699703E0
8.430003125E0,-4.885900021E0,-3.053699970E0,-3.974699974E0
8.460000000E0,-5.808199883E0,-2.906299829E0,-2.285599947E0
8.480007813E0,-5.214699745E0,-1.504999995E0,-5.020999908E-1
8.510000000E0,-3.046799898E0,9.261999726E-1,1.059599996E0
8.530000000E0,-1.223899961E0,1.719099998E0,1.347000003E0
8.550000000E0,-7.979999483E-2,1.562999964E0,1.433499932E0
8.570000000E0,4.138999879E-1,1.570999980E0,2.085599899E0
8.590006250E0,-2.746999860E-1,1.581099987E0,2.870999813E0
8.620004688E0,-2.151900053E0,1.191399932E0,3.566099882E0
8.640010938E0,-2.149399996E0,8.998000026E-1,3.417799950E0
8.670000000E0,9.409999847E-2,1.568999887E-1,2.633699894E0
8.690009375E0,1.565299988E0,9.869999439E-2,1.837199926E0
8.720000000E0,2.290999889E0,2.459999919E-1,1.243999958E0
8.740000000E0,2.256000042E0,1.323999912E-1,1.404500008E0
8.760000000E0,2.100699902E0,1.533999890E-1,1.484300017E0
8.780000000E0,2.853299856E0,6.111999750E-1,8.962000012E-1
8.800000000E0,3.024399996E0,7.389999628E-1,1.968999952E-1
8.820004688E0,-6.072999835E-1,-2.543999910E0,-1.525999904E0
8.840004688E0,-6.419999599E-1,-1.775499940E0,1.048999950E-1
8.870000000E0,7.509999722E-2,2.044199944E0,1.193599939E0
8.890003125E0,-3.695999980E-1,3.581099987E0,1.835299969E0
8.920000000E0,-1.452700019E0,2.734299898E0,5.698999763E-1
8.940015625E0,-2.831199884E0,1.265999913E0,1.404099941E0
8.970000000E0,-4.020800114E0,1.366000026E-1,3.963299990E0
8.990007813E0,-3.154099941E0,-5.399999674E-3,4.256899834E0
9.020025000E0,-1.981399894E0,4.881999791E-1,4.088299751E0
9.050000000E0,-7.500000000E-1,8.680999875E-1,3.228799820E0
9.070000000E0,-4.677999914E-1,-1.527999938E-1,2.358399868E0
9.090000000E0,-1.096899986E0,-1.107200027E0,1.711799979E0
9.110000000E0,-2.257499933E0,-1.839499950E0,1.856999993E0
9.130000000E0,-2.655400038E0,-1.701099992E0,1.841099977E0
9.150001563E0,-2.072399855E0,-1.622200012E0,1.713599920E0
9.180000000E0,-7.679999620E-2,-1.730599999E0,1.396799922E0
9.200001563E0,1.396600008E0,-1.891599894E0,1.190400004E0
9.220001563E0,2.806299925E0,-1.953599930E0,7.903999686E-1
9.250006250E0,3.349799871E0,-1.821799994E0,-1.542000026E-1
9.280000000E0,2.770699978E0,-2.038499832E0,-1.328599930E0
9.300003125E0,2.521600008E0,-2.342799902E0,-1.896199942E0
9.330000000E0,2.597599983E0,-2.352499962E0,-3.056999922E0
9.350003125E0,2.208400011E0,-2.186499834E0,-4.210199833E0
9.380000000E0,1.120499969E0,-3.750999868E-1,-5.338599682E0
9.400007813E0,-5.690999627E-1,-1.922999918E-1,-6.232999802E0
9.420028125E0,-5.184000134E-1,-1.989899993E0,-7.226199627E0
9.450006250E0,2.944999933E-1,-6.436399937E0,-6.457499981E0
9.480000000E0,1.657999903E-1,-7.196699619E0,-3.017299891E0
9.500001563E0,-5.882999897E-1,-6.232399940E0,-1.439000010E0
9.530000000E0,-2.025399923E0,-4.443500042E0,-5.370000005E-1
9.550003125E0,-2.221299887E0,-3.358500004E0,2.547000051E-1
9.580000000E0,-2.754099846E0,-8.536999822E-1,5.830000043E-1
9.600006250E0,-3.718499899E0,3.682000041E-1,7.853999734E-1
9.630000000E0,-4.417099953E0,2.467099905E0,2.791800022E0
9.650010938E0,-4.987400055E0,3.613999844E0,3.952299833E0
9.680000000E0,-2.596400023E0,3.422199965E0,3.431099892E0
9.700000000E0,2.279999852E-2,2.527999878E0,1.912199974E0
9.720000000E0,1.390299916E0,1.872599959E0,6.302999854E-1
9.740000000E0,1.956699967E0,1.159999967E0,-7.646999955E-1
9.760010938E0,2.695400000E0,4.293999970E-1,-1.856799960E0
9.790000000E0,2.793900013E0,2.052000016E-1,-3.507200003E0
9.810010938E0,2.174099922E0,-7.710000128E-2,-4.083099842E0
9.840000000E0,9.914000034E-1,-1.375000030E-1,-3.181599855E0
9.860001563E0,1.125499964E0,2.334999889E-1,-2.687299967E0
9.890000000E0,1.213899970E0,-6.329999864E-2,-1.493899941E0
9.910009375E0,1.082399964E0,-2.917000055E-1,-1.015399933E0
9.940000000E0,-3.481999934E-1,-1.288900018E0,-1.026999950E-1
9.960000000E0,-1.576499939E0,-1.474200010E0,6.833999753E-1
9.980000000E0,-2.256599903E0,-1.676299930E0,1.695599914E0
1.000000000E1,-2.000099897E0,-2.224799871E0,1.917999983E0
1.002000781E1,-1.636899948E0,-2.090299845E0,1.778699994E0
1.005000000E1,-1.940999985E0,-1.521299958E0,4.384999871E-1
1.007000000E1,-2.008499861E0,-1.094399929E0,1.497000009E-1
1.009000000E1,-1.450099945E0,3.500999808E-1,7.724999785E-1
1.011000000E1,-1.160799980E0,1.552399993E0,1.312399983E0
1.013000000E1,-1.057699919E0,1.445899963E0,2.004999876E0
1.015000000E1,-1.040599942E0,6.157999635E-1,2.753399849E0
1.017000469E1,-1.022400022E0,-2.176999897E-1,3.166199923E0
1.020000000E1,-1.699999928E0,9.499999881E-2,2.460099936E0
1.022000938E1,-2.479399920E0,1.900999993E-1,2.263099909E0
1.025000000E1,-1.149399996E0,5.952000022E-1,8.381999731E-1
1.027000000E1,1.185999960E-1,1.242999956E-1,-3.916999996E-1
1.029000000E1,2.026999950E0,-5.685999990E-1,-4.804999828E-1
1.031000000E1,3.404299974E0,-1.124899983E0,-6.273999810E-1
1.033000000E1,3.684000015E0,-1.646199942E0,-2.671999931E-1
1.035000000E1,3.450199842E0,-1.577199936E0,-4.574999809E-1
1.037000000E1,2.959300041E0,-1.663899899E0,-1.189499974E0
1.039000000E1,2.624099970E0,-1.539899945E0,-1.604499936E0
1.041000000E1,2.592700005E0,-1.663999915E0,-1.724799991E0
1.043000000E1,2.552000046E0,-2.076499939E0,-7.328000069E-1
1.045000000E1,2.757200003E0,-2.095499992E0,-1.422799945E0
1.047000000E1,2.601300001E0,-2.512500048E0,-1.506099939E0
1.049000000E1,1.956499934E0,-2.733899832E0,-1.413800001E0
1.051000000E1,3.801999986E-1,-2.923099995E0,-1.642099977E0
1.053000000E1,-1.924899936E0,-2.857499838E0,-1.482999921E0
1.055000000E1,-3.619599819E0,-2.387799978E0,-8.351999521E-1
1.057000000E1,-4.065000057E0,-2.013099909E0,-2.901999950E-1
1.059000000E1,-4.128499985E0,-1.774299979E0,7.042999864E-1
1.061000781E1,-3.324100018E0,-1.129400015E0,9.314999580E-1
1.064000000E1,-9.990999699E-1,-6.112999916E-1,-3.006999791E-1
1.066000156E1,8.848999739E-1,3.849000037E-1,-5.731999874E-1
1.068000625E1,1.832499981E0,1.204599977E0,-9.041999578E-1
1.071000000E1,1.039299965E0,1.892499924E0,-7.576999664E-1
1.073001250E1,6.251999736E-1,1.814999938E0,-2.100999951E-1
1.076000000E1,6.989999861E-2,5.686999559E-1,-5.249999836E-2
1.078000000E1,2.119999938E-2,2.168999910E-1,6.482999921E-1
1.080000000E1,7.206999660E-1,3.574000001E-1,1.368199944E0
1.082000000E1,1.396299958E0,4.027999938E-1,1.956299901E0
1.084001094E1,1.677699924E0,2.242999971E-1,2.166499853E0
1.087000000E1,1.480599999E0,1.888999939E-1,2.388999939E0
1.089002812E1,1.423399925E0,3.185999990E-1,2.146999836E0
1.092000000E1,1.420899987E0,-1.323999912E-1,9.361999631E-1
1.094001094E1,1.433599949E0,-1.771999896E-1,2.532999814E-1
1.097000000E1,1.556199908E0,1.202999949E-1,-1.935999990E-1
1.099000156E1,1.713400006E0,7.216999531E-1,-1.488000005E-1
1.102000000E1,1.096699953E0,1.110999942E0,-3.939999938E-1
1.104000156E1,-1.994999945E-1,8.328999877E-1,-7.565999627E-1
1.107000000E1,-2.903599977E0,6.159999967E-1,-7.863999605E-1
1.109000625E1,-4.081699848E0,1.190500021E0,6.129999831E-2
1.111000781E1,-5.001599789E0,1.237499952E0,6.110000014E-1
1.114000156E1,-5.035099983E0,5.740999579E-1,9.577999711E-1
1.117000000E1,-5.047599792E0,-5.601999760E-1,8.183000088E-1
1.119000000E1,-4.081999779E0,1.806000024E-1,1.496099949E0
1.121000000E1,-1.993599892E0,9.126999974E-1,1.555400014E0
1.123000000E1,-4.803999960E-1,1.472000033E-1,1.404500008E0
1.125000000E1,-1.248999983E-1,-1.024399996E0,1.256299973E0
1.127000000E1,2.569999918E-2,-1.379199982E0,7.925999761E-1
1.129000156E1,-6.839999557E-2,-1.329100013E0,3.818999827E-1
1.132000000E1,-1.506000012E-1,-8.051999807E-1,-1.171000004E-1
1.134000000E1,2.099999934E-1,-7.531999946E-1,-1.233999953E-1
1.136000000E1,6.613000035E-1,-9.074999690E-1,-1.757999957E-1
1.138000000E1,1.419299960E0,-9.411999583E-1,-9.444999695E-1
1.140000469E1,2.304600000E0,-9.894999862E-1,-1.486899972E0
1.143000000E1,2.543699980E0,-1.483199954E0,-1.288900018E0
1.145000469E1,2.878599882E0,-1.943699956E0,-7.978999615E-1
1.148000000E1,2.914499998E0,-2.349499941E0,-6.990000010E-1
1.150000625E1,3.031999826E0,-2.627899885E0,-8.675999641E-1
1.153000000E1,2.529500008E0,-2.522500038E0,-1.054799914E0
1.155000312E1,1.852899909E0,-2.185400009E0,-1.216099977E0
1.158000000E1,6.125999689E-1,-2.367199898E0,-4.494999945E-1
1.160000469E1,5.213999748E-1,-2.640599966E0,3.983999789E-1
1.163000000E1,3.179000020E-1,-3.874399900E0,8.761000037E-1
1.165000781E1,5.238999724E-1,-4.958899975E0,7.130999565E-1
1.168000000E1,-3.269000053E-1,-5.437500000E0,-1.406999975E-1
1.170000312E1,-1.594399929E0,-4.524799824E0,-1.239099979E0
1.173000000E1,-1.816999912E0,-2.990499973E0,-2.188999891E0
1.175000625E1,-5.480999947E-1,-1.684999943E0,-1.149299979E0
1.178000938E1,4.444999993E-1,3.140999973E-1,2.637999952E-1
1.181000000E1,3.329999745E-2,1.475399971E0,3.849999905E-1
1.183000000E1,-4.649999738E-2,1.651699901E0,3.723999858E-1
1.185000938E1,-3.269000053E-1,1.665499926E0,6.495000124E-1
1.188000000E1,-8.977999687E-1,2.086699963E0,4.271999896E-1
1.190001719E1,-3.586999774E-1,2.484599829E0,2.308999896E-1
1.193000000E1,4.639999866E-1,2.596199989E0,-1.295000017E-1
1.195000000E1,5.421000123E-1,2.596999884E0,0.000000000E0
1.197000000E1,2.863999903E-1,2.396600008E0,4.324999750E-1
1.199000000E1,2.784000039E-1,2.177999973E0,9.986999631E-1
1.201000938E1,1.479000002E-1,1.854799986E0,1.313899994E0
1.204000000E1,3.552999794E-1,1.516099930E0,1.768599987E0
1.206000000E1,5.931000113E-1,1.384099960E0,2.118499994E0
1.208000000E1,6.837999821E-1,1.232999921E0,2.453899860E0
1.210000000E1,9.629999995E-1,1.312399983E0,2.645900011E0
1.212000000E1,8.197999597E-1,1.066299915E0,2.235699892E0
1.214000000E1,4.433999956E-1,7.458999753E-1,1.686399937E0
1.216001094E1,-5.040000007E-2,7.348999977E-1,1.220199943E0
1.219000000E1,-1.723299980E0,4.948000014E-1,1.217899919E0
1.221000469E1,-2.519599915E0,4.083999991E-1,1.311200023E0
1.224000000E1,-4.006000042E0,-8.531999588E-1,1.344599962E0
1.226000625E1,-4.633999825E0,-1.899999976E0,1.386600018E0
1.229000000E1,-3.974699974E0,-1.986299992E0,1.793799996E0
1.231000781E1,-2.000299931E0,-4.370999932E-1,1.799499989E0
1.234000000E1,-4.894999862E-1,7.220000029E-2,1.436999917E0
1.236000000E1,-3.369999826E-1,-8.434000015E-1,1.103699923E0
1.238000000E1,-3.350000083E-2,-1.320500016E0,4.271999896E-1
1.240000000E1,6.709999591E-2,-1.700500011E0,1.105000004E-1
1.242000156E1,-2.286999971E-1,-1.688099980E0,-3.941999972E-1
1.245000000E1,-6.266999841E-1,-1.316200018E0,-2.278999984E-1
1.247000000E1,-4.530999959E-1,-1.377799988E0,-4.669999704E-2
1.249000000E1,3.467999995E-1,-2.018599987E0,-1.083999947E-1
1.251000000E1,1.206399918E0,-2.258800030E0,-2.128999978E-1
1.253000000E1,2.119899988E0,-2.746799946E0,-9.240999818E-1
1.255000000E1,3.784699917E0,-3.583899975E0,-2.067499876E0
1.257000938E1,5.101500034E0,-3.907299995E0,-3.391999960E0
1.260000000E1,4.789099693E0,-3.550599813E0,-5.701099873E0
1.262002188E1,3.614199877E0,-3.281899929E0,-6.294899940E0
1.265000000E1,1.620499969E0,-3.466300011E0,-5.210299969E0
1.267000625E1,7.621999979E-1,-3.235899925E0,-4.512300014E0
1.270000000E1,3.217999935E-1,-3.464099884E0,-3.485699892E0
1.272000938E1,2.597000003E-1,-4.273900032E0,-3.127699852E0
1.275000000E1,-1.284600019E0,-6.718400002E0,-2.964099884E0
1.277001563E1,-1.788499951E0,-7.151000023E0,-2.382999897E0
1.280000000E1,-1.281299949E0,-4.082099915E0,-1.709599972E0
1.282000469E1,-1.312199950E0,-1.053399920E0,-1.163599968E0
1.285000000E1,-3.204399824E0,2.509199858E0,-6.886000037E-1
1.287000625E1,-4.460700035E0,3.193399906E0,1.347000003E-1
1.290001562E1,-4.896399975E0,2.478499889E0,1.790899992E0
1.293000000E1,-4.456099987E0,2.184900045E0,3.510900021E0
1.295000000E1,-2.885299921E0,3.019299984E0,3.943499804E0
1.297000781E1,-1.045099974E0,3.437199831E0,3.094899893E0
1.300000000E1,8.376999497E-1,3.189100027E0,2.099699974E0
1.302000781E1,1.279500008E0,2.662499905E0,1.470099926E0
1.305000156E1,1.993299961E0,2.017600060E0,7.489999533E-1
1.308000000E1,1.920799971E0,1.130800009E0,3.652999997E-1
1.310000000E1,1.854200006E0,5.783999562E-1,3.459999859E-1
1.312000000E1,1.501999974E0,2.595999837E-1,4.013999999E-1
1.314000000E1,2.859999835E-1,7.599999905E-1,5.618000031E-1
1.316000000E1,-1.195400000E0,1.964999914E0,8.295999765E-1
1.318000469E1,-2.639400005E0,2.479199886E0,1.008000016E0
1.321000000E1,-5.904399872E0,3.088999987E-1,1.610700011E0
1.323000469E1,-6.591699600E0,-5.511000156E-1,2.768100023E0
1.325000469E1,-6.190099716E0,5.040000007E-2,2.725299835E0
1.328000938E1,-4.999000072E0,1.736400008E0,3.400300026E0
1.331000000E1,-2.242300034E0,2.775699854E0,4.133199692E0
1.333000313E1,-1.861400008E0,1.633000016E0,3.554699898E0
1.336000000E1,-1.319999933E0,-5.700000003E-2,1.975600004E0
1.338000312E1,-1.129899979E0,-1.018000007E0,7.423999906E-1
1.341000000E1,7.869999856E-2,-2.206799984E0,-1.242999956E-1
1.343000625E1,1.287599921E0,-2.264199972E0,1.088999957E-1
1.346000000E1,2.170699835E0,-1.924499989E0,3.809999824E-1
1.348000781E1,2.005300045E0,-1.879199982E0,1.306999922E-1
1.351000000E1,1.882399917E0,-2.591500044E0,-8.509999514E-2
1.353000469E1,1.961499929E0,-3.043399811E0,-8.469999582E-2
1.356000000E1,1.748899937E0,-4.036399841E0,-2.032999992E-1
1.358000000E1,1.768000007E0,-4.402899742E0,-1.907999963E-1
1.360000000E1,2.013499975E0,-4.708399773E0,-8.337999582E-1
1.362000000E1,2.513200045E0,-5.120699883E0,-1.769599915E0
1.364000000E1,2.966899872E0,-5.449599743E0,-2.327199936E0
1.366000000E1,3.380599976E0,-5.302299976E0,-2.923499823E0
1.368000000E1,3.139999866E0,-5.017299652E0,-3.659600019E0
1.370000000E1,2.062900066E0,-4.299699783E0,-4.523600101E0
1.372000000E1,1.392300010E0,-3.402199984E0,-5.163899899E0
1.374000625E1,9.870999455E-1,-3.183499813E0,-6.404900074E0
1.377000000E1,6.782000065E-1,-6.615699768E0,-6.189499855E0
1.379000312E1,-5.730000138E-1,-1.069829941E1,-4.339699745E0
1.381000625E1,-6.241999865E-1,-1.245059967E1,-1.568899989E0
1.384001094E1,2.951000035E-1,-8.142000198E0,-2.490999997E-1
1.386001562E1,-1.313799977E0,-5.097799778E0,-1.463000029E-1
1.389000469E1,-3.994299889E0,-1.641899943E0,-4.157999754E-1
1.392000000E1,-5.800799847E0,9.420999885E-1,-1.465999931E-1
1.394000625E1,-6.544600010E0,2.311599970E0,3.902999759E-1
1.397000000E1,-5.808300018E0,3.794699907E0,3.022099972E0
1.399000469E1,-3.848199844E0,4.179899693E0,4.767899990E0
1.402000000E1,-6.850000024E-1,3.379899979E0,4.318399906E0
1.404000938E1,1.876999885E-1,2.850100040E0,3.236399889E0
1.407000000E1,2.852999866E-1,1.607100010E0,1.296700001E0
1.409000625E1,3.513999879E-1,1.057399988E0,6.557999849E-1
1.412000938E1,8.141999841E-1,3.091000021E-1,1.133299947E0
1.415000000E1,1.384000033E-1,8.133999705E-1,1.875399947E0
1.417000000E1,-9.449999928E-1,2.161399841E0,2.054699898E0
1.419000625E1,-2.231400013E0,3.677799940E0,2.077100039E0
1.422000313E1,-4.404999733E0,5.738399982E0,2.564399958E0
1.425000156E1,-5.764699936E0,5.843100071E0,3.787699938E0
1.428000000E1,-7.342599869E0,4.123799801E0,4.648799896E0
1.430000469E1,-9.037199974E0,2.159800053E0,4.954400063E0
1.433000000E1,-8.871699333E0,7.232999802E-1,5.858399868E0
1.435000156E1,-5.820699692E0,1.922499895E0,4.901799679E0
1.438000000E1,-3.021600008E0,9.344999790E-1,2.943500042E0
1.440000781E1,-2.625200033E0,-1.268800020E0,2.360499859E0
1.443000000E1,-1.979999900E0,-4.177700043E0,1.650999904E0
1.445000625E1,-1.246599913E0,-5.152199745E0,7.354999781E-1
1.447001250E1,-5.701999664E-1,-5.141599655E0,-1.595999897E-1
1.450001094E1,-3.154000044E-1,-4.174399853E0,-1.277699947E0
1.453000000E1,-1.940999925E-1,-3.038499832E0,-1.102100015E0
1.455000000E1,3.606999815E-1,-2.830899954E0,-6.466000080E-1
1.457000000E1,1.092700005E0,-3.095099926E0,-3.186999857E-1
1.459000000E1,1.450299978E0,-3.580799818E0,-3.123999834E-1
1.461000000E1,1.775900006E0,-3.931999922E0,-6.171999574E-1
1.463000000E1,2.009399891E0,-4.231299877E0,-1.116999984E0
1.465000469E1,2.339299917E0,-4.615099907E0,-1.546999931E0
1.468000000E1,2.537400007E0,-4.994199753E0,-1.797699928E0
1.470000781E1,2.803099871E0,-5.864299774E0,-2.464799881E0
1.473000000E1,3.944799900E0,-7.045499802E0,-2.860499859E0
1.475000313E1,4.311100006E0,-7.901199818E0,-3.086999893E0
1.478000000E1,3.584899902E0,-8.961199760E0,-3.482299805E0
1.480000000E1,2.852399826E0,-9.374799728E0,-3.385499954E0
1.482000469E1,1.087399960E0,-9.792300224E0,-2.806699991E0
1.484000625E1,-6.312999725E-1,-9.729399681E0,-2.721400023E0
1.487000000E1,-3.041699886E0,-8.438300133E0,-3.210299969E0
1.489000000E1,-3.621699810E0,-6.528999805E0,-3.120699883E0
1.491000469E1,-3.335699797E0,-4.082600117E0,-2.569299936E0
1.494000000E1,-3.866599798E0,-2.154799938E0,-1.325899959E0
1.496000156E1,-4.383899689E0,-1.194100022E0,1.244999990E-1
1.499000000E1,-4.902800083E0,2.280000001E-1,1.200600028E0
1.501000781E1,-4.610599995E0,1.367100000E0,1.231299996E0
1.504000000E1,-3.169799805E0,2.379999876E0,4.627999961E-1
1.506000781E1,-1.285899997E0,2.428599834E0,2.601999938E-1
1.509000000E1,7.579999566E-1,2.055500031E0,1.129999943E-2
1.511000625E1,1.218999982E0,1.459199905E0,1.709999889E-1
1.514000625E1,1.573699951E0,5.267999768E-1,5.241000056E-1
1.517000156E1,1.098099947E0,-3.799999831E-3,7.477999926E-1
1.520000000E1,6.989999861E-2,7.490999699E-1,7.899000049E-1
1.522001094E1,-7.856999636E-1,1.327899933E0,1.261600018E0
1.525000000E1,-1.702600002E0,2.432100058E0,2.398599863E0
1.527000000E1,-2.906199932E0,3.226599932E0,3.279099941E0
1.529000000E1,-4.470900059E0,4.037899971E0,4.072700024E0
1.531000625E1,-6.036499977E0,4.898699760E0,4.698899746E0
1.534000000E1,-7.850299835E0,5.780099869E0,5.809099674E0
1.536000938E1,-8.096699715E0,5.236999989E0,6.962299824E0
1.539000000E1,-7.893599987E0,2.686899900E0,7.273099899E0
1.541000000E1,-6.933899879E0,1.627299905E0,6.495100021E0
1.543000000E1,-5.038799763E0,1.566699982E0,5.225699902E0
1.545000000E1,-3.397099972E0,1.140200019E0,4.227200031E0
1.547000469E1,-2.621399879E0,-2.784999907E-1,3.485899925E0
1.550000000E1,-2.154999971E0,-2.571199894E0,1.895099998E0
1.552001094E1,-2.307299852E0,-3.468400002E0,1.019099951E0
1.555000000E1,-1.980599999E0,-3.295699835E0,-6.319999695E-2
1.557000156E1,-1.288599968E0,-2.875399828E0,-3.377999961E-1
1.560000000E1,-4.917999804E-1,-2.717900038E0,-1.586000025E-1
1.562000781E1,-6.229999661E-2,-2.672299862E0,-2.087000012E-1
1.565000000E1,4.310999811E-1,-3.033399820E0,-2.536000013E-1
1.567000000E1,6.237999797E-1,-3.774999857E0,-9.055999517E-1
1.569000000E1,1.078899980E0,-4.590600014E0,-1.248799920E0
1.571000000E1,2.247400045E0,-4.821599960E0,-1.266099930E0
1.573000000E1,3.041800022E0,-5.067299843E0,-9.986999631E-1
1.575000000E1,3.388299942E0,-5.371299744E0,-1.208099961E0
1.577000469E1,3.360999823E0,-5.780699730E0,-2.320999861E0
1.580000000E1,3.302599907E0,-6.422899723E0,-3.987199783E0
1.582001875E1,2.913300037E0,-6.853600025E0,-4.759399891E0
1.585000000E1,1.430199981E0,-6.687799931E0,-5.022799969E0
1.587000938E1,3.955000043E-1,-6.583799839E0,-3.687099934E0
1.590000000E1,-9.083999991E-1,-6.206199646E0,-1.665799975E0
1.592001250E1,-1.476199985E0,-5.777699947E0,-1.219299912E0
1.595000000E1,-1.951699972E0,-5.145499706E0,-1.768499970E0
1.597000000E1,-2.147599936E0,-4.572000027E0,-2.185099840E0
1.599000000E1,-2.086499929E0,-3.975299835E0,-1.922699928E0
1.601000000E1,-1.286800027E0,-3.205699921E0,-1.344499946E0
1.603000156E1,-6.259999871E-1,-1.963699937E0,-2.052000016E-1
1.606001719E1,-6.340000033E-1,2.016000003E-1,3.098999858E-1
1.609000000E1,-9.514999986E-1,1.068099976E0,2.599000037E-1
1.611000000E1,-1.216199994E0,6.481999755E-1,3.872999847E-1
1.613000469E1,-1.187799931E0,-5.869999900E-2,6.624999642E-1
1.616000000E1,-6.365000010E-1,-6.895999908E-1,1.145799994E0
1.618000313E1,-2.264999896E-1,-6.175000072E-1,1.190899968E0
1.621000000E1,2.597999871E-1,-2.025000006E-1,1.055400014E0
1.623000625E1,1.896999925E-1,2.090999931E-1,8.544999957E-1
1.626000000E1,3.229999915E-2,6.243000031E-1,5.296999812E-1
1.628000156E1,-2.809999883E-2,5.727999806E-1,6.071999669E-1
1.631001094E1,1.915999949E-1,7.980999947E-1,3.463999927E-1
1.634000156E1,5.425999761E-1,1.641799927E0,2.619999945E-1
1.637000000E1,4.036999941E-1,2.464299917E0,2.116999924E-1
1.639000000E1,3.393999934E-1,2.961299896E0,3.067999780E-1
1.641000000E1,-1.069999952E-2,3.329599857E0,6.631999612E-1
1.643000469E1,-9.093999863E-1,3.587199926E0,7.150999904E-1
1.646000000E1,-3.914099932E0,3.276700020E0,1.440400004E0
1.648000156E1,-5.029999733E0,3.557199955E0,1.690899968E0
1.651000000E1,-5.370100021E0,3.736799955E0,1.928499937E0
1.653000000E1,-5.674200058E0,2.638200045E0,1.804899931E0
1.655000000E1,-6.795300007E0,1.174999952E0,2.113299847E0
1.657000000E1,-6.910299778E0,1.249199986E0,2.983199835E0
1.659000313E1,-5.433199883E0,2.206699848E0,4.082399845E0
1.662000000E1,-1.846199989E0,1.723699927E0,4.520999908E0
1.664000000E1,-8.844999671E-1,1.656000018E-1,3.600399971E0
1.666000000E1,-1.831000000E-1,-1.218599916E0,3.189100027E0
1.668000000E1,-1.940999925E-1,-2.139600039E0,2.135799885E0
1.670000000E1,-4.028999805E-1,-2.521499872E0,1.516899943E0
1.672000000E1,-5.505999923E-1,-2.344399929E0,1.258799911E0
1.674001094E1,-5.751000047E-1,-1.622499943E0,1.233199954E0
1.677000000E1,-3.308999836E-1,-8.400999904E-1,1.371099949E0
1.679000469E1,2.586999834E-1,-9.171999693E-1,1.369499922E0
1.682000156E1,1.283900023E0,-1.627799988E0,1.097299933E0
1.685000000E1,2.217900038E0,-2.896999836E0,1.144999981E0
1.687000000E1,2.677299976E0,-3.533999920E0,1.245000005E0
1.689000156E1,2.794999838E0,-3.925599813E0,8.713999987E-1
1.692000000E1,1.632299900E0,-3.244499922E0,-2.137999982E-1
1.694000156E1,9.890999794E-1,-3.474799871E0,-1.729599953E0
1.697000000E1,1.660599947E0,-5.331999779E0,-2.470099926E0
1.699000469E1,2.335899830E0,-6.808300018E0,-2.003200054E0
1.702000000E1,2.011699915E0,-7.921599865E0,-6.255999804E-1
1.704000469E1,1.827099919E0,-7.585799694E0,5.922999978E-1
1.706000625E1,1.184800029E0,-7.261199951E0,1.105499983E0
1.709000000E1,5.399999674E-3,-7.260599613E0,5.544999838E-1
1.711000000E1,-2.970999777E-1,-6.940999985E0,-1.909999996E-1
1.713001094E1,-7.574999928E-1,-5.898499966E0,-6.963999867E-1
1.716000000E1,-9.265999794E-1,-2.907699823E0,-1.044899940E0
1.718000000E1,-1.374300003E0,-7.841999531E-1,-1.474799991E0
1.720000156E1,-1.842299938E0,9.614999890E-1,-2.418699980E0
1.722000156E1,-2.825099945E0,1.429600000E0,-2.710700035E0
1.725000156E1,-3.905299902E0,1.787999988E0,-1.750800014E0
1.728000000E1,-3.883399963E0,1.446900010E0,-6.473000050E-1
1.730000625E1,-2.338700056E0,7.383999825E-1,9.420000017E-2
1.733000000E1,4.571999907E-1,5.062000155E-1,-4.660999775E-1
1.735000938E1,1.497799993E0,6.014999747E-1,-1.425599933E0
1.738000000E1,1.736999989E0,7.125999928E-1,-2.416499853E0
1.740000156E1,1.913800001E0,7.953000069E-1,-2.565099955E0
1.743000000E1,1.568499923E0,5.823999643E-1,-1.226400018E0
1.745000313E1,1.264899969E0,7.735999823E-1,-3.601999879E-1
1.748000000E1,4.459999800E-1,1.813499928E0,1.750999987E-1
1.750000625E1,-3.470999897E-1,3.097199917E0,5.296999812E-1
1.753000000E1,-2.295399904E0,5.167500019E0,1.475199938E0
1.755000625E1,-3.791699886E0,5.512300014E0,2.437599897E0
1.758000000E1,-5.183599949E0,4.124700069E0,3.527400017E0
1.760000312E1,-5.671700001E0,2.689299822E0,3.792799950E0
1.763000000E1,-5.042399883E0,-2.405999899E-1,2.862399817E0
1.765000938E1,-4.143000126E0,-1.121299982E0,2.204099894E0
1.768000000E1,-2.320400000E0,-1.617399931E0,5.758999586E-1
1.770000000E1,-1.110199928E0,-1.559299946E0,3.418000042E-1
1.772000000E1,3.152000010E-1,-6.301999688E-1,7.660000026E-2
1.774000000E1,1.320099950E0,2.812999785E-1,-1.209999993E-2
1.776001250E1,1.261600018E0,5.805000067E-1,2.569999918E-2
1.779000000E1,6.182999611E-1,-6.849999726E-2,7.364999652E-1
1.781001406E1,7.180000097E-2,-6.818000078E-1,7.836999893E-1
1.784000000E1,-1.194100022E0,-1.338899970E0,1.155799985E0
1.786000781E1,-1.244499922E0,-1.270299911E0,1.228799939E0
1.789000000E1,-8.039999753E-2,-1.192199945E0,5.345000029E-1
1.791000938E1,7.272999883E-1,-1.255299926E0,1.181999967E-1
1.794000000E1,1.974099994E0,-1.596300006E0,-3.756999969E-1
1.796000781E1,2.643199921E0,-1.965399981E0,-6.412999630E-1
1.799000000E1,3.056699991E0,-2.330499887E0,-1.171399951E0
1.801000781E1,3.096699953E0,-2.470899820E0,-9.791999459E-1
1.804000000E1,2.744400024E0,-2.708699942E0,-4.561999738E-1
1.806000469E1,2.158299923E0,-2.738999844E0,-1.658999920E-1
1.809000000E1,1.663499951E0,-2.559999943E0,-3.539999947E-2
1.811001094E1,1.367100000E0,-2.747900009E0,9.189999849E-2
1.814000000E1,1.032899976E0,-3.034600019E0,2.863000035E-1
1.816001094E1,4.472000003E-1,-3.313699961E0,5.626999736E-1
1.819000000E1,-4.961999953E-1,-3.231499910E0,1.085399985E0
1.821000000E1,-1.763799906E0,-3.641299963E0,1.238199949E0
1.823000625E1,-2.705999851E0,-4.025799751E0,2.005800009E0
1.826000000E1,-2.852699995E0,-2.467099905E0,3.194599867E0
1.828000000E1,-1.781299949E0,-4.997999966E-1,2.675699949E0
1.830000000E1,-8.079999685E-1,6.266999841E-1,1.877099991E0
1.832000000E1,-2.906999886E-1,7.276999950E-1,7.793999910E-1
1.834000000E1,-5.066999793E-1,3.810999990E-1,-1.428999901E-1
1.836000000E1,-1.131299973E0,4.407999814E-1,-8.384999633E-1
1.838000000E1,-1.944700003E0,6.765999794E-1,-1.500800014E0
1.840000000E1,-2.711199999E0,9.573999643E-1,-1.959899902E0
1.842000625E1,-2.149600029E0,1.279199958E0,-2.158099890E0
1.845000000E1,-4.926999807E-1,1.506199956E0,-2.228999853E0
1.847000000E1,3.326999843E-1,1.810999990E0,-2.252399921E0
1.849000312E1,5.540999770E-1,1.983500004E0,-2.490499973E0
1.852000000E1,1.365700006E0,1.747099996E0,-1.940099955E0
1.854000000E1,1.586599946E0,1.052699924E0,-1.731899977E0
1.856000000E1,1.851300001E0,5.406999588E-1,-1.876599908E0
1.858000000E1,2.218799829E0,-2.569999918E-2,-2.080699921E0
1.860000000E1,2.210599899E0,-1.819999963E-1,-1.953999996E0
1.862002812E1,1.896999955E0,-2.889999934E-2,-1.722499967E0
1.865000000E1,1.477299929E0,-4.859999940E-2,-1.478899956E0
1.867000000E1,1.188799977E0,-1.935999990E-1,-1.389299989E0
1.869000000E1,5.970000029E-1,-4.068000019E-1,-1.440599918E0
1.871000000E1,-4.726999998E-1,-7.258999944E-1,-1.435699940E0
1.873000000E1,-1.531099916E0,-6.448000073E-1,-1.213799953E0
1.875000000E1,-2.786900043E0,-5.839999914E-1,-6.098999977E-1
1.877000469E1,-4.127500057E0,-3.680000007E-1,8.332999945E-1
1.880000000E1,-5.315499783E0,-2.373999953E-1,2.830299854E0
1.882000781E1,-4.862099648E0,-1.307999939E-1,3.925899982E0
1.885000000E1,-2.294999838E0,6.365000010E-1,4.900599957E0
1.887000000E1,-3.184999824E-1,5.604999661E-1,5.011699677E0
1.889001719E1,8.294000030E-1,-3.051999807E-1,4.446899891E0
1.892000000E1,1.523999929E0,-8.042999506E-1,3.540099859E0
1.894000000E1,8.780999780E-1,-5.381999612E-1,2.878599882E0
1.896000000E1,-1.421999931E-1,-3.123999834E-1,2.361500025E0
1.898000000E1,-6.317999959E-1,-2.412999868E-1,2.150300026E0
1.900000469E1,-4.903999865E-1,-3.576999903E-1,1.942499995E0
1.902000781E1,9.409999847E-2,-6.538000107E-1,1.761299968E0
1.905000000E1,1.176299930E0,-1.105899930E0,1.174299955E0
1.907000000E1,1.543099999E0,-1.465999961E0,7.210999727E-1
1.909000000E1,1.608299971E0,-1.899199963E0,2.292999923E-1
1.911000000E1,1.569899917E0,-2.373800039E0,-2.662000060E-1
1.913000000E1,1.342700005E0,-2.814199924E0,-6.140999794E-1
1.915000000E1,9.684000015E-1,-3.162599802E0,-8.069999814E-1
1.917000000E1,7.225999832E-1,-3.189699888E0,-9.839999676E-1
1.919000000E1,5.363999605E-1,-2.868799925E0,-1.147300005E0
1.921000000E1,2.619000077E-1,-2.533799887E0,-1.417299986E0
1.923000000E1,5.499999970E-2,-2.581399918E0,-1.399099946E0
1.925000156E1,3.218999803E-1,-2.758399963E0,-1.983299971E0
1.928000000E1,9.481999874E-1,-2.949199915E0,-2.514199972E0
1.930000000E1,1.224499941E0,-2.957499981E0,-2.410199881E0
1.932000000E1,3.380999863E-1,-3.076999903E0,-2.477399826E0
1.934000000E1,-1.589699984E0,-4.063300133E0,-3.111299992E0
1.936000156E1,-2.335599899E0,-4.823999882E0,-2.972800016E0
1.939000000E1,-2.906999886E-1,-4.433199883E0,-6.557999849E-1
1.941000313E1,7.117999792E-1,-3.654999971E0,-1.083999947E-1
1.944000000E1,9.159999490E-1,-2.279199839E0,-6.297000051E-1
1.946000156E1,7.583999634E-1,-1.336300015E0,-1.054399967E0
1.949000000E1,-1.058300018E0,-6.207999587E-1,-1.145099998E0
1.951001094E1,-2.122699976E0,-3.315999806E-1,-5.020999908E-1
1.954000000E1,-2.084100008E0,8.254999518E-1,2.658999860E-1
1.956000781E1,-8.387999535E-1,1.405399919E0,4.319999740E-2
1.959000000E1,6.897999644E-1,1.846199989E0,-1.200000010E-2
1.961000000E1,9.803999662E-1,2.135699987E0,3.707999885E-1
1.963000000E1,7.591999769E-1,2.348299980E0,7.269999981E-1
1.965000000E1,3.306999803E-1,2.437899828E0,1.261999965E0
1.967000000E1,-8.859999478E-2,2.480499983E0,1.798799992E0
1.969000000E1,-1.251000017E-1,2.355099916E0,1.887099981E0
1.971001094E1,-3.309999779E-2,2.322200060E0,1.888199925E0
1.974000000E1,-2.303999960E-1,2.622099876E0,2.316699982E0
1.976000312E1,-5.941999555E-1,2.793900013E0,2.490900040E0
1.979000000E1,-1.469299912E0,2.590999842E0,2.737200022E0
1.981000469E1,-1.945999980E0,2.250000000E0,3.106099844E0
1.984000000E1,-2.946899891E0,1.261999965E0,3.334499836E0
1.986000469E1,-3.510999918E0,5.212999582E-1,3.928900003E0
1.989000000E1,-4.182499886E0,-4.788999856E-1,4.504499912E0
1.991000000E1,-3.363499880E0,1.423999965E-1,5.280200005E0
1.993000000E1,-2.684200048E0,-2.228000015E-1,4.435800076E0
1.995000000E1,-1.827699900E0,-1.142799973E0,3.498899937E0
1.997000000E1,-1.253099918E0,-1.785699964E0,2.707900047E0
1.999000000E1,-9.422000051E-1,-2.305399895E0,2.211699963E0
2.001000000E1,-7.173999548E-1,-2.893800020E0,1.721399903E0
2.003000000E1,-2.067999989E-1,-3.263700008E0,1.340199947E0
2.005000000E1,3.793999851E-1,-3.289899826E0,6.815999746E-1
2.007000469E1,7.340999842E-1,-3.184799910E0,-9.039999545E-2
2.010000000E1,9.200999737E-1,-3.063299894E0,-1.150300026E0
2.012000625E1,9.986999631E-1,-3.259999990E0,-1.488299966E0
2.014000625E1,1.261399984E0,-3.598500013E0,-1.700299978E0
2.017000312E1,8.305999637E-1,-4.129300117E0,-1.918299913E0
2.020000000E1,1.456999928E-1,-4.629499912E0,-2.162299871E0
2.022001563E1,-3.175999820E-1,-4.749700069E0,-2.443399906E0
2.025000000E1,-2.511999905E-1,-4.539199829E0,-2.952999830E0
2.027001250E1,-3.352999985E-1,-4.662499905E0,-3.280799866E0
2.029001719E1,-3.726999760E-1,-4.756799698E0,-3.565299988E0
2.032000625E1,-3.995999992E-1,-4.267300129E0,-3.972999811E0
2.035000000E1,-7.971000075E-1,-4.958199978E0,-4.886799812E0
2.037000000E1,-1.164299965E0,-5.464499950E0,-5.263700008E0
2.039000000E1,-8.133999705E-1,-4.904399872E0,-5.041500092E0
2.041000000E1,-6.372999549E-1,-3.398799896E0,-4.501100063E0
2.043000000E1,-8.712999821E-1,-1.839299917E0,-3.907299995E0
2.045000000E1,-5.784999728E-1,-2.924000025E-1,-3.783299923E0
2.047000000E1,-7.400000095E-2,5.220999718E-1,-4.327899933E0
2.049000000E1,-3.234999776E-1,6.992999911E-1,-4.219099998E0
2.051000000E1,-1.143100023E0,1.010599971E0,-2.795199871E0
2.053000000E1,-2.032500029E0,1.212299943E0,-1.319000006E0
2.055000000E1,-2.837599993E0,9.357999563E-1,-1.605999917E-1
2.057000000E1,-3.167399883E0,6.019999981E-1,9.253000021E-1
2.059000000E1,-2.470399857E0,2.410999984E-1,1.078599930E0
2.061000000E1,-7.292999625E-1,9.359999746E-2,3.603999913E-1
2.063000781E1,4.120999873E-1,4.339999706E-2,-6.610000134E-2
2.066000000E1,1.235499978E0,-3.114999831E-1,1.720999926E-1
2.068000156E1,1.541399956E0,-6.477000117E-1,4.007000029E-1
2.071000000E1,1.949699998E0,-6.222999692E-1,6.427999735E-1
2.073000938E1,1.571499944E0,1.799999969E-3,9.175999761E-1
2.076000000E1,5.051999688E-1,1.418900013E0,1.785200000E0
2.078001875E1,-1.538999975E-1,1.938499928E0,2.213899851E0
2.081000000E1,-6.240000129E-1,2.134799957E0,3.494599819E0
2.083000469E1,-6.776999831E-1,1.979699969E0,4.092099667E0
2.086000000E1,-1.138999984E-1,1.494699955E0,4.388599873E0
2.088000781E1,-1.906999946E-1,1.474099994E0,4.491499901E0
2.091000000E1,-1.304899931E0,1.902699947E0,4.458899975E0
2.093000781E1,-1.931499958E0,1.774199963E0,4.176199913E0
2.096000000E1,-2.418299913E0,1.250299931E0,3.836499929E0
2.098000938E1,-2.479199886E0,5.686999559E-1,3.075999975E0
2.100000938E1,-2.675899982E0,9.849999845E-2,2.675199986E0
2.102001094E1,-2.490700006E0,-7.299999893E-2,2.298799992E0
2.105000000E1,-2.183399916E0,5.399999768E-2,2.208199978E0
2.107000000E1,-1.728799939E0,6.126999855E-1,2.822799921E0
2.109000469E1,-1.453999996E0,1.283699989E0,3.460399866E0
2.112000000E1,-1.178499937E0,2.098599911E0,4.088399887E0
2.114000312E1,-9.661999941E-1,1.736400008E0,3.899399996E0
2.117000000E1,-9.323999882E-1,-3.549999744E-2,3.213399887E0
2.119000156E1,-6.462999582E-1,-1.157400012E0,2.557099819E0
2.122000000E1,-4.490000010E-1,-2.635299921E0,1.315500021E0
2.124000938E1,-5.230999589E-1,-3.326099873E0,6.394000053E-1
2.127000000E1,1.386999935E-1,-3.795099974E0,-8.300999999E-1
2.129000469E1,1.173799992E0,-3.921799898E0,-1.783499956E0
2.132000000E1,2.122799873E0,-3.983099937E0,-2.667500019E0
2.134000469E1,2.144999981E0,-3.622299910E0,-2.883199930E0
2.137000000E1,1.563300014E0,-2.795099974E0,-3.053400040E0
2.139001094E1,1.550499916E0,-2.572899818E0,-3.540199995E0
2.142000469E1,1.676599979E0,-2.885299921E0,-3.924199820E0
2.144000625E1,1.753199935E0,-3.334899902E0,-3.552299976E0
2.147000000E1,9.934999943E-1,-3.671399832E0,-2.647899866E0
2.149001094E1,1.224999949E-1,-3.224499941E0,-2.173799992E0
2.152000000E1,-1.858399987E0,-2.337199926E0,-2.015100002E0
2.154000156E1,-2.546799898E0,-1.878799915E0,-1.859999895E0
2.157000000E1,-2.182299852E0,-1.610099912E0,-1.930999994E0
2.159000469E1,-2.210899830E0,-1.765899897E0,-2.053499937E0
2.162000625E1,-2.050899982E0,-2.348700047E0,-2.928599834E0
2.165000000E1,-1.848399997E0,-2.336999893E0,-2.706300020E0
2.167000000E1,-1.158699989E0,-1.775399923E0,-1.806299925E0
2.169000000E1,-1.428000033E-1,-7.279999852E-1,-6.897999644E-1
2.171000000E1,-8.119999617E-2,5.444999933E-1,9.070000052E-2
2.173000000E1,-9.045999646E-1,1.760999918E0,9.982999563E-1
2.175000625E1,-1.316100001E0,2.408799887E0,1.592899919E0
2.178000000E1,-6.236000061E-1,1.606899977E0,1.373099923E0
2.180000156E1,-1.935999990E-1,5.630999804E-1,1.199299932E0
2.182000156E1,1.577000022E-1,-2.181999981E-1,8.736000061E-1
2.185000625E1,1.125299931E0,-6.543999910E-1,3.346000016E-1
2.188000000E1,2.011399984E0,-1.415999979E-1,-2.979999967E-2
2.190000469E1,2.416899920E0,4.211999774E-1,-5.549999699E-2
2.193000000E1,2.284899950E0,1.083299994E0,-5.169999972E-2
2.195000781E1,1.998199940E0,1.209999919E0,-1.030999944E-1
2.198000000E1,1.389999986E0,1.044099927E0,-1.743000001E-1
2.200000781E1,1.038900018E0,1.026700020E0,-1.727000028E-1
2.203000000E1,5.135999918E-1,1.197799921E0,5.779999867E-2
2.205000156E1,2.128999978E-1,1.426800013E0,4.201000035E-1
2.208000000E1,-6.229999661E-1,1.674799919E0,9.394999743E-1
2.210001094E1,-1.384699941E0,1.719299912E0,1.393399954E0
2.213000000E1,-2.291100025E0,2.049999952E0,1.973599911E0
2.215001250E1,-2.979099989E0,2.196500063E0,2.230700016E0
2.218000000E1,-3.060799837E0,1.842099905E0,2.760200024E0
2.220000781E1,-3.231499910E0,1.997399926E0,2.967399836E0
2.223000000E1,-4.581799984E0,2.614300013E0,3.691099882E0
2.225000000E1,-4.963799953E0,3.630999804E0,4.886099815E0
2.227000000E1,-4.674699783E0,3.479099989E0,5.049799919E0
2.229000000E1,-3.620499849E0,1.907199979E0,4.989599705E0
2.231001094E1,-2.139799833E0,6.129999831E-2,4.810299873E0
2.234000000E1,-3.998999894E-1,-1.401000023E0,3.696999788E0
2.236000781E1,-2.231999934E-1,-1.859999895E0,2.592900038E0
2.239000000E1,-2.167999893E-1,-2.060099840E0,1.355700016E0
2.241001094E1,2.309999987E-2,-2.222100019E0,6.762999892E-1
2.244000000E1,7.486999631E-1,-2.624699831E0,-7.699999809E-1
2.246000625E1,1.177399993E0,-2.813299894E0,-1.587399960E0
2.249000000E1,1.473699927E0,-2.994400024E0,-2.363600016E0
2.251000938E1,1.115399957E0,-2.662699938E0,-2.297499895E0
2.254000000E1,6.901999712E-1,-2.447799921E0,-2.561100006E0
2.256000625E1,5.691999793E-1,-2.369299889E0,-3.024299860E0
2.259000000E1,1.215000004E-1,-2.274899960E0,-3.694299936E0
2.261000938E1,-8.850000054E-2,-2.509899855E0,-4.130099773E0
2.264000156E1,1.849000007E-1,-3.652699947E0,-4.103399754E0
2.266000938E1,3.148999810E-1,-4.353899956E0,-3.431799889E0
2.269000000E1,2.199999988E-3,-3.951799870E0,-2.855199814E0
2.271000625E1,-4.239999950E-1,-3.485100031E0,-2.927199841E0
2.274000000E1,-1.463899970E0,-3.444999933E0,-3.468899965E0
2.276000000E1,-1.791799903E0,-3.094799995E0,-3.527400017E0
2.278000000E1,-2.108700037E0,-2.440299988E0,-3.159099817E0
2.280000000E1,-2.042599916E0,-1.737399936E0,-2.475800037E0
2.282000000E1,-1.066100001E0,-1.090600014E0,-1.655799985E0
2.284000000E1,-3.409999982E-2,-7.563999891E-1,-1.108500004E0
2.286000000E1,1.708000004E-1,-8.333999515E-1,-7.762999535E-1
2.288000000E1,-5.099999905E-2,-8.748999834E-1,-1.689999998E-1
2.290000000E1,-4.536999762E-1,-6.793999672E-1,4.131999910E-1
2.292000469E1,-1.143899918E0,-5.388000011E-1,9.096999764E-1
2.295000000E1,-1.701699972E0,-5.886999965E-1,1.723799944E0
2.297000781E1,-6.561999917E-1,-7.356999516E-1,1.457599998E0
2.300000000E1,1.316699982E0,-5.202999711E-1,6.669999957E-1
2.302000469E1,2.219099998E0,-2.196999937E-1,3.664000034E-1
2.305000000E1,2.927199841E0,3.309999779E-2,4.069999978E-2
2.307000313E1,2.861899853E0,2.859999985E-2,6.000000052E-3
2.310000000E1,2.241899967E0,9.569999576E-2,2.566999793E-1
2.312001094E1,1.557999969E0,2.477999926E-1,4.882999957E-1
2.315000000E1,6.893999577E-1,7.030999660E-1,1.107800007E0
2.317000938E1,1.477999985E-1,1.207700014E0,1.686800003E0
2.320000000E1,-2.177999914E-1,1.996399999E0,2.693599939E0
2.322000000E1,-5.173999667E-1,2.219899893E0,3.152199984E0
2.324000000E1,-9.285999537E-1,2.173500061E0,3.351599932E0
2.326000000E1,-1.665699959E0,2.230799913E0,3.535899878E0
2.328000000E1,-2.421700001E0,2.391299963E0,3.819099903E0
2.330000000E1,-2.947999954E0,2.388799906E0,3.886399984E0
2.332000469E1,-3.103999853E0,1.897199988E0,3.810699940E0
2.335000000E1,-2.671799898E0,1.620999932E0,3.668499947E0
2.337000000E1,-2.920399904E0,1.756599903E0,3.301299810E0
2.339000000E1,-3.395299911E0,2.050499916E0,3.500000000E0
2.341000000E1,-3.407099962E0,2.291899920E0,3.887799978E0
2.343000000E1,-2.627899885E0,2.296000004E0,4.199399948E0
2.345000000E1,-1.612299919E0,1.890899897E0,3.869799852E0
2.347000000E1,-1.218599916E0,1.082999945E0,3.056799889E0
2.349000000E1,-1.161999941E0,2.911999822E-1,1.787299991E0
2.351000000E1,-1.154099941E0,-1.570999920E-1,7.789999843E-1
2.353000000E1,-1.546199918E0,-4.007000029E-1,3.172000051E-1
2.355000000E1,-2.073499918E0,-8.611999750E-1,6.151999831E-1
2.357000000E1,-1.580899954E0,-1.280599952E0,1.133000016E0
2.359000000E1,-1.231499910E0,-1.874300003E0,9.948999882E-1
2.361000000E1,-8.920999765E-1,-2.397799969E0,8.640999794E-1
2.363001094E1,-4.730999768E-1,-3.042699814E0,3.549000025E-1
2.366000625E1,3.269000053E-1,-3.927799940E0,-6.304999590E-1
2.368000781E1,5.352999568E-1,-4.150199890E0,-1.242200017E0
2.371000000E1,8.050000072E-1,-4.021599770E0,-2.847199917E0
2.373000156E1,1.270900011E0,-3.989199877E0,-4.007599831E0
2.376000000E1,1.897599936E0,-4.201399803E0,-4.694799900E0
2.378000312E1,2.121999979E0,-4.491799831E0,-4.617300034E0
2.381000000E1,2.223099947E0,-4.662899971E0,-4.598400116E0
2.383000312E1,1.582099915E0,-4.670099735E0,-4.656199932E0
2.386000000E1,4.350999892E-1,-4.468699932E0,-4.036200047E0
2.388001094E1,-5.228999853E-1,-4.242399693E0,-3.146600008E0
2.391000000E1,-1.700599909E0,-3.604399920E0,-3.013199806E0
2.393000000E1,-2.079200029E0,-3.225199938E0,-3.359899998E0
2.395000000E1,-2.545899868E0,-2.897300005E0,-3.446499825E0
2.397000000E1,-3.085000038E0,-2.642199993E0,-2.832399845E0
2.399000000E1,-3.148399830E0,-2.019700050E0,-1.473699927E0
2.401000000E1,-2.487200022E0,-7.782999873E-1,-1.335999966E-1
2.403000000E1,-1.719399929E0,4.036999941E-1,5.421999693E-1
2.405000000E1,-1.288200021E0,1.088999987E0,9.947999716E-1
2.407000000E1,-8.222000003E-1,1.278800011E0,1.430699944E0
2.409000938E1,-4.752999842E-1,9.709999561E-1,1.601400018E0
2.412000000E1,-5.235999823E-1,3.583999872E-1,1.686499953E0
2.414001094E1,-1.048999950E-1,1.946999878E-1,1.453799963E0
2.417000000E1,1.142300010E0,3.596999943E-1,5.762000084E-1
2.419000469E1,1.828599930E0,3.781999946E-1,9.269999713E-2
2.422000000E1,2.527099848E0,-1.109999977E-2,-7.019999623E-2
2.424000469E1,2.471400023E0,-5.691999793E-1,2.328999937E-1
2.427000000E1,2.215100050E0,-7.418999672E-1,7.978000045E-1
2.429000625E1,1.288299918E0,-2.685999870E-1,9.414999485E-1
2.432000000E1,7.649999857E-2,6.496999860E-1,1.385100007E0
2.434000625E1,-4.650999904E-1,1.251199961E0,2.077499866E0
2.437000000E1,-9.284999967E-1,2.298899889E0,3.136099815E0
2.439000625E1,-6.527000070E-1,2.549899817E0,3.144399881E0
2.442000000E1,-5.227999687E-1,2.382999897E0,2.570999861E0
2.444000625E1,-1.331099987E0,2.496500015E0,2.316400051E0
2.447000000E1,-2.938400030E0,1.976199985E0,2.054699898E0
2.449000156E1,-3.405399799E0,1.280200005E0,2.363600016E0
2.452000000E1,-3.670300007E0,6.179999709E-1,2.989699841E0
2.454000000E1,-3.673099995E0,1.208500028E0,4.454599857E0
2.456000625E1,-2.823199987E0,2.622299910E0,5.542900085E0
2.459000000E1,-1.363799930E0,2.139600039E0,5.210199833E0
2.461000000E1,-1.050400019E0,6.527000070E-1,4.907000065E0
2.463000000E1,-4.810999930E-1,-4.708999991E-1,4.014400005E0
2.465000156E1,-3.684999943E-1,-1.119400024E0,2.785899878E0
2.468000000E1,-8.341000080E-1,-1.614399910E0,1.901999950E0
2.470000625E1,-9.535999894E-1,-1.571900010E0,1.869199991E0
2.473000000E1,-4.826999903E-1,-1.679600000E0,1.383700013E0
2.475000625E1,3.893999755E-1,-2.087800026E0,4.133999944E-1
2.478000000E1,1.129599929E0,-2.390399933E0,-7.396999598E-1
2.480001406E1,1.163699985E0,-2.528100014E0,-1.406599998E0
2.483000000E1,1.118600011E0,-2.776799917E0,-2.142299891E0
2.485000469E1,9.560999870E-1,-2.824699879E0,-2.447900057E0
2.488000000E1,4.959999919E-1,-2.908499956E0,-3.095700026E0
2.490000781E1,5.141999722E-1,-3.017400026E0,-3.391299963E0
2.493000000E1,5.264999866E-1,-3.167599916E0,-3.229599953E0
2.495000000E1,2.962999940E-1,-3.335999966E0,-3.107899904E0
2.497000000E1,-1.774999946E-1,-3.388599873E0,-2.965699911E0
2.499000000E1,-4.447999895E-1,-3.476099968E0,-3.154899836E0
2.501000000E1,-8.136000037E-1,-3.794699907E0,-3.502199888E0
2.503000000E1,-1.222499967E0,-4.137399673E0,-3.723599911E0
2.505000781E1,-1.304499984E0,-4.096899986E0,-3.959699869E0
2.508000000E1,-6.286000013E-1,-2.863899946E0,-3.560400009E0
2.510000312E1,-4.071999788E-1,-1.498600006E0,-2.686399937E0
2.513000000E1,-5.892999768E-1,-1.088999957E-1,-1.857699990E0
2.515000000E1,-8.856999874E-1,1.700999886E-1,-1.318699956E0
2.517000000E1,-1.116299987E0,2.939999998E-1,-7.331999540E-1
2.519000000E1,-1.316499949E0,2.125999928E-1,-3.790999949E-1
2.521000312E1,-1.224799991E0,1.466999948E-1,-2.001999915E-1
2.524000469E1,-1.825999916E-1,3.578999937E-1,-4.323000014E-1
2.526000781E1,8.115999699E-1,2.942000031E-1,-6.028999686E-1
2.529000000E1,2.147799969E0,3.919000030E-1,-1.227900028E0
2.531000000E1,2.718799829E0,1.958999932E-1,-1.410300016E0
2.533000000E1,2.682799816E0,-9.149999917E-2,-1.033999920E0
2.535000000E1,2.342000008E0,-4.102999866E-1,-6.164999604E-1
2.537000000E1,2.273499966E0,-6.457999945E-1,-4.190999866E-1
2.539000000E1,1.928099990E0,-6.069999933E-1,-1.702999920E-1
2.541000156E1,1.529799938E0,-3.597999811E-1,-1.551000029E-1
2.544000625E1,9.289000034E-1,1.498999894E-1,4.782999754E-1
2.547000000E1,1.194999963E-1,8.867999911E-1,1.169700027E0
2.549000000E1,-9.639999866E-1,1.309000015E0,1.908299923E0
2.551000781E1,-2.205100060E0,1.508999944E0,2.297199965E0
2.554000313E1,-3.764699936E0,1.810799956E0,3.247900009E0
2.556001094E1,-4.652800083E0,2.110800028E0,3.710500002E0
2.559000000E1,-5.019799709E0,2.651299953E0,3.878199816E0
2.561000469E1,-4.912600040E0,2.753299952E0,3.501600027E0
2.564000000E1,-5.061399937E0,3.628899813E0,3.717099905E0
2.566000313E1,-3.630800009E0,3.903800011E0,2.992499828E0
2.569000000E1,-2.364999950E-1,2.703799963E0,2.357800007E0
2.571000000E1,6.134999990E-1,1.309299946E0,1.937399983E0
2.573000000E1,8.145999908E-1,3.531999886E-1,1.304999948E0
2.575000000E1,8.908999562E-1,2.911999822E-1,1.783999950E-1
2.577000938E1,6.283999681E-1,-2.672999799E-1,-2.475999892E-1
2.580000000E1,3.384000063E-1,-5.102999806E-1,-5.753999949E-1
2.582000781E1,-7.310000062E-2,-2.577999830E-1,-4.605999887E-1
2.585000000E1,-1.196999997E-1,-1.500999928E-1,1.110999957E-1
2.587000312E1,6.419999897E-2,-3.344999850E-1,3.267999887E-1
2.590000000E1,5.577999949E-1,-5.386999846E-1,4.973999858E-1
2.592000938E1,8.725000024E-1,-8.536999822E-1,4.465999901E-1
2.595000000E1,1.158299923E0,-1.533100009E0,-1.229999959E-2
2.597000938E1,1.455500007E0,-2.012099981E0,-4.624999762E-1
2.600000000E1,1.302699924E0,-3.045599937E0,-8.841999769E-1
2.602001094E1,1.248999953E0,-3.438499928E0,-8.660999537E-1
2.605000000E1,5.631999969E-1,-3.830099821E0,-1.675799966E0
2.607000469E1,6.769999862E-2,-3.839699984E0,-1.960099936E0
2.610000000E1,-1.310999990E-1,-3.489199877E0,-2.008300066E0
2.612000938E1,-5.618000031E-1,-3.477699995E0,-2.057299852E0
2.615000000E1,-9.283999801E-1,-3.433499813E0,-2.614199877E0
2.617000469E1,-1.060500026E0,-2.986999989E0,-3.148900032E0
2.620000000E1,-1.019600034E0,-1.968699932E0,-2.756399870E0
2.622000000E1,-2.365999967E-1,-7.576000094E-1,-1.456900001E0
2.624000000E1,5.141000152E-1,4.472000003E-1,-8.822000027E-1
2.626000000E1,1.670999974E-1,8.624999523E-1,-8.382999897E-1
2.628000625E1,-2.513999939E-1,8.923999667E-1,-3.701999784E-1
2.631000000E1,-1.112900019E0,5.246999860E-1,-2.633999884E-1
2.633000156E1,-1.638700008E0,2.355999947E-1,-1.616999954E-1
2.636000000E1,-9.970999956E-1,-1.554999948E-1,3.531000018E-1
2.638000312E1,5.939999819E-1,-2.990999818E-1,5.263999701E-1
2.641000000E1,2.659899950E0,-1.510999948E-1,3.633999825E-1
2.643000938E1,3.254299879E0,2.399999881E-3,-1.252999902E-1
2.646000000E1,3.316699982E0,-1.835999936E-1,-8.219999671E-1
2.648000938E1,3.030299902E0,-4.553999901E-1,-7.184000015E-1
2.651000000E1,2.306900024E0,-1.113999963E0,-1.831000000E-1
2.653000625E1,1.706699967E0,-1.392499924E0,3.389999866E-1
2.656000000E1,1.066699982E0,-9.844999909E-1,8.253999949E-1
2.658000156E1,7.639999986E-1,-3.382000029E-1,8.761999607E-1
2.661000000E1,-2.780999839E-1,6.863999963E-1,4.560000002E-1
2.663000938E1,-1.274299979E0,1.395299911E0,-3.668999970E-1
2.666000000E1,-3.274299860E0,2.174000025E0,-8.151999712E-1
2.668000313E1,-4.440000057E0,2.470099926E0,-4.246999919E-1
2.671000000E1,-5.100100040E0,3.493499994E0,1.006899953E0
2.673000938E1,-5.656599998E0,3.914799929E0,1.300899982E0
2.676000000E1,-5.196499825E0,5.137099743E0,2.133299828E0
2.678000312E1,-4.196399689E0,5.328499794E0,2.279299974E0
2.681000000E1,-1.881799936E0,3.594699860E0,2.132900000E0
2.683000000E1,-1.418200016E0,1.768199921E0,2.473199844E0
2.685000781E1,-1.218799949E0,6.394999623E-1,2.308699846E0
2.688000000E1,-1.729699969E0,4.999999702E-2,2.023999929E0
2.690000000E1,-1.810099959E0,5.419999734E-2,2.051499844E0
2.692000000E1,-1.431999922E0,4.759999737E-2,2.033900023E0
2.694000625E1,-6.449999809E-1,-6.269999593E-2,1.988599896E0
2.697000469E1,5.697999597E-1,-2.712999880E-1,1.864399910E0
2.699001094E1,1.065199971E0,-6.487999558E-1,1.732299924E0
2.702000313E1,1.579499960E0,-1.577999949E0,1.557500005E0
2.704000469E1,1.651899934E0,-1.988799930E0,1.199699998E0
2.707000000E1,1.589900017E0,-2.675999880E0,8.100999594E-1
2.709000313E1,1.543799996E0,-3.085799932E0,4.831999838E-1
2.712000000E1,1.182999969E0,-3.448499918E0,-1.921999902E-1
2.714000781E1,8.804999590E-1,-3.693300009E0,-6.777999997E-1
2.717000000E1,3.574000001E-1,-4.216399670E0,-1.101199985E0
2.719000625E1,-3.292999864E-1,-4.727699757E0,-1.312899947E0
2.722000000E1,1.300000004E-3,-5.855299950E0,-9.848999977E-1
2.724000156E1,8.478999734E-1,-6.243199825E0,-1.727499962E0
2.727000000E1,4.709999859E-1,-5.661200047E0,-3.049099922E0
2.729000313E1,1.169999968E-2,-4.543999672E0,-3.448099852E0
2.732000000E1,2.973999977E-1,-2.487799883E0,-2.620800018E0
2.734000938E1,1.204900026E0,-1.423900008E0,-1.770200014E0
2.737000000E1,1.381799936E0,-4.597999752E-1,-4.390999973E-1
2.739000156E1,1.527999938E-1,-7.530000061E-2,2.421000004E-1
2.742000000E1,-2.144999981E0,4.003999829E-1,-1.631999910E-1
2.744000000E1,-2.448799849E0,8.540000021E-2,-1.004799962E0
2.746000000E1,-1.439199924E0,-3.366000056E-1,-1.338500023E0
2.748000000E1,1.559999958E-2,-7.048000097E-1,-8.883000016E-1
2.750000313E1,1.204999924E0,-5.471999645E-1,-8.389999717E-2
2.753000000E1,2.593199968E0,1.893000007E-1,8.689999580E-1
2.755000781E1,2.790899992E0,4.598999918E-1,8.693000078E-1
2.758000000E1,2.289099932E0,2.639999986E-1,3.145000041E-1
2.760000312E1,2.256700039E0,-7.530000061E-2,2.293999940E-1
2.762001094E1,2.218999863E0,-2.076999992E-1,2.450999916E-1
2.765000469E1,1.726300001E0,-2.193000019E-1,2.034000009E-1
2.768000000E1,-8.060000092E-2,8.057999611E-1,3.299999982E-3
2.770000156E1,-1.639400005E0,1.945099950E0,1.547999978E-1
2.773000000E1,-3.818799973E0,3.938799858E0,8.176999688E-1
2.775000469E1,-4.963299751E0,4.549699783E0,1.054600000E0
2.778000000E1,-6.802299976E0,5.411099911E0,1.617699981E0
2.780000313E1,-7.526499748E0,5.492599964E0,2.238499880E0
2.782000625E1,-8.148200035E0,5.419099808E0,3.258699894E0
2.785000938E1,-8.367199898E0,4.768799782E0,2.995899916E0
2.788000000E1,-5.990699768E0,4.178599834E0,2.017799854E0
2.790001250E1,-3.494599819E0,3.439199924E0,1.783599973E0
2.793000000E1,-1.596399903E0,1.394599915E0,1.305599928E0
2.795000156E1,-9.003999829E-1,3.889999911E-2,7.109000087E-1
2.798000000E1,1.746999919E-1,-1.712000012E0,-7.251999974E-1
2.800000000E1,3.350999951E-1,-1.943300009E0,-1.374599934E0
2.802005625E1,-1.362999976E-1,-1.247599959E0,-1.265499949E0
2.805000000E1,-1.318699956E0,-6.355999708E-1,-7.100000046E-3
2.807000000E1,-1.179899931E0,-5.469999909E-1,7.240999937E-1
2.809000000E1,-6.387000084E-1,-9.283999801E-1,9.941999912E-1
2.811000313E1,2.344999909E-1,-1.887399912E0,1.352599978E0
2.814000000E1,1.191399932E0,-3.079499960E0,1.153900027E0
2.816000156E1,1.499300003E0,-3.560699940E0,6.864999533E-1
2.819000000E1,1.696799994E0,-4.337599754E0,-3.529999778E-2
2.821000312E1,2.092700005E0,-4.743700027E0,-2.318999916E-1
2.824000000E1,3.204999924E0,-5.296000004E0,-7.831999660E-1
2.826000469E1,3.660199881E0,-5.655099869E0,-1.659399986E0
2.829000000E1,2.590199947E0,-6.239999771E0,-2.498499870E0
2.831001094E1,1.423299909E0,-6.337499619E0,-2.746999979E0
2.834000000E1,9.791999459E-1,-6.052000046E0,-2.919899940E0
2.836000156E1,5.133999586E-1,-6.568500042E0,-2.478799820E0
2.839000000E1,-3.819999844E-2,-7.194399834E0,-1.054099917E0
2.841001094E1,2.386999875E-1,-6.666499615E0,-1.386999935E-1
2.844000000E1,6.572999954E-1,-4.713399887E0,2.800999880E-1
2.846001094E1,1.109999940E-1,-3.291800022E0,-3.070999980E-1
2.849000000E1,-1.352800012E0,-1.971300006E0,-7.233999968E-1
2.851001094E1,-2.440899849E0,-8.651999831E-1,-7.141000032E-1
2.854000000E1,-4.133699894E0,1.030399919E0,-2.775000036E-1
2.856001094E1,-4.464600086E0,2.305500031E0,8.005999923E-1
2.859000000E1,-3.045799971E0,3.377300024E0,2.496299982E0
2.861000000E1,-1.364300013E0,3.287099838E0,2.941499949E0
2.863000000E1,2.408999950E-1,2.900699854E0,2.637399912E0
2.865000000E1,1.073199987E0,2.567199945E0,1.955899954E0
2.867000781E1,1.265599966E0,2.266499996E0,1.491899967E0
2.870000000E1,5.706999898E-1,1.816999912E0,7.426999807E-1
2.872001094E1,-1.242999956E-1,1.460999966E0,8.973000050E-1
2.875000000E1,-9.348999858E-1,1.875499964E0,1.529899955E0
2.877000625E1,-1.119099975E0,2.707900047E0,1.919199944E0
2.880000000E1,-1.451799989E0,4.019599915E0,1.945099950E0
2.882000000E1,-1.987899899E0,4.409599781E0,1.468999982E0
2.884000000E1,-2.623499870E0,4.352699757E0,1.016799927E0
2.886000000E1,-3.437899828E0,4.298299789E0,6.771999598E-1
2.888000000E1,-4.403599739E0,4.306299686E0,9.905999899E-1
2.890000000E1,-5.440299988E0,3.690799952E0,1.470600009E0
2.892000156E1,-5.902999878E0,2.728600025E0,2.257200003E0
2.895000000E1,-5.983200073E0,8.327999711E-1,2.579999924E0
2.897000312E1,-5.525700092E0,8.345999718E-1,2.480099916E0
2.900000000E1,-3.885399818E0,2.066900015E0,2.263499975E0
2.902000313E1,-3.054299831E0,1.881199956E0,2.003399849E0
2.905000000E1,-2.226899862E0,1.586000025E-1,2.024199963E0
2.907000781E1,-1.679799914E0,-1.009099960E0,2.053900003E0
2.910000000E1,-1.074699998E0,-1.898099899E0,1.865099907E0
2.912000000E1,-6.306999922E-1,-1.876799941E0,1.650699973E0
2.914000000E1,-3.312999904E-1,-1.741400003E0,1.420199990E0
2.916000000E1,-7.490000129E-2,-1.849399924E0,1.334699988E0
2.918003594E1,4.230999947E-1,-1.998600006E0,1.342599988E0
2.921000000E1,1.144999981E0,-2.529700041E0,1.085600019E0
2.923000313E1,1.581299901E0,-3.000999928E0,8.823999763E-1
2.926000000E1,2.015899897E0,-3.676299810E0,5.604999661E-1
2.928000469E1,2.289999962E0,-4.201600075E0,4.050999880E-1
2.931000000E1,2.781399965E0,-4.941999912E0,3.641999960E-1
2.933000469E1,3.111799955E0,-5.376699924E0,4.078999758E-1
2.936000000E1,3.298599958E0,-5.770199776E0,3.637999892E-1
2.938001094E1,2.738299847E0,-6.315000057E0,3.172999918E-1
2.941000000E1,1.545599937E0,-6.798199654E0,7.465999722E-1
2.943000313E1,9.994999766E-1,-6.536499977E0,1.284600019E0
2.946000000E1,-2.270999998E-1,-6.090699673E0,1.458899975E0
2.948000781E1,-1.620099902E0,-6.270999908E0,8.912999630E-1
2.951000000E1,-2.514299870E0,-5.990299702E0,9.575999975E-1
2.953000938E1,-1.728699923E0,-4.385900021E0,1.638399959E0
2.956000000E1,-5.981000066E-1,-1.655900002E0,1.718799949E0
2.958000312E1,-6.409999728E-1,-1.234999970E-1,1.066200018E0
2.961000000E1,-1.079399943E0,1.122099996E0,-6.094999909E-1
2.963000469E1,-1.185099959E0,1.776299953E0,-1.402999997E0
2.966000000E1,-1.978699923E0,1.906399965E0,-1.202299953E0
2.968000156E1,-2.200099945E0,1.488099933E0,-9.447000027E-1
2.971000000E1,-1.684599996E0,1.979900002E0,4.158999920E-1
2.973000156E1,-8.909999579E-2,1.868099928E0,7.414000034E-1
2.976000000E1,1.853899956E0,1.960199952E0,9.714999795E-1
2.978000000E1,2.136699915E0,2.023099899E0,5.478999615E-1
2.980000000E1,1.855099916E0,2.094799995E0,6.399999559E-2
2.982000156E1,1.433599949E0,2.277699947E0,-6.060999632E-1
2.984000313E1,8.513999581E-1,2.262300014E0,-9.908999801E-1
2.987000000E1,-1.639999896E-1,2.487400055E0,-9.265999794E-1
2.989001094E1,-5.814999938E-1,2.789700031E0,-6.384999752E-1
2.992000000E1,-9.864999652E-1,3.429099798E0,-4.264999926E-1
2.994000312E1,-1.538199902E0,3.625699997E0,-4.545999765E-1
2.997000000E1,-3.187299967E0,3.583999872E0,-1.711999923E-1
2.999000156E1,-4.301499844E0,3.740299940E0,-2.644999921E-1
3.002000781E1,-5.669799805E0,3.470700026E0,-3.899999894E-3
3.004000781E1,-6.343400002E0,2.774199963E0,6.884999871E-1
3.007000000E1,-6.814799786E0,9.276999831E-1,1.854499936E0
3.009000469E1,-5.041399956E0,6.765999794E-1,1.595099926E0
3.012000000E1,-1.542099953E0,1.546599984E0,1.000900030E0
3.014001094E1,-1.692999899E-1,1.540099978E0,1.029500008E0
3.017000000E1,3.705999851E-1,2.622999847E-1,1.437299967E0
3.019000781E1,1.283999979E-1,-5.291000009E-1,1.565999985E0
3.022001875E1,-9.612999558E-1,-1.403199911E0,1.170799971E0
3.025000000E1,-1.361500025E0,-1.479900002E0,1.347899914E0
3.027000000E1,-9.571999907E-1,-1.318199992E0,1.531599998E0
3.029000000E1,-7.490000129E-2,-1.144199967E0,1.719999909E0
3.031000000E1,4.356999993E-1,-1.569999933E0,1.551399946E0
3.033000000E1,1.017099977E0,-1.863899946E0,1.479699969E0
3.035000000E1,1.561299920E0,-2.264699936E0,1.167199969E0
3.037000000E1,2.060099840E0,-2.704999924E0,8.940999508E-1
3.039000000E1,2.427899837E0,-3.300400019E0,5.945000052E-1
3.041000000E1,2.671399832E0,-3.842799902E0,3.249000013E-1
3.043000000E1,2.819499969E0,-4.165599823E0,5.460000038E-2
3.045000938E1,2.875299931E0,-4.452699661E0,-6.586999893E-1
3.048000000E1,3.149499893E0,-5.165299892E0,-1.522399902E0
3.050000781E1,3.133100033E0,-5.629199982E0,-1.519899964E0
3.053000000E1,2.973899841E0,-6.278599739E0,-2.345999956E0
3.055001094E1,2.568899870E0,-6.022699833E0,-2.694599867E0
3.058000000E1,4.612999856E-1,-5.288399696E0,-2.069599867E0
3.060000781E1,-1.287899971E0,-5.364399910E0,-2.116899967E0
3.062001094E1,-2.103699923E0,-5.069999695E0,-2.154500008E0
3.065000469E1,-1.639099956E0,-4.454299927E0,-1.434799910E0
3.068000000E1,-9.982999563E-1,-1.892199993E0,-8.440999985E-1
3.070000625E1,-1.450799942E0,-1.596999913E-1,-6.750999689E-1
3.073000000E1,-2.413699865E0,1.507099986E0,-4.180999994E-1
3.075000781E1,-3.120999813E0,2.354799986E0,-1.541000009E-1
3.078000000E1,-3.780399799E0,2.522599936E0,3.186999857E-1
3.080000625E1,-3.062399864E0,2.167000055E0,1.120399952E0
3.083000000E1,-4.809999764E-1,1.663100004E0,1.766499996E0
3.085000781E1,8.531999588E-1,1.779699922E0,1.583400011E0
3.088000000E1,1.869599938E0,1.797699928E0,1.115000010E0
3.090000781E1,1.898199916E0,1.685899973E0,8.574000001E-1
3.093000000E1,1.652799964E0,1.222800016E0,8.490999937E-1
3.095000000E1,1.670599937E0,6.354999542E-1,1.314399958E0
3.097000000E1,1.458199978E0,3.682999909E-1,1.737499952E0
3.099000000E1,9.536999464E-1,5.292999744E-1,2.088999987E0
3.101000156E1,2.836000025E-1,1.332099915E0,2.031499863E0
3.104000000E1,-6.832999587E-1,2.631199837E0,1.391199946E0
3.106000312E1,-1.388599992E0,3.236999989E0,9.262999892E-1
3.109000313E1,-2.863999844E0,3.760399818E0,3.944000006E-1
3.111000938E1,-4.166599751E0,4.110700130E0,1.915999949E-1
3.114000000E1,-6.081799984E0,4.068699837E0,1.454999894E-1
3.116000156E1,-6.576499939E0,4.005000114E0,5.990999937E-1
3.119000469E1,-7.100399971E0,2.949100018E0,8.869999647E-1
3.122000625E1,-5.071799755E0,3.166800022E0,1.460999966E0
3.125000000E1,-2.591599941E0,3.242199898E0,1.484899998E0
3.127000000E1,-1.873699903E0,2.060799837E0,1.185799956E0
3.129000000E1,-1.783699989E0,4.327999949E-1,1.361400008E0
3.131000625E1,-1.925199986E0,-6.319999695E-1,1.450099945E0
3.134000000E1,-2.144799948E0,-1.661199927E0,1.458099961E0
3.136000938E1,-1.784599900E0,-1.924999952E0,1.534699917E0
3.139000000E1,-6.306999922E-1,-2.122900009E0,1.514699936E0
3.141000625E1,1.030999944E-1,-2.077100039E0,1.206399918E0
3.144000000E1,8.910999894E-1,-2.343499899E0,6.054999828E-1
3.146000000E1,1.254099965E0,-2.668200016E0,2.294999957E-1
3.148000000E1,1.386299968E0,-3.195400000E0,-1.428000033E-1
3.150000000E1,1.218099952E0,-3.298399925E0,-5.906999707E-1
3.152000469E1,8.456999660E-1,-3.679999828E0,-1.125000000E0
3.155000000E1,1.544299960E0,-4.947899818E0,-1.486899972E0
3.157000313E1,2.353800058E0,-5.979099751E0,-1.715799928E0
3.160000000E1,3.185299873E0,-6.451399803E0,-1.918999910E0
3.162001250E1,3.362900019E0,-6.624300003E0,-2.120100021E0
3.165000000E1,3.144899845E0,-6.247499943E0,-2.157500029E0
3.167001094E1,2.804199934E0,-5.871200085E0,-1.899899960E0
3.170000000E1,1.662999988E0,-5.875799656E0,-2.448400021E0
3.172000312E1,9.089999795E-1,-5.699100018E0,-3.193300009E0
3.175000000E1,-5.278999805E-1,-5.914099693E0,-4.434099674E0
3.177000781E1,-1.022799969E0,-5.755300045E0,-4.121200085E0
3.180000000E1,-7.892000079E-1,-3.704099894E0,-2.033699989E0
3.182000781E1,-1.879299998E0,-2.655499935E0,-1.115299940E0
3.185000000E1,-3.194399834E0,-1.187600017E0,2.096999884E-1
3.187000469E1,-3.692099810E0,-3.953000009E-1,6.542999744E-1
3.190000000E1,-3.598599911E0,-1.411999911E-1,1.142199993E0
3.192000156E1,-2.857300043E0,-4.066999853E-1,1.542699933E0
3.195000000E1,-9.757999778E-1,-4.782999754E-1,1.720099926E0
3.197000156E1,1.435000002E-1,-2.293999940E-1,1.649199963E0
3.200000000E1,1.137699962E0,-2.222999930E-1,1.307699919E0
3.202001094E1,1.601499915E0,-4.372999966E-1,1.099499941E0
3.205000000E1,1.684099913E0,-3.649999797E-1,8.129000068E-1
3.207000000E1,1.160899997E0,7.899999619E-2,7.906999588E-1
3.209000000E1,7.311999798E-1,6.000999808E-1,9.092999697E-1
3.211000000E1,3.553999960E-1,1.316399932E0,1.479900002E0
3.213000000E1,-2.431999892E-1,2.135499954E0,1.792299986E0
3.215000000E1,-1.067799926E0,2.857300043E0,1.858899951E0
3.217000000E1,-1.933099985E0,3.347199917E0,1.988299966E0
3.219000000E1,-3.023699999E0,3.787099838E0,2.134299994E0
3.221000000E1,-4.071300030E0,4.385900021E0,2.405900002E0
3.223000156E1,-4.786499977E0,5.082999706E0,2.877499819E0
3.226000000E1,-5.903299809E0,4.892799854E0,3.343099833E0
3.228000938E1,-5.825799942E0,4.419799805E0,3.391399860E0
3.231000000E1,-5.014499664E0,3.106400013E0,2.515699863E0
3.233001094E1,-4.164299965E0,2.930599928E0,2.344399929E0
3.236000000E1,-2.151299953E0,3.155799866E0,2.371199846E0
3.238000781E1,-1.059499979E0,3.013299942E0,2.181699991E0
3.241000000E1,-6.897999644E-1,1.433599949E0,1.574999928E0
3.243000625E1,-1.095299959E0,1.444000006E-1,1.389999986E0
3.246000000E1,-1.476799965E0,-1.056800008E0,1.001399994E0
3.248000781E1,-1.821200013E0,-1.205699921E0,6.426999569E-1
3.251000000E1,-1.543599963E0,-1.013899922E0,5.532000065E-1
3.253000312E1,-9.842999578E-1,-1.062799931E0,7.022999525E-1
3.256000312E1,-2.418999970E-1,-1.178399920E0,8.654999733E-1
3.258000781E1,1.578999907E-1,-1.463799953E0,8.901999593E-1
3.261000000E1,4.268999994E-1,-2.126100063E0,9.420999885E-1
3.263000000E1,4.782999754E-1,-2.779500008E0,1.063099980E0
3.265000000E1,6.626999974E-1,-3.271199942E0,9.375000000E-1
3.267000000E1,9.991999865E-1,-3.670300007E0,6.926999688E-1
3.269000156E1,1.465099931E0,-3.950899839E0,3.666999936E-1
3.272000000E1,2.281199932E0,-4.302599907E0,1.958999932E-1
3.274000625E1,2.919299841E0,-4.539000034E0,4.600000102E-3
3.277000000E1,3.453399897E0,-4.899399757E0,-4.034000039E-1
3.279000469E1,3.316599846E0,-5.487599850E0,-7.920999527E-1
3.282003125E1,3.371899843E0,-6.445899963E0,-1.586599946E0
3.285000000E1,3.954499960E0,-7.245100021E0,-3.320999861E0
3.287000000E1,2.780699968E0,-7.554599762E0,-3.731499910E0
3.289000156E1,5.927999616E-1,-6.912699699E0,-2.359299898E0
3.292000000E1,-2.701200008E0,-4.547800064E0,-9.353999496E-1
3.294000469E1,-3.335899830E0,-4.199500084E0,-1.561100006E0
3.297000000E1,-2.993099928E0,-2.394099951E0,-1.169799924E0
3.299000781E1,-2.853699923E0,-5.885999799E-1,-9.741999507E-1
3.302000000E1,-2.313299894E0,2.449100018E0,-4.836999774E-1
3.304000000E1,-2.945099831E0,3.918799877E0,-1.740999967E-1
3.306000000E1,-3.731699944E0,4.660799980E0,7.209999561E-1
3.308000000E1,-4.127599716E0,3.904799938E0,1.423099995E0
3.310000000E1,-4.195799828E0,2.894099951E0,2.099499941E0
3.312000000E1,-4.089099884E0,2.023099899E0,2.437000036E0
3.314000312E1,-3.414799929E0,1.446799994E0,2.623100042E0
3.317000938E1,-1.102100015E0,1.615700006E0,2.166100025E0
3.320000000E1,8.956999779E-1,1.798399925E0,1.234300017E0
3.322000000E1,1.563199997E0,1.711599946E0,6.280999780E-1
3.324000000E1,1.983299971E0,1.607999921E0,2.742999792E-1
3.326000000E1,2.175400019E0,1.300300002E0,3.874000013E-1
3.328000000E1,1.716799974E0,1.046800017E0,7.982999682E-1
3.330000938E1,7.232999802E-1,1.259199977E0,1.251899958E0
3.333000000E1,-4.395999908E-1,2.394000053E0,1.368299961E0
3.335000781E1,-8.762999773E-1,3.397799969E0,9.205999970E-1
3.338000000E1,-1.055599928E0,3.698199987E0,3.076999784E-1
3.340001406E1,-1.189399958E0,3.149099827E0,-1.826999933E-1
3.343000000E1,-2.287999868E0,2.110899925E0,-8.513000011E-1
3.345000625E1,-3.346999884E0,1.847199917E0,-9.186999798E-1
3.348000000E1,-4.793099880E0,1.413599968E0,-6.969999522E-2
3.350001406E1,-5.063799858E0,1.342499971E0,1.277000010E-1
3.353000000E1,-5.002399921E0,1.721999943E-1,1.273399949E0
3.355000781E1,-3.725600004E0,9.396999478E-1,1.338299990E0
3.358000000E1,-1.123799920E0,2.365799904E0,1.550899982E0
3.360000781E1,-4.869999886E-1,2.252300024E0,1.372299910E0
3.363000000E1,-8.258999586E-1,9.303999543E-1,1.317399979E0
3.365000313E1,-7.549999952E-1,1.509999931E-1,1.523100019E0
3.368000000E1,-1.434000015E0,-7.508999705E-1,1.257099986E0
3.370000469E1,-1.807999969E0,-4.649999738E-1,1.058300018E0
3.373000000E1,-1.094499946E0,-3.912999928E-1,1.307099938E0
3.375000781E1,-4.407999814E-1,-5.170999765E-1,1.475499988E0
3.378000000E1,5.594999790E-1,-1.139099956E0,1.681899905E0
3.380000000E1,9.456999898E-1,-1.615000010E0,1.661099911E0
3.382000000E1,1.305999994E0,-2.247099876E0,1.363499999E0
3.384000000E1,1.685099959E0,-2.870199919E0,8.489999771E-1
3.386000625E1,1.994699955E0,-3.391299963E0,5.052999854E-1
3.389000000E1,2.269399881E0,-4.006599903E0,4.472000003E-1
3.391000781E1,2.235899925E0,-4.246900082E0,2.041999996E-1
3.394000000E1,2.224299908E0,-4.656699657E0,-3.634999990E-1
3.396000312E1,2.060299873E0,-4.814799786E0,-3.710999787E-1
3.399000000E1,1.826299906E0,-4.859399796E0,-5.637999773E-1
3.401000469E1,1.303799987E0,-5.178400040E0,-9.116999507E-1
3.404000000E1,-5.939999968E-2,-6.467199802E0,-1.251899958E0
3.406000469E1,-5.000000000E-1,-7.063799858E0,-1.105700016E0
3.409000000E1,-3.799999831E-3,-5.721399784E0,-8.240000159E-2
3.411000625E1,5.087000132E-1,-3.899399996E0,2.243999988E-1
3.414000000E1,8.109999895E-1,-1.210399985E0,-1.542999893E-1
3.416000625E1,6.150999665E-1,-1.688999981E-1,-8.495000005E-1
3.419000000E1,4.542999864E-1,3.139999807E-1,-1.565899968E0
3.421000156E1,-1.744000018E-1,5.033999681E-1,-1.533100009E0
3.424000000E1,-1.522199988E0,1.189999934E-2,-1.009299994E0
3.426002813E1,-1.865999937E0,1.083000004E-1,-2.859999835E-1
3.429000000E1,-1.137099981E0,9.158999920E-1,7.488999963E-1
3.431000469E1,-8.399999887E-2,1.372900009E0,7.321000099E-1
3.434000000E1,1.015499949E0,1.831699967E0,3.125999868E-1
3.436000000E1,1.152999997E0,1.828799963E0,1.551999897E-1
3.438000000E1,1.092700005E0,1.720499992E0,-5.999999703E-4
3.440000000E1,6.693999767E-1,1.709599972E0,2.303999960E-1
3.442004062E1,2.696999907E-1,1.618699908E0,5.530999899E-1
3.445000000E1,-3.594000041E-1,1.914199948E0,5.153999925E-1
3.447000469E1,-9.516999722E-1,2.397699833E0,4.073999822E-1
3.450000000E1,-1.717299938E0,3.155999899E0,4.700999856E-1
3.452000938E1,-2.627799988E0,3.616099834E0,5.352999568E-1
3.455000000E1,-4.235700130E0,4.259599686E0,3.524999917E-1
3.457000781E1,-5.101999760E0,4.602600098E0,2.630999982E-1
3.460002031E1,-6.835399628E0,3.721699953E0,5.569999814E-1
3.463000000E1,-6.961499691E0,3.278999805E0,2.011699915E0
3.465000000E1,-6.364199638E0,3.458400011E0,2.448600054E0
3.467000312E1,-5.212999821E0,3.872200012E0,2.502799988E0
3.470000000E1,-2.623800039E0,4.202199936E0,2.780799866E0
3.472000625E1,-1.718299985E0,3.306200027E0,2.434799910E0
3.475000000E1,-1.177699924E0,1.282799959E0,2.148200035E0
3.477000781E1,-1.327399969E0,2.222999930E-1,1.822399974E0
3.480000000E1,-2.125099897E0,-1.036199927E0,1.475099921E0
3.482001094E1,-2.101799965E0,-1.460399985E0,1.432799935E0
3.485000000E1,-1.110899925E0,-1.791599989E0,1.361199975E0
3.487000938E1,-4.597999752E-1,-2.147399902E0,1.293299913E0
3.490000000E1,1.083000004E-1,-2.627799988E0,1.065999985E0
3.492000000E1,4.150999784E-1,-2.812700033E0,7.365999818E-1
3.494000000E1,3.421999812E-1,-3.042899847E0,1.209999993E-1
3.496000000E1,3.484999835E-1,-3.323799849E0,-4.915999770E-1
3.498000469E1,6.872999668E-1,-3.763299942E0,-9.738000035E-1
3.501000000E1,1.147099972E0,-4.824599743E0,-1.002200007E0
3.503000156E1,1.841099977E0,-5.343899727E0,-9.088999629E-1
3.506000000E1,3.015399933E0,-5.987799644E0,-1.229300022E0
3.508000156E1,3.526700020E0,-6.792799950E0,-1.601499915E0
3.511000000E1,4.455100060E0,-7.751599789E0,-2.044299841E0
3.513000938E1,4.714200020E0,-8.181499481E0,-2.180199862E0
3.516000000E1,4.041399956E0,-7.041299820E0,-1.930999994E0
3.518000625E1,1.660300016E0,-6.610799789E0,-2.969099998E0
3.521000000E1,-1.379699945E0,-6.440700054E0,-4.042099953E0
3.523000781E1,-2.675199986E0,-6.060499668E0,-4.022599697E0
3.526000000E1,-2.828500032E0,-3.722699881E0,-1.652199984E0
3.528001094E1,-3.072799921E0,-1.448599935E0,-6.531999707E-1
3.531000000E1,-4.056499958E0,1.802199960E0,6.475999951E-1
3.533000156E1,-4.560100079E0,3.045300007E0,1.644099951E0
3.536000000E1,-4.922299862E0,3.142099857E0,2.622499943E0
3.538000156E1,-4.135499954E0,2.524399996E0,3.055399895E0
3.541000000E1,-1.409600019E0,1.675699949E0,2.358199835E0
3.543000312E1,2.027999908E-1,1.625599980E0,1.444899917E0
3.546000000E1,2.004499912E0,1.441999912E0,8.199999481E-2
3.548000312E1,2.536799908E0,1.138700008E0,-3.509999812E-1
3.551000625E1,2.295699835E0,9.756000042E-1,-3.450999856E-1
3.553001250E1,1.343400002E0,8.905999660E-1,-1.835999936E-1
3.556000000E1,-6.194999814E-1,1.402599931E0,5.230999589E-1
3.558000000E1,-1.450199962E0,2.117199898E0,1.094599962E0
3.560000000E1,-2.117300034E0,3.541800022E0,1.335899949E0
3.562000000E1,-2.942299843E0,4.716199875E0,1.370499969E0
3.564000625E1,-4.192299843E0,5.408400059E0,1.581799984E0
3.567000000E1,-5.612699986E0,6.189099789E0,2.202699900E0
3.569000469E1,-6.090600014E0,6.405299664E0,2.200199842E0
3.571000781E1,-6.815999985E0,5.872399807E0,1.665799975E0
3.574000625E1,-7.805299759E0,4.403100014E0,1.537199974E0
3.577000000E1,-8.318900108E0,4.060899734E0,2.009000063E0
3.579002031E1,-7.290999889E0,4.593199730E0,2.963399887E0
3.582000781E1,-5.169699669E0,3.662299871E0,3.596699953E0
3.584000938E1,-3.541299820E0,1.974799991E0,3.271999836E0
3.587000000E1,-2.018599987E0,-3.217999935E-1,1.627799988E0
3.589000312E1,-1.852800012E0,-1.241299987E0,6.319999695E-1
3.592000000E1,-2.715100050E0,-1.644699931E0,1.078499913E0
3.594002031E1,-2.654799938E0,-2.074399948E0,2.651099920E0
3.597000000E1,-1.627900004E0,-2.799799919E0,4.643899918E0
3.599000625E1,-8.806999922E-1,-3.590299845E0,4.765599728E0
3.602000000E1,-5.588999987E-1,-4.857899666E0,3.135099888E0
3.604000000E1,-5.831999779E-1,-5.358799934E0,2.378900051E0
3.606000000E1,-5.191999674E-1,-6.043799877E0,1.798200011E0
3.608000000E1,-3.146999776E-1,-6.340799809E0,1.514799953E0
3.610000000E1,-1.740999967E-1,-6.430500031E0,1.427199960E0
3.612000000E1,1.115999967E-1,-6.819299698E0,1.921299934E0
3.614000000E1,6.649999619E-1,-7.225699902E0,2.311399937E0
3.616000000E1,1.145299911E0,-7.182899952E0,2.118200064E0
3.618000000E1,1.211599946E0,-6.890999794E0,1.313399911E0
3.620000000E1,1.279399991E0,-6.820899963E0,4.255999923E-1
3.622000938E1,1.620000005E0,-7.123999596E0,-4.409999773E-2
3.625000000E1,2.501699924E0,-7.594099998E0,-3.452000022E-1
3.627000000E1,2.503799915E0,-8.453599930E0,-6.586999893E-1
3.629000156E1,2.428999901E0,-8.859000206E0,-1.383199930E0
3.632000000E1,2.413599968E0,-7.900099754E0,-2.008699894E0
3.634000000E1,1.988999963E0,-6.470200062E0,-2.207399845E0
3.636000000E1,1.441699982E0,-4.721600056E0,-2.438099861E0
3.638000000E1,7.141999602E-1,-3.231599808E0,-3.468400002E0
3.640000625E1,-3.109999932E-2,-2.470499992E0,-4.396699905E0
3.643000000E1,-9.353999496E-1,-1.573099971E0,-3.531599998E0
3.645000469E1,-1.858699918E0,-1.080899954E0,-2.796799898E0
3.648000625E1,-2.727599859E0,-2.597999871E-1,-1.985399961E0
3.650001094E1,-2.535599947E0,4.629999772E-2,-1.166399956E0
3.653000000E1,-1.782400012E0,5.069000125E-1,4.377999902E-1
3.655000781E1,-1.015799999E0,1.076300025E0,1.417299986E0
3.658000000E1,-1.557999998E-1,1.602199912E0,1.758799911E0
3.660000625E1,5.509999767E-2,1.611199975E0,1.465799928E0
3.663000000E1,-2.475999892E-1,1.483299971E0,1.010900021E0
3.665001250E1,-6.337999701E-1,1.273599982E0,1.251500010E0
3.668000000E1,-6.934999824E-1,1.306900024E0,1.808099985E0
3.670000000E1,-1.045899987E0,1.824699998E0,2.207900047E0
3.672000000E1,-1.400499940E0,2.467799902E0,2.574300051E0
3.674000000E1,-2.009199858E0,3.240799904E0,2.647199869E0
3.676000000E1,-2.911199808E0,3.960699797E0,2.697599888E0
3.678000000E1,-4.315999985E0,4.682899952E0,2.360899925E0
3.680000000E1,-5.565199852E0,5.388599873E0,2.007699966E0
3.682000000E1,-6.428499699E0,5.813699722E0,1.513000011E0
3.684000000E1,-7.145899773E0,5.285500050E0,8.066999912E-1
3.686000625E1,-7.455599785E0,4.220699787E0,4.120999873E-1
3.689000000E1,-6.921799660E0,2.721099854E0,1.455999911E-1
3.691000938E1,-4.998300076E0,3.014199972E0,8.658999801E-1
3.694000000E1,-2.100999832E0,3.240899801E0,1.487599969E0
3.696000625E1,-6.882999539E-1,2.920099974E0,1.729599953E0
3.698001094E1,-4.341999888E-1,1.817999959E0,1.598399997E0
3.701000313E1,-5.241999626E-1,3.100999892E-1,1.510299921E0
3.704000000E1,-7.851999998E-1,-9.250999689E-1,1.274899960E0
3.706000312E1,-1.109799981E0,-1.274699926E0,1.075999975E0
3.709000000E1,-1.224799991E0,-1.432699919E0,1.008399963E0
3.711000000E1,-9.463999867E-1,-1.448599935E0,1.156599998E0
3.713000000E1,-5.841999650E-1,-1.655200005E0,1.326499939E0
3.715000000E1,-6.589999795E-2,-1.878999949E0,1.534600019E0
3.717000000E1,2.861000001E-1,-2.174799919E0,1.682500005E0
3.719000000E1,5.586000085E-1,-2.416800022E0,1.650799990E0
3.721000000E1,7.692999840E-1,-2.749599934E0,1.589999914E0
3.723000000E1,1.245599985E0,-3.050299883E0,1.540799975E0
3.725000000E1,1.258999944E0,-3.725699902E0,1.407599926E0
3.727000000E1,1.495299935E0,-4.128200054E0,1.497200012E0
3.729000000E1,1.593599916E0,-4.450500011E0,1.200399995E0
3.731000000E1,1.726199985E0,-4.826499939E0,9.940999746E-1
3.733000000E1,1.783800006E0,-4.934000015E0,6.815999746E-1
3.735000000E1,1.632799983E0,-5.052599907E0,6.599999964E-2
3.737000156E1,1.005100012E0,-5.157000065E0,-4.188999832E-1
3.740000000E1,6.719999760E-2,-5.790299892E0,-6.123999953E-1
3.742000469E1,5.549999699E-2,-6.635599613E0,-6.686999798E-1
3.745000000E1,2.334999889E-1,-7.451499939E0,-1.549899936E0
3.747000469E1,4.253999889E-1,-6.934799671E0,-2.081300020E0
3.750000000E1,1.143999934E0,-4.286200047E0,-2.019899845E0
3.752000469E1,1.442499995E0,-2.276399851E0,-1.684099913E0
3.755000000E1,8.543999791E-1,-4.524999857E-1,-2.189800024E0
3.757000469E1,4.778999984E-1,5.449999869E-2,-2.622900009E0
3.760000000E1,-4.118999839E-1,3.540000021E-1,-2.590899944E0
3.762000156E1,-1.264099956E0,4.833000004E-1,-2.285099983E0
3.765000156E1,-1.552699924E0,5.327000022E-1,-1.047600031E0
3.767000625E1,-8.819999695E-1,7.814999819E-1,-9.290000051E-2
3.770000000E1,9.569999576E-2,1.311399937E0,1.009500027E0
3.772003281E1,4.912000000E-1,1.710699916E0,1.559199929E0
3.775000000E1,2.953999937E-1,1.961299896E0,1.757200003E0
3.777000781E1,-4.409999773E-2,1.920899987E0,1.614499927E0
3.780000000E1,-4.750999808E-1,1.684799910E0,1.573099971E0
3.782001250E1,-8.511999846E-1,1.719900012E0,1.764599919E0
3.785000000E1,-1.038299918E0,2.627699852E0,2.015499830E0
3.787000000E1,-1.189399958E0,3.153199911E0,1.872900009E0
3.789000000E1,-1.721300006E0,3.472999811E0,1.737399936E0
3.791000000E1,-2.554899931E0,3.801599979E0,1.596899986E0
3.793000312E1,-3.410399914E0,4.321899891E0,1.323599935E0
3.796000000E1,-5.404599667E0,4.291699886E0,6.778999567E-1
3.798002969E1,-6.873499870E0,3.916799784E0,7.550999522E-1
3.801000000E1,-8.484499931E0,3.832499981E0,1.352800012E0
3.803000781E1,-6.942999840E0,5.067399979E0,1.943499923E0
3.806000000E1,-3.834199905E0,4.270499706E0,2.135299921E0
3.808000625E1,-2.386600018E0,2.704799891E0,1.705799937E0
3.811000000E1,-1.243600011E0,1.239999980E-1,1.330500007E0
3.813000625E1,-1.085299969E0,-7.942999601E-1,9.108999968E-1
3.816000000E1,-1.282699943E0,-1.235599995E0,-9.119999409E-2
3.818000625E1,-9.019999504E-1,-1.418399930E0,-6.976999640E-1
3.820002344E1,-5.331000090E-1,-1.626099944E0,-8.062999845E-1
3.823000156E1,-5.943999887E-1,-1.907399893E0,1.972000003E-1
3.826000000E1,-3.260999918E-1,-2.317699909E0,8.073999882E-1
3.828001094E1,-2.125999928E-1,-2.686399937E0,1.041000009E0
3.831000000E1,-1.150000002E-2,-3.264599800E0,1.148699999E0
3.833000313E1,6.399999559E-2,-3.746199846E0,1.052500010E0
3.836000000E1,3.504999876E-1,-4.426700115E0,7.098000050E-1
3.838000000E1,8.008999825E-1,-4.835299969E0,2.958000004E-1
3.840000000E1,1.638999939E0,-5.054699898E0,-2.929999866E-2
3.842000000E1,2.480200052E0,-5.136300087E0,-2.308999896E-1
3.844000313E1,3.295199871E0,-5.071899891E0,-2.870999873E-1
3.847000000E1,3.918499947E0,-5.938199997E0,-9.945999980E-1
3.849000000E1,4.467599869E0,-6.431099892E0,-1.607699990E0
3.851000000E1,4.605199814E0,-6.760799885E0,-2.230999947E0
3.853000000E1,4.140199661E0,-6.667599678E0,-2.366600037E0
3.855000000E1,2.328500032E0,-6.116299629E0,-2.011399984E0
3.857000000E1,1.221999973E-1,-5.440299988E0,-1.479300022E0
3.859000781E1,-2.212199926E0,-4.546099663E0,-1.401600003E0
3.862000156E1,-4.528500080E0,-3.416299820E0,-2.130899906E0
3.864000312E1,-4.532700062E0,-2.592900038E0,-2.110699892E0
3.867000000E1,-2.434200048E0,-3.962999880E-1,-1.093999982E0
3.869000938E1,-7.473999858E-1,1.132699966E0,-8.235999942E-1
3.872000000E1,5.699999630E-3,2.703799963E0,-5.497999787E-1
3.874000938E1,-1.327999979E-1,2.730099916E0,2.300000051E-3
3.877000000E1,-1.483699918E0,1.944499969E0,3.368999958E-1
3.879000781E1,-2.450299978E0,1.068699956E0,4.451999962E-1
3.882000000E1,-2.756700039E0,2.243999988E-1,1.493799925E0
3.884000000E1,-2.076599836E0,2.324000001E-1,2.216399908E0
3.886000000E1,-1.058799982E0,7.813000083E-1,2.669399977E0
3.888000000E1,2.351999879E-1,1.564499974E0,2.597800016E0
3.890000000E1,9.911999702E-1,1.934199929E0,2.259199858E0
3.892000000E1,8.389999866E-1,1.958099961E0,1.720799923E0
3.894000313E1,4.888999760E-1,1.757299900E0,9.672999978E-1
3.897000625E1,-2.556000054E-1,1.661700010E0,2.746999860E-1
3.900000000E1,-9.316999912E-1,1.836799979E0,-8.259999752E-2
3.902000000E1,-1.111599922E0,2.342099905E0,-1.630000025E-2
3.904000000E1,-9.458999634E-1,3.241400003E0,-1.395999938E-1
3.906000000E1,-6.926999688E-1,4.134399891E0,-5.284999609E-1
3.908000000E1,-7.224000096E-1,4.401899815E0,-8.452999592E-1
3.910000156E1,-1.224399924E0,4.107899666E0,-1.020699978E0
3.913000000E1,-2.369299889E0,3.405900002E0,-1.066299915E0
3.915000781E1,-4.077799797E0,2.066799879E0,-1.156399965E0
3.918000000E1,-6.154200077E0,2.423999906E-1,3.185999990E-1
3.920000938E1,-5.193299770E0,7.344999909E-1,1.620700002E0
3.923000000E1,-2.609899998E0,1.878499985E0,1.831599951E0
3.925000156E1,-7.655999660E-1,2.463700056E0,1.833999991E0
3.928000000E1,1.288999915E0,2.425699949E0,1.735799909E0
3.930000781E1,1.431100011E0,1.407699943E0,1.445099950E0
3.933000000E1,9.183999896E-1,-4.143999815E-1,1.341699958E0
3.935000312E1,2.867999971E-1,-1.418299913E0,1.230399966E0
3.938000000E1,-2.520999908E-1,-1.940899968E0,3.753999770E-1
3.940000313E1,-2.626000047E-1,-1.880999923E0,8.599999547E-2
3.943000000E1,-1.959999949E-1,-1.515200019E0,5.230999589E-1
3.945000938E1,2.617000043E-1,-1.281599998E0,1.337499976E0
3.948000000E1,1.046999931E0,-1.305899978E0,2.185400009E0
3.950000625E1,1.540499926E0,-1.296899915E0,2.210799932E0
3.953000000E1,1.755599976E0,-1.485899925E0,1.723500013E0
3.955000469E1,1.643599987E0,-1.658499956E0,1.346400023E0
3.958000000E1,1.541999936E0,-1.733599901E0,9.235999584E-1
3.960000000E1,1.253999949E0,-1.768899918E0,7.513999939E-1
3.962000000E1,8.248999715E-1,-1.851399899E0,5.368999839E-1
3.964000000E1,5.040999651E-1,-1.852699995E0,1.000999957E-1
3.966000312E1,-1.697999984E-1,-2.113899946E0,-4.659999907E-1
3.969000000E1,-1.060500026E0,-2.503799915E0,-8.845999837E-1
3.971000469E1,-1.425499916E0,-3.076999903E0,-1.089200020E0
3.973000781E1,-1.673699975E0,-3.763999939E0,-1.046000004E0
3.976000313E1,-1.887599945E0,-3.985399961E0,-6.061999798E-1
3.979000000E1,-5.328999758E-1,-3.124300003E0,1.877999902E-1
3.981000938E1,7.833999991E-1,-1.932500005E0,4.853999913E-1
3.984000000E1,1.947099924E0,1.515000015E-1,3.076999784E-1
3.986000938E1,1.880299926E0,9.929999709E-1,-5.728999972E-1
3.989000000E1,9.967999458E-1,1.332199931E0,-1.429700017E0
3.991000469E1,1.453000009E-1,1.245800018E0,-1.736400008E0
3.994000000E1,-7.509999871E-1,6.893000007E-1,-1.540399909E0
3.996001094E1,-3.984999955E-1,5.927000046E-1,-9.578999877E-1
3.999000000E1,9.796999693E-1,6.191999912E-1,-4.806999862E-1
4.001000313E1,1.616699934E0,7.357999682E-1,-1.828999966E-1
4.004000000E1,1.966599941E0,8.187999725E-1,3.779999912E-2
4.006000156E1,1.747799993E0,7.821999788E-1,6.300000101E-2
4.009000000E1,1.431699991E0,6.706999540E-1,-1.336999983E-1
4.011000156E1,1.242499948E0,7.053999901E-1,-1.215000004E-1
4.014000000E1,8.965999484E-1,9.940999746E-1,9.269999713E-2
4.016000469E1,8.795999885E-1,1.292799950E0,4.356999993E-1
4.019000000E1,1.081599951E0,1.648000002E0,6.419999599E-1
4.021000000E1,4.259999990E-1,1.755699992E0,3.252999783E-1
4.023000000E1,-1.000800014E0,1.795099974E0,-1.658999920E-1
4.025000000E1,-2.306699991E0,1.779299974E0,-9.709999561E-1
4.027000469E1,-3.467999935E0,1.758299947E0,-1.637399912E0
4.030000000E1,-4.805299759E0,1.036800027E0,-1.555599928E0
4.032000781E1,-4.928999901E0,8.835999966E-1,-1.040499926E0
4.035000000E1,-4.730099678E0,1.739499927E0,-4.878999889E-1
4.037000000E1,-3.522399902E0,3.143899918E0,-2.326999903E-1
4.039000000E1,-1.298399925E0,4.459000111E0,-8.339999616E-2
4.041000000E1,2.058999985E-1,4.249599934E0,-4.129000008E-1
4.043000000E1,6.308000088E-1,3.145599842E0,-3.838999867E-1
4.045000000E1,1.969999969E-1,1.975899935E0,-3.236999810E-1
4.047000313E1,-2.372999936E-1,1.058899999E0,-1.096999943E-1
4.050000000E1,-7.588999867E-1,-7.599999756E-2,7.159999758E-2
4.052000469E1,-9.837999940E-1,-7.705999613E-1,2.012999952E-1
4.055000000E1,-3.229999840E-1,-1.270799994E0,8.726999760E-1
4.057002031E1,2.708999813E-1,-1.509699941E0,1.352699995E0
4.060000000E1,1.277999997E0,-1.569099903E0,1.723199964E0
4.062000625E1,1.704399943E0,-1.582299948E0,1.472599983E0
4.065000000E1,2.013200045E0,-1.763700008E0,6.710999608E-1
4.067000000E1,2.138099909E0,-1.908100009E0,3.208999932E-1
4.069000000E1,2.322299957E0,-2.092700005E0,-7.079999894E-2
4.071000000E1,2.562399864E0,-2.408799887E0,-2.657999992E-1
4.073000000E1,2.613899946E0,-2.681999922E0,-3.631999791E-1
4.075000000E1,2.597800016E0,-3.027499914E0,-7.188000083E-1
4.077000000E1,2.356899977E0,-3.309099913E0,-7.626000047E-1
4.079000000E1,1.302699924E0,-3.558899879E0,-6.383000016E-1
4.081000000E1,8.622999787E-1,-3.615000010E0,-8.768999577E-1
4.083000938E1,3.935000002E-1,-3.622099876E0,-1.282999992E0
4.086000000E1,-7.484999895E-1,-2.894699812E0,-1.649500012E0
4.088000781E1,-1.910499930E0,-2.743000031E0,-1.882599950E0
4.091000000E1,-2.329999924E0,-2.624500036E0,-1.147099972E0
4.093000469E1,-1.907299995E0,-2.451999903E0,-5.690000057E-1
4.096000000E1,-7.407999635E-1,-2.741999924E-1,4.337999821E-1
4.098000625E1,-6.791999936E-1,1.115199924E0,3.240000010E-1
4.101000000E1,-1.541199923E0,2.293099880E0,-2.369999886E-2
4.103000312E1,-2.151999950E0,2.572799921E0,-5.849999934E-2
4.106000000E1,-3.028800011E0,2.862399817E0,1.902999878E-1
4.108000156E1,-2.736699820E0,2.825899839E0,4.943999946E-1
4.111000000E1,-5.284000039E-1,2.357399940E0,5.236999989E-1
4.113000938E1,1.022899985E0,2.060199976E0,5.712000132E-1
4.116000000E1,2.618099928E0,1.200399995E0,2.446999997E-1
4.118000781E1,3.223899841E0,7.208999991E-1,-9.869999439E-2
4.121000000E1,3.294199944E0,6.099999696E-2,-3.562999964E-1
4.123000000E1,2.815199852E0,-2.597999871E-1,-3.025999963E-1
4.125000000E1,2.330800056E0,-4.526999891E-1,-1.027999967E-1
4.127000000E1,1.877699971E0,-4.233999848E-1,2.215999961E-1
4.129000000E1,1.453799963E0,-3.769999743E-2,3.714999855E-1
4.131000000E1,7.174999714E-1,6.664999723E-1,2.177999914E-1
4.133000000E1,-9.209999442E-2,1.522099972E0,-1.111999974E-1
4.135000000E1,-8.152999878E-1,1.988199949E0,-6.198999882E-1
4.137000000E1,-1.126299977E0,1.756599903E0,-7.644999623E-1
4.139000312E1,-1.579899907E0,1.476799965E0,-8.877999783E-1
4.142000469E1,-3.334199905E0,1.788999915E0,-1.096599936E0
4.144000625E1,-4.416399956E0,2.007599831E0,-8.398999572E-1
4.147000000E1,-4.918499947E0,2.250799894E0,-7.035999894E-1
4.149001094E1,-4.523099899E0,2.700799942E0,-3.986999989E-1
4.152000000E1,-1.970600009E0,3.662599802E0,9.329999983E-2
4.154000938E1,-2.556000054E-1,3.471899986E0,2.491999865E-1
4.157000000E1,-2.524999976E-1,1.985099912E0,1.175400019E0
4.159000469E1,-8.654999733E-1,1.265699983E0,1.081300020E0
4.162000469E1,-1.085399985E0,2.254000008E-1,5.655999780E-1
4.165000000E1,-8.302999735E-1,-2.740000002E-2,4.208999872E-1
4.167000000E1,-5.241999626E-1,-6.819999963E-2,6.399999857E-1
4.169000781E1,1.713999957E-1,-2.259999886E-2,9.052000046E-1
4.172000000E1,1.071799994E0,-1.556999981E-1,1.056499958E0
4.174000312E1,1.336699963E0,-2.798999846E-1,1.098099947E0
4.177000000E1,1.283999920E0,-5.794999599E-1,1.017699957E0
4.179000156E1,1.140100002E0,-9.140999913E-1,7.619999647E-1
4.182001406E1,1.011799932E0,-1.722999930E0,3.951999843E-1
4.185000000E1,1.083999991E0,-2.497499943E0,2.829999924E-1
4.187000000E1,1.143899918E0,-2.999099970E0,3.350999951E-1
4.189000469E1,1.149399996E0,-3.453499794E0,2.874000072E-1
4.192000000E1,8.621000051E-1,-4.049900055E0,-1.191999987E-1
4.194000000E1,5.503999591E-1,-4.337100029E0,-5.586000085E-1
4.196000000E1,2.485999912E-1,-4.736299992E0,-5.381000042E-1
4.198000000E1,1.005999967E-1,-5.066699982E0,-4.453999996E-1
4.200000625E1,-2.669000030E-1,-5.587299824E0,-6.764999628E-1
4.203000000E1,-6.548999548E-1,-5.447000027E0,-1.168200016E0
4.205001094E1,-9.678999782E-1,-4.446000099E0,-1.248299956E0
4.208000000E1,-1.269000024E-1,-1.815599918E0,-9.930999875E-1
4.210000938E1,7.384999990E-1,-7.629999518E-2,-1.177199960E0
4.213000000E1,9.055999517E-1,1.155300021E0,-1.781599998E0
4.215000000E1,3.109999895E-1,1.464399934E0,-1.872299910E0
4.217000000E1,-7.177999616E-1,1.544299960E0,-1.812999964E0
4.219000000E1,-1.685899973E0,1.163999915E0,-1.518000007E0
4.221000000E1,-1.524500012E0,9.389999509E-1,-5.964999795E-1
4.223000000E1,-5.898999572E-1,6.579999924E-1,-7.000000030E-2
4.225000156E1,5.690999627E-1,3.224999905E-1,5.340999961E-1
4.228000000E1,2.052000046E0,1.379999965E-1,9.447000027E-1
4.230000469E1,2.325099945E0,2.579999901E-2,9.763999581E-1
4.233000000E1,2.408099890E0,-2.581999898E-1,7.486999631E-1
4.235001094E1,2.299200058E0,-5.098999739E-1,6.545999646E-1
4.238000000E1,1.960199952E0,-6.061999798E-1,6.588999629E-1
4.240000156E1,1.506799936E0,-3.337000012E-1,5.085999966E-1
4.243000000E1,7.755999565E-1,9.079999477E-2,3.448999822E-1
4.245000156E1,5.954999924E-1,6.263999939E-1,2.685999870E-1
4.248000000E1,9.470000118E-2,1.045099974E0,-1.187999994E-1
4.250000000E1,-6.119999886E-1,1.092700005E0,-3.748999834E-1
4.252000000E1,-1.508299947E0,1.358299971E0,-6.765999794E-1
4.254000000E1,-2.646600008E0,1.791599989E0,-1.017599940E0
4.256000000E1,-4.268300056E0,2.113399982E0,-1.664199948E0
4.258000000E1,-5.975999832E0,2.370300055E0,-1.620599985E0
4.260000000E1,-7.289299965E0,2.980399847E0,-1.303699970E0
4.262000000E1,-7.645099640E0,3.976399899E0,-2.106999904E-1
4.264000156E1,-6.480899811E0,5.735399723E0,9.578999877E-1
4.266001250E1,-4.144199848E0,7.015599728E0,1.379099965E0
4.269000000E1,-1.992199898E0,4.624399662E0,1.377200007E0
4.271000625E1,-1.399799943E0,2.701400042E0,2.054600000E0
4.274000000E1,-5.331999660E-1,8.012999892E-1,1.594499946E0
4.276000938E1,-1.709999889E-1,4.018999934E-1,6.943999529E-1
4.279000000E1,-3.861999810E-1,7.256000042E-1,2.583999932E-1
4.281001094E1,-3.711999953E-1,8.001999855E-1,6.297999620E-1
4.284000000E1,1.120999977E-1,3.554999828E-1,1.261199951E0
4.286001094E1,5.904999971E-1,-1.017000005E-1,1.241500020E0
4.289000156E1,1.403800011E0,-1.019099951E0,7.408999801E-1
4.292000000E1,1.075199962E0,-1.439899921E0,2.597999871E-1
4.294000000E1,3.719999790E-1,-1.243199944E0,-3.982999921E-1
4.296001094E1,-7.487999797E-1,-7.605999708E-1,-1.551699996E0
4.299000000E1,-8.161999583E-1,-1.607299924E0,-1.675300002E0
4.301000313E1,2.339999937E-2,-3.505999804E0,-5.347999930E-1
4.304000000E1,1.492100000E0,-5.452399731E0,1.994999945E-1
4.306000000E1,1.503899932E0,-5.545599937E0,1.744999886E-1
4.308000000E1,9.093999863E-1,-5.073199749E0,-1.988999993E-1
4.310000000E1,7.042999864E-1,-4.808399677E0,-1.027899981E0
4.312000781E1,3.319999874E-1,-5.464099884E0,-1.518299937E0
4.315000000E1,4.769999981E-1,-5.233200073E0,-1.299700022E0
4.317000469E1,3.712999821E-1,-4.221899986E0,-1.113399982E0
4.320000000E1,4.651999772E-1,-2.149299860E0,-3.753999770E-1
4.322002656E1,7.049999833E-1,-8.877999783E-1,-4.398999810E-1
4.325000000E1,1.030000020E-2,-5.487999916E-1,-5.166000128E-1
4.327000781E1,-4.254999757E-1,-5.976999998E-1,-4.614999890E-1
4.330000000E1,-1.535699964E0,-4.408999979E-1,-5.273000002E-1
4.332001094E1,-1.552999973E0,-1.483999938E-1,-2.996000051E-1
4.335000000E1,3.522000015E-1,-1.184000000E-1,4.961999953E-1
4.337000781E1,1.770699978E0,-2.184000015E-1,9.457999468E-1
4.340000000E1,2.843199968E0,-1.703999937E-1,1.275699973E0
4.342002031E1,2.941499949E0,-2.787999809E-1,1.368899941E0
4.345001719E1,2.442699909E0,-3.270999789E-1,1.057600021E0
4.348000000E1,1.553099990E0,-3.531999886E-1,6.676999927E-1
4.350000000E1,1.068899989E0,-2.563999891E-1,4.865999818E-1
4.352000938E1,7.362999916E-1,1.290999949E-1,6.236000061E-1
4.355000000E1,6.168999672E-1,8.297999501E-1,9.023000002E-1
4.357000781E1,3.759999871E-1,1.114199996E0,7.465999722E-1
4.360000000E1,-4.145999849E-1,2.006000042E0,-4.999999655E-4
4.362000000E1,-1.624699950E0,2.862699986E0,-8.328999877E-1
4.364000000E1,-3.056499958E0,3.790799856E0,-1.728299975E0
4.366000000E1,-5.029200077E0,4.462500095E0,-2.346600056E0
4.368000000E1,-6.414999962E0,4.601699829E0,-1.578400016E0
4.370000000E1,-7.398599625E0,4.251100063E0,-8.636999726E-1
4.372000000E1,-7.352399826E0,4.277699947E0,-4.630999863E-1
4.374000000E1,-6.271399975E0,4.670599937E0,-3.069999814E-1
4.376000000E1,-4.544099808E0,5.104599953E0,2.247999907E-1
4.378000469E1,-2.353199959E0,4.713599682E0,9.894999862E-1
4.381000000E1,-9.667999744E-1,2.326699972E0,1.801999927E0
4.383000469E1,-4.926999807E-1,9.982999563E-1,1.873199940E0
4.385000625E1,-2.926000059E-1,4.811999798E-1,1.477399945E0
4.388000312E1,-1.344599962E0,3.312999904E-1,6.758999825E-1
4.391000000E1,-1.901299953E0,1.132999957E-1,8.524000049E-1
4.393000313E1,-1.545799971E0,-4.307999909E-1,1.045799971E0
4.396000000E1,-2.500000000E-1,-1.502599955E0,1.669199944E0
4.398000625E1,6.638999581E-1,-2.354399920E0,2.053299904E0
4.401000000E1,1.192700028E0,-2.802700043E0,2.893499851E0
4.403000625E1,1.203899980E0,-3.062700033E0,2.890799999E0
4.406000000E1,9.528999925E-1,-2.964399815E0,1.510199904E0
4.408000781E1,1.532299995E0,-3.334899902E0,6.019999981E-1
4.411000000E1,2.611299992E0,-3.795699835E0,4.789999872E-2
4.413000625E1,2.484099865E0,-3.401899815E0,-1.291999966E-1
4.416000000E1,1.739799976E0,-3.431699991E0,-1.098600030E0
4.418000313E1,1.612999916E0,-4.049099922E0,-1.592999935E0
4.421000000E1,1.134799957E0,-4.756499767E0,-1.359699965E0
4.423000000E1,4.923999906E-1,-4.553100109E0,-3.073000014E-1
4.425000000E1,-7.098999619E-1,-4.537600040E0,5.187000036E-1
4.427000000E1,-1.840699911E0,-4.737499714E0,1.540599942E0
4.429000000E1,-2.764499903E0,-4.455199718E0,2.107300043E0
4.431000000E1,-2.857100010E0,-4.042699814E0,2.450700045E0
4.433000000E1,-1.773699999E0,-3.127399921E0,2.003000021E0
4.435000000E1,1.554999948E-1,-1.315299988E0,1.660599947E0
4.437000000E1,9.240999818E-1,-4.470000044E-2,4.596999884E-1
4.439000625E1,8.852999806E-1,6.929999590E-1,-4.003999829E-1
4.441001094E1,6.741999984E-1,1.282999992E0,-1.445999980E0
4.444000469E1,-4.255999923E-1,1.841599941E0,-2.609999895E0
4.447000000E1,-1.331599951E0,2.121799946E0,-2.693399906E0
4.449000938E1,-9.848999977E-1,1.940699935E0,-2.241799831E0
4.452000000E1,7.519999892E-2,2.221400023E0,-1.383000016E0
4.454000625E1,6.703999639E-1,2.512300014E0,-5.356000066E-1
4.457000000E1,1.051999927E0,2.499699831E0,3.337999880E-1
4.459000781E1,1.105499983E0,2.097599983E0,8.122999668E-1
4.462000000E1,1.180999994E0,1.420199990E0,1.326599956E0
4.464000781E1,8.094999790E-1,1.138800025E0,1.396099925E0
4.467000000E1,3.001999855E-1,1.137899995E0,1.662999988E0
4.469000156E1,3.811999857E-1,1.415099978E0,1.614300013E0
4.472000000E1,3.245999813E-1,1.664099932E0,9.865999818E-1
4.474000000E1,-3.481999934E-1,1.546999931E0,1.914999932E-1
4.476000000E1,-1.276799917E0,1.598999977E0,-5.952000022E-1
4.478000000E1,-1.967799902E0,2.019799948E0,-1.107100010E0
4.480000469E1,-3.274299860E0,2.125900030E0,-1.287299991E0
4.483000000E1,-4.837899685E0,1.875099897E0,-1.614999920E-1
4.485000781E1,-5.303499699E0,1.888399959E0,2.759999968E-2
4.488000000E1,-4.050399780E0,2.915199995E0,9.540999532E-1
4.490000938E1,-1.861099958E0,3.578899860E0,8.614999652E-1
4.493000000E1,-1.578599930E0,2.383999825E0,4.847999811E-1
4.495000312E1,-1.842099905E0,1.526199937E0,8.280999660E-1
4.498000000E1,-1.750399947E0,5.918999910E-1,1.607100010E0
4.500000625E1,-1.496699929E0,2.700999975E-1,1.692899942E0
4.503000000E1,-8.277999759E-1,-1.099999994E-3,2.125499964E0
4.505000156E1,-2.406999916E-1,-3.811999857E-1,2.346999884E0
4.508000000E1,6.588999629E-1,-9.595999718E-1,1.850199938E0
4.510000156E1,1.083599925E0,-1.356699944E0,1.579399943E0
4.513000000E1,1.433699965E0,-1.805599928E0,1.415599942E0
4.515000313E1,1.488099933E0,-2.049299955E0,1.146600008E0
4.518000000E1,1.537699938E0,-2.361700058E0,6.983000040E-1
4.520000156E1,1.423699975E0,-2.679999828E0,4.944999814E-1
4.522002344E1,7.400000095E-1,-3.018599987E0,4.474999905E-1
4.525000938E1,1.448999941E-1,-3.428599834E0,6.195999980E-1
4.528000000E1,-3.285000026E-1,-3.888899803E0,3.531999886E-1
4.530000469E1,-7.845999599E-1,-4.081699848E0,-1.939999908E-1
4.533000000E1,-6.513999701E-1,-4.716199875E0,-4.854999781E-1
4.535000781E1,-7.421000004E-1,-5.352999687E0,-1.990999877E-1
4.538000000E1,-1.890999973E-1,-5.637300014E0,-1.041999981E-1
4.540000000E1,2.009999938E-2,-5.371699810E0,-2.439000010E-1
4.542000000E1,5.313000083E-1,-4.056999683E0,-1.928000003E-1
4.544000000E1,1.200399995E0,-2.409800053E0,-1.068999991E-1
4.546000781E1,1.582099915E0,-1.153499961E0,-5.636000037E-1
4.549000000E1,9.817999601E-1,-2.578999996E-1,-1.518099904E0
4.551000156E1,3.860999942E-1,2.170999944E-1,-1.957899928E0
4.554000000E1,-8.400999904E-1,9.413999915E-1,-1.752299905E0
4.556000781E1,-1.478699923E0,1.436800003E0,-1.516199946E0
4.559000625E1,-1.119400024E0,1.866199970E0,-6.128000021E-1
4.562000000E1,4.487999976E-1,1.305999994E0,6.020999551E-1
4.564000000E1,1.179999948E0,9.892999530E-1,1.022599936E0
4.566000312E1,1.317399979E0,9.362999797E-1,1.153499961E0
4.569000000E1,1.375399947E0,1.239799976E0,9.847999811E-1
4.571000469E1,1.270099998E0,1.244799972E0,6.543999910E-1
4.574000000E1,9.084999561E-1,1.535899997E0,3.070999980E-1
4.576001094E1,3.630000055E-1,2.014600039E0,7.809999585E-2
4.579000000E1,-3.100000024E-1,3.027599812E0,-3.675999939E-1
4.581000312E1,-3.522000015E-1,3.547099829E0,-8.251000047E-1
4.584000000E1,-5.336999893E-1,3.559499979E0,-1.140799999E0
4.586000781E1,-1.175199986E0,3.238499880E0,-1.286199927E0
4.589000000E1,-2.246099949E0,2.724900007E0,-1.474099994E0
4.591000312E1,-2.710099936E0,2.432399988E0,-1.770900011E0
4.594000000E1,-2.935400009E0,1.351899981E0,-1.120599985E0
4.596000000E1,-3.182399988E0,8.001999855E-1,-8.305000067E-1
4.598000000E1,-3.965199947E0,2.170999944E-1,-9.092999697E-1
4.600000000E1,-4.001500130E0,4.435999990E-1,-6.208999753E-1
4.602000156E1,-3.460299969E0,1.295300007E0,-8.137999773E-1
4.605000000E1,-1.453699946E0,2.404299974E0,-9.860000014E-1
4.607000938E1,-2.818000019E-1,2.386299849E0,-7.228999734E-1
4.610000000E1,4.696999788E-1,1.492100000E0,-5.191000104E-1
4.612000625E1,6.441999674E-1,5.715000033E-1,-3.959999979E-2
4.615000000E1,3.251000047E-1,-1.032299995E0,6.595000029E-1
4.617000781E1,-3.390000015E-2,-1.687999964E0,1.002699971E0
4.620000000E1,-3.346999884E-1,-2.281199932E0,1.375199914E0
4.622002188E1,-3.416999876E-1,-2.452899933E0,1.768399954E0
4.625000000E1,7.299999706E-3,-2.400699854E0,1.886999965E0
4.627000781E1,4.120000005E-1,-2.644500017E0,1.535899997E0
4.630000000E1,7.608999610E-1,-3.361999989E0,1.218500018E0
4.632000625E1,8.349999785E-1,-3.875499964E0,1.262499928E0
4.635000000E1,9.815999866E-1,-4.398099899E0,1.377799988E0
4.637000938E1,1.437099934E0,-4.715499878E0,9.609999657E-1
4.640000000E1,1.849099994E0,-4.944699764E0,4.443999827E-1
4.642000469E1,2.159199953E0,-4.847099781E0,3.449999914E-2
4.645001094E1,1.766899943E0,-4.523999691E0,-1.155699968E0
4.648000000E1,9.109999537E-1,-3.544899940E0,-2.293599844E0
4.650000000E1,7.864999771E-1,-2.941200018E0,-2.752599955E0
4.652000469E1,7.863999605E-1,-2.968299866E0,-3.072700024E0
4.655000000E1,1.339499950E0,-3.595599890E0,-3.568099976E0
4.657000000E1,1.125599980E0,-3.796199799E0,-3.465499878E0
4.659000000E1,-4.789999872E-2,-3.606099844E0,-3.100699902E0
4.661000000E1,-1.690699935E0,-3.652400017E0,-2.714699984E0
4.663000625E1,-2.275899887E0,-3.544799805E0,-1.313399911E0
4.666000625E1,-6.638000011E-1,-1.331499934E0,3.674999774E-1
4.668001094E1,-4.172999859E-1,-2.484999895E-1,9.721999764E-1
4.671000000E1,-8.752999902E-1,6.751999855E-1,1.157899976E0
4.673000938E1,-1.744899988E0,1.005200028E0,1.225099921E0
4.676000156E1,-3.462199926E0,1.535799980E0,1.448799968E0
4.678000781E1,-4.037699699E0,1.893599987E0,1.764799953E0
4.681000000E1,-3.290899992E0,2.125599861E0,2.294699907E0
4.683000469E1,-1.813499928E0,1.905099988E0,2.696300030E0
4.686000000E1,7.750000060E-2,1.766899943E0,3.018999815E0
4.688000469E1,7.910999656E-1,1.817600012E0,2.802500010E0
4.691000312E1,1.089599967E0,1.859999895E0,2.156299829E0
4.693000469E1,1.011600018E0,2.010900021E0,1.556100011E0
4.696000000E1,2.872999907E-1,2.660399914E0,1.176299930E0
4.698000469E1,-1.416999996E-1,3.215199947E0,1.247599959E0
4.701000000E1,-5.177000165E-1,3.711799860E0,1.227800012E0
4.703001875E1,-8.395999670E-1,3.773699999E0,9.842000008E-1
4.706000000E1,-1.940099955E0,4.020899773E0,6.218000054E-1
4.708000469E1,-2.753599882E0,4.463599682E0,3.211999834E-1
4.711000000E1,-4.460999966E0,4.665199757E0,-1.368999928E-1
4.713000000E1,-5.052599907E0,3.946699858E0,-3.019999862E-1
4.715000000E1,-4.654099941E0,2.539700031E0,-6.751999855E-1
4.717000000E1,-4.150399685E0,1.509499907E0,-7.445999980E-1
4.719000625E1,-3.149299860E0,8.165999651E-1,-8.033999801E-1
4.722000000E1,-1.151700020E0,-6.560000032E-2,-3.667999804E-1
4.724000469E1,1.595999897E-1,-2.572999895E-1,3.419999778E-2
4.727000000E1,1.156499982E0,-1.181499958E0,-1.990999877E-1
4.729000625E1,1.174899936E0,-1.830199957E0,-2.446999997E-1
4.732000000E1,1.128999963E-1,-1.666899920E0,-2.791999876E-1
4.734001094E1,-9.165999889E-1,-1.547099948E0,-3.788000047E-1
4.737000000E1,-1.485899925E0,-9.144999981E-1,-5.004000068E-1
4.739000625E1,-1.329299927E0,-8.179000020E-1,-1.793999970E-1
4.742000000E1,-4.045999944E-1,-1.510399938E0,1.299399972E0
4.744000469E1,4.904999733E-1,-2.046799898E0,1.898899913E0
4.747000000E1,1.667499900E0,-2.850600004E0,2.162899971E0
4.749000469E1,1.989799976E0,-3.208499908E0,1.899799943E0
4.752000000E1,2.290299892E0,-3.704799891E0,1.295899987E0
4.754000625E1,2.600800037E0,-3.905799866E0,1.072099924E0
4.757000000E1,2.974999905E0,-4.005799770E0,1.016700029E0
4.759000156E1,2.756799936E0,-3.866599798E0,1.052600026E0
4.762000625E1,1.465799928E0,-3.259500027E0,6.741999984E-1
4.765000000E1,3.892000020E-1,-3.056299925E0,1.600999981E-1
4.767000000E1,-3.236999810E-1,-2.965899944E0,4.619999975E-2
