"Time (s)","Gyroscope x (rad/s)","Gyroscope y (rad/s)","Gyroscope z (rad/s)"
2.134815620E-1,-1.806939393E-1,-4.610287249E-1,3.514395058E-1
2.354800000E-1,-2.594780922E-1,-3.843738735E-1,1.800307184E-1
2.554800000E-1,-2.648013532E-1,-6.325073242E-1,2.710845470E-1
2.754800000E-1,-3.128328025E-1,-7.587993145E-1,1.598197967E-1
2.954831250E-1,-4.716926813E-1,-1.023356318E0,1.177224591E-1
3.174800000E-1,-7.875274420E-1,-9.126850367E-1,1.781457514E-1
3.374815620E-1,-1.031681538E0,-4.699997008E-1,1.615825742E-1
3.594784370E-1,-1.066832542E0,3.837978840E-2,4.738568887E-2
3.794800000E-1,-9.362469912E-1,1.257160604E-1,8.398524672E-2
4.014815620E-1,-7.209606171E-1,-1.513549536E-1,6.668902934E-2
4.235221870E-1,-4.776616991E-1,-5.578072071E-1,-8.557349443E-2
4.454800000E-1,-3.055897057E-1,-4.825486243E-1,-1.994911283E-1
4.654800000E-1,-2.847504616E-1,-2.640508711E-1,-1.586853415E-1
4.874815620E-1,-4.013733566E-1,-1.860171854E-1,-1.068490595E-1
5.094784370E-1,-4.995830357E-1,-8.384561539E-2,-1.560324337E-2
5.294800000E-1,-4.796688259E-1,-1.539904028E-1,1.500983089E-1
5.514815620E-1,-4.072202146E-1,-1.916196942E-1,1.082278639E-1
5.734925000E-1,-2.029643357E-1,-3.508809805E-1,3.096388578E-1
5.954800000E-1,1.972222002E-3,-5.383816957E-1,1.533795297E-1
6.154800000E-1,2.288126573E-2,-6.372895241E-1,-6.009168550E-2
6.354800000E-1,6.059783325E-2,-8.409345150E-1,1.347045153E-1
6.554800000E-1,2.099631131E-1,-7.896567583E-1,2.562492490E-1
6.754815620E-1,2.073276639E-1,-7.223219872E-1,9.349729121E-2
6.974815620E-1,3.668681905E-2,-8.478111625E-1,-1.220334172E-1
7.174815620E-1,-1.525941342E-1,-5.814040899E-1,-1.395390779E-1
7.394800000E-1,-2.578200400E-1,-7.424630970E-2,4.848524556E-2
7.594800000E-1,-2.662499845E-1,3.247708678E-1,2.710147202E-1
7.814800000E-1,-1.506219208E-1,6.293482780E-1,3.947062194E-1
8.014800000E-1,-9.571385384E-2,6.631553173E-1,3.839200735E-1
8.214800000E-1,-8.353145421E-2,4.164530039E-1,4.385139644E-1
8.414862500E-1,5.372123420E-2,1.385791451E-1,5.054822564E-1
8.634800000E-1,3.879517913E-1,-8.789478242E-2,2.515543103E-1
8.834800000E-1,4.992863238E-1,-3.370405436E-1,-2.520255372E-2
9.034800000E-1,5.607568622E-1,-5.822592974E-1,-3.301290274E-1
9.235034370E-1,7.903374434E-1,-6.324898601E-1,-4.707502127E-1
9.454800000E-1,8.559094667E-1,-2.917492390E-1,-3.055547774E-1
9.654800000E-1,9.414829612E-1,1.717403904E-2,-1.200088412E-1
9.854800000E-1,1.207139492E0,1.911135465E-1,-1.210036799E-1
1.005480000E0,1.400714040E0,3.750712425E-2,-1.297128648E-1
1.027480000E0,1.380537987E0,-3.913726211E-1,-4.965461791E-2
1.049478437E0,1.183211088E0,-9.073268771E-1,8.705702424E-2
1.069478437E0,9.989740849E-1,-1.225657463E0,2.142042518E-1
1.089480000E0,9.934588671E-1,-1.289571404E0,3.660478890E-1
1.111478437E0,1.089068055E0,-1.172058344E0,5.405982733E-1
1.131481562E0,1.052503347E0,-9.238551259E-1,6.332403421E-1
1.153481562E0,8.242317438E-1,-7.254984379E-1,6.363645196E-1
1.175481562E0,6.653718948E-1,-7.534935474E-1,6.926862597E-1
1.197480000E0,7.575427294E-1,-1.092157245E0,8.041953444E-1
1.217481562E0,9.505237341E-1,-1.658237338E0,8.941670656E-1
1.239480000E0,1.095822453E0,-2.295439482E0,1.133818269E0
1.259480000E0,1.234453917E0,-2.937947512E0,8.743227124E-1
1.279480000E0,1.381271005E0,-3.657250166E0,6.931574941E-1
1.299480000E0,8.767312169E-1,-3.619708061E0,8.867843151E-1
1.319481562E0,2.143613398E-1,-2.863352299E0,1.290182233E0
1.341481562E0,1.878497899E-1,-2.235592127E0,1.766011357E0
1.363480000E0,4.631405771E-1,-1.808387995E0,2.051774263E0
1.383480000E0,4.746248424E-1,-1.546448946E0,1.873733163E0
1.403480000E0,3.568325639E-1,-1.680071354E0,1.598285198E0
1.423503437E0,1.335525960E-1,-2.120330572E0,1.748086810E0
1.445480000E0,-3.351032138E-1,-2.335163355E0,2.346089125E0
1.465481562E0,-7.156722546E-1,-2.114344120E0,2.853246689E0
1.487481562E0,-9.958325028E-1,-1.899092793E0,3.145048380E0
1.509478437E0,-1.097079039E0,-1.674625993E0,3.302826166E0
1.529480000E0,-1.206825376E0,-1.619368792E0,3.541901350E0
1.549480000E0,-1.501541615E0,-1.740704179E0,4.061956882E0
1.571480000E0,-1.601165056E0,-1.969691277E0,4.709107876E0
1.591480000E0,-1.367622495E0,-1.769100666E0,5.098961830E0
1.611480000E0,-9.043248892E-1,-1.163349152E0,5.139505863E0
1.631480000E0,-4.329987466E-1,-4.196469784E-1,4.841386318E0
1.653481562E0,-3.269001842E-2,2.926917076E-1,4.455738068E0
1.675481562E0,1.832421124E-1,6.363645196E-1,4.004710197E0
1.697480000E0,8.262388408E-2,9.845227599E-1,3.594173908E0
1.717481562E0,-2.323207706E-1,1.345055461E0,3.260100603E0
1.739481562E0,-6.788458228E-1,1.759326816E0,2.908504009E0
1.761481562E0,-1.094199300E0,2.000287056E0,2.613316298E0
1.783480000E0,-1.265904784E0,2.088426113E0,2.377295494E0
1.803481562E0,-1.203195095E0,2.049173594E0,2.302159071E0
1.823503437E0,-1.078334212E0,1.890645385E0,2.327134848E0
1.845480000E0,-9.833010435E-1,1.521543145E0,2.376021385E0
1.865480000E0,-9.388998747E-1,1.078962564E0,2.354501486E0
1.885481562E0,-9.168040156E-1,7.198086977E-1,2.246448278E0
1.905481562E0,-8.456818461E-1,5.000368357E-1,2.071688414E0
1.927480000E0,-7.561464310E-1,3.892607689E-1,1.932219148E0
1.947480000E0,-6.936811209E-1,3.467271030E-1,1.896265268E0
1.967480000E0,-5.654343367E-1,2.961998284E-1,1.833450913E0
1.987481562E0,-3.809879124E-1,2.182359695E-1,1.576695561E0
2.009478437E0,-1.778315902E-1,1.331162602E-1,1.088020802E0
2.029480000E0,-1.714262366E-1,5.270894151E-3,5.675985217E-1
2.051481562E0,-2.386912256E-1,-1.820029318E-1,8.456119895E-2
2.073481562E0,-1.658237278E-1,-1.356993467E-1,-3.778986931E-1
2.095480000E0,1.457873583E-1,1.606575549E-1,-8.707273006E-1
2.115481562E0,6.912550926E-1,4.961622059E-1,-1.356923699E0
2.137480000E0,1.281612754E0,4.782551229E-1,-1.862580419E0
2.157480000E0,1.460055232E0,8.194320649E-2,-2.414785147E0
2.177480000E0,1.299432516E0,-4.745724797E-1,-3.053348780E0
2.199478437E0,1.012360811E0,-9.667553306E-1,-3.727936029E0
2.219478437E0,9.278344512E-1,-1.266201496E0,-4.242616177E0
2.239480000E0,1.014647126E0,-1.437470675E0,-4.588295937E0
2.261481562E0,1.141113758E0,-1.409126520E0,-4.839396477E0
2.283480000E0,1.300130606E0,-1.165548325E0,-4.920135498E0
2.303481562E0,1.486793637E0,-9.881355762E-1,-4.896748066E0
2.323503437E0,1.578440905E0,-8.696103096E-1,-4.807020664E0
2.345480000E0,1.510250807E0,-8.021707535E-1,-4.601071835E0
2.365480000E0,1.336503267E0,-7.837051749E-1,-4.274363518E0
2.385481562E0,1.088823676E0,-7.822565436E-1,-3.932959795E0
2.405481562E0,8.286997676E-1,-8.222071528E-1,-3.591137171E0
2.427481562E0,5.256931782E-1,-7.238578796E-1,-3.202713966E0
2.449480000E0,1.043532342E-1,-4.979773462E-1,-2.767777920E0
2.469480000E0,-8.869763464E-2,-3.335324228E-1,-2.231002092E0
2.491480000E0,-9.386380762E-2,-2.992017865E-1,-1.542399764E0
2.511480000E0,-3.666762114E-1,-4.212701321E-1,-8.445124626E-1
2.533480000E0,-8.371297121E-1,-4.132415950E-1,-2.645919099E-2
2.553480000E0,-9.899507761E-1,-2.463532239E-1,5.656611919E-1
2.573481562E0,-9.601928592E-1,3.672172874E-2,8.970817924E-1
2.595480000E0,-1.209198952E0,3.474950492E-1,1.476845264E0
2.615480000E0,-1.451398373E0,5.062327385E-1,1.960615635E0
2.637481562E0,-1.621323586E0,5.976356268E-1,2.287742615E0
2.659480000E0,-1.688117385E0,7.359181046E-1,2.448470116E0
2.681486250E0,-1.490144610E0,9.265254736E-1,2.607731342E0
2.703480000E0,-9.816429615E-1,1.115387559E0,2.989016056E0
2.723505000E0,-5.283809900E-1,1.209059358E0,3.402309895E0
2.745481562E0,-4.085466564E-1,1.333414078E0,3.816057682E0
2.767480000E0,-5.257280469E-1,1.443683982E0,4.161196709E0
2.787480000E0,-7.733204961E-1,1.449757695E0,4.348435402E0
2.809480000E0,-1.044265389E0,1.175653815E0,4.488358498E0
2.831481562E0,-1.120099902E0,8.034448624E-1,4.616535664E0
2.853480000E0,-1.106189728E0,5.350830555E-1,4.625890255E0
2.873487812E0,-1.224383354E0,3.690847754E-1,4.499301910E0
2.895480000E0,-1.439739585E0,2.405063659E-1,4.199471474E0
2.915480000E0,-1.596173406E0,2.401747555E-1,3.908612490E0
2.935480000E0,-1.597901225E0,3.490484059E-1,3.686624050E0
2.955480000E0,-1.362892747E0,2.898992002E-1,3.468457937E0
2.975481562E0,-9.719040394E-1,2.446427941E-1,3.168505669E0
2.997480000E0,-6.096260548E-1,2.037671953E-1,2.823977709E0
3.017480000E0,-4.194724262E-1,-4.701916873E-2,2.373089314E0
3.037480000E0,-2.746450007E-1,-2.601762414E-1,1.782941103E0
3.057481562E0,-2.528982051E-2,-1.082976833E-1,9.198234081E-1
3.077481562E0,3.240203857E-1,2.142740786E-1,-2.652900526E-3
3.099480000E0,6.610260010E-1,4.177096486E-1,-8.089600801E-1
3.119480000E0,8.442506790E-1,3.452261388E-1,-1.433543682E0
3.141478437E0,7.525685430E-1,-1.255240738E-1,-2.218505383E0
3.161480000E0,5.456248522E-1,-6.213197708E-1,-3.024934769E0
3.183480000E0,6.173927784E-1,-9.269094467E-1,-3.829950571E0
3.203480000E0,9.490751624E-1,-8.562585115E-1,-4.347562790E0
3.223505000E0,1.280251384E0,-5.388878584E-1,-4.622312546E0
3.245481562E0,1.463109493E0,-2.024058253E-1,-4.759163857E0
3.267478437E0,1.464156747E0,2.319542505E-2,-4.883937359E0
3.287480000E0,1.510791898E0,2.408554405E-1,-4.950661182E0
3.307480000E0,1.703930020E0,1.818982214E-1,-4.714553356E0
3.327480000E0,1.893385530E0,-2.636843324E-1,-4.163116455E0
3.347481562E0,1.872703433E0,-6.906616688E-1,-3.684407473E0
3.369478437E0,1.626960993E0,-9.168040156E-1,-3.406673193E0
3.389480000E0,1.248329282E0,-1.044073462E0,-3.152780294E0
3.411480000E0,7.009766102E-1,-1.164256811E0,-2.727652788E0
3.431480000E0,2.375044078E-1,-1.259935737E0,-2.275507927E0
3.451480000E0,-1.134463996E-1,-1.338842034E0,-1.858356714E0
3.471481562E0,-3.032335043E-1,-1.324320912E0,-1.557217717E0
3.493480000E0,-2.623055279E-1,-1.254176140E0,-1.243913651E0
3.513480000E0,-1.943249553E-1,-1.115597010E0,-8.619657755E-1
3.533480000E0,-1.433089823E-1,-9.139940143E-1,-3.519281745E-1
3.553480000E0,-1.087863743E-1,-5.226737261E-1,1.732937396E-1
3.573481562E0,-4.118104279E-1,-1.587551534E-1,8.436397910E-1
3.595480000E0,-8.868715763E-1,9.908234328E-2,1.390678287E0
3.615480000E0,-1.078473806E0,2.444682717E-1,1.640993476E0
3.635480000E0,-1.042520046E0,4.170289636E-1,1.658970356E0
3.655480000E0,-7.700741887E-1,5.701292753E-1,1.711260438E0
3.675481562E0,-2.921506763E-1,7.740535140E-1,1.994073629E0
3.697478437E0,8.960520476E-2,1.077287078E0,2.330241442E0
3.717481562E0,-5.869542435E-2,1.373888254E0,2.498159647E0
3.739480000E0,-5.253266692E-1,1.569644451E0,2.632637262E0
3.759480000E0,-8.740608692E-1,1.637816906E0,2.725087166E0
3.779480000E0,-9.786061049E-1,1.509901762E0,2.829859495E0
3.799481562E0,-8.055217862E-1,1.251174212E0,2.933270216E0
3.821478437E0,-4.445353448E-1,9.614146352E-1,2.943672419E0
3.841480000E0,-1.916196942E-1,8.151036501E-1,2.903145790E0
3.861480000E0,-2.533869147E-1,7.637211680E-1,2.928365707E0
3.881486250E0,-4.893728793E-1,5.417501926E-1,3.187477350E0
3.903480000E0,-4.263490140E-1,-6.454227865E-2,3.312128782E0
3.923503437E0,-1.791754961E-1,-8.448789716E-1,2.944056273E0
3.945480000E0,1.977981627E-1,-1.267929316E0,2.544515610E0
3.965481562E0,3.358362615E-1,-7.094588876E-1,2.218540430E0
3.987481562E0,-3.752457723E-2,5.890311599E-1,1.638131142E0
4.009480000E0,-5.435130000E-1,1.617832899E0,1.227106094E0
4.029480000E0,-5.982465148E-1,1.817254305E0,8.305498362E-1
4.049480000E0,-3.262543976E-1,1.539240718E0,4.988150895E-1
4.071480000E0,4.227187485E-2,8.535706997E-1,-2.986258268E-2
4.091480000E0,1.595754474E-1,2.974040993E-2,-7.767413259E-1
4.111480000E0,7.604399323E-2,-7.562336922E-1,-1.665009141E0
4.131481562E0,-5.660102889E-2,-1.202322364E0,-2.427857637E0
4.153483125E0,-6.208136305E-2,-1.151358843E0,-3.073385239E0
4.175481562E0,5.869542435E-2,-6.738541722E-1,-3.446780920E0
4.197480000E0,2.305056304E-1,-1.308647841E-1,-3.562862873E0
4.217481562E0,3.630808294E-1,2.207317948E-1,-3.559529066E0
4.239480000E0,4.653571248E-1,3.019768596E-1,-3.551186562E0
4.259480000E0,5.616469383E-1,2.765648663E-1,-3.559913158E0
4.279480000E0,6.357187033E-1,1.136732921E-1,-3.535583258E0
4.299481562E0,6.458590627E-1,-5.520476401E-2,-3.483956337E0
4.319481562E0,6.190682650E-1,-5.654866621E-2,-3.327435255E0
4.341481562E0,5.119225383E-1,1.549852341E-1,-2.839842558E0
4.361486250E0,2.148151249E-1,2.845933735E-1,-2.267758608E0
4.383480000E0,-1.644100063E-2,1.265363693E-1,-1.847553134E0
4.403480000E0,-2.083574086E-1,-5.579817668E-2,-1.780200958E0
4.423503437E0,-4.128925502E-1,-1.987929940E-1,-1.780445218E0
4.445480000E0,-6.228032708E-1,-4.303458333E-1,-1.512938619E0
4.465481562E0,-7.265980244E-1,-6.415306926E-1,-1.024700284E0
4.487481562E0,-7.832164764E-1,-7.649952769E-1,-3.741985857E-1
4.509478437E0,-7.769682407E-1,-6.347239017E-1,1.401499361E-1
4.529480000E0,-8.972563148E-1,-3.221005201E-1,6.946061254E-1
4.549480000E0,-1.245536804E0,-8.883725852E-2,1.474646091E0
4.571480000E0,-1.284038782E0,-2.321287990E-2,2.157227039E0
4.591480000E0,-8.005825281E-1,1.570796408E-2,2.356019974E0
4.613480000E0,-1.402022988E-1,3.051184714E-1,2.236726761E0
4.633480000E0,5.918411538E-2,6.729117036E-1,2.090119123E0
4.653480000E0,-1.932603121E-1,1.006182313E0,2.096524477E0
4.673480000E0,-5.439667702E-1,1.115090847E0,2.338671446E0
4.693480000E0,-7.462504506E-1,9.988693595E-1,2.670807600E0
4.713480000E0,-7.347312570E-1,8.404807448E-1,2.902081013E0
4.733480000E0,-6.305699944E-1,7.274706960E-1,2.956290960E0
4.753480000E0,-5.677032471E-1,6.648308039E-1,2.899253607E0
4.773480000E0,-5.074719191E-1,6.315648556E-1,2.847871065E0
4.793481562E0,-3.491356671E-1,4.547106326E-1,2.890160561E0
4.815481562E0,-2.287254035E-1,2.871590257E-1,2.978142500E0
4.835481562E0,-4.143237174E-1,2.777691483E-1,2.861659288E0
4.857481562E0,-7.172604799E-1,2.434385270E-1,2.609075308E0
4.879480000E0,-8.150687814E-1,4.555309191E-3,2.397419214E0
4.899480000E0,-8.326267600E-1,-1.790707745E-2,2.386563301E0
4.919480000E0,-8.467290401E-1,2.258106917E-1,2.384643316E0
4.941480000E0,-8.283332586E-1,6.246533394E-1,1.991211176E0
4.963480000E0,-8.741830587E-1,9.505237341E-1,1.423874497E0
4.983480000E0,-7.867594957E-1,1.152248859E0,1.080306411E0
5.003481562E0,-5.699896216E-1,1.274421930E0,6.262764931E-1
5.023503437E0,-3.959802985E-1,1.209198952E0,1.828057915E-1
5.045481562E0,-1.364323944E-1,6.829822659E-1,-3.441963792E-1
5.067481562E0,1.633977294E-1,-1.167974323E-1,-9.452877641E-1
5.089481562E0,3.673394322E-1,-9.497907162E-1,-1.705640435E0
5.111480000E0,5.250822902E-1,-1.394727468E0,-2.358934641E0
5.131481562E0,7.047639489E-1,-1.417172432E0,-2.790135622E0
5.153481562E0,8.553858399E-1,-1.180540681E0,-3.111398458E0
5.175481562E0,8.964011073E-1,-8.408472538E-1,-3.323543310E0
5.197481562E0,9.203993678E-1,-4.906294942E-1,-3.490239620E0
5.219478437E0,1.041368127E0,-1.916720569E-1,-3.576895237E0
5.239480000E0,1.233424187E0,-3.049090132E-2,-3.617770910E0
5.259480000E0,1.427784085E0,-3.019419685E-2,-3.638138771E0
5.279480000E0,1.548194289E0,-1.281769872E-1,-3.592079639E0
5.301480000E0,1.480946779E0,-3.119077981E-1,-3.434301853E0
5.321487812E0,1.240422964E0,-4.060333967E-1,-3.234478951E0
5.343478437E0,8.871508837E-1,-4.761083722E-1,-2.853909969E0
5.363481562E0,5.629559755E-1,-5.420818329E-1,-2.469867706E0
5.385481562E0,2.844886780E-1,-5.359731317E-1,-2.144294024E0
5.407480000E0,9.353219718E-2,-4.560370743E-1,-1.809016347E0
5.427481562E0,-8.513715863E-2,-3.958057761E-1,-1.412425160E0
5.449481562E0,-3.851417899E-1,-3.284186125E-1,-8.350876570E-1
5.471481562E0,-7.695505619E-1,-1.602212191E-1,-1.451415867E-1
5.491481562E0,-9.030682445E-1,-5.934119225E-3,3.375641406E-1
5.513481562E0,-7.692363858E-1,3.314729333E-1,6.018767953E-1
5.535481562E0,-7.744374871E-1,5.037194490E-1,1.092942595E0
5.557483125E0,-8.177739978E-1,4.121769667E-1,1.587324619E0
5.579480000E0,-6.335894465E-1,2.963918149E-1,1.963617563E0
5.599480000E0,-3.634648025E-1,4.136604965E-1,2.127992630E0
5.619480000E0,-1.531875432E-1,6.142337322E-1,2.196846008E0
5.639480000E0,-1.529082954E-1,8.281063437E-1,2.250427485E0
5.659481562E0,-4.510105252E-1,9.761626720E-1,2.288807392E0
5.681480000E0,-8.093964458E-1,1.021296859E0,2.399478674E0
5.701481562E0,-9.331577420E-1,1.002237916E0,2.603664637E0
5.723505000E0,-8.762774467E-1,1.048646212E0,2.815582514E0
5.745481562E0,-9.490925670E-1,1.064127207E0,2.895606041E0
5.767478437E0,-1.018853426E0,8.737816215E-1,2.865882874E0
5.787480000E0,-8.572184443E-1,6.796137691E-1,2.599842548E0
5.807481562E0,-5.185373425E-1,5.038940310E-1,2.077552557E0
5.827481562E0,-2.644872069E-1,2.672273517E-1,1.607099175E0
5.849478437E0,-3.001617193E-1,3.063052893E-2,1.330359817E0
5.869478437E0,-5.782101154E-1,5.194099993E-2,1.259446979E0
5.889480000E0,-8.883551359E-1,1.998925656E-1,1.328143239E0
5.909480000E0,-1.019045353E0,2.658310831E-1,1.410086393E0
5.929480000E0,-9.059480429E-1,3.022386730E-1,1.363032341E0
5.949481562E0,-7.542614937E-1,2.892010510E-1,1.176805735E0
5.971481562E0,-6.769259572E-1,2.077290863E-1,1.005920529E0
5.991481562E0,-6.020163894E-1,2.260724902E-1,8.137597442E-1
6.013481562E0,-5.343849063E-1,4.632103741E-1,5.959426761E-1
6.035481562E0,-3.434284329E-1,5.225341320E-1,4.661948979E-1
6.057480000E0,3.790855035E-2,3.480361104E-1,3.998549283E-2
6.077480000E0,4.493524730E-1,-8.854055405E-2,-6.364692450E-1
6.097480000E0,7.185345888E-1,-7.322179675E-1,-1.396577597E0
6.119480000E0,7.821169496E-1,-1.432269573E0,-1.998070359E0
6.141478437E0,7.667406201E-1,-1.769449711E0,-2.407891035E0
6.161480000E0,8.658753037E-1,-1.746184468E0,-2.710129738E0
6.181480000E0,1.064546108E0,-1.410557628E0,-2.987654686E0
6.201480000E0,1.368634820E0,-1.019516587E0,-3.208421230E0
6.221480000E0,1.650348425E0,-6.783920527E-1,-3.344155550E0
6.241480000E0,1.788805366E0,-4.926540852E-1,-3.409587860E0
6.261481562E0,1.810883760E0,-4.058588743E-1,-3.396515369E0
6.281483125E0,1.680298328E0,-4.573809803E-1,-3.286001205E0
6.303480000E0,1.379700184E0,-6.157696247E-1,-3.062284946E0
6.323503437E0,1.069310904E0,-7.730237842E-1,-2.846963644E0
6.345480000E0,7.906516194E-1,-8.807978630E-1,-2.648851395E0
6.367480000E0,6.166073680E-1,-9.459335208E-1,-2.481945515E0
6.387480000E0,5.042430758E-1,-9.472250938E-1,-2.200825214E0
6.407480000E0,3.965038955E-1,-9.733701348E-1,-1.803291678E0
6.427481562E0,2.944894135E-1,-9.478359818E-1,-1.355754256E0
6.449481562E0,1.366941929E-1,-7.266154885E-1,-8.378801942E-1
6.471478437E0,-4.783947393E-2,-4.592135847E-1,-2.557780147E-1
6.491481562E0,-2.260375917E-1,-1.401324868E-1,1.995609403E-1
6.513481562E0,-6.146875024E-1,2.089857310E-1,8.574278951E-1
6.535480000E0,-1.089120388E0,3.906046748E-1,1.399282813E0
6.555480000E0,-1.247683525E0,4.950975478E-1,1.753375173E0
6.577480000E0,-9.936857820E-1,4.894426763E-1,2.023656845E0
6.597480000E0,-3.518758416E-1,4.885874689E-1,2.216550589E0
6.619478437E0,5.751557946E-1,6.209532619E-1,2.301111937E0
6.639480000E0,1.061805964E0,7.513816953E-1,2.243585825E0
6.659480000E0,1.089015603E0,8.283157945E-1,2.323120594E0
6.679480000E0,8.208109140E-1,8.623497486E-1,2.590801716E0
6.699498750E0,3.612133265E-1,9.472774267E-1,2.863404512E0
6.721480000E0,-1.773952693E-1,1.028452754E0,2.970690012E0
6.741480000E0,-5.446823239E-1,1.043776751E0,2.853787899E0
6.761480000E0,-7.058809400E-1,9.876469374E-1,2.628972054E0
6.781480000E0,-6.637836099E-1,8.202523589E-1,2.465940714E0
6.801480000E0,-5.432511568E-1,4.706105888E-1,2.461280823E0
6.821480000E0,-4.699473381E-1,1.433264315E-1,2.554935217E0
6.841487812E0,-5.532344580E-1,1.824916303E-1,2.663808823E0
6.863480000E0,-8.138819337E-1,6.623001099E-1,3.014986515E0
6.883480000E0,-1.235012412E0,5.613676906E-1,3.306823015E0
6.903480000E0,-1.262396693E0,-2.321287841E-1,3.064937830E0
6.923503437E0,-8.426275253E-1,-4.631405771E-1,2.501964331E0
6.945480000E0,-5.125682950E-1,-2.833018303E-1,1.841880918E0
6.965480000E0,-4.151963890E-1,5.338962004E-2,1.356277943E0
6.987481562E0,-2.229658067E-1,8.329932690E-1,9.862331748E-1
7.009478437E0,-9.412560612E-2,1.659162283E0,5.382071733E-1
7.029480000E0,-1.059414819E-1,1.974857450E0,-2.006255984E-1
7.049480000E0,-9.948376566E-2,1.462376475E0,-9.909455776E-1
7.069480000E0,-1.238660142E-1,5.001415610E-1,-1.658918023E0
7.089481562E0,-7.038912922E-2,-2.621484399E-1,-2.144730330E0
7.111478437E0,1.950929016E-1,-7.120769024E-1,-2.523117781E0
7.131480000E0,5.280144811E-1,-8.069355488E-1,-2.782142162E0
7.151480000E0,8.648281097E-1,-7.107329965E-1,-3.006190062E0
7.171480000E0,1.208134413E0,-6.202027202E-1,-3.157178402E0
7.191481562E0,1.390154719E0,-5.894500613E-1,-3.250920057E0
7.213480000E0,1.460055232E0,-6.639232635E-1,-3.319616318E0
7.233481562E0,1.372457147E0,-7.692363858E-1,-3.336633205E0
7.255480000E0,1.171447515E0,-8.044047952E-1,-3.255789518E0
7.275480000E0,9.974207282E-1,-8.589637876E-1,-3.083961964E0
7.297480000E0,7.655887008E-1,-9.102590084E-1,-2.796785355E0
7.317480000E0,5.230402946E-1,-9.559517503E-1,-2.530308485E0
7.337480000E0,2.459168881E-1,-9.258099198E-1,-2.201872587E0
7.357480000E0,-1.195899621E-1,-8.183325529E-1,-1.806817174E0
7.377480000E0,-6.433458328E-1,-6.619510055E-1,-1.478608012E0
7.397480000E0,-1.192286730E0,-4.498935342E-1,-1.281525493E0
7.417481562E0,-1.486270070E0,-4.457396269E-1,-9.891479015E-1
7.439478437E0,-1.296640038E0,-4.198215008E-1,-5.555033684E-1
7.459480000E0,-9.292307496E-1,-1.659459025E-1,-1.583013684E-2
7.479480000E0,-5.455375910E-1,-6.548475474E-2,7.758686543E-1
7.499480000E0,-1.213003844E-1,5.129522830E-2,1.411133647E0
7.519480000E0,2.514321208E-1,4.320038855E-1,1.683212996E0
7.541486250E0,4.238532186E-1,1.107324123E0,1.577638030E0
7.563478437E0,3.320139945E-1,1.463179350E0,1.788229465E0
7.583480000E0,1.823868975E-2,1.455534816E0,2.325441837E0
7.603480000E0,-4.764225185E-1,1.413838863E0,2.764880896E0
7.623503437E0,-9.707695842E-1,1.403733373E0,2.919778824E0
7.645478437E0,-1.246479273E0,1.286115646E0,2.948786020E0
7.665478437E0,-1.115335226E0,1.082505584E0,3.005805969E0
7.685480000E0,-7.508406639E-1,8.002858162E-1,3.087923765E0
7.705480000E0,-3.683517277E-1,5.171410441E-1,3.214652061E0
7.725480000E0,-1.970476657E-1,4.067140818E-1,3.148783445E0
7.745481562E0,-3.038094640E-1,3.227288425E-1,2.960828781E0
7.767480000E0,-6.743777394E-1,3.308271468E-1,2.739189625E0
7.787480000E0,-1.051857591E0,2.295631617E-1,2.449883699E0
7.807480000E0,-1.297355533E0,5.276130140E-2,2.182813406E0
7.827480000E0,-1.227804184E0,-1.747598201E-1,2.035106182E0
7.847481562E0,-7.565304041E-1,-3.308446109E-1,1.962535501E0
7.869484687E0,-7.951720059E-2,-3.091501594E-1,1.776692867E0
7.889484687E0,2.779785991E-1,-1.164832711E-1,1.506219149E0
7.911480000E0,3.460987806E-1,1.396088898E-1,1.120850444E0
7.931480000E0,2.614328563E-1,4.681147635E-1,6.717772484E-1
7.951480000E0,1.457349956E-1,7.397577763E-1,1.665044129E-1
7.971480000E0,3.464478627E-2,7.850490808E-1,-4.773999155E-1
7.991481562E0,-1.217018068E-1,3.773750961E-1,-1.251331210E0
8.013481562E0,-1.653699428E-1,-3.503050208E-1,-2.201889992E0
8.035480000E0,1.402895600E-1,-9.594947696E-1,-3.058637142E0
8.057480000E0,6.725800633E-1,-1.287477016E0,-3.742527008E0
8.077481562E0,1.108650565E0,-1.296273470E0,-4.073284149E0
8.099487812E0,1.386524439E0,-1.273863435E0,-4.087979794E0
8.121481562E0,1.379106760E0,-1.392266631E0,-3.903847694E0
8.143480000E0,1.383958817E0,-1.587603807E0,-3.656604290E0
8.163481562E0,1.421204209E0,-1.750425577E0,-3.435523510E0
8.185480000E0,1.327288032E0,-1.828878164E0,-3.278007507E0
8.207481562E0,1.082156539E0,-1.776937127E0,-3.128345490E0
8.229480000E0,7.527605295E-1,-1.687297106E0,-2.909044981E0
8.249483125E0,4.157025218E-1,-1.536919475E0,-2.621624231E0
8.271481562E0,9.761626273E-2,-1.337079287E0,-2.243865013E0
8.293480000E0,-1.625076085E-1,-1.085228324E0,-1.918675303E0
8.313480000E0,-4.260872304E-1,-7.105235457E-1,-1.622632623E0
8.335481562E0,-8.896466494E-1,-1.904154196E-2,-1.267911911E0
8.357480000E0,-1.436685205E0,6.850067973E-1,-8.690518141E-1
8.377480000E0,-1.815631151E0,1.219548821E0,-4.252145588E-1
8.397480000E0,-1.788159609E0,1.387798548E0,-1.185776666E-1
8.417481562E0,-1.476077318E0,1.087130666E0,3.875678182E-1
8.439478437E0,-9.980141521E-1,3.618765771E-1,1.110640287E0
8.459480000E0,-5.162335038E-1,-1.177050024E-1,1.572349668E0
8.479480000E0,1.256637089E-2,-2.576978505E-1,1.757529140E0
8.499480000E0,4.905596972E-1,2.967059612E-3,1.637956619E0
8.519480000E0,6.773447990E-1,3.990171850E-1,1.605214238E0
8.539480000E0,4.507487416E-1,7.612777352E-1,1.825055838E0
8.559480000E0,-1.666789502E-2,9.281486273E-1,2.221716881E0
8.579480000E0,-4.095065892E-1,9.324421287E-1,2.547883987E0
8.599480000E0,-5.367585421E-1,8.272162676E-1,2.727844954E0
8.621481562E0,-4.538903236E-1,6.324200630E-1,2.758265972E0
8.643481562E0,-1.952499896E-1,3.814242482E-1,2.641398668E0
8.665478437E0,4.677482415E-3,1.394692659E-1,2.435572147E0
8.685480000E0,8.979719132E-2,8.564330637E-2,2.348829269E0
8.705480000E0,-2.106612362E-2,6.696828455E-2,2.272121906E0
8.725480000E0,-2.442762852E-1,3.527310491E-2,2.216027021E0
8.745481562E0,-4.577649534E-1,5.967280641E-2,2.232468128E0
8.767480000E0,-6.262415648E-1,4.850269854E-2,2.280115604E0
8.787480000E0,-6.468888521E-1,-7.274532318E-2,2.276659727E0
8.807480000E0,-3.458544314E-1,-2.011491954E-1,2.152427197E0
8.827480000E0,-2.019695044E-1,4.967207089E-2,1.960249066E0
8.847481562E0,-4.320562482E-1,2.800555229E-1,1.901920199E0
8.869495625E0,-3.095864952E-1,4.319864511E-1,1.716252089E0
8.891480000E0,6.248278543E-2,5.288522243E-1,1.053323627E0
8.911481562E0,1.671676338E-1,4.909262061E-1,4.385488927E-1
8.933481562E0,1.051037237E-1,3.787190020E-1,-3.066892624E-1
8.955478437E0,-1.315454692E-1,-3.577924892E-2,-1.209792376E0
8.975480000E0,-2.111848444E-1,-5.907067060E-1,-2.082858562E0
8.995480000E0,-9.766862541E-2,-9.918007851E-1,-2.772752285E0
9.017480000E0,2.084446698E-1,-1.062922955E0,-3.287030935E0
9.037480000E0,4.167846143E-1,-8.470606208E-1,-3.542006016E0
9.057480000E0,4.521973431E-1,-4.813094437E-1,-3.719663143E0
9.077480000E0,3.843040466E-1,-1.939758956E-1,-3.862326384E0
9.097480000E0,4.128401875E-1,-1.273043156E-1,-3.982579470E0
9.117480000E0,5.597620010E-1,-2.782752812E-1,-4.071329594E0
9.137480000E0,7.061427832E-1,-6.052801609E-1,-4.122275829E0
9.157480000E0,7.982088923E-1,-9.618160129E-1,-4.097858429E0
9.177480000E0,8.574802876E-1,-1.285871267E0,-3.890879869E0
9.197480000E0,8.549495339E-1,-1.440996170E0,-3.586145401E0
9.217481562E0,7.900232673E-1,-1.631324291E0,-3.299230814E0
9.239480000E0,5.961521268E-1,-2.275839567E0,-3.014183521E0
9.259480000E0,5.457993746E-1,-3.421089649E0,-2.532786846E0
9.279480000E0,5.139994621E-1,-4.122310638E0,-1.910018563E0
9.301480000E0,2.690250576E-1,-3.489942789E0,-1.184886575E0
9.323503437E0,-2.391799241E-1,-1.861411095E0,-4.096811414E-1
9.345478437E0,-7.912275791E-1,-2.001718134E-1,2.594431937E-1
9.365478437E0,-9.011135101E-1,7.359181046E-1,7.575078011E-1
9.385478437E0,-5.033180714E-1,8.059756160E-1,1.404553652E0
9.405480000E0,9.477137774E-2,5.158146024E-1,1.871621251E0
9.425480000E0,6.696653962E-1,3.946712911E-1,2.016518593E0
9.447480000E0,9.161931276E-1,6.287548542E-1,1.936303139E0
9.467480000E0,7.863231897E-1,1.050670743E0,1.896911144E0
9.487481562E0,5.112243891E-1,1.442025900E0,1.945117116E0
9.507481562E0,2.745926380E-1,1.566345692E0,2.076819658E0
9.529481562E0,1.905201375E-1,1.425968885E0,2.304183722E0
9.551481562E0,2.995857596E-1,1.352507949E0,2.513658047E0
9.573480000E0,4.797037542E-1,1.336485863E0,2.665728569E0
9.593480000E0,5.982813835E-1,1.276446581E0,2.751406908E0
9.613480000E0,6.905395389E-1,1.177364230E0,2.767970085E0
9.635480000E0,7.475768924E-1,1.134219646E0,2.798303843E0
9.655480000E0,7.497061491E-1,1.143976092E0,2.707878351E0
9.675480000E0,4.386361539E-1,1.324739814E0,2.691367626E0
9.695480000E0,8.854055405E-2,1.502344489E0,2.786295891E0
9.717481562E0,-1.561197042E-1,1.287319899E0,2.763501883E0
9.739483125E0,-2.576105893E-1,1.080847502E0,2.747008562E0
9.759486250E0,-2.131570578E-1,1.029430151E0,2.632375479E0
9.781480000E0,-6.038838997E-3,9.837722778E-1,2.367661238E0
9.803480000E0,1.382126212E-1,8.449313641E-1,2.093173265E0
9.823503437E0,2.535963356E-1,6.797358990E-1,1.680455327E0
9.845480000E0,4.389851987E-1,8.603426218E-1,1.004559159E0
9.867480000E0,3.389953077E-1,1.043183327E0,3.937288225E-1
9.887480000E0,2.184105068E-1,8.941670656E-1,-8.611454815E-2
9.907480000E0,2.961823717E-2,1.588249654E-1,-6.420019269E-1
9.927481562E0,-1.193979755E-1,-9.967749715E-1,-1.440873981E0
9.949481562E0,-1.579173952E-1,-1.745940089E0,-2.350940943E0
9.969486250E0,-1.219636053E-1,-1.817847729E0,-2.934177637E0
9.989486250E0,-5.448918045E-2,-1.559364438E0,-3.259297609E0
1.000948625E1,1.303760987E-2,-1.304965258E0,-3.508478403E0
1.002948781E1,8.381070942E-2,-1.392004848E0,-3.783454895E0
1.005148000E1,2.179916203E-1,-1.835021734E0,-4.101488590E0
1.007148000E1,2.765125036E-1,-2.450250387E0,-4.315832615E0
1.009148000E1,2.695486546E-1,-3.105289698E0,-4.408213139E0
1.011348000E1,2.885378301E-1,-3.621156693E0,-4.323197842E0
1.013348000E1,2.191784531E-1,-3.747850180E0,-4.047593117E0
1.015348000E1,8.138470352E-2,-3.565864801E0,-3.610824347E0
1.017348000E1,-1.717403978E-1,-2.967129469E0,-3.022089958E0
1.019348000E1,-4.997924864E-1,-2.086680651E0,-2.370837688E0
1.021348000E1,-8.155923486E-1,-1.339784503E0,-1.633942366E0
1.023348000E1,-1.007770538E0,-9.229126573E-1,-9.371196032E-1
1.025348000E1,-1.029133439E0,-4.525289536E-1,-3.492403924E-1
1.027547844E1,-1.116783857E0,2.891137898E-1,1.905550510E-1
1.029547844E1,-1.240091324E0,7.898487449E-1,4.828278720E-1
1.031547844E1,-1.096660137E0,1.008625746E0,6.211801171E-1
1.033548000E1,-8.456120491E-1,9.710662961E-1,1.072033525E0
1.035748156E1,-4.323529601E-1,7.995527983E-1,1.655724049E0
1.037948000E1,8.169886470E-2,1.018190145E0,1.907452822E0
1.039948000E1,4.524067938E-1,1.303935528E0,1.754928589E0
1.041948000E1,7.193897963E-1,1.509133816E0,1.592769980E0
1.043948000E1,9.788330197E-1,1.497736812E0,1.429110527E0
1.045948000E1,1.065907478E0,1.100796580E0,1.397659659E0
1.047948156E1,9.634042978E-1,7.956258059E-1,1.445062757E0
1.050148000E1,7.881034017E-1,1.004890800E0,1.483093500E0
1.052148625E1,6.129246950E-1,1.528280139E0,1.590815306E0
1.054347844E1,4.127878249E-1,2.110783815E0,1.828075290E0
1.056348000E1,3.265685439E-1,2.261632442E0,2.043606043E0
1.058348156E1,3.825761676E-1,1.994597197E0,2.177804470E0
1.060548156E1,4.926017225E-1,1.489882827E0,2.125950575E0
1.062747844E1,5.006477237E-1,1.099958897E0,2.127067566E0
1.064748000E1,3.689800501E-1,9.750281572E-1,2.228802919E0
1.066748000E1,-3.330088034E-2,1.052747726E0,2.411713362E0
1.068748000E1,-3.485422432E-1,1.045958400E0,2.424873114E0
1.070748156E1,-2.386388630E-1,1.006705880E0,2.361762047E0
1.072948625E1,2.521651685E-1,8.265530467E-1,2.251300097E0
1.074948781E1,5.532519221E-1,7.407701015E-1,2.049732208E0
1.077148156E1,6.031334400E-1,6.057339907E-1,1.564041853E0
1.079348000E1,5.158320665E-1,5.602855682E-1,6.935240030E-1
1.081348000E1,2.964267135E-1,6.094515324E-1,6.279694289E-2
1.083348000E1,2.752384245E-1,5.046968460E-1,-3.482455313E-1
1.085547844E1,1.661902517E-1,-3.122393973E-2,-7.480481267E-1
1.087547844E1,-1.599419713E-1,-9.504190683E-1,-1.234157205E0
1.089548000E1,-5.597969294E-1,-1.570691586E0,-1.725310326E0
1.091548000E1,-8.305149078E-1,-1.669058323E0,-2.093278170E0
1.093748156E1,-9.389696717E-1,-1.353031635E0,-2.419637203E0
1.095948781E1,-9.181653857E-1,-8.950746655E-1,-2.721596718E0
1.098148156E1,-8.312479854E-1,-5.655390620E-1,-2.979486465E0
1.100148625E1,-6.743777394E-1,-5.364444256E-1,-3.216868639E0
1.102350500E1,-4.417602718E-1,-7.431612015E-1,-3.427756786E0
1.104548000E1,-1.807113886E-1,-1.189075351E0,-3.480011940E0
1.106548000E1,-4.469788074E-2,-1.546902776E0,-3.437129259E0
1.108548000E1,-8.677776903E-2,-1.643541694E0,-3.286420107E0
1.110548000E1,-2.813994288E-1,-1.485694051E0,-3.014427900E0
1.112748000E1,-4.686208963E-1,-1.181657672E0,-2.593541861E0
1.114748000E1,-5.914047956E-1,-8.830842376E-1,-2.188747644E0
1.116748000E1,-6.715677977E-1,-6.059608459E-1,-1.793901801E0
1.118748000E1,-7.723256350E-1,-3.303210139E-1,-1.392563343E0
1.120748000E1,-9.304175973E-1,3.234095126E-2,-9.830392599E-1
1.122748000E1,-1.012552738E0,1.801354289E-1,-5.713160634E-1
1.124748000E1,-9.958848953E-1,2.508561611E-1,-2.148500234E-1
1.126748000E1,-8.517904878E-1,3.160965741E-1,2.958333120E-2
1.128748000E1,-6.722484827E-1,2.604554892E-1,5.049412251E-1
1.130748000E1,-4.111472070E-1,1.064650863E-1,1.317531586E0
1.132748000E1,6.958627701E-2,4.642575979E-3,1.940177798E0
1.134748156E1,6.248976588E-1,1.051386371E-1,2.172812700E0
1.136748156E1,9.872455001E-1,5.766567588E-1,1.943685889E0
1.138948000E1,1.030686736E0,1.176177382E0,1.682305455E0
1.140948000E1,7.570888996E-1,1.480458021E0,1.802296758E0
1.142948000E1,2.288999259E-1,1.513322592E0,2.102353811E0
1.144948156E1,-2.709798217E-1,1.408271313E0,2.251474619E0
1.147148000E1,-4.546931684E-1,1.235012412E0,2.172184467E0
1.149148156E1,-4.135034084E-1,1.065383911E0,1.964804411E0
1.151348156E1,-2.296155095E-1,9.231046438E-1,2.086767912E0
1.153548156E1,2.065422684E-1,8.476191759E-1,2.458296299E0
1.155747844E1,4.953767955E-1,1.100569725E0,2.340015173E0
1.157748000E1,1.563640535E-1,1.778350830E0,1.565438151E0
1.159748000E1,-4.981693327E-1,2.528633118E0,6.648482680E-1
1.161947844E1,-7.968475223E-1,2.770622969E0,1.993689537E-1
1.163948000E1,-6.151587367E-1,2.236639500E0,3.193079829E-1
1.165948000E1,-3.853163421E-1,1.191414118E0,6.722659469E-1
1.167948156E1,-4.436452389E-1,3.710919023E-1,8.209679723E-1
1.170148000E1,-7.104886174E-1,1.364847459E-2,6.961070895E-1
1.172148000E1,-8.272511363E-1,6.548475474E-2,6.824586391E-1
1.174148000E1,-7.280466557E-1,2.284112424E-1,5.395860076E-1
1.176148156E1,-6.383890510E-1,4.726526141E-1,3.985284865E-1
1.178148156E1,-4.268377125E-1,3.243519962E-1,2.391450107E-1
1.180348156E1,6.761405617E-2,-3.193778098E-1,-1.552819461E-1
1.182350344E1,7.562686205E-1,-1.189214945E0,-5.874778032E-1
1.184548000E1,1.269674659E0,-2.030184507E0,-9.316043854E-1
1.186748156E1,1.277703166E0,-2.346874475E0,-1.127308130E0
1.188948000E1,9.808226824E-1,-2.108218193E0,-1.299397588E0
1.190948000E1,6.692814231E-1,-1.641709089E0,-1.508348465E0
1.192948000E1,4.335921407E-1,-1.232691169E0,-1.777268767E0
1.194948156E1,3.210882246E-1,-9.523563385E-1,-2.072875261E0
1.197148000E1,2.791654170E-1,-7.806857824E-1,-2.449203014E0
1.199148156E1,3.323805034E-1,-8.542688489E-1,-2.750673771E0
1.201348000E1,4.130321741E-1,-1.117447019E0,-2.938244343E0
1.203548000E1,4.452683926E-1,-1.382143736E0,-2.888799191E0
1.205548000E1,3.906745017E-1,-1.572611451E0,-2.690093517E0
1.207748000E1,3.036174774E-1,-1.618688107E0,-2.375410557E0
1.209748000E1,1.886177361E-1,-1.620730162E0,-2.063171148E0
1.211947844E1,4.099778458E-2,-1.575561047E0,-1.636769772E0
1.213947844E1,-1.410924196E-1,-1.366994262E0,-1.185602188E0
1.215948000E1,-4.105188847E-1,-1.058891296E0,-7.144156098E-1
1.217948156E1,-6.978000998E-1,-6.738017797E-1,-1.972396523E-1
1.220148000E1,-9.564578533E-1,-2.199812979E-1,3.566231132E-1
1.222148156E1,-1.106922746E0,1.255066246E-1,7.190058231E-1
1.224347844E1,-1.202758789E0,4.383219779E-1,1.364585638E0
1.226348000E1,-1.062870622E0,5.365142226E-1,1.953547001E0
1.228547844E1,-5.553463101E-1,7.411715388E-1,2.295631647E0
1.230547844E1,7.791149616E-2,9.630901217E-1,2.362041235E0
1.232548000E1,7.988023162E-1,1.205114961E0,2.305475235E0
1.234548000E1,1.178132176E0,1.398270488E0,2.165430069E0
1.236748156E1,7.915766239E-1,1.526988506E0,2.062595129E0
1.238948000E1,-1.827359647E-1,1.368128657E0,2.466132879E0
1.240948000E1,-8.179834485E-1,1.248050094E0,2.838149786E0
1.242948000E1,-9.620778561E-1,1.304895401E0,2.936882973E0
1.244948156E1,-7.934266925E-1,1.436388493E0,2.817502499E0
1.247148000E1,-5.197765231E-1,1.465535522E0,2.579020739E0
1.249148156E1,-2.156877816E-1,1.302155256E0,2.370000124E0
1.251348156E1,1.570098251E-1,1.096049309E0,2.237023354E0
1.253548156E1,3.467096686E-1,9.475916028E-1,2.200755358E0
1.255747844E1,2.240304649E-1,8.322951794E-1,2.198434114E0
1.257748000E1,-1.313360184E-1,6.227684021E-1,2.236342669E0
1.259748000E1,-5.002986193E-1,3.960151970E-1,2.301600695E0
1.261947844E1,-5.239129066E-1,1.203055456E-1,2.207335234E0
1.263948000E1,-3.067590594E-1,7.773696631E-2,1.971663594E0
1.265948625E1,-1.907121241E-1,2.054077983E-1,1.720597982E0
1.267948781E1,-2.420422584E-1,4.849746227E-1,1.535784960E0
1.270148156E1,-2.744530141E-1,8.807803988E-1,1.132421970E0
1.272350500E1,-3.052406311E-1,1.281979203E0,6.362772584E-1
1.274547844E1,-2.748195529E-1,1.148444057E0,8.309512585E-2
1.276548000E1,-2.126160115E-1,5.075068474E-1,-3.857701123E-1
1.278548000E1,-2.904925942E-1,-1.510582417E-1,-9.330355525E-1
1.280748000E1,-2.633527219E-1,-8.087506890E-1,-1.695063710E0
1.282748000E1,1.302539259E-1,-1.206895232E0,-2.418380499E0
1.284748156E1,5.113640428E-1,-1.121583462E0,-2.897525787E0
1.286748156E1,6.552664042E-1,-7.602828741E-1,-3.100315571E0
1.288948938E1,6.237981319E-1,-3.308446109E-1,-3.196361065E0
1.291148156E1,5.562539101E-1,-2.326698452E-1,-3.348710775E0
1.293348156E1,5.280842781E-1,-4.591786861E-1,-3.642676592E0
1.295348156E1,5.635493398E-1,-8.505163789E-1,-3.910654545E0
1.297548000E1,6.383192539E-1,-1.258469701E0,-4.056040287E0
1.299548000E1,5.892929435E-1,-1.564094305E0,-3.946486235E0
1.301548000E1,3.991218805E-1,-1.698135495E0,-3.645154953E0
1.303548156E1,1.606401056E-1,-1.612876177E0,-3.260746241E0
1.305747844E1,-8.674286306E-2,-1.278890014E0,-2.736344576E0
1.307748000E1,-2.290221006E-1,-1.029255509E0,-2.137871265E0
1.309748000E1,-2.311863154E-1,-1.025625229E0,-1.479690194E0
1.311947844E1,-1.021541208E-1,-1.006862998E0,-7.276452184E-1
1.313947844E1,-6.405358203E-3,-8.741132617E-1,-1.716007739E-1
1.315948000E1,-2.583087236E-2,-5.675635934E-1,2.407158166E-1
1.317948000E1,-2.310292274E-1,-1.131846011E-1,4.263490140E-1
1.320148000E1,-6.718819737E-1,2.618866563E-1,9.288293123E-1
1.322148000E1,-8.739038110E-1,3.503224850E-1,1.682689428E0
1.324148000E1,-7.724128962E-1,4.634547234E-1,2.132897139E0
1.326148156E1,-5.207364559E-1,7.908784747E-1,2.184663534E0
1.328347844E1,-1.148252115E-1,1.221608281E0,2.093190908E0
1.330348000E1,2.830575109E-1,1.370327830E0,2.099194765E0
1.332350344E1,4.602782428E-1,1.263792872E0,2.168327332E0
1.334547844E1,3.405312002E-1,1.086432576E0,2.339648724E0
1.336547844E1,1.224697530E-1,1.051717997E0,2.590033770E0
1.338547844E1,-9.311331809E-2,1.166909695E0,2.809124947E0
1.340548000E1,-3.827157915E-1,1.281089067E0,2.917282820E0
1.342548000E1,-6.218608022E-1,1.333099961E0,2.869426012E0
1.344748000E1,-5.032831430E-1,1.087689161E0,2.863666296E0
1.346748000E1,-3.918264061E-2,6.811321974E-1,2.899026871E0
1.348748000E1,2.928138971E-1,4.296302497E-1,2.420439959E0
1.350748000E1,3.123615682E-1,1.810953617E-1,1.476688147E0
1.352748000E1,3.371452391E-1,5.944591388E-2,8.467813730E-1
1.354748000E1,4.281816185E-1,-1.037772745E-1,8.788082004E-1
1.356748156E1,4.870341122E-1,-2.705085874E-1,1.285504818E0
1.358948781E1,3.873583674E-1,-1.668534726E-1,1.550882101E0
1.360948781E1,3.155031800E-1,1.752310619E-2,1.471783757E0
1.363148000E1,1.944471300E-1,-1.785471849E-2,1.353450418E0
1.365148000E1,-8.028514683E-3,-3.364994749E-2,1.117516875E0
1.367148000E1,-1.964018941E-1,8.131489158E-2,9.308189750E-1
1.369148156E1,-4.269599020E-1,-7.494443655E-2,8.651248217E-1
1.371348000E1,-3.574957848E-1,-4.874006510E-1,4.148473144E-1
1.373348000E1,-2.558827102E-1,-8.027816415E-1,-3.510555327E-1
1.375348000E1,-2.483952641E-1,-1.365353584E0,-1.277336717E0
1.377547844E1,-1.302364618E-1,-1.928588867E0,-2.169112682E0
1.379547844E1,-8.326965570E-2,-1.935796976E0,-2.736606359E0
1.381547844E1,-1.806415766E-1,-1.562366366E0,-3.085253477E0
1.383548000E1,-3.418052793E-1,-1.023775220E0,-3.322216749E0
1.385548000E1,-4.428947568E-1,-4.960225821E-1,-3.502736092E0
1.387748000E1,-4.226838350E-1,-1.731366664E-1,-3.641873837E0
1.389748000E1,-2.995159626E-1,-1.914451718E-1,-3.690865278E0
1.391748000E1,-1.657539159E-1,-4.275183976E-1,-3.695263386E0
1.393748156E1,-1.249306649E-1,-7.154977322E-1,-3.616391897E0
1.395948000E1,-2.083224952E-1,-9.151459336E-1,-3.382221222E0
1.397948000E1,-3.687880635E-1,-9.175894260E-1,-3.150581121E0
1.399948000E1,-6.242170334E-1,-7.461457253E-1,-2.891399622E0
1.401948156E1,-8.870461583E-1,-5.380501151E-1,-2.484912395E0
1.403948156E1,-9.133657217E-1,-6.391221285E-1,-1.728434443E0
1.406148156E1,-4.486194253E-1,-1.201467156E0,-7.555879354E-1
1.408348156E1,-3.258529678E-2,-1.576765299E0,-1.918116771E-2
1.410548000E1,8.772024512E-2,-1.405042410E0,5.392718315E-1
1.412548000E1,1.019446775E-1,-9.101194143E-1,9.191427231E-1
1.414548000E1,9.281660616E-2,-3.080331683E-1,1.209897161E0
1.416548000E1,6.487388909E-2,1.170068756E-1,1.721051693E0
1.418548000E1,1.369908899E-1,3.758741021E-1,2.179741621E0
1.420748156E1,5.254313946E-1,6.960896850E-1,2.461001396E0
1.422947844E1,9.568592906E-1,1.086973548E0,2.404278278E0
1.424948000E1,1.009742737E0,1.527075768E0,2.183633804E0
1.426948000E1,8.543386459E-1,1.838390231E0,2.086279392E0
1.428948000E1,5.768487453E-1,1.797008395E0,2.226533890E0
1.430948000E1,2.245540619E-1,1.632703185E0,2.366910696E0
1.432948000E1,-3.902556375E-2,1.489167213E0,2.415518284E0
1.434948000E1,-1.349837631E-1,1.463249087E0,2.441907644E0
1.437148000E1,-6.859143823E-2,1.489917755E0,2.588061571E0
1.439148000E1,-6.415830553E-2,1.496759415E0,2.668433905E0
1.441148000E1,-1.372876018E-1,1.427941084E0,2.614241362E0
1.443148000E1,-9.519025683E-2,1.097759724E0,2.506292820E0
1.445148000E1,1.068141535E-1,6.599788070E-1,2.398326635E0
1.447347844E1,3.628015816E-1,3.069510460E-1,2.364240408E0
1.449347844E1,3.855257630E-1,1.677435935E-1,2.431837082E0
1.451348156E1,1.357691586E-1,3.121870458E-1,2.518475294E0
1.453548156E1,-3.097959422E-2,3.441265821E-1,2.489380598E0
1.455748000E1,2.863561809E-1,1.459095255E-2,2.194838762E0
1.457748000E1,7.727445364E-1,-3.206867874E-1,1.705692768E0
1.459748000E1,1.029360294E0,-4.001516402E-1,9.967051744E-1
1.461947844E1,1.083989143E0,-6.766641140E-2,2.707354724E-1
1.463948000E1,8.093440533E-1,4.301189482E-1,-5.323254317E-2
1.465948781E1,4.777664244E-1,7.538251281E-1,-1.840449721E-1
1.468147844E1,1.330115348E-1,7.073644996E-1,-4.721290171E-1
1.470148156E1,-2.874208093E-1,1.812698990E-1,-9.344492555E-1
1.472350500E1,-7.037342191E-1,-5.157273412E-1,-1.523846984E0
1.474547844E1,-7.586597204E-1,-9.785363078E-1,-2.011841059E0
1.476548000E1,-5.893802047E-1,-1.170470119E0,-2.354187250E0
1.478548000E1,-3.611958921E-1,-1.073953390E0,-2.612059832E0
1.480748000E1,-1.672199965E-1,-7.586597204E-1,-2.881241798E0
1.482748000E1,-1.018923223E-1,-5.590638518E-1,-3.153495789E0
1.484748156E1,-1.296256036E-1,-5.029166341E-1,-3.468492746E0
1.486748156E1,-1.575508714E-1,-6.008993983E-1,-3.765914440E0
1.488948000E1,-1.171464995E-1,-8.668003082E-1,-3.960169554E0
1.490948000E1,-4.872959107E-2,-1.207575798E0,-3.940953493E0
1.492948000E1,-5.637413636E-2,-1.469689369E0,-3.765478134E0
1.494948156E1,-2.201732844E-1,-1.591269016E0,-3.455175877E0
1.497147844E1,-4.424584210E-1,-1.378949761E0,-3.021391869E0
1.499148156E1,-6.242519021E-1,-9.957975745E-1,-2.528510809E0
1.501348156E1,-8.218231797E-1,-5.516636968E-1,-1.839978456E0
1.503548000E1,-1.191902757E0,-1.112996489E-1,-1.110186458E0
1.505748000E1,-1.665934205E0,3.546334505E-1,-6.063273549E-1
1.507748156E1,-1.879702091E0,5.725029111E-1,-1.692445725E-1
1.509948000E1,-1.393348694E0,3.979176283E-1,2.430371046E-1
1.512148156E1,-4.546233714E-1,-1.309695095E-1,9.549568892E-1
1.514348000E1,4.579220414E-1,-5.253266692E-1,1.818964720E0
1.516348156E1,1.225395679E0,-3.307573497E-1,2.321235418E0
1.518548000E1,1.711382627E0,3.189763725E-1,2.350347519E0
1.520548000E1,1.699793577E0,1.002674222E0,2.132251263E0
1.522548000E1,1.442392468E0,1.394692659E0,2.138429642E0
1.524748000E1,8.912523985E-1,1.246741056E0,2.462258101E0
1.526748000E1,2.622182667E-1,9.881705046E-1,2.780920267E0
1.528748156E1,-2.444857210E-1,9.450957775E-1,2.867331505E0
1.530948000E1,-5.616294742E-1,1.142195821E0,2.745926619E0
1.533148000E1,-4.930904210E-1,1.153243780E0,2.656391144E0
1.535148000E1,-1.106364205E-1,8.667130470E-1,2.600732565E0
1.537148000E1,3.611609936E-1,5.426054001E-1,2.519679546E0
1.539148000E1,7.760431767E-1,2.091777027E-1,2.449203014E0
1.541148000E1,1.053271294E0,-1.884431988E-1,2.469920158E0
1.543148000E1,9.324072599E-1,-1.847081929E-1,2.549036026E0
1.545148000E1,1.770461947E-1,2.298598550E-2,2.573330879E0
1.547148000E1,-2.844013870E-1,2.802998759E-2,2.595775843E0
1.549148156E1,1.932253987E-1,7.522369176E-2,2.506449938E0
1.551348000E1,6.544984579E-1,2.471560687E-1,2.103191614E0
1.553348000E1,2.637890577E-1,5.448743105E-1,1.758733392E0
1.555548000E1,-2.652551532E-1,9.254084826E-1,1.445027947E0
1.557748000E1,-1.776396036E-1,1.164047360E0,7.440338731E-1
1.559748000E1,1.158898622E-1,9.173799753E-1,7.419394702E-2
1.561947844E1,4.848349988E-1,1.857903004E-1,-7.523939610E-1
1.563948000E1,4.717799425E-1,-7.223393917E-1,-1.603172183E0
1.566148000E1,-1.417207345E-2,-1.624255776E0,-2.507182837E0
1.568148000E1,-5.182406306E-1,-1.963652492E0,-3.153181553E0
1.570148156E1,-8.104785681E-1,-1.770200133E0,-3.596512794E0
1.572350500E1,-8.301833272E-1,-1.409929276E0,-3.862169266E0
1.574547844E1,-7.569318414E-1,-1.229793906E0,-4.026875973E0
1.576548000E1,-6.363819242E-1,-1.056011438E0,-4.198808193E0
1.578548000E1,-4.586725235E-1,-8.702735305E-1,-4.334734440E0
1.580748000E1,-3.198490441E-1,-8.903447986E-1,-4.363794327E0
1.582748000E1,-2.604380250E-1,-1.107533574E0,-4.281466961E0
1.584748000E1,-2.122494876E-1,-1.445883155E0,-4.114543915E0
1.586748000E1,-1.633628160E-1,-1.710056186E0,-3.853302956E0
1.588748000E1,-1.757895648E-1,-1.793290854E0,-3.532319546E0
1.590748000E1,-2.219709754E-1,-1.762416005E0,-3.120718479E0
1.592748156E1,-2.806489468E-1,-1.699357271E0,-2.627750158E0
1.594948156E1,-3.877947032E-1,-1.556065798E0,-1.949829459E0
1.597148000E1,-5.538278818E-1,-1.345945597E0,-1.203945518E0
1.599148156E1,-6.198536754E-1,-8.730834723E-1,-5.306324363E-1
1.601348156E1,-6.529800296E-1,-1.204626262E-1,2.275036722E-1
1.603548156E1,-5.867273211E-1,6.243216991E-1,7.246956229E-1
1.605748000E1,-2.240130156E-1,1.106521249E0,1.372195363E0
1.607748000E1,1.348965019E-1,1.088125467E0,2.095896006E0
1.609748000E1,5.803917646E-1,1.100115895E0,2.590033770E0
1.611947844E1,9.838420749E-1,1.417922974E0,2.769174337E0
1.613947844E1,1.112158656E0,1.827778578E0,2.692746401E0
1.615948000E1,1.027457833E0,2.047131538E0,2.647105932E0
1.617948000E1,7.099650502E-1,1.947054386E0,2.664384604E0
1.620148000E1,2.114291787E-1,1.540759206E0,2.636424541E0
1.622148000E1,-8.827875555E-2,1.205533862E0,2.581394196E0
1.624347844E1,-1.453161091E-1,9.769829512E-1,2.611675739E0
1.626347844E1,-4.810127243E-2,8.974133730E-1,2.678643942E0
1.628348000E1,1.868898571E-1,8.380721807E-1,2.688313246E0
1.630348156E1,5.149244666E-1,7.490429282E-1,2.648746490E0
1.632350344E1,7.906341553E-1,6.538701653E-1,2.657752514E0
1.634548000E1,7.952418327E-1,6.577098966E-1,2.659393072E0
1.636748156E1,4.431914687E-1,7.158119082E-1,2.632183313E0
1.638948312E1,2.857103944E-2,6.323851347E-1,2.571009636E0
1.641148156E1,-1.001644433E-1,4.299269617E-1,2.497042656E0
1.643348000E1,-5.801474303E-2,3.675139844E-1,2.423424482E0
1.645348000E1,1.072853878E-1,4.292288125E-1,2.308651686E0
1.647348000E1,3.389778435E-1,4.375889599E-1,2.108322859E0
1.649547844E1,2.801078856E-1,6.120171547E-1,1.755905986E0
1.651547844E1,1.509535313E-1,6.855653524E-1,1.153104067E0
1.653548000E1,2.496868074E-1,3.707428277E-1,5.078558922E-1
1.655548000E1,3.533942699E-1,-1.811651699E-2,-2.011491954E-1
1.657748000E1,1.348790377E-1,-6.479709148E-1,-1.077444077E0
1.659748000E1,-2.724982500E-1,-1.356784105E0,-1.928274632E0
1.661947844E1,-6.777637005E-1,-1.593363404E0,-2.730061531E0
1.663948000E1,-8.991587162E-1,-1.251662850E0,-3.254358292E0
1.665948625E1,-9.122835994E-1,-7.727096081E-1,-3.493852377E0
1.667948781E1,-7.201926708E-1,-5.233020782E-1,-3.593580484E0
1.670148000E1,-4.417602718E-1,-5.806884766E-1,-3.738704681E0
1.672350500E1,-2.383247018E-1,-6.221575141E-1,-3.897424936E0
1.674547844E1,-1.672199965E-1,-5.654168725E-1,-3.972491503E0
1.676548000E1,-1.908517480E-1,-5.161287785E-1,-3.778568029E0
1.678548000E1,-3.180513382E-1,-6.645690203E-1,-3.288514376E0
1.680748000E1,-4.098381996E-1,-8.981464505E-1,-2.709501505E0
1.682748000E1,-2.890090644E-1,-1.096869588E0,-2.311897993E0
1.684748000E1,-1.378810108E-1,-1.269011497E0,-2.092754602E0
1.686748156E1,-8.197811246E-2,-1.363538504E0,-1.965991259E0
1.688948000E1,-1.617047489E-1,-1.416055441E0,-1.682724237E0
1.690948000E1,-3.296577930E-1,-1.152981997E0,-1.311038971E0
1.692948000E1,-5.240176320E-1,-6.295402646E-1,-9.950296283E-1
1.694948156E1,-7.145028710E-1,5.108578876E-2,-6.103416085E-1
1.696948156E1,-8.060454130E-1,7.241894603E-1,-9.712757170E-2
1.699148156E1,-7.470532656E-1,1.118947983E0,6.602405906E-1
1.701348156E1,-3.724183440E-1,1.191815495E0,1.879178524E0
1.703548156E1,3.062529266E-1,9.495463967E-1,2.450721502E0
1.705748000E1,9.269094467E-1,7.366685867E-1,2.239013195E0
1.707748000E1,1.182512879E0,5.464800596E-1,1.767390251E0
1.709748000E1,1.082365990E0,5.811597109E-1,1.567986369E0
1.711947844E1,7.510500550E-1,8.059581518E-1,1.868723989E0
1.713947844E1,3.045948744E-1,9.560738802E-1,2.369336843E0
1.715947844E1,-8.377579972E-3,1.124969363E0,2.641834974E0
1.717948000E1,-1.309345961E-1,1.194032073E0,2.699361086E0
1.719948000E1,-2.921681106E-2,1.015711784E0,2.727530718E0
1.721948000E1,3.174753785E-1,6.424033642E-1,2.768423796E0
1.723948000E1,6.734527349E-1,3.400948644E-1,2.747549772E0
1.725948000E1,7.618885636E-1,2.704736590E-1,2.690145731E0
1.727948625E1,5.628861189E-1,4.304330945E-1,2.664402246E0
1.730148000E1,1.957561225E-1,6.292610168E-1,2.585129261E0
1.732148781E1,-1.450019479E-1,7.490603924E-1,2.431243658E0
1.734347844E1,-3.729768693E-1,6.740286946E-1,2.328775406E0
1.736348000E1,-3.993313313E-1,4.771555662E-1,2.340922832E0
1.738348000E1,-3.215769231E-1,2.754653096E-1,2.287829876E0
1.740348000E1,-2.261772156E-1,1.339714676E-1,2.090136528E0
1.742350344E1,-1.063778177E-1,4.984660447E-2,1.827988029E0
1.744547844E1,8.302531391E-2,1.129926145E-1,1.430751085E0
1.746548000E1,2.468244582E-1,3.958057761E-1,9.080948234E-1
1.748548000E1,1.817411333E-1,6.586174369E-1,3.996804059E-1
1.750748156E1,1.442340016E-1,6.984633207E-1,-2.539454103E-1
1.752948156E1,6.403613091E-2,1.974840015E-1,-1.079172015E0
1.754948156E1,-1.734333634E-1,-5.843536854E-1,-1.836784482E0
1.756948625E1,-4.133114219E-1,-1.242796540E0,-2.480845928E0
1.759148000E1,-4.261395931E-1,-1.599175334E0,-3.089407206E0
1.761348000E1,-2.520255446E-1,-1.560900331E0,-3.486242771E0
1.763348000E1,-4.021238536E-2,-1.312784314E0,-3.680969238E0
1.765348156E1,1.663298756E-1,-9.662491679E-1,-3.831660986E0
1.767547844E1,3.417878151E-1,-6.675884128E-1,-3.971933126E0
1.769548000E1,4.209559560E-1,-5.113814473E-1,-4.077507973E0
1.771748156E1,4.794244766E-1,-5.800601840E-1,-4.091174126E0
1.773948000E1,5.190259814E-1,-9.607862830E-1,-3.969716549E0
1.775948000E1,4.145157039E-1,-1.448291659E0,-3.682330608E0
1.777948000E1,2.396511585E-1,-1.758174896E0,-3.329581976E0
1.780147844E1,1.596278101E-1,-1.779799461E0,-2.976327419E0
1.782148000E1,1.648288965E-1,-1.527529597E0,-2.643178940E0
1.784148000E1,1.869771183E-1,-1.054877043E0,-2.290814400E0
1.786148000E1,5.181882530E-2,-4.839274287E-1,-1.896754026E0
1.788348000E1,-5.429195762E-1,-5.173156038E-2,-1.233755827E0
1.790548000E1,-1.168323398E0,1.339191198E-1,-6.063622832E-1
1.792548000E1,-1.247526407E0,5.729915947E-2,-3.369008899E-1
1.794548000E1,-9.201375842E-1,-5.138249323E-2,-1.014908925E-1
1.796548156E1,-6.501874924E-1,-2.458994389E-1,5.749638081E-1
1.798748000E1,-2.498613298E-1,-2.289348394E-1,1.410540223E0
1.800748000E1,2.179043591E-1,1.190663576E-1,1.811145663E0
1.802748000E1,6.552140713E-1,6.534337997E-1,1.850974083E0
1.804748000E1,8.042302728E-1,1.207296610E0,1.857466698E0
1.806748156E1,4.192804396E-1,1.780567408E0,1.913736105E0
1.808947844E1,-4.134335816E-1,1.956845641E0,2.139791012E0
1.810948000E1,-9.525657892E-1,1.771474242E0,2.483568668E0
1.812948000E1,-8.728391528E-1,1.480458021E0,2.704405069E0
1.814948000E1,-3.627317846E-1,1.181553006E0,2.802108765E0
1.816948000E1,7.524114102E-2,9.342398643E-1,2.882271528E0
1.818948000E1,1.797863692E-1,7.172256112E-1,2.959834099E0
1.820948000E1,1.373050511E-1,5.647012591E-1,2.994862795E0
1.823148000E1,1.096066739E-2,4.455651045E-1,2.918242931E0
1.825148000E1,-1.307949722E-1,3.096563220E-1,2.765037775E0
1.827148156E1,-3.384193480E-1,1.825614423E-1,2.621501923E0
1.829348156E1,-4.882383943E-1,1.854412258E-1,2.625673294E0
1.831547844E1,-4.709247351E-1,3.122394085E-1,2.818217993E0
1.833548000E1,-3.880565166E-1,5.245063305E-1,2.841186523E0
1.835548000E1,-3.452784717E-1,8.466417789E-1,2.647524834E0
1.837748000E1,-2.996730208E-1,1.320725560E0,2.345059395E0
1.839748000E1,-2.692694068E-1,1.610694528E0,1.955519199E0
1.841748000E1,-2.875604331E-1,1.803937435E0,1.451276183E0
1.843748000E1,-3.716154993E-1,1.756062984E0,8.515461683E-1
1.845748000E1,-4.325449467E-1,1.396019101E0,1.169545129E-1
1.847748000E1,-3.821747303E-1,6.214070320E-1,-6.488087177E-1
1.849748156E1,-1.751263440E-1,-3.538655043E-1,-1.371619344E0
1.851948000E1,1.951801628E-1,-1.298786759E0,-2.106699705E0
1.853948781E1,5.578595996E-1,-1.711504817E0,-2.688993931E0
1.856148000E1,8.713381886E-1,-1.692341089E0,-3.117891073E0
1.858148000E1,1.068211317E0,-1.391324162E0,-3.348134995E0
1.860347844E1,1.170836687E0,-9.226159453E-1,-3.547049999E0
1.862350344E1,1.120257020E0,-5.705306530E-1,-3.748496056E0
1.864547844E1,9.637708068E-1,-3.793647587E-1,-4.017695427E0
1.866547844E1,8.190306425E-1,-2.914350629E-1,-4.145349026E0
1.868548000E1,6.994755864E-1,-3.323106766E-1,-4.009300709E0
1.870548000E1,6.103940010E-1,-4.371526241E-1,-3.638889313E0
1.872548000E1,5.159891248E-1,-6.222622395E-1,-3.246015787E0
1.874748000E1,3.750887215E-1,-7.334396839E-1,-2.874627113E0
1.876748000E1,1.182809621E-1,-7.994829416E-1,-2.591098309E0
1.878748156E1,-1.687209755E-1,-8.757189512E-1,-2.341079950E0
1.880948000E1,-4.182681441E-1,-9.265429378E-1,-2.031807661E0
1.882948000E1,-6.240250468E-1,-9.009040594E-1,-1.763253808E0
1.885148000E1,-7.655363083E-1,-7.653792500E-1,-1.259237647E0
1.887148000E1,-6.236410737E-1,-5.862910151E-1,-6.616194248E-1
1.889148156E1,-2.986083925E-1,-4.078136384E-1,6.414084882E-2
1.891348000E1,-1.136383861E-1,-4.515690506E-1,8.098676801E-1
1.893348000E1,-1.055575162E-1,-3.153286278E-1,1.203195095E0
1.895348000E1,-7.682939619E-2,-3.000221029E-2,1.346137524E0
1.897348000E1,4.005530477E-2,3.706555665E-1,1.408428311E0
1.899548000E1,3.254689872E-1,8.094662428E-1,1.485641718E0
1.901548000E1,5.108404160E-1,9.948725700E-1,1.545576334E0
1.903548000E1,3.950727284E-1,9.694606066E-1,1.685220122E0
1.905548000E1,5.380849913E-2,7.495141625E-1,1.972693324E0
1.907748000E1,-2.577502131E-1,5.728344917E-1,2.251841307E0
1.909748000E1,-2.897246480E-1,5.721014738E-1,2.370261908E0
1.911947844E1,-1.420523524E-1,5.775992870E-1,2.364100933E0
1.913948000E1,1.443387289E-2,3.689626157E-1,2.368673563E0
1.915948000E1,2.284985036E-1,-5.305801053E-3,2.452885628E0
1.917948000E1,3.803595901E-1,-3.147526681E-1,2.507724047E0
1.919948000E1,4.204148948E-1,-5.266007185E-1,2.474388123E0
1.921948000E1,3.752981424E-1,-6.499955058E-1,2.403719902E0
1.923948000E1,1.232202426E-1,-6.041980982E-1,2.308965921E0
1.925948000E1,-2.069087774E-1,-3.766595125E-1,2.215276480E0
1.928148000E1,-3.949854672E-1,3.747221828E-2,2.131762505E0
1.930148000E1,-4.129623473E-1,3.649483323E-1,1.939217925E0
1.932148625E1,-3.948807418E-1,7.337713242E-1,1.782871246E0
1.934347844E1,-3.015579879E-1,7.683113813E-1,1.516376972E0
1.936347844E1,-1.286307722E-1,7.172954082E-1,1.099889040E0
1.938348000E1,2.879793197E-2,7.329335809E-1,6.910107732E-1
1.940548000E1,2.169095129E-1,5.238082409E-1,1.744805574E-1
1.942548000E1,2.733534575E-1,2.076941775E-3,-3.552094102E-1
1.944548000E1,1.233598739E-1,-7.189534903E-1,-9.462826252E-1
1.946548000E1,1.499237865E-2,-1.371846199E0,-1.462201953E0
1.948548156E1,7.958701253E-2,-1.661291599E0,-1.903648019E0
1.950748156E1,2.369982600E-1,-1.508941889E0,-2.267269850E0
1.952949250E1,3.763279021E-1,-1.049326897E0,-2.459640265E0
1.955148312E1,4.144284427E-1,-5.914746523E-1,-2.574378014E0
1.957347844E1,4.140270054E-1,-1.922829300E-1,-2.772542715E0
1.959348000E1,3.835361004E-1,4.721115530E-2,-3.003851175E0
1.961348000E1,4.134161472E-1,1.387362182E-1,-3.163688421E0
1.963548000E1,4.781678617E-1,2.787290886E-2,-3.158051014E0
1.965748156E1,4.412541389E-1,-3.294309080E-1,-2.896775246E0
1.967948000E1,3.101799190E-1,-7.546105385E-1,-2.542595625E0
1.969948000E1,1.259953231E-1,-9.175370336E-1,-2.282314777E0
1.971948000E1,-2.319018990E-1,-9.200153947E-1,-1.966567159E0
1.973948000E1,-6.849719286E-1,-9.514662623E-1,-1.516708612E0
1.976147844E1,-8.791572452E-1,-9.426348805E-1,-9.638929963E-1
1.978148000E1,-7.615395188E-1,-6.720041037E-1,-5.886122584E-1
1.980148625E1,-7.749436498E-1,-1.553343087E-1,-3.740764260E-1
1.982350344E1,-1.001365185E0,4.824264646E-1,-5.288870931E-1
1.984548000E1,-1.140572667E0,1.089382172E0,-5.856975913E-1
1.986748156E1,-1.010109305E0,1.166002154E0,-1.547059864E-1
1.988948000E1,-5.342103839E-1,6.819699407E-1,8.335518241E-1
1.990948000E1,-4.927064478E-2,4.264537394E-1,1.571319938E0
1.992948000E1,2.753955126E-1,4.952371716E-1,1.807305932E0
1.995148000E1,4.130321741E-1,7.321656346E-1,1.786065221E0
1.997148000E1,2.271022350E-1,8.146848083E-1,1.836609960E0
1.999148156E1,-2.264913768E-1,8.282110691E-1,1.969237566E0
2.001348156E1,-6.626142263E-1,8.711462021E-1,2.086698294E0
2.003548000E1,-8.044397235E-1,9.223541617E-1,2.117415905E0
2.005548156E1,-6.171309948E-1,8.725424409E-1,2.098863125E0
2.007748156E1,-2.403143793E-1,5.879665017E-1,2.115356445E0
2.009948156E1,8.923868090E-2,1.560847908E-1,2.075720072E0
2.012148781E1,2.068564296E-1,-1.794198453E-1,2.024424791E0
2.014348000E1,2.404191047E-1,-3.608468175E-1,2.287934542E0
2.016348156E1,1.051735431E-1,-3.405137360E-1,2.348898888E0
2.018548000E1,-4.035375714E-1,-1.556833647E-2,1.741890907E0
2.020748000E1,-8.942892551E-1,6.145129800E-1,7.803018093E-1
2.022748000E1,-9.590933323E-1,8.436572552E-1,3.040014505E-1
2.024748000E1,-7.523590922E-1,7.366511226E-1,2.280447185E-1
2.026748000E1,-4.701742530E-1,6.538527012E-1,4.451287687E-1
2.028748156E1,-2.604554892E-1,7.230550051E-1,5.224992037E-1
2.030948781E1,-2.979277074E-2,9.062272906E-1,2.066644430E-1
2.033148000E1,8.079128712E-2,7.330557108E-1,-1.038470864E-2
2.035148156E1,6.525786221E-2,1.219810620E-1,-3.216641843E-1
2.037348000E1,-2.399827726E-2,-7.506835461E-1,-7.297221422E-1
2.039552844E1,1.162389293E-2,-1.385355115E0,-1.160417080E0
2.041748000E1,1.940457076E-1,-1.669616818E0,-1.484210491E0
2.043748000E1,3.922801912E-1,-1.540637016E0,-1.672199965E0
2.045748000E1,5.014330745E-1,-1.150328994E0,-1.828232408E0
2.047748000E1,4.651651382E-1,-7.127401233E-1,-1.904433489E0
2.049748156E1,4.016002715E-1,-3.260798752E-1,-1.961575508E0
2.051947844E1,4.799131751E-1,-3.658210114E-2,-2.130034685E0
2.053948000E1,6.673790216E-1,-1.213003788E-2,-2.366701365E0
2.055948000E1,9.127373695E-1,-2.196322381E-1,-2.624591112E0
2.057948000E1,9.638929963E-1,-5.690994859E-1,-2.831604719E0
2.059948000E1,7.784692049E-1,-9.169087410E-1,-2.848848581E0
2.062148000E1,3.887371719E-1,-1.196807146E0,-2.683426380E0
2.064148156E1,6.510078162E-2,-1.256916285E0,-2.417891979E0
2.066348000E1,-1.447925121E-1,-1.140223622E0,-2.116508484E0
2.068348000E1,-2.569473684E-1,-8.395208120E-1,-1.753549695E0
2.070348000E1,-4.464028478E-1,-2.498264313E-1,-9.879436493E-1
2.072350500E1,-9.702110887E-1,3.250326514E-1,-1.118756011E-1
2.074547844E1,-1.556484580E0,1.034369349E0,5.064945221E-1
2.076548000E1,-1.580378175E0,1.633279085E0,7.898138165E-1
2.078548000E1,-1.159492016E0,1.606505752E0,1.230317473E0
2.080748000E1,-5.244888663E-1,8.064642549E-1,1.794687152E0
2.082748000E1,1.823868975E-2,2.218138874E-1,2.068476915E0
2.084748000E1,4.502949417E-1,4.871213809E-2,2.036345482E0
2.086748156E1,7.209256887E-1,3.033033311E-1,1.846017241E0
2.088948000E1,5.581911802E-1,6.568895578E-1,1.759675860E0
2.090948000E1,-3.942698613E-2,8.965232968E-1,1.843800664E0
2.093148000E1,-7.718544006E-1,9.662840962E-1,2.004458189E0
2.095148000E1,-9.875945449E-1,8.403411508E-1,2.132251263E0
2.097148625E1,-7.703883052E-1,6.136752367E-1,2.188852310E0
2.099347844E1,-2.856929302E-1,4.542044699E-1,2.195292473E0
2.101348156E1,7.712610066E-2,5.573185086E-1,2.199219465E0
2.103547844E1,-7.086037099E-2,7.274183035E-1,2.313503742E0
2.105548156E1,-2.755002081E-1,6.748664379E-1,2.420090914E0
2.107748000E1,-1.598547101E-1,8.658229113E-1,2.416914463E0
2.109748000E1,-4.536808729E-1,9.886941314E-1,2.175273657E0
2.111948000E1,-1.129053473E0,7.637909651E-1,1.729167461E0
2.114148000E1,-1.467612505E0,1.637642384E-1,1.645060062E0
2.116148625E1,-1.283881664E0,-1.970825791E-1,1.689147115E0
2.118348000E1,-8.176518679E-1,-1.873087287E-1,1.569714189E0
2.120348000E1,-2.846457362E-1,-4.593706504E-2,1.415339828E0
2.122350500E1,8.368853480E-2,2.073800266E-1,1.262152314E0
2.124547844E1,3.155729771E-1,5.041558146E-1,9.825330973E-1
2.126548000E1,4.680798650E-1,6.206565499E-1,6.406580210E-1
2.128548000E1,6.221749783E-1,2.675240636E-1,1.217541695E-1
2.130748000E1,5.154655576E-1,-4.969825149E-1,-5.653296113E-1
2.132748000E1,3.703064919E-1,-1.347813010E0,-1.268086433E0
2.134748000E1,3.126233816E-1,-1.788526177E0,-1.914277077E0
2.136748000E1,3.115761876E-1,-1.689182043E0,-2.445363283E0
2.138748000E1,3.996454775E-1,-1.252256274E0,-2.744111300E0
2.140748000E1,5.164428949E-1,-7.267550826E-1,-2.913303614E0
2.142748156E1,6.846577525E-1,-3.243345320E-1,-3.073838949E0
2.144947844E1,8.688772321E-1,-1.595929116E-1,-3.265650749E0
2.146948000E1,1.025852203E0,-1.307775229E-1,-3.417127848E0
2.148948000E1,1.120833039E0,-1.594183743E-1,-3.490798235E0
2.150948313E1,1.080603123E0,-2.725506127E-1,-3.513155699E0
2.153148000E1,7.543138266E-1,-4.919036031E-1,-3.384018898E0
2.155148156E1,4.868072271E-1,-8.818275928E-1,-3.024655581E0
2.157148156E1,3.902381659E-1,-1.340447783E0,-2.704893827E0
2.159348000E1,4.395088255E-1,-1.622650027E0,-2.567291975E0
2.161348000E1,3.821049333E-1,-1.718067169E0,-2.368917942E0
2.163348000E1,2.398431450E-1,-1.700125217E0,-1.863278627E0
2.165348156E1,1.802227050E-1,-1.580448031E0,-1.136296630E0
2.167547844E1,1.218065247E-1,-1.248119831E0,-4.981867671E-1
2.169548000E1,2.982767671E-2,-7.261267900E-1,-5.021312088E-2
2.171548000E1,-1.252273768E-1,-2.283239663E-1,2.908242047E-1
2.173748000E1,-3.896796703E-1,3.055897057E-1,9.589536786E-1
2.175748000E1,-4.953069985E-1,5.830795765E-1,1.659301996E0
2.177748000E1,-2.852042615E-1,7.559719086E-1,2.072491169E0
2.179748000E1,6.707300246E-2,1.024037004E0,2.101166964E0
2.181748000E1,3.035651147E-1,1.284056187E0,1.923527360E0
2.183748000E1,3.332008123E-1,1.344758749E0,1.825108290E0
2.185748156E1,1.249481216E-1,1.149473786E0,1.789835095E0
2.187948000E1,-2.816263139E-1,8.643219471E-1,1.803099632E0
2.189948000E1,-5.525537729E-1,7.547327280E-1,1.940090537E0
2.191948000E1,-5.689773560E-1,7.649428844E-1,2.099788189E0
2.193948000E1,-4.504171312E-1,8.367108107E-1,2.229553461E0
2.195948000E1,-3.078411818E-1,8.709542155E-1,2.333959103E0
2.198148156E1,-9.885545075E-2,8.055567145E-1,2.436566830E0
2.200148156E1,4.180063680E-2,7.138396502E-1,2.470408916E0
2.202350500E1,-5.098106712E-2,5.791002512E-1,2.365531921E0
2.204548000E1,-2.560397983E-1,3.791378736E-1,2.160804987E0
2.206748156E1,-3.002315462E-1,2.707354724E-1,1.936442852E0
2.208948781E1,-2.103296220E-1,2.087588310E-1,1.726514578E0
2.211147844E1,5.288347602E-2,1.745329246E-5,1.464331269E0
2.213148156E1,2.793574035E-1,-8.260643482E-2,1.203736186E0
2.215348156E1,1.535540670E-1,-8.138470352E-2,1.049326897E0
2.217548000E1,-3.673918173E-2,4.782202188E-3,1.082662582E0
2.219548000E1,-1.190314535E-2,1.704139411E-1,9.445547462E-1
2.221548000E1,-1.263443828E-1,3.929085135E-1,7.865675092E-1
2.223748000E1,-2.836509049E-1,4.063650072E-1,4.169591665E-1
2.225748000E1,-3.814940751E-1,3.380702808E-2,-7.300712168E-2
2.227748000E1,-3.430095613E-1,-6.171135306E-1,-6.871535778E-1
2.229748156E1,-1.589994878E-1,-1.238311052E0,-1.273339868E0
2.231948000E1,5.174901336E-2,-1.557043076E0,-1.758174896E0
2.233948625E1,1.397136003E-1,-1.466757298E0,-2.040796041E0
2.235948781E1,1.399055868E-1,-9.150936007E-1,-2.208225489E0
2.238148000E1,4.864232615E-2,1.718451232E-1,-2.401241541E0
2.240148000E1,8.934340626E-2,9.520770907E-1,-2.684822559E0
2.242148156E1,3.650356233E-1,1.163663387E0,-2.980201960E0
2.244348156E1,8.557872772E-1,7.395309210E-1,-3.259873629E0
2.246548156E1,1.279867411E0,-2.046224028E-1,-3.378800392E0
2.248748000E1,1.306972384E0,-1.154971600E0,-3.354051590E0
2.250748156E1,1.054667592E0,-1.681031346E0,-3.216345072E0
2.252948000E1,6.740112305E-1,-1.917034745E0,-2.986869097E0
2.255148156E1,4.560894370E-1,-1.928344488E0,-2.640421391E0
2.257148156E1,4.328416586E-1,-1.912671447E0,-2.279853821E0
2.259348000E1,4.240975678E-1,-1.638218403E0,-1.892094016E0
2.261348000E1,3.267256320E-1,-1.051211834E0,-1.447593570E0
2.263348000E1,-2.411521375E-1,-5.095314384E-1,-8.906415105E-1
2.265348156E1,-9.196838140E-1,-1.148077548E-1,-3.757519424E-1
2.267547844E1,-1.176334500E0,3.990346193E-1,2.161066681E-1
2.269548000E1,-1.369106054E0,4.371002614E-1,7.502123117E-1
2.271548000E1,-1.368128657E0,3.430095613E-1,1.130379915E0
2.273748000E1,-8.340928555E-1,3.861017227E-1,1.471748829E0
2.275748000E1,2.759365551E-2,7.405083179E-1,1.716810584E0
2.277748000E1,6.992661357E-1,1.135511160E0,1.747493505E0
2.279748000E1,6.276901960E-1,1.556379914E0,1.704732895E0
2.281748000E1,-5.031784251E-2,1.656893373E0,1.909826517E0
2.283748000E1,-7.101046443E-1,1.423857093E0,2.190929174E0
2.285748156E1,-8.850041032E-1,1.104723573E0,2.356421471E0
2.287947844E1,-6.047042012E-1,7.049908638E-1,2.485034704E0
2.289948156E1,-2.006604970E-1,4.313581288E-1,2.538040400E0
2.292148781E1,1.657888293E-1,2.522175312E-1,2.436619282E0
2.294348156E1,3.128677309E-1,1.570098251E-1,2.259572983E0
2.296548000E1,2.060361207E-1,1.368687153E-1,2.149058819E0
2.298548000E1,-3.218387067E-2,9.896016866E-2,2.055142641E0
2.300748000E1,-2.885901928E-1,4.843288660E-2,1.918727756E0
2.302748000E1,-4.412017763E-1,-5.489060655E-2,1.781352878E0
2.304748000E1,-5.399525166E-1,-1.991769671E-1,1.655532002E0
2.306748156E1,-4.158770442E-1,-1.858775616E-1,1.614813566E0
2.308748156E1,-1.046324894E-1,-6.194173545E-2,1.613504529E0
2.310948781E1,1.609019041E-1,1.291194558E-1,1.460247159E0
2.313148156E1,2.582389116E-1,3.198141456E-1,1.138268828E0
2.315348156E1,1.823869050E-1,5.896245837E-1,7.559021115E-1
2.317547844E1,3.419100121E-2,7.493047714E-1,4.314104915E-1
2.319548000E1,-1.429424621E-2,6.554234624E-1,-1.328195538E-2
2.321548000E1,-1.653350443E-1,3.192207217E-1,-6.399773359E-1
2.323748000E1,-3.488913178E-1,-1.291020066E-1,-1.389037728E0
2.325748000E1,-3.307922482E-1,-4.200134873E-1,-1.922323108E0
2.327748000E1,-1.058193147E-1,-4.851840734E-1,-2.334203243E0
2.329748000E1,2.668608427E-1,-3.802897930E-1,-2.592721462E0
2.331748000E1,6.030112505E-1,-1.389631182E-1,-2.740533352E0
2.333748000E1,8.137422800E-1,6.665412337E-2,-2.823907852E0
2.335748156E1,8.975704908E-1,1.691398621E-1,-2.929587603E0
2.337948000E1,8.834682107E-1,6.728244573E-2,-3.065129757E0
2.339948000E1,7.976329327E-1,-2.013411820E-1,-3.131452322E0
2.341948000E1,6.929131746E-1,-5.125333667E-1,-3.073018551E0
2.344147844E1,5.429195762E-1,-7.979121804E-1,-2.846911192E0
2.346148000E1,4.002737999E-1,-8.836252689E-1,-2.579177856E0
2.348148156E1,2.991843522E-1,-8.783543706E-1,-2.315528393E0
2.350148156E1,2.567902803E-1,-7.539997101E-1,-2.060046911E0
2.352350500E1,2.231054306E-1,-5.871112943E-1,-1.687489033E0
2.354548000E1,1.095368639E-1,-4.557229280E-1,-1.172389984E0
2.356748156E1,-3.796090931E-2,-3.903952539E-1,-5.544911027E-1
2.358947844E1,-2.128603607E-1,-3.699399829E-1,1.483006328E-1
2.360948000E1,-3.970100582E-1,-2.698104382E-1,6.783920527E-1
2.362948000E1,-5.116432905E-1,7.923794910E-3,9.801245332E-1
2.364948312E1,-8.414057493E-1,3.163583875E-1,1.366296053E0
2.367148000E1,-1.030913591E0,4.097160399E-1,1.700299740E0
2.369148000E1,-7.616791129E-1,4.175351262E-1,1.765767097E0
2.371148000E1,7.801621687E-3,4.224918485E-1,1.562820196E0
2.373148000E1,8.468337655E-1,4.503473043E-1,1.285365224E0
2.375148000E1,1.253879428E0,5.633050203E-1,1.122159481E0
2.377148156E1,1.004454494E0,8.243364692E-1,1.110797286E0
2.379348469E1,9.901253134E-2,1.020476580E0,1.347481489E0
2.381548000E1,-7.443829179E-1,1.150224328E0,1.689199448E0
2.383548156E1,-1.050950050E0,1.122141957E0,1.951138496E0
2.385748156E1,-8.961043954E-1,9.893922210E-1,2.155987740E0
2.387948000E1,-5.563411713E-1,8.355240226E-1,2.177978992E0
2.389948156E1,-2.209935933E-1,7.137174606E-1,2.101742983E0
2.392148000E1,3.399901465E-2,4.286179543E-1,2.119074106E0
2.394148000E1,1.003389806E-1,2.189515531E-1,2.139459610E0
2.396148625E1,-2.729694918E-2,2.401573025E-2,1.983427048E0
2.398348000E1,-2.729869485E-1,-1.876752526E-1,1.799940586E0
2.400348000E1,-4.609414637E-1,-2.424087822E-1,1.776972055E0
2.402350656E1,-4.399102330E-1,-3.096563220E-1,1.865093708E0
2.404548156E1,-1.249655709E-1,-3.271794319E-1,1.759763122E0
2.406748156E1,1.336224079E-1,-1.535715163E-1,1.370973587E0
2.408748156E1,9.499827027E-2,8.543386310E-2,1.050216913E0
2.410948469E1,-6.569419056E-2,2.464928478E-1,7.529873848E-1
2.413148156E1,-2.895675898E-1,6.853035092E-1,5.465847850E-1
2.415348156E1,-3.727150559E-1,8.172852993E-1,3.232873380E-1
2.417348156E1,-2.996032238E-1,4.787088931E-1,-1.491209269E-1
2.419548000E1,-9.805259854E-2,-4.605225623E-1,-8.105309010E-1
2.421548000E1,6.536258012E-2,-1.392807603E0,-1.440542340E0
2.423748000E1,2.306801677E-1,-1.888027310E0,-1.990513086E0
2.425748000E1,3.841120601E-1,-1.789503574E0,-2.327693224E0
2.427748000E1,5.204572082E-1,-1.388287187E0,-2.559944153E0
2.429748156E1,6.456147432E-1,-9.798103571E-1,-2.766486406E0
2.431948000E1,7.688873410E-1,-6.863332987E-1,-3.029891491E0
2.433948156E1,1.259185195E0,-1.279343843E0,-3.341240883E0
2.436148156E1,2.425780773E0,-3.078150034E0,-3.610981464E0
2.438348000E1,2.289732456E0,-4.590756893E0,-3.656604290E0
2.440348000E1,1.004803538E0,-4.721918583E0,-3.329320192E0
2.442350344E1,-2.105914205E-1,-4.279110909E0,-2.795197248E0
2.444547844E1,-8.017344475E-1,-3.500170469E0,-2.261842012E0
2.446547844E1,-8.277398348E-1,-2.742802382E0,-1.715239763E0
2.448548156E1,-7.342425585E-1,-1.922846675E0,-1.130170465E0
2.450748156E1,-6.188762784E-1,-1.176683545E0,-6.178290844E-1
2.452948000E1,-6.046518683E-1,-6.093293428E-1,-2.286904901E-1
2.454949250E1,-6.392443180E-1,-1.055749655E-1,9.529497474E-2
2.457148156E1,-6.723357439E-1,5.179089904E-1,4.017224312E-1
2.459348000E1,-6.560168862E-1,8.636587262E-1,5.575978160E-1
2.461348000E1,-7.299490571E-1,8.429591060E-1,1.219671011E0
2.463348000E1,-6.239377260E-1,8.973785043E-1,1.771003008E0
2.465348156E1,-3.091676235E-1,1.184328079E0,1.895898819E0
2.467348156E1,1.902408898E-2,1.584532022E0,1.739098430E0
2.469548000E1,4.996179640E-1,1.771910667E0,1.630277157E0
2.471548000E1,7.518354654E-1,1.704087138E0,1.755347490E0
2.473748000E1,7.038040161E-1,1.502012849E0,2.066033602E0
2.475748000E1,4.169417024E-1,1.524038911E0,2.302577972E0
2.477748000E1,2.035577446E-1,1.556903481E0,2.549158096E0
2.479748000E1,2.164382786E-1,1.537303448E0,2.770204067E0
2.481748000E1,3.983364999E-1,1.327741742E0,2.853386402E0
2.483748000E1,7.016223669E-1,9.732304811E-1,2.823977709E0
2.485748156E1,1.074669003E0,5.600587130E-1,2.800921917E0
2.487947844E1,1.266323686E0,2.367539108E-1,2.883598089E0
2.489948000E1,1.126784563E0,2.929011583E-1,3.074519634E0
2.491948000E1,8.732056618E-1,4.959876537E-1,3.252159357E0
2.493948000E1,5.260946155E-1,7.937582731E-1,2.890090704E0
2.495948000E1,6.852162629E-2,1.085804224E0,2.230862379E0
2.497948000E1,-2.299820334E-1,1.071352959E0,1.809644580E0
2.500148781E1,-3.067241609E-1,7.261965871E-1,1.447715759E0
2.502350500E1,-2.711892724E-1,4.106585085E-1,1.087566972E0
2.504548000E1,-1.970302165E-1,4.006927013E-1,5.053600669E-1
2.506748156E1,-2.302263826E-1,7.650301456E-1,-3.286454827E-2
2.508748156E1,-2.008873969E-1,8.245982528E-1,-4.315675497E-1
2.510948000E1,-2.078163475E-1,3.725056350E-1,-1.025293708E0
2.512948000E1,-2.779262364E-1,-4.222998619E-1,-1.688239574E0
2.514948000E1,-4.339761138E-1,-1.228415132E0,-2.372932196E0
2.516948156E1,-5.340358615E-1,-1.580011606E0,-3.000151157E0
2.519148000E1,-5.874429345E-1,-1.326310635E0,-3.451214075E0
2.521148000E1,-7.269994617E-1,-4.560894370E-1,-3.608485699E0
2.523148000E1,-9.206960797E-1,6.498209834E-1,-3.454425573E0
2.525148000E1,-9.009563923E-1,1.717648268E0,-3.155991554E0
2.527148156E1,-5.537580848E-1,2.624748230E0,-2.988701820E0
2.529347844E1,-1.343030781E-1,2.694613934E0,-2.990447044E0
2.531348156E1,3.853861392E-1,1.562889934E0,-3.016016245E0
2.533548000E1,9.503317475E-1,-1.923178285E-1,-3.095393896E0
2.535548000E1,1.151446104E0,-1.618618369E0,-3.095358849E0
2.537748000E1,1.040408254E0,-2.552840710E0,-3.007813215E0
2.539748000E1,6.949028373E-1,-2.837067604E0,-2.782770395E0
2.541748000E1,1.882861257E-1,-2.759330750E0,-2.352564096E0
2.543748156E1,-2.082352340E-1,-2.499451160E0,-1.943179727E0
2.545948625E1,-5.215916634E-1,-2.050273180E0,-1.537059069E0
2.548148000E1,-5.407204628E-1,-1.539380431E0,-9.672440290E-1
2.550148156E1,-4.623028040E-1,-1.039744973E0,-3.474775851E-1
2.552350500E1,-5.530948639E-1,-4.137826562E-1,2.989749052E-2
2.554548000E1,-1.119960308E0,1.002691686E-1,5.830621123E-1
2.556548000E1,-1.710474968E0,2.834414691E-2,1.120536327E0
2.558748156E1,-1.364271522E0,-1.607622802E-1,1.549660325E0
2.560948000E1,8.360127360E-2,-1.179842576E-1,1.736183763E0
2.562948000E1,1.575875282E0,2.546609938E-1,1.733007193E0
2.564948000E1,2.257792711E0,5.684013963E-1,1.757878184E0
2.566948000E1,2.030969858E0,8.681616783E-1,1.906231165E0
2.568948000E1,1.432269573E0,1.073918581E0,2.082509518E0
2.571148000E1,7.548374534E-1,1.228921175E0,2.172969818E0
2.573148625E1,3.531324565E-1,1.177276969E0,2.215817690E0
2.575347844E1,2.087588310E-1,9.888162613E-1,2.234684706E0
2.577347844E1,1.410226077E-1,8.431336284E-1,2.169828176E0
2.579347844E1,6.319837272E-2,7.579615712E-1,2.132513046E0
2.581348156E1,5.782275647E-2,6.527007818E-1,2.217597961E0
2.583548000E1,1.815142459E-3,9.084962606E-1,2.556610584E0
2.585548000E1,-3.690324128E-1,1.384988546E0,2.806716204E0
2.587748000E1,-6.492973566E-1,1.608635068E0,2.675188303E0
2.589748000E1,-4.924272001E-1,1.213387847E0,2.299942493E0
2.591748000E1,-2.144486010E-1,6.965609193E-1,1.896876216E0
2.593748000E1,-1.695412844E-1,4.700695276E-1,1.577812552E0
2.595748000E1,-3.399901390E-1,5.367236733E-1,1.403052688E0
2.597748000E1,-3.527659476E-1,8.942368627E-1,1.169265866E0
2.599748000E1,-1.802052408E-1,1.359995484E0,7.297046781E-1
2.601748156E1,4.694935679E-2,1.470352650E0,4.973315597E-1
2.603948312E1,2.417280972E-1,1.018050551E0,6.068509817E-2
2.606148156E1,1.589296758E-1,1.815142459E-3,-5.782450438E-1
2.608348156E1,-4.516912252E-2,-1.112001657E0,-1.293830037E0
2.610348156E1,-7.302457839E-2,-1.592927098E0,-1.871202350E0
2.612350656E1,1.694714651E-2,-1.473232388E0,-2.239676237E0
2.614548156E1,1.898569167E-1,-8.896815777E-1,-2.396947861E0
2.616748000E1,4.013035595E-1,-1.858601123E-1,-2.502156258E0
2.618748000E1,6.026447415E-1,2.702118754E-1,-2.652848005E0
2.620748000E1,7.881906629E-1,5.080130100E-1,-2.893110037E0
2.622748156E1,9.499827027E-1,4.866850674E-1,-3.087121010E0
2.624948000E1,8.090474010E-1,3.067416251E-1,-3.174177885E0
2.626948156E1,3.287327588E-1,1.572541706E-2,-3.155590296E0
2.628948469E1,-1.575683206E-1,-3.363772929E-1,-3.036262035E0
2.631147844E1,-4.457745552E-1,-7.390596867E-1,-2.872672319E0
2.633148000E1,-4.994259775E-1,-9.881879687E-1,-2.712538242E0
2.635148156E1,-5.552765131E-1,-1.097009301E0,-2.384713173E0
2.637148156E1,-6.798930168E-1,-1.291980028E0,-1.866577268E0
2.639348000E1,-6.958802342E-1,-1.437976718E0,-1.124986887E0
2.641348000E1,-3.559773564E-1,-1.401394606E0,-4.409748912E-1
2.643348000E1,8.679522574E-2,-1.204434276E0,2.205223441E-1
2.645348000E1,3.821223974E-1,-8.674809933E-1,6.370277405E-1
2.647348000E1,1.991246194E-1,-3.688927889E-1,1.176002860E0
2.649348625E1,-2.990970612E-1,-1.361356769E-2,1.867257953E0
2.651547844E1,-4.332779944E-1,3.826983571E-1,2.310903072E0
2.653547844E1,-2.028596252E-1,7.497760057E-1,2.408414841E0
2.655548000E1,1.389805675E-1,1.120187163E0,2.263028860E0
2.657548000E1,3.687008023E-1,1.298420191E0,2.133665085E0
2.659748000E1,2.977357209E-1,1.241522551E0,2.091113806E0
2.661948000E1,-3.089232836E-3,1.094356298E0,2.155429363E0
2.664148781E1,-3.014532626E-1,9.224937558E-1,2.294915915E0
2.666348000E1,-3.667285740E-1,7.607541084E-1,2.430022001E0
2.668348000E1,-2.736676335E-1,5.950002074E-1,2.493237734E0
2.670547844E1,1.466076588E-3,2.786767185E-1,2.444630384E0
2.672548000E1,2.459343374E-1,-4.872959107E-2,2.316086769E0
2.674748000E1,2.447300702E-1,-2.585007250E-1,2.248996258E0
2.676748000E1,1.331860721E-1,-2.415361106E-1,2.221228123E0
2.678748156E1,-1.108109504E-1,-5.009094998E-2,2.096576691E0
2.680947844E1,-4.144284427E-1,1.460666060E-1,1.818458557E0
2.682948000E1,-5.598841906E-1,1.162040234E-1,1.607326031E0
2.684948000E1,-4.221427739E-1,-8.080874570E-3,1.432740808E0
2.686948000E1,-4.307472706E-2,-1.206895187E-1,1.246915579E0
2.688948000E1,2.068389654E-1,-1.062207371E-1,1.023618102E0
2.690948000E1,1.803099662E-1,1.645147353E-1,7.395832539E-1
2.692948625E1,3.953170776E-2,6.881658435E-1,3.966784179E-1
2.695148000E1,-2.474702299E-1,1.025590420E0,6.211626902E-2
2.697148000E1,-2.055125237E-1,9.570338130E-1,-4.199262261E-1
2.699148156E1,-5.016076192E-2,4.846604764E-1,-1.083692431E0
2.701348156E1,3.586651757E-2,-1.670803726E-1,-1.904520750E0
2.703547844E1,2.100503743E-1,-8.578118682E-1,-2.497618437E0
2.705548000E1,4.661599994E-1,-1.387990594E0,-2.790729046E0
2.707548000E1,7.327939272E-1,-1.589750648E0,-2.953446150E0
2.709748000E1,9.455146790E-1,-1.461451411E0,-3.202504635E0
2.711947844E1,1.014280677E0,-1.008329034E0,-3.506331444E0
2.713947844E1,9.642769694E-1,-5.540547967E-1,-3.750171423E0
2.715948000E1,8.195018768E-1,-3.033033311E-1,-3.901194811E0
2.717948156E1,6.773273945E-1,-1.839926094E-1,-4.003244400E0
2.720148156E1,5.702514052E-1,-1.810953617E-1,-4.053806305E0
2.722350344E1,4.257556200E-1,-4.957782328E-1,-3.777747631E0
2.724547844E1,-3.949680179E-2,-8.319112062E-1,-3.358938456E0
2.726548000E1,-4.423885942E-1,-8.059756160E-1,-2.873789310E0
2.728548000E1,-5.998522043E-1,-7.923445702E-1,-2.347467899E0
2.730548000E1,-5.780355930E-1,-1.084826827E0,-1.747947216E0
2.732548156E1,-7.704755664E-1,-1.395495415E0,-1.208047032E0
2.734748000E1,-9.410291910E-1,-1.432531357E0,-5.864480734E-1
2.736748156E1,-5.495343804E-1,-1.306291699E0,-6.492624991E-3
2.738948000E1,1.518436372E-1,-1.031856060E0,6.463826895E-1
2.740948000E1,4.049862027E-1,-8.495739102E-1,1.635670185E0
2.742948000E1,4.444131851E-1,-4.644844830E-1,2.559682369E0
2.745148000E1,5.002986193E-1,3.199363053E-1,3.111346006E0
2.747148000E1,5.504768491E-1,1.175008059E0,2.993152380E0
2.749148000E1,6.514965296E-1,1.571023226E0,2.670685291E0
2.751348156E1,4.598942697E-1,1.228973627E0,2.514007092E0
2.753348156E1,-1.940107942E-1,6.855653524E-1,2.476953745E0
2.755548000E1,-8.433954716E-1,3.437949419E-1,2.475592375E0
2.757548000E1,-9.878214598E-1,3.027273715E-1,2.524828196E0
2.759748000E1,-7.340331078E-1,3.063401878E-1,2.620297670E0
2.761947844E1,-3.827157915E-1,3.591189384E-1,2.752733231E0
2.763947844E1,-1.759990007E-1,3.800105453E-1,2.811882496E0
2.765948156E1,1.860520989E-2,3.062529266E-1,2.696568489E0
2.767948156E1,3.041410744E-1,3.305653483E-2,2.477582216E0
2.769948156E1,4.356516302E-1,-2.415710241E-1,2.239920616E0
2.772148625E1,4.616046846E-1,-4.342029989E-1,2.078355551E0
2.774348156E1,3.059038520E-1,-4.095589519E-1,1.925726533E0
2.776548000E1,1.494525373E-1,-2.423913330E-1,1.723163605E0
2.778548000E1,1.978330761E-1,2.258456126E-2,1.484053493E0
2.780748000E1,1.709550023E-1,2.865132391E-1,1.218745947E0
2.782748000E1,-4.159119725E-2,5.431988239E-1,9.827425480E-1
2.784748000E1,-2.288475633E-1,9.637533426E-1,6.980618834E-1
2.786748156E1,-3.872711062E-1,1.241086125E0,4.430867434E-1
2.788948938E1,-2.246587873E-1,1.112385631E0,-4.625122622E-2
2.791148000E1,1.424188633E-2,4.356690943E-1,-7.741931677E-1
2.793148156E1,2.923426405E-2,-3.602184951E-1,-1.567043900E0
2.795348000E1,3.010693006E-2,-9.075711966E-1,-2.352127790E0
2.797348000E1,1.295906901E-1,-1.043968678E0,-2.849773645E0
2.799547844E1,2.754304111E-1,-9.234536886E-1,-3.174631834E0
2.801548000E1,3.703763187E-1,-6.323502660E-1,-3.368520260E0
2.803748000E1,3.959104717E-1,-2.794272006E-1,-3.521795273E0
2.805748000E1,4.171511531E-1,-1.417730898E-1,-3.642065763E0
2.807748000E1,4.413239658E-1,-2.511528730E-1,-3.762964725E0
2.809748000E1,5.212949514E-1,-5.010142326E-1,-3.827943325E0
2.811947844E1,5.996252894E-1,-8.813912868E-1,-3.779144049E0
2.813947844E1,5.716302395E-1,-1.127901554E0,-3.570367575E0
2.815948000E1,4.725304544E-1,-1.226163626E0,-3.188105583E0
2.817948312E1,3.180339038E-1,-1.195079327E0,-2.649793863E0
2.819948312E1,-2.792526735E-3,-1.182809591E0,-1.986079931E0
2.822148000E1,-5.411219001E-1,-1.099609733E0,-1.171622038E0
2.824148000E1,-9.501572251E-1,-7.702312469E-1,-5.771803856E-1
2.826148000E1,-1.132439375E0,-3.196046948E-1,-1.571145356E-1
2.828148000E1,-1.098772049E0,3.839724232E-3,2.043256909E-1
2.830148000E1,-7.886444926E-1,1.169894189E-1,5.003858805E-1
2.832350344E1,-3.346668780E-1,-1.754055917E-2,1.110570431E0
2.834548000E1,4.454080388E-2,-1.143016145E-1,1.732047319E0
2.836748000E1,2.448871434E-1,2.445729822E-1,2.090852022E0
2.838748000E1,2.763728797E-1,8.065515757E-1,2.099124908E0
2.840748000E1,2.654820383E-1,1.292800307E0,2.078704596E0
2.842748156E1,2.860943675E-1,1.331895709E0,2.107467651E0
2.844947844E1,2.593908310E-1,7.674038410E-1,2.249240637E0
2.846948000E1,1.560324281E-1,1.321563274E-1,2.423878431E0
2.848948000E1,7.632324845E-2,-1.117359772E-1,2.536417246E0
2.851147844E1,1.720894575E-1,-7.487462368E-3,2.597870111E0
2.853148000E1,3.414911330E-1,4.263839498E-2,2.619547129E0
2.855148000E1,3.836408257E-1,-1.162389293E-2,2.589806795E0
2.857148000E1,4.927064478E-1,-1.991769671E-1,2.561846733E0
2.859148000E1,7.434579134E-1,-3.932924867E-1,2.521337509E0
2.861148000E1,7.701090574E-1,-3.241774440E-1,2.392776489E0
2.863148156E1,4.630009532E-1,-5.038765445E-2,2.188049555E0
2.865347844E1,6.129596382E-2,1.402022988E-1,2.040429592E0
2.867348000E1,3.466223925E-2,1.777966917E-1,2.010462284E0
2.869548000E1,2.787465453E-1,1.973094642E-1,1.964402914E0
2.871548000E1,4.008323252E-1,2.164033800E-1,1.853696704E0
2.873748000E1,3.257831633E-1,3.194999695E-1,1.601618886E0
2.875748000E1,2.623404264E-1,6.328738332E-1,1.136052251E0
2.877748000E1,2.885029279E-2,8.676031828E-1,6.613227129E-1
2.879748000E1,-1.234122291E-1,9.221447110E-1,-2.068215236E-2
2.881748000E1,-3.365343809E-1,6.419146657E-1,-8.663640022E-1
2.883748000E1,-4.957956672E-1,7.333873212E-2,-1.817446232E0
2.885748156E1,-4.217588007E-1,-4.648160934E-1,-2.674158573E0
2.887947844E1,-1.601514071E-1,-8.033401370E-1,-3.424283504E0
2.889948781E1,-3.640756756E-2,-8.182801604E-1,-3.857125282E0
2.892148156E1,5.480333697E-3,-4.691270590E-1,-4.091627598E0
2.894348000E1,2.042035107E-3,3.593632951E-2,-4.219211102E0
2.896547844E1,1.895427518E-2,3.359235227E-1,-4.366900921E0
2.898548000E1,1.662600636E-1,2.587101460E-1,-4.541346550E0
2.900548000E1,3.783350289E-1,-1.694365591E-1,-4.661006451E0
2.902748000E1,5.450488925E-1,-8.802219033E-1,-4.554803371E0
2.904748000E1,5.194623470E-1,-1.361217141E0,-4.324244976E0
2.906748000E1,4.017398953E-1,-1.488486648E0,-3.954741478E0
2.908748156E1,1.881290376E-1,-1.343327522E0,-3.407842636E0
2.910948000E1,-3.146130443E-1,-1.242831469E0,-2.570608139E0
2.912948000E1,-9.202597737E-1,-1.177433968E0,-1.659773231E0
2.914948000E1,-1.475448966E0,-9.092118144E-1,-8.399397135E-1
2.916948156E1,-1.677139282E0,-5.714033246E-1,-1.178271770E-1
2.919148000E1,-1.223807454E0,-2.220756859E-1,6.729465723E-1
2.921148000E1,-2.514321208E-1,7.674212754E-2,1.324862003E0
2.923148000E1,4.654269516E-1,1.166578084E-1,2.197631359E0
2.925148000E1,7.639306188E-1,3.233745992E-1,2.888921261E0
2.927148156E1,8.052949309E-1,9.664760828E-1,3.286839008E0
2.929347844E1,5.987526774E-1,1.594410658E0,3.448561192E0
2.931348156E1,2.871764600E-1,1.715745926E0,3.652659893E0
2.933548000E1,-3.511602581E-1,1.591879845E0,3.859952688E0
2.935548000E1,-1.038715243E0,1.347778201E0,3.861436129E0
2.937748000E1,-1.256357789E0,8.906589746E-1,3.626061201E0
2.939748000E1,-9.351124763E-1,4.307472706E-1,3.232960701E0
2.941748000E1,-4.239055812E-1,2.841396071E-2,2.935242414E0
2.943748000E1,3.656464815E-2,-4.374144077E-1,2.873318195E0
2.945748000E1,1.968382299E-1,-7.411191463E-1,2.808932781E0
2.947748000E1,9.347983450E-2,-7.732855678E-1,2.683775425E0
2.949748156E1,-4.298745841E-2,-7.532491684E-1,2.559281111E0
2.951748156E1,-4.330161959E-2,-7.132462263E-1,2.453583956E0
2.953948781E1,2.378883772E-2,-5.192703605E-1,2.399042368E0
2.956148313E1,1.082104146E-1,-3.517885506E-1,2.254546404E0
2.958148625E1,2.751511633E-1,-2.229134440E-1,1.975660324E0
2.960348156E1,3.489785790E-1,-1.158898603E-2,1.617832899E0
2.962350344E1,7.475244999E-2,1.708502769E-1,1.486741304E0
2.964548000E1,-1.625599712E-1,3.097959459E-1,1.406072140E0
2.966748000E1,-1.015781611E-2,8.088728189E-1,8.555952907E-1
2.968748000E1,7.384487987E-2,1.061701179E0,7.354817539E-2
2.970748000E1,3.067066967E-1,9.847322106E-1,-8.723504543E-1
2.972748000E1,4.662821591E-1,4.334001541E-1,-1.863034248E0
2.974748000E1,4.805240333E-1,-3.466573060E-1,-2.891609192E0
2.976748000E1,4.454254806E-1,-8.890183568E-1,-3.838799238E0
2.978748156E1,3.813544512E-1,-1.121007562E0,-4.508953571E0
2.980948000E1,2.564063072E-1,-1.095962048E0,-4.867182255E0
2.982948469E1,1.034980267E-1,-6.266604662E-1,-4.941533089E0
2.985148156E1,9.705775976E-2,3.403392062E-2,-4.850880623E0
2.987348000E1,2.380454540E-1,4.782376587E-1,-4.777385235E0
2.989547844E1,3.619114757E-1,4.829674959E-1,-4.759006500E0
2.991548000E1,5.082747936E-1,7.377506793E-2,-4.795449257E0
2.993548000E1,5.904099941E-1,-5.333726406E-1,-4.685824871E0
2.995748000E1,5.949652791E-1,-1.084058881E0,-4.431966782E0
2.997748000E1,6.601882577E-1,-1.444713712E0,-4.070980549E0
2.999748156E1,6.090675592E-1,-1.582734346E0,-3.528095722E0
3.001748156E1,3.283138871E-1,-1.400347471E0,-2.747793913E0
3.003948000E1,-1.012639999E-1,-1.033217430E0,-1.892198682E0
3.005948000E1,-1.994213164E-1,-9.791995287E-1,-1.212113738E0
3.007948000E1,3.118554354E-1,-1.071335435E0,-4.294207990E-1
3.009948156E1,6.969448924E-1,-8.294502497E-1,4.894601405E-1
3.011948156E1,6.118949652E-1,-1.870294809E-1,1.218955398E0
3.014148000E1,-1.292939931E-1,7.385011911E-1,2.151816368E0
3.016148000E1,-9.723229408E-1,1.590658188E0,2.963359594E0
3.018149094E1,-1.468869090E0,2.331445694E0,3.612691879E0
3.020348000E1,-1.616785765E0,2.939012289E0,4.030488968E0
3.022350344E1,-1.531037688E0,3.240186214E0,4.178300858E0
3.024547844E1,-1.385075808E0,3.137316704E0,4.216767788E0
3.026548000E1,-1.295662642E0,2.590190887E0,4.112851143E0
3.028748156E1,-1.296762228E0,1.564827323E0,4.025060654E0
3.030947844E1,-1.309974313E0,7.106980681E-1,3.956102848E0
3.032948000E1,-1.274561644E0,1.522276103E-1,3.846286774E0
3.034948625E1,-1.024543166E0,-2.621135414E-1,3.738966465E0
3.037148000E1,-5.065818429E-1,-7.276102901E-1,3.615292549E0
3.039148000E1,-9.243264049E-2,-1.104496717E0,3.497081280E0
3.041348000E1,1.406560838E-1,-1.350361228E0,3.320401669E0
3.043348000E1,8.948303014E-2,-1.471556902E0,3.125186443E0
3.045348000E1,-4.239404574E-2,-1.508522987E0,2.939605713E0
3.047348000E1,-1.700299680E-1,-1.437470675E0,2.792945623E0
3.049547844E1,-4.038691819E-1,-1.092017651E0,2.516468048E0
3.051548000E1,-6.981491446E-1,-5.334424376E-1,2.215957165E0
3.053748000E1,-8.987398148E-1,2.330363542E-1,1.878881812E0
3.055748000E1,-6.970496178E-1,8.724377155E-1,1.416509271E0
3.057748000E1,4.084070213E-3,1.607744932E0,5.451361537E-1
3.059748000E1,5.206840634E-1,1.980407596E0,-4.024031162E-1
3.061948000E1,7.800050974E-1,1.731872797E0,-1.138164163E0
3.063948000E1,5.455026627E-1,9.630377889E-1,-1.736148834E0
3.066148000E1,1.291892678E-1,1.443561763E-1,-2.621990681E0
3.068347844E1,2.429498285E-1,-5.204048157E-1,-3.505039930E0
3.070347844E1,8.162032366E-1,-1.031105638E0,-4.036056519E0
3.072350344E1,1.440123558E0,-1.283811808E0,-4.266230583E0
3.074547844E1,1.841671467E0,-1.130955935E0,-4.373358727E0
3.076548000E1,1.797689080E0,-7.826405168E-1,-4.447709560E0
3.078748156E1,1.518628478E0,-3.281044364E-1,-4.521851540E0
3.080948156E1,1.275120139E0,-7.379251719E-2,-4.576270580E0
3.082948313E1,1.139490604E0,-9.794788063E-2,-4.632906437E0
3.085148156E1,1.088963270E0,-4.625646174E-1,-4.566304684E0
3.087348000E1,1.020424247E0,-1.053410888E0,-4.370147228E0
3.089547844E1,8.759807348E-1,-1.410295844E0,-4.015810490E0
3.091548000E1,4.982740581E-1,-1.330429554E0,-3.517013073E0
3.093548000E1,-8.175121993E-2,-7.641574740E-1,-2.700164080E0
3.095748000E1,-2.854835093E-1,-7.066838443E-2,-1.170156002E0
3.097748000E1,-1.642005742E-1,6.763674617E-1,2.474004179E-1
3.099748000E1,-1.127482671E-2,1.230788708E0,1.125458121E0
3.101748156E1,3.056071512E-2,1.537949204E0,1.350692868E0
3.103948156E1,-4.687256217E-1,1.020319462E0,1.700387001E0
3.106148156E1,-8.525409698E-1,-2.713288963E-1,2.153788567E0
3.108347844E1,-5.411044359E-1,-9.407673478E-1,2.440528870E0
3.110348000E1,-7.670722157E-2,-6.029065251E-1,2.474615097E0
3.112350656E1,1.940980703E-1,5.555383116E-2,2.514199257E0
3.114548000E1,6.398376822E-2,7.190930843E-1,2.661818981E0
3.116548000E1,-4.129274487E-1,1.042520046E0,2.938471317E0
3.118548156E1,-9.265080094E-1,9.663189650E-1,3.314851522E0
3.120548156E1,-1.179423690E0,8.674809933E-1,3.558132887E0
3.122748000E1,-1.070846796E0,7.886618972E-1,3.715229988E0
3.124748000E1,-7.947531343E-1,8.212821484E-1,3.734864950E0
3.126748000E1,-5.954539776E-1,8.026245832E-1,3.658245087E0
3.128748156E1,-5.456597209E-1,6.160837412E-1,3.533331871E0
3.130948000E1,-5.070879459E-1,3.238109350E-1,3.326510191E0
3.132948781E1,-5.193576217E-1,1.292590797E-1,2.960287809E0
3.135148000E1,-6.447944641E-1,-1.161865667E-1,2.501510620E0
3.137148000E1,-8.114210367E-1,-4.780282378E-1,2.214962482E0
3.139148000E1,-8.070926070E-1,-7.864977121E-1,2.044705629E0
3.141348000E1,-5.475621223E-1,-9.572607279E-1,1.878724813E0
3.143348000E1,-3.872711062E-1,-8.078430891E-1,1.569330215E0
3.145348000E1,-3.618940115E-1,-4.531398416E-1,1.213736892E0
3.147548000E1,-1.673770696E-1,2.214473784E-1,6.272713542E-1
3.149747844E1,9.538224339E-2,1.080550790E0,-9.791296721E-2
3.151748156E1,2.967583239E-1,1.427469850E0,-9.425126910E-1
3.153948156E1,2.228610963E-1,1.190227270E0,-1.879632354E0
3.155948625E1,-3.998549283E-2,5.492725372E-1,-2.660597324E0
3.158148000E1,-7.250097394E-2,-2.015331686E-1,-3.416534424E0
3.160148000E1,4.154756367E-1,-6.912202239E-1,-4.034206390E0
3.162350344E1,1.179144382E0,-9.831265211E-1,-4.555850506E0
3.164548000E1,1.686302185E0,-9.914692044E-1,-4.879260063E0
3.166748000E1,1.726165533E0,-8.768708706E-1,-4.979267120E0
3.168748000E1,1.597360253E0,-7.161260247E-1,-4.896835327E0
3.170748000E1,1.369437695E0,-5.417676568E-1,-4.847686768E0
3.172748000E1,1.075785995E0,-4.449367821E-1,-4.865279675E0
3.174748000E1,8.751779199E-1,-5.403364897E-1,-4.647183418E0
3.176748000E1,6.831393242E-1,-8.299040794E-1,-4.195858955E0
3.178748156E1,4.399800599E-1,-1.051787734E0,-3.677513361E0
3.180948469E1,-4.286528751E-2,-9.405230284E-1,-3.030921221E0
3.183148000E1,-9.851511121E-1,2.874033749E-1,-2.146859646E0
3.185148000E1,-1.529466867E0,1.471033335E0,-1.189005494E0
3.187148000E1,-1.687873006E0,1.816468835E0,-4.445353448E-1
3.189148000E1,-1.612614393E0,1.497963786E0,-6.771877408E-2
3.191148000E1,-1.338318467E0,8.540593982E-1,6.794566661E-2
3.193148156E1,-7.383964658E-1,1.218588874E-1,2.253569067E-1
3.195348000E1,-5.660451651E-1,-5.533042550E-1,8.060104847E-1
3.197348000E1,-7.126528621E-1,-1.087950945E0,1.502850652E0
3.199547844E1,-6.171309948E-1,-1.129908681E0,2.342825174E0
3.201547844E1,-1.326450258E-1,-6.688450575E-1,2.903145790E0
3.203547844E1,3.318045437E-1,2.895501256E-2,3.225979328E0
3.205548000E1,2.727949619E-1,6.174625754E-1,3.390127420E0
3.207748156E1,-3.507413566E-1,1.089643955E0,3.467672586E0
3.209948000E1,-1.011523008E0,1.067705154E0,3.653532505E0
3.211948000E1,-1.362124801E0,8.061850071E-1,3.874945164E0
3.214148000E1,-1.411063790E0,4.759687483E-1,3.984831095E0
3.216148000E1,-1.177346706E0,2.133141458E-1,3.942402124E0
3.218148000E1,-7.862010002E-1,-1.333431602E-1,3.767031431E0
3.220148000E1,-4.334350526E-1,-4.579918385E-1,3.506942511E0
3.222148000E1,-2.567204833E-1,-7.622550726E-1,3.203900814E0
3.224148000E1,-2.905624211E-1,-9.761102796E-1,2.845759392E0
3.226148000E1,-4.643971920E-1,-1.033112764E0,2.608848333E0
3.228148000E1,-7.437894940E-1,-9.838595390E-1,2.505594730E0
3.230148000E1,-7.623249292E-1,-1.032920718E0,2.417752266E0
3.232350344E1,-2.207143307E-1,-9.963561296E-1,2.109910965E0
3.234548000E1,1.434486061E-1,-6.207088828E-1,1.625425100E0
3.236748156E1,9.992010146E-2,-2.515019476E-1,1.213789225E0
3.238948781E1,1.892285943E-1,3.115063608E-1,7.454301119E-1
3.241148000E1,2.557605505E-1,8.689296246E-1,-9.634217620E-2
3.243148156E1,2.481509149E-1,1.002883673E0,-1.005850673E0
3.245348000E1,1.716356725E-1,6.078807116E-1,-1.866908908E0
3.247348000E1,1.366941929E-1,-1.977458037E-2,-2.644837141E0
3.249547844E1,3.752632439E-1,-5.418898463E-1,-3.550348759E0
3.251547844E1,8.147196770E-1,-7.384138703E-1,-4.202299118E0
3.253547844E1,1.210839629E0,-7.540520430E-1,-4.625785828E0
3.255548000E1,1.416387081E0,-6.505191326E-1,-4.840670586E0
3.257748156E1,1.317741036E0,-5.334075093E-1,-4.978272438E0
3.259948000E1,1.109715223E0,-3.973242044E-1,-5.097321510E0
3.261948000E1,1.062294602E0,-3.093247116E-1,-5.160083294E0
3.264148000E1,1.082784772E0,-4.395262599E-1,-5.117340088E0
3.266148000E1,1.074302554E0,-7.007322311E-1,-4.899889469E0
3.268348000E1,9.562135339E-1,-8.390845060E-1,-4.498271942E0
3.270548000E1,7.574030757E-1,-7.800748944E-1,-4.000957966E0
3.272548000E1,4.709421992E-1,-8.684234619E-1,-3.372133255E0
3.274548000E1,3.588397056E-2,-9.589711428E-1,-2.619390249E0
3.276548156E1,-5.020962954E-1,-9.092816114E-1,-1.931433678E0
3.278748156E1,-1.103606582E0,-7.425328493E-1,-1.173524499E0
3.280948000E1,-1.208692908E0,-4.560021758E-1,-3.526786864E-1
3.282948312E1,-1.010004640E0,-1.765051484E-1,3.730990291E-1
3.284948469E1,-5.734279156E-1,-5.728170648E-2,9.597042203E-1
3.287148000E1,-3.235316873E-1,-8.569566905E-2,1.729289651E0
3.289148000E1,-3.120648563E-1,-1.018574163E-1,2.274949312E0
3.291348000E1,-1.659808159E-1,9.002408385E-2,2.790868759E0
3.293348000E1,4.810127243E-2,4.482180178E-1,3.032474756E0
3.295348000E1,3.025877178E-1,8.016297221E-1,3.221790552E0
3.297348000E1,4.316548407E-1,1.036359072E0,3.478511095E0
3.299547844E1,2.313608378E-1,1.067530632E0,3.744429350E0
3.301548000E1,-1.484053433E-1,1.092471361E0,3.917251825E0
3.303748000E1,-6.524040699E-1,1.066029668E0,4.022844315E0
3.305748000E1,-9.461778998E-1,1.026497960E0,4.111052990E0
3.307748156E1,-9.707695842E-1,9.327388406E-1,4.170534134E0
3.309948156E1,-7.275579572E-1,7.091971040E-1,4.134388447E0
3.312147844E1,-4.567177594E-1,5.727297664E-1,3.935630083E0
3.314148000E1,-4.309915900E-1,3.748792708E-1,3.439520359E0
3.316148000E1,-3.271270692E-1,5.337216705E-2,3.095865011E0
3.318148000E1,-9.021607041E-2,-2.291442752E-1,3.005334854E0
3.320148156E1,5.373868719E-2,-4.311661422E-1,2.777342319E0
3.322350344E1,-1.710597128E-1,-4.022809267E-1,2.347712278E0
3.324547844E1,-6.675360799E-1,-1.129053459E-1,1.934069157E0
3.326548000E1,-1.089643955E0,-5.235987919E-5,1.694086432E0
3.328748156E1,-1.070864201E0,-6.354743987E-2,1.310794592E0
3.330948000E1,-5.408426523E-1,3.184004128E-1,1.195899621E-1
3.332948156E1,-1.270948797E-1,7.635641098E-1,-1.009009719E0
3.335148156E1,1.357342601E-1,9.352521300E-1,-1.798771262E0
3.337348156E1,4.522148147E-2,7.835306525E-1,-2.495925426E0
3.339547844E1,-2.760063708E-1,6.372371316E-1,-3.346825838E0
3.341548000E1,-2.996904850E-1,8.053996563E-1,-4.192193508E0
3.343548000E1,1.085594762E-2,1.097881913E0,-4.806479454E0
3.345748000E1,4.053527117E-1,1.153034329E0,-5.100777149E0
3.347748000E1,5.653819442E-1,8.949350119E-1,-5.143415451E0
3.349748000E1,6.592108607E-1,6.308492422E-1,-5.167256832E0
3.351748156E1,8.599760532E-1,3.227288425E-1,-5.173958778E0
3.353948000E1,1.264246702E0,-5.007175207E-1,-5.025256634E0
3.355948000E1,1.678203940E0,-1.405356526E0,-4.708549023E0
3.358148000E1,1.946426034E0,-1.864884257E0,-4.245565891E0
3.360148000E1,1.971872926E0,-1.796135783E0,-3.769282818E0
3.362350344E1,1.829523921E0,-1.466495395E0,-3.301482201E0
3.364547844E1,1.172023535E0,-1.114654541E0,-3.022037506E0
3.366547844E1,2.819928527E-1,-1.156734467E0,-2.531512737E0
3.368548000E1,-2.386039644E-1,-1.607343554E0,-1.632493734E0
3.370548000E1,-1.390154809E-1,-1.950754523E0,-7.006100416E-1
3.372548000E1,2.047794759E-1,-1.822141171E0,-1.425585002E-1
3.374748000E1,3.779335916E-1,-1.251366138E0,5.796412826E-1
3.376748000E1,2.635621727E-1,-6.156823635E-1,1.353572607E0
3.378748156E1,-2.684316412E-2,-5.185373127E-2,2.016972303E0
3.380948156E1,-1.647939831E-1,4.677831531E-1,2.450948477E0
3.382948156E1,2.614503168E-2,8.250869513E-1,2.656932116E0
3.384948156E1,3.039141893E-1,1.034456611E0,2.741074562E0
3.387148000E1,4.449193180E-1,1.155634880E0,2.773101330E0
3.389148000E1,3.421717882E-1,1.134062529E0,2.897997141E0
3.391348000E1,1.089609042E-1,9.168738127E-1,2.934439421E0
3.393348000E1,4.237659276E-2,6.592806578E-1,2.981406212E0
3.395348000E1,9.683086723E-2,4.038168192E-1,3.081692934E0
3.397348000E1,3.119775951E-1,2.145533264E-1,3.273382425E0
3.399547844E1,6.012484431E-1,7.379251719E-2,3.388103008E0
3.401547844E1,7.494967580E-1,-6.763150543E-2,3.339128971E0
3.403547844E1,6.566277742E-1,-2.534567118E-1,3.133756161E0
3.405548000E1,4.566828609E-1,-3.497639894E-1,3.082809925E0
3.407548000E1,3.319092691E-1,-4.453032911E-1,3.105883121E0
3.409748000E1,2.382548898E-1,-5.193925500E-1,3.054919481E0
3.411948000E1,1.114916354E-1,-6.037617326E-1,3.034691334E0
3.413948000E1,-7.915068418E-2,-5.971818566E-1,2.913774729E0
3.415948000E1,-3.184527755E-1,-4.671024680E-1,2.700181484E0
3.417948156E1,-4.183379710E-1,-1.687558889E-1,2.394015789E0
3.420148781E1,-3.275634050E-1,3.117856085E-1,1.838250518E0
3.422350188E1,-1.519134641E-1,1.009795189E0,9.967226386E-1
3.424547844E1,-7.696901914E-3,1.453771949E0,2.746799290E-1
3.426548000E1,1.605004817E-1,1.197889328E0,-3.971322179E-1
3.428548000E1,2.854660451E-1,4.377111197E-1,-1.161865711E0
3.430748156E1,2.310292274E-1,-7.239625454E-1,-2.071845531E0
3.432948000E1,2.455852777E-1,-1.360187411E0,-2.880369186E0
3.434948000E1,3.527659476E-1,-1.313761711E0,-3.495597839E0
3.436948000E1,5.378581285E-1,-8.818101287E-1,-3.919381142E0
3.438948469E1,6.483548880E-1,-3.254166245E-1,-4.143795490E0
3.441148156E1,6.210928559E-1,2.515019476E-1,-4.290804863E0
3.443148156E1,5.740562677E-1,6.109350324E-1,-4.415264130E0
3.445348000E1,5.160065889E-1,5.549798012E-1,-4.587301254E0
3.447348000E1,4.683067501E-1,2.014109939E-1,-4.801156521E0
3.449547844E1,4.675737023E-1,-3.733608425E-1,-4.986231327E0
3.451547844E1,5.499881506E-1,-9.456368089E-1,-4.919524670E0
3.453547844E1,6.696828604E-1,-1.491698027E0,-4.656276703E0
3.455548000E1,9.074664712E-1,-1.953896046E0,-4.424182892E0
3.457548000E1,1.020860553E0,-2.260672569E0,-3.980781794E0
3.459748000E1,7.124434114E-1,-2.238873482E0,-3.128921509E0
3.461948000E1,-3.961897455E-3,-1.774790406E0,-1.714332223E0
3.463948000E1,-6.493497491E-1,-1.053533077E0,-4.617792070E-1
3.465948000E1,-1.114567280E0,-1.604132056E-1,4.893205166E-1
3.467948000E1,-1.425567508E0,5.210855007E-1,1.104374528E0
3.469948000E1,-1.324896932E0,9.341700077E-1,1.720737576E0
3.471948000E1,-1.156542420E0,8.315446377E-1,2.588864326E0
3.474147844E1,-8.828573227E-1,8.881456852E-1,3.159866333E0
3.476147844E1,-7.890110016E-1,1.319207072E0,3.317277431E0
3.478148156E1,-7.087258697E-1,1.837779284E0,3.550959587E0
3.480348156E1,-2.291093767E-1,2.188712597E0,3.992807150E0
3.482350344E1,2.579421997E-1,2.070117474E0,4.325833321E0
3.484548000E1,4.352676570E-1,1.492919683E0,4.592362881E0
3.486548000E1,2.932327688E-1,9.092467427E-1,4.727608204E0
3.488748000E1,-1.809382886E-1,6.102718115E-1,4.621178150E0
3.490748000E1,-8.109498024E-1,3.923325539E-1,4.216191769E0
3.492748000E1,-1.450071931E0,-1.483006328E-1,3.367752314E0
3.494748156E1,-1.521176577E0,-1.377658129E0,2.344640493E0
3.496949719E1,-6.379527450E-1,-3.038234234E0,1.891832232E0
3.499148156E1,2.556558251E-1,-3.935089111E0,1.939270258E0
3.501348000E1,6.314601302E-1,-3.177302122E0,2.021649837E0
3.503348156E1,6.211975813E-1,-1.890784979E0,1.885025382E0
3.505548000E1,3.996804059E-1,-9.139590859E-1,1.569906235E0
3.507548000E1,6.700319052E-2,-3.233397007E-1,1.344898343E0
3.509748000E1,-2.207492441E-1,1.385616958E-1,9.752725363E-1
3.511948000E1,-3.839549720E-1,3.176848292E-1,4.347265959E-1
3.514148000E1,-1.019097716E-1,6.536781788E-1,-1.959655732E-1
3.516148000E1,2.223723978E-1,7.399497628E-1,-7.086211443E-1
3.518148312E1,4.926715493E-1,5.835159421E-1,-1.222742796E0
3.520347844E1,6.510776281E-1,9.159488231E-2,-1.870050430E0
3.522350344E1,5.046793818E-1,-4.856029451E-1,-2.533519983E0
3.524547844E1,2.780483961E-1,-8.949524760E-1,-3.134716034E0
3.526548000E1,1.352979243E-1,-8.718442917E-1,-3.547992468E0
3.528748156E1,-3.679154068E-2,-6.660176516E-1,-3.915105104E0
3.530748156E1,-1.699252576E-1,-4.173431396E-1,-4.095222950E0
3.532948156E1,-3.776718080E-1,-3.736750036E-2,-4.167409897E0
3.534948625E1,-5.529202819E-1,3.069859743E-1,-4.236996174E0
3.537148156E1,-6.904522777E-1,5.778959394E-1,-4.464604378E0
3.539148781E1,-7.655013800E-1,5.070530772E-1,-4.820861340E0
3.541348000E1,-8.364664912E-1,-1.095543131E-1,-5.339485645E0
3.543348000E1,-8.017693758E-1,-8.881980777E-1,-5.622316360E0
3.545348000E1,-5.520825386E-1,-1.637171149E0,-5.466004848E0
3.547348000E1,-3.123441339E-1,-1.898883343E0,-5.063043118E0
3.549547844E1,-4.133114219E-1,-1.745468855E0,-4.380445004E0
3.551547844E1,-4.537855983E-1,-1.570080757E0,-3.347925425E0
3.553547844E1,-2.615899444E-1,-1.207715511E0,-1.967788935E0
3.555548000E1,-2.439621240E-1,-5.723807216E-1,-6.656685472E-1
3.557548000E1,-5.853136182E-1,2.490410358E-1,2.943323255E-1
3.559748000E1,-6.888465285E-1,7.861661315E-1,1.250650525E0
3.561948000E1,-5.217661858E-1,7.513642311E-1,2.224369764E0
3.563948000E1,-4.782551229E-1,7.665137053E-1,2.898031950E0
3.565948000E1,-4.228234589E-1,1.183734655E0,3.206937790E0
3.567948000E1,-4.376063943E-1,1.479533076E0,3.229504824E0
3.569948000E1,-3.171088696E-1,1.587307096E0,3.258616924E0
3.571948000E1,-4.307472706E-2,1.316117883E0,3.279648304E0
3.573948000E1,-2.511528693E-2,6.726149917E-1,3.225839615E0
3.575948000E1,-1.951278150E-1,3.471285403E-1,3.562566042E0
3.577948000E1,-4.308868945E-1,3.673743606E-1,4.112676144E0
3.579948000E1,-7.352024913E-1,6.663666964E-1,4.610880852E0
3.581948156E1,-9.216560125E-1,7.067885399E-1,4.790911198E0
3.583948312E1,-6.665936112E-1,1.365371048E-1,4.736718655E0
3.586148156E1,-1.116312593E-1,-5.723807216E-1,4.549916267E0
3.588348156E1,3.508111835E-2,-1.070218444E0,4.003052235E0
3.590548000E1,-1.570621729E-1,-1.282363176E0,3.417180061E0
3.592548000E1,-1.234820411E-1,-1.183595061E0,3.064466476E0
3.594748156E1,-1.211607531E-1,-9.134355187E-1,2.838655949E0
3.596948000E1,-3.668856621E-1,-6.129421592E-1,2.776469707E0
3.598948000E1,-7.253064513E-1,-1.662949771E-1,2.745961428E0
3.600948000E1,-9.613099098E-1,1.816887707E-1,2.644976616E0
3.602948000E1,-9.483246207E-1,4.776268005E-1,2.175395727E0
3.604948156E1,-6.649529934E-1,9.112014771E-1,1.194660425E0
3.607148156E1,6.743951887E-2,1.208623052E0,5.044001341E-2
3.609348000E1,1.034386873E0,4.239928424E-1,-8.135502934E-1
3.611348000E1,1.759309292E0,-7.476990223E-1,-1.357150555E0
3.613348000E1,1.696128368E0,-1.555385113E0,-1.954978228E0
3.615348000E1,1.004245043E0,-1.436685205E0,-2.567187309E0
3.617348000E1,3.954567015E-1,-7.864453793E-1,-3.026872158E0
3.619348000E1,1.475326866E-1,-2.313259393E-1,-3.429013491E0
3.621348000E1,2.383072525E-1,1.353153735E-1,-3.754133463E0
3.623348000E1,3.072302938E-1,4.066268206E-1,-4.130007267E0
3.625348000E1,2.287079394E-1,5.755048394E-1,-4.552778721E0
3.627348000E1,2.327571064E-1,4.244466126E-1,-4.921549320E0
3.629548000E1,3.607246578E-1,-8.681267500E-2,-5.186978817E0
3.631548000E1,4.101349115E-1,-4.905422330E-1,-5.328525066E0
3.633548000E1,5.556430221E-1,-7.076088190E-1,-5.349591255E0
3.635748000E1,7.899185419E-1,-9.734573960E-1,-5.262883186E0
3.637748156E1,8.514414430E-1,-1.265119314E0,-5.148860931E0
3.639948000E1,1.077479005E0,-1.730668426E0,-4.670361519E0
3.641948000E1,1.020668507E0,-2.715069056E0,-3.584592104E0
3.643948000E1,5.591685772E-1,-3.290312052E0,-2.050692081E0
3.645948156E1,-1.870818436E-1,-2.250532150E0,-8.418246508E-1
3.647948156E1,-1.216686487E0,-3.749839962E-1,-2.615026832E-1
3.649949719E1,-1.751211047E0,5.474050641E-1,2.098758370E-1
3.652148938E1,-1.145005822E0,1.530653685E-1,1.251086950E0
3.654347844E1,-4.165053666E-1,-5.314178467E-1,2.397803068E0
3.656348000E1,1.122072190E-1,1.178620830E-1,3.241879225E0
3.658348000E1,3.494149148E-1,1.250790238E0,3.645224810E0
3.660348156E1,5.219407082E-1,2.155708551E0,3.843564034E0
3.662350344E1,7.294778228E-1,2.351848602E0,4.053771496E0
3.664548000E1,4.085117579E-1,1.717054963E0,4.271065235E0
3.666748000E1,-1.041961536E-1,1.126941681E0,4.517767429E0
3.668748000E1,-4.084419608E-1,1.014018893E0,4.661128521E0
3.670748000E1,-4.893728793E-1,8.822813630E-1,4.711307049E0
3.672748156E1,-3.151192069E-1,5.482777357E-1,4.680082798E0
3.674948781E1,-3.595378250E-3,6.899286807E-2,4.508883476E0
3.677148000E1,3.086789250E-1,-1.979901493E-1,4.215563774E0
3.679148781E1,4.059810340E-1,-1.527512223E-1,3.888977528E0
3.681348156E1,1.403419226E-1,-6.672393531E-2,3.523086786E0
3.683548000E1,-2.298424095E-1,-5.253441166E-3,3.171769381E0
3.685748000E1,-4.922701120E-1,1.661378890E-1,2.892865658E0
3.687748156E1,-4.728271365E-1,3.277204633E-1,2.676148176E0
3.689948156E1,-2.326174825E-1,3.245090544E-1,2.361552715E0
3.692148781E1,4.166275561E-1,-1.240929067E-1,1.821617603E0
3.694347844E1,9.741729498E-1,-5.445776582E-1,1.215569496E0
3.696348000E1,9.418145418E-1,-2.502278686E-1,6.815510988E-1
3.698348000E1,5.732184649E-1,3.386811316E-1,3.970798552E-1
3.700348000E1,2.200685591E-1,8.827177286E-1,2.467895485E-2
3.702350500E1,1.224348471E-1,1.249324083E0,-5.775294304E-1
3.704548000E1,8.766788989E-2,1.327654481E0,-1.595457792E0
3.706548000E1,1.710248142E-1,1.226041436E0,-2.641765356E0
3.708748156E1,6.416179538E-1,1.084896684E0,-3.612325430E0
3.710948938E1,1.149229527E0,8.868715763E-1,-4.347248554E0
3.713148156E1,1.375668526E0,6.882531643E-1,-4.775535107E0
3.715148156E1,1.320271730E0,4.848524630E-1,-5.014557838E0
3.717348000E1,1.092104912E0,2.334203273E-1,-5.256757259E0
3.719348000E1,1.009289026E0,-5.845107511E-2,-5.454537868E0
3.721547844E1,1.085647106E0,-5.276653767E-1,-5.676054955E0
3.723547844E1,1.264770269E0,-1.202688932E0,-5.765677929E0
3.725547844E1,1.393802524E0,-1.863505483E0,-5.654988766E0
3.727548000E1,1.329679132E0,-2.217859745E0,-5.400310516E0
3.729748000E1,1.156490088E0,-2.370942593E0,-5.113029480E0
3.731748000E1,9.310633540E-1,-2.380768776E0,-5.014662743E0
3.733748000E1,2.130523473E-1,-1.974717855E0,-4.730069160E0
3.735748000E1,-4.829151630E-1,-1.527110696E0,-3.654946327E0
3.737748156E1,-7.813839316E-1,-9.476439953E-1,-1.875426054E0
3.739948000E1,-9.879959822E-1,-1.208116934E-1,-6.387905218E-3
3.741948000E1,-1.276341796E0,6.273586154E-1,9.481500983E-1
3.743948000E1,-1.394919515E0,9.875596762E-1,1.853557110E0
3.745948156E1,-1.289100170E0,9.201725125E-1,3.005910635E0
3.748147844E1,-9.456717372E-1,1.145878434E0,3.879029274E0
3.750148156E1,-6.576400399E-1,1.602840543E0,3.973992586E0
3.752350500E1,-3.003537059E-1,1.781440139E0,3.855048418E0
3.754548000E1,1.612160653E-1,1.419563532E0,3.839445114E0
3.756548000E1,2.671226263E-1,7.347661853E-1,4.023123741E0
3.758748000E1,-2.186897583E-2,1.035329327E-1,4.277383327E0
3.760748000E1,-3.309493363E-1,8.403760195E-2,4.519966602E0
3.762748000E1,-6.028367281E-1,2.718001306E-1,4.638700962E0
3.764748156E1,-6.168866158E-1,3.841120601E-1,4.698740482E0
3.766947844E1,-4.064522684E-1,3.580542803E-1,4.708392143E0
3.768948000E1,-1.471487135E-1,2.611710727E-1,4.648178101E0
3.770948625E1,1.058542207E-1,3.385938704E-2,4.514800072E0
3.772948625E1,2.815216184E-1,-4.450589418E-2,4.310875893E0
3.775148000E1,8.487536013E-2,-2.441890091E-1,3.996926069E0
3.777347844E1,-3.861191869E-1,-4.509930909E-1,3.628417253E0
3.779347844E1,-5.216963887E-1,-4.584281743E-1,3.289596558E0
3.781348156E1,-3.995407820E-1,-2.646617293E-1,2.870804787E0
3.783548000E1,-2.058790326E-1,1.214749143E-1,2.404906511E0
3.785748000E1,-1.637991518E-1,5.386958718E-1,1.947770000E0
3.787748000E1,-1.558928043E-1,1.056255817E0,1.125039220E0
3.789748000E1,1.117883399E-1,1.462743044E0,-1.471312530E-2
3.791748000E1,4.661774337E-1,1.359070420E0,-7.807730436E-1
3.793748000E1,8.192051649E-1,1.061718702E0,-1.206790447E0
3.795748000E1,8.102516532E-1,5.692042112E-1,-1.729150057E0
3.797748000E1,5.196892619E-1,-6.056292448E-3,-2.312404156E0
3.799748000E1,2.607870996E-1,-4.888667166E-1,-2.975594282E0
3.801748156E1,3.144908845E-1,-7.993782759E-1,-3.617613792E0
3.803949094E1,5.939180851E-1,-7.266154885E-1,-4.135837078E0
3.806148156E1,8.717744946E-1,-3.318743706E-1,-4.478689194E0
3.808348000E1,1.063149810E0,-4.881685972E-2,-4.803809166E0
3.810348156E1,1.151672959E0,-1.622283608E-1,-5.097408772E0
3.812350344E1,1.276394129E0,-5.673192739E-1,-5.364984989E0
3.814548000E1,1.419912577E0,-1.042293191E0,-5.584058762E0
3.816548000E1,1.595143676E0,-1.559434175E0,-5.601564407E0
3.818748000E1,1.692271233E0,-2.227528811E0,-5.403556824E0
3.820748000E1,1.366051793E0,-2.389425516E0,-5.197381020E0
3.822748156E1,7.983484864E-1,-2.055613995E0,-4.781556129E0
3.824948000E1,2.696882784E-1,-1.703825355E0,-3.771673918E0
3.826948000E1,-2.367888242E-1,-1.352071643E0,-2.647646904E0
3.828948000E1,-7.064045668E-1,-1.029430151E0,-1.405216932E0
3.831148000E1,-6.514616013E-1,-4.923923016E-1,-1.187871099E-1
3.833148000E1,-3.585953414E-1,9.962339699E-2,5.832366943E-1
3.835148156E1,-1.509709805E-1,5.737595558E-1,1.003302574E0
3.837348000E1,-3.486120701E-1,6.928782463E-1,1.968137980E0
3.839348000E1,-5.539151430E-1,9.002583027E-1,3.001721859E0
3.841348000E1,-7.561638951E-1,1.467891693E0,3.626340389E0
3.843348000E1,-8.437968493E-1,2.031528234E0,3.780784607E0
3.845348000E1,-7.232120633E-1,2.205869198E0,3.849480629E0
3.847548000E1,-6.830695271E-1,1.914992690E0,3.967464924E0
3.849548000E1,-8.988969326E-1,1.442217946E0,4.028219700E0
3.851748000E1,-1.154605150E0,9.945583940E-1,4.160637856E0
3.853748000E1,-1.160399556E0,8.103214502E-1,4.375401020E0
3.855748000E1,-1.046237588E0,7.236135006E-1,4.578609467E0
3.857748156E1,-6.829473376E-1,6.698224545E-1,4.633936405E0
3.859948156E1,-1.378984600E-1,3.839200735E-1,4.560562611E0
3.862148000E1,1.040565297E-1,-1.333431527E-2,4.253629208E0
3.864148000E1,2.177298218E-1,-4.759687483E-1,3.954968452E0
3.866148000E1,1.315803677E-1,-8.659974933E-1,3.634107113E0
3.868148000E1,-7.311183959E-2,-9.990788102E-1,3.366513252E0
3.870148000E1,-3.837629855E-1,-9.332799315E-1,3.183759689E0
3.872148000E1,-7.264932990E-1,-5.859943032E-1,3.028477907E0
3.874148000E1,-7.573507428E-1,-2.292315364E-1,2.711054802E0
3.876148469E1,-6.096085906E-1,-1.433264315E-1,2.205799580E0
3.878347844E1,-5.032831430E-1,-7.019714266E-2,1.349663138E0
3.880348156E1,-3.921056688E-1,4.638037980E-1,1.893682219E-2
3.882350500E1,-4.852015153E-2,7.630230188E-1,-1.072679400E0
3.884548000E1,5.235813260E-1,4.178143740E-1,-1.615441799E0
3.886548000E1,7.120594382E-1,1.659110039E-1,-1.973583460E0
3.888748000E1,2.782054842E-1,-4.176572710E-2,-2.648310184E0
3.890748000E1,-1.478642970E-1,-2.034704834E-1,-3.448351622E0
3.892748000E1,1.064650831E-3,-5.565505624E-1,-4.207430363E0
3.894748000E1,4.304156601E-1,-8.578293324E-1,-4.751449585E0
3.896748000E1,6.790901423E-1,-9.904918075E-1,-5.117933750E0
3.898748000E1,6.910631061E-1,-8.691390753E-1,-5.332085609E0
3.900748156E1,5.333551764E-1,-6.668903232E-1,-5.490980148E0
3.902948313E1,4.192979038E-1,-4.309043288E-1,-5.577723026E0
3.905148000E1,5.500928760E-1,-4.149345756E-1,-5.527684689E0
3.907148156E1,6.939254403E-1,-7.167369127E-1,-5.430155754E0
3.909348000E1,7.639655471E-1,-1.129123330E0,-5.290127754E0
3.911348000E1,6.713758111E-1,-1.300549507E0,-4.921374798E0
3.913348000E1,-3.405137360E-2,-8.355414867E-1,-4.179400444E0
3.915548000E1,-1.239078999E0,3.970624134E-2,-3.335638285E0
3.917748000E1,-1.536308646E0,2.303834539E-3,-2.674769402E0
3.919748000E1,-1.180802464E0,-5.293234587E-1,-1.984474301E0
3.921748156E1,-8.714603186E-1,-5.318716168E-1,-1.070253372E0
3.923948000E1,-7.982961535E-1,6.365215778E-2,-3.719296679E-2
3.925948156E1,-5.054647923E-1,2.767044902E-1,8.521220684E-1
3.928148000E1,-8.016297221E-2,-7.476990670E-2,1.821669936E0
3.930148000E1,9.438740462E-2,-5.316796303E-1,2.590731859E0
3.932148000E1,3.675139844E-1,-6.131690741E-1,3.184876919E0
3.934148000E1,6.487214565E-1,-3.992964327E-1,3.591747999E0
3.936148000E1,9.846100211E-1,-1.812873483E-1,3.812357664E0
3.938148156E1,1.426457644E0,-1.025380939E-1,3.933291435E0
3.940148625E1,1.492221594E0,-8.131489158E-2,3.882764101E0
3.942350344E1,1.275486588E0,-2.861292660E-1,4.043945312E0
3.944547844E1,9.856746793E-1,-3.978827000E-1,4.199035168E0
3.946547844E1,1.006409168E0,-5.129173398E-1,4.237327576E0
3.948548000E1,1.439111233E0,-8.441634178E-1,4.011796474E0
3.950548000E1,1.985643625E0,-1.306588411E0,3.659117699E0
3.952748000E1,2.246029377E0,-1.456878662E0,3.401070833E0
3.954748000E1,2.233846903E0,-1.380380869E0,3.324590445E0
3.956748000E1,1.886142373E0,-1.048244715E0,3.216763973E0
3.958748000E1,1.062067747E0,-4.108330607E-1,2.961230278E0
3.960748000E1,1.164309159E-1,2.650457025E-1,2.746397734E0
3.962748000E1,-2.324080467E-1,7.191629410E-1,2.550955772E0
3.964748156E1,-6.805038452E-2,1.037720442E0,2.230792522E0
3.966947844E1,2.186373919E-1,1.144988298E0,1.722500324E0
3.968948000E1,2.015331686E-1,1.136401296E0,1.089190125E0
3.970948000E1,4.979424179E-2,9.210800529E-1,2.721317410E-1
3.972950344E1,2.197893113E-1,5.122541189E-1,-5.698848963E-1
3.975148000E1,2.095965892E-1,2.841396071E-2,-1.257160664E0
3.977347844E1,1.540427655E-1,-3.447199762E-1,-1.821914315E0
3.979347844E1,-8.953538723E-3,-8.642172217E-1,-2.272366285E0
3.981348156E1,-2.429149300E-1,-1.388269782E0,-2.726553440E0
3.983548000E1,-5.023406744E-1,-1.630573869E0,-3.151226759E0
3.985748000E1,-6.417226791E-1,-1.741524458E0,-3.406952620E0
3.987748156E1,-6.509903669E-1,-1.802610993E0,-3.619952440E0
3.989948000E1,-5.657833815E-1,-1.938083410E0,-4.029040337E0
3.991948000E1,-1.961924583E-1,-2.372862339E0,-4.686209202E0
3.993948000E1,4.012511969E-1,-2.987287998E0,-5.222444057E0
3.995948156E1,6.958278418E-1,-3.811938763E0,-5.361407280E0
3.997948781E1,4.507487416E-1,-4.534016132E0,-5.126573086E0
4.000148156E1,-1.451939344E-1,-4.928478241E0,-4.691322803E0
4.002350500E1,-7.086909413E-1,-4.625838280E0,-4.080021381E0
4.004548156E1,-1.067617893E0,-3.970205069E0,-3.320506334E0
4.006748000E1,-1.380049229E0,-3.403706074E0,-2.525823116E0
4.008748156E1,-1.595353127E0,-2.827363491E0,-1.819872260E0
4.010948938E1,-1.768454909E0,-2.144433737E0,-9.769480228E-1
4.013148156E1,-1.650138974E0,-1.326118588E0,1.031489577E-2
4.015348000E1,-8.865749240E-1,-1.155408006E-2,9.221272469E-1
4.017348000E1,-4.581489265E-1,1.204608798E0,1.310654998E0
4.019348000E1,-4.524067938E-1,2.181783676E0,1.575089812E0
4.021348000E1,-7.336491346E-1,2.881416321E0,2.365671635E0
4.023348156E1,-8.303927779E-1,3.482089043E0,3.126600266E0
4.025547844E1,-6.342526674E-1,3.797016144E0,3.681545258E0
4.027548000E1,-4.290193915E-1,3.328395128E0,3.867876530E0
4.029548000E1,-2.449220568E-1,2.747811556E0,3.881891489E0
4.031748000E1,-1.317374557E-1,2.405639648E0,3.808814526E0
4.033748000E1,-1.679006666E-1,2.376178503E0,3.805323839E0
4.035947844E1,-9.278170019E-2,2.489869356E0,4.035009384E0
4.037948781E1,1.172686741E-1,2.553870440E0,4.269267559E0
4.040148000E1,5.457993746E-1,2.170055151E0,4.319445610E0
4.042148156E1,9.182700515E-1,1.450543165E0,4.115591049E0
4.044148625E1,1.249289274E0,5.934468508E-1,3.879482985E0
4.046348156E1,1.485240340E0,1.176351868E-2,3.606984615E0
4.048548000E1,1.272065759E0,-1.833119243E-1,3.344958305E0
4.050548000E1,8.621053696E-1,-1.348441392E-1,3.209311485E0
4.052748000E1,3.917565942E-1,2.850122750E-2,3.098552942E0
4.054748000E1,1.592961997E-1,5.632177368E-2,2.836945534E0
4.056748000E1,3.591015041E-1,-2.157226950E-2,2.354867935E0
4.058748000E1,6.156648993E-1,6.665412337E-2,1.779782057E0
4.060748000E1,6.291213632E-1,1.317374557E-1,1.281734943E0
4.062748000E1,4.894252419E-1,2.712590694E-1,6.747268438E-1
4.064748156E1,1.728225052E-1,6.888290644E-1,-3.037745655E-1
4.066748156E1,-2.269451618E-1,9.878389239E-1,-1.088457108E0
4.068948000E1,-3.428175747E-1,6.637312770E-1,-1.523026705E0
4.070948000E1,-3.861715496E-1,1.881639510E-1,-1.817690611E0
4.072948000E1,-7.311533093E-1,-2.547133565E-1,-2.287882328E0
4.074948156E1,-1.175479293E0,-5.511575341E-1,-2.965960264E0
4.077148000E1,-1.250004768E0,-6.943966746E-1,-3.685734034E0
4.079148156E1,-9.933366776E-1,-7.236309648E-1,-4.094367981E0
4.081348156E1,-8.107578158E-1,-4.979773462E-1,-4.320806980E0
4.083548000E1,-9.127897620E-1,-2.236115783E-1,-4.454865456E0
4.085548000E1,-1.111286044E0,-1.713389754E-1,-4.555728436E0
4.087748156E1,-1.190384388E0,-4.345695376E-1,-4.710189819E0
4.089948781E1,-9.242914915E-1,-9.920800328E-1,-4.901198864E0
4.092148781E1,-5.532519221E-1,-1.566956639E0,-4.861562252E0
4.094347844E1,-3.838328123E-1,-1.817673087E0,-4.586463451E0
4.096348000E1,-3.165329099E-1,-1.773149848E0,-4.158875465E0
4.098548000E1,-1.485275179E-1,-1.475012660E0,-3.552460670E0
4.100548000E1,-1.055400595E-1,-1.143487334E0,-2.858587503E0
4.102748000E1,-3.839724362E-1,-8.677253127E-1,-1.791493177E0
4.104748000E1,-8.201302290E-1,-3.998374641E-1,-6.438519359E-1
4.106748000E1,-1.349436164E0,3.929608762E-1,3.540749550E-1
4.108748156E1,-1.891744971E0,1.028836727E0,1.112769604E0
4.110948000E1,-1.992258430E0,1.157676935E0,1.649877191E0
4.112948000E1,-1.252989292E0,8.903971910E-1,1.925272703E0
4.114948000E1,-4.936838448E-1,5.249077678E-1,2.267950535E0
4.116948000E1,1.011941880E-1,5.597794652E-1,2.572911978E0
4.118948156E1,5.122890472E-1,9.395456314E-1,2.941682577E0
4.121148000E1,8.122413158E-1,1.479026914E0,3.225036860E0
4.123148000E1,9.819571376E-1,1.713477015E0,3.223273993E0
4.125148000E1,8.731533289E-1,1.525347948E0,3.275983095E0
4.127148000E1,4.681496620E-1,9.824109077E-1,3.617142439E0
4.129148156E1,2.967059845E-4,8.336041570E-1,3.845833063E0
4.131348156E1,-3.827157915E-1,1.063673496E0,3.957010508E0
4.133548000E1,-4.042007923E-1,9.979268909E-1,3.908176184E0
4.135748000E1,8.754571527E-2,5.467593074E-1,4.079602242E0
4.137748000E1,2.366142869E-1,6.504667401E-1,4.679786205E0
4.139748000E1,-5.195845291E-2,1.142684460E0,5.289936066E0
4.141748000E1,-2.088111937E-1,1.408166528E0,5.487402439E0
4.143748156E1,1.295906901E-1,1.261366844E0,5.009339333E0
4.145748156E1,5.084842443E-1,7.356911898E-1,4.050804615E0
4.147948156E1,4.451636672E-1,2.851344347E-1,3.261950493E0
4.150148156E1,2.750813365E-1,2.263168395E-1,2.728316069E0
4.152350500E1,3.174230158E-1,-5.974261835E-2,2.327012539E0
4.154547844E1,3.497988880E-1,-5.573011041E-1,1.881709218E0
4.156548000E1,4.095065892E-1,-5.960124731E-1,1.306117177E0
4.158548000E1,7.345567346E-1,-8.779006079E-3,3.462733328E-1
4.160748000E1,6.912725568E-1,3.691022396E-1,-8.344768286E-1
4.162748000E1,5.248030424E-1,1.935046464E-1,-1.505817771E0
4.164748156E1,2.443286479E-1,-5.470908880E-1,-1.772259712E0
4.166748156E1,-1.704314053E-1,-1.226948977E0,-2.183895588E0
4.168948000E1,-4.463330507E-1,-1.545209765E0,-2.990359783E0
4.170948000E1,-3.128153682E-1,-1.570674181E0,-3.678019524E0
4.172948000E1,-8.621926606E-2,-1.343327522E0,-4.101523876E0
4.174948000E1,-2.755874954E-2,-8.737118244E-1,-4.332797527E0
4.176948625E1,-1.456477195E-1,-3.508809805E-1,-4.470591068E0
4.179148156E1,-3.090279996E-1,-1.516691130E-2,-4.705756664E0
4.181348156E1,-3.774623573E-1,-2.336995900E-1,-5.069081783E0
4.183548000E1,-2.908591330E-1,-9.154251814E-1,-5.453804970E0
4.185748000E1,1.226966456E-2,-1.615965486E0,-5.587898254E0
4.187748000E1,3.231651485E-1,-2.251631737E0,-5.372559547E0
4.189748000E1,3.731164932E-1,-2.702520132E0,-4.930188656E0
4.191748000E1,1.414763927E-1,-2.639164686E0,-4.350041389E0
4.193748156E1,-3.402519226E-1,-2.014860392E0,-3.617683649E0
4.195947844E1,-8.818625212E-1,-1.050251842E0,-2.832617044E0
4.197948625E1,-1.112525225E0,-4.193153381E-1,-1.893263340E0
4.200148156E1,-1.133085251E0,-1.278279126E-1,-7.538077235E-1
4.202350500E1,-7.891855240E-1,-2.289872058E-2,-1.850049011E-3
4.204547844E1,-7.297221571E-2,-8.824384958E-2,5.472480059E-1
4.206548000E1,2.916794121E-1,-1.353851855E-1,1.424241066E0
4.208748000E1,4.845033884E-1,3.120823205E-1,2.294863701E0
4.210748000E1,5.219930410E-1,9.748710990E-1,2.756468296E0
4.212748000E1,4.831944108E-1,1.588773251E0,2.914176226E0
4.214748156E1,5.188514590E-1,1.926197767E0,3.138520956E0
4.216748156E1,4.988849163E-1,1.939444780E0,3.466537952E0
4.218948000E1,2.222153246E-1,1.799591541E0,3.692558289E0
4.220948000E1,-4.679227620E-2,1.602159858E0,3.786195040E0
4.222948000E1,-5.599016324E-2,1.330481887E0,3.976767540E0
4.224948000E1,1.343903542E-1,9.982933998E-1,4.214219570E0
4.226948000E1,4.378507435E-1,7.543138266E-1,4.314471245E0
