"Time (s)","Acceleration x (m/s^2)","Acceleration y (m/s^2)","Acceleration z (m/s^2)"
0.000000000E0,-3.483052492E0,3.043371201E0,7.840083599E0
2.130484400E-2,-3.179163933E0,2.432603359E0,7.739584923E0
4.258984400E-2,-4.364209175E0,2.174178362E0,7.768298626E0
6.387890600E-2,-4.330709934E0,2.475973129E0,7.986045361E0
8.516802100E-2,-3.363411427E0,2.143071890E0,8.381160736E0
1.064571350E-1,-1.199103236E0,1.609173179E0,8.247162819E0
1.277462500E-1,2.159522474E-1,-2.868396044E-1,8.610871315E0
1.490353640E-1,-1.884347759E-2,6.011966988E-2,8.531908035E0
1.703244790E-1,-3.589234054E-1,6.155536175E-1,9.834201813E0
1.916135940E-1,-1.029212832E0,1.204487085E0,1.193629646E1
2.129027080E-1,-3.323032558E-1,-5.551348329E-1,1.285334587E1
2.341918230E-1,-4.666004181E-1,-1.543968797E0,1.238405323E1
2.554809370E-1,-8.015955687E-1,-1.567897081E0,1.010967541E1
2.767700520E-1,1.223629713E0,-1.077069283E0,9.293125153E0
2.980591660E-1,1.922932148E0,-1.938784599E0,7.526324749E0
3.193483330E-1,1.369890928E0,-1.957927108E0,9.077771187E0
3.406374480E-1,-2.367398977E0,3.020938635E-1,8.311768532E0
3.619265620E-1,-1.933998942E0,-2.246262282E-1,1.015035343E1
3.832156770E-1,8.144569993E-1,-2.568396091E0,9.637990952E0
4.045048440E-1,1.831705689E0,-4.601099014E0,4.993521690E0
4.257939580E-1,3.531507015E0,-4.603491783E0,9.561420441E0
4.470830730E-1,-1.792822361E0,-8.470591903E-1,1.346142197E1
4.683722390E-1,-1.943570137E0,-2.302792788E0,8.708976746E0
4.896613540E-1,-1.890928149E0,-5.288137794E-1,5.144269466E0
5.109504690E-1,2.159821510E0,-4.450650215E-1,5.053342342E0
5.322396350E-1,-2.724228621E0,-3.087937593E0,1.337288761E1
5.535287500E-1,-2.539682150E0,-3.080759048E0,1.241516018E1
5.748179160E-1,2.614158690E-1,-2.374577284E0,8.919844627E0
5.961070310E-1,-1.169492081E-1,-1.989033818E0,6.803392887E0
6.173961460E-1,-3.114258766E0,-4.239483356E0,8.163114548E0
6.386853120E-1,-2.185544491E0,-4.862215519E0,1.254437256E1
6.599744790E-1,-4.701597214E0,-4.136591911E0,1.281984615E1
6.812635940E-1,-3.174378395E0,-3.382553816E0,1.035374355E1
7.025527600E-1,-2.077867270E0,-3.234198809E0,1.009292603E1
7.238418750E-1,-4.708775997E0,-4.201198578E0,1.202483082E1
7.451310410E-1,-6.482754707E0,-4.876572609E0,1.431595898E1
7.664202080E-1,-5.012963295E0,-3.818346739E0,1.474935913E1
7.877093230E-1,-2.973082066E0,-2.709871531E0,1.052393341E1
8.089984890E-1,2.305783749E0,-1.993819475E0,1.044736290E1
8.302876560E-1,8.204988480E0,3.523431420E-1,9.163912773E0
8.515767710E-1,-1.395314693E0,-2.503789902E0,8.019545555E0
8.728659370E-1,-1.883749604E0,-3.035295486E0,8.769096375E0
8.941551040E-1,-4.352245331E0,-2.805584431E0,9.297910690E0
9.154442710E-1,-7.306483746E0,-2.839084148E0,8.685049057E0
9.367334370E-1,-6.157330990E0,-1.902892232E0,7.806583881E0
9.580226040E-1,-5.824429512E0,-2.156830549E0,5.960820198E0
9.793117710E-1,-4.155734539E0,-3.195913792E0,4.186542511E0
1.000600885E0,-2.175973177E0,-4.953142643E0,8.737690926E0
1.021890052E0,-3.643371582E0,-5.956034660E0,6.343671799E0
1.043179271E0,-8.503493309E0,-1.129262733E1,6.908677101E0
1.064468437E0,-6.188437462E0,-1.168295670E1,8.670691490E0
1.085757604E0,6.179464459E-1,-8.764310837E0,1.008814049E1
1.107046771E0,-5.539683342E0,-9.525827408E0,1.078475094E1
1.128335937E0,-5.927320957E0,-7.742276669E0,5.393422127E0
1.149625104E0,-2.788834810E0,-4.663312435E0,2.572882652E0
1.170914271E0,-2.453540564E0,-2.118545294E0,3.834797382E0
1.192203437E0,-4.586741924E0,-1.457528114E0,4.505086899E0
1.213492656E0,-8.965607643E0,-2.166401863E0,8.680263519E0
1.234781823E0,-1.032772160E1,-2.664407969E0,9.293125153E0
1.256070989E0,-5.058426857E0,-1.685145378E0,4.383052826E0
1.277360208E0,-5.766702294E-1,-1.491326690E0,6.173781395E0
1.298649375E0,7.256234884E-1,-2.522932291E0,7.315756321E0
1.319938594E0,-3.375375509E0,-5.190032482E0,6.894320011E0
1.341227760E0,-1.063430214E1,-8.908179283E0,7.526324749E0
1.362516927E0,-8.319246292E0,-8.201698303E0,4.490729809E0
1.383806146E0,-3.571586847E0,-9.394221306E0,7.892725468E0
1.405095364E0,-2.144866467E0,-8.544171333E0,8.766703606E0
1.426384531E0,-2.539682150E0,-8.584849358E0,5.129912853E0
1.447673750E0,-2.707478762E0,-7.526623726E0,4.936093807E0
1.468962969E0,-3.396910906E0,-6.238687038E0,6.054140568E0
1.490252187E0,-3.748954773E0,-5.635396481E0,4.648656368E0
1.511541354E0,-5.843572140E0,-6.221937180E0,3.422932863E0
1.532830573E0,-7.483552933E0,-5.020142078E0,4.385445595E0
1.554119791E0,-5.860321522E0,-6.083153248E0,4.768297195E0
1.575409010E0,-5.812465191E0,-7.560122967E0,9.573384285E0
1.596698229E0,-5.922534943E0,-1.246959686E0,1.040877819E1
1.617987448E0,-2.302792788E0,1.558923960E0,6.228816509E0
1.639276666E0,2.973082066E-1,-2.221676064E1,5.680561066E0
1.660565885E0,-1.050508976E1,-6.722336292E0,-1.379761338E0
1.681855104E0,6.490531564E-2,-1.678236008E1,5.505885124E0
1.703144323E0,-1.996212244E0,-9.678967476E0,6.949355125E0
1.724433541E0,-3.157628536E0,-9.803394318E0,4.610371113E0
1.745722760E0,-5.688038349E0,-6.164509296E0,4.952843666E0
1.767012031E0,-6.772585392E0,-3.825525284E0,6.872784615E0
1.788301250E0,-4.060021877E0,-7.680063248E0,6.398706913E0
1.809590469E0,9.939187169E-1,-1.341386509E1,3.166900873E0
1.830879739E0,-6.090332031E0,-1.071805096E1,5.333302498E0
1.852168958E0,-1.680359721E0,-9.533005714E0,3.899403572E0
1.873458229E0,4.695914388E-1,-7.821239948E0,5.208875656E0
1.894747448E0,-1.788036704E0,-6.667301178E0,5.821737289E0
1.916036719E0,-4.481457710E0,-4.989035130E0,5.446064472E0
1.937325937E0,-5.740680695E0,-3.813561201E0,6.326921940E0
1.958615208E0,-6.873084068E0,-4.016951084E0,6.429813385E0
1.979904427E0,-1.637288928E0,-8.477172852E0,4.804189682E0
2.001193698E0,-2.800798893E0,-7.493124008E0,4.866702080E0
2.022482969E0,-1.297209024E0,-9.188139915E0,5.675775528E0
2.043772187E0,-2.204686880E0,-9.283852577E0,4.833202839E0
2.065061458E0,-2.089831591E0,-6.339185238E0,3.801297903E0
2.086350729E0,-2.245364904E0,-8.474779129E0,6.405885220E0
2.107640000E0,-3.485445261E0,-1.012433147E1,6.401099682E0
2.128929271E0,-4.024129391E0,-7.045367241E0,5.446064472E0
2.150218489E0,-3.191128016E0,-6.312864304E0,4.086043835E0
2.171507760E0,-2.896511793E0,-7.325626373E0,5.321338654E0
2.192797031E0,-3.114258766E0,-6.355935097E0,5.592026711E0
2.214086302E0,-2.918047190E0,-4.162913322E0,7.433004379E0
2.235375573E0,-2.222333997E-1,-3.425624609E0,9.051449776E0
2.256664844E0,1.889133453E0,-6.274579048E0,4.287340164E0
2.277954114E0,2.322533369E0,-5.084748268E0,2.999104023E0
2.299243437E0,4.121637046E-1,-6.391827583E0,4.328018188E0
2.320532708E0,-6.939185858E-1,-6.633801460E0,6.951747894E0
2.341821979E0,-8.374280930E0,-8.469993591E0,4.881059170E0
2.363111250E0,-2.015354872E0,-1.166860008E1,4.931308270E0
2.384400521E0,5.772684515E-2,-6.410970211E0,9.726525307E0
2.405689791E0,-1.194317579E0,-1.523809242E1,3.449253798E0
2.426979114E0,-3.538087368E0,-9.092427254E0,6.410670757E0
2.448268385E0,-2.324328184E0,-7.433303356E0,9.884750366E0
2.469557656E0,-1.110568762E0,-7.493124008E0,5.659025669E0
2.490846979E0,9.122636169E-2,-8.072485924E0,6.523432732E0
2.512136250E0,-9.382855892E-1,-7.239484787E0,6.863213539E0
2.533425521E0,-1.620539188E0,-6.588337898E0,6.822535515E0
2.554714844E0,-2.223829508E0,-6.636194706E0,7.895118237E0
2.576004114E0,-1.819143414E0,-7.861917973E0,8.517551422E0
2.597293437E0,-1.263709426E0,-8.094021797E0,7.162615299E0
2.618582708E0,-1.409671664E0,-5.642574787E0,8.620442390E0
2.639872031E0,-1.874178290E0,-4.749454021E0,8.591729164E0
2.661161302E0,-4.309174538E0,-4.991427898E0,7.413861752E0
2.682450625E0,-3.707977772E0,-5.723930836E0,6.674180508E0
2.703739896E0,-3.090330362E0,-5.695217133E0,6.243173599E0
2.725029219E0,-2.499004126E0,-5.228317261E0,6.954140663E0
2.746318541E0,-8.901300430E-1,-5.374279499E0,6.793821812E0
2.767607812E0,8.165507019E-2,-5.532505035E0,6.772286415E0
2.788897135E0,-6.669992954E-2,-5.654539108E0,6.465705872E0
2.810186406E0,4.025924206E-1,-6.705586433E0,7.315756321E0
2.831475729E0,2.853440940E-1,-6.820441723E0,7.030711174E0
2.852765052E0,6.251249462E-2,-7.337590694E0,7.088438034E0
2.874054375E0,1.462612897E-1,-7.395018578E0,6.178566933E0
2.895343646E0,5.629115105E-1,-7.406982422E0,6.611967087E0
2.916632969E0,1.237986565E0,-7.507481098E0,6.662216663E0
2.937922291E0,1.283450246E0,-7.464410305E0,6.231209278E0
2.959211614E0,4.432703853E-1,-7.402196884E0,6.389135361E0
2.980500937E0,9.601201117E-2,-7.225128174E0,7.117151737E0
3.001790260E0,1.893320978E-1,-6.588337898E0,6.078068733E0
3.023079531E0,5.150550604E-1,-5.848357677E0,7.476075172E0
3.044368854E0,-5.288137794E-1,-5.513362408E0,7.409076214E0
3.065658177E0,-2.298007011E0,-5.783751488E0,7.200900555E0
3.086947500E0,-1.577468276E0,-6.770192623E0,8.306982994E0
3.108236823E0,-6.556333899E-1,-7.428517818E0,7.916653633E0
3.129526146E0,-2.533400953E-1,-7.517052174E0,7.964509964E0
3.150815469E0,3.308077157E-1,-7.663313389E0,7.511967659E0
3.172104791E0,1.326521039E0,-7.241877556E0,7.301399231E0
3.193394114E0,8.503493667E-1,-6.365506649E0,9.139984131E0
3.214682500E0,-5.952146277E-2,-6.241079807E0,5.637490273E0
3.235972760E0,-1.416850090E0,-6.343971252E0,2.798106909E0
3.257262083E0,-1.553540111E0,-6.104688644E0,4.299304008E0
3.278551406E0,-3.382553816E0,-8.637491226E0,3.063710213E0
3.299840729E0,-3.437588930E0,-9.966405869E0,3.803690672E0
3.321130052E0,-2.187937260E0,-1.011476040E1,7.004390240E0
3.342419375E0,-8.542376757E-1,-8.295317650E0,2.783750057E0
3.363708698E0,-1.241276711E-1,-8.352746010E0,3.791726589E0
3.384998021E0,-1.241276711E-1,-7.945666790E0,-2.087737769E-1
3.406287344E0,-4.155734539E0,-1.288475132E1,2.508276224E0
3.427576666E0,-6.288936138E0,-1.856830406E1,3.576073408E0
3.448866041E0,-6.942475796E0,-2.384238434E1,-2.263011932E0
3.470155364E0,1.293021560E0,-1.972463608E1,-1.870290041E0
3.491444687E0,4.259523392E0,-1.007408237E1,3.169293642E0
3.512734010E0,1.295414329E0,-6.298507214E0,-3.922135353E0
3.534023333E0,-3.284448147E0,-5.721538067E0,3.290131316E-2
3.555312656E0,-3.674478292E0,-1.027507973E1,5.175376415E0
3.576602031E0,-7.034898400E-1,-1.321256828E1,2.783750057E0
3.597891354E0,1.079761237E-1,-9.688538551E0,1.621137410E-1
3.619180677E0,-2.044367790E0,-5.302495003E0,2.233101845E0
3.640470000E0,-4.062414646E0,-3.995415688E0,7.597211748E-2
3.661759375E0,-4.718347073E0,-4.725525856E0,-1.554437399E0
3.683048698E0,-7.261020184E0,-5.261816978E0,3.772583961E0
3.704338021E0,-8.565707207E0,-5.685645580E0,2.872284412E0
3.725627344E0,-6.559624195E0,-5.206781864E0,-3.574278951E-1
3.746916666E0,6.873382926E-1,-7.483552933E0,5.041378021E0
3.768206041E0,3.661018610E0,-1.146730328E1,4.964807987E0
3.789495364E0,-4.378865361E-1,-1.251117229E1,6.640681267E0
3.810784687E0,-4.136591911E0,-1.276271820E1,3.786941051E0
3.832074062E0,-6.477969170E0,-1.027986526E1,1.747059584E0
3.853363385E0,-7.517052174E0,-6.629015923E0,3.109174013E0
3.874652708E0,-7.265805721E0,-7.524230957E0,2.829213619E0
3.895942083E0,-4.546063900E0,-1.061037350E1,1.790130496E0
3.917231406E0,-6.851548672E0,-1.138594723E1,1.196411371E0
3.938520729E0,-5.750251770E0,-8.881858826E0,-1.185643673E0
3.959810104E0,-1.421635747E0,-7.442874908E0,2.345564365E0
3.981099427E0,-1.189531922E0,-9.125926018E0,2.683251381E0
4.002388802E0,-8.135597110E-1,-9.870393753E0,3.056831062E-1
4.023678125E0,-1.081854939E0,-9.549755096E0,5.979065299E-1
4.044967448E0,-4.043272018E0,-8.431708336E0,5.400600910E0
4.066256823E0,-5.266602516E0,-8.438887596E0,4.988736153E0
4.087546146E0,-4.864608288E0,-9.466006279E0,2.793620527E-1
4.108835469E0,-4.742275238E0,-8.901000977E0,4.471587241E-1
4.130124844E0,-6.193223000E0,-8.798110008E0,4.447659016E0
4.151414166E0,-7.203592777E0,-8.757132530E0,4.469194412E0
4.172703541E0,-7.466803074E0,-7.385447025E0,4.481158733E0
4.193992864E0,-6.506682873E0,-5.580361366E0,2.565704107E0
4.215282239E0,-6.358327866E0,-4.534099579E0,1.840379715E0
4.236571562E0,-6.253043652E0,-5.740680695E0,2.912962437E0
4.257860885E0,-6.562016964E0,-6.619444847E0,2.417349100E0
4.279150260E0,-5.992226124E0,-6.901797771E0,1.325623751E0
4.300439583E0,-3.825525284E0,-8.613563538E0,3.054138899E0
4.321728958E0,-1.943570137E0,-1.018175983E1,6.535397053E0
4.343018281E0,-2.005783558E0,-9.576076508E0,6.427420616E0
4.364307656E0,-3.935595036E0,-7.904988766E0,5.259125233E0
4.385596979E0,-6.162116528E0,-7.598408222E0,3.758227110E0
4.406886354E0,-8.129914284E0,-7.960023403E0,3.070888758E0
4.428175677E0,-9.006285667E0,-7.335197926E0,4.617549419E0
4.449465052E0,-8.469993591E0,-5.704788208E0,3.695714474E0
4.470754375E0,-7.881060600E0,-4.960321426E0,2.958425999E0
4.492043750E0,-8.031807899E0,-4.766203403E0,5.132305622E0
4.513333073E0,-8.843573570E0,-5.201996326E0,4.019044876E0
4.534622448E0,-8.819644928E0,-6.660122871E0,4.753940582E0
4.555911771E0,-7.493124008E0,-7.804490089E0,5.398207664E0
4.577201146E0,-6.540481567E0,-7.567301750E0,4.847559452E0
4.598490469E0,-6.889833927E0,-6.772585392E0,4.150650024E0
4.619779844E0,-7.497909546E0,-7.344769001E0,2.297708035E0
4.641069166E0,-8.793324471E0,-6.643373013E0,2.999104023E0
4.662358541E0,-6.241079807E0,-6.064010620E0,4.936093807E0
4.683647864E0,-5.568397522E0,-4.945964336E0,7.828119278E0
4.704937239E0,-7.294519901E0,-4.648955345E0,5.668596745E0
4.726226562E0,-8.709276199E0,-6.822834492E0,5.094020367E0
4.747515937E0,-9.906584740E0,-9.765109062E0,2.391027927E0
4.768805312E0,-5.673681736E0,-9.554540634E0,3.753441334E0
4.790094635E0,-3.847060680E0,-5.733502388E0,5.113162994E0
4.811384010E0,-6.353542328E0,-1.871785522E0,2.886641502E0
4.832673333E0,-8.709276199E0,-3.411267757E0,1.368694544E0
4.853962708E0,-8.730812073E0,-6.765407085E0,5.448457241E0
4.875252031E0,-6.188437462E0,-8.043772697E0,4.612763882E0
4.896541406E0,-3.547658682E0,-6.901797771E0,6.472884178E0
4.917830781E0,-3.576372623E0,-5.412863731E0,1.613061547E0
4.939120104E0,-6.059225082E0,-4.419244289E0,2.498705149E0
4.960409479E0,-8.580063820E0,-5.673681736E0,4.878367186E-1
4.981698802E0,-9.968798637E0,-8.455636978E0,5.096413136E0
5.002988177E0,-5.728716373E0,-9.418149948E0,7.368398190E0
5.024277552E0,-2.168794632E0,-6.399005890E0,2.541775942E0
5.045566875E0,-2.027318954E0,-4.424029827E0,1.510170221E0
5.066856250E0,-1.024427176E0,-4.433601379E0,4.042973042E0
5.088145625E0,-6.569195271E0,-5.487041473E0,6.291029930E0
5.109434948E0,-7.416553974E0,-7.653742313E0,6.942176819E0
5.130724323E0,-6.178866386E0,-8.395816803E0,8.110472679E0
5.152013698E0,-5.443970680E0,-6.451648235E0,7.519145966E0
5.173303021E0,-3.725026608E0,-3.174378395E0,4.260719776E0
5.194592396E0,-2.922832966E0,-2.156830549E0,2.089532375E0
5.215881719E0,-4.189234257E0,-3.135794163E0,2.857927561E0
5.237171094E0,-6.111867428E0,-4.636991024E0,3.109174013E0
5.258460469E0,-7.356733322E0,-6.250650883E0,3.724727631E0
5.279749791E0,-6.786942482E0,-6.198009014E0,5.572884083E0
5.301039166E0,-6.657730103E0,-5.225924492E0,6.434599400E0
5.322328541E0,-6.550053120E0,-5.510969639E0,6.152245998E0
5.343617864E0,-6.657730103E0,-6.298507214E0,4.540979385E0
5.364907239E0,-6.262615204E0,-6.813263416E0,2.170888424E0
5.386196614E0,-7.050152779E0,-6.846762657E0,1.507777333E0
5.407485937E0,-7.639086246E0,-6.581159592E0,4.363910198E0
5.428775312E0,-8.398209572E0,-6.578766823E0,6.595217228E0
5.450064687E0,-8.391031265E0,-7.531409264E0,2.991925716E0
5.471354010E0,-7.050152779E0,-8.005487442E0,2.273779631E0
5.492643385E0,-6.212365627E0,-7.459624767E0,4.684548378E0
5.513932760E0,-6.674479485E0,-6.585945129E0,1.687239051E0
5.535222083E0,-5.383851051E0,-6.107081413E0,2.321636200E0
5.556511458E0,-4.646562576E0,-7.696813107E0,2.970390320E0
5.577800833E0,-5.924928188E0,-1.006690407E1,1.258624673E0
5.599090208E0,-6.719943523E0,-1.028943634E1,2.134995937E0
5.620379531E0,-5.924928188E0,-9.192925453E0,3.332005501E0
5.641668906E0,-5.127819061E0,-1.029422188E1,2.886641502E0
5.662958281E0,-4.306781769E0,-1.306182098E1,3.906582117E0
5.684247604E0,-5.434399128E0,-1.327029514E1,3.923331738E0
5.705536979E0,-7.201199532E0,-1.061515903E1,3.456432343E0
5.726826354E0,-8.328817368E0,-8.139485359E0,2.958425999E0
5.748115677E0,-7.533802032E0,-7.385447025E0,2.625823736E0
5.769405052E0,-6.332006931E0,-6.763014317E0,4.631906509E0
5.790694427E0,-5.683252811E0,-8.122735977E0,6.023033619E0
5.811983802E0,-7.926524162E0,-1.049791145E1,4.263112545E0
5.833273125E0,-6.830013275E0,-1.061755180E1,1.948056698E0
5.854562500E0,-5.103890896E0,-9.145069122E0,1.519741535E0
5.875851875E0,-4.668097973E0,-8.228319168E0,1.770987868E0
5.897141250E0,-1.965105653E0,-1.029182911E1,5.577669621E0
5.918430573E0,-1.254138112E0,-8.539385796E0,-2.351546526E0
5.939719948E0,-5.889035702E0,-7.189235687E0,-9.056833982E-1
5.961009323E0,-9.046963692E0,-9.468399048E0,6.128317833E0
5.982298698E0,-8.661419868E0,-9.461220741E0,5.852844238E0
6.003588021E0,-7.054938316E0,-6.001797199E0,2.161317110E0
6.024877396E0,-7.134200573E0,-4.629812717E0,4.629513741E0
6.046166771E0,-7.828418255E0,-5.170889854E0,5.108377457E0
6.067456146E0,-8.649456024E0,-5.304887772E0,4.002295017E0
6.088745469E0,-1.023200893E1,-4.732704163E0,3.420539856E0
6.110034844E0,-8.836395264E0,-4.893322468E0,2.575275421E0
6.131324219E0,-5.932106495E0,-5.436792374E0,2.151745796E0
6.152613594E0,-5.111069202E0,-5.123033047E0,1.893021822E0
6.173902916E0,-5.642574787E0,-5.391029358E0,2.568096876E0
6.195192291E0,-6.293721676E0,-6.071189404E0,4.536193371E0
6.216480729E0,-4.977071285E0,-7.730312824E0,5.893522263E0
6.237771041E0,-8.089236259E0,-7.392625332E0,4.466801643E0
6.259060364E0,-9.281459808E0,-7.359126091E0,-1.140179992E0
6.280349739E0,-5.017749310E0,-6.585945129E0,1.150768185E1
6.301639114E0,-9.046963692E0,-6.298507214E0,2.359921217E0
6.322928489E0,-6.152545452E0,-7.356733322E0,6.037390709E0
6.344217812E0,-4.428815842E0,-5.398207664E0,-2.760719061E-1
6.365507187E0,1.704886183E-2,-4.325924397E0,3.200400174E-1
6.386796562E0,6.308676720E0,-4.330709934E0,5.204090118E0
6.408085937E0,3.091227770E0,-2.276471615E0,1.955235243E0
6.429375312E0,-3.787240028E0,-2.152044773E0,3.995116472E0
6.450664635E0,-4.574777603E0,-4.172484398E0,2.695215702E0
6.471954010E0,-5.740680695E0,-5.099104881E0,4.912165642E0
6.493243385E0,-5.956034660E0,-5.728716373E0,5.927021503E0
6.514532760E0,-7.471588612E0,-6.870691299E0,5.029414177E0
6.535822135E0,-8.618349075E0,-8.426922798E0,3.276970625E0
6.557111458E0,-8.474779129E0,-8.527421951E0,3.782155275E0
6.578400833E0,-7.483552933E0,-8.230711937E0,4.339982033E0
6.599690208E0,-5.335994720E0,-8.163414001E0,6.439384937E0
6.620979583E0,-4.751846790E0,-9.101998329E0,6.006283760E0
6.642268958E0,-5.812465191E0,-9.609575272E0,2.793321371E0
6.663558333E0,-6.777370930E0,-9.427721024E0,3.209971666E0
6.684847656E0,-7.023831844E0,-9.590433121E0,2.039283037E0
6.706137031E0,-7.567301750E0,-9.549755096E0,4.965107143E-2
6.727426406E0,-6.528517246E0,-9.379864693E0,2.510669231E0
6.748715781E0,-5.838786125E0,-9.564111710E0,4.227220535E0
6.770005156E0,-6.550053120E0,-1.043061256E1,3.106781006E0
6.791294531E0,-7.538587570E0,-1.176191998E1,6.197709560E0
6.812583854E0,-8.398209572E0,-1.108445168E1,5.690132141E0
6.833873229E0,-8.405387878E0,-9.422935486E0,2.515454769E0
6.855162604E0,-8.467600822E0,-6.631408691E0,1.203589797E0
6.876451979E0,-7.591229916E0,-5.352744102E0,1.262213886E-1
6.897741354E0,-8.735597610E0,-6.387042046E0,5.790630817E0
6.919030729E0,-8.268997192E0,-1.096451187E1,4.538586140E0
6.940320104E0,-6.209972858E0,-1.400279808E1,4.294518471E0
6.961609427E0,-3.698406458E0,-1.478315735E1,-9.655039310E-1
6.982898802E0,-7.127022266E0,-9.865608215E0,1.103091240E0
7.004188177E0,-9.054141998E0,-7.442874908E0,4.045365810E0
7.025477552E0,-8.776574135E0,-5.994618893E0,2.580060959E0
7.046766927E0,-6.983153820E0,-5.132604599E0,4.160520434E-1
7.068056302E0,-6.540481567E0,-4.972285271E0,-1.870290041E0
7.089345625E0,-7.009474754E0,-5.656931877E0,-3.813561201E-1
7.110635000E0,-6.286543369E0,-6.916154861E0,2.937189937E-1
7.131924375E0,-4.996213913E0,-6.935297489E0,1.593919039E0
7.153213750E0,-5.484648705E0,-5.652146339E0,3.786941051E0
7.174503125E0,-7.878667831E0,-3.995415688E0,3.284149170E0
7.195792500E0,-9.401400566E0,-4.191627026E0,4.222434521E0
7.217081875E0,-8.465208054E0,-6.593123913E0,5.347659588E0
7.238371250E0,-7.490731239E0,-9.403793335E0,1.543669701E0
7.259660573E0,-2.657229662E0,-9.841679573E0,2.343171597E0
7.280949948E0,-2.398505688E0,-5.728716373E0,-5.871388316E-1
7.302239323E0,-3.248555899E0,-2.563610315E0,9.284151793E-1
7.323528698E0,-5.472684383E0,-1.455135226E0,6.601199508E-1
7.344818073E0,-5.790929794E0,-6.166902065E0,2.228316069E0
7.366107448E0,-3.664906979E0,-9.358329773E0,1.893021822E0
7.387396823E0,-3.813561201E0,-9.492327690E0,5.398207664E0
7.408686198E0,7.064808607E-1,-7.663313389E0,3.387040377E0
7.429975521E0,1.429711580E0,-2.616551638E0,1.148554921E0
7.451264896E0,3.427718580E-1,-4.833501875E-1,2.146960020E0
7.472554271E0,-3.777668715E0,-1.986641049E0,5.472385406E0
7.493843646E0,-7.440482140E0,-7.909774303E0,8.898308754E0
7.515133021E0,-9.573683739E0,-1.589881134E1,6.767500877E0
7.536422396E0,-1.060558796E1,-1.578156281E1,3.101995468E0
7.557711771E0,-8.084450722E0,-9.743574142E0,2.024626970E0
7.579001146E0,-5.985047817E0,-5.831607819E0,2.845963478E0
7.600290521E0,-7.708777428E0,-4.914857864E0,1.251446247E0
7.621579844E0,-1.253510094E1,-8.702097893E0,3.427718401E0
7.642869219E0,-1.332054424E1,-1.327268791E1,4.253541470E0
7.664158594E0,-6.696014881E0,-1.328704548E1,2.905783892E0
7.685447969E0,-2.702693224E0,-9.633503914E0,3.791726589E0
7.706737344E0,-7.038188934E0,-7.416553974E0,3.121138096E0
7.728026719E0,-1.041625595E1,-8.522636414E0,1.680060625E0
7.749316094E0,-1.138116169E1,-7.928916931E0,4.751547337E0
7.770605469E0,-1.054098225E1,-7.107879639E0,5.726024628E0
7.791894844E0,-9.645467758E0,-7.021439075E0,6.336493492E0
7.813184219E0,-7.804490089E0,-9.279067039E0,1.517348647E0
7.834473594E0,-5.783751488E0,-1.239631653E1,6.122635007E-1
7.855762969E0,-3.210270643E0,-1.327508068E1,3.372683525E0
7.877052344E0,-1.625324726E0,-1.175234795E1,5.354837894E0
7.898341666E0,-2.764906645E0,-9.848857880E0,3.054138899E0
7.919631041E0,-6.473183632E0,-9.032606125E0,3.628715515E0
7.940920416E0,-1.032293606E1,-7.991130352E0,5.247160912E0
7.962209791E0,-1.346650696E1,-6.229115486E0,2.268994093E0
7.983499166E0,-1.297089291E1,-6.147759438E0,1.416550994E0
8.004788541E0,-6.059225082E0,-6.808477879E0,-2.447259426E0
8.026077916E0,-5.197210789E0,-6.310471535E0,8.682954907E-1
8.047367291E0,-3.296412230E0,-5.898606777E0,2.711965322E0
8.068656666E0,-6.832406044E0,-4.491028786E0,3.195614576E0
8.089946041E0,-1.180259800E1,-4.598706245E0,2.807678223E0
8.111235416E0,-8.560921669E0,-8.410173416E0,2.702394009E0
8.132524791E0,-5.860321522E0,-7.806882858E0,7.794619560E0
8.153814166E0,-9.197710991E0,-7.239484787E0,-7.053741932E0
8.175103541E0,-1.622931957E0,-6.588337898E0,4.004687786E0
8.196392916E0,-6.891329288E-1,-2.824727058E0,-1.954337835E0
8.217682291E0,-4.857429862E-1,-8.949156404E-1,2.731107950E0
8.238971666E0,1.041775107E0,-2.618944407E0,1.083948612E0
8.260261041E0,-2.537289381E0,-4.455136776E0,2.728715181E0
8.281550416E0,3.786641955E-1,-7.639086246E0,2.568096876E0
8.302839791E0,-7.411767960E0,-5.489434242E0,3.523431301E0
8.324129166E0,-3.782454491E0,-6.674479485E0,3.353540897E0
8.345418489E0,-3.377768278E0,-7.368697166E0,3.023032188E0
8.366707864E0,-2.343470573E0,-7.198806763E0,3.772583961E0
8.387997239E0,-1.527219057E0,-7.550551891E0,1.849951029E0
8.409286614E0,-3.116651535E0,-7.897810459E0,-6.397809386E-1
8.430575989E0,-6.865905285E0,-8.362317085E0,5.417350292E0
8.451865364E0,-1.101745319E1,-1.236042404E1,6.846463680E0
8.473154739E0,-1.207777214E1,-1.221685505E1,1.500598907E0
8.494444114E0,-1.005972576E1,-8.869894028E0,3.585644722E0
8.515733489E0,-8.316853523E0,-6.415755749E0,8.300103545E-1
8.537022864E0,-5.154139996E0,-7.964809418E0,2.525026083E0
8.558312239E0,-8.704490662E0,-1.393340588E1,1.158126116E0
8.579601614E0,-1.137876892E1,-1.423729515E1,4.241577148E0
8.600890989E0,-1.134048367E1,-1.027986526E1,5.388337612E0
8.622180364E0,-9.961619377E0,-7.751848221E0,6.197709560E0
8.643469739E0,-7.019046307E0,-6.605087757E0,2.534597397E0
8.664759114E0,-4.009772778E0,-7.045367241E0,2.199602127E0
8.686048489E0,-3.854238987E0,-9.765109062E0,4.402195454E0
8.707337864E0,-2.331506491E0,-1.323888969E1,3.066103220E0
8.728627239E0,-2.345863581E0,-1.351914883E1,1.940878272E0
8.749916614E0,-4.862215519E0,-1.014347458E1,4.919344425E0
8.771205989E0,-6.741478920E0,-8.070093155E0,2.716751099E0
8.792495364E0,-8.259425163E0,-7.014260292E0,1.672882080E0
8.813784739E0,-8.486743927E0,-6.162116528E0,1.976770639E0
8.835074114E0,-8.807681084E0,-6.530910492E0,3.281756163E0
8.856363489E0,-9.157032967E0,-8.177770615E0,2.807678223E0
8.877652864E0,-7.485945702E0,-1.042582703E1,1.299302697E0
8.898942239E0,-5.633003712E0,-9.688538551E0,3.813261986E0
8.920231614E0,-6.221937180E0,-7.792526245E0,3.832404613E0
8.941520989E0,-5.716752529E0,-6.638587475E0,3.806083441E0
8.962810364E0,-6.123831272E0,-6.044867992E0,1.660917997E0
8.984099739E0,-8.000701904E0,-5.664110184E0,2.154138565E0
9.005389114E0,-6.841977119E0,-7.268198967E0,8.922237158E-1
9.026678489E0,-4.297210217E0,-5.920142174E0,1.488634825E0
9.047967864E0,-3.080759197E-2,-4.148556232E0,2.147558331E-1
9.069257239E0,-2.506182671E0,-1.977069736E0,1.861915112E0
9.090546614E0,-1.606182218E0,-5.228317261E0,3.410968781E0
9.111835989E0,-1.504487246E-1,-5.522933960E0,1.574776411E0
9.133125364E0,2.060818523E-1,-3.145365477E0,1.440479279E0
9.154414739E0,-1.486541033E0,-1.788036704E0,3.576073408E0
9.175704114E0,-3.866203070E0,-2.171187401E0,2.613859653E0
9.196993541E0,-6.267400742E0,-5.125426292E0,4.670191765E0
9.218282916E0,-5.573183060E0,-9.702896118E0,3.777369738E0
9.239572291E0,-4.639383793E0,-1.291107273E1,2.621038198E0
9.260861666E0,-6.863512516E0,-1.077547836E1,1.857129455E0
9.282151041E0,-7.814061642E0,-1.041864872E1,2.953640461E0
9.303440416E0,-1.048833942E1,-1.140987587E1,4.323232174E0
9.324729791E0,-9.757930756E0,-9.544969559E0,3.480360508E0
9.346019166E0,-7.938488007E0,-9.279067039E0,2.379063845E0
9.367308541E0,-5.834000587E0,-1.163031483E1,2.637787819E0
9.388597916E0,-7.967202187E0,-1.105813122E1,1.378265858E0
9.409887291E0,-1.218574810E1,-9.693324089E0,2.982354403E0
9.431176666E0,-1.201077366E1,-8.340781212E0,4.109972000E0
9.452466041E0,-1.187916756E1,-6.581159592E0,4.069293976E0
9.473755416E0,-7.988737583E0,-6.784549713E0,5.022235394E0
9.495044791E0,-7.186842918E0,-8.529814720E0,4.691727161E0
9.516334166E0,-5.350351334E0,-9.099605560E0,2.276172638E0
9.537623541E0,-4.843072891E0,-1.075872898E1,2.635395050E0
9.558912916E0,-6.248258114E0,-1.258774281E1,4.756333351E0
9.580202291E0,-6.566802502E0,-1.125912762E1,3.564109325E0
9.601491666E0,-7.945666790E0,-7.732705593E0,3.360719442E0
9.622781041E0,-7.383054256E0,-6.432505608E0,1.524527073E0
9.644070416E0,-6.959225655E0,-6.415755749E0,-5.081757307E-1
9.665359844E0,-8.137092590E0,-6.487540245E0,2.230708838E0
9.686649219E0,-1.087597752E1,-7.998308659E0,3.303291559E0
9.707938594E0,-8.084450722E0,-1.038514900E1,4.121936321E0
9.729227969E0,-7.569694519E0,-1.030140018E1,2.438884497E0
9.750517344E0,-6.236293793E0,-8.774181366E0,2.865405083E-1
9.771806719E0,-9.015856743E0,-4.105485439E0,1.682453394E0
9.793096094E0,-6.358327866E0,-5.087141037E0,6.696912646E-1
9.814385469E0,-6.408577442E0,-5.800501347E0,2.093719877E-2
9.835674844E0,-2.558824778E0,-5.395814896E0,-4.531407952E-1
9.856964219E0,7.857431173E-1,-3.547658682E0,5.395814896E0
9.878253594E0,4.204488277E0,-3.825525284E0,3.367897868E-1
9.899542969E0,-1.342672586E0,-3.751347780E0,1.000199914E0
9.920832396E0,4.624129832E-1,-6.248258114E0,3.446861029E0
9.942121771E0,-5.216353536E-1,-6.214758396E0,1.560419440E0
9.963411146E0,-2.693121910E0,-4.318745613E0,2.762214661E0
9.984700521E0,-4.196412563E0,-4.857429981E0,4.909772873E0
1.000598990E1,-3.643371582E0,-6.348756790E0,3.537788391E0
1.002727927E1,-6.851548672E0,-7.543373585E0,3.717549086E0
1.004856865E1,-8.326424599E0,-8.917751312E0,2.594717026E0
1.006985802E1,-7.933702469E0,-9.631111145E0,1.522134304E0
1.009114740E1,-6.116652966E0,-9.693324089E0,1.203589797E0
1.011243677E1,-8.805288315E0,-1.187438202E1,4.083651066E0
1.013372615E1,-1.002144051E1,-1.299003601E1,4.579264164E0
1.015501557E1,-9.183354378E0,-1.210648632E1,3.233899832E0
1.017630495E1,-8.048558235E0,-1.000469017E1,5.017449856E0
1.019759432E1,-1.157019520E1,-9.872786522E0,4.758726120E0
1.021888370E1,-1.330379486E1,-1.071326542E1,2.039283037E0
1.024017307E1,-1.299003601E1,-6.815656185E0,5.539384365E0
1.026146245E1,-1.080897808E1,-4.194019794E0,2.182852507E0
1.028275182E1,-7.974380493E0,-5.786144257E0,3.899403572E0
1.030404120E1,-6.494719028E0,-8.819644928E0,4.883451939E0
1.032533057E1,-4.019343853E0,-1.127827072E1,4.658227444E0
1.034662000E1,-3.660121441E0,-1.297807217E1,1.924128532E0
1.036790938E1,-5.508576870E0,-1.189831066E1,2.812463999E0
1.038919875E1,-7.713562965E0,-8.963214874E0,2.166102648E0
1.041048812E1,-9.032606125E0,-7.469195843E0,1.048056364E0
1.043177750E1,-9.952048302E0,-7.019046307E0,1.093519926E0
1.045306688E1,-1.027747250E1,-7.739883900E0,3.889832258E0
1.047435625E1,-9.358329773E0,-9.166604042E0,3.571287870E0
1.049564562E1,-6.624230385E0,-1.001665497E1,6.314060688E-1
1.051693500E1,-6.837191582E0,-9.501898766E0,1.603490233E0
1.053822438E1,-6.198009014E0,-8.558527946E0,1.737488389E0
1.055951380E1,-4.153341770E0,-7.191628456E0,2.197209358E0
1.058080318E1,-5.475077152E0,-5.927320957E0,5.242375374E0
1.060209255E1,-5.312066078E0,-6.904190540E0,-1.144965649E0
1.062338193E1,-7.154539824E-1,-6.310471535E0,1.272981644E0
1.064467130E1,2.052144527E0,-3.995415688E0,1.519741535E0
1.066596068E1,-2.250150681E0,2.231307179E-1,3.920938969E0
1.068725005E1,1.194915771E0,-3.547658682E0,2.245065928E0
1.070853943E1,-3.227319419E-1,-3.947559118E0,6.888338327E-1
1.072982885E1,8.216354847E-1,-3.710370541E0,3.514458239E-1
1.075111823E1,-1.450349569E0,-3.236591816E0,3.214757204E0
1.077240760E1,-4.205984116E0,-3.696013689E0,3.396611691E0
1.079369698E1,-6.856334209E0,-6.470790863E0,1.931306958E0
1.081498635E1,-6.456433773E0,-8.970393181E0,2.501097918E0
1.083627573E1,-5.711966991E0,-9.791430473E0,1.737488389E0
1.085756510E1,-6.111867428E0,-9.985548019E0,2.391027927E0
1.087885453E1,-7.167700291E0,-1.306182098E1,5.046164036E0
1.090014391E1,-1.067976570E1,-1.497248936E1,4.914558411E0
1.092143328E1,-9.379864693E0,-1.363161182E1,4.651049137E0
1.094272266E1,-7.028617382E0,-1.138834000E1,7.191329479E0
1.096401203E1,-9.767501831E0,-9.947262764E0,4.385445595E0
1.098530141E1,-1.314317703E1,-1.106530952E1,5.184947491E0
1.100659078E1,-1.334208012E1,-7.928916931E0,2.527418852E0
1.102788016E1,-1.069890785E1,-5.843572140E0,1.098305583E0
1.104916953E1,-9.339186668E0,-5.642574787E0,8.395816684E-1
1.107045896E1,-7.785347462E0,-6.042475224E0,4.217648983E0
1.109174833E1,-5.953641891E0,-9.930513382E0,4.564907551E0
1.111303771E1,-4.062414646E0,-1.316949749E1,4.342374802E0
1.113432708E1,-4.610670090E0,-1.209930801E1,3.741477251E0
1.115561646E1,-4.179663181E0,-9.317352295E0,-2.135594189E-1
1.117690583E1,-6.286543369E0,-8.125128746E0,2.247458696E0
1.119819521E1,-7.866703510E0,-8.055736542E0,1.912164450E0
1.121948464E1,-8.810073853E0,-8.594420433E0,2.884248495E0
1.124077401E1,-1.151515961E1,-8.498707771E0,3.082852840E0
1.126206339E1,-8.225926399E0,-9.073284149E0,8.491529226E-1
1.128335276E1,-7.440482140E0,-8.714061737E0,2.070389748E0
1.130464214E1,-6.612266064E0,-7.505088329E0,4.138685703E0
1.132593151E1,-5.106283665E0,-6.975975513E0,7.941179872E-1
1.134722088E1,-7.253841877E0,-4.543671131E0,1.531705618E0
1.136851031E1,-6.265007973E0,-4.526921272E0,-3.412165165E0
1.138979969E1,-3.083750308E-1,-5.673681736E0,1.747059584E0
1.141108906E1,1.585245013E0,-5.309673309E0,2.180459738E0
1.143237844E1,1.336391449E0,-4.481457710E0,2.644966364E0
1.145366781E1,1.920539260E0,-4.792524815E0,2.575275421E0
1.147495719E1,1.814955950E0,-4.071985722E0,9.858429432E-1
1.149624661E1,-1.105783105E0,-3.396910906E0,3.916153431E0
1.151753599E1,-2.889333248E0,-5.082355499E0,4.435695171E0
1.153882536E1,-3.873381615E0,-8.544171333E0,7.630113363E-1
1.156011474E1,-6.064010620E0,-1.042582703E1,4.940879822E0
1.158140411E1,-5.891428471E0,-1.182413292E1,3.260220766E0
1.160269349E1,-6.973582268E0,-1.222403336E1,2.458027124E0
1.162398292E1,-9.451649666E0,-1.399561977E1,2.625823736E0
1.164527229E1,-1.086879826E1,-1.201077366E1,-4.387838542E-1
1.166656167E1,-1.093579769E1,-1.034686375E1,2.683251381E0
1.168785104E1,-9.812965393E0,-9.351150513E0,7.854440212E0
1.170914042E1,-1.285125256E1,-9.827322960E0,1.088734269E0
1.173042979E1,-1.236281776E1,-9.853643417E0,1.670489311E0
1.175171917E1,-1.006690407E1,-7.485945702E0,4.011866093E0
1.177300859E1,-1.026311588E1,-5.369493961E0,1.406979680E0
1.179429797E1,-9.257532120E0,-5.355136871E0,5.630311489E0
1.181558734E1,-8.022236824E0,-8.709276199E0,3.638286829E0
1.183687672E1,-5.386243820E0,-1.035165024E1,4.083651066E0
1.185816609E1,-4.792524815E0,-1.067019463E1,2.824428082E0
1.187945547E1,-5.726323605E0,-1.077069283E1,3.367897987E0
1.190074490E1,-6.262615204E0,-9.781859398E0,2.929712296E0
1.192203427E1,-7.619943619E0,-8.491529465E0,1.692024708E0
1.194332365E1,-8.563314438E0,-8.170592308E0,4.926223755E-1
1.196461302E1,-8.860322952E0,-8.812466621E0,2.201995134E0
1.198590240E1,-8.793324471E0,-1.040189934E1,5.895915031E0
1.200719177E1,-8.072485924E0,-1.128784180E1,2.762214661E0
1.202848115E1,-7.988737583E0,-9.769894600E0,3.217149973E0
1.204977057E1,-7.591229916E0,-7.600800991E0,3.746263027E0
1.207105995E1,-3.923630953E0,-6.751049995E0,-5.177469850E-1
1.209234932E1,-4.481457710E0,-4.687240601E0,-1.152144074E0
1.211363870E1,4.169493318E-1,-4.354638100E0,-2.313261271E0
1.213492807E1,4.479662895E0,-4.323531628E0,1.046859920E-1
1.215621750E1,1.039382339E0,-1.467099428E0,1.601097465E0
1.217750688E1,1.546959877E0,-4.141377926E0,3.274577856E0
1.219879625E1,1.190130115E0,-5.994618893E0,1.747059584E0
1.222008563E1,1.881955028E0,-5.903392792E0,2.903391123E0
1.224137500E1,-1.767697781E-1,-5.752644539E0,3.655036688E0
1.226266438E1,-4.598706245E0,-5.865107536E0,3.839582920E0
1.228395375E1,-7.921738625E0,-7.914559841E0,3.916153431E0
1.230524318E1,-9.176176071E0,-1.043779182E1,3.614358664E0
1.232653255E1,-1.030379295E1,-1.233410358E1,2.721536636E0
1.234782193E1,-1.449601841E1,-1.456301785E1,3.250649452E0
1.236911130E1,-1.087119102E1,-1.034925747E1,4.596014023E0
1.239040068E1,-8.228319168E0,-7.507481098E0,4.200899124E0
1.241169005E1,-9.034998894E0,-7.253841877E0,2.532204628E0
1.243297948E1,-1.103659534E1,-7.897810459E0,3.655036688E0
1.245426885E1,-1.126869869E1,-9.168996811E0,3.023032188E0
1.247555823E1,-1.214267731E1,-8.721240044E0,1.498206019E0
1.249684760E1,-1.003818989E1,-7.131807804E0,1.964806437E0
1.251813698E1,-7.426125050E0,-7.198806763E0,4.023830414E0
1.253942635E1,-8.321639061E0,-8.527421951E0,3.162115097E0
1.256071578E1,-7.088737011E0,-1.068694401E1,3.284149170E0
1.258200516E1,-5.132604599E0,-1.204427242E1,1.316052437E0
1.260329453E1,-6.109474182E0,-1.026550865E1,3.999902248E0
1.262458391E1,-6.585945129E0,-8.460422516E0,4.545764923E0
1.264587328E1,-6.355935097E0,-8.651848793E0,2.529811859E0
1.266716266E1,-7.007081985E0,-9.039784431E0,2.637787819E0
1.268845203E1,-9.250352859E0,-1.007886791E1,1.785344839E0
1.270974146E1,-9.966405869E0,-1.077308559E1,2.324028969E0
1.273103083E1,-7.229913712E0,-1.015065289E1,2.572882652E0
1.275232021E1,-6.470790863E0,-7.933702469E0,2.606681108E0
1.277360958E1,-5.185246468E0,-6.430112839E0,3.494717360E0
1.279489896E1,-8.101200104E0,-6.875476837E0,7.319046259E-1
1.281618838E1,-9.145069122E0,-7.347161770E0,-6.471987247E0
1.283747776E1,3.165405273E0,-5.154139996E0,5.290231705E0
1.285876714E1,3.991228104E0,-1.421635747E0,-1.824826360E0
1.288005651E1,4.137190342E0,-1.405783277E-2,4.495515347E0
1.290134589E1,4.048655987E0,-3.052045345E0,1.904985905E0
1.292263526E1,1.381855130E0,-5.156532764E0,1.155733347E0
1.294392469E1,-8.614161611E-1,-5.149354458E0,1.983949065E0
1.296521406E1,-3.198306561E0,-6.233901024E0,3.614358664E0
1.298650344E1,-5.549254894E0,-9.346364975E0,4.241577148E0
1.300779281E1,-5.099104881E0,-1.076590729E1,3.224328518E0
1.302908219E1,-4.488636017E0,-1.082572746E1,3.659822226E0
1.305037156E1,-5.635396481E0,-1.012193871E1,2.654537678E0
1.307166099E1,-1.130937672E1,-1.296371460E1,3.456432343E0
1.309295036E1,-1.214507008E1,-1.344018555E1,-7.331010103E-1
1.311423974E1,-1.079701424E1,-1.177149105E1,5.544169903E0
1.313552911E1,-9.959226608E0,-1.044018459E1,4.840381145E0
1.315681849E1,-1.413918877E1,-1.099561787E1,5.718846321E0
1.317810786E1,-1.633699608E1,-9.379864693E0,3.827618837E0
1.319939729E1,-1.307617760E1,-6.339185238E0,1.142572835E-1
1.322068667E1,-8.206783295E0,-4.766203403E0,4.912165642E0
1.324197604E1,-6.684051037E0,-6.911369324E0,3.767798424E0
1.326326542E1,-5.716752529E0,-9.928120613E0,4.572085857E0
1.328455479E1,-4.773382187E0,-1.060558796E1,3.786941051E0
1.330584417E1,-3.660121441E0,-1.019611645E1,2.051247120E0
1.332713359E1,-4.732704163E0,-9.466006279E0,3.715156317E0
1.334842297E1,-6.968796730E0,-9.326923370E0,3.068495989E0
1.336971234E1,-7.284948349E0,-1.013150978E1,3.104388237E0
1.339100172E1,-7.237092018E0,-1.005733299E1,3.078067303E0
1.341229109E1,-1.086640549E1,-9.049356461E0,2.134995937E0
1.343358047E1,-1.324128246E1,-9.291030884E0,6.314060688E-1
1.345486990E1,-8.374280930E0,-9.834501266E0,3.267399311E0
1.347615927E1,-5.649753571E0,-8.656634331E0,6.266204119E-1
1.349744865E1,-8.778966904E0,-5.453541756E0,2.805285454E0
1.351873802E1,-4.768596649E0,-5.872285843E0,-9.750752449E-1
1.354002740E1,1.288235903E0,-5.884250164E0,-3.000001311E-1
1.356131677E1,3.993621111E0,-2.518146753E0,6.768696904E-1
1.358260615E1,1.508674622E0,-8.063812256E-1,3.774976730E0
1.360389557E1,1.558325738E-1,-4.103092670E0,2.369492531E0
1.362518495E1,1.886740685E0,-4.754239559E0,1.086341500E0
1.364647432E1,1.961217284E0,-3.404089212E0,2.032104731E0
1.366776370E1,1.214058399E0,-3.380161047E0,6.936194897E-1
1.368905307E1,-2.650051117E0,-5.010570526E0,3.334398270E0
1.371034245E1,-5.683252811E0,-9.037391663E0,3.171686411E0
1.373163188E1,-6.473183632E0,-1.431865025E1,3.001496792E0
1.375292125E1,-1.039232826E1,-1.689482307E1,4.550550461E0
1.377421062E1,-1.338754368E1,-1.598973846E1,1.615454435E0
1.379550000E1,-1.008126068E1,-1.222164059E1,1.483849168E0
1.381678938E1,-9.609575272E0,-1.028225803E1,4.368695736E0
1.383807875E1,-9.446864128E0,-9.535398483E0,3.308077335E0
1.385936813E1,-1.126630592E1,-1.131176949E1,5.718846321E0
1.388065755E1,-1.468505192E1,-1.070130062E1,7.107580662E0
1.390194693E1,-1.474726486E1,-7.469195843E0,4.160520434E-1
1.392323630E1,-9.197710991E0,-4.938786030E0,2.546561480E0
1.394452568E1,-8.041379929E0,-5.230710506E0,4.107579231E0
1.396581505E1,-9.326923370E0,-8.105985641E0,3.806083441E0
1.398710443E1,-6.451648235E0,-9.489934921E0,1.993520379E0
1.400839380E1,-6.748657227E0,-9.576076508E0,4.165007114E0
1.402968318E1,-7.071688175E0,-1.069651508E1,4.064508438E0
1.405097260E1,-6.679265499E0,-1.019133091E1,2.575275421E0
1.407226198E1,-6.865905285E0,-8.460422516E0,2.091925144E0
1.409355135E1,-9.403793335E0,-7.076473713E0,3.688536167E0
1.411484073E1,-9.978369713E0,-7.766204834E0,2.132603168E0
1.413613010E1,-7.373483181E0,-9.549755096E0,2.649751902E0
1.415741948E1,-7.720741272E0,-9.454042435E0,4.861916542E0
1.417870885E1,-6.607480526E0,-9.099605560E0,2.793620527E-1
1.419999823E1,-9.346364975E0,-7.725526810E0,-3.577269793E0
1.422128760E1,-6.001797199E0,-5.532505035E0,1.546062589E0
1.424257698E1,8.886345029E-1,-6.193223000E0,-8.267202377E-1
1.426386641E1,1.695314884E0,-3.753740549E0,8.730811477E-1
1.428515578E1,4.240380764E0,-2.281257391E0,3.916153431E0
1.430644516E1,4.889134884E0,-2.412862539E0,3.559323788E0
1.432773453E1,2.765504837E0,-2.319542408E0,-6.759724021E-2
1.434902391E1,1.161416292E0,-2.056331873E0,8.659027219E-1
1.437031328E1,-5.216353536E-1,-3.013760090E0,1.349551916E0
1.439160266E1,-3.727419376E0,-6.001797199E0,3.186043262E0
1.441289203E1,-5.929713726E0,-1.058644581E1,3.070888758E0
1.443418141E1,-6.837191582E0,-1.407697582E1,4.924129963E0
1.445547078E1,-1.162074280E1,-1.786690712E1,4.188935280E0
1.447676016E1,-1.231256771E1,-1.351675606E1,-3.047857881E-1
1.449804953E1,-9.554540634E0,-9.094820023E0,6.326921940E0
1.451933891E1,-1.078265667E1,-9.466006279E0,6.975676060E0
1.454062828E1,-1.086161995E1,-1.124955654E1,4.205684662E0
1.456191766E1,-9.822537422E0,-1.052662468E1,6.657430649E0
1.458320703E1,-1.293021584E1,-8.670990944E0,6.864410043E-1
1.460449641E1,-1.290389442E1,-6.389434814E0,9.332008362E-1
1.462578578E1,-8.742775917E0,-6.351149559E0,2.479562521E0
1.464707516E1,-8.189734459E0,-8.960822105E0,3.820440531E0
1.466836453E1,-5.812465191E0,-1.068215847E1,4.801796913E0
1.468965391E1,-4.019343853E0,-1.034207821E1,3.396611691E0
1.471094328E1,-4.625027180E0,-8.927322388E0,5.022235394E0
1.473223266E1,-6.382256031E0,-9.212067604E0,3.422932863E0
1.475352203E1,-7.007081985E0,-8.759525299E0,1.354337573E0
1.477481141E1,-7.603193760E0,-7.943274021E0,2.041675806E0
1.479610078E1,-1.032054329E1,-6.588337898E0,3.403790236E0
1.481739016E1,-1.241545963E1,-7.668099403E0,3.042174816E0
1.483867953E1,-9.451649666E0,-9.674181938E0,-6.373881102E-1
1.485996891E1,-7.256234646E0,-9.889835358E0,2.628216505E0
1.488125823E1,-6.135795593E0,-8.577671051E0,2.628216505E0
1.490254760E1,-7.002296448E0,-7.694420338E0,-3.737888098E0
1.492383698E1,7.351947427E-1,-7.529016495E0,3.949652910E0
1.494512635E1,5.365904570E-1,-5.111069202E0,4.167399883E0
1.496641573E1,3.140579537E-2,-4.208376884E0,6.133103371E0
1.498770510E1,2.602792740E0,-4.634598255E0,-1.142572761E0
1.500899448E1,3.854837179E0,-1.347458243E0,-3.693920076E-1
1.503028385E1,1.417747378E0,-1.839482337E-1,-8.434699774E-1
1.505157323E1,2.614158690E-1,-1.599003673E0,1.921735644E0
1.507286255E1,-1.127318621E0,-3.734597921E0,3.087638617E0
1.509415193E1,-2.846262455E0,-6.746264458E0,1.861915112E0
1.511544130E1,-3.624228954E0,-9.882357597E0,2.505883455E0
1.513673068E1,-5.290530682E0,-1.259492111E1,3.262613773E0
1.515802005E1,-1.274357510E1,-1.870230103E1,6.753143787E0
1.517930943E1,-1.225514030E1,-1.651885033E1,3.777369738E0
1.520059875E1,-9.142676353E0,-1.306421375E1,5.479563713E0
1.522188813E1,-7.057331085E0,-1.026311588E1,3.489931822E0
1.524317750E1,-9.930513382E0,-9.504291534E0,5.443671703E0
1.526446688E1,-1.844387627E1,-9.149854660E0,3.413361549E0
1.528575620E1,-1.497488213E1,-6.588337898E0,3.272185028E-1
1.530704557E1,-1.021525860E1,-4.613062859E0,4.991128922E0
1.532833495E1,-8.328817368E0,-6.858726978E0,2.874677420E0
1.534962432E1,-6.554838657E0,-9.437292099E0,4.323232174E0
1.537091365E1,-4.371387959E0,-1.023200893E1,2.635395050E0
1.539220302E1,-4.246662140E0,-1.082812023E1,6.051747799E0
1.541349240E1,-5.857928753E0,-1.095493984E1,4.086043835E0
1.543478177E1,-6.719943523E0,-1.004297543E1,3.164507866E0
1.545607109E1,-8.156234741E0,-8.120343208E0,3.284149170E0
1.547736047E1,-1.068215847E1,-7.778169155E0,3.202793121E0
1.549864984E1,-1.186481094E1,-9.793823242E0,1.371087432E0
1.551993917E1,-5.597111225E0,-1.137637615E1,8.515457511E-1
1.554122854E1,-4.924428940E0,-1.011236763E1,5.804987907E0
1.556251792E1,-8.742775917E0,-7.505088329E0,-2.236690998E0
1.558380724E1,-7.251449108E0,-7.330412388E0,4.878367186E-1
1.560509661E1,-3.387339592E0,-6.837191582E0,3.516252756E0
1.562638599E1,-2.533400953E-1,-6.657730103E0,1.323230863E0
1.564767531E1,1.874776483E0,-4.498207569E0,2.429313183E0
1.566896469E1,2.135893345E0,-4.239483356E0,2.481955290E0
1.569025406E1,1.611566067E0,-3.720241070E0,2.920140982E0
1.571154338E1,1.735992789E0,-2.606980324E0,1.136590727E-2
1.573283276E1,5.207380295E0,-1.986641049E0,-7.331010103E-1
1.575412208E1,3.826123476E0,-1.404886007E0,2.283350945E0
1.577541146E1,1.295115203E-1,-3.104687452E0,1.150947690E0
1.579670083E1,-4.421637058E0,-8.103592873E0,2.872284412E0
1.581799016E1,-6.636194706E0,-1.374885941E1,2.855534792E0
1.583927953E1,-1.321496105E1,-2.165414810E1,3.911367655E0
1.586056885E1,-1.438355637E1,-2.025135612E1,-8.889335990E-1
1.588185823E1,-1.024875832E1,-1.266670609E1,4.045365810E0
1.590314755E1,-1.028943634E1,-9.408578873E0,8.366803169E0
1.592443693E1,-1.261167049E1,-8.774181366E0,5.874379635E0
1.594572625E1,-1.936301994E1,-7.998308659E0,2.405385017E0
1.596701562E1,-1.391665649E1,-7.004689217E0,1.565205097E0
1.598830495E1,-5.824429512E0,-5.417649746E0,1.409372568E0
1.600959432E1,-4.534099579E0,-7.459624767E0,4.548157692E0
1.603088365E1,-4.167698860E0,-1.025832939E1,6.027819157E0
1.605217302E1,-3.562015533E0,-1.136201954E1,4.634299278E0
1.607346240E1,-3.361018419E0,-1.097169018E1,3.609572887E0
1.609475172E1,-6.664908409E0,-9.784252167E0,4.040580273E0
1.611604109E1,-1.010040379E1,-1.018415260E1,3.205185890E0
1.613733042E1,-1.118734360E1,-1.010997486E1,3.477967739E0
1.615861974E1,-1.020808029E1,-9.399007797E0,3.712763548E0
1.617990911E1,-8.161020279E0,-9.351150513E0,1.893021822E0
1.620119844E1,-7.026224613E0,-9.410971642E0,1.244267821E0
1.622248781E1,-6.286543369E0,-9.863214493E0,2.171486616E-1
1.624377714E1,-8.206783295E0,-8.328817368E0,1.390229940E0
1.626506651E1,-7.708777428E0,-9.142676353E0,1.826022744E0
1.628635583E1,-7.950452328E0,-7.945666790E0,-8.123632669E-1
1.630764521E1,6.179464459E-1,-6.389434814E0,1.483849168E0
1.632893453E1,6.014359951E0,-2.573181629E0,3.538386524E-1
1.635022385E1,4.314558506E0,6.777670383E-1,1.119840980E0
1.637151323E1,4.517948151E0,-1.871785522E0,1.668096542E0
1.639280255E1,2.226820469E0,-4.301996231E0,1.770987868E0
1.641409193E1,3.332902908E0,-4.129413605E0,2.316850424E0
1.643538125E1,1.573280931E0,-3.521337509E0,1.373480201E0
1.645667062E1,-6.747759581E-1,-4.636991024E0,2.118246317E0
1.647795995E1,-3.923630953E0,-7.833203793E0,2.711965322E0
1.649924927E1,-6.901797771E0,-1.218814087E1,3.619144201E0
1.652053865E1,-1.172602749E1,-1.917638016E1,5.053342342E0
1.654182797E1,-1.719183159E1,-2.102214241E1,9.140582681E-1
1.656311734E1,-1.201795197E1,-1.342343616E1,8.419744968E-1
1.658440667E1,-1.292782211E1,-9.068498611E0,5.821737289E0
1.660569599E1,-1.145533943E1,-6.672086716E0,4.842773914E0
1.662698536E1,-1.249442291E1,-5.034498692E0,6.738786697E0
1.664827469E1,-1.184327602E1,-6.760621071E0,-1.415653706E0
1.666956406E1,-5.123033047E0,-8.278568268E0,5.261518002E0
1.669085338E1,-6.581159592E0,-1.082333469E1,2.740679264E0
1.671214271E1,-6.650551319E0,-1.112991524E1,5.094020367E0
1.673343208E1,-7.445267677E0,-1.032293606E1,5.326124191E0
1.675472141E1,-6.645765781E0,-8.819644928E0,2.776571512E0
1.677601073E1,-6.897012234E0,-8.718847275E0,5.400600910E0
1.679730010E1,-7.105486870E0,-1.001426220E1,3.241078377E0
1.681858943E1,-6.868298531E0,-1.016022396E1,1.550848126E0
1.683987875E1,-9.609575272E0,-1.028943634E1,2.755036116E0
1.686116813E1,-1.246092319E1,-9.494720459E0,2.642573595E0
1.688245745E1,-8.670990944E0,-9.113962173E0,1.660917997E0
1.690374677E1,-5.388636589E0,-7.869096279E0,2.752643347E0
1.692503615E1,-7.440482140E0,-7.138986588E0,2.960819006E0
1.694632547E1,-7.909774303E0,-9.705288887E0,-2.140978098E0
1.696761479E1,-7.799704552E0,-1.027747250E1,-1.360618830E0
1.698890417E1,2.554936409E0,-7.711170197E0,2.961117923E-1
1.701019349E1,2.064108610E0,-8.231309652E-1,1.414158225E0
1.703148281E1,2.669791937E0,6.203392744E-1,7.558328509E-1
1.705277219E1,4.211667061E0,-3.748954773E0,1.284945726E0
1.707406151E1,3.716053486E0,-4.577170849E0,1.262213886E-1
1.709535083E1,4.051048756E0,-3.629014730E0,3.529413417E-2
1.711664021E1,1.082453132E0,-2.642872572E0,2.072782516E0
1.713792953E1,-1.132104158E0,-4.026522160E0,3.360719442E0
1.715921885E1,-4.050450325E0,-8.252246857E0,2.041675806E0
1.718050823E1,-5.594718456E0,-1.446251869E1,5.556134224E0
1.720179755E1,-1.289910889E1,-2.077568245E1,6.690930367E0
1.722308688E1,-1.546062565E1,-1.841276932E1,1.129412293E0
1.724437620E1,-1.190309620E1,-1.269302654E1,1.541276932E0
1.726566557E1,-1.205145168E1,-9.329615593E0,5.544169903E0
1.728695490E1,-1.150798130E1,-8.276175499E0,4.567300320E0
1.730824422E1,-1.122084236E1,-8.347960472E0,5.596812248E0
1.732953359E1,-1.088076305E1,-7.948059559E0,1.584347725E0
1.735082292E1,-9.025427818E0,-7.603193760E0,1.423729420E0
1.737211224E1,-9.729216576E0,-8.257032394E0,2.235494614E0
1.739340156E1,-9.097212791E0,-9.039784431E0,7.430611610E0
1.741469094E1,-9.231210709E0,-9.109176636E0,5.254339218E0
1.743598026E1,-8.857930183E0,-9.324530602E0,4.165007114E0
1.745726958E1,-7.902595997E0,-9.738788605E0,1.703988791E0
1.747855891E1,-5.987440586E0,-1.013868904E1,9.523434043E-1
1.749984828E1,-4.241876125E0,-1.089751244E1,1.375872970E0
1.752113760E1,-6.569195271E0,-1.012911701E1,1.622632861E0
1.754242693E1,-8.082057953E0,-8.944071770E0,2.960819006E0
1.756371625E1,-4.917250633E0,-9.499505997E0,2.941676378E0
1.758500562E1,-5.192425251E0,-8.367102623E0,1.960020900E0
1.760629495E1,-8.443673134E0,-7.337590694E0,1.479063511E0
1.762758427E1,-9.430113792E0,-6.233901024E0,4.610371113E0
1.764887359E1,-8.501100540E0,-6.085546017E0,2.522633314E0
1.767016297E1,-2.872583628E0,-5.448756218E0,2.278565407E0
1.769145229E1,2.533401012E0,-4.088735580E0,-2.569293380E-1
1.771274161E1,6.557829380E0,-4.708775997E0,1.014556766E0
1.773403094E1,3.960121393E0,-3.097508907E0,3.729812205E-1
1.775532031E1,4.110869408E0,-2.970689297E0,5.691927075E-1
1.777660964E1,1.491924882E0,-2.582752943E0,7.390831113E-1
1.779789896E1,-8.973084688E-1,-2.987439156E0,6.580262445E-3
1.781918828E1,-3.770490170E0,-5.436792374E0,2.532204628E0
1.784047766E1,-6.162116528E0,-9.765109062E0,3.054138899E0
1.786176698E1,-7.971987724E0,-1.388794231E1,3.815654755E0
1.788305630E1,-1.072044373E1,-1.758425522E1,4.023830414E0
1.790434562E1,-1.327268791E1,-1.416551018E1,6.074778438E-1
1.792563500E1,-1.094058323E1,-1.000469017E1,4.033401489E0
1.794692432E1,-1.001426220E1,-1.023679447E1,6.693323135E0
1.796821365E1,-1.047159004E1,-1.078265667E1,3.777369738E0
1.798950297E1,-1.164227867E1,-1.023200893E1,7.021139622E0
1.801079229E1,-1.069890785E1,-9.267103195E0,4.272983074E0
1.803208167E1,-9.118747711E0,-7.605587006E0,2.434098721E0
1.805337099E1,-5.685645580E0,-6.377470493E0,4.768297195E0
1.807466031E1,-6.329614162E0,-8.810073853E0,6.326921940E0
1.809594964E1,-5.927320957E0,-1.174038410E1,4.423730850E0
1.811723896E1,-7.241877556E0,-1.249681568E1,5.441278458E0
1.813852833E1,-7.495516777E0,-9.796216011E0,4.481158733E0
1.815981766E1,-8.901000977E0,-8.000701904E0,1.522134304E0
1.818110698E1,-1.134048367E1,-7.526623726E0,-2.234298140E-1
1.820239630E1,-1.394537067E1,-8.302495956E0,1.797308922E0
1.822368562E1,-8.673383713E0,-1.059123135E1,1.467099428E0
1.824497500E1,-4.723132610E0,-1.010518932E1,3.075674295E0
1.826626432E1,-5.587540150E0,-7.485945702E0,3.549752474E0
1.828755365E1,-4.505385876E0,-5.805286884E0,1.325623751E0
1.830884297E1,-1.831107497E0,-5.156532764E0,4.629513741E0
1.833013229E1,-2.937189817E0,-5.599503994E0,-2.914158821E0
1.835142167E1,-1.742573142E0,-5.472684383E0,2.233101845E0
1.837271099E1,6.804290295E0,-2.882154942E0,1.964806437E0
1.839400031E1,8.455637097E-1,1.242772222E0,8.156534433E-1
1.841528964E1,1.470389485E0,-1.258923769E0,2.774178743E0
1.843657896E1,-8.350951076E-1,-3.969094515E0,6.960122585E-1
1.845786833E1,-3.179463148E-1,-5.980261803E0,7.223333120E-1
1.847915766E1,-1.883749604E0,-6.865905285E0,3.198007345E0
1.850044698E1,-3.203092098E0,-8.003094673E0,4.660620213E0
1.852173630E1,-6.485147476E0,-8.924929619E0,4.289732933E0
1.854302563E1,-7.588837147E0,-1.115623665E1,1.665703654E0
1.856431495E1,-1.459651756E1,-1.831705666E1,3.030210733E0
1.858560432E1,-1.111077309E1,-1.408415413E1,3.638286829E0
1.860689365E1,-8.122735977E0,-9.391828537E0,6.528218269E0
1.862818297E1,-7.462017536E0,-8.817252159E0,4.007080555E0
1.864947229E1,-9.803394318E0,-1.112512970E1,6.463313103E0
1.867076161E1,-1.339711475E1,-1.271725368E1,3.815654755E0
1.869205094E1,-1.288953781E1,-9.568898201E0,1.363908887E0
1.871334031E1,-1.067976570E1,-6.961618423E0,4.160221100E0
1.873462964E1,-7.610372543E0,-7.576872826E0,4.909772873E0
1.875591896E1,-5.343173027E0,-8.996713638E0,5.924628735E0
1.877720828E1,-5.039284706E0,-7.866703510E0,4.995914459E0
1.879849760E1,-6.126224041E0,-7.699205875E0,2.965604544E0
1.881978693E1,-9.530612946E0,-7.902595997E0,3.444468260E0
1.884107630E1,-1.006451130E1,-9.461220741E0,1.770987868E0
1.886236563E1,-1.039232826E1,-9.908977509E0,1.500598907E0
1.888365495E1,-1.037797070E1,-9.317352295E0,4.591228485E0
1.890494427E1,-7.023831844E0,-9.645467758E0,2.352742910E0
1.892623359E1,-7.483552933E0,-1.030140018E1,1.775773525E0
1.894752292E1,-8.565707207E0,-9.702896118E0,9.355936646E-1
1.896881224E1,-4.311567307E0,-1.007168961E1,3.877868176E0
1.899010156E1,-3.253341436E0,-8.029415131E0,-4.220340848E-1
1.901139094E1,-3.517449200E-1,-3.926023722E0,-1.015753269E0
1.903268026E1,4.508377075E0,-2.570788860E0,1.079162955E0
1.905396958E1,2.040180445E0,-8.685946465E-1,2.405385017E0
1.907525891E1,2.260320187E0,-1.919641972E0,-6.520441920E-2
1.909654823E1,4.357629299E0,-2.755335331E0,1.956132501E-1
1.911783755E1,7.929216027E-1,-2.587538481E0,1.577169180E0
1.913912693E1,-1.225424290E0,-3.526123285E0,3.446861029E0
1.916041625E1,-3.669692516E0,-5.841179371E0,3.037389278E0
1.918170557E1,-4.325924397E0,-8.941679001E0,3.437289715E0
1.920299490E1,-5.951249123E0,-1.124477100E1,2.192423820E0
1.922428422E1,-1.053619671E1,-1.621257019E1,2.865106106E0
1.924557354E1,-1.463958836E1,-1.732822418E1,2.676073074E0
1.926686286E1,-1.235324574E1,-1.459651756E1,5.809773445E0
1.928815219E1,-9.516255379E0,-1.031336498E1,5.821737289E0
1.930944156E1,-9.638289452E0,-7.320840836E0,5.828916073E0
1.933073088E1,-1.535055542E1,-6.880262375E0,4.014258862E0
1.935202021E1,-1.224317646E1,-7.933702469E0,4.505086899E0
1.937330953E1,-6.126224041E0,-7.562515736E0,3.490529954E-1
1.939459885E1,-9.489934921E0,-1.175713444E1,7.265506744E0
1.941588818E1,-7.883453369E0,-1.281057453E1,1.902593136E0
1.943717750E1,-5.709573746E0,-9.118747711E0,1.558026671E0
1.945846682E1,-5.948856354E0,-6.897012234E0,3.966402531E0
1.947975620E1,-5.845964909E0,-7.241877556E0,6.832107067E0
1.950104552E1,-6.971189499E0,-8.350353241E0,-4.555336237E-1
1.952233484E1,-1.174995518E1,-9.623932838E0,3.971188307E0
1.954362417E1,-1.585813332E1,-9.054141998E0,7.654041648E-1
1.956491349E1,-9.832108498E0,-1.038993549E1,3.451646566E0
1.958620281E1,-6.564409733E0,-8.819644928E0,5.659025669E0
1.960749214E1,-7.605587006E0,-7.548159122E0,2.728715181E0
1.962878146E1,-7.402196884E0,-8.355138779E0,1.861915112E0
1.965007078E1,-3.732205153E0,-9.631111145E0,-1.369891018E-1
1.967136010E1,-2.195115566E0,-8.429315567E0,-3.749852180E0
1.969264948E1,2.519043922E0,-3.193521023E0,1.648953915E0
1.971393880E1,5.789135456E0,5.294119939E-2,-2.135594189E-1
1.973522813E1,4.245166302E0,2.090429783E0,3.516252756E0
1.975651745E1,1.369890928E0,-7.387840003E-2,1.067198873E0
1.977780677E1,2.444567442E0,-3.792025566E0,2.395813704E0
1.979909609E1,6.203392744E-1,-4.601099014E0,3.150151014E0
1.982038542E1,-5.814558864E-1,-7.701598644E0,9.379864931E-1
1.984167474E1,-1.558325768E0,-1.036839962E1,2.874677420E0
1.986296406E1,-2.784049034E0,-1.358375549E1,5.812166214E0
1.988425338E1,-7.397411346E0,-1.368186092E1,2.757428885E0
1.990554271E1,-1.635613823E1,-1.813490295E1,1.572383523E0
1.992683208E1,-1.492433357E1,-1.452951813E1,2.948854923E0
1.994812141E1,-1.170688438E1,-1.300439262E1,6.908677101E0
1.996941073E1,-7.957630634E0,-9.724431038E0,4.710869789E0
1.999070005E1,-9.719645500E0,-8.728418350E0,6.034997940E0
2.001198938E1,-1.312642670E1,-9.257532120E0,1.486241937E0
2.003327870E1,-1.124237823E1,-8.295317650E0,2.242672920E0
2.005456802E1,-1.159442234E1,-7.078866482E0,5.525027275E0
2.007585734E1,-1.221685505E1,-7.107879639E0,5.175376415E0
2.009714667E1,-8.082057953E0,-7.823632717E0,3.777369738E0
2.011843599E1,-5.778965950E0,-8.778966904E0,1.198804140E0
2.013972531E1,-4.160520554E0,-9.521040916E0,3.200400352E0
2.016101464E1,-4.213162422E0,-1.073480034E1,5.486742496E0
2.018230396E1,-6.425326824E0,-1.142423248E1,2.546561480E0
2.020359328E1,-1.017218781E1,-1.107488060E1,2.817548811E-1
2.022488266E1,-1.435454273E1,-1.020568752E1,2.347957134E0
2.024617198E1,-1.006929684E1,-9.600004196E0,4.311268330E0
2.026746130E1,-6.214758396E0,-9.166604042E0,2.664108992E0
2.028875063E1,-5.829215050E0,-7.936095238E0,2.079961061E0
2.031003995E1,-5.302495003E0,-8.048558235E0,2.297708035E0
2.033132927E1,-1.321137190E0,-7.847560883E0,-3.745066643E0
2.035261859E1,1.245165110E0,-2.906083107E0,1.639382601E0
2.037390792E1,6.615257263E0,-1.668395638E0,-3.278167009E0
2.039519724E1,4.959124923E-1,1.044167995E0,3.207578659E0
2.041648656E1,3.512364626E0,-3.621836185E0,2.053640127E0
2.043777588E1,4.697410107E0,-5.041677475E0,8.467600942E-1
2.045906521E1,2.420639277E0,-3.638586044E0,-9.176474810E-1
2.048035453E1,-3.251247704E-1,-4.703989983E0,1.359123230E0
2.050164385E1,-4.806881428E0,-6.739085674E0,4.698905468E0
2.052293318E1,-4.711168766E0,-1.176670551E1,2.812463999E0
2.054422250E1,-8.560921669E0,-1.711735535E1,3.128316402E0
2.056551182E1,-1.415354633E1,-1.756511307E1,-1.338784218E0
2.058680115E1,-1.372971725E1,-1.419661713E1,2.266601324E0
2.060809047E1,-1.380150223E1,-1.331575871E1,2.989532709E0
2.062937979E1,-1.218335533E1,-8.225926399E0,5.213661671E0
2.065066911E1,-1.467069435E1,-7.605587006E0,4.708476543E0
2.067195844E1,-9.482755661E0,-6.119045734E0,4.014258862E0
2.069324781E1,-5.518147945E0,-6.391827583E0,4.672584534E0
2.071453714E1,-8.005487442E0,-8.158627510E0,4.481158733E0
2.073582646E1,-5.893821239E0,-8.920144081E0,7.279863834E0
2.075711578E1,-8.613563538E0,-9.975976944E0,1.608275890E0
2.077840510E1,-9.614361763E0,-9.798608780E0,3.219542980E0
2.079969443E1,-5.678467274E0,-8.877073288E0,4.347160339E0
2.082098375E1,-4.945964336E0,-9.623932838E0,4.502694130E0
2.084227307E1,-8.247461319E0,-1.142662525E1,3.578466177E0
2.086356240E1,-1.040668488E1,-1.055294609E1,-9.559326172E-1
2.088485172E1,-1.389033508E1,-9.858428955E0,2.678465843E0
2.090614104E1,-1.426122284E1,-9.956833839E0,3.935296059E0
2.092743036E1,-4.115056515E0,-1.180020523E1,1.021735311E0
2.094871969E1,-5.951249123E0,-9.334401131E0,3.135494947E0
2.097000901E1,-8.477172852E0,-7.950452328E0,2.690429926E0
2.099129833E1,-3.116651535E0,-1.014826012E1,-6.151049614E0
2.101258766E1,1.089631557E0,-4.680061817E0,5.306981564E0
2.103387698E1,7.375875711E-1,-1.151246786E0,-1.995015860E0
2.105516630E1,5.767600060E0,-3.203391433E-1,2.798106909E0
2.107645562E1,6.301498413E0,9.122636169E-2,-7.450651526E-1
2.109774495E1,3.771088600E0,-1.000499010E0,1.469492197E0
2.111903427E1,1.738385677E0,-2.745764017E0,1.821237087E0
2.114032359E1,-1.017248750E0,-4.780560493E0,1.213161111E0
2.116161292E1,-2.889333248E0,-7.426125050E0,2.015055656E0
2.118290224E1,-2.855833769E0,-1.021525860E1,1.368694544E0
2.120419156E1,-6.142973900E0,-1.310010624E1,3.159722328E0
2.122548088E1,-1.168534946E1,-1.769911003E1,4.397409916E0
2.124677021E1,-1.488126278E1,-1.579831219E1,1.495813251E0
2.126805953E1,-1.185523987E1,-1.009561825E1,7.409076214E0
2.128934885E1,-9.786644936E0,-8.357531548E0,5.469992638E0
2.131063818E1,-8.560921669E0,-1.155823040E1,5.965605736E0
2.133192750E1,-1.709342766E1,-1.354068470E1,-1.197607756E0
2.135321682E1,-1.327747345E1,-8.029415131E0,1.387837172E0
2.137450615E1,-8.304888725E0,-5.714359760E0,5.129912853E0
2.139579547E1,-6.995117664E0,-6.935297489E0,5.156233788E0
2.141708479E1,-8.647063255E0,-9.755537987E0,4.009473324E0
2.143837411E1,-5.427220821E0,-1.060798073E1,3.193221807E0
2.145966344E1,-5.115854740E0,-9.623932838E0,4.777868748E0
2.148095276E1,-6.303293228E0,-8.769395828E0,4.325624943E0
2.150224208E1,-7.272984505E0,-9.879964828E0,4.873880386E0
2.152353141E1,-7.081259727E0,-1.086161995E1,4.385445595E0
2.154482068E1,-1.084008503E1,-9.959226608E0,2.735893488E0
2.156611000E1,-1.052662468E1,-9.056534767E0,1.969592094E0
2.158739932E1,-6.248258114E0,-8.778966904E0,2.532204628E0
2.160868865E1,-6.241079807E0,-8.187341690E0,2.060818434E0
2.162997797E1,-6.803691864E0,-8.810073853E0,7.271189690E-1
2.165126729E1,-8.994320869E0,-8.048558235E0,-3.000300407E0
2.167255661E1,-1.800000787E0,-6.956832886E0,1.272981644E0
2.169384594E1,2.830111027E0,-4.241876125E0,-3.813561201E-1
2.171513526E1,1.786242127E0,-4.354937077E-1,5.452644825E-1
2.173642458E1,1.367498159E0,-2.142473459E0,1.086341500E0
2.175771391E1,2.846860647E0,-4.646562576E0,1.501496136E-1
2.177900323E1,4.328915119E0,-3.384946823E0,-2.401795685E-1
2.180029255E1,2.983251572E0,-2.365005970E0,1.107876897E0
2.182158188E1,-3.080759197E-2,-3.540480137E0,1.627418518E0
2.184287120E1,-2.817548752E0,-8.292924881E0,1.761416554E0
2.186416052E1,-5.249852657E0,-1.385683632E1,5.438885689E0
2.188544984E1,-1.107009506E1,-2.066321945E1,5.639883041E0
2.190673917E1,-1.513759422E1,-1.833620071E1,9.188438654E-1
2.192802849E1,-1.068455124E1,-1.180738354E1,3.046960592E0
2.194931781E1,-9.307781219E0,-1.084965611E1,6.405885220E0
2.197060714E1,-1.013150978E1,-1.161595726E1,3.865904093E0
2.199189646E1,-1.320538998E1,-1.150319576E1,5.242375374E0
2.201318573E1,-1.398365593E1,-8.989535332E0,9.882357717E-1
2.203447505E1,-1.087597752E1,-5.874678612E0,2.319243431E0
2.205576438E1,-1.005972576E1,-4.452744007E0,3.147459030E0
2.207705370E1,-1.036600685E1,-7.907381535E0,4.840381145E0
2.209834302E1,-9.686145782E0,-8.745168686E0,5.094020367E0
2.211963234E1,-7.708777428E0,-8.757132530E0,3.190829039E0
2.214092167E1,-7.557730198E0,-9.006285667E0,4.323232174E0
2.216221099E1,-6.511468410E0,-1.056251717E1,4.617549419E0
2.218350031E1,-4.703989983E0,-1.068694401E1,3.023032188E0
2.220478964E1,-5.886642933E0,-9.549755096E0,9.188438654E-1
2.222607896E1,-9.058927536E0,-8.292924881E0,2.577668190E0
2.224736823E1,-8.953642845E0,-9.235996246E0,2.048854351E0
2.226865755E1,-9.449256897E0,-9.846465111E0,1.565205097E0
2.228994688E1,-1.148165989E1,-9.461220741E0,3.846761465E0
2.231123620E1,-7.050152779E0,-1.107727337E1,1.399801254E0
2.233252552E1,-4.148556232E0,-9.113962173E0,-2.126621008E0
2.235381484E1,3.387937784E0,-4.285246372E0,2.015055656E0
2.237510417E1,4.537090778E0,2.183450609E-1,-8.985049129E-1
2.239639349E1,3.514757395E0,2.350948304E-1,-1.676471353E0
2.241768281E1,3.115155935E0,-4.388137817E0,1.675274968E0
2.243897214E1,1.989931107E0,-4.498207569E0,-3.574278951E-1
2.246026146E1,1.520638824E0,-3.710370541E0,8.108677864E-1
2.248155078E1,6.179464459E-1,-3.538087368E0,7.414759398E-1
2.250284005E1,-1.438385487E0,-4.258625984E0,1.100698471E0
2.252412938E1,-3.693620920E0,-8.029415131E0,3.705285788E0
2.254541870E1,-7.909774303E0,-1.425404453E1,3.346362352E0
2.256670802E1,-1.576241970E1,-2.171426773E1,6.556932449E0
2.258799734E1,-1.614557076E1,-1.864248085E1,3.171686411E0
2.260928667E1,-1.056730270E1,-1.238913822E1,4.591228485E0
2.263057599E1,-1.071805096E1,-8.264211655E0,3.391826153E0
2.265186531E1,-1.385683632E1,-7.802097321E0,3.006282568E0
2.267315458E1,-1.298285770E1,-8.060522079E0,4.555335999E0
2.269444391E1,-1.136201954E1,-7.347161770E0,3.628715515E0
2.271573323E1,-8.029415131E0,-7.117451191E0,3.365504980E0
2.273702255E1,-6.269793510E0,-6.928118706E0,5.256732464E0
2.275831188E1,-7.466803074E0,-8.122735977E0,4.725226402E0
2.277960120E1,-7.699205875E0,-9.128319740E0,3.341576815E0
2.280089052E1,-8.206783295E0,-9.370293617E0,3.901796341E0
2.282217979E1,-7.545766354E0,-9.556933403E0,5.228018284E0
2.284346911E1,-8.865108490E0,-1.028225803E1,3.937688828E0
2.286475844E1,-9.152247429E0,-1.192941761E1,1.591526151E0
2.288604776E1,-1.129502010E1,-1.231017494E1,9.475577474E-1
2.290733708E1,-8.426922798E0,-1.093340492E1,3.801597059E-1
2.292862641E1,-6.102295876E0,-9.518648148E0,3.174079180E0
2.294991573E1,-5.841179371E0,-8.577671051E0,4.383052826E0
2.297120505E1,-6.188437462E0,-8.936893463E0,1.462014675E0
2.299249432E1,-5.024927616E0,-7.993523121E0,-3.297309637E0
2.301378365E1,2.772683144E0,-4.440779686E0,4.294518471E0
2.303507297E1,3.998406649E0,-1.313958764E0,-7.980063558E-1
2.305636229E1,2.684148788E0,2.183450609E-1,1.995913148E0
2.307765161E1,3.993621111E0,-3.217449188E0,-1.348654628E0
2.309894094E1,4.077369690E0,-3.253341436E0,-1.389332652E0
2.312023021E1,2.322533369E0,-2.539682150E0,-8.410771489E-1
2.314151953E1,-2.509472668E-1,-2.798406124E0,1.785344839E0
2.316280885E1,-3.047259569E0,-4.574777603E0,2.137388945E0
2.318409818E1,-4.584349155E0,-8.975178719E0,2.826820850E0
2.320538750E1,-6.605087757E0,-1.337318707E1,3.700500250E0
2.322667682E1,-1.687807274E1,-2.196312141E1,5.814558983E0
2.324796615E1,-1.493390560E1,-1.744307899E1,-8.123632669E-1
2.326925542E1,-1.118016434E1,-1.264038467E1,4.131507397E0
2.329054474E1,-1.111795139E1,-9.597611427E0,6.149853230E0
2.331183406E1,-1.324128246E1,-9.161818504E0,6.233602047E0
2.333312338E1,-1.517587948E1,-7.631907940E0,2.350350142E0
2.335441271E1,-1.049791145E1,-6.815656185E0,1.363908887E0
2.337570203E1,-7.426125050E0,-5.920142174E0,1.830808401E0
2.339699130E1,-7.821239948E0,-7.555337429E0,3.877868176E0
2.341828062E1,-8.999106407E0,-8.611170769E0,7.476075172E0
2.343956995E1,-7.979166031E0,-8.618349075E0,5.158626556E0
2.346085927E1,-4.979464054E0,-9.688538551E0,4.229613304E0
2.348214859E1,-4.838287354E0,-1.089272690E1,4.646263599E0
2.350343786E1,-8.055736542E0,-1.150319576E1,2.757428885E0
2.352472719E1,-1.098604679E1,-1.061994553E1,1.103091240E0
2.354601651E1,-1.008365345E1,-1.062473106E1,4.222434521E0
2.356730583E1,-9.904191971E0,-1.017218781E1,5.117649436E-1
2.358859516E1,-8.517850876E0,-9.271888733E0,6.649056077E-1
2.360988443E1,-7.134200573E0,-7.591229916E0,3.245863914E0
2.363117375E1,-4.538885593E0,-8.139485359E0,4.107579231E0
2.365246307E1,-6.336792469E0,-7.430910587E0,-3.498306751E0
2.367375240E1,1.954038739E0,-5.616253853E0,3.188436270E0
2.369504172E1,5.176273346E0,-1.838286042E0,-1.013360381E0
2.371633099E1,8.934201598E-1,4.456632137E-1,2.087139606E0
2.373762031E1,2.799004316E0,-3.004188776E0,1.593919039E0
2.375890964E1,2.526222467E0,-3.075973511E0,-2.186441660E0
2.378019896E1,3.098406315E0,-3.138186932E0,3.320041299E-1
2.380148823E1,4.791627228E-1,-2.939582586E0,4.519443810E-1
2.382277755E1,-2.566003084E0,-4.488636017E0,3.655036688E0
2.384406688E1,-5.125426292E0,-8.462815285E0,3.432504177E0
2.386535620E1,-6.511468410E0,-1.250160122E1,4.042973042E0
2.388664552E1,-9.537791252E0,-1.649013710E1,2.381456852E0
2.390793479E1,-1.701925087E1,-1.836491394E1,1.943271041E0
2.392922411E1,-1.142662525E1,-1.481904984E1,5.790630817E0
2.395051344E1,-1.059601688E1,-1.256620693E1,6.025426388E0
2.397180276E1,-1.027747250E1,-8.769395828E0,3.760619879E0
2.399309203E1,-1.090947628E1,-6.607480526E0,5.390730381E0
2.401438135E1,-1.104377365E1,-8.721240044E0,2.642573595E0
2.403567068E1,-1.343300724E1,-9.180961609E0,-4.196412563E-1
2.405696000E1,-1.260927773E1,-6.882655144E0,4.730011940E0
2.407824932E1,-1.006929684E1,-7.277770042E0,5.735595703E0
2.409953859E1,-7.342376232E0,-7.701598644E0,4.380660057E0
2.412082792E1,-6.461219311E0,-8.240283012E0,2.070389748E0
2.414211724E1,-6.181259155E0,-1.040907764E1,4.200899124E0
2.416340651E1,-6.121438503E0,-1.434736443E1,4.646263599E0
2.418469583E1,-5.781358719E0,-1.390947819E1,2.745464802E0
2.420598516E1,-7.677670479E0,-1.168774223E1,1.988734722E0
2.422727448E1,-1.077308559E1,-8.920144081E0,3.422932863E0
2.424856375E1,-1.087837029E1,-8.288139343E0,2.209173441E0
2.426985307E1,-8.254639626E0,-8.307282448E0,2.520240545E0
2.429114240E1,-5.319244862E0,-8.941679001E0,2.058425665E0
2.431243172E1,-4.345067024E0,-8.261817932E0,-4.010669708E0
2.433372099E1,3.127120018E0,-5.254638672E0,6.696912646E-1
2.435501031E1,6.007181168E0,3.930211067E-1,-1.013360381E0
2.437629964E1,2.470589429E-1,2.262712955E0,-1.872383654E-1
2.439758896E1,3.625126362E0,-3.679263830E0,1.708774447E0
2.441887823E1,1.982752681E0,-3.870988846E0,-1.485045552E0
2.444016755E1,2.593221426E0,-3.389732361E0,1.349551916E0
2.446145688E1,1.269093275E0,-3.648157120E0,1.070788130E-1
2.448274620E1,-1.618146300E0,-4.773382187E0,2.963211775E0
2.450403547E1,-3.155235767E0,-8.692526817E0,2.740679264E0
2.452532479E1,-4.962714195E0,-1.331336594E1,1.909771562E0
2.454661411E1,-1.382333660E1,-2.029442596E1,4.186542511E0
2.456790338E1,-1.631546211E1,-1.834098625E1,2.079961061E0
2.458919271E1,-1.287996578E1,-1.215224934E1,4.715655327E0
2.461048203E1,-1.109880829E1,-9.734002113E0,3.446861029E0
2.463177135E1,-1.196770287E1,-1.080419254E1,5.544169903E0
2.465306063E1,-1.669382668E1,-1.142183971E1,6.170491576E-1
2.467434995E1,-1.133330536E1,-7.854739666E0,5.938985825E0
2.469563927E1,-7.811668396E0,-5.597111225E0,3.080460072E0
2.471692760E1,-6.875476837E0,-7.203592777E0,4.957629204E0
2.473821786E1,-6.001797199E0,-9.259924889E0,3.928117514E0
2.475950719E1,-5.889035702E0,-1.006451130E1,4.861916542E0
2.478079646E1,-4.009772778E0,-9.827322960E0,4.095614910E0
2.480208578E1,-5.649753571E0,-8.838788033E0,3.547359467E0
2.482337510E1,-8.668598175E0,-8.972785950E0,3.514458239E-1
2.484466443E1,-1.150798130E1,-9.224032402E0,3.779762506E0
2.486595370E1,-1.319581890E1,-9.564111710E0,3.003889799E0
2.488724302E1,-6.767799854E0,-9.868000984E0,4.663013220E-1
2.490853234E1,-4.160520554E0,-8.718847275E0,3.634099364E-1
2.492982161E1,-6.269793510E0,-6.521039963E0,4.181756496E0
2.495111094E1,-8.429315567E0,-7.658527851E0,3.046960592E0
2.497240021E1,-9.422935486E0,-1.085683441E1,3.056831062E-1
2.499368953E1,-1.759322882E0,-9.820143700E0,1.821237087E0
2.501497885E1,3.571287692E-1,-5.644967556E0,-1.226321608E-1
2.503626818E1,3.009572744E0,-2.863012314E0,1.249053478E0
2.505755745E1,6.466902256E0,-1.697109461E0,-1.051645517E0
2.507884677E1,6.205785751E0,-1.153639674E0,-1.728814393E-1
2.510013609E1,3.943371773E0,-1.924427629E0,8.395816684E-1
2.512142536E1,5.509474277E-1,-2.788834810E0,3.529413417E-2
2.514271469E1,-1.900499344E0,-4.577170849E0,3.540181160E0
2.516400401E1,-3.095116138E0,-8.168199539E0,1.646561027E0
2.518529328E1,-6.288936138E0,-1.220489120E1,4.392624378E0
2.520658260E1,-1.047159004E1,-1.803201294E1,4.960022449E0
2.522787193E1,-1.499641800E1,-1.660499191E1,-4.244269133E-1
2.524916120E1,-1.260927773E1,-1.199880886E1,9.499505758E-1
2.527045052E1,-1.196770287E1,-1.053380394E1,5.139483929E0
2.529173979E1,-9.832108498E0,-1.067019463E1,3.540181160E0
2.531302911E1,-1.135484028E1,-1.038514900E1,6.533003807E0
2.533431844E1,-1.333490181E1,-8.615956306E0,2.328814745E0
2.535560771E1,-9.978369713E0,-7.184450150E0,2.817249537E0
2.537689703E1,-6.006583214E0,-7.134200573E0,5.017449856E0
2.539818635E1,-6.159723759E0,-9.456435204E0,3.908974886E0
2.541947562E1,-7.543373585E0,-9.600004196E0,5.084448814E0
2.544076495E1,-7.902595997E0,-8.678169250E0,4.112364769E0
2.546205422E1,-8.865108490E0,-8.788538933E0,4.047758579E0
2.548334354E1,-8.443673134E0,-9.956833839E0,3.343969584E0
2.550463286E1,-9.681360245E0,-1.135244751E1,2.793620527E-1
2.552592214E1,-1.213549900E1,-1.129502010E1,-6.326025128E-1
2.554721146E1,-1.201555920E1,-9.655039787E0,2.319243431E0
2.556850078E1,-7.540980339E0,-9.832108498E0,3.568894863E0
2.558979005E1,-7.141379356E0,-9.576076508E0,1.119840980E0
2.561107938E1,-5.958427429E0,-9.542576790E0,1.328016520E0
2.563236865E1,-3.707977772E0,-9.247960091E0,-1.657328725E0
2.565365797E1,1.925324917E0,-6.492326260E0,-1.243071318E0
2.567494729E1,4.936991215E0,-1.965105653E0,2.115853310E0
2.569623656E1,2.825325251E0,6.394818425E-1,1.166501045E-1
2.571752588E1,3.687339783E0,-1.890928149E0,1.660917997E0
2.573881516E1,2.535793781E0,-4.256233215E0,1.486241937E0
2.576010448E1,2.356033087E0,-3.868596077E0,-1.920240223E-1
2.578139380E1,1.812563181E0,-4.172484398E0,1.093519926E0
2.580268307E1,-5.359922647E-1,-5.089533806E0,2.158924341E0
2.582397240E1,-2.386541367E0,-8.522636414E0,4.129114628E0
2.584526167E1,-5.977869034E0,-1.251117229E1,3.477967739E0
2.586655099E1,-9.714859962E0,-1.582702637E1,4.881059170E0
2.588784031E1,-1.836730576E1,-2.028246117E1,2.120639086E0
2.590912958E1,-1.519741440E1,-1.353829098E1,1.184447169E0
2.593041891E1,-1.294457245E1,-9.614361763E0,2.156531334E0
2.595170818E1,-1.057926750E1,-8.285746574E0,4.426123619E0
2.597299750E1,-9.916155815E0,-9.116354942E0,6.190531254E0
2.599428677E1,-1.129023457E1,-9.772287369E0,-1.345962733E-1
2.601557609E1,-8.534600258E0,-7.840382576E0,2.774178743E0
2.603686536E1,-6.617052078E0,-7.215556622E0,3.540181160E0
2.605815469E1,-7.473981380E0,-9.372686386E0,4.378267288E0
2.607944401E1,-9.109176636E0,-8.798110008E0,6.906284332E0
2.610073328E1,-9.259924889E0,-7.806882858E0,5.443671703E0
2.612202260E1,-1.021286583E1,-7.234699249E0,4.720440865E0
2.614331188E1,-9.990333557E0,-8.642276764E0,3.310470104E0
2.616460120E1,-9.901799202E0,-1.095254707E1,3.178864956E0
2.618589047E1,-8.905786514E0,-1.243220901E1,-3.406781256E-1
2.620717979E1,-7.466803074E0,-1.149123192E1,1.689631939E0
2.622846906E1,-8.956035614E0,-1.046201897E1,1.565205097E0
2.624975839E1,-9.202496529E0,-1.049073315E1,1.261017561E0
2.627104766E1,-5.204389095E0,-1.119452190E1,5.383552074E0
2.629233698E1,-3.258127213E0,-1.007886791E1,-8.147560954E-1
2.631362625E1,-1.445564032E0,-5.453541756E0,-1.396511078E0
2.633491557E1,2.497508526E0,-1.881356835E0,1.081555843E0
2.635620484E1,1.826920033E0,3.451646566E-1,-6.014958024E-1
2.637749417E1,4.661517620E0,-1.364207983E0,1.764706671E-1
2.639878344E1,4.714458942E0,-2.073081732E0,8.793623000E-2
2.642007276E1,2.315355062E0,-1.993819475E0,-7.187440991E-1
2.644136208E1,1.132702470E0,-3.152543783E0,1.406979680E0
2.646265135E1,-6.077769399E-1,-5.127819061E0,1.703988791E0
2.648394068E1,-2.068295956E0,-8.960822105E0,1.902593136E0
2.650522995E1,-3.523730516E0,-1.345454216E1,3.226721287E0
2.652651927E1,-8.084450722E0,-1.952603149E1,6.458527565E0
2.654780854E1,-1.772303963E1,-2.070389748E1,5.572285652E-1
2.656909786E1,-1.320538998E1,-1.345454216E1,3.217149973E0
2.659038714E1,-1.128784180E1,-1.085204887E1,9.676275253E0
2.661167646E1,-9.396614075E0,-9.975976944E0,4.241577148E0
2.663296573E1,-1.163510036E1,-1.053858948E1,5.522634506E0
2.665425505E1,-1.451755428E1,-9.343972206E0,-1.398903966E0
2.667554432E1,-1.067498016E1,-6.576374054E0,1.995913148E0
2.669683365E1,-9.750752449E0,-4.572384834E0,5.390730381E0
2.671812292E1,-1.048833942E1,-6.480361938E0,5.431707382E0
2.673941224E1,-1.133809090E1,-8.793324471E0,5.910272121E0
2.676070151E1,-1.018175983E1,-8.522636414E0,2.869891644E0
2.678199083E1,-8.819644928E0,-9.621540070E0,1.916949987E0
2.680328010E1,-5.127819061E0,-1.225753307E1,4.450051785E0
2.682456938E1,-3.274876833E0,-1.373689556E1,2.967997313E0
2.684585870E1,-6.298507214E0,-1.239153099E1,8.682954907E-1
2.686714797E1,-1.114427280E1,-9.547362328E0,3.296113312E-1
2.688843729E1,-1.071565819E1,-9.003892899E0,2.089532375E0
2.690972656E1,-1.072522926E1,-8.991928101E0,3.343969584E0
2.693101588E1,-7.117451191E0,-1.011476040E1,3.082852840E0
2.695230516E1,-3.404089212E0,-9.897013664E0,1.110269666E0
2.697359448E1,-1.811964989E0,-6.119045734E0,-2.928515911E0
2.699488375E1,6.033502102E0,-2.628515720E0,1.907378793E0
2.701617307E1,4.446163654E0,-9.044869542E-1,-2.665305376E0
2.703746234E1,4.015156269E0,-1.645065658E-2,1.217946768E0
2.705875161E1,1.384247899E0,-2.999403238E0,1.597209126E-1
2.708004094E1,3.834498227E-1,-4.272983074E0,-4.172484577E-1
2.710133021E1,7.567301393E-1,-5.194818020E0,2.343171597E0
2.712261953E1,-5.647061467E-1,-5.700002670E0,2.161317110E0
2.714390880E1,-3.023331404E0,-6.827620506E0,2.812463999E0
2.716519813E1,-5.862714767E0,-9.300602913E0,4.007080555E0
2.718648740E1,-7.579265594E0,-1.367946815E1,3.425325632E0
2.720777667E1,-1.716999817E1,-2.109153557E1,3.894618034E0
2.722906599E1,-1.495095444E1,-1.750289917E1,1.914557219E0
2.725035526E1,-1.027747250E1,-1.181934738E1,5.199304581E0
2.727164458E1,-1.037557793E1,-8.412566185E0,4.753940582E0
2.729293385E1,-1.448644733E1,-7.983952045E0,6.755536556E0
2.731422312E1,-1.410090351E1,-8.247461319E0,4.280161560E-1
2.733551245E1,-8.280961037E0,-6.880262375E0,3.667000771E0
2.735680172E1,-6.291328907E0,-6.841977119E0,7.630113363E-1
2.737809104E1,-5.393422127E0,-9.832108498E0,4.849952221E0
2.739938031E1,-6.684051037E0,-1.020329475E1,6.554539204E0
2.742066958E1,-7.605587006E0,-8.810073853E0,3.525824070E0
2.744195891E1,-7.749455452E0,-8.312067986E0,5.472385406E0
2.746324818E1,-7.562515736E0,-9.559326172E0,4.378267288E0
2.748453750E1,-7.766204834E0,-1.132134151E1,2.525026083E0
2.750582677E1,-1.023200893E1,-1.166860008E1,7.654041648E-1
2.752711604E1,-1.284407330E1,-1.138834000E1,2.151745796E0
2.754840536E1,-8.422137260E0,-1.129502010E1,1.668096542E0
2.756969464E1,-7.406982422E0,-1.112512970E1,1.335195065E0
2.759098396E1,-4.529314041E0,-1.084008503E1,2.678465843E0
2.761227323E1,-4.155734539E0,-9.482755661E0,-8.913264424E-2
2.763356250E1,-2.326720953E0,-5.862714767E0,-1.867897153E0
2.765485182E1,3.778266907E0,-3.040081263E0,8.156534433E-1
2.767614109E1,2.071287155E0,-1.053141117E0,1.237089276E0
2.769743036E1,2.810968399E0,-4.115654826E-1,8.156534433E-1
2.771871969E1,2.037787676E0,-3.837489367E0,9.762716293E-1
2.774000896E1,3.562613726E0,-4.349852562E0,-1.394118309E0
2.776129828E1,2.684148788E0,-3.035295486E0,-3.287140131E-1
2.778258755E1,9.149555564E-1,-2.908475876E0,2.307279348E0
2.780387682E1,-1.148854017E0,-5.508576870E0,1.246660590E0
2.782516615E1,-4.922036171E0,-1.061994553E1,4.328018188E0
2.784645542E1,-8.668598175E0,-1.840319824E1,5.165804863E0
2.786774469E1,-1.801765633E1,-2.474746895E1,2.584846735E0
2.788903401E1,-1.431386471E1,-1.617667770E1,3.415754318E0
2.791032328E1,-1.449123287E1,-9.762716293E0,7.121937275E0
2.793161255E1,-1.279143143E1,-7.533802032E0,4.299304008E0
2.795290188E1,-1.223839092E1,-6.528517246E0,7.440182686E0
2.797419115E1,-1.135244751E1,-6.317649841E0,1.404586911E0
2.799548042E1,-8.515457153E0,-5.604289532E0,-1.379761338E0
2.801676974E1,-6.545267105E0,-4.464707851E0,3.387040377E0
2.803805901E1,-7.945666790E0,-7.512266636E0,3.408575773E0
2.805934828E1,-1.227428246E1,-1.099083233E1,3.885046721E0
2.808063760E1,-1.087358475E1,-1.164227867E1,2.829213619E0
2.810192688E1,-6.071189404E0,-1.078983593E1,5.448457241E0
2.812321615E1,-3.200699329E0,-1.026072216E1,4.943272591E0
2.814450547E1,-3.188735247E0,-9.899406433E0,2.862713099E0
2.816579474E1,-6.569195271E0,-1.132851982E1,7.582256794E-1
2.818708401E1,-1.171167088E1,-1.075394344E1,3.930510283E0
2.820837328E1,-1.380868053E1,-9.626325607E0,9.657133102E0
2.822966260E1,-9.310173988E0,-9.841679573E0,-2.306082845E-1
2.825095188E1,-5.963512421E0,-1.018175983E1,1.610668778E0
2.827224115E1,-4.316352844E0,-9.190532684E0,1.732702732E0
2.829353047E1,-4.802095890E0,-6.083153248E0,-4.207180500E0
2.831481974E1,4.384847581E-1,-3.210270643E0,-1.733899117E0
2.833610901E1,4.134797573E0,-2.240579367E0,-3.299702406E0
2.835739833E1,4.089334011E0,1.664208174E0,-2.119442701E0
2.837868760E1,2.049751759E0,-2.570788860E0,1.217946768E0
2.839997688E1,1.372283816E0,-4.330709934E0,1.553241014E0
2.842126615E1,1.144666553E0,-3.633800268E0,2.211566210E0
2.844255547E1,-4.187439680E-1,-3.418446302E0,1.007378340E0
2.846384474E1,-1.572682738E0,-5.118247509E0,3.556930780E0
2.848513401E1,-4.050450325E0,-7.931309700E0,3.308077335E0
2.850642328E1,-5.010570526E0,-1.271486092E1,5.297410011E0
2.852771260E1,-1.616471291E1,-2.247309113E1,6.362814426E0
2.854900188E1,-1.527159214E1,-1.809183311E1,1.311266780E0
2.857029115E1,-1.193181038E1,-1.174756241E1,5.383552074E0
2.859158042E1,-1.003818989E1,-8.216354370E0,4.107579231E0
2.861286974E1,-7.799704552E0,-6.099903107E0,4.507479668E0
2.863415901E1,-7.869096279E0,-7.969594955E0,5.338088036E0
2.865544828E1,-1.276511097E1,-1.136919785E1,9.978070259E-1
2.867673755E1,-1.400997639E1,-1.055055332E1,1.632204175E0
2.869802688E1,-9.449256897E0,-8.304888725E0,5.419743061E0
2.871931615E1,-1.046919727E1,-8.450851440E0,4.904987335E0
2.874060542E1,-1.017936707E1,-8.651848793E0,4.679762840E0
2.876189469E1,-7.371089935E0,-9.207282066E0,3.315255880E0
2.878318401E1,-6.858726978E0,-9.152247429E0,3.822833300E0
2.880447328E1,-6.727121830E0,-1.036839962E1,3.073281527E0
2.882576255E1,-7.074080944E0,-1.152712440E1,1.967199326E0
2.884705182E1,-1.108923721E1,-1.102223873E1,-1.319641709E0
2.886834109E1,-1.431386471E1,-9.652647018E0,1.028913736E0
2.888963042E1,-1.068933678E1,-1.081854916E1,1.330409408E0
2.891091969E1,-1.022483063E1,-9.923335075E0,2.936890602E0
2.893220896E1,-4.744668007E0,-1.044766140E1,4.495515525E-1
2.895349823E1,-2.470290184E0,-8.333602905E0,-1.200000525E0
2.897478755E1,4.453341961E0,-5.616253853E0,-2.088335991E0
2.899607682E1,5.159523964E0,-1.395314693E0,-5.081757307E-1
2.901736609E1,2.782254457E0,-4.546363056E-1,-1.288534999E0
2.903865536E1,5.294119939E-2,-4.775774956E0,8.060821295E-1
2.905994464E1,3.483650684E0,-5.714359760E0,3.272184849E0
2.908123396E1,1.817348838E0,-4.845465660E0,1.127019525E0
2.910252323E1,1.642672777E0,-3.638586044E0,1.694417477E0
2.912381250E1,4.169493318E-1,-4.117449760E0,7.127620578E-1
2.914510177E1,-2.467897415E0,-6.794120789E0,1.217946768E0
2.916639104E1,-5.235496044E0,-1.141705418E1,5.283053398E0
2.918768036E1,-7.373483181E0,-1.653081512E1,2.350350142E0
2.920896964E1,-1.951406670E1,-2.247548485E1,3.329612732E0
2.923025891E1,-1.338754368E1,-1.461326694E1,-2.641077936E-1
2.925154818E1,-1.153430271E1,-1.025115108E1,5.402993679E0
2.927283745E1,-1.184327602E1,-9.159425735E0,8.000402451E0
2.929412672E1,-1.452951813E1,-1.013150978E1,4.440480709E0
2.931541604E1,-1.229103279E1,-8.862715721E0,1.160519004E0
2.933670531E1,-7.047760010E0,-6.997510910E0,3.425325632E0
2.935799458E1,-6.013761520E0,-6.911369324E0,2.036890268E0
2.937928385E1,-7.490731239E0,-8.901000977E0,4.586442947E0
2.940057312E1,-8.211568832E0,-9.944869995E0,4.399802685E0
2.942186245E1,-9.602396965E0,-9.056534767E0,3.135494947E0
2.944315172E1,-9.444471359E0,-9.865608215E0,4.869094849E0
2.946444099E1,-8.932107925E0,-1.221924782E1,5.529813290E0
2.948573026E1,-9.487542152E0,-1.232931805E1,2.778964281E0
2.950701953E1,-1.163510036E1,-1.082812023E1,1.759023786E0
2.952830880E1,-7.718348503E0,-9.781859398E0,1.486241937E0
2.954959807E1,-4.804488659E0,-8.278568268E0,2.941676378E0
2.957088734E1,-6.997510910E0,-7.806882858E0,9.978070259E-1
2.959217667E1,-7.074080944E0,-9.195318222E0,-1.209571838E0
2.961346594E1,-6.968796730E0,-9.638289452E0,2.560918331E0
2.963475521E1,-4.177269936E0,-9.226425171E0,1.438086390E0
2.965604448E1,-2.350649118E0,-5.566004753E0,9.906286001E-1
2.967733375E1,8.072785139E-1,-4.117449760E0,1.507777333E0
2.969862302E1,1.015454054E0,-3.952344894E0,-1.283749342E0
2.971991229E1,3.869194269E0,-3.902095556E0,1.201196909E0
2.974120161E1,4.685445786E0,-1.373779297E0,-7.139584422E-1
2.976249089E1,4.417449474E0,-1.097707376E-1,-2.004587173E0
2.978378016E1,4.249952316E0,3.379862010E-2,2.221137524E0
2.980506943E1,-2.623729944E0,-9.239286184E-1,1.883450508E0
2.982635870E1,-2.345863581E0,-6.272186279E0,2.558525562E0
2.984764797E1,-4.558028221E0,-1.283689499E1,3.609572887E0
2.986893724E1,-7.646564007E0,-1.791476440E1,3.528217077E0
2.989022651E1,-1.642792320E1,-2.203251266E1,4.768297195E0
2.991151578E1,-1.409372520E1,-1.638245964E1,2.948854923E0
2.993280510E1,-1.321017551E1,-1.159681511E1,4.572085857E0
2.995409438E1,-1.011715317E1,-9.678967476E0,4.105186462E0
2.997538365E1,-8.304888725E0,-1.065344429E1,8.136793137E0
2.999667292E1,-1.125912762E1,-1.043300629E1,2.182852507E0
3.001796219E1,-1.065822983E1,-7.435696602E0,3.056531906E0
3.003925146E1,-9.451649666E0,-5.453541756E0,4.505086899E0
3.006054073E1,-9.712467194E0,-6.176473618E0,4.083651066E0
3.008183000E1,-1.018415260E1,-8.082057953E0,4.502694130E0
3.010311927E1,-1.122323513E1,-8.991928101E0,4.943272591E0
3.012440854E1,-1.103420258E1,-1.036839962E1,3.885046721E0
3.014569781E1,-9.810572624E0,-1.192941761E1,2.975175858E0
3.016698708E1,-9.549755096E0,-1.314796257E1,-9.750752449E-1
3.018827641E1,-7.143772125E0,-1.374646664E1,-1.680957973E-1
3.020956563E1,-7.725526810E0,-1.277468204E1,3.284149170E0
3.023085495E1,-1.019611645E1,-1.074437141E1,2.697608471E0
3.025214422E1,-7.294519901E0,-9.856036186E0,1.830808401E0
3.027343349E1,-7.074080944E0,-7.430910587E0,1.179661512E0
3.029472276E1,-5.936892033E0,-7.054938316E0,2.027318954E0
3.031601203E1,-3.200699329E0,-7.902595997E0,1.541276932E0
3.033730130E1,-2.077867270E0,-6.832406044E0,-5.880660534E0
3.035859057E1,4.192524433E0,-5.161318302E0,1.158126116E0
3.037987984E1,4.893920422E0,-1.048355460E0,1.553241014E0
3.040116911E1,1.249950767E0,1.410568953E0,3.363112211E0
3.042245839E1,4.935196638E-1,-3.495016575E0,2.022234201E0
3.044374766E1,1.920539260E0,-5.178068161E0,1.421336651E0
3.046503693E1,-2.123630047E-2,-4.950749874E0,4.854438901E-1
3.048632620E1,-4.067798555E-1,-6.233901024E0,2.601895571E0
3.050761547E1,-2.180758715E0,-8.632705688E0,1.960020900E0
3.052890482E1,-4.222733974E0,-1.208255768E1,3.669393539E0
3.055019409E1,-6.288936138E0,-1.558535099E1,5.711667538E0
3.057148336E1,-1.448644733E1,-1.758425522E1,2.869891644E0
3.059277263E1,-1.268584824E1,-1.319103336E1,2.304886341E0
3.061406191E1,-1.293021584E1,-1.019372368E1,3.782155275E0
3.063535118E1,-1.220010567E1,-9.887442589E0,2.414956331E0
3.065664045E1,-8.288139343E0,-1.279860973E1,5.613562107E0
3.067792972E1,-1.012672424E1,-1.381855106E1,5.122734070E0
3.069921899E1,-1.310010624E1,-8.740383148E0,4.083651066E0
3.072050826E1,-8.249854088E0,-4.852644444E0,2.254637241E0
3.074179753E1,-8.429315567E0,-4.692026138E0,3.042174816E0
3.076308680E1,-1.064626598E1,-9.899406433E0,4.732405186E0
3.078437607E1,-1.237238884E1,-1.029422188E1,7.248756886E0
3.080566534E1,-1.055773163E1,-9.956833839E0,4.679762840E0
3.082695461E1,-8.819644928E0,-9.358329773E0,2.967997313E0
3.084824388E1,-5.467898846E0,-9.384650230E0,6.840481758E-1
3.086953316E1,-4.732704163E0,-9.741181374E0,9.834501147E-1
3.089082243E1,-5.881857395E0,-8.697312355E0,2.292922258E0
3.091211170E1,-7.660920620E0,-9.262317657E0,3.727120399E0
3.093340097E1,-1.160160065E1,-1.060080242E1,-3.888336942E-2
3.095469024E1,-8.225926399E0,-9.542576790E0,3.221935749E0
3.097597951E1,-9.274281502E0,-7.615158081E0,3.980759621E0
3.099726883E1,-8.221140862E0,-6.897012234E0,5.977570057E0
3.101855810E1,-6.870691299E0,-7.677670479E0,-9.702895880E-1
3.103984737E1,-3.873381615E0,-7.878667831E0,-4.458426952E0
3.106113664E1,3.840480328E0,-5.585147381E0,1.028913736E0
3.108242591E1,4.869992256E0,-1.814357758E0,-2.172084808E0
3.110371519E1,4.039084435E0,4.815555736E-2,4.450051785E0
3.112500446E1,2.300997972E0,-3.167199850E0,3.133102179E0
3.114629373E1,2.894717216E0,-3.645764351E0,1.663310885E0
3.116758300E1,9.269196987E-1,-3.270091295E0,7.366902828E-1
3.118887227E1,-2.041975021E0,-3.432803154E0,1.756630898E0
3.121016154E1,-5.676074505E0,-5.865107536E0,3.897010803E0
3.123145081E1,-6.841977119E0,-9.659825325E0,3.516252756E0
3.125274008E1,-7.842775345E0,-1.332532978E1,2.041675806E0
3.127402935E1,-1.637288857E1,-1.309531975E1,2.680858612E0
3.129531862E1,-1.264517021E1,-1.065105152E1,2.979961395E0
3.131660784E1,-1.028465080E1,-1.189591789E1,6.779464722E0
3.133789711E1,-9.087641716E0,-1.312164116E1,6.334100723E0
3.135918638E1,-8.582456589E0,-1.069412231E1,1.701596022E0
3.138047565E1,-6.080760479E0,-9.032606125E0,3.171686411E0
3.140176492E1,-3.593122244E0,-8.218747139E0,2.735893488E0
3.142305420E1,-5.367101192E0,-7.430910587E0,3.705884218E-1
3.144434347E1,-7.131807804E0,-7.339983463E0,2.489133835E0
3.146563274E1,-9.664610863E0,-7.469195843E0,3.418147087E0
3.148692201E1,-1.005254745E1,-7.414160728E0,4.521836758E0
3.150821128E1,-1.213549900E1,-9.652647018E0,4.454837322E0
3.152950055E1,-1.425643730E1,-1.256381416E1,4.313661098E0
3.155078982E1,-1.178106213E1,-1.116341496E1,3.537788391E0
3.157207904E1,-9.034998894E0,-7.751848221E0,3.664607763E0
3.159336831E1,-6.995117664E0,-6.257829189E0,4.356731892E0
3.161465758E1,-6.059225082E0,-6.978368282E0,1.596311808E0
3.163594685E1,-6.832406044E0,-8.141878128E0,-1.092323542E0
3.165723612E1,-9.317352295E0,-9.824930191E0,1.213161111E0
3.167852539E1,-8.278568268E0,-1.224317646E1,4.756333351E0
3.169981466E1,-6.451648235E0,-1.039232826E1,3.770191193E0
3.172110394E1,-7.083951473E0,-8.752346992E0,2.563311338E0
3.174239321E1,-7.019046307E0,-7.509873867E0,-2.282154560E-1
3.176368242E1,-3.255734205E0,-5.482255936E0,1.716850251E-1
3.178497170E1,-3.320041299E-2,-4.117449760E0,1.464407444E0
3.180626097E1,1.771885157E0,-2.374577284E0,6.601199508E-1
3.182755024E1,4.289134443E-1,-1.431207061E0,9.332008362E-1
3.184883951E1,2.243570328E0,-2.525325298E0,5.261218548E-1
3.187012878E1,2.729612350E0,-1.484148264E0,-7.115656137E-1
3.189141805E1,5.365904570E-1,-6.987041831E-1,1.052842021E0
3.191270732E1,-3.114258766E0,-1.752144337E0,2.633002281E0
3.193399659E1,-4.385744572E0,-4.838287354E0,3.212364435E0
3.195528586E1,-6.035296917E0,-8.273782730E0,2.273779631E0
3.197657508E1,-7.002296448E0,-1.145773220E1,2.872284412E0
3.199786435E1,-8.192127228E0,-1.338754368E1,2.268994093E0
3.201915362E1,-1.567867088E1,-1.497009659E1,4.732405186E0
3.204044289E1,-1.286800194E1,-1.285603809E1,2.070389748E0
3.206173216E1,-1.083290672E1,-1.073001480E1,3.061317444E0
3.208302144E1,-9.080462456E0,-8.826823235E0,3.454039574E0
3.210431065E1,-8.754739761E0,-9.171390533E0,6.226423740E0
3.212559992E1,-1.127348518E1,-8.819644928E0,4.414159775E0
3.214688920E1,-1.112991524E1,-8.132307053E0,1.591526151E0
3.216817847E1,-7.610372543E0,-7.428517818E0,3.920938969E0
3.218946774E1,-5.302495003E0,-8.184948921E0,2.455634356E0
3.221075701E1,-6.968796730E0,-9.176176071E0,3.116352320E0
3.223204628E1,-7.438089371E0,-8.979964256E0,4.179363728E0
3.225333550E1,-8.089236259E0,-8.149056435E0,4.016652107E0
3.227462477E1,-9.247960091E0,-7.943274021E0,3.763012648E0
3.229591404E1,-9.736394882E0,-8.438887596E0,3.513859987E0
3.231720331E1,-9.363115311E0,-8.769395828E0,1.756630898E0
3.233849258E1,-8.247461319E0,-8.776574135E0,2.058425665E0
3.235978180E1,-8.618349075E0,-8.582456589E0,1.869093537E0
3.238107107E1,-1.043061256E1,-8.812466621E0,1.715952992E0
3.240236034E1,-9.578469276E0,-9.291030884E0,2.209173441E0
3.242364961E1,-7.612765312E0,-8.319246292E0,2.056032896E0
3.244493888E1,-7.308876991E0,-8.115556717E0,1.644168258E0
3.246622815E1,-7.213163853E0,-8.934500694E0,-4.770690203E-1
3.248751737E1,-1.852642894E0,-8.996713638E0,8.554340899E-2
3.250880664E1,1.130309582E0,-4.615455627E0,-8.195417374E-2
3.253009591E1,1.398604870E0,-1.301994562E0,1.749452472E0
3.255138518E1,5.126622319E-1,-1.479362607E0,9.738788009E-1
3.257267446E1,2.025823355E0,-3.902095556E0,2.668894529E0
3.259396367E1,1.585245013E0,-2.994617462E0,1.107876897E0
3.261525294E1,1.127916813E0,-2.664407969E0,8.395816684E-1
3.263654222E1,-1.010070205E0,-2.685943365E0,1.735095501E0
3.265783149E1,-2.108973980E0,-4.744668007E0,3.288934708E0
3.267912076E1,-4.107878208E0,-7.818847179E0,2.019841433E0
3.270040998E1,-6.607480526E0,-1.180259800E1,2.960819006E0
3.272169925E1,-1.217378426E1,-1.668425560E1,3.937688828E0
3.274298852E1,-1.592273903E1,-1.440987682E1,1.339980721E0
3.276427779E1,-1.384247875E1,-1.136201954E1,1.239482164E0
3.278556706E1,-1.274357510E1,-8.627920151E0,4.287340164E0
3.280685628E1,-1.029900742E1,-8.321639061E0,4.691727161E0
3.282814555E1,-8.381459236E0,-1.036122131E1,5.117948532E0
3.284943482E1,-9.410971642E0,-1.051226807E1,3.863511324E0
3.287072409E1,-9.346364975E0,-9.025427818E0,3.813261986E0
3.289201331E1,-6.602694988E0,-7.675277710E0,2.012662888E0
3.291330258E1,-3.935595036E0,-7.172485828E0,2.970390320E0
3.293459185E1,-7.337590694E0,-9.801001549E0,5.838487148E0
3.295588112E1,-8.455636978E0,-9.379864693E0,3.918546200E0
3.297717039E1,-1.002144051E1,-8.304888725E0,3.480360508E0
3.299845961E1,-1.054337502E1,-8.211568832E0,3.255435228E0
3.301974888E1,-9.552147865E0,-8.402995110E0,4.184149265E0
3.304103815E1,-7.450053215E0,-8.431708336E0,3.940081596E0
3.306232742E1,-7.210771084E0,-8.043772697E0,1.155733347E0
3.308361664E1,-9.396614075E0,-7.502695560E0,-4.483551383E-1
3.310490591E1,-1.078744221E1,-7.854739666E0,2.288136721E0
3.312619518E1,-9.226425171E0,-8.663812637E0,3.489931822E0
3.314748446E1,-8.228319168E0,-8.247461319E0,2.733500719E0
3.316877367E1,-8.024629593E0,-7.845168114E0,3.248256683E0
3.319006294E1,-9.195318222E0,-8.431708336E0,6.457630396E-1
3.321135222E1,-4.294817448E0,-8.860322952E0,1.818844318E0
3.323264149E1,1.439282775E0,-6.734300137E0,3.032603502E0
3.325393071E1,2.626721144E0,-1.673181176E0,4.686941206E-1
3.327521998E1,1.113559842E0,8.694919348E-1,1.823629975E0
3.329650925E1,9.891330600E-1,-1.388136268E0,1.538884044E0
3.331779852E1,1.647458434E0,-2.678765059E0,8.443672657E-1
3.333908774E1,4.767699242E-1,-1.960319996E0,1.569990754E0
3.336037701E1,-1.771286964E0,-2.070688963E0,2.814856768E0
3.338166628E1,-2.939582586E0,-3.741776466E0,3.387040377E0
3.340295555E1,-3.940380573E0,-6.856334209E0,2.865106106E0
3.342424477E1,-5.585147381E0,-1.057926750E1,1.155733347E0
3.344553404E1,-5.568397522E0,-1.279382420E1,3.343969584E0
3.346682331E1,-1.030140018E1,-1.597298813E1,2.800499916E0
3.348811258E1,-1.369621754E1,-1.371775341E1,2.374278307E0
3.350940180E1,-9.832108498E0,-1.079222870E1,4.785047054E0
3.353069107E1,-9.109176636E0,-9.745966911E0,2.936890602E0
3.355198034E1,-8.889037132E0,-1.202513027E1,2.017448664E0
3.357326961E1,-1.191266727E1,-1.369621754E1,7.141079903E0
3.359455883E1,-1.427318668E1,-1.009322548E1,5.113162994E0
3.361584810E1,-1.437129307E1,-6.116652966E0,3.990330935E0
3.363713737E1,-1.033250713E1,-3.993022680E0,5.065306664E0
3.365842659E1,-8.675776482E0,-7.809275627E0,6.525825500E0
3.367971586E1,-7.610372543E0,-1.012433147E1,4.083651066E0
3.370100513E1,-5.745466232E0,-1.016740227E1,3.525824070E0
3.372229435E1,-3.856631994E0,-9.978369713E0,1.888236165E0
3.374358362E1,-4.660919189E0,-9.204889297E0,1.780559182E0
3.376487289E1,-6.660122871E0,-7.675277710E0,1.969592094E0
3.378616216E1,-8.510671616E0,-7.004689217E0,2.767000198E0
3.380745138E1,-1.038036346E1,-6.899405003E0,2.120639086E0
3.382874065E1,-1.280578899E1,-6.832406044E0,2.709572554E0
3.385002992E1,-1.373928833E1,-7.050152779E0,4.347160339E0
3.387131914E1,-8.529814720E0,-8.065307617E0,3.954438448E0
3.389260841E1,-6.506682873E0,-8.680562019E0,2.503490686E0
3.391389768E1,-7.464410305E0,-9.092427254E0,8.539385796E-1
3.393518696E1,-3.605086327E0,-9.930513382E0,1.311266780E0
3.395647617E1,2.473580360E0,-8.141878128E0,1.680060625E0
3.397776544E1,2.012962103E-1,-1.026820064E0,1.572383523E0
3.399905472E1,-3.756731451E-1,2.877369225E-1,9.906286001E-1
3.402034394E1,-8.111668825E-1,-3.329911709E0,1.713560104E0
3.404163321E1,-1.380957723E0,-3.499802113E0,1.615454435E0
3.406292248E1,-9.272187948E-3,-2.453540564E0,2.216351986E0
3.408421175E1,-3.323032558E-1,-1.316351533E0,2.599502802E0
3.410550097E1,-9.933205247E-1,-1.654038668E0,1.782951951E0
3.412679024E1,-1.534397483E0,-3.921238184E0,1.191625714E0
3.414807951E1,-2.621337175E0,-7.313662529E0,1.546062589E0
3.416936873E1,-4.715954304E0,-1.147687435E1,5.836094379E0
3.419065800E1,-1.109641552E1,-1.792194176E1,4.069293976E0
3.421194727E1,-1.598495293E1,-1.935344887E1,1.572383523E0
3.423323649E1,-1.052901745E1,-1.418225956E1,4.138685703E0
3.425452576E1,-1.115384388E1,-1.032054329E1,3.767798424E0
3.427581503E1,-1.294696522E1,-7.928916931E0,5.735595703E0
3.429710425E1,-1.546301842E1,-7.210771084E0,6.672984362E-1
3.431839352E1,-9.276674271E0,-5.865107536E0,2.891427040E0
3.433968279E1,-5.862714767E0,-5.067998409E0,6.793821812E0
3.436097201E1,-9.224032402E0,-8.891429901E0,5.824130535E0
3.438226128E1,-9.118747711E0,-9.968798637E0,5.670989513E0
3.440355055E1,-8.654241562E0,-9.339186668E0,5.517848969E0
3.442483977E1,-8.355138779E0,-9.104391098E0,2.288136721E0
3.444612904E1,-7.076473713E0,-1.014586735E1,5.955137610E-1
3.446741831E1,-7.404589653E0,-9.468399048E0,3.008974493E-1
3.448870753E1,-7.392625332E0,-7.943274021E0,2.151745796E0
3.450999680E1,-8.386244774E0,-6.880262375E0,3.169293642E0
3.453128602E1,-9.195318222E0,-6.722336292E0,1.282552958E0
3.455257529E1,-1.001904774E1,-8.192127228E0,3.154936552E0
3.457386456E1,-6.265007973E0,-9.509077072E0,4.282554150E0
3.459515378E1,-9.765109062E0,-6.494719028E0,4.174578190E0
3.461644305E1,-1.045962620E1,-5.776573181E0,1.912164450E0
3.463773232E1,-7.387839794E0,-7.517052174E0,2.886641502E0
3.465902154E1,-5.934499264E0,-8.747561455E0,1.153340459E0
3.468031081E1,-1.029212832E0,-8.347960472E0,-3.005086184E0
3.470160008E1,2.789433002E0,-4.368995190E0,1.251446247E0
3.472288930E1,8.838488460E-1,8.192426562E-1,2.481955290E0
3.474417857E1,4.049852192E-1,-1.349851131E0,2.163709879E0
3.476546784E1,1.271187067E-1,-4.246662140E0,1.282552958E0
3.478675706E1,-7.800601721E-1,-4.232305050E0,3.001496792E0
3.480804633E1,-1.074676514E0,-4.311567307E0,2.769393206E0
3.482933560E1,-2.319542408E0,-4.957928658E0,2.644966364E0
3.485062482E1,-3.617050648E0,-6.341578007E0,1.995913148E0
3.487191409E1,-6.145366669E0,-9.200103760E0,4.121936321E0
3.489320336E1,-9.087641716E0,-1.343061447E1,4.224827290E0
3.491449258E1,-1.198684502E1,-1.246331596E1,-1.171286702E0
3.493578185E1,-9.973584175E0,-1.042343426E1,2.745763958E-1
3.495707112E1,-1.150558853E1,-9.621540070E0,1.907378793E0
3.497836034E1,-1.156062317E1,-8.944071770E0,3.229114056E0
3.499964961E1,-9.183354378E0,-1.007168961E1,4.028615952E0
3.502093883E1,-7.854739666E0,-1.357418346E1,6.178566933E0
3.504222810E1,-9.492327690E0,-1.061037350E1,2.743072033E0
3.506351737E1,-8.072485924E0,-7.323233604E0,3.865904093E0
3.508480659E1,-6.684051037E0,-6.885047913E0,4.181756496E0
3.510609586E1,-7.641479015E0,-9.032606125E0,4.842773914E0
3.512738513E1,-7.842775345E0,-1.009322548E1,4.196113586E0
3.514867435E1,-7.816454411E0,-9.015856743E0,5.079663277E0
3.516996362E1,-6.377470493E0,-8.513064384E0,3.897010803E0
3.519125284E1,-6.329614162E0,-9.001500130E0,4.629513741E0
3.521254211E1,-8.493922234E0,-9.250352859E0,4.035794258E0
3.523383138E1,-1.033489990E1,-8.898608208E0,1.311266780E0
3.525512060E1,-1.168774223E1,-7.770990849E0,2.716751099E0
3.527640987E1,-1.135005474E1,-7.921738625E0,4.282554150E0
3.529769909E1,-1.049791145E1,-8.865108490E0,2.024626970E0
3.531898836E1,-9.516255379E0,-8.862715721E0,1.739881158E0
3.534027763E1,-7.162914753E0,-7.938488007E0,2.786142826E0
3.536156685E1,-5.352744102E0,-7.359126091E0,2.170888424E0
3.538285612E1,-2.376970291E0,-7.354340553E0,-2.401795626E0
3.540414539E1,1.520638824E0,-6.018547058E0,-1.097109199E0
3.542543461E1,3.227618694E0,-3.085544825E0,3.365504980E0
3.544672388E1,-1.077069283E0,-1.297209024E0,1.617847204E0
3.546801315E1,-2.769692183E0,-2.793620348E0,4.308875561E0
3.548930237E1,1.677966863E-1,-3.796811342E0,2.132603168E0
3.551059164E1,4.289134443E-1,-2.650051117E0,1.158126116E0
3.553188086E1,-4.277170449E-2,-1.989033818E0,1.567597985E0
3.555317013E1,-2.784049034E0,-2.606980324E0,1.701596022E0
3.557445940E1,-2.977867842E0,-5.340780258E0,2.802892685E0
3.559574862E1,-6.439683914E0,-7.622336388E0,1.194018483E0
3.561703789E1,-7.380661488E0,-1.236042404E1,2.623430967E0
3.563832711E1,-1.186959648E1,-1.505623817E1,9.332008362E-1
3.565961638E1,-1.219053364E1,-1.213789177E1,2.084746838E0
3.568090565E1,-1.169492054E1,-9.250352859E0,3.300898790E0
3.570219487E1,-1.214746284E1,-8.510671616E0,4.363910198E0
3.572348414E1,-1.061037350E1,-9.276674271E0,4.217648983E0
3.574477336E1,-8.917751312E0,-1.302114296E1,4.840381145E0
3.576606263E1,-9.221639633E0,-1.446491241E1,5.690132141E0
3.578735190E1,-9.554540634E0,-9.346364975E0,4.366302967E0
3.580864112E1,-7.840382576E0,-5.982655048E0,4.098007679E0
3.582993039E1,-5.408078194E0,-6.315257072E0,3.073281527E0
3.585121961E1,-6.746264458E0,-8.359924316E0,3.763012648E0
3.587250888E1,-7.138986588E0,-9.408578873E0,3.786941051E0
3.589379810E1,-7.622336388E0,-8.685347557E0,3.540181160E0
3.591508737E1,-6.688836575E0,-8.132307053E0,4.141078472E0
3.593637664E1,-5.692824364E0,-9.063713074E0,5.314159870E0
3.595766586E1,-8.685347557E0,-1.001665497E1,2.671287298E0
3.597895513E1,-1.170209885E1,-1.014347458E1,1.170090318E0
3.600024435E1,-1.434257889E1,-9.243174553E0,6.331707954E0
3.602153362E1,-9.836894035E0,-9.011071205E0,2.786142826E0
3.604282289E1,-6.059225082E0,-8.881858826E0,2.532204628E0
3.606411211E1,-6.238687038E0,-8.180163383E0,1.969592094E0
3.608540138E1,-5.664110184E0,-8.764310837E0,2.243271172E-1
3.610669060E1,-5.376672268E0,-9.075676918E0,-4.004986882E-1
3.612797987E1,-1.919641972E0,-6.542874336E0,1.296909928E0
3.614926914E1,-1.632503271E0,-1.014855862E0,2.087139606E0
3.617055836E1,-1.084247708E0,7.929216027E-1,3.329612732E0
3.619184763E1,-1.105783105E0,-2.575574398E0,4.351946115E-1
3.621313685E1,7.857431173E-1,-5.326423168E0,2.503490686E0
3.623442612E1,1.774278045E0,-3.121437073E0,4.830510616E-1
3.625571539E1,2.372782707E0,-1.000499010E0,7.606185079E-1
3.627700461E1,7.399803996E-1,-4.354937077E-1,1.775773525E0
3.629829388E1,-4.079164505E0,-2.319542408E0,2.855534792E0
3.631958310E1,-7.361518860E0,-7.701598644E0,3.964009762E0
3.634087237E1,-8.879466057E0,-1.356461239E1,3.257827997E0
3.636216159E1,-7.213163853E0,-1.469223022E1,3.260220766E0
3.638345086E1,-1.008126068E1,-1.299242878E1,3.327219963E0
3.640474013E1,-1.149841022E1,-1.253749371E1,3.406183004E0
3.642602935E1,-1.158724403E1,-1.256620693E1,4.107579231E0
3.644731862E1,-8.304888725E0,-1.076351452E1,2.917748213E0
3.646860784E1,-7.536194801E0,-9.961619377E0,4.914558411E0
3.648989711E1,-9.913763046E0,-9.760323524E0,6.185745716E0
3.651118638E1,-1.255663586E1,-8.824430466E0,3.269792080E0
3.653247560E1,-1.296610737E1,-6.908976078E0,2.005484581E0
3.655376487E1,-1.032293606E1,-5.034498692E0,2.896212816E0
3.657505409E1,-8.879466057E0,-6.267400742E0,4.708476543E0
3.659634336E1,-1.038514900E1,-8.764310837E0,3.961616993E0
3.661763258E1,-9.786644936E0,-9.358329773E0,3.118745327E0
3.663892185E1,-8.455636978E0,-9.128319740E0,3.504288673E0
3.666021107E1,-5.199603558E0,-1.032054329E1,3.049353361E0
3.668150034E1,-3.609872103E0,-1.088554859E1,3.415754318E0
3.670278961E1,-5.539683342E0,-1.001426220E1,1.701596022E0
3.672407883E1,-9.480362892E0,-8.771788597E0,-9.870393574E-2
3.674536810E1,-1.138355446E1,-7.277770042E0,3.470789194E0
3.676665732E1,-8.237890244E0,-7.057331085E0,2.759821892E0
3.678794659E1,-9.619147301E0,-8.460422516E0,3.681357622E0
3.680923581E1,-4.352245331E0,-1.060558796E1,4.758726060E-1
3.683052508E1,-7.083951473E0,-8.395816803E0,-1.298106313E0
3.685181430E1,-6.473183632E0,-6.889833927E0,2.759821892E0
3.687310357E1,-1.945963025E0,-6.643373013E0,8.554340899E-2
3.689439284E1,-1.036391258E0,-4.160520554E0,5.141577721E-1
3.691568206E1,1.982752681E0,-3.674478292E0,2.534597397E0
3.693697133E1,2.403889418E0,-3.439981699E0,2.230708838E0
3.695826055E1,7.994121552E0,-4.723132610E0,-6.311368942E0
3.697954982E1,5.389832854E-1,-1.723430514E0,9.786644578E-1
3.700083909E1,-1.876571178E0,-1.342672586E0,5.647061348E0
3.702212831E1,-5.465506077E0,-3.947559118E0,2.520240545E0
3.704341758E1,-6.605087757E0,-8.788538933E0,2.798106909E0
3.706470680E1,-6.942475796E0,-1.266431332E1,4.763511658E0
3.708599607E1,-7.943274021E0,-1.418225956E1,1.172483087E0
3.710728529E1,-8.807681084E0,-1.291825104E1,1.507777333E0
3.712857456E1,-9.200103760E0,-1.085683441E1,3.681357622E0
3.714986378E1,-1.026311588E1,-9.956833839E0,1.924128532E0
3.717115305E1,-9.576076508E0,-9.168996811E0,4.236791611E0
3.719244232E1,-1.144337559E1,-1.060798073E1,4.239184380E0
3.721373154E1,-1.131416321E1,-1.068933678E1,7.631608486E0
3.723502081E1,-1.071565819E1,-1.011476040E1,2.254637241E0
3.725631003E1,-1.142662525E1,-8.455636978E0,1.380658627E0
3.727759930E1,-8.740383148E0,-6.588337898E0,3.408575773E0
3.729888852E1,-6.865905285E0,-7.263412952E0,4.725226402E0
3.732017779E1,-7.129415035E0,-9.571290970E0,3.825226068E0
3.734146701E1,-5.805286884E0,-1.028225803E1,4.234398842E0
3.736275628E1,-6.312864304E0,-9.233603477E0,3.621536970E0
3.738404550E1,-7.493124008E0,-8.869894028E0,3.731905937E0
3.740533477E1,-8.845966339E0,-9.104391098E0,4.148257256E0
3.742662399E1,-9.161818504E0,-8.920144081E0,2.659323215E0
3.744791326E1,-9.183354378E0,-8.458029747E0,2.666501760E0
3.746920154E1,-9.446864128E0,-8.515457153E0,1.900200248E0
3.749049175E1,-8.388637543E0,-9.473184586E0,6.266204119E-1
3.751178102E1,-8.369495392E0,-8.936893463E0,2.343171597E0
3.753307024E1,-9.032606125E0,-7.919345856E0,2.556132793E0
3.755435951E1,-7.739883900E0,-8.204390526E0,2.235494614E0
3.757564873E1,-7.208378315E0,-8.999106407E0,-1.231107235E0
3.759693800E1,-4.799703121E0,-7.940881252E0,-5.273182988E-1
3.761822722E1,2.918645382E0,-4.617848396E0,2.479562521E0
3.763951649E1,2.176571369E0,-3.251247704E-1,1.091127157E0
3.766080576E1,1.592423439E0,-1.022034407E0,2.393420935E0
3.768209498E1,2.033001900E0,-4.182055950E0,1.648953915E0
3.770338420E1,1.056132078E0,-2.860619545E0,4.591228366E-1
3.772467347E1,-1.504487246E-1,-2.582752943E0,3.586242795E-1
3.774596274E1,-2.683550596E0,-3.835096598E0,3.360719442E0
3.776725196E1,-4.412065983E0,-7.119843960E0,2.889034271E0
3.778854123E1,-5.558825970E0,-1.089990520E1,3.930510283E0
3.780983044E1,-7.208378315E0,-1.276750374E1,5.192125797E0
3.783111972E1,-7.778169155E0,-1.223839092E1,3.353540897E0
3.785240894E1,-1.091665554E1,-1.143380356E1,2.469991207E0
3.787369821E1,-1.057208824E1,-1.123519993E1,7.893323898E-1
3.789498742E1,-1.111316586E1,-9.884750366E0,3.607180119E0
3.791627670E1,-1.130698395E1,-9.628718376E0,2.771785975E0
3.793756591E1,-1.088315582E1,-1.119930744E1,4.066901207E0
3.795885519E1,-9.904191971E0,-1.151515961E1,6.348457813E0
3.798014440E1,-1.008604622E1,-8.786145210E0,1.406979680E0
3.800143367E1,-9.822537422E0,-6.324828625E0,2.647359133E0
3.802272289E1,-8.240283012E0,-5.506184101E0,3.592823267E0
3.804401216E1,-5.800501347E0,-7.521838188E0,5.654240131E0
3.806530138E1,-7.014260292E0,-9.992726326E0,3.935296059E0
3.808659065E1,-8.603992462E0,-1.055773163E1,2.216351986E0
3.810787992E1,-8.513064384E0,-8.877073288E0,4.450051785E0
3.812916914E1,-7.885846138E0,-7.186842918E0,4.040580273E0
3.815045836E1,-8.745168686E0,-8.089236259E0,2.994318485E0
3.817174763E1,-9.305388451E0,-1.023918724E1,1.909771562E0
3.819303690E1,-9.343972206E0,-1.076112175E1,1.696810365E0
3.821432612E1,-9.317352295E0,-9.990333557E0,3.248256683E0
3.823561539E1,-7.395018578E0,-8.517850876E0,2.438884497E0
3.825690461E1,-7.406982422E0,-7.366304398E0,1.964806437E0
3.827819388E1,-7.433303356E0,-6.999903679E0,1.608275890E0
3.829948310E1,-6.987939358E0,-7.794919014E0,-1.061216831E0
3.832077237E1,-4.404887199E0,-9.092427254E0,3.097209692E0
3.834206159E1,1.390828192E-1,-7.548159122E0,-5.033900738E-1
3.836335086E1,8.383852243E-1,-2.906083107E0,2.170888424E0
3.838464008E1,6.131607890E-1,-3.442673683E-1,9.571290612E-1
3.840592935E1,-8.255237937E-1,-2.501396894E0,1.098305583E0
3.842721857E1,1.082453132E0,-3.775275946E0,8.204390407E-1
3.844850784E1,2.104786634E0,-3.629014730E0,2.032104731E0
3.846979706E1,8.670991063E-1,-3.087937593E0,1.330409408E0
3.849108633E1,-2.731407166E0,-2.595016241E0,3.032603502E0
3.851237555E1,-4.756632328E0,-5.053641319E0,3.973581076E0
3.853366482E1,-5.879464149E0,-9.312566757E0,2.024626970E0
3.855495404E1,-6.492326260E0,-1.357896900E1,3.830011845E0
3.857624331E1,-7.555337429E0,-1.512563038E1,3.765405416E0
3.859753253E1,-1.229342556E1,-1.510648727E1,2.886641502E0
3.861882180E1,-1.228146172E1,-1.306421375E1,2.402992249E0
3.864011102E1,-1.152473164E1,-1.032054329E1,2.580060959E0
3.866140029E1,-1.067258739E1,-8.991928101E0,3.171686411E0
3.868268951E1,-1.102223873E1,-9.235996246E0,5.003093243E0
3.870397878E1,-1.179063320E1,-9.707681656E0,4.035794258E0
3.872526800E1,-9.884750366E0,-7.926524162E0,2.527418852E0
3.874655727E1,-7.907381535E0,-5.613861084E0,2.278565407E0
3.876784649E1,-7.344769001E0,-5.764608860E0,3.772583961E0
3.878913576E1,-7.885846138E0,-9.710074425E0,3.094816923E0
3.881042498E1,-8.101200104E0,-1.086401272E1,4.416552544E0
3.883171425E1,-8.101200104E0,-9.884750366E0,4.926522732E0
3.885300347E1,-8.288139343E0,-8.680562019E0,3.985545158E0
3.887429274E1,-7.785347462E0,-8.529814720E0,2.462812662E0
3.889558196E1,-7.299305439E0,-8.209176064E0,3.822833300E0
3.891687117E1,-5.973083496E0,-8.527421951E0,2.402992249E0
3.893816044E1,-7.047760010E0,-8.570492744E0,6.640082598E-2
3.895944966E1,-1.077547836E1,-8.536993027E0,1.660917997E0
3.898073894E1,-1.038993549E1,-9.032606125E0,1.050449133E0
3.900202815E1,-8.850751877E0,-9.834501266E0,3.566502094E0
3.902331742E1,-8.034200668E0,-9.655039787E0,3.032603502E0
3.904460664E1,-8.098807335E0,-8.721240044E0,1.337587833E0
3.906589591E1,-3.351447105E0,-9.192925453E0,1.190429255E-1
3.908718513E1,8.165507019E-2,-6.420541286E0,-2.425723970E-1
3.910847440E1,1.659422517E0,-1.467099428E0,1.234696507E0
3.912976362E1,1.458425403E0,9.795617461E-1,1.517348647E0
3.915105289E1,-8.279166222E-1,-2.858226538E0,1.613061547E0
3.917234211E1,1.664208174E0,-4.400101662E0,1.354337573E0
3.919363138E1,1.017846942E0,-2.693121910E0,-9.391828626E-2
3.921492060E1,6.681957245E-1,-1.893320918E0,1.617847204E0
3.923620982E1,-2.595016241E0,-2.965903759E0,2.264208317E0
3.925749909E1,-6.219544411E0,-6.765407085E0,4.220041752E0
3.927878831E1,-6.880262375E0,-1.202273750E1,3.068495989E0
3.930007758E1,-5.575575829E0,-1.440509129E1,2.388635159E0
3.932136680E1,-7.615158081E0,-1.208495045E1,3.109174013E0
3.934265607E1,-1.115862942E1,-1.138834000E1,2.683251381E0
3.936394529E1,-1.206341553E1,-1.185763264E1,2.130210400E0
3.938523456E1,-1.146730328E1,-1.239392376E1,4.457230568E0
3.940652378E1,-1.021765137E1,-1.318385410E1,3.865904093E0
3.942781305E1,-9.537791252E0,-1.064626598E1,5.347659588E0
3.944910227E1,-1.127587795E1,-6.004190445E0,3.985545158E0
3.947039149E1,-9.451649666E0,-5.151747227E0,4.351946115E-1
3.949168076E1,-7.830811024E0,-5.154139996E0,5.859424472E-1
3.951296998E1,-8.817252159E0,-7.342376232E0,2.034497499E0
3.953425925E1,-1.013390255E1,-9.513862610E0,4.895416260E0
3.955554847E1,-1.025115108E1,-7.936095238E0,4.088436604E0
3.957683774E1,-9.458827972E0,-7.811668396E0,3.832404613E0
3.959812696E1,-7.363911629E0,-9.659825325E0,3.899403572E0
3.961941623E1,-4.711168766E0,-1.112512970E1,3.940081596E0
3.964070544E1,-4.270590305E0,-9.674181938E0,3.779762506E0
3.966199466E1,-5.688038349E0,-8.548956871E0,1.904985905E0
3.968328394E1,-8.877073288E0,-8.936893463E0,7.223333120E-1
3.970457315E1,-1.269302654E1,-9.415757179E0,4.155435562E0
3.972586242E1,-1.125673485E1,-9.250352859E0,3.643072367E0
3.974715164E1,-8.414958954E0,-9.731609344E0,1.682453394E0
3.976844091E1,-7.093522549E0,-9.432506561E0,1.715952992E0
3.978973013E1,-4.687240601E0,-9.257532120E0,1.823629975E0
3.981101935E1,-4.189234257E0,-7.814061642E0,7.223333120E-1
3.983230862E1,-9.143573642E-1,-5.276174068E0,1.573280841E-1
3.985359784E1,9.508479238E-1,-3.008974552E0,1.546062589E0
3.987488711E1,-3.541377485E-1,-1.464706540E0,2.369492531E0
3.989617633E1,1.175773263E0,-2.312364101E0,1.995913148E0
3.991746560E1,2.564507723E0,-2.748156786E0,9.188438654E-1
3.993875482E1,2.657827854E0,-1.862214208E0,1.812563092E-1
3.996004409E1,-9.541380405E-2,-1.809572101E0,3.634099364E-1
3.998133331E1,-3.439981699E0,-3.351447105E0,2.618645191E0
4.000262253E1,-4.467100620E0,-7.222734928E0,3.595216036E0
4.002391180E1,-5.879464149E0,-1.148883915E1,3.056531906E0
4.004520102E1,-7.438089371E0,-1.459651756E1,2.560918331E0
4.006649029E1,-1.151037407E1,-1.540559006E1,3.595216036E0
4.008777951E1,-1.322453213E1,-1.325593853E1,2.805285454E0
4.010906873E1,-1.037797070E1,-1.032293606E1,1.579562068E0
4.013035800E1,-1.029182911E1,-8.489136696E0,3.547359467E0
4.015164722E1,-9.856036186E0,-8.709276199E0,3.334398270E0
4.017293649E1,-9.302995682E0,-1.030618668E1,7.454539776E0
4.019422571E1,-1.101505947E1,-9.678967476E0,1.885843396E0
4.021551492E1,-8.798110008E0,-7.988737583E0,3.125923634E0
4.023680420E1,-7.656135082E0,-5.764608860E0,3.046960592E0
4.025809341E1,-1.036839962E1,-6.178866386E0,3.063710213E0
4.027938263E1,-1.247049427E1,-8.196912766E0,3.865904093E0
4.030067190E1,-1.008604622E1,-8.359924316E0,4.361517429E0
4.032196112E1,-6.399005890E0,-9.348757744E0,4.871487617E0
4.034325039E1,-4.620241642E0,-1.055533886E1,3.298506021E0
4.036453961E1,-4.402494431E0,-1.145055389E1,2.690429926E0
4.038582883E1,-5.060820103E0,-1.079222870E1,2.903391123E0
4.040711810E1,-7.737491131E0,-8.958429337E0,4.165007114E0
4.042840732E1,-1.055294609E1,-7.459624767E0,1.696810365E0
4.044969659E1,-1.107488060E1,-7.304090977E0,1.268195987E0
4.047098581E1,-8.288139343E0,-8.436494827E0,3.600001574E0
4.049227503E1,-8.644669533E0,-8.670990944E0,3.420539856E0
4.051356430E1,-8.285746574E0,-9.463613510E0,1.493420482E0
4.053485352E1,-5.640182018E0,-9.777072906E0,3.537788391E0
4.055614279E1,-3.487838030E0,-7.323233604E0,1.081555843E0
4.057743201E1,-1.038784146E0,-3.645764351E0,1.210768223E0
4.059872123E1,8.934201598E-1,-2.190330029E0,1.471885085E0
4.062001050E1,2.566900492E0,-2.195115566E0,1.569990754E0
4.064129972E1,1.166201949E0,-1.804786444E0,9.284151793E-1
4.066258894E1,1.838884234E0,-2.223829508E0,1.842772484E0
4.068387821E1,6.083751321E-1,-2.099402666E0,4.007977992E-2
4.070516742E1,-1.948355794E0,-1.972284079E0,1.160519004E0
4.072645670E1,-4.469493389E0,-3.638586044E0,4.936093807E0
4.074774591E1,-5.154139996E0,-7.311269760E0,3.066103220E0
4.076903513E1,-6.308078766E0,-1.097169018E1,2.149353027E0
4.079032440E1,-7.684848785E0,-1.373928833E1,2.702394009E0
4.081161362E1,-1.080419254E1,-1.416311741E1,2.551347256E0
4.083290284E1,-1.185763264E1,-1.316231918E1,1.337587833E0
4.085419211E1,-9.509077072E0,-9.987940788E0,2.678465843E0
4.087548133E1,-8.951250076E0,-9.039784431E0,3.269792080E0
4.089677055E1,-9.872786522E0,-1.027986526E1,4.071686745E0
4.091805982E1,-1.287757301E1,-1.044257736E1,5.721239090E0
4.093934904E1,-1.359571934E1,-7.802097321E0,-1.322034448E-1
4.096063826E1,-9.812965393E0,-5.417649746E0,2.824428082E0
4.098192753E1,-7.497909546E0,-5.158925533E0,4.428516388E0
4.100321675E1,-7.821239948E0,-8.977571487E0,4.818546772E0
4.102450597E1,-1.138594723E1,-1.395254898E1,5.239982605E0
4.104579524E1,-1.030857944E1,-1.872144508E1,1.651346684E0
4.106708446E1,-4.541278362E0,-1.199641609E1,7.049853802E0
4.108837367E1,-2.515753984E0,-6.317649841E0,2.711965322E0
4.110966295E1,-2.870190859E0,-2.712264538E0,1.971984982E0
4.113095216E1,-3.734597921E0,-2.570788860E0,1.708774447E0
4.115224138E1,-5.613861084E0,-3.097508907E0,2.450848579E0
4.117353065E1,-1.383290768E1,-4.294817448E0,8.962915421E0
4.119481987E1,-2.078046799E1,-1.145533943E1,5.513063431E0
4.121610909E1,-4.304389000E0,-1.803201294E1,6.649056077E-1
4.123739836E1,-3.875774384E0,-1.432343674E1,1.756630898E0
4.125868758E1,-1.354786301E1,-5.604289532E0,4.323232174E0
4.127997680E1,-3.305983543E0,-8.596813202E0,4.509872437E0
4.130126602E1,-5.838786125E0,-6.157330990E0,-9.870393574E-2
4.132255529E1,1.094417214E0,-7.205985546E0,-9.440582275E0
4.134384451E1,8.808279037E0,-1.067497969E0,-5.092823982E0
4.136513373E1,1.324457264E1,5.554638863E0,1.201286697E1
4.138642300E1,5.102694035E-1,3.509971619E0,-6.280261993E0
4.140771222E1,9.939187169E-1,-4.950749874E0,5.161019325E0
4.142900144E1,-7.627122104E-2,-5.300102234E0,-1.185643673E0
4.145029071E1,-3.176771164E0,-3.313162088E0,-1.879861236E0
4.147157992E1,-9.063713074E0,-2.764906645E0,4.234398842E0
4.149286914E1,-1.562124348E1,-4.057629108E0,6.525825500E0
4.151415841E1,-1.561167240E1,-1.165902805E1,2.438884497E0
4.153544763E1,-1.280818176E1,-1.867358780E1,-6.759724021E-2
4.155673685E1,-1.193659592E1,-2.274826622E1,5.043771267E0
4.157802612E1,-2.391327143E0,-1.002383327E1,5.220839977E0
4.159931534E1,-2.544467688E0,-3.880560160E0,6.433702111E-1
4.162060456E1,-3.952344894E0,-2.159223318E0,2.575275421E0
4.164189378E1,-4.855037212E0,-5.005784988E0,1.821237087E0
4.166318305E1,-8.110771179E0,-1.391426373E1,3.521038532E0
4.168447227E1,-1.421097374E1,-1.897299004E1,6.001498222E0
4.170576149E1,-1.239631653E1,-1.209930801E1,4.665405750E0
4.172705076E1,-9.243174553E0,-6.320042610E0,4.076472282E0
4.174833998E1,-6.092724800E0,-7.229913712E0,4.304089546E0
4.176962920E1,-4.036093712E0,-1.133091259E1,4.883451939E0
4.179091841E1,-4.981856823E0,-1.133569813E1,4.196113586E0
4.181220769E1,-7.660920620E0,-8.371888161E0,2.822035313E0
4.183349690E1,-8.158627510E0,-7.720741272E0,3.683750391E0
4.185478612E1,-7.308876991E0,-8.228319168E0,2.446063042E0
4.187607534E1,-6.305685997E0,-7.938488007E0,1.634596944E0
4.189736461E1,-7.687242031E0,-8.352746010E0,4.842773914E0
4.191865383E1,-8.515457153E0,-1.099561787E1,1.897807479E0
4.193994305E1,-6.877869606E0,-1.117059326E1,1.483849168E0
4.196123227E1,-8.158627510E0,-8.745168686E0,5.522634506E0
4.198252154E1,-8.307282448E0,-6.827620506E0,2.874677420E0
4.200381076E1,-6.547659874E0,-6.367899418E0,2.798106909E0
4.202509998E1,-6.629015923E0,-6.911369324E0,-2.567199707E0
4.204638920E1,-1.347458243E0,-6.803691864E0,-5.799604058E-1
4.206767847E1,5.257629395E0,-5.230710506E0,1.884347796E-1
4.208896768E1,3.182155132E0,-1.539183140E0,3.200400174E-1
4.211025690E1,4.767100811E0,-2.379363060E0,3.226721287E0
4.213154617E1,3.541078329E0,-2.367398977E0,-1.278963685E0
4.215283539E1,-1.132104158E0,-1.833500385E0,1.160519004E0
4.217412461E1,-5.350351334E0,-3.765704632E0,3.856332779E0
4.219541383E1,-7.861917973E0,-8.189734459E0,7.061817646E0
4.221670305E1,-5.537290573E0,-1.264756298E1,5.125126839E0
4.223799232E1,-5.209175110E0,-1.270528984E1,1.402194023E0
4.225928154E1,-6.727121830E0,-1.088076305E1,1.215553880E0
4.228057076E1,-7.823632717E0,-1.089751244E1,1.253839016E0
4.230185998E1,-9.489934921E0,-1.040668488E1,3.940081596E0
4.232314920E1,-1.112512970E1,-1.128544903E1,6.628716946E0
4.234443841E1,-1.357657623E1,-1.168295670E1,4.292125702E0
4.236572768E1,-1.466112328E1,-1.013629627E1,5.711667538E0
4.238701690E1,-1.327747345E1,-9.983155251E0,3.324826956E0
4.240830612E1,-1.248006535E1,-8.290532112E0,3.564109325E0
4.242959534E1,-8.620741844E0,-6.528517246E0,3.269792080E0
4.245088456E1,-7.107879639E0,-6.588337898E0,3.576073408E0
4.247217378E1,-6.786942482E0,-8.874680519E0,4.272983074E0
4.249346305E1,-6.367899418E0,-9.621540070E0,5.565705299E0
4.251475227E1,-8.453244209E0,-9.473184586E0,1.589133382E0
4.253604149E1,-9.228817940E0,-9.003892899E0,3.073281527E0
4.255733071E1,-9.892228127E0,-7.873881817E0,2.697608471E0
4.257861992E1,-9.633503914E0,-6.691229343E0,1.440479279E0
4.259990914E1,-9.533005714E0,-8.355138779E0,2.814856768E0
4.262119836E1,-7.720741272E0,-1.177627659E1,1.450050473E0
4.264248758E1,-7.328019142E0,-1.324367523E1,1.191625714E0
4.266377680E1,-9.128319740E0,-1.108205891E1,5.141577721E-1
4.268506607E1,-5.589932919E0,-9.475577354E0,1.713560104E0
4.270635529E1,-3.473481178E0,-7.416553974E0,3.209971666E0
4.272764451E1,-3.023331404E0,-4.462315083E0,-1.525723577E0
4.274893373E1,-6.508477330E-1,-2.321935177E0,-8.386843204E-1
4.277022294E1,3.605983734E0,-2.729014158E0,8.012964725E-1
4.279151216E1,3.201297522E0,-2.831905603E0,3.705884218E-1
4.281280138E1,1.733600020E0,-3.890131474E0,3.961616993E0
4.283409060E1,2.042573214E0,-3.842274904E0,1.464407444E0
4.285537982E1,1.080060363E0,-2.961117983E0,2.568096876E0
4.287666904E1,-1.888535261E0,-3.138186932E0,1.261017561E0
4.289795826E1,-5.458327770E0,-5.771787167E0,2.824428082E0
4.291924748E1,-6.272186279E0,-1.092622662E1,3.521038532E0
4.294053670E1,-6.607480526E0,-1.486451340E1,3.336791277E0
4.296182591E1,-6.920940399E0,-1.465155220E1,2.972783089E0
4.298311513E1,-1.095254707E1,-1.434736443E1,2.156531334E0
4.300440435E1,-1.064626598E1,-1.180499077E1,3.442673683E-1
4.302569357E1,-1.003818989E1,-9.760323524E0,4.763511658E0
4.304698279E1,-1.098126125E1,-9.389435768E0,5.067699432E0
4.306827201E1,-1.372014618E1,-1.067498016E1,6.798607349E0
4.308956123E1,-1.300439262E1,-1.051944637E1,2.419741869E0
4.311085045E1,-8.735597610E0,-7.651349545E0,3.066103220E0
4.313213966E1,-6.676872253E0,-6.162116528E0,3.573680639E0
4.315342888E1,-6.482754707E0,-8.608778000E0,6.001498222E0
4.317471810E1,-7.167700291E0,-1.178106213E1,5.922235966E0
4.319600732E1,-7.256234646E0,-1.093101215E1,5.620740414E0
4.321729654E1,-7.557730198E0,-9.049356461E0,4.157828331E0
4.323858571E1,-8.822037697E0,-8.805288315E0,3.913760424E0
4.325987492E1,-9.789037704E0,-9.068498611E0,3.384647608E0
4.328116414E1,-9.326923370E0,-8.608778000E0,3.291327477E0
4.330245336E1,-7.617550850E0,-8.221140862E0,1.799701691E0
4.332374258E1,-7.617550850E0,-8.422137260E0,-1.530509233E0
4.334503180E1,-8.642276764E0,-8.877073288E0,2.937189937E-1
4.336632097E1,-1.057926750E1,-8.553742409E0,2.759821892E0
4.338761018E1,-6.418148518E0,-9.964012146E0,3.542573929E0
4.340889940E1,-4.033700943E0,-9.233603477E0,4.220041752E0
4.343018862E1,-2.743371248E0,-6.956832886E0,-9.750752449E-1
4.345147784E1,4.456632137E-1,-4.596313000E0,-3.765704632E-1
4.347276706E1,3.397509098E0,-2.891726255E0,-6.852445602E-1
4.349405623E1,2.789433002E0,-1.146461129E0,9.236295223E-1
4.351534544E1,7.471588850E-1,-2.851048231E0,2.166102648E0
4.353663466E1,2.899502754E0,-3.902095556E0,1.943271041E0
4.355792388E1,6.275177598E-1,-2.796013355E0,1.142572835E-1
4.357921310E1,-5.742774606E-1,-2.994617462E0,2.319243431E0
4.360050227E1,-2.187937260E0,-5.249852657E0,3.142673492E0
4.362179149E1,-4.711168766E0,-9.769894600E0,1.107876897E0
4.364308071E1,-6.774978161E0,-1.456301785E1,1.988734722E0
4.366436987E1,-6.894619465E0,-1.734736633E1,4.859523773E0
4.368565909E1,-1.414397430E1,-1.770150375E1,3.655036688E0
4.370694831E1,-1.337797260E1,-1.194616699E1,8.730811477E-1
4.372823748E1,-1.193181038E1,-9.640682220E0,4.109972000E0
4.374952670E1,-1.102941704E1,-9.568898201E0,5.340480804E0
4.377081591E1,-1.354547024E1,-1.038993549E1,3.123530865E0
4.379210508E1,-1.261406326E1,-8.431708336E0,1.780559182E0
4.381339430E1,-8.300103188E0,-5.805286884E0,4.502694130E0
4.383468352E1,-6.590730667E0,-5.850750446E0,4.454837322E0
4.385597269E1,-8.587242126E0,-1.041625595E1,4.883451939E0
