"Time (s)","Acceleration x (m/s^2)","Acceleration y (m/s^2)","Acceleration z (m/s^2)"
0.000000000E0,-1.389173388E0,2.241825104E0,1.018129539E1
2.000000000E-2,-7.659721971E-1,1.909797192E0,1.050453091E1
4.000000000E-2,-4.657680094E-1,1.822753668E0,9.510152817E0
6.000312500E-2,-2.581428289E-1,1.816404223E0,9.251185417E0
8.200156300E-2,-1.540716738E-1,1.858800769E0,9.048109055E0
1.040000000E-1,2.312798798E-2,1.744693160E0,9.669519424E0
1.240000000E-1,1.131116673E-1,1.474368572E0,1.008484650E1
1.440000000E-1,5.045444965E-1,1.309293032E0,1.031075382E1
1.640000000E-1,5.470463634E-1,1.212251306E0,1.039426327E1
1.840062500E-1,9.095188975E-1,7.457363605E-1,9.982316971E0
2.060000000E-1,4.181712568E-1,5.952847004E-1,1.020925903E1
2.260000000E-1,-5.840799212E-1,1.238759995E0,1.068665314E1
2.460000000E-1,-8.569996953E-1,1.572052002E0,1.078112888E1
2.660015630E-1,5.703467131E-1,1.424167037E0,9.812454224E0
2.880000000E-1,8.777239323E-1,1.227947712E0,8.783453941E0
3.080031250E-1,4.146182835E-1,1.273351431E0,8.770028114E0
3.300000000E-1,-4.626076519E-1,1.098574758E0,9.472228050E0
3.519984380E-1,-2.311841100E-1,7.900865749E-3,1.101720619E1
3.719984380E-1,6.393188834E-1,-7.937353253E-1,1.122868156E1
3.920000000E-1,7.014532089E-1,-2.665703893E-1,1.081471443E1
4.120000000E-1,3.931279480E-2,1.101993561E0,9.523023605E0
4.320296880E-1,2.318353355E-1,1.450867057E0,8.614710808E0
4.539984380E-1,1.152233481E0,8.266028762E-1,8.497347832E0
4.740062500E-1,1.176041484E0,2.638122737E-1,9.726588249E0
4.959984380E-1,6.799724102E-1,2.913073003E-1,1.133959961E1
5.160000000E-1,2.575490773E-1,4.493820667E-1,1.153060913E1
5.360000000E-1,5.128571987E-1,1.287170768E0,1.078680801E1
5.579984380E-1,5.805556178E-1,1.641196489E0,9.767356873E0
5.779984380E-1,6.520560384E-1,1.537872314E0,9.008135796E0
5.979984380E-1,4.125688374E-1,1.494115949E0,8.854331970E0
6.179984380E-1,5.246270895E-1,1.061014414E0,8.906574249E0
6.380000000E-1,4.673577547E-1,9.392166138E-1,9.612480164E0
6.600000000E-1,2.566105425E-1,1.184200883E0,9.655575752E0
6.820000000E-1,1.083328426E-1,1.341997981E0,9.392941475E0
7.020000000E-1,1.945911348E-1,1.352398276E0,9.813785553E0
7.220000000E-1,1.330793053E-1,1.300463438E0,1.018887043E1
7.440000000E-1,-8.925583959E-2,1.515405178E0,9.969753265E0
7.640000000E-1,7.546523958E-2,1.467147708E0,9.648124695E0
7.840000000E-1,1.269884557E-1,1.457781553E0,9.696995735E0
8.040000000E-1,-4.735730961E-2,1.441855311E0,9.834201813E0
8.240000000E-1,-2.215307057E-1,1.450752139E0,1.021527386E1
8.459984380E-1,2.397074737E-2,1.384164691E0,1.051148415E1
8.659984380E-1,5.345773697E-2,1.385582089E0,1.010671139E1
8.860000000E-1,-3.471688330E-1,1.038097143E0,9.898032188E0
9.079984380E-1,-4.297017455E-1,-1.799673438E-1,1.121419144E1
9.279984380E-1,-6.593631953E-2,-5.519688129E-1,1.232139587E1
9.480187500E-1,3.157090247E-1,-9.794200212E-2,1.209262371E1
9.699984380E-1,-2.107855305E-2,4.758332074E-1,1.000204563E1
9.900000000E-1,-1.913158745E-1,7.785752416E-1,8.658956528E0
1.010001563E0,-1.187524060E-3,1.352235556E0,8.184396744E0
1.031998438E0,-2.344402373E-1,8.259133697E-1,8.911286354E0
1.052000000E0,-1.050288379E-1,1.737519950E-1,1.016388416E1
1.072000000E0,-1.921298951E-1,5.868762732E-1,1.062351322E1
1.092000000E0,1.730050147E-1,5.056170821E-1,1.056531525E1
1.112000000E0,6.924989074E-2,1.199562192E0,9.639889717E0
1.132000000E0,-1.881842464E-1,1.572185993E0,8.998741150E0
1.152006250E0,-5.191587210E-1,2.030340433E0,8.201471329E0
1.173998438E0,-1.327249557E-1,2.026701212E0,7.620600700E0
1.193998438E0,-2.623374760E-1,1.622607946E0,8.067961693E0
1.213998438E0,3.048968017E-1,1.349103928E0,8.838272095E0
1.233998438E0,4.591408372E-1,1.060478091E0,9.719913483E0
1.253998438E0,6.621882915E-1,7.692762017E-1,9.849046707E0
1.273998438E0,6.066045165E-1,1.037694931E0,9.351397514E0
1.294000000E0,4.650114477E-1,1.096506119E0,9.722498894E0
1.315998438E0,1.292006969E-1,1.500379205E0,9.959083557E0
1.335998438E0,1.301966906E-1,1.370182514E0,1.013527870E1
1.355998438E0,5.929192305E-1,8.936693072E-1,1.056087112E1
1.375998438E0,5.359085202E-1,6.730388403E-1,1.110188484E1
1.396000000E0,4.097341001E-1,9.686653018E-1,1.069962025E1
1.417998438E0,7.397124916E-2,1.098430991E0,9.776320457E0
1.438000000E0,-1.242207661E-1,8.052657843E-1,9.319526672E0
1.458000000E0,2.038231790E-1,-4.129519314E-2,1.017331696E1
1.478000000E0,3.251804709E-1,-5.631353855E-1,1.185609627E1
1.498000000E0,-3.639186616E-4,-4.296538830E-1,1.217361546E1
1.520000000E0,-2.814623527E-2,3.986633122E-1,1.124893665E1
1.540000000E0,2.367578149E-1,9.329246283E-1,1.013022137E1
1.560000000E0,1.022889137E0,1.192887068E0,9.013164520E0
1.580000000E0,1.297733903E0,1.102070212E0,8.647531509E0
1.600000000E0,5.213900805E-1,5.752596259E-1,9.785706520E0
1.620000000E0,8.571912050E-1,2.607285678E-1,1.004885769E1
1.642010938E0,7.349050045E-1,-1.147876084E-1,1.001655483E1
1.664000000E0,-6.660669297E-2,6.988579035E-1,9.755385399E0
1.684000000E0,1.094628964E-2,9.885179996E-1,9.554302216E0
1.704000000E0,6.570647657E-2,9.602376819E-1,9.609233856E0
1.724000000E0,1.488714665E-1,1.054234028E0,9.477974892E0
1.744000000E0,4.439807683E-2,1.139908195E0,8.822748184E0
1.764000000E0,-4.815218225E-2,1.149724364E0,8.667671204E0
1.784000000E0,-3.257263601E-1,1.209062219E0,8.494369507E0
1.804000000E0,-4.468058944E-1,1.029123664E0,8.771426201E0
1.824000000E0,-6.710659862E-1,8.598248959E-1,9.791538239E0
1.844000000E0,-1.416888535E-1,6.817441583E-1,1.030534267E1
1.864000000E0,6.964349747E-1,4.984248877E-1,9.864120483E0
1.884000000E0,5.700594187E-1,8.142200708E-1,9.989471436E0
1.904000000E0,1.282334477E-1,9.835954905E-1,1.029325676E1
1.924000000E0,1.718270779E-1,6.770706773E-1,1.050524044E1
1.945998438E0,1.784063280E-1,7.753382325E-1,1.051635838E1
1.966000000E0,2.211476266E-1,1.053630710E0,1.016209412E1
1.986000000E0,4.065833390E-1,5.423250198E-1,1.006464958E1
2.007998438E0,-1.327345371E-1,4.468729496E-1,1.141315079E1
2.027998438E0,-2.099236101E-2,5.299613476E-1,1.185077190E1
2.048018750E0,-1.052108034E-1,7.819558978E-1,1.097174549E1
2.069998438E0,7.083101869E-1,3.432710469E-1,9.618312836E0
2.089998438E0,1.043508053E0,4.710831493E-2,9.461434364E0
2.109998438E0,4.901409522E-2,8.903748989E-1,1.013139915E1
2.129998438E0,-5.158259869E-1,1.240723133E0,1.030606174E1
2.149998438E0,-4.313776791E-1,1.350118995E0,1.035348511E1
2.170007813E0,-3.877361715E-1,1.087350607E0,1.021817493E1
2.192004688E0,2.175084352E-1,4.447852075E-1,9.900225639E0
2.214000000E0,4.463845491E-1,3.754299879E-1,9.406320572E0
2.234000000E0,5.834860802E-1,4.004062712E-1,9.084128380E0
2.254000000E0,7.313328385E-1,4.457428753E-1,8.632313728E0
2.275998438E0,5.468165278E-1,4.578384161E-1,8.173823357E0
2.296000000E0,3.982993960E-1,6.734123826E-1,8.121697426E0
2.316000000E0,3.948900402E-1,8.740847111E-1,8.549272537E0
2.337998438E0,3.519667983E-1,7.952005863E-1,8.734009743E0
2.358000000E0,3.934343755E-1,6.288418770E-1,8.980506897E0
2.380000000E0,2.842779160E-1,9.407105446E-1,9.200456619E0
2.402004688E0,1.572511792E-1,1.350866079E0,9.588030815E0
2.424000000E0,-4.173572361E-2,1.379835963E0,1.048491764E1
2.445998438E0,1.897069663E-1,1.045921445E0,1.077466393E1
2.466000000E0,4.122432172E-1,6.003029943E-1,1.088689423E1
2.488000000E0,3.703829944E-1,3.168295026E-1,1.134331512E1
2.510000000E0,2.137926370E-1,1.328149915E0,1.075148869E1
2.532006250E0,2.575682104E-1,8.328469992E-1,1.016663265E1
2.552018750E0,1.754758358E-1,-3.404267430E-1,1.065174580E1
2.574000000E0,-8.610507101E-2,-2.781583667E-1,1.095786858E1
2.594000000E0,-1.093671322E-1,-1.827925146E-1,1.096068478E1
2.614000000E0,-6.870400906E-2,-4.415291250E-1,1.027455330E1
2.634000000E0,5.487701893E-1,-4.835138321E-1,1.068673897E1
2.654000000E0,9.822547436E-1,-2.069164813E-1,1.089911556E1
2.674000000E0,1.164252400E0,-3.298252076E-2,1.036855984E1
2.694000000E0,7.966275215E-1,2.387402207E-1,9.731798172E0
2.714000000E0,-2.153249234E-1,1.161379367E-1,9.404443741E0
2.734000000E0,-8.839296699E-1,8.587714434E-1,8.161507607E0
2.754000000E0,-8.883350492E-1,5.522848368E-1,8.408158302E0
2.776014063E0,-5.131636262E-1,5.824134946E-1,8.707576752E0
2.797998438E0,-3.235524297E-1,7.882286310E-1,8.912559509E0
2.817998438E0,-3.375249803E-1,8.353369832E-1,8.926675797E0
2.838000000E0,-2.896026373E-1,6.133753061E-1,8.814617157E0
2.859998438E0,-2.962393761E-1,5.873646736E-1,9.059170723E0
2.880000000E0,-3.335793316E-1,5.409459472E-1,9.707262039E0
2.902000000E0,-1.303211749E-1,4.255932868E-1,9.924703598E0
2.924000000E0,-1.809920669E-1,7.583681345E-1,1.017260838E1
2.945998438E0,6.389645487E-2,7.757405043E-1,1.034834290E1
2.965998438E0,2.250262350E-1,8.306443691E-1,1.072668457E1
2.985998438E0,6.156545877E-1,9.304251075E-1,1.102659225E1
3.005998438E0,1.105402946E0,4.747031629E-1,1.121875000E1
3.025998438E0,1.082801580E0,-1.084860712E-1,1.136709499E1
3.045998438E0,7.479581833E-1,2.789723687E-2,1.122229385E1
3.065998438E0,7.539054155E-1,-9.117120504E-2,1.136895275E1
3.085998438E0,9.083601236E-1,-2.528755665E-1,1.145119858E1
3.105998438E0,8.502097726E-1,-2.782924175E-1,1.125261402E1
3.125998438E0,9.775813222E-1,-7.228765488E-1,1.077770996E1
3.145998438E0,5.104246736E-1,-6.992697120E-1,1.023481941E1
3.165998438E0,1.449353993E-1,-4.706138670E-1,9.958230972E0
3.186000000E0,-3.688028455E-2,-3.174807131E-1,9.569432259E0
3.208000000E0,-2.185427248E-1,1.549814641E-1,9.576127052E0
3.230000000E0,7.736144215E-2,8.323202282E-2,9.306951523E0
3.252000000E0,2.846227027E-2,-2.987963706E-2,8.982269287E0
3.272000000E0,-2.953774333E-1,1.185991764E-1,8.765000343E0
3.292003125E0,-9.247364849E-2,1.640123874E-1,8.736557007E0
3.312009375E0,3.472262919E-1,3.979450464E-1,8.852502823E0
3.333998438E0,8.922231793E-1,6.488956809E-1,9.065520287E0
3.353998438E0,1.123464704E0,7.724173665E-1,9.223738670E0
3.373998438E0,1.191220760E0,7.509078383E-1,9.392711639E0
3.393998438E0,9.684641957E-1,5.387241244E-1,9.565382004E0
3.413998438E0,7.849150896E-1,4.333888292E-1,9.580225945E0
3.434000000E0,5.154428482E-1,4.456950128E-1,9.930851936E0
3.454000000E0,1.093767062E-1,5.158067942E-1,9.944106102E0
3.474000000E0,9.755893052E-2,3.861176968E-1,1.011993694E1
3.494000000E0,1.482489556E-1,2.861262560E-1,1.031816673E1
3.514000000E0,3.030580580E-1,1.652669460E-1,1.059074116E1
3.534000000E0,6.057234406E-1,2.859634534E-2,1.090588570E1
3.554000000E0,6.793786883E-1,1.332421154E-1,1.085320282E1
3.574000000E0,1.165305898E-1,5.477933288E-1,1.023184109E1
3.594000000E0,7.204727530E-1,7.713639140E-1,1.015226746E1
3.614000000E0,1.888967633E0,-3.670407236E-1,1.128971481E1
3.634000000E0,1.879975080E0,-4.409449100E-1,1.131958485E1
3.655998438E0,1.095778227E0,-5.090551972E-1,1.069700623E1
3.675998438E0,7.093732357E-1,-4.180659056E-1,9.641861916E0
3.695998438E0,5.809961557E-1,-3.176818192E-1,9.624795914E0
3.715998438E0,9.159545302E-1,-7.655698806E-2,9.119830132E0
3.736000000E0,1.498339415E0,1.716163754E-2,9.343793869E0
3.757998438E0,1.521170378E0,3.402735293E-1,9.684344292E0
3.777998438E0,1.081575751E0,2.970821261E-1,9.472878456E0
3.797998438E0,2.823051214E-1,3.705458045E-1,8.983561516E0
3.817998438E0,7.429686934E-2,4.921329319E-1,8.792198181E0
3.838000000E0,2.855995297E-1,6.114982963E-1,9.034128189E0
3.859998438E0,4.314159751E-1,8.760096431E-1,9.676357269E0
3.880000000E0,5.871444941E-1,1.051897287E0,9.301808357E0
3.902000000E0,1.309819818E-1,1.068331003E0,8.785858154E0
3.922000000E0,-1.244984865E-1,1.067105174E0,8.361644745E0
3.942000000E0,-9.008902311E-2,9.755318761E-1,8.216756821E0
3.962000000E0,1.012364253E-1,1.066042185E0,9.087604523E0
3.982000000E0,4.077804387E-1,1.252818704E0,9.762329102E0
4.002004688E0,4.398148358E-1,1.255078912E0,1.003766251E1
4.024000000E0,2.516784966E-1,1.252483487E0,9.944728851E0
4.044000000E0,4.139383137E-1,1.008638859E0,1.024547863E1
4.064000000E0,1.084784031E0,4.182670414E-1,1.076276016E1
4.084000000E0,1.323122025E0,1.749395281E-1,1.162147427E1
4.106000000E0,1.006704330E0,2.241738886E-1,1.145870686E1
4.128000000E0,7.890426517E-1,-2.073474377E-1,1.127427673E1
4.148018750E0,-1.006330848E-1,3.240121007E-1,1.129807472E1
4.170009375E0,3.169540167E-1,1.911530644E-1,1.055779743E1
4.190023438E0,2.156218141E-1,1.450982094E-1,1.042295647E1
4.212000000E0,-2.292687632E-2,9.761639684E-2,1.017705250E1
4.232000000E0,1.621927917E-1,-1.159847081E-1,9.942094803E0
4.252000000E0,2.116570175E-1,-1.229757741E-1,9.842629433E0
4.272006250E0,3.447937667E-1,-8.590395562E-3,9.097420692E0
4.294000000E0,7.004668117E-1,3.728250787E-2,8.736623764E0
4.315998438E0,8.715660572E-1,1.163582038E-2,9.066295624E0
4.335998438E0,3.698083758E-1,1.295454651E-1,9.418788910E0
4.355998438E0,-1.026250646E-1,1.909040660E-1,9.350478172E0
4.376000000E0,6.040092185E-2,1.776018888E-1,9.485606194E0
4.396000000E0,3.169731498E-1,6.532722712E-1,9.517363548E0
4.417998438E0,9.409595728E-1,9.409404397E-1,9.501714706E0
4.437998438E0,1.310088038E0,9.574987292E-1,9.734019279E0
4.457998438E0,1.043450594E0,9.066746235E-1,9.922012329E0
4.478000000E0,7.017022371E-1,8.359594941E-1,1.007588291E1
4.499998438E0,1.699883342E-1,9.544532895E-1,1.006285858E1
4.519998438E0,2.246527374E-1,9.786730409E-1,9.822854042E0
4.539998438E0,5.418461561E-1,8.654656410E-1,1.008389854E1
4.560000000E0,7.090763450E-1,7.979682684E-1,1.036379051E1
4.580000000E0,6.930639148E-1,5.500247478E-1,1.066661930E1
4.600000000E0,-5.029739067E-2,8.887467980E-1,1.054308796E1
4.622000000E0,-3.695977032E-1,1.167154193E0,1.002276993E1
4.644000000E0,1.588696390E-1,7.729440928E-1,9.973698616E0
4.664000000E0,1.183588028E0,-2.793075442E-1,1.191396904E1
4.684000000E0,1.464130998E0,-6.149554849E-1,1.291086674E1
4.705998438E0,8.469631672E-1,-4.364438057E-1,1.234587288E1
4.725998438E0,8.915336728E-1,-8.087230325E-1,1.059530926E1
4.745998438E0,9.199672341E-1,-5.365884900E-1,9.251463890E0
4.766007813E0,1.448961258E0,-7.175900787E-2,9.333096504E0
4.788000000E0,2.168763638E0,2.425039113E-1,9.249394417E0
4.808000000E0,2.102415562E0,-6.715257466E-2,9.568149567E0
4.828000000E0,7.929595709E-1,4.577713609E-1,9.192576408E0
4.848018750E0,-1.572128534E-1,4.708437324E-1,8.815298080E0
4.870000000E0,-3.783413470E-1,5.334089994E-1,8.618389130E0
4.891998438E0,5.878243968E-2,6.273670793E-1,9.032662392E0
4.912000000E0,4.862240553E-1,8.151873946E-1,9.536852837E0
4.932000000E0,3.594750166E-1,1.075743556E0,9.792370796E0
4.952000000E0,-5.583278369E-3,1.109061241E0,9.480032921E0
4.972000000E0,-2.371313125E-1,9.292662740E-1,8.936271667E0
4.992004688E0,-3.432327509E-1,9.106968641E-1,8.936674118E0
5.014000000E0,-8.202534914E-2,9.422811866E-1,9.585206032E0
5.034000000E0,3.090435565E-1,9.970414042E-1,9.818736076E0
5.055998438E0,3.026271164E-1,1.298950195E0,1.025854111E1
5.075998438E0,3.453971148E-1,1.421600342E0,9.994336128E0
5.096000000E0,3.139277399E-1,1.649547458E0,9.833819389E0
5.117998438E0,1.027715802E0,1.197924495E0,9.435873985E0
5.137998438E0,1.409591079E0,4.926213622E-1,9.432857513E0
5.157998438E0,7.043933272E-1,4.498705268E-1,9.878658295E0
5.177998438E0,2.745670453E-2,1.184267923E-1,9.695703506E0
5.197998438E0,-1.031862617E0,1.957020462E-1,9.702329636E0
5.217998438E0,-1.127190232E0,1.276588347E-2,9.886606216E0
5.237998438E0,5.646485090E-2,-7.458130121E-1,1.010335827E1
5.257998438E0,2.956072986E-1,-8.334216475E-1,1.097403431E1
5.277998438E0,2.248921543E-1,-6.163824201E-1,1.093617630E1
5.297998438E0,5.360330343E-1,-8.027853966E-1,1.097084427E1
5.317998438E0,5.553877354E-1,-3.431561291E-1,1.043455410E1
5.337998438E0,6.689399481E-1,-1.583524942E-1,1.042829990E1
5.357998438E0,4.517188072E-1,4.930140451E-2,1.047168255E1
5.377998438E0,5.711990595E-1,-2.211667746E-1,1.035173321E1
5.397998438E0,3.130753636E-1,-2.124710381E-1,1.033397770E1
5.418000000E0,1.291432381E-1,-7.642292231E-2,1.014067936E1
5.440000000E0,-2.028367668E-2,5.549280643E-1,9.625638962E0
5.461998438E0,3.476380836E-3,8.480740786E-1,9.100696564E0
5.482000000E0,5.426218733E-2,1.160919666E0,9.200036049E0
5.502000000E0,1.773624569E-1,1.284470081E0,9.556092262E0
5.523998438E0,4.855153859E-1,1.268093705E0,9.921026230E0
5.543998438E0,5.924882889E-1,1.014902115E0,1.063122272E1
5.564000000E0,4.045243263E-1,1.004281402E0,1.055591965E1
5.584000000E0,3.157760501E-1,1.031441331E0,1.024919415E1
5.604000000E0,2.024824172E-1,1.136968136E0,1.006404591E1
5.624000000E0,3.130083680E-1,1.099560976E0,1.031598377E1
5.644000000E0,5.436274409E-1,1.108103633E0,1.082274055E1
5.664000000E0,1.026499629E0,1.130187750E0,1.083563995E1
5.684000000E0,1.190521598E0,1.044255018E0,9.972683907E0
5.705998438E0,3.344603777E-1,1.536531568E0,8.706476212E0
5.725998438E0,8.285565972E-1,1.600226879E0,8.579305649E0
5.745998438E0,1.104330301E0,1.060545206E0,1.115413570E1
5.766003125E0,1.125370622E0,3.646177649E-1,1.235716438E1
5.788003125E0,6.434273720E-1,4.025419354E-1,1.111660480E1
5.809998438E0,4.738604128E-1,-1.098555550E-1,1.027055073E1
5.829998438E0,5.295016766E-1,-3.607391715E-1,9.752809525E0
5.849998438E0,7.158471942E-1,-2.735710740E-1,9.829471588E0
5.869998438E0,8.011190295E-1,3.187831640E-1,9.502308846E0
5.889998438E0,7.663073540E-1,3.180936277E-1,9.395431519E0
5.909998438E0,3.216562271E-1,5.087487102E-1,9.612346649E0
5.929998438E0,-1.367951035E-1,8.293227553E-1,9.619376183E0
5.950000000E0,-3.079901077E-2,8.250993490E-1,9.240153313E0
5.970006250E0,1.595017314E-1,1.190004349E0,8.857952118E0
5.992006250E0,5.684505105E-1,1.587212086E0,8.712711334E0
6.013998438E0,6.992505789E-1,1.856425643E0,8.515323639E0
6.033998438E0,5.944419503E-1,1.634502292E0,8.150849342E0
6.053998438E0,4.339346886E-1,1.280917168E0,8.332099915E0
6.074000000E0,4.890492260E-1,1.085588455E0,8.298954010E0
6.095998438E0,5.220125914E-1,9.840072989E-1,9.074924469E0
6.115998438E0,3.469772935E-1,1.060123801E0,9.775985718E0
6.135998438E0,3.511144817E-1,1.113504887E0,1.055292320E1
6.155998438E0,6.705583930E-1,1.390054345E0,1.015773678E1
6.176000000E0,1.289746881E0,1.387085557E0,1.053211212E1
6.198000000E0,2.340360880E0,1.077333212E0,1.044620800E1
6.219998438E0,2.202541113E0,5.202887654E-1,1.047033215E1
6.240000000E0,9.916879535E-1,5.983493328E-1,1.019941425E1
6.262000000E0,3.460387588E-1,1.854931712E-1,1.034740448E1
6.283998438E0,-2.195578814E-1,3.440946713E-2,1.053599167E1
6.303998438E0,-7.045656443E-2,1.130925119E-1,1.083267117E1
6.323998438E0,2.578459382E-1,2.004904449E-1,1.043413162E1
6.343998438E0,3.978301287E-1,4.720599651E-1,1.055908966E1
6.363998438E0,4.913572371E-1,5.085667372E-1,1.099292946E1
6.383998438E0,7.365617752E-1,3.764642775E-1,1.089227772E1
6.404000000E0,8.174570799E-1,6.814856082E-2,1.046351337E1
6.424000000E0,3.765695989E-1,-7.887458056E-2,1.018948364E1
6.445998438E0,-1.799481921E-2,2.279280126E-2,9.541803360E0
6.465998438E0,-5.654146522E-2,1.795842797E-1,9.335270882E0
6.485998438E0,-7.529285550E-2,5.562496781E-1,9.264191628E0
6.505998438E0,1.715110391E-1,8.156853914E-1,8.719625473E0
6.526000000E0,3.572914898E-1,1.227947712E0,8.524890900E0
6.546000000E0,6.277022362E-1,1.418459058E0,8.414220810E0
6.566001563E0,5.704712272E-1,1.604335427E0,8.407344818E0
6.587998438E0,5.617946386E-1,1.125552535E0,8.882307053E0
6.607998438E0,7.631757110E-2,1.154551148E0,9.403064728E0
6.628000000E0,-2.674897909E-1,1.132399917E0,1.002897549E1
6.648018750E0,-3.213306069E-1,1.089610696E0,1.009325504E1
6.670000000E0,-2.988346815E-1,8.256739378E-1,1.024612999E1
6.692000000E0,7.145255059E-2,1.574522853E-1,1.081924438E1
6.714000000E0,9.096338749E-1,-5.038837194E-1,1.140258694E1
6.736000000E0,5.477741957E-1,1.436138004E-1,1.119767189E1
6.756000000E0,2.043499053E-1,1.065955997E0,1.061250973E1
6.776000000E0,1.218964696E0,7.033782005E-1,1.056533432E1
6.796000000E0,1.778777003E0,2.125284970E-1,1.133017635E1
6.817998438E0,1.009500742E0,4.026089609E-2,1.215970039E1
6.837998438E0,1.833000779E-1,2.423219383E-1,1.157789898E1
6.857998438E0,3.849493265E-1,-2.253135443E-1,1.121813774E1
6.877998438E0,7.551695108E-1,-2.678249776E-1,1.022531891E1
6.897998438E0,1.118513584E0,4.498226196E-2,9.488078117E0
6.917998438E0,1.426963329E0,5.417503715E-1,9.215062141E0
6.937998438E0,1.261629343E0,7.155215740E-1,9.173661232E0
6.957998438E0,4.618319273E-1,8.625829816E-1,9.281477928E0
6.977998438E0,-1.391701549E-1,1.005842447E0,9.176160812E0
6.997998438E0,-3.386646211E-1,9.368990064E-1,9.163969994E0
7.017998438E0,-2.731209397E-1,1.125849366E0,8.999249458E0
7.037998438E0,1.858092099E-1,1.207539558E0,8.936913490E0
7.057998438E0,5.928618312E-1,1.394804478E0,9.186742783E0
7.078000000E0,6.577351093E-1,1.628928542E0,9.320196152E0
7.098000000E0,7.086645365E-1,1.407848001E0,9.268146515E0
7.119998438E0,9.593662024E-1,1.258210421E0,9.715249062E0
7.140000000E0,1.168523669E0,1.537671208E0,9.956690788E0
7.160000000E0,8.788635731E-1,1.562417746E0,1.018885040E1
7.180000000E0,3.790021241E-1,1.280380726E0,1.069475460E1
7.200000000E0,1.204762235E-1,1.064251304E0,1.124365902E1
7.222000000E0,3.200951815E-1,9.511876106E-1,1.126377010E1
7.242000000E0,6.231053472E-1,7.193427086E-1,1.110724831E1
7.263998438E0,3.422846496E-1,1.294573665E0,1.067521858E1
7.284000000E0,1.015428782E0,7.168335319E-1,1.049306774E1
7.305998438E0,1.192896605E0,1.750736088E-1,1.067993069E1
7.326004688E0,4.020918012E-1,3.328132033E-1,1.067252731E1
7.348018750E0,-2.610733211E-1,2.810792923E-1,1.038346100E1
7.370000000E0,1.667322069E-1,-1.528841406E-1,9.976973534E0
7.390014063E0,1.012076974E0,-3.295762241E-1,9.997496605E0
7.412001563E0,1.305711389E0,4.965861440E-1,1.058831882E1
7.434000000E0,9.770545363E-1,8.004007339E-1,1.006713963E1
7.454000000E0,3.734092712E-1,5.444223285E-1,9.213146210E0
7.474000000E0,-1.705437750E-1,5.614211559E-1,9.055646896E0
7.494000000E0,-2.490640134E-1,2.835501134E-1,9.359087944E0
7.514000000E0,-1.622502655E-1,9.097583890E-1,9.622708321E0
7.534000000E0,5.786114931E-1,1.312625885E0,8.923074722E0
7.555998438E0,2.001552582E-1,1.971289873E0,7.783310413E0
7.576000000E0,2.940846086E-1,1.278388739E0,7.772861958E0
7.596000000E0,1.521754563E-1,8.618264198E-1,8.406386375E0
7.617998438E0,2.867774665E-1,9.704082608E-1,9.127319336E0
7.638000000E0,8.328661323E-1,9.678895473E-1,9.208836555E0
7.660000000E0,1.536119822E-2,1.387372851E0,9.019053459E0
7.680000000E0,-1.286356598E-1,1.107088447E0,7.617392063E0
7.702001563E0,3.828232586E-1,1.120438457E0,9.266125679E0
7.722010938E0,5.294824839E-1,1.601021886E0,1.119188786E1
7.743998438E0,1.318735838E0,1.431838036E0,1.069233227E1
7.764003125E0,8.939374685E-1,1.472031832E0,1.059085655E1
7.786000000E0,3.638707995E-1,1.743486404E0,1.089933491E1
7.807998438E0,9.208387136E-1,1.786850214E0,1.102683067E1
7.827998438E0,1.839857817E0,9.414288402E-1,1.156318092E1
7.848023438E0,1.896954656E0,5.164197683E-1,1.158262062E1
7.870000000E0,1.163026571E0,2.008447945E-1,1.157292938E1
7.892000000E0,1.398692578E-1,2.893632054E-1,1.099555397E1
7.912010938E0,-1.097023264E-1,2.597996294E-1,1.016532040E1
7.934000000E0,4.605390728E-1,2.595314682E-1,9.653488159E0
7.954004688E0,1.006867170E0,7.065001726E-1,9.354509354E0
7.976000000E0,1.330323815E0,1.070763707E0,9.711303711E0
7.996003125E0,7.005625367E-1,9.549512863E-1,9.435692787E0
8.017998438E0,-1.178426072E-1,5.828061700E-1,8.969799995E0
8.038003125E0,-8.260283470E-1,5.261210203E-1,8.155360222E0
8.058004688E0,-1.250290394E0,9.393506646E-1,8.994336128E0
8.080000000E0,-8.833646774E-1,1.806386828E0,8.083045006E0
8.100000000E0,-4.405235350E-1,1.384174228E0,9.340230942E0
8.122000000E0,-5.370673537E-2,7.606858015E-1,8.578530312E0
8.142004688E0,-2.156409621E-1,7.928638458E-1,9.121553421E0
8.162018750E0,-3.744243979E-1,1.025465369E0,9.291101456E0
8.184000000E0,-4.750191867E-1,1.042128921E0,9.603841782E0
8.205998438E0,-3.498311639E-1,1.268812060E0,1.008513355E1
8.225998438E0,4.077613056E-1,1.497898817E0,9.939499855E0
8.246000000E0,7.532733083E-1,1.780625224E0,1.013077736E1
8.266010938E0,9.832411408E-1,1.631964445E0,1.075043488E1
8.288000000E0,1.825435162E-1,1.331808209E0,1.133697605E1
8.310000000E0,-1.056226045E-1,4.237545431E-1,1.058997536E1
8.332000000E0,-6.780379452E-3,-5.295974202E-3,1.027241802E1
8.352000000E0,-4.557985663E-1,-3.335410058E-1,1.188746929E1
8.373998438E0,-4.853046834E-1,-8.938033879E-2,1.215302563E1
8.393998438E0,6.100138426E-1,-4.521402121E-1,1.172564125E1
8.413998438E0,1.091478229E0,-1.460079998E-1,1.088563061E1
8.434000000E0,7.439646721E-1,3.680941463E-1,1.084127998E1
8.455998438E0,2.471773773E-1,-6.616616249E-2,9.994881630E0
8.475998438E0,5.962519720E-2,-1.325334311E-1,9.640511513E0
8.496000000E0,3.659489453E-1,2.757545710E-1,9.647512436E0
8.517998438E0,3.465367556E-1,1.259704471E0,8.584122658E0
8.537998438E0,1.599518210E-1,2.196182013E0,8.824903488E0
8.558000000E0,1.447821707E-1,2.399478436E0,8.886568069E0
8.578000000E0,3.564966321E-1,1.419234872E0,8.842696190E0
8.598000000E0,5.482051373E-1,1.225352407E0,8.062426567E0
8.618000000E0,5.083848238E-1,1.783373833E0,8.228986740E0
8.638000000E0,3.482031226E-1,2.255424023E0,8.284560204E0
8.660000000E0,-2.055086941E-1,1.987733245E0,8.635052681E0
8.682000000E0,4.431092739E-1,7.349624634E-1,9.429525375E0
8.702004688E0,6.692751646E-1,9.171899557E-1,9.073114395E0
8.724000000E0,4.892407656E-1,1.623508215E0,8.903987885E0
8.744000000E0,-4.718492925E-2,1.918052435E0,1.022489834E1
8.764000000E0,-4.052138329E-1,1.851129770E0,1.079526329E1
8.784000000E0,-8.707711697E-1,1.389987350E0,1.081278896E1
8.804000000E0,-6.470090747E-1,1.177516222E0,1.098639774E1
8.824000000E0,-3.633631766E-1,1.466027260E0,1.026397133E1
8.844000000E0,-2.030283064E-1,2.023684502E0,9.321412086E0
8.864000000E0,-7.245333195E-1,1.990491509E0,1.030694199E1
8.886000000E0,-3.698179722E-1,1.022247553E0,1.283549690E1
8.907998438E0,9.807990789E-1,-8.737878501E-2,1.270456314E1
8.927998438E0,6.767737865E-1,8.236532807E-1,1.138866234E1
8.948020313E0,7.142861485E-1,1.374511242E0,9.113079071E0
8.969998438E0,-1.886822581E-1,1.329184175E0,9.122961998E0
8.989998438E0,-2.431742698E-1,9.160598516E-1,9.536699295E0
9.010000000E0,-1.036402062E-1,2.693859935E-1,1.034625530E1
9.032000000E0,-2.962393761E-1,1.307310820E0,1.040202141E1
9.052000000E0,-6.640270352E-1,1.595879078E0,9.780802727E0
9.072000000E0,-3.332058489E-1,1.106389284E0,8.719768524E0
9.092000000E0,2.788766101E-2,1.038279057E0,8.372532845E0
9.112003125E0,1.653244197E-1,1.616861820E0,8.667029381E0
9.133998438E0,-1.681687385E-1,1.328015804E0,9.329753876E0
9.154000000E0,9.140104800E-2,1.298701167E0,9.167542458E0
9.176000000E0,1.543781254E-2,1.498837233E0,8.976053238E0
9.196000000E0,-3.569658995E-1,8.128219247E-1,9.333431244E0
9.217998438E0,-1.186566334E-2,1.007527947E0,9.447625160E0
9.237998438E0,7.445009798E-2,1.361199498E0,9.695127487E0
9.257998438E0,-9.327810258E-3,1.471572161E0,9.599378586E0
9.277998438E0,-6.585969925E-1,1.353614569E0,9.617306709E0
9.297998438E0,-3.450331986E-1,9.822547436E-1,1.029820919E1
9.317998438E0,-7.315244079E-1,7.792073488E-1,1.050639820E1
9.337998438E0,-8.065586686E-1,1.108735561E0,1.011691952E1
9.358006250E0,-4.083837569E-1,6.583192945E-1,9.038887024E0
9.378007813E0,-8.653123975E-1,7.314381599E-1,9.710987091E0
9.399998438E0,-1.232190251E0,-3.582396209E-1,1.325632095E1
9.419998438E0,-6.194278598E-1,-6.072269678E-1,1.257293987E1
9.440007813E0,-7.777324319E-2,3.935110196E-2,1.127984047E1
9.461998438E0,1.902528405E-1,4.026185274E-1,1.043528080E1
9.481998438E0,-1.273236424E-1,5.091700554E-1,9.797715187E0
9.501998438E0,-3.605955243E-1,9.953079820E-1,1.007045269E1
9.522006250E0,-6.139978170E-1,9.990046024E-1,1.024210739E1
9.543998438E0,-1.939207613E-1,7.050636411E-1,1.044175529E1
9.564006250E0,-6.650900841E-1,5.172049999E-1,1.054566383E1
9.586000000E0,-7.963497639E-1,1.297532797E0,1.000551224E1
9.606000000E0,-2.338847816E-1,1.606250763E0,8.833875656E0
9.628000000E0,2.940846086E-1,1.348069549E0,8.244395256E0
9.648020313E0,6.727898717E-1,9.913239479E-1,8.036387444E0
9.670000000E0,6.105214357E-1,8.654847145E-1,8.070557594E0
9.690000000E0,2.926576436E-1,1.001350880E0,8.027069092E0
9.711998438E0,-2.228139788E-1,1.440754056E0,8.576786995E0
9.731998438E0,-5.757001638E-1,1.187830448E0,8.758679390E0
9.752015625E0,-5.702796578E-1,1.111177683E0,8.984740257E0
9.772018750E0,-2.941803634E-1,8.840445876E-1,9.368970871E0
9.794000000E0,1.244984887E-4,9.053912759E-1,9.779346466E0
9.814003125E0,3.685825467E-1,7.920689583E-1,1.014258480E1
9.835998438E0,-2.775454521E-1,7.061745524E-1,1.070805740E1
9.856001563E0,-6.871837974E-1,1.357598543E0,9.971745491E0
9.877998438E0,-3.489979804E-1,1.243165255E0,8.503046036E0
9.897998438E0,-5.542480946E-1,8.035324216E-1,9.935563087E0
9.917998438E0,-7.160865664E-1,9.978074580E-2,1.254183388E1
9.937998438E0,-3.224127889E-1,2.011033595E-1,1.313478184E1
9.957998438E0,9.211929888E-2,7.791306973E-1,1.155718517E1
9.977998438E0,2.131414115E-1,1.039093137E0,9.849927902E0
9.998000000E0,5.864070654E-1,5.705861449E-1,9.551485062E0
1.002000781E1,4.858122468E-1,5.533862114E-1,9.832324982E0
1.004199844E1,1.339891106E-1,3.449948728E-1,1.006841278E1
1.006200625E1,2.266830206E-2,1.146631092E-1,9.637523651E0
1.008399844E1,-6.083188057E-1,7.542022467E-1,9.419709206E0
1.010399844E1,-9.741623402E-1,1.261064291E0,9.102486610E0
1.012399844E1,-7.806438804E-1,1.412262917E0,8.896901131E0
1.014399844E1,-8.698518276E-1,1.430324793E0,8.946605682E0
1.016399844E1,-2.571468651E-1,1.095720768E0,8.913268089E0
1.018400000E1,-1.452418566E-1,1.222757101E0,8.679306984E0
1.020400000E1,2.652775496E-2,1.440121889E0,8.482781410E0
1.022400000E1,4.635174572E-2,1.517665267E0,8.953289986E0
1.024600000E1,-1.350233853E-1,1.256572843E0,1.006460190E1
1.026800000E1,8.644026518E-2,1.694922328E0,1.022236061E1
1.028800000E1,2.166752517E-1,1.654546618E0,1.000490952E1
1.031000000E1,3.110163808E-1,1.568642735E0,1.055087280E1
1.033200000E1,3.156898618E-1,1.404821754E0,1.050588226E1
1.035200000E1,8.279149979E-2,9.616454840E-1,1.102884197E1
1.037200000E1,-1.712716073E-1,1.095241904E0,1.162265205E1
1.039200469E1,3.294421360E-3,1.616909742E0,1.053842354E1
1.041399844E1,1.281855553E-1,9.541181326E-1,1.083948898E1
1.043400000E1,-8.137316704E-1,7.594790459E-1,1.230246162E1
1.045599844E1,-6.105884910E-1,3.082678318E-1,1.151761341E1
1.047599844E1,-6.990398765E-1,-2.087743953E-3,1.060407257E1
1.049599844E1,-7.565869093E-1,2.772293985E-1,9.889307976E0
1.051599844E1,-4.601655602E-1,5.960987806E-1,9.592627525E0
1.053599844E1,-2.983750105E-1,7.275021076E-1,9.818611145E0
1.055599844E1,-4.911561310E-1,8.625446558E-1,1.024235630E1
1.057599844E1,-2.265202105E-1,1.119251013E0,9.438105583E0
1.059600000E1,-4.252772629E-1,1.473458767E0,9.159544945E0
1.061799844E1,-7.176380157E-1,1.632721066E0,9.298255920E0
1.063799844E1,-3.562667966E-1,1.461344123E0,9.473635674E0
1.065799844E1,-2.815964222E-1,1.505560160E0,9.535387039E0
1.067799844E1,-4.548025504E-2,1.841610312E0,9.251683235E0
1.069799844E1,2.363555878E-1,2.023225069E0,8.554109573E0
1.071799844E1,4.583076835E-1,1.661614299E0,7.989221096E0
1.073799844E1,4.623011947E-1,1.364503384E0,8.244414330E0
1.075800625E1,4.925830662E-1,1.151543975E0,8.757817268E0
1.077999844E1,1.916318983E-1,1.136403084E0,9.015433311E0
1.080000156E1,2.859538794E-1,1.229221463E0,8.991578102E0
1.082199844E1,-1.366227269E-1,1.605034590E0,9.476163864E0
1.084199844E1,1.711375415E-1,1.345234871E0,1.043675613E1
1.086200000E1,1.904539615E-1,1.054119110E0,1.119993210E1
1.088399844E1,-1.359619349E-1,8.903174400E-1,1.098245239E1
1.090399844E1,6.672161072E-2,1.700295091E0,1.072763252E1
1.092400000E1,3.583162129E-1,2.273974419E0,8.879097939E0
1.094400000E1,-1.581810832E0,2.210173845E0,1.145696354E1
1.096600000E1,-6.581181288E-2,4.892982244E-1,1.342593670E1
1.098800000E1,4.109790921E-1,3.164847493E-1,1.236514187E1
1.100800000E1,2.077783942E-1,2.798821628E-1,1.073034286E1
1.103000000E1,2.668960392E-1,4.806503654E-1,1.022702408E1
1.105000312E1,5.854206085E-1,6.836786270E-1,1.021551228E1
1.107200000E1,5.089594126E-1,1.096065521E0,9.769788742E0
1.109200469E1,9.385270625E-2,1.556872845E0,8.862205505E0
1.111201563E1,-2.208315879E-1,1.797748566E0,8.235699654E0
1.113400156E1,-1.314991266E-1,2.074221373E0,8.165156364E0
1.115599844E1,-3.656041920E-1,2.234747887E0,8.493765831E0
1.117600469E1,-4.489702880E-1,2.045385599E0,8.964312553E0
1.119800000E1,-3.313479424E-1,1.737146616E0,9.561196327E0
1.121999844E1,2.418431044E-1,1.299218416E0,1.001081848E1
1.124000000E1,9.156193137E-1,1.007125735E0,9.245267868E0
1.126200000E1,1.022908330E0,7.786614299E-1,8.982911110E0
1.128200000E1,3.554719090E-1,8.914570212E-1,9.179129601E0
1.130200312E1,-3.517273962E-1,1.219864845E0,9.741240501E0
1.132400625E1,-1.806185767E-2,1.555665970E0,9.137671471E0
1.134599844E1,-5.448245257E-2,1.524905443E0,9.162887573E0
1.136601875E1,-6.981492043E-2,1.472414970E0,9.589793205E0
1.138800000E1,-1.677952260E-1,1.334652424E0,1.010649014E1
1.140800000E1,-2.349286526E-1,1.087676287E0,1.108587170E1
1.142999844E1,3.417100608E-1,1.057892323E0,1.028958988E1
1.144999844E1,-2.257923782E-1,8.409011364E-1,9.832259178E0
1.146999844E1,-1.542574644E0,7.877019644E-1,1.159136391E1
1.149000156E1,-1.314780593E0,1.614410162E0,1.063465118E1
1.151200000E1,-5.196758509E-1,1.385467052E0,9.408944130E0
1.153200625E1,-9.804064035E-1,1.408470631E0,9.231467247E0
1.155200781E1,-9.240469337E-1,1.806760430E-1,1.097073078E1
1.157400469E1,-7.314573526E-1,-2.625577450E-1,1.136747837E1
1.159600000E1,-8.211441636E-1,1.140597742E-2,1.102351761E1
1.161600000E1,-7.665659189E-1,2.067632526E-1,9.947601318E0
1.163600000E1,-6.564996839E-1,4.840884507E-1,9.339771271E0
1.165799844E1,-3.588812649E-1,8.125346303E-1,9.404692650E0
1.167799844E1,-2.633717656E-1,1.397744536E0,9.376039505E0
1.169800000E1,-1.311256438E-1,1.494872570E0,8.735273361E0
1.171999844E1,-2.068590140E-3,1.739358783E0,8.301032066E0
1.173999844E1,1.086776033E-1,1.836936831E0,8.247641563E0
1.175999844E1,9.408254921E-2,1.510224104E0,8.932459831E0
1.177999844E1,7.647079974E-2,1.242016077E0,1.013151455E1
1.179999844E1,1.679676175E-1,1.301689267E0,1.001281071E1
1.181999844E1,-1.592431515E-1,1.404323816E0,9.525111198E0
1.183999844E1,-2.330994755E-1,1.579253793E0,8.974951744E0
1.185999844E1,-5.658264756E-1,1.694108367E0,9.517402649E0
1.188000156E1,-5.038837194E-1,1.513690948E0,1.086428452E1
1.190200000E1,3.225468472E-2,1.288683891E0,1.154529095E1
1.192200469E1,6.754522026E-2,1.175447583E0,1.135019207E1
1.194400000E1,-2.389509082E-1,1.815934896E0,1.059956169E1
1.196400625E1,-2.608722076E-2,2.354927301E0,8.860125542E0
1.198599844E1,-1.090511009E-1,1.180044532E0,1.023122883E1
1.200600313E1,-1.530565321E-1,1.649796516E-1,1.233194923E1
1.202799844E1,2.148843855E-1,3.583641052E-1,1.245377541E1
1.204801875E1,1.552496254E-1,9.182626009E-1,1.056893539E1
1.206999844E1,3.031633794E-1,7.428824902E-1,9.637648582E0
1.209000000E1,4.026664197E-1,6.794840097E-1,9.726195335E0
1.211200313E1,3.624916971E-1,1.172478914E0,1.022368145E1
1.213200781E1,-8.528146148E-2,1.290101171E0,9.896145821E0
1.215201562E1,-2.244899273E-1,1.192551851E0,9.436458588E0
1.217400000E1,-6.255570054E-1,1.729312778E0,9.149135590E0
1.219400000E1,-7.471345663E-1,2.182544708E0,8.764013290E0
1.221400000E1,-4.425442517E-1,2.473583698E0,8.844937325E0
1.223400000E1,-1.836831570E-1,2.297552586E0,8.782171249E0
1.225400781E1,-2.815485597E-1,2.138079643E0,8.922816277E0
1.227599844E1,-2.147407383E-1,1.992780328E0,9.110177040E0
1.229600000E1,-1.302541494E-1,2.156189203E0,8.980056763E0
1.231600000E1,-1.532672048E-1,1.966415286E0,9.416290283E0
1.233800781E1,-5.343858004E-1,1.921519279E0,9.840513229E0
1.235800781E1,-1.461995393E-1,1.753771901E0,9.727870941E0
1.238000000E1,-4.403128326E-1,1.496031284E0,9.832105637E0
1.240000000E1,-7.622659206E-1,1.326713324E0,1.036620426E1
1.242000000E1,-9.761735201E-1,7.501704097E-1,1.078166485E1
1.244000000E1,-8.617594242E-1,8.168920279E-1,1.045085335E1
1.246000000E1,-3.691763282E-1,6.812078357E-1,9.512345314E0
1.248200781E1,-7.435528636E-1,-1.490151137E-2,1.177533531E1
1.250400000E1,-7.225413322E-1,1.108716607E0,1.043184376E1
1.252400000E1,3.600592017E-1,7.460236549E-1,8.680599213E0
1.254400000E1,6.643526554E-1,4.082784355E-1,1.004743099E1
1.256600938E1,-7.368491292E-1,7.980927825E-1,1.128557682E1
1.258800000E1,-9.665200710E-1,1.196344256E0,9.588404655E0
1.260999844E1,-5.876998901E-1,1.413881421E0,8.924980164E0
1.263000000E1,-8.589821458E-1,1.023281813E0,8.647416115E0
1.265199844E1,-6.814280748E-1,4.336186647E-1,9.602510452E0
1.267200469E1,4.188224673E-1,-1.209933758E-1,1.098166656E1
1.269201250E1,3.380804360E-1,-2.131414115E-1,1.108721256E1
1.271201719E1,-3.371036053E-2,4.056735337E-1,9.177674294E0
1.273400000E1,-2.435669303E-1,1.070945501E0,8.309364319E0
1.275400000E1,1.244410276E-1,1.243012071E0,8.143465042E0
1.277400000E1,-3.541119993E-1,1.705523968E0,8.693250656E0
1.279400000E1,-7.015681267E-1,2.169108391E0,8.877517700E0
1.281600000E1,-6.098893285E-1,1.547439575E0,9.241015434E0
1.283799844E1,-1.460367292E-1,8.674575686E-1,9.418090820E0
1.285800000E1,3.151727095E-2,8.339291811E-1,9.697886467E0
1.287800313E1,-2.121262699E-1,1.028290510E0,9.506130219E0
1.289999844E1,-3.679408878E-2,1.223475337E0,9.591574669E0
1.291999844E1,2.898899615E-1,9.821398258E-1,1.042685318E1
1.294000000E1,5.053681135E-1,9.352422357E-1,1.138256168E1
1.296000156E1,4.783327579E-1,9.223231077E-1,1.187431145E1
1.298200000E1,5.200206116E-2,1.117268562E0,1.215017223E1
1.300200625E1,-1.431636810E-1,1.778144956E0,1.122657394E1
1.302400000E1,-3.466420770E-1,1.949311137E0,1.023675346E1
1.304400000E1,-1.076433137E-1,1.382555723E0,1.093509483E1
1.306599844E1,4.243770540E-1,1.105785966E0,1.030037308E1
1.308599844E1,7.637216449E-1,8.893789053E-1,9.523052216E0
1.310600000E1,8.854811192E-1,5.777495503E-1,8.843194008E0
1.312800000E1,5.410512686E-1,5.425547957E-1,9.407670975E0
1.314801875E1,3.987877965E-1,6.677428484E-1,9.759656906E0
1.317000938E1,1.018014550E-1,6.875094175E-1,9.641920090E0
1.319200156E1,1.080168039E-1,1.148929596E0,9.252372742E0
1.321400000E1,1.055364087E-1,1.733756304E0,9.132001877E0
1.323400000E1,-1.943229884E-1,2.040386677E0,8.641775131E0
1.325400000E1,-2.912785709E-1,2.021405458E0,8.525876999E0
1.327400000E1,-2.514869571E-1,1.928826332E0,8.625762939E0
1.329400000E1,5.059427023E-2,1.672225356E0,8.736777306E0
1.331400000E1,-2.330037057E-1,1.616306424E0,9.126859665E0
1.333400469E1,-8.718150258E-1,1.858877301E0,9.396629333E0
1.335599844E1,-1.019259572E0,1.614965677E0,9.267601013E0
1.337600000E1,-1.128205299E0,1.465692043E0,9.599226952E0
1.339600000E1,-1.081537485E0,1.724457264E0,9.928073883E0
1.341600156E1,-9.992536306E-1,1.756108642E0,9.388143539E0
1.343800000E1,-7.707222104E-1,1.220286250E0,9.680379868E0
1.345800781E1,-8.212782145E-1,8.033887148E-1,1.084298515E1
1.347999844E1,-1.629781008E0,1.046409845E0,1.094876099E1
1.350000469E1,-1.488331556E0,1.080129743E0,1.106201649E1
1.352200000E1,-7.576978207E-1,1.228206277E0,1.274872208E1
1.354200312E1,-3.215987682E-1,1.131748796E0,1.284557247E1
1.356399844E1,-2.546472847E-1,-1.056513265E-1,1.196052170E1
1.358400312E1,-2.893153429E-1,3.277279139E-1,9.613811493E0
1.360600000E1,-7.330183983E-1,1.570596337E0,8.698987007E0
1.362800000E1,-1.142187476E0,1.892884612E0,9.897170067E0
1.364801875E1,-1.886343658E-1,1.690383077E0,1.119746113E1
1.367000000E1,4.707670808E-1,1.063552260E0,1.105395222E1
1.369000312E1,2.753140628E-1,6.341474056E-1,1.003765202E1
1.371200469E1,3.526276052E-1,8.179263473E-1,9.494426727E0
1.373400000E1,3.373047113E-1,1.098143697E0,9.397154808E0
1.375400000E1,2.317682952E-1,1.549220800E0,9.230816841E0
1.377400625E1,-1.847366095E-1,1.975973010E0,8.686058998E0
1.379600000E1,-4.866933227E-1,2.060421228E0,8.051863670E0
1.381600781E1,-4.368364513E-1,2.124174118E0,7.821933746E0
1.383799844E1,-2.383762896E-1,1.811223149E0,8.584879875E0
1.385800313E1,-8.068460226E-2,1.368832111E0,9.777153015E0
1.388000000E1,1.905305833E-1,1.503165960E0,9.492617607E0
1.390000000E1,-2.395350933E-1,1.672694683E0,9.358235359E0
1.392199844E1,-1.013704985E-1,1.824870110E0,8.831386566E0
1.394200625E1,-4.116207361E-1,2.015908241E0,9.098110199E0
1.396400313E1,-3.277470767E-1,2.017421484E0,9.702646255E0
1.398600156E1,-4.262732565E-1,1.619074106E0,1.016296482E1
1.400600625E1,-3.929076493E-1,1.267729878E0,1.019170475E1
1.402800000E1,-5.829784870E-1,1.440964580E0,1.061419487E1
1.404801875E1,-7.975372672E-1,1.968397737E0,9.247776031E0
1.406999844E1,-1.789972186E0,2.166331053E0,1.071434975E1
1.409000000E1,-1.148527384E0,1.003362060E0,1.355635357E1
1.411200625E1,7.324438095E-1,-2.037944458E-2,1.230394650E1
1.413400000E1,3.482988775E-1,7.634534836E-1,1.038793373E1
1.415400000E1,-5.158067942E-1,1.095270634E0,9.152420044E0
1.417600000E1,-7.531775236E-1,1.185062766E0,9.355400085E0
1.419800000E1,8.486008644E-2,1.038719654E0,9.182070732E0
1.421800000E1,1.651041508E-1,7.391283512E-1,8.972261429E0
1.424000000E1,-6.513186097E-1,1.049282789E0,8.953318596E0
1.426200000E1,-1.172967315E0,1.094427824E0,9.020950317E0
1.428200000E1,-1.662562370E0,1.883968592E0,8.962080956E0
1.430200000E1,-1.620050907E0,2.525509357E0,8.410456657E0
1.432200156E1,-1.164846182E0,1.916874528E0,8.977719307E0
1.434400000E1,-7.563761622E-2,1.129728079E0,9.349845886E0
1.436400000E1,-4.617744684E-1,1.600839853E0,9.669893265E0
1.438400000E1,-1.229269266E0,1.781707406E0,9.554616928E0
1.440400000E1,-1.461928368E0,1.756788611E0,9.217005730E0
1.442599844E1,-1.623297453E0,2.344699144E0,9.464900970E0
1.444599844E1,-1.459830880E0,2.746350288E0,9.402432442E0
1.446600000E1,-1.745727420E0,2.573881865E0,9.280806541E0
1.448800000E1,-1.229978085E0,1.723499656E0,9.556772232E0
1.450999844E1,-1.346680999E0,1.734905601E0,9.952610016E0
1.453000000E1,-1.153593421E0,1.404591918E0,1.093680954E1
1.455201406E1,-1.390830040E0,1.543283224E0,1.065245438E1
1.457400000E1,-1.012804866E0,1.616124511E0,1.239235973E1
1.459400000E1,-1.051830292E0,6.224637032E-1,1.239639091E1
1.461400000E1,-2.952337861E-1,2.433945537E-1,1.228496456E1
1.463400000E1,2.085732669E-1,-2.372175008E-1,1.176317310E1
1.465400625E1,6.322990656E-1,-3.661596477E-1,1.122266674E1
1.467600000E1,-3.364140689E-1,1.257722080E-1,9.503400803E0
1.469600625E1,-5.951602459E-1,1.714535654E-1,9.367591858E0
1.471799844E1,-6.910719872E-1,8.724949956E-1,9.907158852E0
1.473799844E1,-7.822048068E-1,1.261265516E0,1.002008915E1
1.475799844E1,-4.693593085E-1,1.068560958E0,9.893405914E0
1.477800781E1,1.335198432E-1,5.466728806E-1,9.555278778E0
1.480000000E1,1.698829830E-1,9.207142591E-1,9.112475395E0
1.482000313E1,-4.051084816E-1,1.587020516E0,8.523760796E0
1.484200000E1,3.801992396E-3,1.616248846E0,8.082230568E0
1.486202656E1,-2.229576409E-1,1.912900090E0,7.596648693E0
1.488400000E1,-5.636333823E-1,1.841849685E0,7.820516109E0
1.490400313E1,-8.636459708E-1,1.717025638E0,8.704618454E0
1.492599844E1,-7.674086690E-1,1.272269130E0,9.473396301E0
1.494599844E1,-5.303922892E-1,1.090194941E0,9.349452972E0
1.496600000E1,-3.516507447E-1,8.543373346E-1,9.220836639E0
1.498600625E1,-6.225403547E-1,1.281108618E0,9.453505516E0
1.500799844E1,-9.819004536E-1,1.824056029E0,9.670353889E0
1.502800313E1,-1.167125463E0,1.937100649E0,1.022957134E1
1.504801875E1,-1.471275210E0,1.829658628E0,1.059200573E1
1.507000000E1,-1.429654360E0,1.502466917E0,1.011167145E1
1.509000000E1,-1.392984867E0,2.030924797E0,9.063355446E0
1.511000781E1,-2.393100262E0,1.822236419E0,9.553708076E0
1.513200000E1,-8.963795304E-1,6.625426412E-1,1.244381523E1
1.515200156E1,-8.708573580E-1,9.184731841E-1,1.228412247E1
1.517399844E1,-5.861005932E-2,7.204536200E-1,1.053196907E1
1.519400313E1,-1.766681433E0,1.074354887E0,9.545423508E0
1.521600000E1,-2.167614460E0,1.572818160E0,9.831119537E0
1.523799844E1,-1.497946620E0,8.903461099E-1,1.058381748E1
1.525799844E1,-3.544663489E-1,5.557325482E-1,1.092489529E1
1.527800000E1,4.118984565E-2,5.937811732E-1,1.100351143E1
1.529800000E1,-3.763685375E-2,9.783857465E-1,9.576979637E0
1.531800156E1,-1.908561885E-1,1.167767048E0,9.025872231E0
1.533999844E1,-5.608944297E-1,1.813071489E0,8.685713768E0
1.536000469E1,-8.414852619E-1,2.195847034E0,9.113260269E0
1.538200000E1,-8.350304961E-1,1.877293587E0,8.522171021E0
1.540200000E1,-1.427901983E-1,1.626457930E0,8.037565231E0
1.542200313E1,-5.574563742E-1,1.186844110E0,8.823734283E0
1.544399844E1,-4.372386634E-1,9.905674458E-1,8.953884125E0
1.546400000E1,-1.595591754E-1,4.921808243E-1,9.422600746E0
1.548400469E1,-4.352658689E-1,4.154131413E-1,1.053110600E1
1.550600000E1,-3.215700090E-1,3.863571286E-1,1.048806000E1
1.552600312E1,3.639186616E-4,2.790106833E-1,1.030332184E1
1.554801875E1,1.787032187E-2,4.762067199E-1,1.014169407E1
1.556999844E1,-2.779763937E-1,7.775887847E-1,1.056226921E1
1.559003281E1,6.353253871E-2,1.298988581E0,1.143371105E1
1.561200000E1,2.616383731E-1,1.910956025E0,1.133746529E1
1.563200156E1,3.932811618E-1,2.187591553E0,1.028350735E1
1.565400000E1,2.862220109E-1,1.615731835E0,1.077532482E1
1.567400469E1,1.168083102E-1,1.610512495E0,1.078044796E1
1.569600000E1,3.605667874E-2,1.503884315E0,1.035652161E1
1.571600625E1,-4.437126219E-1,1.021251559E0,1.050279808E1
1.573799844E1,-1.230935693E0,3.291261196E-1,1.112591267E1
1.575799844E1,-1.512991786E0,2.964692116E-1,1.123540401E1
1.577800000E1,-6.940407753E-1,1.394459724E0,1.110343552E1
1.580000000E1,6.890703440E-1,1.736313343E0,9.446802139E0
1.582000000E1,3.906283975E-1,1.669888616E0,8.731662750E0
1.584000000E1,-8.772259355E-1,1.448951602E0,7.482684612E0
1.586200781E1,-8.182136416E-1,1.816241503E0,6.121447086E0
1.588400000E1,1.857900526E-3,1.835069418E0,6.546283722E0
1.590400000E1,5.915880799E-1,1.998631716E0,6.872671127E0
1.592400000E1,1.279068708E0,2.350311279E0,7.587512493E0
1.594400000E1,1.498521209E0,2.551692486E0,8.613781929E0
1.596600000E1,1.077304602E0,1.390542746E0,9.483078003E0
1.598800000E1,1.452255726E0,1.141181827E0,1.049922562E1
1.600800000E1,1.062968135E0,1.094609857E0,1.099227810E1
1.603000000E1,1.008179188E0,9.254834652E-1,1.031186485E1
1.605200781E1,7.648420930E-1,1.017928362E0,1.070129585E1
1.607400000E1,-1.944091730E-2,1.001073122E0,1.094842625E1
1.609400000E1,-1.145864949E-1,1.668030739E0,1.074328136E1
1.611400000E1,7.542693615E-2,1.241786242E0,9.991329193E0
1.613599844E1,-1.564850286E-2,-5.937620299E-4,1.011664200E1
1.615599844E1,-3.367683887E-1,-4.684686661E-1,1.174989986E1
1.617600000E1,-8.946557045E-1,1.324951202E-1,1.338367367E1
1.619600000E1,-9.862866402E-1,7.891193032E-1,1.207095242E1
1.621600000E1,3.369120359E-1,7.781059742E-1,1.058728409E1
1.623799844E1,2.192389727E0,1.733622313E0,7.564585686E0
1.625799844E1,2.385046482E0,9.306740761E-1,8.317590714E0
1.627800000E1,1.259474635E0,-4.971224666E-1,8.366777420E0
1.630000000E1,1.476705313E0,-1.542823613E-1,9.205331802E0
1.632000000E1,8.307113647E-1,3.813867569E-1,9.738061905E0
1.634000000E1,-1.129009798E-1,6.268977523E-1,1.003962517E1
1.636200625E1,-1.803600043E-1,6.857855916E-1,9.454884529E0
1.638400000E1,-8.802713752E-1,1.055335283E0,8.855117798E0
1.640400000E1,-2.017182112E0,1.417731285E0,8.141894341E0
1.642400000E1,-3.518327475E-1,4.986834824E-1,8.374582291E0
1.644400000E1,2.518604398E-1,-1.194227766E-2,8.707568169E0
1.646600000E1,-3.075687289E-1,-3.475423157E-1,9.485903740E0
1.648800000E1,-6.717076302E-1,-4.457428753E-1,9.907732964E0
1.650800000E1,-8.032163978E-1,-1.849377155E-1,9.448602676E0
1.653000000E1,-4.220019877E-1,-3.084306419E-1,9.830907822E0
1.655201094E1,7.561942339E-1,-2.561029792E-1,1.098875427E1
1.657400000E1,1.430832386E0,3.301891387E-1,1.213041401E1
1.659400000E1,-4.467580467E-2,-6.859579682E-1,1.229313374E1
1.661400000E1,-3.971405923E-1,-1.082303762E0,1.252475834E1
1.663400000E1,-3.319800198E-1,-7.444913983E-1,1.265596104E1
1.665400000E1,6.506770253E-1,-5.731623173E-1,1.318129730E1
1.667400000E1,1.341145635E0,-8.437166810E-1,1.196936131E1
1.669400000E1,1.178186655E0,-1.087925315E0,1.108008766E1
1.671400000E1,6.713341177E-2,-1.391711235E0,9.980948448E0
1.673400000E1,-4.840788543E-1,-1.528113604E0,8.867318153E0
1.675400000E1,-7.101585269E-1,-1.319569111E0,9.425215721E0
1.677600000E1,-3.898526728E-1,-8.144499660E-1,9.897313118E0
1.679600000E1,7.263050675E-1,5.559719205E-1,9.236303329E0
1.681600000E1,8.872145414E-1,6.032621861E-1,9.515036583E0
1.683600000E1,1.159655571E0,-3.143874109E-1,8.500210762E0
1.685800000E1,1.265948534E0,-3.888470829E-1,9.219630241E0
1.688000000E1,6.704913974E-1,-2.416324168E-1,1.004169369E1
1.690200000E1,1.403002162E-2,-1.747767255E-2,1.117966652E1
1.692200000E1,-1.842577569E-2,5.829402059E-2,1.005029392E1
1.694400000E1,4.096575081E-1,4.326418042E-1,8.643020630E0
1.696400000E1,1.101055026E0,1.102462888E0,8.669155121E0
1.698400469E1,7.466078401E-1,1.730912089E0,8.403102875E0
1.700600000E1,6.819164753E-1,1.193260550E0,9.224628448E0
1.702799844E1,9.677267671E-1,1.456325769E0,1.018247223E1
1.704801875E1,6.120154262E-1,1.679676175E0,1.134842014E1
1.707000000E1,5.336866975E-1,1.489720225E0,1.176730919E1
1.709000000E1,1.144878507E0,1.894704223E0,1.127634525E1
1.711000000E1,7.028322816E-1,2.606653452E0,9.544734001E0
1.713000000E1,-3.802662790E-1,3.390668392E0,8.857770920E0
1.715200156E1,-3.932141066E-1,2.412857533E0,1.039441681E1
1.717400000E1,6.818974018E-1,1.402686119E0,1.151963520E1
1.719400000E1,1.494451165E0,9.486880302E-1,1.074970722E1
1.721400000E1,1.604574800E0,1.340743423E0,9.750098228E0
1.723400000E1,1.553118706E0,1.893325090E0,8.511961937E0
1.725600000E1,1.614994407E0,1.844598413E0,7.545413017E0
1.727800000E1,1.501537919E0,1.868865967E0,7.507373333E0
1.730000000E1,1.299812078E0,1.595505595E0,8.788779259E0
1.732000000E1,1.032044530E0,8.850309849E-1,9.340134621E0
1.734000000E1,7.667095661E-1,9.457288384E-1,9.442960739E0
1.736200000E1,4.727111757E-2,2.295359373E0,9.681069374E0
1.738200312E1,-1.392659247E-1,2.695286751E0,8.685761452E0
1.740399844E1,-2.436243892E-1,3.124797106E0,7.506253242E0
1.742400000E1,-5.755181909E-1,3.554173231E0,8.149968147E0
1.744400000E1,-4.732187390E-1,2.882503986E0,9.406780243E0
1.746400000E1,1.239526123E-1,1.782569289E0,9.470782280E0
1.748599844E1,2.099331766E-1,1.675088882E0,8.844821930E0
1.750600000E1,1.079401895E-1,2.252014875E0,8.954236984E0
1.752799844E1,5.217157006E-1,1.806099653E0,9.168221474E0
1.754801875E1,7.508886456E-1,1.454611540E0,9.165788651E0
1.757000000E1,2.815102339E-1,1.562752962E0,1.036001778E1
1.759000000E1,-3.234087676E-2,1.679867625E0,1.211512947E1
1.761200000E1,-1.538035125E-1,1.875129104E0,1.100989914E1
1.763200156E1,-4.187841713E-1,1.622818589E0,1.063295650E1
1.765200625E1,-3.831584752E-1,8.609358072E-1,1.211218929E1
1.767200625E1,-2.775454521E-1,1.016836643E0,1.229078770E1
1.769400000E1,2.270660922E-2,1.605982661E0,1.046903992E1
1.771400000E1,-1.611680686E-1,1.826249123E0,9.225921631E0
1.773400000E1,-9.404041171E-1,2.281291246E0,8.671223640E0
1.775400000E1,-1.684186816E0,2.252043724E0,9.338956833E0
1.777400000E1,-1.693485856E0,1.860083938E0,9.855894089E0
1.779400000E1,-8.791412711E-1,1.368506551E0,9.538988113E0
1.781400000E1,2.092149258E-1,8.944929242E-1,8.232443810E0
1.783400000E1,5.833232999E-1,1.144447565E0,7.937985420E0
1.785400000E1,-1.163198948E-1,1.626429081E0,8.385049820E0
1.787400312E1,-2.834926546E-1,1.596357942E0,7.765928268E0
1.789600000E1,6.562028080E-2,2.303499699E0,6.413137436E0
1.791800000E1,3.065057099E-1,2.906752348E0,8.665324211E0
1.794000000E1,-2.144917399E-1,2.471591711E0,1.046114826E1
1.796000000E1,-4.824220538E-1,2.254782438E0,9.962454796E0
1.798200000E1,-3.331866860E-1,2.129690170E0,9.967492104E0
1.800200000E1,-2.576256692E-1,1.532882810E0,1.123581600E1
1.802200000E1,5.020928383E-1,1.413306832E0,1.171671581E1
1.804200469E1,5.191491246E-1,1.340465665E0,1.080136395E1
1.806400156E1,-2.664076090E-1,1.683842063E0,1.006711006E1
1.808599844E1,-9.100168943E-1,1.684799671E0,1.180143166E1
1.810600000E1,-4.697136581E-1,1.589309454E0,1.191153622E1
1.812600000E1,-9.244587421E-1,1.684474111E0,1.052782249E1
1.814600000E1,-1.924612522E0,1.908542752E0,1.136524677E1
1.816600156E1,-1.238616347E0,1.346997023E0,1.190638351E1
1.818603281E1,2.781583667E-1,6.465110183E-1,1.156527710E1
1.820800000E1,1.087867856E0,1.166244388E0,9.747609138E0
1.823000000E1,1.033835411E0,1.979889870E0,7.906190395E0
1.825200000E1,1.078329325E0,1.302867055E0,8.039605141E0
1.827200156E1,8.288438916E-1,4.438754320E-1,9.189252853E0
1.829400000E1,9.028438926E-1,-3.785903454E-1,1.014214420E1
1.831400000E1,1.100413442E0,-5.591993332E-1,1.087424374E1
1.833400000E1,7.963593602E-1,-2.219041884E-1,1.133538628E1
1.835400000E1,5.711032748E-1,5.395956039E-1,1.096921635E1
1.837400000E1,1.761557758E-1,1.385869265E0,9.759972572E0
1.839400000E1,-1.798907369E-1,2.710609913E0,8.324783325E0
1.841599844E1,-3.040923476E-1,3.482270479E0,7.385164261E0
1.843600000E1,-5.513654947E-1,2.757794619E0,8.055511475E0
1.845600000E1,-4.637568593E-1,2.053985596E0,8.701026917E0
1.847600000E1,-2.775646150E-1,1.828193188E0,9.355323792E0
1.849600000E1,-2.682271898E-1,1.405319810E0,9.304366112E0
1.851799844E1,-7.224743068E-2,1.164424777E0,8.098607063E0
1.853800000E1,5.599559098E-2,1.291193008E0,7.404528141E0
1.855800000E1,5.918849707E-1,1.254772305E0,8.520149231E0
1.857800000E1,1.081547141E0,1.469618440E0,1.013303757E1
1.860000000E1,4.036624134E-1,2.269492388E0,9.576184273E0
1.862200000E1,-9.343323708E-1,1.762687922E0,9.643337250E0
1.864400000E1,-8.968966603E-1,6.523241997E-1,1.256101704E1
1.866400000E1,1.258392446E-2,1.593580656E-2,1.375444889E1
1.868400000E1,7.219954729E-1,-8.092401549E-3,1.310255527E1
1.870599844E1,-2.920926083E-3,4.814164937E-1,1.135706806E1
1.872599844E1,-1.341844678E0,8.441764116E-1,1.128774166E1
1.874600000E1,-2.141958237E0,6.845405698E-1,1.190057087E1
1.876799844E1,-8.616827130E-1,7.338036299E-1,1.125868511E1
1.878800000E1,3.306967020E-1,6.074376702E-1,9.906468391E0
1.881000000E1,5.616797209E-1,9.939001203E-1,9.101289749E0
1.883000312E1,3.186682463E-1,1.430181146E0,8.639476776E0
1.885200469E1,1.027878672E-1,1.793142200E0,7.899917603E0
1.887400000E1,8.243715763E-2,2.286242485E0,7.098444462E0
1.889400000E1,3.128838539E-1,2.567790985E0,6.591773510E0
1.891400000E1,5.826050639E-1,2.439136028E0,6.980045795E0
1.893400000E1,7.248685360E-1,2.305999279E0,7.677113056E0
1.895400625E1,2.964500487E-1,2.218859911E0,9.171421051E0
1.897600000E1,-2.403012365E-1,2.255836010E0,1.031925869E1
1.899600000E1,-4.882639050E-1,2.411679506E0,1.073328304E1
1.901799844E1,-3.709959090E-1,2.541119337E0,1.040093803E1
1.903799844E1,-4.748563766E-1,2.112164736E0,1.072733593E1
1.905800000E1,-7.574295998E-1,1.465433359E0,1.138929367E1
1.907800000E1,-4.519294947E-2,9.742485285E-1,1.259949589E1
1.910000000E1,6.976033449E-1,1.329433084E0,1.088108158E1
1.912200000E1,5.277203321E-1,2.159119844E0,8.926168442E0
1.914200156E1,1.204283461E-1,1.643140674E0,1.013914776E1
1.916399844E1,1.266341209E-1,1.642738461E0,1.109940434E1
1.918400000E1,4.030111730E-1,2.118475914E0,9.518972397E0
1.920400000E1,3.557305038E-1,1.800296068E0,7.219935417E0
1.922400000E1,-3.328897804E-2,1.805362225E0,7.654233932E0
1.924600000E1,4.442297816E-1,1.444393158E0,1.032514858E1
1.926799844E1,1.212586522E0,5.078485012E-1,1.200998592E1
1.928800000E1,1.136795640E0,-3.599538505E-1,1.250900459E1
1.931000000E1,5.799906254E-1,-5.967595577E-1,1.241119766E1
1.933200000E1,-2.639367804E-2,7.882573605E-1,1.159296417E1
1.935201719E1,-7.504481673E-1,2.590871096E0,1.013789272E1
1.937400000E1,-1.295473814E0,3.230343103E0,8.400622368E0
1.939400000E1,-1.331971049E0,3.033712149E0,7.920660496E0
1.941400000E1,-9.771886468E-1,2.822706223E0,8.046720505E0
1.943400000E1,-5.285439491E-1,2.511641979E0,8.427283287E0
1.945400000E1,-4.514411092E-1,1.865820527E0,8.157390594E0
1.947400000E1,-7.200418115E-1,1.824391246E0,8.878533363E0
1.949400000E1,-4.827476740E-1,1.687538743E0,8.866964340E0
1.951400000E1,-2.836650014E-1,1.225237608E0,8.581728935E0
1.953400000E1,-3.268660009E-1,7.301549315E-1,9.451810837E0
1.955400000E1,-3.847003281E-1,7.058298588E-1,1.106386471E1
1.957400000E1,-4.061523825E-2,1.250663996E0,1.217946720E1
1.959600000E1,4.296346903E-1,1.267748952E0,9.738147736E0
1.961600000E1,9.313349128E-1,1.440179348E0,8.770698547E0
1.963600000E1,6.959753036E-1,3.565253615E-1,1.029876328E1
1.965799844E1,1.132160544E0,-5.216391087E-1,1.132661438E1
1.967799844E1,1.892463207E0,-6.539618373E-1,1.120353317E1
1.969800000E1,1.547698140E0,-1.298040450E-1,9.644678116E0
1.971800000E1,-2.581715584E-1,1.016290665E0,8.623837471E0
1.974000000E1,-2.188549280E0,2.666039228E0,8.945896149E0
1.976000000E1,-2.638046503E0,2.815399170E0,9.396437645E0
1.978199844E1,-6.947494745E-1,1.657984614E0,9.176870346E0
1.980199844E1,1.038068414E0,9.173336029E-1,8.174427032E0
1.982199844E1,1.719544411E0,9.289502501E-1,8.472237587E0
1.984200156E1,1.438800335E0,1.197512746E0,8.901737213E0
1.986399844E1,7.778570056E-1,1.490668297E0,8.882813454E0
1.988399844E1,3.377165198E-1,2.317558527E0,8.704014778E0
1.990399844E1,1.032159567E0,2.957748890E0,7.852502823E0
1.992399844E1,1.699988484E0,2.777168751E0,8.012502670E0
1.994399844E1,1.725252151E0,2.829956055E0,9.903184891E0
1.996400000E1,4.972182214E-1,1.918148160E0,1.121420097E1
1.998600000E1,-2.184469625E-2,1.624638200E0,1.242021751E1
2.000799844E1,-2.059492320E-1,2.243491411E0,1.156126499E1
2.002799844E1,-5.139968395E-1,2.744578838E0,1.038164139E1
2.004801875E1,-1.374712229E0,2.578210354E0,1.128465843E1
2.007000000E1,-5.471708179E-1,1.471524239E0,1.273736286E1
2.009000000E1,6.001592875E-1,7.016734481E-1,1.340246391E1
2.011199844E1,7.912262082E-1,1.740029216E0,1.047626114E1
2.013200469E1,5.627810955E-1,2.621966839E0,9.345986366E0
2.015200781E1,4.896142483E-1,1.600475907E0,1.026173019E1
2.017399844E1,1.126012206E0,9.428749681E-1,9.957130432E0
2.019399844E1,6.317148805E-1,7.537809014E-1,9.059084892E0
2.021399844E1,-4.806312025E-1,1.112690926E0,8.899754524E0
2.023399844E1,-5.494980216E-1,1.143997431E0,9.169284821E0
2.025400000E1,3.231885135E-1,7.315626740E-1,8.926406860E0
2.027400000E1,1.431483626E0,3.632674217E-1,8.683444023E0
2.029400000E1,1.920925498E0,3.012863360E-2,8.349481583E0
2.031400000E1,1.494958758E0,1.713865399E-1,8.839871407E0
2.033400000E1,1.001915932E0,9.361233115E-1,9.016420364E0
2.035400000E1,1.014997840E0,1.354486108E0,8.430395126E0
2.037400312E1,1.173838735E0,1.716786265E0,7.752262115E0
2.039600000E1,8.951728344E-1,2.407274008E0,7.934336662E0
2.041600000E1,5.035197735E-1,2.619611025E0,8.838942528E0
2.043800000E1,3.174711168E-1,2.345915556E0,9.896317482E0
2.046000000E1,2.028750777E-1,1.928012371E0,1.019953918E1
2.048200000E1,-2.986910343E-1,1.982782125E0,9.976935387E0
2.050200000E1,-9.017425776E-1,2.041507006E0,9.974052429E0
2.052200000E1,-1.170640111E0,1.683257818E0,1.080132580E1
2.054399844E1,-2.314331084E-1,1.226003647E0,1.124290371E1
2.056399844E1,1.098488569E0,9.440912008E-1,1.088840866E1
2.058400000E1,8.459672332E-1,8.025364280E-1,1.002456093E1
2.060599844E1,-5.747999549E-1,2.060871363E0,9.561407089E0
2.062599844E1,-1.427633762E0,1.829227567E0,1.099302578E1
2.064599844E1,-7.166036963E-1,3.542173505E-1,1.224197483E1
2.066599844E1,6.742550731E-1,-6.481774449E-1,1.180349159E1
2.068599844E1,1.628737092E0,-6.004466414E-1,1.094945049E1
2.070599844E1,4.585758150E-1,3.547249362E-2,1.132071495E1
2.072599844E1,-1.286711097E0,9.248513579E-1,1.098749924E1
2.074600000E1,-1.988470674E0,1.564888597E0,9.982403755E0
2.076600000E1,-9.933925867E-1,1.588706017E0,9.475378990E0
2.078800000E1,5.793489218E-1,9.855300188E-1,1.014450073E1
2.081000000E1,1.620146751E0,4.531649053E-1,9.676664352E0
2.083000000E1,1.766078115E0,7.637982368E-1,9.256443024E0
2.085000000E1,1.199389696E0,1.332890391E0,8.780945778E0
2.087200000E1,3.673088253E-1,1.995969415E0,8.499186516E0
2.089200000E1,2.820752561E-1,2.311716557E0,8.120222092E0
2.091200625E1,3.534320593E-1,2.494806051E0,7.849285126E0
2.093400000E1,5.204994604E-2,2.463058949E0,8.159400940E0
2.095400000E1,-2.560359240E-1,2.053487539E0,9.844440460E0
2.097400000E1,-1.741542369E-1,1.202942729E0,1.094076443E1
2.099400000E1,4.535767138E-1,8.083878160E-1,1.071946430E1
2.101400000E1,4.108545780E-1,9.839977622E-1,1.119735527E1
2.103400000E1,7.290248275E-1,5.089498162E-1,1.185984039E1
2.105400000E1,5.290419459E-1,2.613702118E-1,1.177511501E1
2.107400000E1,3.600879312E-1,7.437061071E-1,1.212304974E1
2.109400000E1,4.505121410E-1,1.045040250E0,1.137019825E1
2.111400000E1,4.644272327E-1,1.601079345E0,9.789287567E0
2.113400000E1,1.404630244E-1,1.805888891E0,9.513523102E0
2.115400000E1,2.383762896E-1,8.247163296E-1,1.183204842E1
2.117600000E1,5.878531337E-1,3.378122747E-1,1.157089901E1
2.119600000E1,5.475060344E-1,9.165866375E-1,1.028985786E1
2.121800000E1,5.220317468E-2,1.740814447E0,8.413800240E0
2.124000000E1,-2.934812307E-1,2.404506445E0,7.406960964E0
2.126200000E1,1.339795347E-2,1.979870677E0,8.009984016E0
2.128200000E1,8.093359470E-1,9.150447249E-1,9.023161888E0
2.130400000E1,1.232381821E0,4.495065808E-1,9.613572121E0
2.132400000E1,6.305944324E-1,7.888990641E-1,9.899517059E0
2.134400000E1,-4.072728455E-1,1.814354777E0,9.073123932E0
2.136400000E1,-9.637907147E-1,2.569849968E0,8.839603424E0
2.138400000E1,-5.688335896E-1,2.641867399E0,8.375663757E0
2.140400000E1,-1.991975866E-2,2.371897221E0,7.939191818E0
2.142599844E1,3.927927315E-1,2.266466379E0,8.060022354E0
2.144599844E1,2.334825397E-1,1.961195946E0,8.885524750E0
2.146600000E1,-1.124987453E-1,1.611910701E0,9.790866852E0
2.148800000E1,-1.374846399E-1,1.390715241E0,9.988005638E0
2.150800000E1,3.852078915E-1,1.448673964E0,9.305505753E0
2.153000000E1,7.028896809E-1,1.170343280E0,9.182357788E0
2.155000000E1,6.543065906E-1,9.805597067E-1,9.945523262E0
2.157199844E1,6.616902947E-1,1.280438185E0,1.107234001E1
2.159200625E1,1.016396046E0,1.265182376E0,1.206991768E1
2.161400000E1,1.397198558E0,1.306352973E0,1.158194160E1
2.163400000E1,-2.090233862E-1,2.986421824E0,9.550001144E0
2.165400000E1,-1.471351862E0,4.643851280E0,8.515878677E0
2.167400000E1,-1.556652427E0,3.695594072E0,1.113571930E1
2.169400000E1,-3.628843725E-1,1.262443304E0,1.261402416E1
2.171400000E1,1.154666066E0,-4.968351722E-1,1.195343494E1
2.173400000E1,1.362741351E0,-8.958528638E-1,9.752072334E0
2.175400000E1,1.753704846E-1,4.442872405E-1,9.173230171E0
2.177400000E1,-1.223973393E0,1.431186795E0,9.701305389E0
2.179400000E1,-1.858628273E0,1.745392203E0,9.529162407E0
2.181400000E1,-1.035722017E0,1.968253970E0,8.823792458E0
2.183400000E1,3.804865479E-1,1.634971499E0,7.920929432E0
2.185400000E1,1.171664834E0,1.432192206E0,7.199814320E0
2.187400000E1,1.034151435E0,1.870810032E0,6.909014702E0
2.189400000E1,8.516175747E-1,2.345570564E0,6.866675854E0
2.191400000E1,8.479304910E-1,1.925254107E0,7.538948536E0
2.193400000E1,1.285513878E0,1.695276737E0,7.987813473E0
2.195400000E1,1.603406549E0,1.561843157E0,8.484341621E0
2.197400000E1,1.428945780E0,1.578851581E0,8.900818825E0
2.199599844E1,3.917297125E-1,1.889379501E0,9.923275948E0
2.201599844E1,-3.077315390E-1,1.820876598E0,1.126395321E1
2.203599844E1,-9.650548548E-2,1.688122869E0,1.193244267E1
2.205599844E1,6.338217854E-1,1.713223696E0,1.145810318E1
2.207599844E1,6.641515493E-1,1.838382959E0,1.115624237E1
2.209599844E1,4.374685138E-2,1.086929321E0,1.115416431E1
2.211599844E1,1.016099155E-1,2.988442779E-1,1.164148903E1
2.213599844E1,4.123390019E-1,2.559114397E-1,1.248707390E1
2.215599844E1,2.204580791E-2,8.617976904E-1,1.232321453E1
2.217600000E1,1.266436875E-1,1.355041504E0,1.133781815E1
2.219600000E1,4.603954256E-1,1.297599912E0,1.104652119E1
2.221799844E1,1.101533890E0,1.322997570E0,9.911180496E0
2.223799844E1,1.396537900E0,1.349506140E0,8.736537933E0
2.225799844E1,1.188558340E0,1.672282815E0,7.970852852E0
2.227799844E1,4.584704638E-1,1.967928410E0,8.061286926E0
2.229799844E1,1.846312582E-1,1.485630870E0,9.423874855E0
2.231799844E1,6.710564494E-1,5.693124533E-1,1.063170147E1
2.233799844E1,1.274040937E0,4.726154357E-2,1.125967216E1
2.235799844E1,1.303566217E0,5.175306201E-1,1.067302513E1
2.237799844E1,7.892629504E-1,1.178167462E0,9.626079559E0
2.239799844E1,1.020887569E-1,1.759115696E0,9.230806351E0
2.241799844E1,8.983044885E-3,2.614803553E0,8.581652641E0
2.243799844E1,4.803630412E-1,3.429732084E0,7.888980865E0
2.245799844E1,9.494063258E-1,3.366122961E0,7.992735863E0
2.247799844E1,8.885552883E-1,2.173418045E0,8.935400009E0
2.249799844E1,2.329558283E-1,1.703273416E0,9.704456329E0
2.251799844E1,-4.116590321E-1,1.502093434E0,1.012918758E1
2.253799844E1,-5.609422922E-1,8.809800148E-1,1.056461620E1
2.255799844E1,-2.587749064E-1,7.211335748E-2,1.077190590E1
2.257799844E1,7.417237014E-2,-5.461174250E-1,1.044115257E1
2.259799844E1,3.377739787E-1,-3.409917951E-1,1.021201801E1
2.261799844E1,7.410532832E-1,4.589492977E-1,1.029941463E1
2.263799844E1,1.102750063E0,1.375574231E0,9.199538231E0
2.265799844E1,4.365395904E-1,2.107146502E0,8.680197716E0
2.267799844E1,-2.817496657E-1,2.337468863E0,8.522726059E0
2.269799844E1,-2.670013607E-1,1.416898251E0,8.608917236E0
2.271799844E1,1.151419431E-1,-1.118571013E-1,1.164396954E1
2.273799844E1,6.853545904E-1,-9.956718683E-1,1.285015965E1
2.275799844E1,1.695353389E0,-8.893118501E-1,1.182039452E1
2.277799844E1,1.757056713E0,-3.769335449E-1,9.763564110E0
2.279799844E1,7.435241342E-1,6.722631454E-1,8.205322266E0
2.281799844E1,-1.672589302E0,1.808024526E0,8.153740883E0
2.283799844E1,-3.263660908E0,2.693017244E0,9.091540337E0
2.285799844E1,-2.198135853E0,2.110067368E0,1.070650578E1
2.287799844E1,-2.777274058E-4,5.996038914E-1,1.012786579E1
2.289799844E1,1.694366932E0,1.825435162E-1,8.965452194E0
2.291799844E1,1.427308083E0,8.535903692E-1,8.611646652E0
2.293799844E1,3.765026033E-1,1.868406296E0,8.635090828E0
2.295799844E1,-2.236950547E-1,2.184498310E0,8.847580910E0
2.297799844E1,-9.576806915E-4,2.285926342E0,9.033112526E0
2.299799844E1,7.989929914E-1,2.154925346E0,9.104708672E0
2.301799844E1,1.027648807E0,2.134612799E0,8.629210472E0
2.303799844E1,7.181934714E-1,2.255855322E0,9.299664497E0
2.305799844E1,4.445745349E-1,2.162912369E0,1.088106251E1
2.307799844E1,4.598591030E-1,1.675261259E0,1.175900650E1
2.309799844E1,7.491266131E-1,1.391596198E0,1.167541981E1
2.311799844E1,8.560994864E-1,1.981316805E0,1.065440845E1
2.313799844E1,3.276225626E-1,2.202014446E0,9.573626518E0
2.315799844E1,-2.322279811E-1,1.402973533E0,9.682286263E0
2.317799844E1,3.340869248E-1,9.909409285E-1,1.151176262E1
2.319799844E1,4.996315837E-1,9.804925919E-1,1.199792862E1
2.321799844E1,-1.286165137E-2,2.006762505E0,1.082088184E1
2.323799844E1,-7.725131512E-1,1.882263899E0,1.098348618E1
2.325800000E1,-1.729762852E-1,1.017497420E0,1.167339897E1
2.327800000E1,9.804351926E-1,4.002339244E-1,1.094052505E1
2.329999844E1,1.879429221E0,2.503568828E-1,9.471883774E0
2.332000000E1,1.559688330E0,9.086665511E-1,8.379093170E0
2.334200000E1,5.118994713E-1,1.738018036E0,7.825199127E0
2.336200000E1,-1.915073991E-1,2.316313505E0,8.295305252E0
2.338200000E1,1.358948927E-2,1.816796899E0,9.611752510E0
2.340200625E1,8.095370531E-1,8.395890594E-1,1.059160328E1
2.342399844E1,1.231749773E0,1.093000919E-1,1.154840374E1
2.344400000E1,6.841287613E-1,5.601378679E-1,1.057979488E1
2.346600000E1,-3.204399347E-1,2.015611410E0,8.902149200E0
2.348799844E1,-5.733921528E-1,2.874871016E0,8.709693909E0
2.350799844E1,-1.694615930E-1,2.645602465E0,8.181399345E0
2.352799844E1,2.197877169E-1,2.455799818E0,7.282529354E0
2.354801875E1,-8.300217986E-2,2.376513481E0,7.706925869E0
2.356999844E1,-5.226350427E-1,1.913302422E0,9.269084930E0
2.358999844E1,-6.297133565E-1,1.630748272E0,9.878726006E0
2.360999844E1,-5.940014720E-1,1.051964402E0,1.057349396E1
2.362999844E1,-5.348646641E-1,6.692463756E-1,1.063577175E1
2.364999844E1,-7.030717134E-1,9.105628133E-1,1.110369396E1
2.366999844E1,-1.005756259E0,1.680882812E0,1.062380123E1
2.368999844E1,-1.324864984E0,2.206515312E0,1.016864395E1
2.370999844E1,-8.651400208E-1,2.177947760E0,1.031194115E1
2.372999844E1,-3.334644437E-2,1.095557928E0,1.081620789E1
2.374999844E1,5.711511970E-1,2.542642131E-2,1.149859333E1
2.376999844E1,9.808661342E-1,-5.785253048E-1,1.193334293E1
2.378999844E1,1.266149640E0,-3.797299862E-1,1.126550388E1
2.380999844E1,7.679066658E-1,5.148970485E-1,9.531728745E0
2.382999844E1,-8.162791133E-1,1.516755462E0,8.648460388E0
2.384999844E1,-2.481800795E0,2.194372177E0,8.912310600E0
2.386999844E1,-2.920131207E0,2.156831026E0,9.893521309E0
2.388999844E1,-1.945547462E0,1.110574365E0,1.015713310E1
2.390999844E1,-6.588842720E-2,5.558283329E-1,9.587493896E0
2.392999844E1,8.565016985E-1,6.002838016E-1,8.316785812E0
2.395000000E1,1.062527537E0,1.196564555E0,7.327693939E0
2.397200000E1,8.469344974E-1,1.867525220E0,6.711311340E0
2.399202500E1,6.030323505E-1,2.282679796E0,7.383957386E0
2.401400000E1,3.287047446E-1,2.313498020E0,8.125116348E0
2.403400000E1,3.543514311E-1,2.219147205E0,8.452096939E0
2.405400000E1,5.621585622E-2,2.380870819E0,9.028506279E0
2.407400000E1,-7.261039615E-1,2.405981302E0,9.969034195E0
2.409400000E1,-1.013264418E0,2.205241680E0,1.060577774E1
2.411600000E1,1.726793945E-1,2.060248852E0,1.099088001E1
2.413799844E1,1.351756692E0,1.952050090E0,1.079271698E1
2.415799844E1,1.166416764E0,2.227555752E0,1.051400280E1
2.417799844E1,4.906964302E-1,2.482768059E0,1.070399666E1
2.419799844E1,4.243195653E-1,2.503693342E0,1.117722511E1
2.421799844E1,2.188300341E-2,2.320852995E0,1.114166737E1
2.423799844E1,-2.804280818E-1,2.234230757E0,1.116969872E1
2.425799844E1,-2.731688321E-1,1.061407089E0,1.279697990E1
2.427799844E1,2.109866291E-1,3.125199378E-1,1.282257843E1
2.429799844E1,8.283267021E-1,1.067679882E0,1.049036694E1
2.431799844E1,8.422801495E-1,1.858973145E0,8.307305336E0
2.433799844E1,4.842129350E-1,2.640086174E0,6.913946629E0
2.435799844E1,1.862210035E-1,2.693409920E0,7.120413303E0
2.437799844E1,-2.009214088E-2,1.788392067E0,9.420819283E0
2.439799844E1,-2.152387351E-1,9.815461040E-1,1.170246506E1
2.441799844E1,-2.378304154E-1,7.166994810E-1,1.239541435E1
2.443799844E1,-1.694615930E-1,1.251094818E0,1.143330002E1
2.445799844E1,-4.754405916E-1,1.846226454E0,9.987594604E0
2.447799844E1,-4.954560995E-1,2.162107706E0,9.250822067E0
2.449799844E1,-3.804099262E-1,2.505656481E0,9.334494591E0
2.451799844E1,-3.911646605E-1,2.761778831E0,9.357133865E0
2.453799844E1,-3.618500531E-1,2.502323627E0,9.218193054E0
2.455799844E1,-9.699389338E-2,2.740747929E0,9.264028549E0
2.457800000E1,-2.832340598E-1,3.152799845E0,9.152650833E0
2.459800000E1,-6.280182600E-1,3.378228188E0,9.121190071E0
2.461999844E1,-7.931702733E-1,2.149725199E0,1.090104961E1
2.464000000E1,-2.699223161E-1,7.765066624E-1,1.168603134E1
2.466000000E1,3.080379963E-1,-2.378687263E-1,1.171615028E1
2.468000000E1,8.868601918E-1,1.676037014E-1,9.992928505E0
2.470200000E1,8.371182680E-1,2.041564465E0,7.672305584E0
2.472200000E1,7.075057626E-1,3.024039507E0,6.461376190E0
2.474400000E1,9.228689671E-1,1.432460427E0,8.724107742E0
2.476400000E1,1.944829226E0,2.541397214E-1,1.063623142E1
2.478400000E1,1.953524947E0,5.616988540E-1,9.915681839E0
2.480400000E1,-2.087743878E-1,1.653866649E0,8.892189026E0
2.482400000E1,-1.739186406E0,2.248969555E0,9.727622032E0
2.484400000E1,-1.098172426E0,1.309072852E0,9.980545998E0
2.486400000E1,3.455120325E-1,3.989506364E-1,9.414115906E0
2.488400000E1,1.108553767E0,3.732081652E-1,9.405429840E0
2.490400000E1,1.075676560E0,5.583757162E-1,9.453074455E0
2.492400000E1,8.504108787E-1,5.810536146E-1,9.652310371E0
2.494400000E1,7.360829711E-1,6.448734403E-1,9.885840416E0
2.496600000E1,4.195886254E-1,1.009031534E0,9.404520035E0
2.498600000E1,4.814931154E-1,1.914097190E0,8.185114861E0
2.500600000E1,4.558847249E-1,2.134114742E0,7.300476551E0
2.502799844E1,3.579810560E-1,2.095788240E0,8.233783722E0
2.504802344E1,8.984002471E-2,1.877197742E0,1.025902939E1
2.507000000E1,-4.399584979E-2,1.705772996E0,1.080310726E1
2.509000000E1,4.683441520E-1,2.142255068E0,9.464518547E0
2.511000000E1,1.021816492E0,2.268678427E0,9.069035530E0
2.513200000E1,4.932151139E-1,2.554460049E0,1.155084610E1
2.515200000E1,-9.353667498E-2,2.117795944E0,1.254183388E1
2.517200000E1,2.896026373E-1,2.069614887E0,1.151775742E1
2.519201250E1,4.644272327E-1,2.165775537E0,1.101296425E1
2.521399844E1,6.107608676E-1,2.760715485E0,9.677085876E0
2.523400000E1,1.098651290E-1,3.001898050E0,8.956842422E0
2.525400000E1,-3.155749440E-1,2.159138918E0,1.102550983E1
2.527400000E1,-3.749224246E-1,1.791514039E0,1.143013954E1
2.529400000E1,2.706596851E-1,2.159991264E0,9.844018936E0
2.531400000E1,5.640164614E-1,2.164435148E0,7.535788059E0
2.533400000E1,2.365854383E-1,2.469695568E0,6.760517120E0
2.535400000E1,-2.491980940E-1,2.151477575E0,8.779671669E0
2.537400000E1,2.739349604E-1,1.264033198E0,1.019113922E1
2.539400000E1,1.404208899E0,9.387760758E-1,1.021101189E1
2.541400000E1,1.547554612E0,1.217978239E0,9.252191544E0
2.543400000E1,4.906581044E-1,2.232190847E0,8.333699226E0
2.545599844E1,-7.922030687E-1,3.122508287E0,7.983877659E0
2.547600000E1,-7.541831136E-1,2.831823587E0,8.146788597E0
2.549600000E1,1.097214743E-1,1.921088219E0,8.496706009E0
2.551600000E1,6.177136302E-1,1.501605034E0,9.133936882E0
2.553600000E1,1.482872814E-1,1.080512762E0,1.060418797E1
2.555600000E1,-6.904015541E-1,1.154311657E0,1.117253208E1
2.557600000E1,-1.316839695E0,1.365604758E0,1.123499203E1
2.559600000E1,-1.399477959E0,1.333867192E0,1.113069153E1
2.561600000E1,-1.074182510E0,1.360174656E0,1.088792038E1
2.563800000E1,-4.389050603E-1,1.507255316E0,9.832709312E0
2.566000000E1,1.879161000E-1,1.306851029E0,9.907512665E0
2.568000000E1,5.825476050E-1,1.330410004E0,1.071485710E1
2.570200625E1,1.008159995E0,1.694807529E0,9.205121040E0
2.572400000E1,5.918371081E-1,1.998976469E0,8.649331093E0
2.574600000E1,6.309391856E-1,1.162787080E0,1.027662182E1
2.576600000E1,1.231136799E0,5.390593410E-1,1.168748760E1
2.578800000E1,1.942463756E0,3.088807464E-1,1.148399925E1
2.581000000E1,1.776392341E0,1.164472699E0,9.127798080E0
2.583200625E1,-3.354276717E-1,1.864431858E0,7.877335548E0
2.585200625E1,-2.186768055E0,2.382479668E0,9.781568527E0
2.587200625E1,-2.032179117E0,1.846781850E0,1.303557587E1
2.589400000E1,1.654201746E-1,3.577895090E-2,1.259102058E1
2.591400000E1,1.828030467E0,-2.280429304E-1,1.032509041E1
2.593400000E1,1.785691381E0,8.180125356E-1,8.612038612E0
2.595400000E1,5.830742717E-1,2.051332712E0,7.961936951E0
2.597400000E1,-5.998049974E-1,2.525155067E0,8.461300850E0
2.599400000E1,-8.362659216E-1,2.803150415E0,8.022395134E0
2.601400000E1,-2.622225285E-1,2.934534550E0,7.232978821E0
2.603400000E1,4.786966741E-1,2.334863663E0,7.852646351E0
2.605400000E1,1.020427942E0,1.698465824E0,8.592415810E0
2.607400000E1,1.192887068E0,1.554219961E0,8.753948212E0
2.609400000E1,1.148632646E0,1.584894538E0,9.854438782E0
2.611600000E1,1.033356547E0,1.289066911E0,1.094351292E1
2.613800000E1,9.885371923E-1,1.163256526E0,1.139573956E1
2.616000000E1,4.827093780E-1,1.185139418E0,1.064512825E1
2.618000000E1,-1.915169805E-1,1.169146061E0,1.029524899E1
2.620200312E1,-3.181798458E-1,1.514706016E0,1.115265179E1
2.622400000E1,-2.632951438E-1,1.499536395E0,1.129694557E1
2.624400000E1,6.679822505E-2,1.456574798E0,1.107620907E1
2.626400000E1,6.329119802E-1,7.390421629E-1,1.155650520E1
2.628400000E1,1.291786790E0,2.303317934E-1,1.175437069E1
2.630400000E1,1.265268564E0,1.049330756E-1,1.112345123E1
2.632600000E1,7.158471942E-1,9.810672402E-1,9.251396179E0
2.634802344E1,1.436999887E-1,2.450398445E0,8.615285873E0
2.637000000E1,2.007298768E-1,2.873702765E0,8.366289139E0
2.639000000E1,5.197716355E-1,2.157664061E0,9.297240257E0
2.641200469E1,1.000067592E0,1.156322718E0,1.019122601E1
2.643200781E1,1.233693838E0,8.481794596E-1,1.089021778E1
2.645400000E1,9.077280164E-1,1.229642868E0,1.023822880E1
2.647400000E1,2.720387876E-1,2.008543730E0,9.147315025E0
2.649400000E1,5.951027572E-2,2.282124281E0,8.990486145E0
2.651400000E1,2.934716940E-1,1.969968319E0,9.144107819E0
2.653400000E1,8.835274577E-1,1.194017053E0,9.267122269E0
2.655400000E1,1.451039433E0,7.092774510E-1,9.254403114E0
2.657400000E1,8.675150275E-1,7.015106678E-1,9.301684380E0
2.659400000E1,-4.575319588E-1,1.308076859E0,1.026486206E1
2.661400000E1,-1.487785697E0,2.198739052E0,1.081716633E1
2.663400000E1,-1.893037796E0,2.514993906E0,1.102332592E1
2.665400000E1,-1.495121479E0,1.983739734E0,1.084100246E1
2.667400000E1,-7.601877451E-1,1.373400211E0,1.037331963E1
2.669400000E1,9.074982256E-2,1.187887907E0,1.004736328E1
2.671599844E1,6.166889071E-1,1.712811947E0,9.112743378E0
2.673599844E1,9.585425258E-2,2.698293924E0,7.850452900E0
2.675600000E1,-5.742827654E-1,2.989160776E0,9.079378128E0
2.677603750E1,2.551261336E-2,1.831344008E0,1.165823936E1
2.679800000E1,1.169050455E0,8.630618453E-2,1.231870365E1
2.682000000E1,2.781975985E0,-7.175997496E-1,1.058511066E1
2.684000000E1,2.865170002E0,-7.294079065E-1,8.697607994E0
2.686200000E1,1.324931979E0,3.882054389E-1,8.606877327E0
2.688200000E1,-2.539769113E-1,1.067421317E0,8.874884605E0
2.690201094E1,-8.863717914E-1,1.406411529E0,8.397958755E0
2.692400000E1,-1.862593144E-1,1.652248144E0,7.528787613E0
2.694400000E1,3.788680434E-1,1.688860297E0,7.230230331E0
2.696600000E1,3.686112911E-2,1.815073013E0,7.899543762E0
2.698600000E1,-4.269723594E-1,2.055029631E0,8.182930946E0
2.700600000E1,-2.462101281E-1,2.427931070E0,7.762059689E0
2.702600000E1,1.872936040E-1,2.064156294E0,7.627840519E0
2.704600000E1,8.750232458E-1,1.410395503E0,8.743634224E0
2.706600000E1,1.406899929E0,1.261198401E0,9.409969330E0
2.708600000E1,1.533658624E0,1.067746997E0,9.841681480E0
2.710600000E1,1.601922035E0,1.140262485E0,1.064055061E1
2.712600000E1,1.595237374E0,1.233847022E0,1.133330727E1
2.714802344E1,1.512043715E0,1.472864985E0,1.164115429E1
2.717001094E1,1.152042031E0,1.874755740E0,1.089600182E1
2.719200000E1,1.807813942E-1,2.033290148E0,1.013514423E1
2.721200000E1,-8.245630562E-2,2.063916683E0,1.150662899E1
2.723400000E1,-2.306861281E-1,1.482968450E0,1.244943714E1
2.725400000E1,2.800545692E-1,1.654106021E0,9.976648331E0
2.727400000E1,5.340889096E-1,2.241317511E0,8.975038528E0
2.729400000E1,-1.939111799E-1,1.528688192E0,1.120050716E1
2.731400000E1,5.221274868E-2,5.347306132E-1,1.349488831E1
2.733400000E1,3.311564028E-1,-4.435689747E-1,1.262775707E1
2.735599844E1,7.706360221E-1,3.240791261E-1,1.015629959E1
2.737600000E1,6.642664671E-1,8.692579865E-1,9.272216797E0
2.739600000E1,7.722066641E-1,9.039835334E-1,9.225529671E0
2.741800000E1,1.221933484E0,5.472091436E-1,9.598038673E0
2.743800000E1,1.525374651E0,6.089987159E-1,8.983772278E0
2.746000000E1,1.192743421E0,1.061158061E0,8.160042763E0
2.748200000E1,4.598399699E-1,1.735106707E0,8.493775368E0
2.750400000E1,1.589079648E-1,1.630815268E0,9.375138283E0
2.752400000E1,-2.314714156E-2,1.497573137E0,9.865470886E0
2.754400000E1,-4.152503610E-2,1.621075630E0,9.699160576E0
2.756400000E1,5.775772035E-2,1.248078227E0,9.893923759E0
2.758400000E1,-8.216899820E-3,9.302814603E-1,1.010539818E1
2.760400000E1,-5.790233016E-1,1.330955982E0,9.912770271E0
2.762400000E1,-1.115027547E0,1.694558501E0,1.008867741E1
2.764400000E1,-6.936289668E-1,1.388196468E0,1.006382656E1
2.766400000E1,2.377059162E-1,9.275616407E-1,9.744152069E0
2.768600000E1,1.015486240E0,4.436360002E-1,9.413876534E0
2.770800000E1,1.226185679E0,5.069386959E-1,9.353360176E0
2.772999844E1,8.395220041E-1,1.313085556E0,1.005710220E1
2.775000000E1,6.293494105E-1,1.656213045E0,1.063383675E1
2.777200312E1,3.167049885E-1,1.436061263E0,9.649542809E0
2.779400000E1,-9.142307043E-1,8.964657784E-1,1.073538971E1
2.781400000E1,-9.895235300E-1,7.751850486E-1,1.247860813E1
2.783400000E1,2.624236345E-1,6.909186840E-1,1.276538563E1
2.785599844E1,1.539011955E0,2.262041904E-2,1.077122688E1
2.787599844E1,4.420558214E-1,7.362744808E-1,9.781874657E0
2.789600000E1,-1.520844817E0,1.908217072E0,9.310226440E0
2.791800000E1,-3.024432182E0,2.369034052E0,9.530694008E0
2.793800000E1,-1.678938746E0,2.025906563E0,9.946155548E0
2.796000000E1,9.032078385E-1,8.751381636E-1,8.918114662E0
2.798000000E1,1.995500088E0,2.482403964E-1,8.300581932E0
2.800000000E1,1.302991629E0,6.254324913E-1,8.033092499E0
2.802000000E1,1.222383678E-1,1.727799535E0,8.100465775E0
2.804000000E1,-2.327834517E-1,1.963063478E0,7.938416481E0
2.806200000E1,1.865178794E-1,2.028798580E0,7.217771053E0
2.808200156E1,1.423592418E-1,1.903514862E0,7.373441696E0
2.810400000E1,-6.955155730E-1,2.313947916E0,8.620944977E0
2.812400000E1,-1.029420495E0,2.983826637E0,9.684364319E0
2.814400156E1,-6.746476889E-1,2.425288200E0,1.054523277E1
2.816599844E1,-8.136454970E-2,1.983289719E0,1.079679585E1
2.818600000E1,6.614125967E-1,1.607045650E0,1.191670799E1
2.820600000E1,1.556843996E0,1.674945235E0,1.088404083E1
2.822799844E1,1.692394137E0,1.675366521E0,9.470791817E0
2.824802344E1,7.993186116E-1,1.742365956E0,9.819224358E0
2.826999844E1,6.777027845E-1,1.627607107E0,1.135306549E1
2.828999844E1,8.008413315E-1,2.056532860E0,1.016177750E1
2.831000000E1,6.870114207E-1,1.610943317E0,1.027493668E1
2.833199844E1,9.682247043E-1,5.049850345E-1,1.237789822E1
2.835200000E1,1.143173814E0,-3.435296416E-1,1.250852680E1
2.837200000E1,9.979320168E-1,5.649358407E-2,1.091919708E1
2.839200625E1,2.100193799E-1,1.308977008E0,8.652012825E0
2.841400000E1,-3.544376194E-1,2.433619976E0,7.554788589E0
2.843400781E1,-4.142543674E-1,2.169156313E0,8.466702461E0
2.845600000E1,3.765983582E-1,9.570485950E-1,9.958127022E0
2.847600000E1,9.340546727E-1,1.227938160E-1,1.036671066E1
2.849600000E1,9.484295249E-1,3.397851065E-2,1.030002785E1
2.851600000E1,2.040147036E-1,1.208267450E0,9.500058174E0
2.853600000E1,-2.473880798E-1,1.819938064E0,8.861017227E0
2.855600000E1,2.477519959E-2,2.079258680E0,8.313117981E0
2.857800000E1,2.505962849E-1,2.369934082E0,7.805222034E0
2.860000000E1,2.643007338E-1,2.591819048E0,7.755595207E0
2.862200000E1,-1.685518073E-3,2.929411173E0,8.417917252E0
2.864200000E1,5.150406808E-2,3.126951933E0,9.392395973E0
2.866200000E1,5.260348320E-1,2.154321671E0,1.066489410E1
2.868200000E1,1.203766346E0,1.049589396E0,1.142262077E1
2.870200000E1,5.706244707E-1,8.909303546E-1,1.188258553E1
2.872200312E1,-4.238790572E-1,1.356545210E0,1.177464581E1
2.874400000E1,-3.538343012E-1,9.823888540E-1,1.215376282E1
2.876400000E1,6.416364908E-1,7.484753132E-1,1.160320091E1
2.878400000E1,1.410587072E0,8.802521825E-1,1.070262814E1
2.880400000E1,8.699284196E-1,1.258449793E0,9.103272438E0
2.882600000E1,-2.116091102E-1,1.656825900E0,9.231993675E0
2.884600000E1,-2.572330236E-1,6.945866942E-1,1.134153461E1
2.886600000E1,5.752978921E-1,-3.603752553E-1,1.147995758E1
2.888799844E1,1.998813629E0,-6.448734403E-1,1.037647915E1
2.890799844E1,1.844598413E0,-2.222968489E-1,9.255485535E0
2.892800000E1,1.916414797E-1,6.502556205E-1,8.023027420E0
2.894801875E1,-1.591866493E0,1.586216092E0,8.871963501E0
2.897000000E1,-1.986765981E0,1.786572456E0,9.707089424E0
2.899200000E1,-5.876998901E-1,1.212892890E0,9.197623253E0
2.901200000E1,7.159525156E-1,8.246971369E-1,8.197947502E0
2.903202344E1,1.265172839E0,8.773695827E-1,6.957157612E0
2.905400000E1,6.634237170E-1,1.319023252E0,7.008153915E0
2.907599844E1,-2.293070704E-1,1.821748018E0,8.172204971E0
2.909599844E1,5.875370651E-2,2.244516134E0,7.584352016E0
2.911600000E1,8.210962415E-1,2.252934217E0,6.546599388E0
2.913800000E1,6.828550696E-1,2.644242525E0,7.079721451E0
2.915999844E1,4.740615189E-1,2.635518074E0,9.140113831E0
2.918000000E1,5.781901479E-1,2.193433523E0,1.096327972E1
2.920200000E1,7.439359426E-1,1.468679905E0,1.237238216E1
2.922200000E1,1.103305697E0,1.139860272E0,1.267990303E1
2.924200000E1,1.257396460E0,1.183894396E0,1.264310837E1
2.926200156E1,6.573998928E-1,1.144543290E0,1.225875282E1
2.928200625E1,-6.087688804E-1,1.068417192E0,1.191902542E1
2.930400000E1,-5.045349002E-1,1.426599503E0,1.193580341E1
2.932600000E1,6.932075620E-1,1.350597858E0,1.071614075E1
2.934802500E1,1.223255157E0,1.622435570E0,8.928284645E0
2.936999844E1,6.513569355E-1,1.180772305E0,1.125908756E1
2.939000000E1,3.725377917E-1,9.240661263E-1,1.172651291E1
2.941200000E1,7.507833242E-1,1.053554058E0,9.906948090E0
2.943200625E1,8.033695817E-1,1.323150754E0,8.167091370E0
2.945400000E1,5.422292352E-1,1.441797853E0,7.983216763E0
2.947400000E1,6.093530655E-1,7.784795165E-1,9.922098160E0
2.949400000E1,9.457575679E-1,9.800904244E-2,1.116925812E1
2.951400000E1,1.421140671E0,-5.056745410E-1,1.154918861E1
2.953600000E1,1.394632101E0,-3.872860596E-2,1.064664173E1
2.955600000E1,3.662745655E-1,1.309484601E0,9.312170982E0
2.957600000E1,-2.113026530E-1,2.768740892E0,8.990773201E0
2.959600000E1,-5.449202657E-1,3.195186853E0,8.359134674E0
2.961600000E1,-2.699318826E-1,2.964337587E0,7.908326149E0
2.963800000E1,-7.617391646E-2,2.561077595E0,8.128353119E0
2.965999844E1,7.910442352E-2,1.935874820E0,9.305649757E0
2.968000000E1,-1.915361360E-2,1.269434452E0,1.028773117E1
2.970200000E1,-1.206964925E-1,6.575531363E-1,1.057220078E1
2.972200000E1,-1.723250598E-1,5.929384232E-1,1.025318718E1
2.974200000E1,-7.724652439E-2,3.657286763E-1,1.032350063E1
2.976200313E1,-2.363364398E-1,1.619629562E-1,1.066017342E1
2.978400000E1,-2.739445567E-1,2.543120980E-1,1.148686218E1
2.980400000E1,2.989304364E-1,2.233790159E-1,1.233181477E1
2.982600000E1,7.538478971E-1,1.154809713E0,1.041448021E1
2.984802031E1,6.507919431E-1,2.234728813E0,7.976943970E0
2.986999844E1,1.396872997E-1,1.338234305E0,1.029732704E1
2.989000000E1,7.728195786E-1,4.194353819E-1,1.214272118E1
2.991200000E1,1.663472176E0,3.969203532E-1,1.119994164E1
2.993399844E1,1.670788765E0,1.151036382E0,8.822068214E0
2.995400000E1,2.884246707E-1,1.901388764E0,7.449099064E0
2.997599844E1,-1.557658076E0,2.824382305E0,8.489772797E0
2.999599844E1,-1.584243298E0,2.476600647E0,1.009454823E1
3.001599844E1,-4.081826508E-1,1.466707110E0,1.019567966E1
3.003599844E1,1.078061104E0,9.185785651E-1,9.956152916E0
3.005599844E1,2.082515001E0,8.575072885E-1,9.055895805E0
3.007599844E1,1.935760021E0,1.232104182E0,8.330615044E0
3.009600000E1,7.546811104E-1,2.010267496E0,7.867337227E0
3.011600000E1,-2.310787588E-1,2.799224138E0,8.233534813E0
3.013800000E1,-3.753342032E-1,3.009434700E0,8.301271439E0
3.016000000E1,-6.641515344E-2,2.483294725E0,8.487005234E0
3.018000000E1,1.802163571E-1,2.104436398E0,8.848097801E0
3.020000000E1,4.769632816E-1,1.766221762E0,9.531508446E0
3.022200000E1,7.044411898E-1,1.555378795E0,9.777804375E0
3.024200000E1,6.125326157E-1,1.735958934E0,1.027570343E1
3.026200000E1,7.653784156E-1,1.762994409E0,1.084404755E1
3.028200000E1,8.730791807E-1,1.705658078E0,1.057593536E1
3.030400156E1,6.566433311E-1,2.058965683E0,9.307488441E0
3.032600000E1,9.673724174E-1,2.439662933E0,9.560430527E0
3.034802031E1,1.039667726E0,2.513883114E0,8.701659203E0
3.037000000E1,-2.069547959E-2,2.335170269E0,9.686298370E0
3.039000000E1,4.683058709E-2,1.065582514E0,1.294800568E1
3.041200625E1,9.146712422E-1,-3.154408634E-1,1.367472267E1
3.043400000E1,1.847758651E0,3.547919691E-1,1.078351402E1
3.045400000E1,1.866126895E0,1.542938471E0,8.637810707E0
3.047600000E1,8.945887089E-1,1.859040141E0,8.543976784E0
3.049800000E1,5.674353838E-1,1.276875615E0,1.017606544E1
3.052000000E1,6.644963622E-1,9.276860952E-1,1.011470699E1
3.054000000E1,6.025439501E-1,1.132093549E0,9.778417587E0
3.056200000E1,5.409267545E-1,1.566497445E0,9.545615196E0
3.058200000E1,1.356363147E-1,2.115095139E0,9.100274086E0
3.060200000E1,2.851015516E-2,2.916712046E0,8.445718765E0
3.062200000E1,3.020620644E-1,2.870370150E0,8.386094093E0
3.064200000E1,6.337643266E-1,2.303202868E0,9.122866631E0
3.066400000E1,4.265701175E-1,2.025437117E0,9.907177925E0
3.068400000E1,-1.472625583E-1,1.794818163E0,1.067162704E1
3.070400000E1,-2.213391513E-1,1.246986508E0,1.109150314E1
3.072400000E1,-1.768453270E-1,1.181701303E0,1.021635532E1
3.074400000E1,-2.081423253E-1,1.455578804E0,9.167522430E0
3.076400000E1,-8.969637007E-2,1.248260140E0,9.057953835E0
3.078400000E1,1.369100362E-1,1.170467734E0,9.799965858E0
3.080400000E1,7.661445141E-1,1.207989573E0,1.022301197E1
3.082600000E1,1.139094114E0,1.655255198E0,8.984758377E0
3.084802031E1,6.822708845E-1,2.192226887E0,8.295573235E0
3.086999844E1,-5.663436055E-1,1.690900087E0,9.562365532E0
3.089000000E1,-2.741169333E-1,9.308369160E-1,1.043290615E1
3.091200469E1,5.941355228E-1,2.141469717E-1,1.030468273E1
3.093400000E1,9.496648908E-1,1.649892330E-1,9.702292442E0
3.095400000E1,-4.766185284E-1,8.809034228E-1,1.023977089E1
3.097600000E1,-1.857325912E0,1.972879648E0,9.803757668E0
3.099600156E1,-1.840805888E0,2.190368891E0,9.384868622E0
3.101799844E1,-2.677004635E-1,1.228110552E0,9.532753944E0
3.103799844E1,1.065323949E0,3.076261878E-1,9.729671478E0
3.105799844E1,1.844397187E0,2.790969014E-1,9.652990341E0
3.107800000E1,1.442123413E0,1.166598797E0,9.199633598E0
3.110000000E1,8.911985159E-1,2.140148163E0,7.884757519E0
3.112200000E1,7.921455503E-1,2.747355938E0,7.635195255E0
3.114200000E1,7.831050158E-1,2.380947590E0,8.799582481E0
3.116200000E1,8.310849071E-1,2.180811167E0,9.765163422E0
3.118200469E1,6.693134904E-1,2.116321087E0,1.026728535E1
3.120399844E1,4.539598227E-1,2.253757715E0,1.036066818E1
3.122400000E1,4.987984002E-1,2.430392265E0,1.088586044E1
3.124400000E1,6.640366316E-1,2.382384062E0,1.095011139E1
3.126600000E1,1.892760098E-1,2.437326193E0,1.042421055E1
3.128800000E1,-7.784985751E-2,2.217193604E0,1.082181072E1
3.130999844E1,1.913733333E-1,1.968043327E0,1.073186493E1
3.132999844E1,-1.380400956E-1,2.136355639E0,9.821207047E0
3.134999844E1,-1.900613159E-1,1.619888186E0,1.141352367E1
3.136999844E1,4.075888991E-1,6.457832456E-1,1.258241081E1
3.138999844E1,1.011511922E0,-3.793564737E-1,1.202959919E1
3.140999844E1,1.320383072E0,-2.242888138E-2,1.038064575E1
3.142999844E1,6.919817328E-1,1.120007515E0,9.909773827E0
3.145000000E1,-4.186022282E-2,1.676151872E0,9.881742477E0
3.147200781E1,-5.821740627E-2,1.764612794E0,9.782161713E0
3.149399844E1,7.180593610E-1,1.176252246E0,9.581307411E0
3.151400000E1,1.496711254E0,4.733719826E-1,9.820699692E0
3.153400000E1,1.507714987E0,3.979642093E-1,1.035038280E1
3.155400000E1,9.609463215E-1,9.198714495E-1,9.895944595E0
3.157400000E1,1.987379044E-1,1.742758512E0,9.126926422E0
3.159400000E1,-2.853696942E-1,2.757430792E0,8.110195160E0
3.161600000E1,-2.196823657E-1,3.130954981E0,7.547289848E0
3.163800000E1,1.039083526E-1,2.401240826E0,7.716981411E0
3.165999844E1,-9.180326760E-2,1.555531979E0,8.711370468E0
3.168000000E1,-4.175583422E-1,1.400196195E0,9.403351784E0
3.170200000E1,-3.738497794E-1,1.091468573E0,9.590262413E0
3.172200000E1,-5.369236469E-1,9.924445152E-1,9.811533928E0
3.174400000E1,-9.133304954E-1,1.048708200E0,1.092616940E1
3.176400000E1,-6.844448447E-1,1.013312340E0,1.162946129E1
3.178400000E1,5.195800662E-1,1.230476022E0,1.082368755E1
3.180400000E1,1.001015782E0,1.587461114E0,9.188611031E0
3.182600000E1,3.818272948E-1,2.395494699E0,8.551093102E0
3.184801875E1,-8.635693789E-1,1.871499658E0,1.111960125E1
3.186999844E1,-7.478911877E-1,1.965352297E0,1.160049152E1
3.189000000E1,-2.001265287E-1,2.019949675E0,9.737084389E0
3.191200156E1,5.284290314E-1,1.692834735E0,7.955568314E0
3.193400000E1,3.110163808E-1,1.203785419E0,9.811495781E0
3.195400000E1,-4.565934241E-1,1.295722723E0,1.102025223E1
3.197400156E1,-8.101021051E-1,1.651711941E0,1.069096279E1
3.199600000E1,-2.837607823E-2,1.581255198E0,9.269793510E0
3.201799844E1,8.127452731E-1,1.197637200E0,8.214658737E0
3.203800000E1,9.908547401E-1,1.308929205E0,7.661569595E0
3.205999844E1,9.674011469E-1,1.731180191E0,7.424678326E0
3.207999844E1,9.038207531E-1,2.029957294E0,6.704339504E0
3.210000000E1,6.116036177E-1,2.287448883E0,6.100348949E0
3.212000000E1,-1.053831801E-1,2.793324709E0,6.916820049E0
3.214000000E1,-5.748094916E-1,2.591426611E0,8.985965729E0
3.216200313E1,-4.312531650E-1,2.166627884E0,1.048893070E1
3.218400000E1,3.454641402E-1,1.290771604E0,1.200548553E1
3.220400000E1,1.231606126E0,3.529915214E-1,1.284345627E1
3.222400000E1,1.184354067E0,7.096413374E-1,1.249922657E1
3.224599844E1,2.942378223E-1,1.936018586E0,1.173690319E1
3.226599844E1,-4.690911472E-1,2.574312687E0,1.137420082E1
3.228599844E1,-3.579618931E-1,2.796111584E0,1.224231911E1
3.230599844E1,4.175296426E-1,2.113572598E0,1.145135117E1
3.232600000E1,6.135860085E-1,2.285686970E0,1.073852158E1
3.234802031E1,6.364362836E-1,1.149408340E0,1.244946575E1
3.236999844E1,1.547372580E0,4.674343467E-1,1.180687237E1
3.239000000E1,1.864575505E0,9.182050824E-1,9.294789314E0
3.241200000E1,1.360845089E0,2.131979227E0,7.995857716E0
3.243200312E1,5.922967792E-1,2.007193327E0,8.896699905E0
3.245400000E1,5.332748890E-1,1.420910716E0,9.600643158E0
3.247400000E1,9.782420397E-1,8.043943048E-1,9.581739426E0
3.249400312E1,1.087896466E0,5.080016851E-1,9.380645752E0
3.251600000E1,8.678310513E-1,1.048373103E0,8.889497757E0
3.253600000E1,6.676279306E-1,1.246335149E0,9.036148071E0
3.255600000E1,2.441702783E-1,1.209014416E0,1.008727932E1
3.257600000E1,-1.879544109E-1,1.411104083E0,1.015408707E1
3.259600000E1,-2.017258555E-1,1.615358233E0,9.555689812E0
3.261600000E1,-1.417367347E-2,1.584348679E0,9.092210770E0
3.263800000E1,-3.089573681E-1,1.099446177E0,9.556590080E0
3.265999844E1,-8.654656410E-1,8.636842966E-1,1.034501076E1
3.268000000E1,-5.700115561E-1,5.062779188E-1,1.110844421E1
3.270200000E1,-3.203441948E-2,1.285590529E-1,1.133285809E1
3.272200000E1,1.357991248E-1,-1.132361591E-1,1.035632038E1
3.274400000E1,-1.406832933E-1,8.547874689E-1,9.111987114E0
3.276601875E1,-2.119634748E-1,1.352934718E0,9.793558121E0
3.278800000E1,5.865027905E-1,1.504056692E0,1.021160507E1
3.281000000E1,3.960392773E-1,1.997300506E0,8.064877510E0
3.283200625E1,-3.171551228E-1,2.110144138E0,9.379467010E0
3.285400000E1,-4.578001201E-1,1.217126012E0,1.168358994E1
3.287400000E1,1.595591754E-1,1.147809029E0,1.095633602E1
3.289400000E1,5.848172903E-1,1.547544956E0,8.883944511E0
3.291400000E1,3.319895864E-1,1.690421224E0,6.468233109E0
3.293400000E1,-1.109205008E0,2.276100636E0,6.688269615E0
3.295400000E1,-2.416065454E0,2.565894842E0,9.669759750E0
3.297400000E1,-2.587107420E0,2.050825119E0,1.136410713E1
3.299400000E1,-1.471677542E0,9.590980411E-1,1.181838322E1
3.301400000E1,7.128112912E-1,6.653965265E-2,1.026869202E1
3.303400000E1,1.828959346E0,2.018790841E-1,7.906506538E0
3.305400000E1,1.421485424E0,1.162202954E0,7.423959732E0
3.307599844E1,1.827158928E-1,1.650035858E0,8.699551582E0
3.309599844E1,-2.689167485E-2,1.797240973E0,9.146683693E0
3.311599844E1,3.628556132E-1,1.775472879E0,8.938072205E0
3.313599844E1,8.502767682E-1,1.468143702E0,9.349137306E0
3.315599844E1,9.076897502E-1,1.245099902E0,1.041234493E1
3.317599844E1,5.130487084E-1,1.543273687E0,1.111028290E1
3.319600781E1,2.657276690E-1,1.843468308E0,1.128187084E1
3.321799844E1,2.383284122E-1,2.149925947E0,1.082690525E1
3.323799844E1,-1.795076579E-1,2.261486292E0,1.045712566E1
3.325799844E1,-5.102522373E-1,2.329242229E0,1.070924473E1
3.327799844E1,3.934439421E-1,1.913838625E0,1.143171024E1
3.329800000E1,6.561932564E-1,1.992655754E0,1.002606487E1
3.332000000E1,6.427665353E-1,1.876872182E0,1.034070969E1
3.334000000E1,1.040136933E0,8.644025922E-1,1.219559383E1
3.336000000E1,1.285025477E0,2.168284804E-1,1.134738541E1
3.338000000E1,1.305548549E0,7.755777240E-1,8.942745209E0
3.340000000E1,2.937589586E-1,1.513815403E0,8.312265396E0
3.342200000E1,-1.048353910E0,2.223686695E0,8.983236313E0
3.344399844E1,-1.159799218E0,1.964586139E0,1.015745831E1
3.346399844E1,-1.055842936E-1,1.324836254E0,9.319334030E0
3.348399844E1,6.836308241E-1,7.631565332E-1,8.211662292E0
3.350399844E1,6.262561083E-1,6.890225410E-1,8.526863098E0
3.352400000E1,-3.869029880E-2,1.218007088E0,9.008872986E0
3.354599844E1,-1.666172743E-1,1.469120502E0,9.825946808E0
3.356599844E1,5.793010443E-2,1.074019790E0,1.009247971E1
3.358599844E1,1.713003367E-1,1.008351564E0,9.770641327E0
3.360599844E1,9.928275645E-2,1.042646170E0,9.452097893E0
3.362599844E1,-4.513357580E-1,8.325405121E-1,1.008383179E1
3.364599844E1,-8.577083945E-1,5.740625262E-1,1.136381912E1
3.366599844E1,-7.594695091E-1,2.115516663E-1,1.144770336E1
3.368600000E1,-2.127008885E-1,2.295464724E-1,1.046341801E1
3.370799844E1,2.609679848E-2,8.090199232E-1,9.220243454E0
3.372799844E1,1.834916174E-1,1.032609582E0,9.572229385E0
3.374802344E1,6.569593549E-1,1.293587208E0,1.033860397E1
3.376999844E1,1.252914429E0,1.874525905E0,9.507643700E0
3.378999844E1,6.512803435E-1,2.493781328E0,8.188533783E0
3.380999844E1,-7.357094884E-1,2.817381620E0,9.453237534E0
3.382999844E1,-3.713502586E-1,1.817543864E0,1.169241905E1
3.384999844E1,1.037809849E0,6.356892586E-1,1.134850693E1
3.386999844E1,2.036986828E0,3.375824541E-2,8.358761787E0
3.388999844E1,1.126711249E0,5.987706780E-1,7.970747471E0
3.390999844E1,-6.489244103E-1,1.262558341E0,1.016714096E1
3.392999844E1,-1.283694386E0,1.663069963E0,1.159555912E1
3.395000000E1,-7.164505124E-1,1.479932785E0,1.096669865E1
3.397200469E1,5.780273676E-1,1.101763844E0,1.000967884E1
3.399399844E1,1.150289416E0,1.021318555E0,9.344732285E0
3.401400000E1,4.335516393E-1,1.496337771E0,8.809273720E0
3.403400000E1,-3.862613440E-1,2.340265036E0,8.628223419E0
3.405400156E1,-8.278191686E-1,2.719267368E0,8.075641632E0
3.407600000E1,-3.965564370E-1,2.740882158E0,7.683050632E0
3.409600000E1,9.294290841E-2,2.021108627E0,8.425415993E0
3.411600000E1,5.006371737E-1,1.816394687E0,9.870297432E0
3.413800000E1,4.097915590E-1,1.321560979E0,1.053176785E1
3.416000000E1,7.750605345E-1,1.802718997E0,1.051979733E1
3.418000000E1,8.768237233E-1,2.221838474E0,1.013451195E1
3.420000000E1,6.368480921E-1,1.763502002E0,1.008073807E1
3.422000000E1,1.397160292E-1,1.347791910E0,9.690837860E0
3.424000000E1,7.753574252E-1,1.195616484E0,1.063650894E1
3.426200000E1,1.520499945E0,9.713946581E-1,1.137850094E1
3.428200469E1,1.112891912E0,1.506948829E0,1.063254356E1
3.430400000E1,1.090003371E0,1.413076997E0,1.151078510E1
3.432400000E1,1.081824780E0,1.517492890E0,1.077971077E1
3.434400000E1,1.300022840E0,1.860744834E0,7.988799572E0
3.436400000E1,1.043067455E0,2.069461584E0,6.945205688E0
3.438400000E1,1.997051537E-1,1.742289305E0,7.898950100E0
3.440400000E1,-5.640739575E-3,1.053611517E0,1.092755795E1
3.442400000E1,5.047168732E-1,4.171848595E-1,1.279162598E1
3.444400000E1,1.306946754E0,-5.165154934E-1,1.305889511E1
3.446400000E1,1.503395915E0,-1.142187476E0,1.265464878E1
3.448400000E1,1.490409613E0,-6.655018926E-1,1.240494347E1
3.450400000E1,9.076801538E-1,4.346337914E-1,1.080010033E1
3.452400000E1,2.571085095E-1,1.360615253E0,8.669050217E0
3.454600000E1,-3.284748793E-1,2.382843494E0,6.952752113E0
3.456600000E1,-3.836468756E-1,2.750238419E0,6.507287025E0
3.458600000E1,-9.479123354E-2,2.061101437E0,7.531430721E0
3.460800000E1,1.872265898E-2,1.545581698E0,8.775198936E0
3.462999844E1,2.632089555E-1,1.224442601E0,9.103491783E0
3.464999844E1,6.289376020E-1,1.037445903E0,8.865786552E0
3.467000000E1,4.874881804E-1,1.041573524E0,8.988140106E0
3.469000000E1,-4.807556793E-2,7.201853991E-1,9.363953590E0
3.471000000E1,1.266053878E-2,8.922998309E-1,1.212463951E1
3.473199844E1,8.719682693E-1,4.752011299E-1,1.301373100E1
3.475201875E1,6.847225428E-1,1.238147140E0,9.387971878E0
3.477400000E1,-1.666172743E-1,2.312932968E0,9.541180611E0
3.479400000E1,-1.918138564E-1,2.166187525E0,1.120946121E1
3.481400000E1,5.109801292E-1,1.769793987E0,9.458236694E0
3.483400000E1,1.094772696E0,9.770449996E-1,7.347737789E0
3.485400000E1,8.843318820E-1,3.472549915E-1,8.669633865E0
3.487400000E1,-3.946602345E-2,5.930342078E-1,1.171907139E1
3.489400000E1,-4.512208104E-1,9.838636518E-1,1.278397369E1
3.491400000E1,3.388657272E-1,1.531398416E0,1.056438637E1
3.493599844E1,1.110497832E0,1.529894948E0,8.879998207E0
3.495600000E1,1.869689584E0,1.467990398E0,8.386725426E0
3.497600000E1,1.988269567E0,1.265814424E0,8.593824387E0
3.499600312E1,1.616325617E0,1.577405453E0,8.229101181E0
3.501800000E1,1.400445223E0,1.978836417E0,7.241147995E0
3.503800000E1,1.507983208E0,2.202512503E0,6.755412579E0
3.505999844E1,1.507044673E0,2.465606451E0,7.037670135E0
3.508000000E1,9.378183484E-1,2.348299980E0,9.143206596E0
3.510000000E1,7.219092846E-1,2.197704792E0,1.091490746E1
3.512000000E1,1.316983223E0,1.840671897E0,1.160760784E1
3.514000000E1,1.649049520E0,1.254513741E0,1.142924881E1
3.516000000E1,1.064069510E0,7.920019031E-1,1.079591465E1
3.518000000E1,8.076121211E-1,2.740403116E-1,1.133994389E1
3.520200000E1,1.884476185E0,4.560858607E-1,1.194068813E1
3.522200000E1,1.439403653E0,1.580192208E0,1.064657402E1
3.524200000E1,8.091731668E-1,2.717189074E0,9.707013130E0
3.526200000E1,4.411747456E-1,2.217681885E0,1.122034931E1
3.528200000E1,1.376100898E0,9.572018385E-1,1.139154530E1
3.530200000E1,2.227057695E0,6.832956076E-1,9.784901619E0
3.532200000E1,2.217672348E0,6.640557647E-1,8.365733147E0
3.534200000E1,1.790048838E0,8.477005959E-1,8.105187416E0
3.536200156E1,1.194036245E0,8.614816070E-1,9.425359726E0
3.538400000E1,1.188318968E0,5.550813079E-1,1.038552094E1
3.540400000E1,1.929238200E0,1.092905179E-1,1.041603184E1
3.542400000E1,2.046544552E0,-1.014183834E-2,1.012665939E1
3.544400000E1,1.347131133E0,9.089443088E-1,9.577314377E0
3.546400000E1,4.089679420E-1,1.623881698E0,9.402815819E0
3.548400000E1,-6.825389713E-2,2.029411554E0,8.826081276E0
3.550599844E1,-4.688804746E-1,2.417186022E0,8.476823807E0
3.552600000E1,-3.770101666E-1,2.423382282E0,7.889747143E0
3.554600000E1,-3.215891719E-1,2.542584658E0,6.944257259E0
3.556600000E1,-3.714460135E-1,2.281090021E0,7.545279026E0
3.558600000E1,-2.615330219E-1,1.388062358E0,9.030267715E0
3.560799844E1,5.567955226E-2,8.856056333E-1,9.919675827E0
3.562800000E1,2.256582975E-1,2.804567814E-1,1.128491592E1
3.564801875E1,9.385270625E-2,-2.614659667E-1,1.211036968E1
3.567000000E1,7.214207947E-2,2.119634748E-1,1.353748608E1
3.569000000E1,6.403244734E-1,9.296780825E-1,1.260701370E1
3.571000000E1,4.669650793E-1,1.590621471E0,1.014502716E1
3.573200000E1,4.932151139E-1,2.410549402E0,9.622717857E0
3.575200625E1,8.892256618E-1,1.340590119E0,1.092459869E1
3.577400000E1,2.067517519E0,5.963956118E-1,1.073839664E1
3.579400000E1,2.370432138E0,1.984984726E-1,9.626415253E0
3.581400000E1,1.061062217E0,8.302708268E-1,8.560372353E0
3.583400000E1,-8.736155033E-1,1.843592763E0,9.612050056E0
3.585400000E1,-1.972496629E0,2.514428854E0,1.049351788E1
3.587400000E1,-1.394143701E0,2.077333927E0,1.039184093E1
3.589400000E1,2.548962831E-1,1.056369662E0,9.600432396E0
3.591400000E1,1.663845658E0,4.848258495E-1,8.529965401E0
3.593599844E1,2.157386541E0,7.021044493E-1,7.429226875E0
3.595600000E1,1.620539308E0,1.652851582E0,6.817757130E0
3.597600000E1,7.442615628E-1,2.251986027E0,6.791851997E0
3.599600156E1,9.778877348E-2,2.563251495E0,7.916092873E0
3.601799844E1,-7.525550723E-1,2.552420139E0,9.686442375E0
3.603800000E1,-1.103229046E0,2.910267115E0,1.117758846E1
3.606000000E1,-5.026195645E-1,2.303384781E0,1.109564018E1
3.608199844E1,1.113983750E0,1.209455013E0,1.000731373E1
3.610200000E1,2.073560476E0,8.714415431E-1,9.714837074E0
3.612200000E1,2.075322866E0,5.265136957E-1,1.003666592E1
3.614200000E1,1.239621878E0,8.549215645E-2,1.047599220E1
3.616200469E1,1.304341912E0,1.604977101E-1,1.250565338E1
3.618400000E1,1.822427988E0,5.517773032E-1,1.323514748E1
3.620400000E1,1.528209329E0,1.813876033E0,1.041767025E1
3.622400000E1,1.577731133E0,2.722571373E0,9.408878326E0
3.624400000E1,1.331865668E0,2.666221380E0,9.949861526E0
3.626400000E1,1.219702125E0,2.095338345E0,9.686643600E0
3.628400000E1,7.993760109E-1,1.999962926E0,9.131131172E0
3.630400000E1,2.964692116E-1,2.299678802E0,9.526528358E0
3.632400000E1,2.136777192E-1,2.266705513E0,1.078650093E1
3.634400000E1,3.737827837E-1,1.675299525E0,1.112186146E1
3.636400000E1,7.517984509E-1,9.251386523E-1,1.043897724E1
3.638400000E1,1.350684047E0,3.346327841E-1,1.032445908E1
3.640400000E1,1.660139441E0,-1.355118211E-2,1.042329121E1
3.642400000E1,1.627453804E0,3.112366199E-1,9.853758812E0
3.644400000E1,1.350492597E0,6.482253671E-1,9.222925186E0
3.646400000E1,5.383985043E-1,1.211083055E0,8.166660309E0
3.648600000E1,-1.843343824E-1,2.510215044E0,7.306729794E0
3.650800000E1,-9.681385756E-1,3.229232073E0,7.142056942E0
3.653000000E1,-1.477452278E0,2.482394457E0,8.936759949E0
3.655201406E1,-1.090185404E0,1.531791091E0,1.047988129E1
3.657400000E1,-5.684601068E-1,7.517122626E-1,1.037318516E1
3.659400156E1,-4.564880729E-1,6.555707455E-1,9.631097794E0
3.661600000E1,-1.857038587E-1,6.102245450E-1,1.025913429E1
3.663800000E1,1.439681351E-1,-2.200271338E-1,1.106602955E1
3.665800000E1,3.457705975E-1,6.721960753E-2,1.122515678E1
3.668000000E1,3.106907606E-1,9.167972803E-1,1.015281391E1
3.670200000E1,-1.002691686E-1,1.710379362E0,8.990456581E0
3.672200000E1,2.409716249E-1,1.332708359E0,1.058718872E1
3.674200000E1,1.641340256E0,5.783912539E-1,1.129882240E1
3.676200000E1,2.746685505E0,-2.242505103E-1,1.095817471E1
3.678200469E1,2.510081053E0,-5.826529488E-2,8.775122643E0
3.680400000E1,2.061886489E-1,2.052376747E0,7.803469658E0
3.682400000E1,-1.629120231E0,3.981499910E0,8.793807030E0
3.684400000E1,-2.006072760E0,4.127757072E0,1.052469063E1
3.686400000E1,-6.831806898E-1,2.388398170E0,1.129528809E1
3.688400000E1,8.379610181E-1,9.911899567E-1,1.079695892E1
3.690600000E1,1.789866924E0,7.105512023E-1,8.921551704E0
3.692600000E1,1.832579494E0,1.463192344E0,7.777497292E0
3.694600000E1,1.316868424E0,1.911875367E0,7.854916096E0
3.696600000E1,1.035214424E0,2.118102312E0,8.270999908E0
3.698600312E1,9.666445851E-1,2.007011414E0,8.603487015E0
3.700800000E1,1.026375175E0,1.118504047E0,9.726751328E0
3.703000000E1,1.392994404E0,7.221486568E-1,1.076097870E1
3.705000000E1,1.672800064E0,1.071864963E0,1.066395569E1
3.707200156E1,2.017670393E0,1.436195493E0,9.949976921E0
3.709400000E1,1.820139170E0,1.780414581E0,9.742917061E0
3.711400000E1,1.096544385E0,2.172268867E0,9.939068794E0
3.713400000E1,8.704168200E-1,1.776737094E0,1.135976887E1
3.715400000E1,1.137504339E0,1.477299094E0,1.208019352E1
3.717400000E1,1.088317871E0,2.255539179E0,1.066515350E1
3.719600000E1,9.871389270E-1,2.507591009E0,9.539189339E0
3.721800000E1,1.857546091E0,1.520116925E0,9.856372833E0
3.724000000E1,2.406067371E0,8.788444400E-1,1.013483810E1
3.726200000E1,2.089295387E0,5.606262684E-1,9.496821404E0
3.728200000E1,1.332718015E0,9.147095084E-1,9.458983421E0
3.730200000E1,3.407236338E-1,1.592565536E0,9.281687737E0
3.732200000E1,7.801745534E-1,2.047013760E0,8.556542397E0
3.734200000E1,1.544585705E0,8.046050072E-1,8.603908539E0
3.736200000E1,2.034152031E0,1.325908899E-1,8.721549988E0
3.738200156E1,1.565539837E0,6.410809755E-1,9.191177368E0
3.740200156E1,1.050048947E0,1.164357781E0,9.913057327E0
3.742399844E1,3.100395501E-1,1.890662670E0,9.524919510E0
3.744400000E1,-4.164187014E-1,2.852356195E0,8.335834503E0
3.746600000E1,-5.797032714E-1,2.769612551E0,9.348438263E0
3.748600000E1,-8.037813753E-2,1.833163619E0,1.022271442E1
3.750799844E1,3.009894788E-1,8.230021000E-1,1.085760975E1
3.752799844E1,4.573883116E-1,4.131625891E-1,1.085785866E1
3.754801875E1,5.598314404E-1,8.945503831E-1,9.705442429E0
3.757000000E1,2.004329860E-1,1.371982932E0,9.857426643E0
3.759000000E1,-2.058917731E-1,1.252579331E0,1.200046635E1
3.761000000E1,-3.246729076E-1,7.026503086E-1,1.383911800E1
3.763200625E1,6.229904294E-1,1.682750225E0,1.160299110E1
3.765400000E1,7.750797272E-1,3.021252632E0,7.671463013E0
3.767400000E1,1.360768378E-1,3.829468250E0,7.156403065E0
3.769400000E1,-3.845087811E-2,2.661423445E0,1.084627914E1
3.771400000E1,7.830092907E-1,1.260221601E0,1.154228306E1
3.773400000E1,1.660091519E0,3.639090955E-1,9.874789238E0
3.775400000E1,9.594140649E-1,5.171858668E-1,8.151825905E0
3.777400000E1,-6.839276552E-1,1.693179488E0,8.903653145E0
3.779400000E1,-1.755945802E0,2.598532438E0,9.584678650E0
3.781400000E1,-1.669237375E0,2.790700674E0,9.149078369E0
3.783400000E1,-4.941536486E-1,1.721507668E0,8.196243286E0
3.785599844E1,3.797395229E-1,9.562249780E-1,8.072136879E0
3.787600000E1,5.050807595E-1,9.114438295E-1,7.760067463E0
3.789600000E1,3.844130412E-2,1.636915684E0,7.290823460E0
3.791600000E1,-1.613404751E-1,2.202569723E0,6.395554066E0
3.793800000E1,-1.090223715E-1,2.397294998E0,6.642856598E0
3.796000000E1,1.286452413E-1,2.100183964E0,7.433517456E0
3.798000000E1,7.020278573E-1,1.937493443E0,8.922308922E0
3.800000000E1,1.013963580E0,1.625126719E0,1.018780708E1
3.802199844E1,1.267978787E0,1.488647580E0,1.120666409E1
3.804200000E1,1.531666636E0,1.084889412E0,1.219968319E1
3.806200000E1,1.603234172E0,6.570168734E-1,1.326243210E1
3.808200000E1,1.118168831E0,7.378163338E-1,1.317861557E1
3.810200000E1,1.264617324E0,1.295837760E0,1.225243282E1
3.812200000E1,1.412550330E0,1.737951040E0,1.118517399E1
3.814200000E1,6.256049275E-1,2.017900229E0,1.111733246E1
3.816200156E1,7.248685360E-1,8.526996970E-1,1.301338673E1
3.818400000E1,1.453529477E0,-4.060949087E-1,1.353262234E1
3.820400000E1,2.267050505E0,-2.055086941E-1,1.122013855E1
3.822400000E1,2.012862682E0,1.005334854E0,8.228880882E0
3.824400156E1,1.237352133E0,2.772878170E0,6.920267582E0
3.826600000E1,-9.060616791E-2,3.674601555E0,7.638882160E0
3.828800000E1,2.628642023E-1,2.584253311E0,8.824328423E0
3.830800000E1,1.186451435E0,1.260097027E0,9.390192986E0
3.832800000E1,1.958160162E0,1.456057727E-1,9.819033623E0
3.834801875E1,2.360376358E0,-1.664066017E-1,1.010846329E1
3.836999844E1,1.509199500E0,4.353999197E-1,9.444417000E0
3.839000000E1,3.744148314E-1,1.370728374E0,8.132729530E0
3.841200000E1,-3.556538820E-1,2.278331995E0,8.203252792E0
3.843201094E1,-3.762727380E-1,1.975465417E0,8.742772102E0
3.845400000E1,8.689995110E-2,1.032992721E0,9.729048729E0
3.847400000E1,4.109024704E-1,6.347507238E-1,1.021827030E1
3.849400000E1,3.151248097E-1,6.063459516E-1,9.908116341E0
3.851400000E1,-1.497716755E-1,6.867527962E-1,9.699715614E0
3.853400000E1,-8.901833296E-1,5.206239820E-1,1.063951683E1
3.855400000E1,-1.200213313E0,5.126177073E-1,1.208027077E1
3.857400000E1,-1.127707243E0,9.502107650E-2,1.204338932E1
3.859400000E1,1.829457432E-1,3.839054704E-1,9.926848412E0
3.861400000E1,1.295291901E0,8.522208929E-1,7.816062927E0
3.863400000E1,1.907489300E0,9.808470011E-1,7.909676075E0
3.865400000E1,1.797959208E0,6.868103147E-1,8.524813652E0
3.867400000E1,3.971788883E-1,1.074996591E0,9.159584045E0
3.869400000E1,-1.132189155E0,2.115535975E0,1.022412205E1
3.871400000E1,-1.872869015E0,2.421629667E0,1.083810043E1
3.873400000E1,-9.246598482E-1,2.158918619E0,1.044771194E1
3.875600000E1,5.958880782E-1,1.534520507E0,9.652635574E0
3.877600000E1,1.583151460E0,1.437938333E0,8.600327492E0
3.879600000E1,1.783076882E0,1.795402169E0,7.957483768E0
3.881799844E1,1.431445360E0,2.384165287E0,7.539839268E0
3.883799844E1,1.420862913E0,2.674725533E0,7.518252850E0
3.885800000E1,1.659555316E0,2.203058004E0,8.431899071E0
3.887999844E1,1.872514725E0,1.843956709E0,9.571740150E0
3.890000000E1,2.043594837E0,1.563212633E0,1.046665573E1
3.892200000E1,1.937282681E0,1.138758898E0,1.094547653E1
3.894200000E1,1.758052707E0,1.170601845E0,1.068842506E1
3.896200000E1,1.283416629E0,1.091133475E0,1.061406136E1
3.898200313E1,1.203373671E0,1.147033334E0,1.074410439E1
3.900400000E1,1.040050745E0,1.558069825E0,9.645941734E0
3.902400000E1,2.036795169E-1,2.270574808E0,9.071266174E0
3.904400000E1,8.687121421E-2,1.552994132E0,1.269723701E1
3.906400000E1,7.376152277E-1,-2.866146863E-1,1.465950584E1
3.908400000E1,1.906062245E0,-7.672458291E-1,1.317129898E1
3.910400000E1,9.046826363E-1,6.548812389E-1,9.897869110E0
3.912600000E1,-1.872457266E-1,2.497573614E0,9.591909409E0
3.914801875E1,-8.044517636E-1,3.052339077E0,9.752857208E0
3.917000000E1,4.429560602E-1,2.191949129E0,1.016057968E1
3.919202188E1,1.952519417E0,9.402413368E-1,1.000228500E1
3.921400000E1,2.844876766E0,5.064215511E-2,9.469642639E0
3.923400000E1,2.608291149E0,3.570329249E-1,9.124542236E0
3.925400000E1,1.629723549E0,1.368295908E0,9.092382431E0
3.927400000E1,1.047453642E0,1.953486562E0,8.533212662E0
3.929400000E1,8.199949265E-1,2.340351343E0,7.483038902E0
3.931400000E1,1.147349358E0,2.580719471E0,7.314611912E0
3.933600000E1,1.156973958E0,2.013274670E0,8.193973541E0
3.935800000E1,9.030354023E-1,1.733804226E0,9.521519661E0
3.937999844E1,6.163632870E-1,1.714372873E0,1.024624538E1
3.940000000E1,6.262561083E-1,1.493292332E0,1.004155922E1
3.942200000E1,6.763811111E-1,1.009615779E0,1.100755310E1
3.944200469E1,8.899918199E-1,7.195150852E-1,1.156308365E1
3.946400000E1,1.192255020E0,1.066070914E0,1.096650696E1
3.948400000E1,1.437277555E0,1.471476316E0,1.073984241E1
3.950400000E1,1.107557774E0,1.736993313E0,9.861726761E0
3.952400000E1,5.208058953E-1,1.731467485E0,9.472774506E0
3.954600000E1,5.091700554E-1,1.087906122E0,1.089175987E1
3.956600781E1,1.128550053E0,8.685588837E-1,1.087535477E1
3.958800000E1,1.509955883E0,7.748115659E-1,8.398343086E0
3.960800000E1,7.474027276E-1,1.241249919E0,6.893193722E0
3.962999844E1,-5.741870403E-1,2.051131725E0,8.705412865E0
3.965000000E1,-1.061138868E0,2.322346926E0,1.022651672E1
3.967000000E1,-7.184807658E-1,2.264253855E0,1.047331047E1
3.969000000E1,2.876010835E-1,1.709239721E0,9.448860168E0
3.971199844E1,1.409619808E0,1.224749088E0,8.132097244E0
3.973200000E1,1.770033360E0,1.314952970E0,7.313060760E0
3.975200781E1,1.298902392E0,1.992971778E0,6.997150421E0
3.977400000E1,8.482847810E-1,2.490065336E0,7.387337685E0
3.979400000E1,7.793892622E-1,2.548579931E0,7.565562725E0
3.981400000E1,7.684716582E-1,2.557687283E0,8.114821434E0
3.983400000E1,7.861695886E-1,2.212069988E0,9.176870346E0
3.985599844E1,1.094198108E0,1.838641644E0,1.098056507E1
3.987600000E1,1.377681136E0,1.424645782E0,1.192525959E1
3.989600625E1,1.408039570E0,1.554631829E0,1.162760353E1
3.991799844E1,9.249758720E-1,2.159512520E0,1.103027821E1
3.993800000E1,5.844150186E-1,2.099619150E0,1.067451954E1
3.995800000E1,9.682438970E-1,1.584406137E0,1.188455868E1
3.997800000E1,1.768778801E0,1.191958189E0,1.236064053E1
3.999800000E1,1.429482102E0,2.076788187E0,1.032963943E1
4.001999844E1,5.338973999E-1,2.280505896E0,9.397461891E0
4.004000000E1,6.872221231E-1,1.744434595E0,1.138509941E1
4.006200000E1,1.290704608E0,1.236327410E0,1.090548325E1
4.008200312E1,1.150634170E0,1.453998685E0,9.030468941E0
4.010201094E1,4.840596914E-1,1.625605464E0,9.315015793E0
4.012400000E1,-1.640890092E-1,1.346939564E0,1.153430557E1
4.014600000E1,-9.828676283E-2,1.364608765E0,1.159603786E1
4.016601719E1,5.040560365E-1,1.294372439E0,1.051644421E1
4.018800000E1,9.873209000E-1,1.132045627E0,9.194375992E0
4.020999844E1,9.590501785E-1,1.354371190E0,8.402374268E0
4.022999844E1,6.391465068E-1,1.582586408E0,8.014360428E0
4.025000000E1,2.547526360E-1,1.726851463E0,7.982651234E0
4.027000000E1,-1.049809605E-1,2.040137529E0,7.538507938E0
4.029000000E1,-3.564487696E-1,2.524407864E0,6.818045139E0
4.031000000E1,-3.340198696E-1,2.479578972E0,7.055281162E0
4.033000000E1,-4.993921816E-1,1.825741529E0,8.692781448E0
4.035200000E1,-5.603198409E-1,1.531082392E0,1.047260284E1
4.037200000E1,6.224924698E-3,1.261993289E0,1.023203278E1
4.039202969E1,4.927171469E-1,7.010031343E-1,1.012664986E1
4.041400000E1,5.444127321E-1,2.206209004E-1,1.130499935E1
4.043400000E1,5.662766099E-1,9.319190681E-2,1.288202190E1
4.045400156E1,5.714864135E-1,6.614508629E-1,1.330882168E1
4.047600000E1,2.528947294E-1,1.669840813E0,1.059594154E1
4.049800000E1,-3.864911795E-1,1.510329485E0,1.105267906E1
4.051999844E1,-6.235458702E-2,6.454576254E-1,1.319793129E1
4.054000000E1,6.963966489E-1,-7.583872974E-2,1.278641605E1
4.056200000E1,1.676870108E0,2.326206416E-1,1.021872044E1
4.058200000E1,1.154761791E0,1.014145494E0,8.107533455E0
4.060200000E1,-3.724611700E-1,2.330611706E0,7.658601284E0
4.062200312E1,-1.903945804E0,3.591005564E0,7.886251450E0
4.064399844E1,-2.295110703E0,3.647470474E0,9.203206062E0
4.066400000E1,-8.822250366E-1,1.984620810E0,9.388996124E0
4.068400000E1,1.052414417E0,1.000919938E0,8.297297478E0
4.070400000E1,1.811414719E0,1.008581400E0,6.749742985E0
4.072400000E1,1.087513447E0,2.112135887E0,6.156421185E0
4.074400000E1,2.650859952E-1,2.954942942E0,6.544559956E0
4.076400000E1,-1.488523036E-1,3.184901237E0,7.119704723E0
4.078400000E1,-2.877830528E-2,2.847663641E0,8.439599991E0
4.080400000E1,5.109896660E-1,2.324530602E0,9.490845680E0
4.082600000E1,1.133960962E0,1.786629915E0,1.042539883E1
4.084600000E1,1.699481010E0,1.445408344E0,1.094609833E1
4.086799844E1,2.054991245E0,1.164616346E0,1.104562092E1
4.088799844E1,1.737232804E0,1.564783216E0,1.108112240E1
4.090799844E1,1.459333062E0,1.309551716E0,1.146891594E1
4.092800000E1,1.425000072E0,1.247158766E0,1.213791275E1
4.094801875E1,1.281539559E0,2.288023710E0,1.140044117E1
4.097000000E1,6.146394834E-2,2.862785339E0,9.704158783E0
4.099200938E1,-2.956647575E-1,2.197187662E0,1.209078503E1
4.101400000E1,8.499128819E-1,1.185991764E-1,1.311307144E1
4.103400000E1,1.930799246E0,-1.714248396E-2,1.127602959E1
4.105600000E1,1.077275872E0,1.167834163E0,8.469009399E0
4.107800000E1,-1.537652165E-1,2.503635883E0,8.307525635E0
4.110000000E1,-4.045530260E-1,2.298567533E0,9.477160454E0
4.112000000E1,4.104236364E-1,1.226089835E0,9.945466042E0
4.114000000E1,1.445015669E0,5.388677120E-1,9.552989006E0
4.116200000E1,2.105662107E0,1.334815323E-1,9.083113670E0
4.118200625E1,1.828997731E0,3.696647286E-1,9.006852150E0
4.120400000E1,9.728886485E-1,1.337678790E0,8.772680283E0
4.122599844E1,3.712832332E-1,1.895805597E0,7.949295521E0
4.124599844E1,4.020343721E-1,2.421150923E0,7.192679882E0
4.126600000E1,1.805228144E-1,2.494882584E0,7.193340778E0
4.128800000E1,-1.503750086E-1,2.188654900E0,8.881703377E0
4.130800000E1,-2.712056041E-1,2.022966385E0,1.047623158E1
4.132800000E1,-2.825349569E-1,1.620644689E0,1.188153267E1
4.134801875E1,4.785530642E-2,1.258679628E0,1.097913837E1
4.136999844E1,-1.260020435E-1,1.403212905E0,1.044979000E1
4.139000000E1,-5.606358647E-1,1.463135004E0,1.182995224E1
4.141000000E1,1.771613508E-1,1.358288050E0,1.300505447E1
4.143000000E1,8.025842905E-1,1.813607812E0,1.135110188E1
4.145000000E1,8.470398784E-1,2.452696800E0,8.614710808E0
4.147000000E1,4.106630683E-1,2.834495306E0,9.037612915E0
4.149000000E1,7.401244044E-1,1.713357806E0,1.128671646E1
4.151200000E1,1.159981251E0,8.390240669E-1,1.100358772E1
4.153201719E1,1.570787787E0,1.093125463E0,9.425052643E0
4.155400000E1,3.655084372E-1,1.487785697E0,9.769989967E0
4.157400000E1,-1.051772833E0,2.007796764E0,1.042601109E1
4.159400000E1,-1.820799947E0,2.505800247E0,9.997238159E0
4.161600000E1,-1.137370348E0,2.462761879E0,8.555574417E0
4.163600000E1,2.529043257E-1,1.940988898E0,7.192603588E0
4.165600000E1,1.150471449E0,1.561029077E0,5.995234489E0
4.167799844E1,1.299610972E0,2.158995390E0,5.090647697E0
4.169799844E1,7.232787609E-1,2.412369013E0,6.137315750E0
4.171800000E1,3.876021206E-1,2.337162256E0,7.925497055E0
4.174000156E1,5.252400041E-1,2.092790842E0,8.464527130E0
4.176200000E1,9.611953497E-1,2.026289463E0,9.320655823E0
4.178200000E1,1.479817748E0,1.371073127E0,1.092464638E1
4.180200000E1,2.146066666E0,8.152161241E-1,1.085209274E1
4.182200156E1,2.410185337E0,1.146774769E0,9.986550331E0
4.184400000E1,1.291039824E0,2.138989210E0,8.827775955E0
4.186400000E1,-1.270938069E-1,2.901341438E0,7.896096230E0
4.188400000E1,-2.447257191E-1,3.083386898E0,1.058976460E1
4.190400000E1,7.174560428E-1,1.892242908E0,1.313636208E1
4.192400000E1,9.570103288E-1,1.651979923E0,1.254364491E1
4.194400000E1,8.621233106E-1,1.564572453E0,1.232638454E1
4.196400000E1,9.945705533E-1,7.433900833E-1,1.289872360E1
4.198400000E1,1.822859049E0,8.442338109E-1,1.129587173E1
4.200599844E1,1.704920650E0,9.330108166E-1,9.683339119E0
4.202600000E1,8.082824945E-1,1.238779068E0,9.790828705E0
4.204600000E1,1.516678929E-1,1.162519097E0,1.133531952E1
4.206800000E1,4.165144861E-1,5.939918756E-1,1.124896526E1
4.208800000E1,9.379428625E-1,5.383889079E-1,1.052273655E1
4.211000000E1,1.025723934E0,6.773387790E-1,9.575179100E0
4.213000000E1,7.179827690E-1,1.433456421E0,8.907186508E0
4.215200625E1,4.952358305E-1,1.967018723E0,8.155484200E0
4.217400000E1,1.046745032E-1,2.555494308E0,7.551685333E0
4.219400000E1,-2.632760108E-1,2.986412287E0,7.572132111E0
4.221400000E1,-4.942111075E-1,2.814882040E0,8.419487953E0
4.223400000E1,-5.294442177E-1,2.357398033E0,8.908959389E0
4.225600000E1,-3.426389992E-1,1.899186134E0,1.003312206E1
4.227799844E1,-6.258442998E-2,1.087455988E0,1.115365696E1
4.229800000E1,1.669524759E-1,6.237757802E-1,1.167317963E1
4.231800000E1,1.602104008E-1,8.943971395E-1,1.130355263E1
4.234000000E1,1.677569300E-1,1.186058879E0,1.074120331E1
4.236000000E1,2.333197445E-1,1.086191893E0,1.190101147E1
4.238200000E1,7.021619081E-1,1.558807254E0,1.222053242E1
4.240200000E1,8.803671002E-1,2.041191101E0,9.087862968E0
4.242200312E1,5.976023078E-1,2.898650408E0,7.774480343E0
4.244400000E1,-3.600879340E-3,2.446778297E0,8.852857590E0
4.246600000E1,-9.827718884E-2,1.591349244E0,8.181868553E0
4.248799844E1,-6.747626066E-1,1.076586246E0,8.072606087E0
4.250800000E1,-6.101862192E-1,4.525041282E-1,1.056287289E1
4.253000000E1,-6.759023070E-1,-2.661873400E-1,1.173709488E1
4.255000000E1,-2.943623066E-1,4.211879671E-1,9.916707039E0
4.257000000E1,-1.316906810E-1,1.395417333E0,8.410207748E0
4.259000000E1,9.984778613E-2,1.071759701E0,8.652874947E0
4.261000000E1,4.344614148E-1,1.262778521E0,8.541898727E0
4.263000000E1,5.943653584E-1,1.809470534E0,7.404451847E0
4.265000000E1,8.580531478E-1,2.183952332E0,6.232576370E0
4.267000000E1,1.245808482E0,2.588467360E0,5.779861450E0
4.269000000E1,1.161618829E0,2.122660875E0,7.017261505E0
4.271200000E1,1.256362200E0,1.686217189E0,9.248992920E0
4.273200000E1,1.325114012E0,1.537029624E0,1.041201019E1
4.275200000E1,1.581236243E0,1.329557657E0,1.095464993E1
4.277200000E1,1.674150229E0,1.277603507E0,1.171842957E1
4.279201250E1,1.551069260E0,1.328054070E0,1.208183098E1
4.281400000E1,1.186556816E0,1.874621630E0,1.171456051E1
4.283400000E1,6.303550005E-1,2.145769835E0,1.201380730E1
4.285400000E1,5.561634302E-1,2.425996542E0,1.186247444E1
4.287400000E1,3.851887584E-1,2.468364477E0,9.825430870E0
4.289400000E1,-4.716864526E-1,2.312300682E0,9.355792999E0
