"Time (s)","Gyroscope x (rad/s)","Gyroscope y (rad/s)","Gyroscope z (rad/s)"
1.528510000E-1,9.337511845E-3,-1.533446312E-1,-1.409178823E-1
1.728510000E-1,1.998402029E-1,3.890338913E-2,-2.327222079E-1
1.928603750E-1,3.323106766E-1,2.658485472E-1,-3.719122112E-1
2.148510000E-1,2.622182667E-1,2.709449232E-1,-4.624773562E-1
2.348650630E-1,2.823244631E-1,1.422792375E-1,-3.814068139E-1
2.568494380E-1,5.409822464E-1,7.379251719E-2,-2.336297780E-1
2.768510000E-1,6.329087615E-1,3.623303398E-2,-3.235665858E-1
2.968510000E-1,4.878718853E-1,-5.405284837E-2,-3.995058537E-1
3.168556880E-1,8.916886896E-2,-1.624726951E-1,-4.133114219E-1
3.388510000E-1,-4.493001103E-1,-1.258207858E-1,-2.319717109E-1
3.608494380E-1,-5.529202819E-1,-7.963937521E-2,-1.030442417E-1
3.808494380E-1,-2.188991904E-1,7.784168236E-3,-1.583537161E-1
4.008556880E-1,2.494948208E-1,-6.161012221E-3,-2.882411182E-1
4.228494380E-1,6.151412725E-1,2.694788389E-2,-2.166651785E-1
4.428556880E-1,5.498310924E-1,5.061454698E-2,-9.793042392E-2
4.648494380E-1,-4.370304570E-2,6.489133835E-2,-1.468171030E-1
4.848494380E-1,-6.306921840E-1,2.247984149E-2,-2.442762852E-1
5.048510000E-1,-7.307868004E-1,-4.590216093E-3,-2.965489030E-1
5.248588130E-1,-4.722511768E-1,4.801400751E-2,-3.176150024E-1
5.468494380E-1,-1.158374995E-1,1.954768784E-3,-3.227637410E-1
5.668510000E-1,1.012639999E-1,-1.339714676E-1,-2.943323255E-1
5.868510000E-1,1.476024985E-1,-1.994736791E-1,-2.705434859E-1
6.068510000E-1,9.637708217E-2,-1.007927656E-1,-1.895427555E-1
6.288510000E-1,9.442231618E-3,1.481959075E-1,-1.816364080E-1
6.488697500E-1,2.007128671E-3,2.438748628E-1,-1.707804650E-1
6.708494380E-1,3.892084211E-2,2.572440803E-1,-1.396612525E-1
6.908494380E-1,6.003932655E-2,2.564063072E-1,-9.440486133E-2
7.108494380E-1,1.277057379E-1,1.671676338E-1,-7.169812173E-2
7.308510000E-1,2.114815414E-1,7.895869762E-2,-2.736676298E-2
7.508510000E-1,2.459168881E-1,2.951351739E-2,5.410520732E-2
7.708510000E-1,2.381327152E-1,7.241371274E-2,1.237787530E-1
7.908510000E-1,2.168048024E-1,1.015258059E-1,1.749867052E-1
8.108510000E-1,1.608844548E-1,1.023112014E-1,2.281319797E-1
8.328619380E-1,2.626720443E-2,-6.236061454E-2,2.680825591E-1
8.548510000E-1,6.352998316E-2,-8.955284208E-2,2.767917514E-1
8.768510000E-1,7.850491256E-2,1.757546514E-2,3.267081678E-1
8.968510000E-1,-2.469466329E-1,1.897172816E-2,4.310614169E-1
9.188494380E-1,-6.022782326E-1,-2.728298604E-1,4.245338738E-1
9.388494380E-1,-4.354247451E-1,-4.594753683E-1,3.413514793E-1
9.588494380E-1,1.626297832E-1,-3.017674387E-1,2.517637312E-1
9.788494380E-1,6.553885937E-1,9.473647177E-2,3.250501156E-1
9.988510000E-1,6.775019169E-1,2.285508662E-1,3.422765136E-1
1.020851000E0,2.039591819E-1,3.377212211E-2,2.449220568E-1
1.042851000E0,-3.707079291E-1,-2.528458536E-1,1.473930478E-1
1.064849438E0,-5.411044359E-1,-3.123790324E-1,1.064825356E-1
1.084851000E0,-3.293087184E-1,-2.070658654E-1,1.313534826E-1
1.106849438E0,6.236061454E-2,-1.122246683E-2,9.180431813E-2
1.126849438E0,2.905274928E-1,4.513421282E-2,8.035495877E-2
1.146849438E0,3.126931787E-1,2.288126573E-2,1.288402081E-1
1.166871313E0,1.870643944E-1,4.782202188E-3,1.468171030E-1
1.188849438E0,-1.070934013E-1,5.930628628E-2,1.156455129E-1
1.208849438E0,-2.948210239E-1,-3.481931984E-2,1.253146380E-1
1.228849438E0,-3.504097462E-1,-1.341460049E-1,8.136724681E-2
1.248869750E0,-1.988453567E-1,-1.460316926E-1,2.331759781E-2
1.270849438E0,-1.500983164E-2,1.408306211E-1,-9.347983450E-2
1.290849438E0,-5.585053586E-4,4.039390087E-1,-1.484402567E-1
1.310849438E0,-7.967428118E-2,3.070208728E-1,-2.073451132E-1
1.330849438E0,-1.809033751E-1,1.926843449E-2,-2.196671367E-1
1.350849438E0,-1.134813055E-1,-2.107834071E-1,-2.906147838E-1
1.370851000E0,9.349729121E-2,-2.826560736E-1,-3.660304546E-1
1.390851000E0,1.882861257E-1,-2.972295582E-1,-3.889466226E-1
1.412851000E0,1.735206395E-1,-1.224173903E-1,-2.793050408E-1
1.432851000E0,1.394692659E-1,3.607595712E-2,-1.589296758E-1
1.454851000E0,-1.982693970E-1,6.782349199E-2,-4.941027239E-2
1.474851000E0,-5.490282178E-1,-1.097113937E-1,-5.869542435E-2
1.494851000E0,-5.102295280E-1,-1.651430577E-1,-7.335618883E-2
1.514851000E0,-2.083748579E-1,-8.246680349E-2,-1.162040234E-1
1.534851000E0,1.625774205E-1,-1.014036313E-2,-1.517040133E-1
1.556851000E0,3.913900852E-1,-3.239331022E-2,-2.085668445E-1
1.576851000E0,9.707520902E-2,-1.325054020E-1,-3.166550994E-1
1.596852563E0,-3.497988880E-1,-1.327322870E-1,-2.385690510E-1
1.618851000E0,-4.561941624E-1,3.200933710E-2,-1.779363155E-1
1.638851000E0,-2.556209266E-1,4.229456484E-1,-2.112371922E-1
1.660851000E0,-1.638864167E-2,5.984385014E-1,-2.705783844E-1
1.682851000E0,9.213592857E-2,4.024031162E-1,-2.489537597E-1
1.702855688E0,1.200088412E-1,1.208116934E-1,-2.775596976E-1
1.724851000E0,1.819505692E-1,-9.403833747E-2,-2.520255446E-1
1.744851000E0,3.016452491E-1,3.488913178E-2,-1.984090358E-1
1.764851000E0,3.522074521E-1,1.964891702E-1,-1.427679360E-1
1.784851000E0,2.121971250E-1,2.263517529E-1,-3.799581900E-2
1.804851000E0,-5.969026126E-3,1.394169033E-1,2.167698927E-2
1.824851000E0,-1.227141023E-1,-3.811798990E-2,9.674359858E-2
1.844851000E0,2.441715635E-2,-2.158797681E-1,1.690351367E-1
1.864851000E0,2.423738688E-1,-2.040115297E-1,7.518878579E-2
1.884851000E0,3.982317746E-1,-4.944517836E-2,5.585053470E-3
1.904851000E0,4.133637846E-1,2.616248466E-2,3.958406672E-2
1.924851000E0,2.871241271E-1,1.181587856E-2,6.281439960E-2
1.946849438E0,1.230457127E-1,-4.712388909E-4,6.258750707E-2
1.966851000E0,1.078089848E-1,-2.764601447E-2,7.232644409E-2
1.986851000E0,1.175479218E-1,-3.487167880E-2,7.073819637E-2
2.008849438E0,-6.665412337E-2,-3.049613833E-1,1.130100712E-1
2.028849438E0,-3.044028878E-1,-3.878121674E-1,2.332458049E-1
2.048869750E0,-3.132691383E-1,-2.457249016E-1,3.170565069E-1
2.070849438E0,-9.435249865E-2,3.361504152E-2,2.742435932E-1
2.090849438E0,5.003859103E-2,2.541199327E-1,9.655161202E-2
2.110849438E0,-2.399827726E-2,2.056346983E-1,-1.029744279E-3
2.130849438E0,-1.693667471E-1,8.337438107E-2,5.831145123E-2
2.150849438E0,-2.378883809E-1,-4.492477328E-2,1.852841526E-1
2.170858813E0,-2.226341963E-1,-1.148077548E-1,3.118379712E-1
2.192855688E0,-1.907994002E-1,-2.353227437E-1,3.217339814E-1
2.214851000E0,-1.861568242E-1,-2.750464380E-1,2.731614709E-1
2.234851000E0,-1.446354389E-1,-2.951700687E-1,1.887049973E-1
2.254851000E0,-1.062905509E-2,-2.354623675E-1,1.003913358E-1
2.276849438E0,7.635815442E-2,-1.286133081E-1,2.809980139E-2
2.296851000E0,-2.469640970E-2,-5.715953186E-2,1.130973361E-2
2.316851000E0,-8.096582443E-2,3.480186686E-2,5.724680144E-3
2.338849438E0,-3.576179594E-2,2.005906850E-1,-3.452261165E-2
2.358851000E0,1.535889693E-3,3.360631466E-1,-1.380031854E-1
2.380851000E0,1.780235791E-3,4.653396904E-1,-2.475225925E-1
2.402855688E0,-7.379251719E-2,4.299793243E-1,-3.592411280E-1
2.424851000E0,-1.324704885E-1,1.516167521E-1,-4.215319157E-1
2.446849438E0,-1.655968428E-1,-1.438500434E-1,-4.344473481E-1
2.466851000E0,-2.290919125E-1,-2.663547099E-1,-4.655316770E-1
2.488851000E0,-2.838254273E-1,-1.757022887E-1,-4.305552840E-1
2.510851000E0,-1.534144431E-1,3.476346731E-1,-2.223549485E-1
2.532857250E0,2.809980186E-3,6.599438787E-1,-1.124341115E-1
2.552869750E0,-1.875356287E-1,2.756398618E-1,-1.529082954E-1
2.574851000E0,-4.333827198E-1,-1.243023500E-1,-2.586577833E-1
2.594851000E0,-3.432539105E-1,1.413367689E-1,-1.319468915E-1
2.614851000E0,-9.648180008E-2,5.336693525E-1,-4.616395757E-2
2.634851000E0,2.054252476E-2,1.978156120E-1,-7.489208132E-2
2.654851000E0,7.621853054E-2,-5.091125369E-1,-1.996307522E-1
2.674851000E0,2.287254035E-1,-5.216265321E-1,-4.595451951E-1
2.694851000E0,2.731265724E-1,-1.787391752E-1,-6.819350719E-1
2.714851000E0,8.485791087E-2,2.259154171E-1,-8.004428744E-1
2.734851000E0,-1.385093331E-1,-4.022983834E-2,-5.354844928E-1
2.754851000E0,-2.582389116E-1,-1.911135465E-1,-2.571917176E-1
2.776865063E0,-3.299021423E-1,-3.352253735E-1,-1.403768361E-1
2.798849438E0,-3.035302162E-1,-3.314380348E-1,-1.123642996E-1
2.818849438E0,-2.121971250E-1,-1.666440368E-1,-7.262314856E-2
2.838851000E0,-1.258207858E-1,-4.098033160E-2,2.822197415E-2
2.860849438E0,-8.157669008E-2,-1.049291939E-1,1.768542081E-1
2.880851000E0,-3.384193406E-2,-2.951351702E-1,2.439970225E-1
2.902851000E0,6.307619810E-2,-3.786666393E-1,2.579771280E-1
2.924851000E0,1.868549436E-1,-2.568950057E-1,3.051882684E-1
2.946849438E0,2.665815949E-1,-6.990043819E-2,4.439768493E-1
2.966849438E0,3.022037446E-1,1.570796303E-4,4.584980011E-1
2.986849438E0,3.084695041E-1,2.993239649E-2,3.600614369E-1
3.006849438E0,2.724633515E-1,-1.358738840E-1,1.866280586E-1
3.026849438E0,2.252521962E-1,-2.522698939E-1,5.599016324E-2
3.046849438E0,2.130174339E-1,-1.204277156E-3,8.724901080E-2
3.066849438E0,1.400277615E-1,2.117782533E-1,2.287079394E-1
3.086849438E0,6.527531426E-3,8.744099736E-2,2.288475633E-1
3.106849438E0,-1.083849464E-2,7.103490178E-3,1.883210242E-1
3.126849438E0,4.478514940E-2,2.090904489E-2,1.425933987E-1
3.146849438E0,9.847147763E-2,6.773623079E-2,6.663667411E-2
3.166849438E0,6.700319052E-2,1.277581044E-2,1.018225104E-1
3.186851000E0,1.930334233E-2,-4.639085010E-2,6.825982779E-2
3.208851000E0,-8.107054234E-2,-1.128529906E-1,5.106833205E-2
3.230851000E0,-1.744282097E-1,-7.922049612E-2,-3.892084118E-3
3.252851000E0,-2.823942602E-1,3.787364578E-3,-1.891936921E-2
3.272851000E0,-3.266209066E-1,-3.153809905E-2,1.154360771E-1
3.292854125E0,-2.951526344E-1,-1.017876044E-1,3.166201711E-1
3.312860375E0,-2.030865103E-1,-3.213151172E-2,3.958930373E-1
3.334849438E0,-1.286482215E-1,1.770985574E-1,3.554362953E-1
3.354849438E0,-1.633802652E-1,2.192657143E-1,3.090454638E-1
3.374849438E0,-2.432116270E-1,2.653249502E-1,3.027448058E-1
3.394849438E0,-2.941054404E-1,2.958333194E-1,2.406110913E-1
3.414849438E0,-3.130422533E-1,4.122991264E-1,1.902408898E-1
3.434851000E0,-2.815565169E-1,3.870442212E-1,1.563815027E-1
3.454851000E0,-1.597150862E-1,2.407332659E-1,1.523148865E-1
3.474851000E0,3.232349828E-2,4.263839498E-2,1.286482215E-1
3.494851000E0,2.391275615E-1,-1.911135465E-1,8.121016622E-2
3.514851000E0,4.311312437E-1,-3.669554591E-1,-3.665191471E-4
3.534851000E0,5.646837950E-1,-4.890412688E-1,-1.044230461E-1
3.554851000E0,6.095038652E-1,-5.170014501E-1,-1.974491030E-1
3.574851000E0,5.716302395E-1,-1.445307136E-1,-1.476199478E-1
3.594851000E0,4.037644565E-1,3.906046972E-2,-1.089434549E-1
3.614851000E0,3.810053691E-2,-4.506614506E-1,-3.398505151E-1
3.634851000E0,-1.973618269E-1,-8.630653024E-1,-6.493322849E-1
3.656849438E0,-5.808455870E-2,-2.916096151E-1,-6.525611281E-1
3.676849438E0,1.655968428E-1,5.611059070E-1,-4.231027067E-1
3.696849438E0,2.109404951E-1,6.234141588E-1,-1.746376455E-1
3.716849438E0,1.600641459E-1,1.223475784E-1,-1.525243223E-1
3.736851000E0,7.724827528E-2,-3.309493363E-1,-3.655068576E-1
3.758849438E0,-6.342526525E-2,-5.163033009E-1,-7.314500213E-1
3.778849438E0,-1.639213264E-1,-2.926044464E-1,-9.045168757E-1
3.798849438E0,-2.369284481E-1,1.961750165E-2,-7.786088586E-1
3.818849438E0,-3.064798117E-1,1.559102684E-1,-4.733332992E-1
3.838851000E0,-3.466922045E-1,1.866280586E-1,-2.634225488E-1
3.860849438E0,-2.523047924E-1,9.532988071E-2,-2.193355262E-1
3.880851000E0,-5.351179466E-2,2.460041642E-1,-2.054950595E-1
3.902851000E0,1.367290914E-1,4.547455311E-1,-1.762084365E-1
3.922851000E0,1.333780587E-1,3.712315261E-1,-5.682792142E-2
3.942851000E0,7.784168236E-3,1.841496825E-1,9.005898982E-2
3.962851000E0,-9.964084625E-2,-1.542696506E-1,1.386140436E-1
3.982851000E0,-2.783800103E-2,-2.186373919E-1,1.195725054E-1
4.002855688E0,1.920385808E-1,-5.113814492E-3,1.573065221E-1
4.024851000E0,3.781779408E-1,2.227738202E-1,2.482905388E-1
4.044851000E0,3.810577393E-1,1.052957103E-1,3.195348680E-1
4.064851000E0,2.755176723E-1,-2.129301727E-1,1.692445725E-1
4.084851000E0,1.841671467E-1,-4.379903674E-1,-1.060811132E-1
4.106851000E0,2.255488932E-1,-1.518611014E-1,-1.669581980E-1
4.128851000E0,1.879719645E-1,3.079982400E-1,5.103342608E-2
4.148869750E0,-1.706931926E-2,2.677335143E-1,2.632654607E-1
4.170860375E0,-1.542347521E-1,2.913129032E-1,4.302411079E-1
4.190874438E0,-1.378111988E-1,3.209486008E-1,3.995931447E-1
4.212851000E0,-3.719296679E-2,1.147728488E-1,2.853089571E-1
4.232851000E0,4.125958309E-2,-1.055924222E-1,1.301492006E-1
4.252851000E0,3.600614145E-2,-3.677234054E-1,3.427826613E-2
4.272857250E0,-2.288126573E-2,-3.907094002E-1,7.602654397E-2
4.294851000E0,-1.375319511E-1,-1.067966968E-1,4.155628756E-2
4.316849438E0,-3.504446447E-1,-7.086036727E-3,-9.677850455E-2
4.336849438E0,-4.323180616E-1,-8.970992267E-2,-1.193281636E-1
4.356849438E0,-3.094643354E-1,-1.365196556E-1,2.743657492E-2
4.376851000E0,-4.892157763E-2,-1.149822921E-1,2.625847757E-1
4.396851000E0,1.712691635E-1,-9.669124149E-3,4.331732690E-1
4.418849438E0,2.910511196E-1,1.181762442E-1,4.521973431E-1
4.438849438E0,2.551671267E-1,6.829473376E-2,2.529854774E-1
4.458849438E0,1.514073163E-1,-5.761331692E-2,-1.308996975E-2
4.478851000E0,5.611233413E-2,-7.831292599E-2,-8.779006451E-2
4.500849438E0,8.302531391E-2,1.899790913E-1,4.485496134E-2
4.520849438E0,1.743932962E-1,4.566653967E-1,2.032086849E-1
4.540849438E0,1.882162988E-1,4.751309752E-1,1.851096153E-1
4.560851000E0,1.313011199E-1,1.684242785E-1,3.000221029E-2
4.580851000E0,9.820967913E-2,-1.535191536E-1,-1.955641359E-1
4.600851000E0,1.455953717E-1,-1.722989082E-1,-1.796641946E-1
4.622851000E0,9.962339699E-2,3.166376352E-1,1.177922711E-1
4.644851000E0,-1.399753988E-1,3.507937193E-1,1.568876505E-1
4.664851000E0,-4.575555027E-1,-4.292288125E-1,-7.337363809E-2
4.684851000E0,-6.151412725E-1,-1.443073153E0,-4.779060483E-1
4.706849438E0,-3.090279996E-1,-1.198866606E0,-4.102396369E-1
4.726849438E0,1.835039109E-1,-2.261423171E-1,-6.485643238E-2
4.746849438E0,4.946263134E-1,6.823364496E-1,3.241600096E-1
4.766858813E0,4.839274287E-1,7.018666863E-1,3.838677108E-1
4.788851000E0,2.120400518E-1,1.047372073E-1,4.572762549E-2
4.808851000E0,-3.359758854E-2,-4.882383943E-1,-5.686282516E-1
4.828851000E0,-1.845860183E-1,-3.603232205E-1,-9.093514681E-1
4.848869750E0,-2.653947771E-1,1.112821922E-1,-7.748563886E-1
4.870851000E0,-3.504446447E-1,4.154756367E-1,-3.379481137E-1
4.892849438E0,-3.772180080E-1,3.143337965E-1,-6.963863969E-2
4.912851000E0,-3.336895108E-1,1.292067170E-1,-6.932447851E-2
4.932851000E0,-2.031563222E-1,7.841764390E-2,-1.764702350E-1
4.952851000E0,-1.701696031E-2,2.205398083E-1,-1.762957126E-1
4.972851000E0,1.003564298E-1,3.867824078E-1,-1.675515994E-2
4.992855688E0,7.817329466E-2,2.764077783E-1,1.662251502E-1
5.014851000E0,1.181587856E-2,-8.747590333E-2,2.910685539E-1
5.034851000E0,4.797910154E-2,-2.452536672E-1,3.197268546E-1
5.056849438E0,2.093522400E-1,-2.010444701E-1,4.045673311E-1
5.076849438E0,3.759788275E-1,6.499606371E-2,4.665614069E-1
5.096851000E0,4.181459844E-1,3.384018838E-1,5.563237071E-1
5.118849438E0,3.303210139E-1,3.869045973E-1,4.969126880E-1
5.138849438E0,1.429948211E-1,2.194402516E-1,2.182185203E-1
5.158849438E0,-5.880014226E-2,-5.951572675E-3,-1.816887781E-2
5.178849438E0,-1.369559914E-1,9.896016680E-3,-5.352924764E-2
5.198849438E0,-1.625250578E-1,1.861742735E-1,1.104967967E-1
5.218849438E0,-1.957910359E-1,2.169618756E-1,3.612482548E-1
5.238849438E0,-2.253569067E-1,2.081130594E-1,4.239404798E-1
5.258849438E0,-1.866629571E-1,-1.054702476E-1,3.133738637E-1
5.278849438E0,-9.005898610E-3,-4.508185387E-1,1.748121828E-1
5.298849438E0,1.912357211E-1,-4.879591465E-1,1.068839654E-1
5.318849438E0,2.307674289E-1,-2.165430039E-1,2.347467840E-2
5.338849438E0,6.021386012E-3,-1.034282148E-1,-1.077391729E-1
5.358849438E0,-2.892359495E-1,-1.821774691E-1,-2.018298805E-1
5.378849438E0,-4.200134873E-1,-2.313259393E-1,-2.756921947E-1
5.398849438E0,-3.885277510E-1,-1.891064197E-1,-2.211157680E-1
5.418851000E0,-3.091501594E-1,-1.629090309E-1,-4.326671362E-2
5.440851000E0,-1.898220032E-1,6.349507719E-2,2.656565607E-1
5.462849438E0,-1.452812105E-1,4.533492625E-1,4.705582261E-1
5.482851000E0,-2.105739713E-1,5.542641878E-1,4.805589616E-1
5.502851000E0,-2.588672340E-1,3.518583775E-1,4.213922918E-1
5.524849438E0,-2.020393163E-1,-1.537635084E-2,2.515892088E-1
5.544849438E0,-5.482079089E-2,-3.295879662E-1,6.616543233E-2
5.564851000E0,1.787740737E-1,-3.361504078E-1,-3.991568089E-2
5.584851000E0,4.086513817E-1,1.391027402E-2,-3.230604529E-2
5.604851000E0,5.257455111E-1,1.816538721E-1,1.513200440E-2
5.624851000E0,4.922875762E-1,-4.138175771E-2,5.232496932E-2
5.644851000E0,4.337841272E-1,-5.534264445E-1,6.464699656E-2
5.664851000E0,5.317843556E-1,-6.447246075E-1,3.913028166E-2
5.684851000E0,8.022056818E-1,-1.299223155E-1,1.033234876E-2
5.706849438E0,9.578890204E-1,7.361973524E-1,1.557008177E-1
5.726849438E0,7.456220984E-1,1.074424624E0,2.620961070E-1
5.746849438E0,2.097885758E-1,4.359832406E-2,2.834414691E-2
5.766854125E0,-2.062106431E-1,-1.327479959E0,-4.695633948E-1
5.788854125E0,-1.349139512E-1,-9.716771245E-1,-7.181506157E-1
5.810849438E0,1.661553383E-1,2.095791399E-1,-5.030388236E-1
5.830849438E0,2.807536721E-1,6.570815444E-1,-2.913652658E-1
5.850849438E0,6.754424423E-2,2.685887218E-1,-3.036523759E-1
5.870849438E0,-2.521128058E-1,-1.696809083E-1,-4.276405573E-1
5.890849438E0,-5.297248960E-1,-2.819055915E-1,-5.971469283E-1
5.910849438E0,-6.929480433E-1,-2.770710289E-1,-7.146773934E-1
5.930849438E0,-7.057936788E-1,-2.449045926E-1,-5.389053226E-1
5.950851000E0,-5.669003725E-1,-1.339016557E-1,-2.938436270E-1
5.970857250E0,-3.340734839E-1,1.040216237E-1,-8.049458265E-2
5.992857250E0,-1.404815465E-1,2.358463407E-1,2.129301615E-2
6.014849438E0,-2.375393175E-2,2.450791299E-1,-2.727949619E-2
6.034849438E0,6.705555320E-2,2.046398520E-1,-1.394169033E-1
6.054849438E0,1.151742786E-1,-2.679080330E-2,-1.832421124E-1
6.074851000E0,8.669050038E-2,-1.803274155E-1,-1.344601661E-1
6.096849438E0,-1.900663599E-2,-1.946042180E-1,-9.457939118E-2
6.116849438E0,-4.199262336E-2,-1.792627722E-1,-1.937315427E-2
6.136849438E0,8.707447350E-2,-8.840092272E-2,1.588773280E-1
6.156849438E0,3.311762214E-1,1.911484599E-1,4.291240871E-1
6.176851000E0,5.100899339E-1,3.556806445E-1,4.651128054E-1
6.198851000E0,5.305975676E-1,1.938013583E-1,1.399579495E-1
6.220849438E0,3.973765671E-1,8.555603772E-2,-3.623478115E-1
6.240851000E0,2.919586897E-1,1.053829789E-1,-6.183177829E-1
6.262851000E0,1.403419226E-1,2.961823717E-2,-5.841791630E-1
6.284849438E0,-2.843141370E-2,-1.413193047E-1,-3.491531014E-1
6.304849438E0,-5.194099993E-2,-5.138772726E-1,-1.138303727E-1
6.324849438E0,6.536258012E-2,-3.620510995E-1,1.448623254E-3
6.344849438E0,5.660102889E-2,-9.325294197E-2,-1.703441329E-2
6.364849438E0,-1.505695581E-1,-2.142740786E-1,-8.358381689E-2
6.384849438E0,-3.168121576E-1,-3.519980013E-1,-1.764876992E-1
6.404851000E0,-3.353999257E-1,-1.468520015E-1,-2.354449183E-1
6.424851000E0,-3.397108912E-1,9.162978828E-2,-2.347118706E-1
6.446849438E0,-3.797312975E-1,2.224945724E-1,-5.791002512E-2
6.466849438E0,-4.193153381E-1,2.231228948E-1,1.314058453E-1
6.486849438E0,-3.824889064E-1,1.014734432E-1,3.349112272E-1
6.506849438E0,-2.208888680E-1,1.902757883E-1,4.586899877E-1
6.526851000E0,-1.054702476E-1,3.848974705E-1,4.831769466E-1
6.546851000E0,-8.515461534E-2,4.547455311E-1,3.945142329E-1
6.566852563E0,-1.172337681E-1,3.767991364E-1,2.580469251E-1
6.588849438E0,-1.670454592E-1,5.628686771E-2,-7.853981806E-4
6.608849438E0,-2.126683742E-1,-3.436553180E-1,-1.447576135E-1
6.628851000E0,-1.377762854E-1,-4.575904310E-1,-1.470614374E-1
6.648869750E0,9.370672703E-2,-1.528908461E-1,-1.125562862E-1
6.670851000E0,2.951875329E-1,2.525491416E-1,-8.077383786E-2
6.692851000E0,3.013136387E-1,-9.250245057E-3,-1.157327816E-1
6.714851000E0,2.437701374E-1,-4.964938164E-1,-1.732064784E-1
6.736851000E0,2.816961408E-1,-4.628264010E-1,-9.531243145E-2
6.756851000E0,3.771132827E-1,3.156428039E-1,2.466150224E-1
6.776851000E0,2.519208193E-1,8.556650877E-1,2.707180083E-1
6.796851000E0,-1.254891753E-1,6.543413997E-1,-7.742280513E-2
6.818849438E0,-4.352152944E-1,-1.143714264E-1,-5.465673208E-1
6.838849438E0,-2.912954390E-1,-2.020393163E-1,-5.137376785E-1
6.858849438E0,1.094146892E-1,4.899139330E-2,-2.493202835E-1
6.878849438E0,4.436627030E-1,2.344326228E-1,-1.661553420E-2
6.898849438E0,4.959527552E-1,3.586826026E-1,8.740609139E-2
6.918849438E0,2.005383372E-1,2.182708681E-1,-6.789331138E-2
6.938849438E0,-2.362477630E-1,-9.887290001E-2,-3.479139209E-1
6.958849438E0,-5.172632337E-1,-3.491182029E-1,-5.632700920E-1
6.978849438E0,-5.548750758E-1,-2.595479190E-1,-4.838576317E-1
6.998849438E0,-4.290542901E-1,-1.377762854E-1,-2.342057377E-1
7.018849438E0,-2.373822331E-1,-1.066396162E-1,8.175121993E-2
7.038849438E0,-3.764675185E-2,-8.972737938E-2,3.165503740E-1
7.058849438E0,7.857472450E-2,-1.403244734E-1,2.959554791E-1
7.078851000E0,1.396263391E-1,-2.194227874E-1,1.736777127E-1
7.098851000E0,1.833642870E-1,-2.205048949E-1,6.326818466E-2
7.120849438E0,1.951278150E-1,-2.729171216E-1,9.459684603E-3
7.140851000E0,2.374171317E-1,-1.212829277E-1,-2.113593742E-2
7.160851000E0,3.040887117E-1,3.506889939E-1,-9.560913593E-2
7.180851000E0,3.478441238E-1,4.650429785E-1,-1.662775129E-1
7.200851000E0,3.829252422E-1,1.993864179E-1,-1.341285557E-1
7.222851000E0,4.879940450E-1,-8.670795709E-2,3.581415489E-2
7.242851000E0,5.506862998E-1,2.844886668E-2,1.609368026E-1
7.264849438E0,4.391073883E-1,4.641179442E-1,3.163234591E-1
7.284851000E0,1.736079007E-1,4.801400900E-1,2.916794121E-1
7.306849438E0,-1.728225052E-1,-5.324999616E-2,5.869542435E-2
7.326855688E0,-3.406882584E-1,-3.678281307E-1,-4.476769641E-2
7.348869750E0,-2.571393549E-1,-1.589471400E-1,2.761110850E-2
7.370851000E0,-1.665742248E-1,-1.133416817E-1,1.344601661E-1
7.390865063E0,-1.493478268E-1,-2.733534575E-1,2.106786966E-1
7.412852563E0,-1.684417278E-1,-3.896971047E-1,1.134987622E-1
7.434851000E0,-2.284810543E-1,-1.868374944E-1,9.436995536E-2
7.454851000E0,-2.318320870E-1,2.865481675E-1,1.076344550E-1
7.474851000E0,-2.587625086E-1,3.143337965E-1,2.105565220E-1
7.494851000E0,-3.565707803E-2,4.141840935E-1,3.976558149E-1
7.514851000E0,2.617121339E-1,1.804321408E-1,4.756895006E-1
7.534851000E0,4.619188309E-1,1.025729999E-1,3.225717545E-1
7.556849438E0,3.464129567E-1,1.027126238E-1,2.668957412E-1
7.576851000E0,5.907939374E-2,4.415683076E-2,2.229483575E-1
7.596851000E0,-9.042550623E-2,-1.192583442E-1,1.081580520E-1
7.618849438E0,-1.127133593E-1,-2.828305960E-1,9.093165398E-2
7.638851000E0,-4.438372329E-2,-1.270599663E-1,4.307472706E-2
7.660851000E0,5.941100791E-2,2.336123139E-1,9.538224339E-2
7.680851000E0,-6.410594285E-2,3.547905385E-1,1.815316975E-1
7.702852563E0,-2.542071939E-1,4.328590930E-1,1.280548126E-1
7.722861938E0,1.124515608E-1,9.044296294E-2,1.052433550E-1
7.744849438E0,2.171364129E-1,-2.903006077E-1,-1.300444752E-1
7.764854125E0,6.295402348E-2,-6.115109921E-1,-3.092723489E-1
7.786851000E0,-3.392919898E-2,-3.245265186E-1,-2.248158604E-1
7.808849438E0,-2.630211227E-2,2.192831635E-1,-6.604325771E-2
7.828849438E0,-1.195725054E-1,1.382998824E-1,-2.836160064E-1
7.848874438E0,-3.044552207E-1,-2.617121339E-1,-6.529276967E-1
7.870851000E0,-4.009893835E-1,-2.765823305E-1,-7.734252214E-1
7.892851000E0,-1.665044129E-1,1.169545129E-1,-5.915269852E-1
7.912861938E0,1.658586413E-1,4.194200635E-1,-2.794272006E-1
7.934851000E0,3.070906699E-1,2.050761878E-1,-1.469392627E-1
7.954855688E0,1.824741662E-1,-1.440943778E-1,-2.588148713E-1
7.976851000E0,-4.649557173E-2,-4.456349015E-1,-5.355193615E-1
7.996854125E0,-1.161691174E-1,-3.223972321E-1,-7.948753238E-1
8.018849438E0,-6.585127115E-2,5.808455870E-2,-7.674387097E-1
8.038854125E0,1.127482671E-2,6.211452484E-1,-4.310963154E-1
8.058855688E0,3.682644805E-3,3.792076707E-1,-1.491034776E-1
8.080851000E0,-9.426523000E-2,3.233920634E-1,7.497934252E-2
8.100851000E0,-1.777617782E-1,5.555383116E-2,1.466425657E-1
8.122851000E0,-8.766788989E-2,4.923573881E-2,8.484045416E-2
8.142855688E0,2.651155181E-2,6.103416532E-2,-3.719296679E-2
8.162869750E0,4.590215907E-2,-1.402546614E-1,-1.055051535E-1
8.184851000E0,8.471827954E-2,-2.663372457E-1,4.550073296E-2
8.206849438E0,2.307325304E-1,-2.718524933E-1,2.689203322E-1
8.226849438E0,2.920808494E-1,-1.635373570E-2,2.931455076E-1
8.246851000E0,2.421469837E-1,6.112143025E-2,1.632930040E-1
8.266861938E0,2.099631131E-1,-1.751961559E-1,-3.413863853E-2
8.288851000E0,2.461263239E-1,-4.965810776E-1,-2.318669856E-1
8.310851000E0,2.435607016E-1,-2.398431450E-1,-3.818082213E-1
8.332851000E0,-6.944665313E-2,2.830924094E-2,-2.397558838E-1
8.352851000E0,-4.565955698E-1,-3.547905385E-1,1.877974346E-2
8.374849438E0,-4.409225285E-1,-1.049291939E-1,6.196267605E-1
8.394849438E0,-1.787217110E-1,3.569547236E-1,8.429940343E-1
8.414849438E0,7.916813344E-2,6.844657660E-1,8.162555695E-1
8.434851000E0,2.942799628E-1,5.299168825E-1,7.589040399E-1
8.456849438E0,4.435579777E-1,2.776469886E-1,7.448366880E-1
8.476849438E0,5.115908980E-1,4.926017225E-1,8.862258196E-1
8.496851000E0,5.729741454E-1,6.543937325E-1,9.095085263E-1
8.518849438E0,1.385616958E-1,5.301088691E-1,7.447494268E-1
8.538849438E0,-1.072330326E-1,4.795466661E-1,5.723807216E-1
8.558851000E0,-8.045967668E-3,1.911484599E-1,4.548502564E-1
8.578851000E0,2.564586699E-1,-3.563962504E-2,4.039390087E-1
8.598851000E0,4.464203119E-1,7.374016196E-2,3.363947570E-1
8.618851000E0,4.250923991E-1,2.671924531E-1,2.595828176E-1
8.638851000E0,2.712416053E-1,2.840697765E-1,1.502204835E-1
8.660851000E0,3.748967126E-2,-5.235987715E-3,1.011767387E-1
8.682851000E0,-1.411622316E-1,-3.239505589E-1,-4.192280769E-2
8.702855688E0,-2.089857310E-1,-4.095764160E-1,-2.934945524E-1
8.724851000E0,-2.701420486E-1,-3.697654605E-1,-4.889889061E-1
8.744851000E0,-2.276781946E-1,-3.504446447E-1,-5.315749049E-1
8.764851000E0,-1.097637564E-1,-3.302162886E-1,-5.142787099E-1
8.784851000E0,7.560766488E-2,-1.575683206E-1,-4.691968560E-1
8.804851000E0,2.096489519E-1,-8.894197643E-2,-3.500607014E-1
8.824851000E0,1.170592308E-1,4.141666368E-2,-2.218313515E-1
8.844851000E0,-1.936966330E-1,9.705775976E-2,-8.517206460E-2
8.864851000E0,-5.527806878E-1,6.829473376E-2,1.598721556E-2
8.886851000E0,-6.041806340E-1,-1.411447823E-1,4.602433369E-2
8.908849438E0,-3.252944648E-1,-9.377653897E-2,-2.742435932E-1
8.928849438E0,-1.626646891E-2,-4.534365237E-2,-2.528807521E-1
8.948871313E0,1.625774205E-1,2.546958923E-1,-2.038195431E-1
8.970849438E0,4.188789986E-3,5.275955796E-1,-7.211700082E-2
8.990849438E0,-3.350334167E-1,3.498512506E-1,6.745697558E-2
9.010851000E0,-5.717175007E-1,7.740534842E-2,8.738863468E-2
9.032851000E0,-3.840073347E-1,9.129817039E-2,1.583013684E-1
9.052851000E0,-9.178686142E-2,3.326422870E-1,2.294409871E-1
9.072851000E0,4.258603323E-3,4.001516402E-1,2.474353313E-1
9.092851000E0,-1.984264851E-1,1.748645306E-1,1.965938807E-1
9.112854125E0,-4.056494236E-1,-1.995609403E-1,9.482374042E-2
9.134849438E0,-2.182534188E-1,-3.624350727E-1,4.591961205E-2
9.154851000E0,1.406386346E-1,-8.346164227E-2,-1.326450263E-3
9.176851000E0,2.858500183E-1,2.227738202E-1,-5.216789246E-2
9.196851000E0,1.725956053E-1,6.749188155E-2,-4.443608224E-2
9.218849438E0,3.235840425E-2,-1.645147353E-1,-7.583455741E-2
9.238849438E0,1.634675413E-1,-1.448099613E-1,-6.782349199E-2
9.258849438E0,4.433310926E-1,2.070658654E-1,-2.272418700E-2
9.278849438E0,6.438868642E-1,4.613428712E-1,1.180191636E-1
9.298849438E0,5.700943470E-1,4.584456384E-1,1.767843962E-1
9.318849438E0,3.645818233E-1,3.538306057E-1,2.305579931E-1
9.338849438E0,1.127133593E-1,2.089857310E-1,2.800555229E-1
9.358857250E0,-8.964011073E-2,2.649758756E-1,2.875429988E-1
9.378858813E0,-4.776442647E-1,2.798111737E-1,1.867676824E-1
9.400849438E0,-8.186815977E-1,-5.210157037E-1,1.121723130E-1
9.420849438E0,-7.254635692E-1,-6.807132959E-1,8.798204362E-2
9.440858813E0,-2.314306647E-1,-4.667708576E-1,8.517206460E-2
9.462849438E0,4.989372790E-1,6.859143823E-2,8.112290502E-2
9.482849438E0,8.328187466E-1,4.441164732E-1,5.907939374E-2
9.502849438E0,6.774495244E-1,3.515093029E-1,-3.424336016E-2
9.522857250E0,8.557349443E-2,1.234296858E-1,-4.462806880E-2
9.544849438E0,-5.773549080E-1,-2.105914205E-1,-5.489060655E-2
9.564857250E0,-7.940375209E-1,-2.908940315E-1,-5.986479111E-3
9.586851000E0,-5.712462664E-1,-2.676636875E-1,2.297725976E-1
9.606851000E0,-2.067866027E-1,-1.846383810E-1,2.856754959E-1
9.628851000E0,8.005825430E-2,-7.183775306E-2,2.438573986E-1
9.648871313E0,1.541125774E-1,-1.021715775E-1,1.218588874E-1
9.670851000E0,4.431391135E-2,-1.880592257E-1,-3.602359444E-2
9.690851000E0,-6.649704650E-3,-2.145358771E-1,-1.493303776E-1
9.712849438E0,1.305855364E-1,-1.639736891E-1,-1.645670980E-1
9.732849438E0,3.435855210E-1,-2.438225038E-2,-1.565560400E-1
9.752866625E0,4.699822664E-1,9.721484035E-3,-1.495921761E-1
9.772869750E0,4.874355495E-1,8.627162129E-2,-1.672723591E-1
9.794851000E0,3.994360566E-1,1.276010275E-1,-1.410924196E-1
9.814854125E0,2.529680133E-1,-1.094146892E-1,-2.262121290E-1
9.836849438E0,2.169444263E-1,-3.369183540E-1,-2.794621289E-1
9.856852563E0,3.203202784E-1,-4.324925691E-2,-9.735446423E-2
9.878849438E0,2.037846446E-1,3.441265821E-1,5.078908056E-3
9.898849438E0,-3.680201173E-1,3.363249600E-1,-3.893829510E-2
9.918849438E0,-8.625068069E-1,1.453859266E-2,-5.414011329E-2
9.938849438E0,-7.694109678E-1,-1.944645792E-1,-1.309345961E-1
9.958849438E0,-1.947787404E-1,-5.106833205E-2,-1.876578033E-1
9.978849438E0,2.929011583E-1,1.547234356E-1,-1.336224079E-1
9.998851000E0,2.875604331E-1,2.021091282E-1,-1.591740251E-1
1.002085881E1,-1.046324894E-1,-1.188569237E-2,-2.363524884E-1
1.004284944E1,-4.139746428E-1,-9.808750451E-2,-2.132792324E-1
1.006285725E1,-5.057091713E-1,-3.604104742E-2,-1.526639462E-1
1.008484944E1,-3.899589181E-1,1.578650326E-1,-7.953465730E-2
1.010484944E1,-2.106437832E-1,2.652202249E-1,3.668681905E-2
1.012484944E1,-1.270948797E-1,7.613126189E-2,5.658357590E-2
1.014484944E1,-5.448918045E-2,-1.884606481E-1,6.483898312E-2
1.016484944E1,8.171631396E-2,-2.150245607E-1,1.103397161E-1
1.018485100E1,2.350958437E-1,-4.698426276E-2,1.639213264E-1
1.020485100E1,2.372949570E-1,9.882054478E-2,1.866106093E-1
1.022485100E1,8.892452717E-2,9.801769257E-2,1.180017069E-1
1.024685100E1,-2.513274085E-3,-6.073745713E-2,6.583382189E-2
1.026885100E1,1.137954667E-1,-1.387013197E-1,6.407103688E-2
1.028885100E1,3.236538470E-1,-4.155628756E-2,5.585053563E-2
1.031085100E1,4.900186360E-1,7.077310234E-2,8.553858846E-2
1.033285100E1,4.304679930E-1,1.774650812E-1,3.649483621E-2
1.035285100E1,2.602635026E-1,1.827534288E-1,-2.816961333E-2
1.037285100E1,1.644972861E-1,1.521927118E-2,-4.131194204E-2
1.039285569E1,2.609616220E-1,-1.347394194E-2,1.555088349E-2
1.041484944E1,2.549053431E-1,1.268505305E-1,4.143411666E-2
1.043485100E1,5.928883329E-2,2.839650773E-2,9.351474047E-2
1.045684944E1,-4.441862926E-2,-1.344601661E-1,1.787566245E-1
1.047684944E1,-2.645919099E-2,-8.217009902E-2,2.602286041E-1
1.049684944E1,6.089453772E-2,9.400343150E-2,3.530626595E-1
1.051684944E1,8.689994365E-2,2.246936858E-1,2.898468375E-1
1.053684944E1,-3.295181692E-2,2.262819409E-1,8.628907800E-2
1.055684944E1,-2.808234692E-1,1.680752076E-2,-4.700171575E-2
1.057684944E1,-5.507211685E-1,-1.664171368E-1,-5.976007506E-2
1.059685100E1,-6.502747536E-1,-1.730493903E-1,4.696680978E-2
1.061884944E1,-4.756196737E-1,4.276056774E-3,2.204350829E-1
1.063884944E1,-2.347642332E-1,6.274458766E-2,3.071255982E-1
1.065884944E1,-2.122320421E-2,-1.675516069E-1,2.995508611E-1
1.067884944E1,2.320764363E-1,-3.264987469E-1,2.822372019E-1
1.069884944E1,4.578871131E-1,-3.004758954E-1,2.738421559E-1
1.071884944E1,4.991641641E-1,-2.050412744E-1,2.073276639E-1
1.073884944E1,3.133563995E-1,-1.909041107E-1,1.062032878E-1
1.075885725E1,1.012290940E-1,-2.707529366E-1,4.625122529E-3
1.078084944E1,6.508332491E-2,-2.106088847E-1,-2.542944625E-2
1.080085256E1,9.098401666E-2,-1.143016145E-1,-3.501130641E-2
1.082284944E1,1.304109991E-1,-7.253587991E-2,-5.262167752E-2
1.084284944E1,1.811302751E-1,-8.141960949E-2,-1.179493517E-1
1.086285100E1,2.108183205E-1,-1.362229437E-1,-2.642428577E-1
1.088484944E1,2.827782333E-1,-1.307426095E-1,-3.320488930E-1
1.090484944E1,2.884680033E-1,-5.407030135E-2,-2.804918587E-1
1.092485100E1,1.892635077E-1,1.971523911E-1,-3.949680030E-1
1.094485100E1,-2.700198889E-1,1.077740788E-1,-2.900213599E-1
1.096685100E1,-4.654444158E-1,-3.544763625E-1,-3.355220854E-1
1.098885100E1,5.733406544E-2,1.900663599E-2,-2.638065219E-1
1.100885100E1,4.200309217E-1,2.970201373E-1,-1.962797344E-1
1.103085100E1,3.318743706E-1,1.184031367E-1,-1.679006666E-1
1.105085412E1,1.051037237E-1,-5.410520732E-2,-2.168048024E-1
1.107285100E1,-1.578475833E-1,-1.455255598E-1,-2.513797581E-1
1.109285569E1,-2.826037109E-1,-8.946557343E-2,-1.858950108E-1
1.111286662E1,-3.514395058E-1,1.492780149E-1,-7.185520232E-2
1.113485256E1,-4.276056588E-1,3.389254808E-1,4.975933582E-2
1.115684944E1,-5.030736923E-1,3.450690508E-1,1.112123802E-1
1.117685569E1,-4.759861827E-1,2.161066681E-1,1.106887832E-1
1.119885100E1,-2.876651585E-1,4.026474431E-2,1.161691174E-1
1.122084944E1,-8.098327555E-3,-5.829399824E-2,1.053131670E-1
1.124085100E1,1.219286993E-1,8.412487060E-2,3.265510872E-2
1.126285100E1,1.202880889E-1,2.545737326E-1,-9.347983450E-2
1.128285100E1,1.897172816E-2,2.282367051E-1,-1.448972374E-1
1.130285413E1,4.494222626E-2,6.632251199E-3,-4.900884628E-2
1.132485725E1,2.476447672E-1,-5.260422453E-2,9.648180008E-2
1.134684944E1,4.608018398E-1,1.694365591E-1,2.074847370E-1
1.136686975E1,5.120272636E-1,2.965663373E-1,2.623578906E-1
1.138885100E1,2.604903877E-1,1.990722567E-1,2.210110426E-1
1.140885100E1,-8.573057503E-2,-1.081231460E-1,1.345648915E-1
1.143084944E1,-1.093623340E-1,-2.438399494E-1,3.747221828E-2
1.145084944E1,2.862340026E-2,1.329242736E-1,-5.717698485E-2
1.147084944E1,-7.253587991E-2,1.539205909E-1,-4.337143153E-2
1.149085256E1,-5.874778330E-2,6.461209059E-2,9.416051209E-2
1.151285100E1,7.730063051E-2,1.554913819E-1,1.600815952E-1
1.153285725E1,9.918706119E-2,2.516241074E-1,1.862440854E-1
1.155285881E1,-1.174781099E-1,2.282890677E-2,2.006954104E-1
1.157485569E1,-4.662646949E-1,-2.736676298E-2,9.622000158E-2
1.159685100E1,-5.115908980E-1,-2.115339041E-2,6.876597553E-2
1.161685100E1,-3.851243556E-1,1.857030392E-2,7.021459192E-2
1.163685100E1,-3.181909621E-1,6.428047270E-2,1.177224591E-1
1.165884944E1,-2.486570626E-1,3.553490341E-2,1.538856775E-1
1.167884944E1,-1.038121805E-1,-4.789183289E-2,1.736079007E-1
1.169885100E1,8.723155409E-2,-5.338962004E-2,1.749168932E-1
1.172084944E1,2.295107991E-1,1.443387289E-2,1.476373971E-1
1.174084944E1,1.493827254E-1,-9.016370773E-2,9.613273293E-2
1.176084944E1,2.129301662E-3,-2.499835044E-1,2.621484548E-2
1.178084944E1,1.994911395E-2,-2.700024247E-1,5.131267942E-3
1.180084944E1,1.984439343E-1,-6.386159360E-2,-3.478441015E-2
1.182084944E1,3.009296656E-1,1.104793400E-1,-4.893903062E-2
1.184084944E1,2.698628008E-1,2.511703372E-1,-5.438445881E-2
1.186084944E1,1.613731384E-1,2.239955515E-1,-7.665485889E-2
1.188085256E1,1.250528395E-1,-4.572762642E-3,-1.661728024E-1
1.190285100E1,2.374869436E-1,-2.431767285E-1,-3.263241947E-1
1.192285569E1,4.098381996E-1,-3.269350827E-1,-4.295778871E-1
1.194485100E1,4.562465250E-1,-3.852639794E-1,-3.104417026E-1
1.196485725E1,2.613630593E-1,-1.926668882E-1,-1.792104095E-1
1.198684944E1,-2.075894624E-1,-1.114043668E-1,-1.334478706E-1
1.200685412E1,-6.077061892E-1,-4.017224312E-1,-2.199114859E-1
1.202884944E1,-2.786767185E-1,-3.082949519E-1,-1.499412358E-1
1.204886975E1,3.560646176E-1,8.447393775E-2,-7.344345748E-2
1.207084944E1,6.028541923E-1,2.599493265E-1,-8.674286306E-3
1.209085100E1,2.354100049E-1,6.604325771E-2,-6.948155910E-2
1.211285412E1,-3.715806007E-1,-3.001617193E-1,-1.718974710E-1
1.213285881E1,-5.444030762E-1,-2.186199427E-1,-1.631359309E-1
1.215286663E1,-4.932475090E-1,6.805038452E-2,-1.597674340E-1
1.217485100E1,-3.716154993E-1,2.665990293E-1,-8.384561539E-2
1.219485100E1,-3.050311804E-1,1.956514120E-1,-1.541125681E-2
1.221485100E1,-2.177647352E-1,-5.251695588E-2,6.325073540E-2
1.223485100E1,1.146681327E-2,-2.577851340E-2,9.250245243E-2
1.225485881E1,3.095515966E-1,2.259677798E-1,1.614604145E-1
1.227684944E1,4.387059510E-1,3.150319159E-1,1.978330761E-1
1.229685100E1,3.564660549E-1,2.142740786E-1,1.922829300E-1
1.231685100E1,2.208365053E-1,1.199390292E-1,1.313185692E-1
1.233885881E1,2.219709754E-1,7.726572454E-2,2.099980116E-1
1.235885881E1,3.347716033E-1,1.469392627E-1,2.923077345E-1
1.238085100E1,4.094367921E-1,2.787639797E-1,3.684040904E-1
1.240085100E1,3.065670729E-1,2.904576957E-1,4.746073782E-1
1.242085100E1,3.282964230E-2,1.828930527E-1,5.906019807E-1
1.244085100E1,-1.591216624E-1,6.623524427E-2,6.534687281E-1
1.246085100E1,-2.294584364E-1,-3.420845373E-3,5.523967147E-1
1.248285881E1,-2.035577446E-1,-6.375687569E-2,4.332256317E-1
1.250485100E1,-1.310742274E-2,-4.850269854E-2,4.382870793E-1
1.252485100E1,8.583529294E-2,2.061582953E-1,3.944793046E-1
1.254485100E1,-2.213601023E-1,8.267624676E-2,1.498714238E-1
1.256686038E1,-5.260596871E-1,-4.399975017E-2,-6.126105785E-3
1.258885100E1,-4.211305082E-1,2.035577446E-1,1.246688664E-1
1.261084944E1,-3.794869483E-1,3.724532723E-1,2.443984598E-1
1.263085100E1,-5.272290707E-1,3.155031800E-1,3.260275126E-1
1.265284944E1,-6.359106898E-1,-1.315978263E-2,3.027099073E-1
1.267285569E1,-5.796064138E-1,-3.974638283E-1,2.024407387E-1
1.269286350E1,-3.410373330E-1,-6.279694438E-1,1.183507740E-1
1.271286819E1,6.349507719E-2,-2.840174139E-1,2.201907337E-1
1.273485100E1,3.473205268E-1,2.904576957E-1,3.227288425E-1
1.275485100E1,2.097885758E-1,3.173357546E-1,2.682920098E-1
1.277485100E1,2.148500271E-2,6.319837272E-2,1.015607119E-1
1.279485100E1,2.391101047E-2,-8.417722583E-2,2.597049996E-2
1.281685100E1,8.522442728E-2,-1.737649739E-1,1.040216256E-2
1.283884944E1,1.073028445E-1,-1.302364618E-1,1.837831736E-2
1.285885100E1,-1.092227027E-1,-2.628465891E-1,-8.098327555E-3
1.287885412E1,-3.487516940E-1,-4.315326512E-1,-9.515535086E-2
1.290084944E1,-3.321885169E-1,-4.368733764E-1,-1.872040182E-1
1.292084944E1,-1.054178849E-1,-2.479065657E-1,-2.412568629E-1
1.294085100E1,1.685115397E-1,-1.809906363E-1,-2.752035260E-1
1.296085256E1,3.739542365E-1,-1.477072090E-1,-2.758143842E-1
1.298285100E1,4.620584548E-1,-2.726029754E-1,-2.014459074E-1
1.300285725E1,5.574930906E-1,-1.839926094E-1,-8.415977657E-2
1.302485100E1,7.103490233E-1,2.090031803E-1,-5.375613924E-3
1.304485100E1,5.804092288E-1,2.591813803E-1,-1.432391703E-1
1.306684944E1,3.925420046E-1,7.726572454E-2,-2.611710727E-1
1.308684944E1,3.574085236E-1,1.031489577E-2,-3.160093129E-1
1.310685100E1,2.544864714E-1,5.344198272E-2,-3.931005001E-1
1.312885100E1,-1.195375994E-1,2.513274085E-3,-4.241848290E-1
1.314886975E1,-5.627988577E-1,-8.227481693E-2,-3.449468613E-1
1.317086038E1,-7.579267025E-1,1.609193534E-2,-2.326000333E-1
1.319285256E1,-5.707924962E-1,1.635373533E-1,-2.176600099E-1
1.321485100E1,-1.981995851E-1,2.390751988E-1,-2.779262364E-1
1.323485100E1,2.558652684E-2,2.613281608E-1,-3.519281745E-1
1.325485100E1,9.665632993E-2,2.838428915E-1,-3.540051281E-1
1.327485100E1,7.374016196E-2,2.688505054E-1,-3.184353113E-1
1.329485100E1,5.422737822E-2,2.357241660E-1,-2.792352140E-1
1.331485100E1,5.260422453E-2,1.480388194E-1,-2.650457025E-1
1.333485569E1,1.071457639E-1,1.396961510E-1,-1.624901593E-1
1.335684944E1,1.793674827E-1,3.545461893E-1,2.617993858E-3
1.337685100E1,2.392148226E-1,3.484724462E-1,9.810495377E-2
1.339685100E1,2.581691146E-1,1.127831787E-1,1.938013583E-1
1.341685256E1,3.157126009E-1,5.527457595E-2,2.765125036E-1
1.343885100E1,4.187917411E-1,3.278775513E-1,2.881189585E-1
1.345885881E1,3.209660351E-1,4.615697861E-1,1.821949184E-1
1.348084944E1,-3.010518551E-1,-1.437278688E-1,1.493652761E-1
1.350085569E1,-6.540970206E-1,-6.790028811E-1,1.447925121E-1
1.352285100E1,-3.623827100E-1,-6.734876633E-1,8.908160776E-2
1.354285413E1,1.150695607E-1,-1.144586951E-1,8.183848858E-2
1.356484944E1,3.354697227E-1,1.860869974E-1,7.175048441E-2
1.358485413E1,1.667138487E-1,-3.611086309E-2,6.239552051E-2
1.360685100E1,-9.213592857E-2,-2.153387219E-1,1.330464482E-1
1.362885100E1,-8.363617957E-2,-1.901361644E-1,2.545213699E-1
1.364886975E1,2.677335031E-2,-1.214400083E-1,1.715309620E-1
1.367085100E1,-1.219985168E-2,-1.864360720E-1,1.398008689E-2
1.369085413E1,-2.572091818E-1,-3.173532188E-1,-5.148721393E-3
1.371285569E1,-3.883357644E-1,-3.674092591E-1,2.008873969E-2
1.373485100E1,-1.899790913E-1,-1.282991469E-1,6.344271451E-2
1.375485100E1,9.510298818E-2,1.612858772E-1,7.983136177E-2
1.377485725E1,2.167349905E-1,2.047271132E-1,6.030112505E-2
1.379685100E1,1.534493417E-1,3.207915276E-2,5.604252219E-2
1.381685881E1,8.880235255E-2,-8.658578247E-2,2.930407785E-2
1.383884944E1,7.817329466E-2,-9.560913593E-2,-1.862266287E-2
1.385885412E1,1.636420637E-1,-1.114741787E-1,-3.323106840E-2
1.388085100E1,2.624800801E-1,2.110103145E-2,-8.426449448E-2
1.390085100E1,2.616597712E-1,6.738716364E-2,-1.110902056E-1
1.392284944E1,1.979727000E-1,1.977981627E-1,-1.872389168E-1
1.394285725E1,1.339365691E-1,3.361853063E-1,-2.469989955E-1
1.396485412E1,2.288126573E-2,2.667037547E-1,-3.274412155E-1
1.398685256E1,-1.031489577E-2,7.489208132E-2,-3.622605503E-1
1.400685725E1,6.656685472E-2,1.558928043E-1,-3.531150222E-1
1.402885100E1,2.121796757E-1,2.773153782E-1,-2.177472711E-1
1.404886975E1,2.382898033E-1,1.639387757E-1,-1.154360771E-1
1.407084944E1,-2.682571113E-2,2.061408311E-1,9.705775976E-2
1.409085100E1,-7.942993194E-2,-8.189085126E-2,8.656833321E-2
1.411285725E1,4.883431271E-2,-1.171814054E-1,-1.851445287E-1
1.413485100E1,1.416160166E-1,-8.574802428E-2,-3.373197913E-1
1.415485100E1,1.556484550E-1,-1.745329238E-3,-3.417529166E-1
1.417685100E1,-9.272934496E-2,1.098684743E-1,-2.613979578E-1
1.419885100E1,-3.634299040E-1,3.735004738E-2,-2.999522984E-1
1.421885100E1,-5.008396506E-1,3.319616243E-2,-4.100301862E-1
1.424085100E1,-4.694412053E-1,2.028596252E-1,-4.177620113E-1
1.426285100E1,-3.744603992E-1,3.975859880E-1,-3.074921072E-1
1.428285100E1,-2.448173314E-1,4.542044699E-1,-1.093972400E-1
1.430285100E1,-1.188045591E-1,3.547207117E-1,1.186300293E-1
1.432285256E1,-6.527531426E-3,2.890090644E-1,2.146405876E-1
1.434485100E1,9.711012244E-2,1.566607505E-1,1.384395212E-1
1.436485100E1,2.047445774E-1,3.105813265E-1,3.909537569E-2
1.438485100E1,1.912357211E-1,4.112344682E-1,3.094468825E-2
1.440485100E1,-3.677408770E-2,1.020494029E-1,5.874778330E-2
1.442684944E1,-1.311440468E-1,-2.230356187E-1,1.123468429E-1
1.444684944E1,9.627236426E-2,-2.273814976E-1,1.989500821E-1
1.446685100E1,3.377910256E-1,-6.962118298E-2,3.306177258E-1
1.448885100E1,2.494424582E-1,9.800023586E-2,3.380702734E-1
1.451084944E1,-1.065523475E-1,1.794547588E-1,2.421993464E-1
1.453085100E1,-2.857103944E-1,-2.223549411E-2,1.667138487E-1
1.455286506E1,-8.025023937E-1,-7.987324595E-1,1.306029856E-1
1.457485100E1,-9.035394788E-1,-1.285365224E0,1.677785069E-1
1.459485100E1,-4.692143202E-1,-7.316420078E-1,2.476971298E-1
1.461485100E1,1.014036313E-2,1.713913307E-2,3.015928864E-1
1.463485100E1,2.515543103E-1,3.294134438E-1,2.502802014E-1
1.465485725E1,1.652477682E-1,-2.046573013E-1,8.271115273E-2
1.467685100E1,-1.078613475E-2,-4.098731279E-1,2.420771681E-2
1.469685725E1,-1.816887781E-2,-9.143780172E-2,8.342674002E-3
1.471884944E1,-4.078834504E-2,1.448623277E-2,-1.694714651E-2
1.473884944E1,-1.846034676E-1,-8.482300490E-2,2.141519077E-2
1.475884944E1,-2.780658603E-1,-1.330988109E-1,9.417796880E-2
1.477885881E1,-2.211855799E-1,-6.909758598E-2,1.105666086E-1
1.480085100E1,-3.227113932E-2,1.058367640E-1,6.674139202E-2
1.482085412E1,1.987406462E-1,3.439694941E-1,1.207593307E-1
1.484285100E1,3.799232841E-1,3.876550794E-1,3.375466913E-2
1.486287756E1,3.767991364E-1,2.388483137E-1,-9.656906873E-2
1.488485100E1,2.794272006E-1,2.209063172E-1,-1.114218161E-1
1.490485413E1,1.142841578E-1,1.339540184E-1,-6.997025013E-2
1.492684944E1,6.838200241E-2,9.203121066E-2,-3.347541392E-2
1.494684944E1,1.803274155E-1,2.675415277E-1,-3.649483621E-2
1.496685100E1,2.305056304E-1,4.842416048E-1,-1.329766363E-1
1.498685725E1,1.727701426E-1,4.793895781E-1,-2.285683155E-1
1.500884944E1,1.215447262E-1,2.856405973E-1,-3.074048460E-1
1.502885412E1,1.317199916E-1,9.316567332E-2,-3.988077343E-1
1.504886975E1,1.921956539E-1,-3.839724232E-4,-3.754028678E-1
1.507085100E1,1.418254524E-1,8.611454815E-2,-2.981196940E-1
1.509085100E1,-1.437453181E-1,4.207988828E-2,-2.121796757E-1
1.511085881E1,-6.512172222E-1,-2.637017965E-1,-7.264060527E-2
1.513285100E1,-6.034999490E-1,-3.024306595E-1,-1.751263440E-1
1.515285256E1,-9.951867163E-2,9.405579418E-2,-1.860520989E-1
1.517484944E1,3.009820282E-1,1.577079445E-1,-4.003610611E-1
1.519485412E1,3.287676573E-1,1.523846984E-1,-4.794594049E-1
1.521685100E1,-2.068215236E-2,-4.907865822E-2,-2.431069165E-1
1.523884944E1,-6.248802543E-1,-5.545608997E-1,-1.000597253E-1
1.525884944E1,-9.860935807E-1,-8.626464605E-1,-8.787732571E-2
1.527885100E1,-9.400692582E-1,-1.044981003E0,-1.433264315E-1
1.529885100E1,-5.827479959E-1,-6.600486040E-1,-9.955357760E-2
1.531885256E1,-1.168148890E-1,-9.375908971E-2,-2.214822732E-2
1.534084944E1,2.277131081E-1,2.704562247E-1,5.977752805E-2
1.536085569E1,3.461511433E-1,2.615899444E-1,2.120400518E-1
1.538285100E1,3.052755296E-1,-2.977531776E-2,3.245963454E-1
1.540285100E1,2.029294372E-1,8.215264976E-2,3.496069014E-1
1.542285412E1,1.731715649E-1,2.062630057E-1,3.232524395E-1
1.544484944E1,1.457524449E-1,1.832944751E-1,3.212802112E-1
1.546485100E1,-1.002342552E-1,-2.230356187E-1,1.914102584E-1
1.548485569E1,-3.145432472E-1,-7.371048927E-1,1.382649839E-1
1.550685100E1,-5.009094998E-2,-6.388254166E-1,2.634923458E-1
1.552685413E1,3.593458235E-1,-2.975786328E-1,3.255388141E-1
1.554886975E1,4.814141691E-1,-2.114291787E-1,3.245265186E-1
1.557084944E1,2.345198840E-1,-1.925621778E-1,4.435056150E-1
1.559088381E1,1.755975783E-1,-7.009242475E-2,4.357912540E-1
1.561285100E1,5.416978598E-1,-1.707979143E-1,3.565184176E-1
1.563285256E1,7.614522576E-1,-3.413864076E-1,2.757620215E-1
1.565485100E1,4.744153917E-1,-5.628686771E-2,1.990198940E-1
1.567485569E1,2.529854774E-1,1.576206833E-1,1.125039235E-1
1.569685100E1,-1.018923223E-1,2.501580417E-1,-8.744099177E-3
1.571685725E1,-5.347339511E-1,3.242472708E-1,-8.065166324E-2
1.573884944E1,-6.559470892E-1,3.631855547E-1,-1.087514684E-1
1.575884944E1,-2.496344447E-1,-1.274090353E-2,-6.880088151E-2
1.577885100E1,2.905973196E-1,-6.517757773E-1,1.316327304E-1
1.580085100E1,7.288843989E-1,-9.247801304E-1,1.494874507E-1
1.582085100E1,9.245532751E-1,-9.528799653E-1,1.450543106E-1
1.584085100E1,9.991137385E-1,-8.367981315E-1,3.161140382E-1
1.586285881E1,8.248077035E-1,-3.109129667E-1,6.148096919E-1
1.588485100E1,1.839227974E-1,3.287676573E-1,8.513367176E-1
1.590485100E1,-4.060333967E-1,2.629687488E-1,7.923271060E-1
1.592485100E1,-7.663042545E-1,1.491907388E-1,5.737944245E-1
1.594485100E1,-8.521744609E-1,2.593035698E-1,3.063401878E-1
1.596685100E1,-6.643072367E-1,5.455549955E-1,3.288025856E-1
1.598885100E1,-3.537607789E-1,7.825881839E-1,3.881437778E-1
1.600885100E1,-1.908692122E-1,6.088057756E-1,3.774972558E-1
1.603085100E1,-9.361945838E-2,6.224891543E-1,2.567030191E-1
1.605285881E1,-7.524114102E-2,4.704186022E-1,-1.703441329E-2
1.607485100E1,-1.202531829E-1,-3.316125646E-2,-1.950405389E-1
1.609485100E1,-2.071705833E-2,-1.902234405E-1,-2.507514656E-1
1.611485100E1,1.603957564E-1,1.031489577E-2,-2.293537110E-1
1.613684944E1,-1.698379815E-1,2.700896859E-1,-2.516939342E-1
1.615684944E1,-6.699795127E-1,1.953198016E-1,-3.515267670E-1
1.617685100E1,-5.460262299E-1,-4.229979813E-1,-3.870092928E-1
1.619685100E1,1.515643895E-1,-1.018486857E0,-1.583362669E-1
1.621685100E1,9.208008051E-1,-1.143277884E0,8.913396299E-2
1.623884944E1,7.728492618E-1,-4.745899141E-1,1.237962022E-1
1.625884944E1,-2.948035598E-1,2.775771618E-1,-5.770058557E-2
1.627885100E1,-9.877341986E-1,1.573763341E-1,-1.995085925E-1
1.630085100E1,-1.342088342E0,3.815115094E-1,-3.506366313E-1
1.632085100E1,-1.318351865E0,7.380822897E-1,-4.397531450E-1
1.634085100E1,-1.143382668E0,8.762251139E-1,-3.250675797E-1
1.636285725E1,-9.003978968E-1,7.180808187E-1,-2.520779073E-1
1.638485100E1,-6.636090875E-1,3.500955999E-1,-1.933824867E-1
1.640485100E1,-6.188588142E-1,-9.745918214E-2,3.691371530E-2
1.642485100E1,-5.865877271E-1,-1.443038285E-1,2.914350629E-1
1.644485100E1,-5.284682512E-1,6.108652451E-4,2.238384783E-1
1.646685100E1,-5.144706964E-1,-2.602285892E-2,2.558652684E-2
1.648885100E1,-3.568150997E-1,-3.900287151E-1,-7.127925009E-2
1.650885100E1,-1.428202987E-1,-3.787887990E-1,-1.883210242E-2
1.653085100E1,-1.287529320E-1,-2.022836655E-1,8.939576149E-2
1.655286194E1,-2.232450694E-1,3.693116829E-2,2.748893574E-2
1.657485100E1,-2.918016016E-1,1.697681695E-1,-2.846980989E-1
1.659485100E1,-1.780235767E-1,2.232450694E-1,-2.520430088E-1
1.661485100E1,3.124837577E-1,-1.975712776E-1,-1.787217110E-1
1.663485100E1,6.416004896E-1,-7.563384175E-1,-9.653416276E-2
1.665485100E1,6.640279889E-1,-1.054999113E0,-1.139001846E-1
1.667485100E1,5.752430558E-1,-6.384589076E-1,-1.402546614E-1
1.669485100E1,5.284333229E-1,1.640260369E-1,8.663814515E-2
1.671485100E1,3.856654167E-1,1.304109991E-1,1.746900082E-1
1.673485100E1,1.134813055E-1,-1.018923223E-1,1.487369537E-1
1.675485100E1,4.890412465E-2,-4.323005974E-1,1.589994878E-1
1.677685100E1,3.156253397E-1,-6.375513077E-1,4.207988828E-2
1.679685100E1,3.545810878E-1,-4.050909281E-1,2.247984149E-2
1.681685100E1,1.937315450E-3,-2.628640234E-1,2.038544565E-1
1.683685100E1,-1.415287554E-1,-1.809208244E-1,1.994562298E-1
1.685885100E1,-1.144586951E-1,-2.871764600E-1,1.375494003E-1
1.688085100E1,3.447199762E-1,-3.530800939E-1,1.602386832E-1
1.690285100E1,8.118573427E-1,-2.958333194E-1,7.813838869E-2
1.692285100E1,1.004192591E0,-2.051459998E-1,-1.194328815E-1
1.694485100E1,1.023112059E0,5.424483120E-2,-3.743905723E-1
1.696485100E1,1.031960845E0,8.346164227E-2,-4.927064478E-1
1.698485569E1,9.096830487E-1,-2.399827726E-2,-4.046022296E-1
1.700685100E1,6.713234186E-1,2.411696017E-1,-3.478615582E-1
1.702884944E1,7.219903469E-1,3.405312002E-1,-4.265584648E-1
1.704886975E1,8.915141821E-1,4.005530477E-1,-4.208512306E-1
1.707085100E1,1.095420957E0,2.906496823E-1,-4.276056588E-1
1.709085100E1,1.103432059E0,2.687807009E-2,-5.235289335E-1
1.711085100E1,9.104160666E-1,-6.787585467E-2,-6.077411175E-1
1.713085100E1,3.585255444E-1,2.192133479E-2,-3.719471097E-1
1.715285256E1,-1.592438370E-1,1.415636539E-1,1.404990070E-2
1.717485100E1,-1.622632593E-1,-8.594001085E-2,1.603957564E-1
1.719485100E1,2.415535599E-2,-1.939060837E-1,6.660176069E-2
1.721485100E1,8.164650202E-2,-2.343628109E-1,-3.691371530E-2
1.723485100E1,2.645919099E-2,-2.223374993E-1,-5.401793867E-2
1.725685100E1,-9.976302087E-2,3.639011458E-2,-5.530948564E-2
1.727885100E1,-2.182708681E-1,3.811450005E-1,-6.733480096E-2
1.730085100E1,-3.012961745E-1,6.726673245E-1,-3.047344834E-2
1.732085100E1,-2.621310055E-1,6.657209396E-1,-1.343379915E-1
1.734085100E1,-1.403070241E-1,4.542219341E-1,-4.010592103E-1
1.736285100E1,3.689625859E-2,4.310963303E-2,-5.189213157E-1
1.738285412E1,1.750739813E-1,-9.512044489E-2,-4.199262261E-1
1.740484944E1,1.988104582E-1,8.422958851E-2,-2.143264264E-1
1.742485100E1,7.723081857E-2,3.980223238E-1,6.820746511E-2
1.744485100E1,7.141887397E-2,3.118903339E-1,3.692942262E-1
1.746485100E1,1.373574138E-1,7.384487987E-2,4.418649971E-1
1.748684944E1,1.111251116E-1,-1.000946313E-1,3.222750425E-1
1.750685100E1,8.021533489E-2,1.354375482E-2,3.233397007E-1
1.752884944E1,1.227490082E-1,2.245191485E-1,3.840422332E-1
1.754886975E1,-1.012290944E-3,2.599667907E-1,2.801777124E-1
1.757085100E1,-4.227710962E-1,2.255139947E-1,5.410520732E-2
1.759085100E1,-4.201880097E-1,9.878563695E-3,-9.407324344E-2
1.761285100E1,-2.279225439E-1,-8.426449448E-2,-1.248084977E-1
1.763285256E1,-3.026750088E-1,3.125361204E-1,5.799729005E-2
1.765285725E1,-2.009397596E-1,3.970100582E-1,1.131846011E-1
1.767285725E1,1.546361670E-2,9.801769257E-2,3.171263263E-2
1.769485100E1,6.065019220E-2,-2.031039596E-1,2.797762863E-2
1.771485100E1,1.904154196E-2,-4.694935866E-3,2.069960535E-2
1.773485100E1,-3.947934881E-2,3.460638821E-1,1.646718085E-1
1.775485100E1,-2.890439630E-1,4.899139106E-1,5.033180714E-1
1.777485100E1,-5.077511668E-1,1.848827302E-1,7.404384613E-1
1.779485100E1,-6.739763618E-1,-1.936268210E-1,8.631002307E-1
1.781485100E1,-7.167543769E-1,-3.976907134E-1,7.413635254E-1
1.783485100E1,-7.356039286E-1,-2.535788715E-1,5.832192302E-1
1.785485100E1,-5.812819004E-1,-1.254018992E-1,4.178667367E-1
1.787485413E1,-3.739891648E-1,-2.360034138E-1,2.642253935E-1
1.789685100E1,-3.159918487E-1,2.267182618E-2,1.896998286E-1
1.791885100E1,-1.717753112E-1,7.504217625E-1,1.949009150E-1
1.794085100E1,2.876302600E-1,7.393389344E-1,7.956956327E-2
1.796085100E1,5.400223136E-1,4.475198686E-1,4.293509945E-2
1.798285100E1,4.026300013E-1,4.308345318E-1,5.420992523E-2
1.800285100E1,3.151366413E-1,1.563989520E-1,4.553563893E-2
1.802285100E1,4.168369770E-1,-1.764702350E-1,-9.351474047E-2
1.804285569E1,5.262516737E-1,-4.055795968E-1,-3.003362417E-1
1.806485256E1,4.089655578E-1,-7.079055160E-2,-3.077888191E-1
1.808684944E1,2.785196304E-1,6.199409440E-2,-5.496041849E-2
1.810685100E1,3.252770007E-1,-1.410051435E-1,2.373647876E-3
1.812685100E1,2.479240149E-1,-9.707520902E-2,4.466297477E-2
1.814685100E1,-8.709193021E-2,-6.956882030E-2,3.480186462E-1
1.816685256E1,-2.800380886E-1,7.625343651E-2,6.086311936E-1
1.818688381E1,5.585053470E-3,5.632177368E-2,4.976806343E-1
1.820885100E1,4.472406209E-1,3.735004691E-3,3.244741559E-1
1.823085100E1,2.791305184E-1,1.387536824E-1,3.738320768E-1
1.825285100E1,-3.926467299E-1,1.010371074E-1,4.192106426E-1
1.827285256E1,-9.158615470E-1,-1.328195538E-2,3.392396569E-1
1.829485100E1,-1.079835176E0,-8.552113548E-3,1.618792862E-1
1.831485100E1,-8.625940681E-1,1.008974835E-1,-1.599943340E-1
1.833485100E1,-4.274834991E-1,1.010545623E-2,-5.218011141E-1
1.835485100E1,4.858996719E-2,-2.067691535E-1,-8.186118007E-1
1.837485100E1,4.186172187E-1,-4.229281843E-1,-9.688322544E-1
1.839485100E1,5.629559755E-1,-4.977504611E-1,-8.632747531E-1
1.841684944E1,4.321260750E-1,-2.479240149E-1,-4.669453800E-1
1.843685100E1,2.868274152E-1,-2.312561311E-2,-1.321737766E-1
1.845685100E1,2.685538232E-1,-1.483529899E-2,4.300491139E-2
1.847685100E1,2.852391601E-1,-1.273741275E-1,1.122595742E-1
1.849685100E1,4.052130878E-1,-2.058266848E-1,1.461364180E-1
1.851884944E1,5.730264783E-1,-6.422811653E-3,1.128878966E-1
1.853885100E1,4.117231667E-1,2.928836942E-1,1.523497850E-1
1.855885100E1,9.634217247E-3,3.014707267E-1,1.369734406E-1
1.857885100E1,-3.186098635E-1,-5.775294453E-2,-1.236042157E-1
1.860085100E1,-4.882733226E-1,-1.495572627E-1,-3.411245942E-1
1.862285100E1,-7.713831663E-1,3.818431199E-1,-3.340560198E-2
1.864485100E1,-8.689994216E-1,5.406157374E-1,2.327571064E-1
1.866485100E1,-5.840046406E-1,3.196046948E-1,2.288824767E-1
1.868485100E1,-1.281246245E-1,1.789311469E-1,-3.190461919E-2
1.870684944E1,1.197819486E-1,4.330685437E-1,-1.328719109E-1
1.872684944E1,5.564109609E-2,6.176545620E-1,3.508111835E-2
1.874685100E1,-8.429940045E-2,3.125361204E-1,2.222153246E-1
1.876884944E1,-1.440420300E-1,-1.898569167E-1,3.201282918E-1
1.878885100E1,-7.473500073E-2,-3.213325739E-1,1.966287941E-1
1.881085100E1,8.110544831E-2,-1.910088360E-1,-1.500983164E-2
1.883085413E1,2.851867974E-1,-1.604306698E-1,-1.416509151E-1
1.885285569E1,4.145331383E-1,-2.468419224E-1,-2.131919712E-1
1.887485100E1,3.600963354E-1,-3.626619577E-1,-2.120226026E-1
1.889485100E1,1.618967354E-1,-3.604977429E-1,-1.503426582E-1
1.891485100E1,7.307693362E-2,-1.870818436E-1,-1.202531829E-1
1.893485100E1,9.663888067E-2,1.871342063E-1,-1.677785069E-1
1.895485725E1,1.843416691E-1,3.546858132E-1,-2.499136925E-1
1.897685100E1,2.610314488E-1,1.639213264E-1,-3.165503740E-1
1.899685100E1,2.722364664E-1,-1.054353416E-1,-3.118903339E-1
1.901884944E1,2.265088260E-1,-2.433338016E-1,-2.567204833E-1
1.903884944E1,2.095442265E-1,-1.061509252E-1,-1.881464869E-1
1.905885100E1,1.984264851E-1,-7.372270525E-2,-9.499827027E-2
1.907885100E1,2.430720031E-1,-3.514744043E-1,-1.588947773E-1
1.910085100E1,4.101698399E-1,-6.603453159E-1,-4.723559022E-1
1.912285100E1,2.718873918E-1,-2.766346931E-1,-4.610636234E-1
1.914285256E1,-4.111995548E-2,5.661848187E-2,-3.898018301E-1
1.916484944E1,1.123642996E-1,-1.062381938E-1,-4.393168390E-1
1.918485100E1,3.285756707E-1,-8.014551550E-2,-3.485248089E-1
1.920485100E1,1.265712827E-1,3.852290809E-1,-1.930508614E-1
1.922485100E1,-5.266705751E-1,7.756068707E-1,6.089453772E-2
1.924685100E1,-1.264351368E0,5.931676030E-1,3.002489805E-1
1.926884944E1,-1.458850861E0,1.847431064E-1,2.887647152E-1
1.928885100E1,-1.208972096E0,4.042182490E-2,5.637413356E-3
1.931085100E1,-7.046417594E-1,-2.631433010E-1,-4.312010407E-1
1.933285100E1,-1.125213802E-1,-6.740636230E-1,-8.487012386E-1
1.935286819E1,3.842865825E-1,-7.412588000E-1,-8.154701591E-1
1.937485100E1,7.301235795E-1,-3.299719393E-1,-4.116359055E-1
1.939485100E1,7.930950522E-1,-4.742059484E-2,-6.525786221E-2
1.941485100E1,6.721612215E-1,-3.775146976E-2,1.476723105E-1
1.943485100E1,5.234068036E-1,-1.969429553E-1,2.729694843E-1
1.945485100E1,4.163308442E-1,-1.773254573E-1,3.152762651E-1
1.947485100E1,3.573910594E-1,-1.211607531E-1,3.677757680E-1
1.949485100E1,4.076390862E-1,4.310963303E-2,4.786390960E-1
1.951485100E1,4.228060246E-1,4.333652556E-1,5.497961640E-1
1.953485100E1,2.435607016E-1,6.412863135E-1,5.237383842E-1
1.955485100E1,-3.096214123E-2,4.470137358E-1,3.955788612E-1
1.957485100E1,-9.245008975E-2,-5.846852809E-2,1.595056355E-1
1.959685100E1,1.151742786E-1,-1.895253062E-1,1.344601661E-1
1.961685100E1,-3.748967126E-2,2.942624986E-1,2.679080367E-1
1.963685100E1,-3.377735615E-1,3.424859643E-1,3.490658402E-1
1.965884944E1,-4.765621424E-1,-4.291764647E-2,1.670978218E-1
1.967884944E1,-2.479763776E-1,-2.510656118E-1,-2.552718520E-1
1.969885100E1,2.103819847E-1,-5.064945295E-2,-6.642025113E-1
1.971885100E1,4.349185824E-1,2.841570675E-1,-8.119271398E-1
1.974085100E1,5.907939374E-2,2.740865052E-1,-4.874355495E-1
1.976085100E1,-7.187265754E-1,-1.041088924E-1,7.204718888E-2
1.978284944E1,-1.024490833E0,-7.741582394E-1,4.942074418E-1
1.980284944E1,-9.677850604E-1,-5.725029111E-1,4.346219003E-1
1.982284944E1,-6.685483456E-1,-1.916720569E-1,1.968905926E-1
1.984285256E1,-3.310365975E-1,-6.270968169E-2,-5.888740718E-2
1.986484944E1,-5.267403647E-2,-2.060361207E-1,-2.545039058E-1
1.988484944E1,2.469640970E-2,-5.281191468E-1,-2.769314051E-1
1.990484944E1,-8.988445625E-3,-5.375090241E-1,-1.058367640E-1
1.992484944E1,-5.190609023E-2,-1.710248142E-1,-7.871435024E-3
1.994484944E1,8.016297221E-2,1.787042618E-1,-2.070833147E-1
1.996485100E1,3.245614171E-1,1.969080418E-1,-4.643099308E-1
1.998685100E1,6.097656488E-1,-1.647590846E-2,-6.080029011E-1
2.000884944E1,7.812792063E-1,-3.290294707E-1,-6.548475623E-1
2.002884944E1,6.405183673E-1,-1.773952693E-1,-5.504419208E-1
2.004886975E1,2.488141358E-1,2.459168993E-2,-2.190039158E-1
2.007085100E1,-4.441862926E-2,-1.839926094E-1,2.939134464E-2
2.009085100E1,6.339035928E-2,-5.639159083E-1,-1.116138026E-1
2.011284944E1,2.080083340E-1,-6.675360799E-1,-3.461686075E-1
2.013285569E1,-1.790707745E-2,-2.887123525E-1,-1.505695581E-1
2.015285881E1,1.277581044E-2,-2.628465928E-2,1.033933014E-1
2.017484944E1,2.693741024E-1,1.952848881E-1,1.462934911E-1
2.019484944E1,3.078586161E-1,4.203799963E-1,9.904743731E-2
2.021484944E1,-1.607448235E-2,3.485946059E-1,1.834515631E-1
2.023484944E1,-4.825660884E-1,-2.892010473E-2,4.047767520E-1
2.025485100E1,-7.552388906E-1,-3.292738199E-1,5.240176320E-1
2.027485100E1,-7.417474985E-1,-2.563539743E-1,4.890063405E-1
2.029485100E1,-5.187641978E-1,1.601339579E-1,2.931280434E-1
2.031485100E1,-1.814618856E-1,4.210781455E-1,3.656464815E-2
2.033485100E1,8.185594529E-2,3.403741121E-1,-1.387013197E-1
2.035485100E1,2.053554356E-1,1.588424146E-1,-2.180265337E-1
2.037485413E1,2.270498872E-1,1.432740837E-1,-3.362900317E-1
2.039685100E1,1.229409948E-1,1.695238352E-1,-3.218387067E-1
2.041685100E1,1.097812131E-2,1.723338068E-1,-1.962099075E-1
2.043885100E1,1.092925146E-1,2.625847757E-1,-8.922123164E-2
2.046085100E1,3.229382634E-1,3.224844933E-1,-1.466076588E-3
2.048285100E1,3.296926916E-1,3.196046948E-1,7.904595882E-2
2.050285100E1,1.617920250E-1,2.798635364E-1,2.378360182E-1
2.052285100E1,-2.652900480E-2,1.279850006E-1,4.309043288E-1
2.054484944E1,-1.086991057E-1,-2.314830124E-1,4.664916098E-1
2.056484944E1,3.424336016E-2,-3.154333532E-1,2.986083925E-1
2.058485100E1,3.497639894E-1,-9.128072299E-3,3.508111695E-3
2.060684944E1,2.797413766E-1,3.073873818E-1,5.375614017E-2
2.062684944E1,-2.656565607E-1,1.163611040E-1,4.164181054E-1
2.064684944E1,-6.358059645E-1,-4.560894370E-1,5.191830993E-1
2.066684944E1,-5.242270827E-1,-5.894151330E-1,3.903603256E-1
2.068684944E1,-3.797836602E-2,2.426007576E-2,3.839724232E-3
2.070684944E1,4.156501591E-1,6.085264683E-1,-2.538755834E-1
2.072684944E1,3.760137260E-1,5.640380383E-1,-2.492504716E-1
2.074685100E1,-1.962971836E-1,1.276533753E-1,-2.946115844E-2
2.076685100E1,-8.838521838E-1,-1.969604045E-1,2.978229821E-1
2.078885100E1,-1.072016120E0,-3.160093129E-1,4.092273414E-1
2.081085100E1,-7.121292353E-1,-1.832770258E-1,2.547657192E-1
2.083085100E1,-1.776745170E-1,8.114035428E-2,-2.745402977E-2
2.085085100E1,2.182185203E-1,1.557880938E-1,-1.942900568E-1
2.087285100E1,2.939308882E-1,6.934192777E-2,-2.326349318E-1
2.089285100E1,2.380280048E-1,-8.642870188E-2,-1.895078421E-1
2.091285725E1,1.747249067E-1,-8.525933325E-2,-1.658760905E-1
2.093485100E1,9.367182106E-2,8.309512585E-2,-8.548622578E-2
2.095485100E1,3.150319308E-2,1.664694995E-1,-1.064650808E-2
2.097485100E1,1.346521527E-1,-4.694935866E-3,-1.204277202E-2
2.099485100E1,2.841919661E-1,-1.259080470E-1,-1.287878454E-1
2.101485100E1,2.752035260E-1,-1.601165086E-1,-2.330887169E-1
2.103485100E1,3.506715596E-1,-1.968905926E-1,-3.400425017E-1
2.105485100E1,5.506164432E-1,-7.574728876E-2,-4.723384678E-1
2.107485100E1,6.618986726E-1,-1.214051023E-1,-5.264959931E-1
2.109485100E1,6.954787970E-1,-2.963918149E-1,-5.638809800E-1
2.111485100E1,4.781852961E-1,-3.323106766E-1,-5.555382967E-1
2.113485100E1,-1.346347034E-1,-5.777039751E-2,-4.054923356E-1
2.115485100E1,-3.426779509E-1,-1.226442829E-1,-3.389953077E-1
2.117685100E1,4.712389037E-2,-5.855579674E-2,-4.014606476E-1
2.119685100E1,4.990769029E-1,5.660102889E-2,-4.858647585E-1
2.121885100E1,5.222723484E-1,1.064476296E-1,-4.730889499E-1
2.124085100E1,-1.055924222E-2,1.754055917E-2,-2.990272641E-1
2.126285100E1,-7.252017260E-1,-2.741039693E-1,-3.642502055E-2
2.128285100E1,-9.244834185E-1,-3.828379810E-1,-2.874557301E-2
2.130485100E1,-7.099126577E-1,-1.857204884E-1,-2.333330661E-1
2.132485100E1,-2.469989955E-1,-6.333799660E-2,-4.562814236E-1
2.134485100E1,1.181587875E-1,-1.492256485E-2,-4.806811213E-1
2.136485100E1,1.771334708E-1,-8.045967668E-2,-2.766346931E-1
2.138485100E1,1.363451183E-1,-2.109753937E-1,-2.949606441E-2
2.140485100E1,1.069188714E-1,-1.998576522E-1,1.121723130E-1
2.142684944E1,8.466592431E-2,-4.082325101E-2,1.809557378E-1
2.144684944E1,1.146506816E-1,1.343030781E-1,2.206096202E-1
2.146685100E1,1.312487572E-1,5.023057386E-2,2.369982600E-1
2.148885100E1,1.693841964E-1,-1.554564834E-1,2.385166883E-1
2.150885100E1,2.165604532E-1,-7.827802002E-2,2.495995313E-1
2.153085100E1,2.495297194E-1,3.008773029E-1,2.194925994E-1
2.155085100E1,1.915673316E-1,5.178217292E-1,1.316152811E-1
2.157284944E1,9.297368675E-2,3.788062632E-1,4.136430100E-3
2.159285725E1,1.842194945E-1,1.742885858E-1,-1.329417229E-1
2.161485100E1,4.264537394E-1,-6.572909653E-2,-5.000193715E-1
2.163485100E1,4.823042750E-1,-9.992010146E-2,-6.486690640E-1
2.165485100E1,3.960151970E-2,2.394591719E-1,-1.551074088E-1
2.167485100E1,-5.178042650E-1,4.314104915E-1,5.916491747E-1
2.169485100E1,-5.000368357E-1,1.412844062E-1,9.264731407E-1
2.171485100E1,-1.473755985E-1,-1.044928655E-1,7.610158920E-1
2.173485100E1,8.958774805E-2,-1.527163107E-2,2.501580417E-1
2.175485100E1,-4.242895544E-2,1.648114473E-1,-3.656464815E-2
2.177485100E1,-2.803696990E-1,9.372418374E-2,1.420698036E-2
2.179485100E1,-4.227885604E-1,-2.636843324E-1,2.623927891E-1
2.181485100E1,-5.286078453E-1,-5.226911902E-1,5.160065889E-1
2.183485100E1,-5.199510455E-1,-5.327094197E-1,5.978974104E-1
2.185485100E1,-3.999421895E-1,-3.874107301E-1,4.811174572E-1
2.187485100E1,-2.776818871E-1,-2.081130594E-1,3.562042415E-1
2.189485100E1,-2.639810443E-1,-7.312929723E-3,3.893480599E-1
2.191485100E1,-3.070208728E-1,1.823868975E-2,4.233645201E-1
2.193485100E1,-3.386985958E-1,2.623229846E-2,3.170390427E-1
2.195485100E1,-2.719222903E-1,9.430013597E-2,1.351059377E-1
2.197485100E1,-1.474628747E-1,2.617121339E-1,-8.141960949E-2
2.199684944E1,-1.975712739E-2,4.642052054E-1,-1.897521913E-1
2.201684944E1,1.124864668E-1,3.432189822E-1,-1.799259931E-1
2.203684944E1,2.310815901E-1,-3.480186686E-2,-1.867676824E-1
2.205684944E1,3.329215646E-1,-2.845933735E-1,-2.798635364E-1
2.207684944E1,3.806912005E-1,-2.396860719E-1,-3.220132589E-1
2.209684944E1,4.110250473E-1,-2.227040194E-2,-1.910262853E-1
2.211684944E1,3.856479526E-1,8.218755573E-2,-1.140049100E-1
2.213684944E1,3.395363390E-1,3.270747140E-2,-2.415361106E-1
2.215684944E1,2.534218132E-1,-1.976585388E-1,-3.438124061E-1
2.217685100E1,6.258750707E-2,-3.909712136E-1,-2.831971347E-1
2.219685100E1,-9.075712413E-3,-4.264886677E-1,-2.389006615E-1
2.221884944E1,1.377762854E-1,-3.564660549E-1,-2.143787891E-1
2.223884944E1,2.255314440E-1,-7.237880677E-2,-2.459692508E-1
2.225884944E1,2.635447122E-2,1.711818874E-1,-2.568426430E-1
2.227884944E1,-4.653222263E-1,2.496169955E-1,-1.231504306E-1
2.229884944E1,-9.459509850E-1,1.492431015E-1,8.965755999E-2
2.231884944E1,-1.083081484E0,9.651671164E-3,1.458920687E-1
2.233884944E1,-8.506385684E-1,-1.216319948E-1,1.567305624E-2
2.235884944E1,-3.601661325E-1,-1.689478755E-1,-2.337344885E-1
2.237884944E1,-1.202531811E-2,9.250245057E-3,-3.305828273E-1
2.239884944E1,2.506292760E-1,9.409070015E-2,-3.597123623E-1
2.241884944E1,3.753156066E-1,-3.666936606E-2,-2.548529804E-1
2.243884944E1,3.403392136E-1,-4.790928960E-2,-6.461209059E-2
2.245884944E1,2.402271181E-1,1.215970889E-1,2.166826278E-1
2.247884944E1,2.428625673E-1,3.114190996E-1,3.263591230E-1
2.249884944E1,2.113244683E-1,2.601238787E-1,3.380004764E-1
2.251884944E1,6.799802929E-2,4.953244328E-2,3.796440065E-1
2.253884944E1,7.190756500E-3,-3.926990926E-2,4.842590392E-1
2.255884944E1,1.249132156E-1,-2.216568217E-3,4.754625857E-1
2.257884944E1,3.157649636E-1,1.000422761E-1,3.381924331E-1
2.259884944E1,3.338116705E-1,1.266759932E-1,1.408655196E-1
2.261884944E1,2.039417177E-1,-2.369458973E-1,-1.023810133E-1
2.263884944E1,1.066570729E-1,-5.172632337E-1,-2.725855112E-1
2.265884944E1,6.585127115E-2,-2.971073985E-1,-2.502976656E-1
2.267884944E1,-5.672320258E-3,1.454382837E-1,1.021366641E-1
2.269884944E1,-4.002737999E-1,6.958976984E-1,5.052204728E-1
2.271884944E1,-7.560417056E-1,5.691344142E-1,5.313655138E-1
2.273884944E1,-6.809402108E-1,1.610938832E-2,3.343701661E-1
2.275884944E1,-1.703092307E-1,-1.474454105E-1,-6.040584669E-2
2.277884944E1,4.450764060E-1,2.916619778E-1,-3.538655043E-1
2.279884944E1,7.264060378E-1,7.984183431E-1,-5.309291482E-1
2.281884944E1,4.441513717E-1,9.872280359E-1,-4.342029989E-1
2.283884944E1,-2.075196505E-1,7.161085606E-1,9.468410909E-2
2.285884944E1,-7.512246370E-1,-1.607448235E-2,6.332054734E-1
2.287884944E1,-8.503767848E-1,-5.801649094E-1,7.355690002E-1
2.289884944E1,-5.935341120E-1,-4.714832306E-1,4.202927351E-1
2.291884944E1,-1.608495414E-1,-1.322785020E-1,7.562511414E-2
2.293884944E1,7.349581271E-2,8.901178837E-3,7.033676840E-3
2.295884944E1,7.749261707E-2,-9.206611663E-2,9.082693607E-2
2.297884944E1,4.708898440E-2,-1.690351367E-1,1.898569167E-1
2.299884944E1,1.296081543E-1,-1.653175801E-1,1.358389705E-1
2.301884944E1,1.892635077E-1,7.595673203E-2,2.460914291E-2
2.303884944E1,2.392497361E-1,4.495968223E-1,9.250245057E-3
2.305884944E1,3.176848292E-1,6.232047081E-1,8.133234084E-2
2.307884944E1,4.197167754E-1,3.396061659E-1,6.723008305E-2
2.309884944E1,5.017647147E-1,-4.686209187E-2,-1.283864230E-1
2.311884944E1,6.425604224E-1,-1.240580007E-1,-2.385166883E-1
2.313884944E1,6.633123755E-1,8.438666910E-2,-1.395216137E-1
2.315884944E1,3.937113583E-1,3.466223776E-1,3.389429301E-2
2.317884944E1,1.024857312E-1,1.646369100E-1,-5.283111706E-2
2.319884944E1,4.925319180E-2,-2.035577446E-1,-4.101698399E-1
2.321884944E1,-1.337969452E-1,-4.399974942E-1,-5.460088253E-1
2.323884944E1,-4.205196202E-1,-3.995058537E-1,-3.776892424E-1
2.325885100E1,-2.775596976E-1,-4.575904310E-1,-2.695137560E-1
2.327885100E1,1.446354389E-1,-3.409500718E-1,-2.750813365E-1
2.330084944E1,4.668057561E-1,-4.354596511E-2,-5.243842006E-1
2.332085100E1,4.303981960E-1,4.422664270E-2,-7.531968355E-1
2.334285100E1,-3.241076320E-2,2.117084339E-2,-7.989069819E-1
2.336285100E1,-6.191381216E-1,-3.111921996E-2,-6.109699607E-1
2.338285100E1,-1.006339431E0,-1.406909972E-1,-3.493625522E-1
2.340285725E1,-1.009707928E0,-1.074599251E-1,-2.779611349E-1
2.342484944E1,-5.423610806E-1,-9.042550623E-2,-5.405982733E-1
2.344485100E1,1.244768798E-1,-8.236208558E-2,-8.859989643E-1
2.346685100E1,4.672595561E-1,-1.972221956E-2,-8.773944378E-1
2.348884944E1,4.280419946E-1,-8.536405116E-2,-6.470459104E-1
2.350884944E1,4.523544312E-1,-2.305929065E-1,-4.754451513E-1
2.352884944E1,4.473104179E-1,-1.799434423E-2,-3.976558149E-1
2.354886975E1,2.933898568E-1,2.441541106E-1,-3.244392574E-1
2.357084944E1,1.477770209E-1,1.946914792E-1,-2.064200938E-1
2.359084944E1,1.224173903E-1,1.640783995E-1,-1.154360771E-1
2.361084944E1,2.180439830E-1,2.470862567E-1,-5.073672161E-2
2.363084944E1,2.863910794E-1,3.462558687E-1,-7.714354992E-2
2.365084944E1,2.218837142E-1,1.705535799E-1,-1.563815027E-1
2.367084944E1,1.154709831E-1,-1.011767387E-1,-1.384046078E-1
2.369084944E1,-5.235987919E-5,-2.179741710E-1,9.157742560E-2
2.371084944E1,-8.714429289E-2,-1.206895187E-1,4.505741894E-1
2.373084944E1,-2.242922634E-1,-1.630137488E-2,7.289716601E-1
2.375084944E1,-4.637339711E-1,-1.268854290E-1,6.963165402E-1
2.377084944E1,-4.895474017E-1,-3.255911767E-1,4.208163321E-1
2.379084944E1,-1.292067170E-1,-3.044552207E-1,9.313076735E-2
2.381084944E1,3.242647350E-1,9.527752548E-2,-2.099631131E-1
2.383084944E1,3.814766109E-1,6.164328456E-1,-2.328443676E-1
2.385084944E1,1.830850355E-2,6.820572019E-1,-1.221730490E-4
2.387084944E1,-5.371250510E-1,3.100053668E-1,3.967831433E-1
2.389084944E1,-7.686778903E-1,-2.841745019E-1,6.208485365E-1
2.391084944E1,-6.294878721E-1,-5.007523894E-1,5.530424714E-1
2.393084944E1,-2.201383710E-1,-4.244291782E-1,3.363947570E-1
2.395085100E1,8.435176313E-2,-2.879793346E-1,1.062032878E-1
2.397285100E1,9.688322991E-2,-1.424712241E-1,-6.024876609E-2
2.399287600E1,6.096434966E-2,-9.871581942E-2,-1.515993029E-1
2.401485100E1,1.606750041E-1,-7.218682021E-2,-1.746725440E-1
2.403485100E1,3.027273715E-1,1.122072190E-1,-2.189515531E-1
2.405485100E1,4.058588743E-1,3.284011483E-1,-2.339962870E-1
2.407485100E1,3.833266497E-1,3.115587234E-1,-1.378286481E-1
2.409485100E1,2.531076372E-1,-2.968805097E-2,-3.782128543E-2
2.411685100E1,1.177050024E-1,-4.070282280E-1,-5.960299447E-2
2.413884944E1,1.513375044E-1,-5.386958718E-1,-3.236713111E-1
2.415884944E1,2.883458436E-1,-3.633077443E-1,-5.288172960E-1
2.417884944E1,3.132167757E-1,-6.637486815E-2,-5.325174332E-1
2.419884944E1,2.387435883E-1,5.295328796E-2,-4.479911029E-1
2.421884944E1,9.159488231E-2,7.400196046E-2,-4.367686510E-1
2.423884944E1,-1.960004717E-1,5.415756628E-2,-3.138800263E-1
2.425884944E1,-2.841919661E-1,3.403391922E-3,-2.159146816E-1
2.427884944E1,1.055400595E-1,-2.624451518E-1,-3.196570575E-1
2.429884944E1,5.582086444E-1,-3.225717545E-1,-4.396135211E-1
2.431884944E1,6.921800971E-1,-1.448623240E-1,-4.426504076E-1
2.433884944E1,3.904126883E-1,8.136724681E-2,-2.907020450E-1
2.435884944E1,-2.626197040E-1,2.841919661E-1,-8.395033330E-2
2.437884944E1,-9.085136652E-1,1.822996438E-1,1.408480667E-2
2.439884944E1,-1.061491847E0,-2.026850879E-1,-5.049237609E-2
2.441884944E1,-7.724478245E-1,-4.741186798E-1,-1.418429017E-1
2.443884944E1,-2.733360231E-1,-4.662996233E-1,-2.365270257E-1
2.445884944E1,1.465029418E-1,-1.440420300E-1,-1.591740251E-1
2.447884944E1,3.706381321E-1,1.741489470E-1,-4.874704406E-2
2.449884944E1,3.971147537E-1,1.891064197E-1,3.963642567E-2
2.451884944E1,2.756747603E-1,-3.026400879E-2,1.267632693E-1
2.453884944E1,1.652652323E-1,-1.613382399E-1,2.256012559E-1
2.455884944E1,1.850049049E-1,-7.836528122E-2,3.228684664E-1
2.457885100E1,2.280447185E-1,7.646287233E-2,5.126730204E-1
2.459885100E1,1.542522013E-1,4.048291147E-1,8.184198141E-1
2.462084944E1,2.622706294E-1,7.077310085E-1,1.163017631E0
2.464085100E1,3.748443723E-1,5.570567250E-1,1.195986867E0
2.466085100E1,3.244392574E-1,-9.960594028E-2,9.148666859E-1
2.468085100E1,2.981720567E-1,-6.657209396E-1,4.382347167E-1
2.470285100E1,3.180862665E-1,-6.158394217E-1,3.320663571E-1
2.472285100E1,-1.649336144E-2,-2.406459898E-1,6.773099303E-1
2.474485100E1,-5.064421892E-1,3.548254445E-2,9.549045563E-1
2.476485100E1,-3.059736788E-1,-9.494590759E-2,7.485368252E-1
2.478485100E1,1.677959561E-1,8.934340626E-2,4.013209939E-1
2.480485100E1,4.094716907E-1,6.782698631E-1,4.675737023E-1
2.482485100E1,1.199913844E-1,7.887142897E-1,9.164375067E-1
2.484485100E1,-4.221951365E-1,2.766521275E-1,1.232167482E0
2.486485100E1,-8.115257621E-1,-1.798561811E-1,1.095927119E0
2.488485100E1,-7.512769699E-1,-1.592787504E-1,8.199557066E-1
2.490485100E1,-5.186071396E-1,1.499935985E-1,6.011437774E-1
2.492485100E1,-2.918713987E-1,2.377836555E-1,4.073773026E-1
2.494485100E1,-1.570970863E-1,1.625599712E-1,2.031388730E-1
2.496685100E1,1.199041214E-2,-6.454227865E-2,-3.008947708E-2
2.498685100E1,1.121548563E-1,-8.438666910E-2,-1.195026934E-1
2.500685100E1,4.693190381E-2,1.299746633E-1,-1.181762442E-1
2.502884944E1,-3.731513768E-2,4.499807954E-1,-1.226617396E-1
2.504887444E1,1.682497375E-2,3.642851114E-1,-1.681275666E-1
2.507085100E1,8.677776903E-2,-1.583537161E-1,-2.732138336E-1
2.509085100E1,1.147030368E-1,-3.187494874E-1,-3.355744481E-1
2.511085100E1,4.102571011E-1,4.011115730E-1,-2.963045537E-1
2.513285100E1,1.129420042E0,1.336695313E0,-1.231853366E-1
2.515285100E1,1.782295346E0,1.474139929E0,6.503096968E-2
2.517285100E1,1.774633288E0,1.053585410E0,6.901031733E-2
2.519286350E1,1.261873007E0,3.249104917E-1,-1.415811032E-1
2.521484944E1,5.645442009E-1,-3.322583139E-1,-4.062428474E-1
2.523485100E1,-3.003711626E-2,-2.598097026E-1,-4.044102430E-1
2.525485100E1,-2.942276001E-1,-2.909812927E-1,-3.787015378E-1
2.527485100E1,-1.141096279E-1,-4.902106225E-1,-3.667460382E-1
2.529485100E1,2.258106917E-1,-5.770756602E-1,-2.963569164E-1
2.531485100E1,1.102699041E-1,-3.746000230E-1,-2.614328563E-1
2.533485100E1,-5.249077678E-1,-2.602635026E-1,-2.040988058E-1
2.535485100E1,-1.294144154E0,-3.514045775E-1,-2.406809106E-2
2.537485100E1,-1.513043404E0,-7.458490133E-1,6.911503617E-3
2.539485100E1,-1.264892459E0,-7.831816077E-1,-1.378286481E-1
2.541485100E1,-6.314426661E-1,-4.261395931E-1,-4.679751396E-1
2.543485100E1,4.761258140E-2,2.623927891E-1,-5.593430996E-1
2.545684944E1,2.532996237E-1,5.315225720E-1,-2.582563758E-1
2.547685100E1,-8.620180935E-2,2.665292323E-1,4.771730304E-2
2.549685100E1,-4.141491652E-1,-6.955137104E-2,9.707520902E-2
2.551685100E1,-4.844684899E-1,-3.344050795E-2,-4.694935866E-3
2.553685100E1,-2.918016016E-1,4.337143153E-2,-1.473057866E-1
2.555685100E1,-7.325147092E-2,2.713987045E-2,-2.432116270E-1
2.557685100E1,7.566002011E-2,5.497787148E-3,-2.036973834E-1
2.559685100E1,1.904328763E-1,3.141592816E-2,-7.641051710E-2
2.561685100E1,2.688505054E-1,1.670280099E-2,2.363175713E-2
2.563885100E1,1.286482215E-1,-8.503244072E-2,1.089434549E-1
2.566085100E1,-2.625149786E-1,-2.435083389E-1,8.574802428E-2
2.568085100E1,-4.186521173E-1,-6.448467970E-1,-1.488765888E-2
2.570285725E1,-2.715383172E-1,-5.821720362E-1,-7.452555746E-2
2.572485100E1,-3.807610273E-1,-3.303908184E-2,9.447467327E-2
2.574685100E1,-6.383541822E-1,1.138478294E-1,2.930756807E-1
2.576685100E1,-5.987002850E-1,-1.033234894E-1,2.223025858E-1
2.578885100E1,-1.316501796E-1,-1.985311955E-1,-7.581710070E-2
2.581085100E1,4.717625082E-1,1.612684280E-1,-3.141069114E-1
2.583285725E1,2.727774978E-1,8.733976483E-1,-2.596875429E-1
2.585285725E1,-4.880638719E-1,9.381319284E-1,1.144586951E-1
2.587285725E1,-1.031210303E0,1.804321408E-1,5.454328656E-1
2.589485100E1,-9.508030415E-1,-5.434606075E-1,6.394363046E-1
2.591485100E1,-3.910061121E-1,-4.926366210E-1,1.541823894E-1
2.593485100E1,2.273814976E-1,5.907939374E-2,-2.284286916E-1
2.595485100E1,5.893104076E-1,5.096710324E-1,-3.174928427E-1
2.597485100E1,6.441486478E-1,4.017747939E-1,-1.602037698E-1
2.599485100E1,5.297423601E-1,-1.239183731E-2,-1.302015595E-2
2.601485100E1,2.671400905E-1,-1.826661527E-1,1.832421124E-1
2.603485100E1,7.679448463E-3,-2.161066681E-1,2.838254273E-1
2.605485100E1,-4.192280769E-2,-3.007551432E-1,1.840100586E-1
2.607485100E1,-6.949900836E-2,-2.418328226E-1,2.705260413E-3
2.609485100E1,-4.406956211E-2,-1.865058839E-1,-1.384569705E-1
2.611685100E1,1.518087387E-1,-1.662775129E-1,-2.833716571E-1
2.613885100E1,4.426504076E-1,-1.797165573E-1,-4.665963352E-1
2.616085100E1,5.782625079E-1,-1.164309159E-1,-5.775294304E-1
2.618085100E1,4.121071398E-1,-3.799581900E-2,-5.576850772E-1
2.620285412E1,5.003859103E-2,-1.842718571E-1,-4.713785350E-1
2.622485100E1,-2.222676724E-1,-3.842516840E-1,-3.962246478E-1
2.624485100E1,-4.012337327E-1,-3.438647687E-1,-2.881189585E-1
2.626485100E1,-3.266383708E-1,-2.010444701E-1,-2.411172390E-1
2.628485100E1,3.108431399E-2,-2.172934823E-2,-3.414038420E-1
2.630485100E1,4.496840835E-1,1.380555425E-2,-5.390275121E-1
2.632685100E1,5.117130876E-1,2.186897583E-2,-7.012034655E-1
2.634887444E1,1.325577497E-1,-1.273217648E-1,-5.836206675E-1
2.637085100E1,-4.112693965E-1,-1.417556405E-1,-2.305056304E-1
2.639085100E1,-6.642548442E-1,-2.455678210E-2,1.963495463E-2
2.641285569E1,-5.833588243E-1,7.984881103E-2,5.958554149E-2
2.643285881E1,-3.016278148E-1,4.317944497E-2,-1.090830788E-1
2.645485100E1,5.605997518E-2,-1.916720569E-1,-3.642327487E-1
2.647485100E1,1.216669008E-1,-2.146056890E-1,-3.932401240E-1
2.649485100E1,1.758768260E-1,-1.496619880E-1,-2.486919612E-1
2.651485100E1,3.674965203E-1,-5.450663343E-2,-1.339714676E-1
2.653485100E1,4.954116940E-1,-1.143016145E-1,-1.676737815E-1
2.655485100E1,4.579918385E-1,-3.860144615E-1,-4.407130778E-1
2.657485100E1,3.254689872E-1,-2.675240636E-1,-6.875898838E-1
2.659485100E1,4.230329096E-1,1.068141498E-2,-7.444178462E-1
2.661485100E1,6.122964025E-1,3.658035696E-1,-4.802971482E-1
2.663485100E1,6.690370440E-1,4.978202581E-1,7.941247895E-3
2.665485100E1,3.950727284E-1,3.043330610E-1,3.452435732E-1
2.667485100E1,2.563888580E-2,-6.253514439E-2,4.694063067E-1
2.669485100E1,-1.930334121E-1,-3.392396569E-1,4.147425890E-1
2.671684944E1,-4.475024343E-2,-2.535090744E-1,2.926219106E-1
2.673684944E1,2.375393175E-2,2.871590257E-1,4.211654067E-1
2.675685100E1,-4.758640230E-1,5.607568622E-1,9.070824981E-1
2.677688850E1,-1.062835693E0,1.764527895E-2,1.221346498E0
2.679885100E1,-1.160818458E0,-8.019962311E-1,1.244559407E0
2.682085100E1,-8.530645967E-1,-9.525483251E-1,8.172678947E-1
2.684085100E1,-4.532620013E-1,-3.296054304E-1,2.803522348E-1
2.686285100E1,-4.705407470E-2,3.954392374E-1,-1.167450696E-1
2.688285100E1,5.225515738E-2,4.405560195E-1,-1.152964532E-1
2.690286194E1,-7.667231560E-2,8.819148690E-2,3.316125658E-4
2.692485100E1,-1.884082854E-1,-1.684242673E-2,1.446703374E-1
2.694485100E1,-1.001120880E-1,1.840100586E-1,2.043431550E-1
2.696685100E1,8.183848858E-2,3.340560198E-1,2.643126547E-1
2.698685100E1,2.297551483E-1,1.392598152E-1,3.734306395E-1
2.700685100E1,1.562069654E-1,2.244493365E-2,5.649281740E-1
2.702685100E1,-5.052728206E-2,5.555383116E-2,6.980968118E-1
2.704685100E1,-1.919513047E-1,-3.612831468E-3,6.480058432E-1
2.706685100E1,-2.737199962E-1,-1.773778051E-1,4.752357006E-1
2.708685100E1,-2.718873918E-1,-1.958084852E-1,2.740166783E-1
2.710685100E1,-1.100081056E-1,-8.210028708E-2,8.546877652E-2
2.712685100E1,1.739918739E-1,6.675884128E-2,-9.690067917E-2
2.714887444E1,4.931776822E-1,4.654793069E-2,-3.158522248E-1
2.717086194E1,6.624222398E-1,4.869468510E-2,-4.627391398E-1
2.719285100E1,5.682617426E-1,2.222851366E-1,-3.637266159E-1
2.721285100E1,3.748967350E-1,2.985734642E-1,-1.025904566E-1
2.723485100E1,5.053251982E-1,-6.843435764E-2,1.326450240E-2
2.725485100E1,5.789955258E-1,-3.204424679E-2,4.016002640E-2
2.727485100E1,2.651853263E-1,5.318890810E-1,1.371654272E-1
2.729485100E1,-3.286978602E-1,7.248352170E-1,3.019244969E-1
2.731485100E1,-4.780456722E-1,2.370855212E-1,2.750464380E-1
2.733485100E1,-1.916371584E-1,-2.036799304E-2,1.482831687E-1
2.735684944E1,6.525786221E-2,6.311110407E-2,1.954768784E-2
2.737685100E1,-1.159771308E-1,1.143888757E-1,4.244640842E-2
2.739685100E1,-5.081875324E-1,-2.569124661E-2,9.641198814E-2
2.741885100E1,-7.090574503E-1,-3.710221052E-1,2.949606441E-2
2.743885100E1,-6.754423976E-1,-4.325100482E-1,-1.032885835E-1
2.746085100E1,-5.412091613E-1,-2.204350829E-1,-2.536486983E-1
2.748285100E1,-3.449119627E-1,1.865931451E-1,-2.077988982E-1
2.750485100E1,-3.775146976E-2,4.027870893E-1,-7.321656495E-2
2.752485100E1,1.776570678E-1,3.582288325E-1,-2.649409883E-2
2.754485100E1,2.619913816E-1,1.540776640E-1,1.940806210E-2
2.756485100E1,2.890090644E-1,2.268928103E-3,3.879866749E-2
2.758485100E1,4.241848290E-1,-4.347615317E-2,-1.347394194E-2
2.760485100E1,4.895997643E-1,6.108652451E-4,2.499311417E-2
2.762485100E1,4.283212423E-1,-7.993607968E-2,2.016029805E-1
2.764485100E1,3.245788813E-1,-2.052507252E-1,3.940429986E-1
2.766485100E1,2.247285992E-1,-2.475575060E-1,4.237833917E-1
2.768685100E1,1.409876943E-1,-1.740267724E-1,2.675764263E-1
2.770885100E1,1.574287005E-2,-1.063952744E-1,-1.918116771E-2
2.773084944E1,-1.203055456E-1,-7.312929723E-3,-1.602735817E-1
2.775085100E1,-7.918559015E-2,4.455825686E-2,-1.275137514E-1
2.777285413E1,-6.504841894E-2,3.388033211E-1,-1.600466855E-2
2.779485100E1,-4.124911129E-1,6.087184548E-1,1.486322433E-1
2.781485100E1,-6.088930368E-1,3.171088696E-1,2.705434859E-1
2.783485100E1,-3.782303035E-1,-1.031315029E-1,4.217588007E-1
2.785684944E1,1.702743173E-1,2.318146378E-1,1.730668545E-1
2.787684944E1,6.367658973E-1,6.561914086E-1,-1.502728462E-1
2.789685100E1,5.781926513E-1,7.798654437E-1,-1.226268336E-1
2.791885100E1,6.096434966E-2,2.939832509E-1,3.839899004E-1
2.793885100E1,-3.979699612E-1,-3.874805570E-1,8.175471425E-1
2.796085100E1,-4.406956434E-1,-5.245761871E-1,8.648106456E-1
2.798085100E1,-1.725607067E-1,-2.840872407E-1,5.150291920E-1
2.800085100E1,1.277231872E-1,-2.782054804E-2,1.154709831E-1
2.802085100E1,2.136283070E-1,-1.710422710E-2,4.813618213E-2
2.804085100E1,1.294510663E-1,-2.633178234E-1,1.305331737E-1
2.806285100E1,-7.400196046E-3,-3.472507000E-1,1.774301678E-1
2.808285256E1,-2.169444226E-2,-7.682939619E-2,1.531700939E-1
2.810485100E1,1.579872072E-1,2.745752037E-1,8.433430642E-2
2.812485100E1,3.294309080E-1,4.071504176E-1,2.112721056E-1
2.814485256E1,4.368908107E-1,2.750464380E-1,2.819579542E-1
2.816684944E1,3.903952539E-1,6.839945167E-2,1.184904054E-1
2.818685100E1,4.443608224E-1,-2.099631131E-1,-1.019621342E-1
2.820685100E1,5.854183435E-1,-4.624598920E-1,-3.104417026E-1
2.822884944E1,5.749463439E-1,-1.651779562E-1,-4.240975678E-1
2.824887444E1,3.459940553E-1,2.563888729E-1,-3.955788612E-1
2.827084944E1,1.815665960E-1,6.370452046E-2,-3.351381123E-1
2.829084944E1,-7.745771110E-2,-1.214400083E-1,-2.853613198E-1
2.831085100E1,-5.515240431E-1,-1.745329238E-3,-1.054702476E-1
2.833284944E1,-6.321582794E-1,1.490511186E-2,-1.025031880E-1
2.835285100E1,-2.364571989E-1,8.403760195E-2,-2.044304162E-1
2.837285100E1,2.911732793E-1,-6.946410518E-3,-4.148473144E-1
2.839285725E1,3.130597174E-1,8.826129884E-2,-4.197516739E-1
2.841485100E1,-2.638239563E-1,4.262094200E-2,-1.474803239E-1
2.843485881E1,-9.774891138E-1,-5.269148946E-2,2.099281996E-1
2.845685100E1,-1.169684768E0,-2.569124699E-1,3.322757781E-1
2.847685100E1,-9.561088085E-1,-1.903281510E-1,2.033657581E-1
2.849685100E1,-4.917116165E-1,-1.877625138E-1,-1.468171030E-1
2.851685100E1,-8.349654824E-2,-1.602561325E-1,-3.146479428E-1
2.853685100E1,1.089609042E-1,-8.419468254E-2,-2.529156506E-1
2.855685100E1,2.123542130E-1,-6.986553222E-2,-2.060186714E-1
2.857885100E1,2.377836555E-1,-7.853982039E-3,-2.035402954E-1
2.860085100E1,1.753881425E-1,-1.291543595E-3,-1.850398034E-1
2.862285100E1,-1.129228063E-2,-1.164658219E-1,-1.322436035E-1
2.864285100E1,-2.931105793E-1,-2.158797681E-1,-3.085742146E-2
2.866285100E1,-2.840697765E-1,-2.095965892E-1,3.637266159E-2
2.868285100E1,4.614650458E-2,3.630284918E-3,-1.046150327E-1
2.870285100E1,3.369881809E-1,1.104967967E-1,-2.819753885E-1
2.872285412E1,3.697828948E-1,1.974316388E-1,-1.532050073E-1
2.874485100E1,3.206867874E-1,2.551671304E-2,7.590436935E-2
2.876485100E1,2.445380837E-1,-2.867052257E-1,6.494370103E-2
2.878485100E1,3.318394423E-1,-3.386985958E-1,-9.150761366E-2
2.880485100E1,4.398055077E-1,1.338667516E-2,-1.258382350E-1
2.882685100E1,1.296779662E-1,4.577998519E-1,1.737475246E-1
2.884685100E1,-2.971946597E-1,1.328020990E-1,4.138175547E-1
2.886685100E1,-3.803246915E-1,-4.340808392E-1,4.119151533E-1
2.888884944E1,-1.167101637E-1,-3.908839524E-1,1.253670007E-1
2.890884944E1,3.059213161E-1,9.314822406E-2,-1.792627722E-1
2.892885100E1,4.110948443E-1,6.273934841E-1,-3.211405873E-1
2.894886975E1,9.840166569E-2,6.951122880E-1,-1.385616958E-1
2.897085100E1,-3.491531014E-1,7.693411410E-2,2.530378401E-1
2.899285100E1,-5.542641878E-1,-4.387757778E-1,4.639957845E-1
2.901285100E1,-4.037295580E-1,-4.709072709E-1,3.965213597E-1
2.903287444E1,-1.825788915E-1,-1.170243248E-1,2.140122652E-1
2.905485100E1,-1.135162115E-1,1.863662601E-1,5.492551252E-2
2.907684944E1,-8.492772281E-2,-6.257005036E-2,5.485569686E-2
2.909684944E1,-2.560397983E-2,-3.302861154E-1,1.332035214E-1
2.911685100E1,-3.054326167E-3,-1.538682282E-1,1.188220158E-1
2.913885100E1,-4.612905160E-2,2.984338403E-1,6.522295624E-2
2.916084944E1,-5.742133036E-2,5.008745790E-1,1.387885809E-1
2.918085100E1,-6.277949363E-2,4.061032236E-1,1.450368613E-1
2.920285100E1,6.544984877E-3,6.178465486E-2,6.928957067E-3
2.922285100E1,1.912706345E-1,-1.143016145E-1,-2.065771669E-1
2.924285100E1,4.861614704E-1,-9.590584040E-2,-4.157199860E-1
2.926285256E1,6.675535440E-1,3.930481523E-2,-5.483475327E-1
2.928285725E1,6.935589314E-1,8.984954655E-2,-4.967381656E-1
2.930485100E1,4.449891448E-1,-1.845511198E-1,-2.611710727E-1
2.932685100E1,1.701521426E-1,-6.317393780E-1,-2.589719594E-1
2.934887600E1,-1.681973785E-1,-2.779960334E-1,-2.768092155E-1
2.937084944E1,-3.010518551E-1,7.897614688E-2,-2.510656118E-1
2.939085100E1,-1.481784508E-2,5.096361507E-3,-2.053030729E-1
2.941285100E1,2.019869536E-1,-5.487314984E-2,-1.317898184E-1
2.943285725E1,8.309512585E-2,8.915141970E-2,-4.698426276E-2
2.945485100E1,-4.144807756E-1,2.922553718E-1,1.556484550E-1
2.947485100E1,-9.906314015E-1,1.551074088E-1,2.929185927E-1
2.949485100E1,-1.142387748E0,-1.688082516E-1,3.091152608E-1
2.951485100E1,-9.195266962E-1,-3.777416050E-1,1.216669008E-1
2.953685100E1,-3.544938266E-1,-3.609690070E-1,-2.775771618E-1
2.955685100E1,1.013861746E-1,-1.367640048E-1,-4.666835964E-1
2.957685100E1,4.122118652E-1,8.342674002E-3,-3.615972996E-1
2.959685100E1,5.451012254E-1,6.155776232E-2,-1.073202938E-1
2.961685100E1,4.906120598E-1,1.016654298E-1,1.137605608E-1
2.963885100E1,2.985909283E-1,1.175130159E-1,2.543991804E-1
2.966084944E1,1.828232408E-1,9.546951205E-2,3.381401002E-1
2.968085100E1,2.856580317E-1,5.510004610E-2,3.523819745E-1
2.970285100E1,5.106658936E-1,9.149015695E-2,3.543367386E-1
2.972285100E1,5.950874686E-1,1.589820385E-1,3.720343709E-1
2.974285100E1,5.263389349E-1,2.769488394E-1,4.005879760E-1
2.976285412E1,3.678630590E-1,4.131717980E-1,3.544938266E-1
2.978485100E1,6.375687569E-2,3.509857059E-1,2.938087285E-1
2.980485100E1,-6.890559942E-2,-7.187265903E-2,1.362229437E-1
2.982685100E1,1.549677849E-1,-2.750115395E-1,-4.462806880E-2
2.984887131E1,1.430995464E-1,3.481059074E-1,1.385442317E-1
2.987084944E1,-3.405835629E-1,6.257528663E-1,3.950552642E-1
2.989085100E1,-4.241150022E-1,-2.583087236E-2,3.157300651E-1
2.991285100E1,-1.120675877E-1,-3.598519862E-1,6.958627701E-2
2.993484944E1,2.849424481E-1,-6.736970693E-2,-1.688955128E-1
2.995485100E1,2.468593717E-1,3.947062194E-1,-2.150071114E-1
2.997684944E1,-2.514495850E-1,4.939281642E-1,4.434881732E-2
2.999684944E1,-7.432833910E-1,-2.700024284E-2,4.230329096E-1
3.001684944E1,-9.903347492E-1,-6.296624541E-1,5.506513715E-1
3.003684944E1,-9.095783234E-1,-9.488482475E-1,4.217239022E-1
3.005684944E1,-4.990070760E-1,-7.880685329E-1,1.277755499E-1
3.007684944E1,2.686061710E-2,-2.485697865E-1,-2.017949671E-1
3.009685100E1,3.565882146E-1,1.417730898E-1,-3.137578368E-1
3.011685100E1,4.587423503E-1,1.712168008E-1,-1.887399107E-1
3.013885100E1,4.460887015E-1,1.675865203E-1,2.567379363E-2
3.016085100E1,4.658807218E-1,2.064899057E-1,1.898220032E-1
3.018085100E1,4.073424041E-1,1.974665523E-1,2.309943289E-1
3.020085100E1,3.488738537E-1,8.260643482E-2,1.858601123E-1
3.022285100E1,3.869743943E-1,-2.061233856E-2,4.420918971E-2
3.024285100E1,4.320737123E-1,-5.056218803E-2,-5.649630725E-2
3.026285100E1,5.191133022E-1,-1.359436959E-1,-1.262571216E-1
3.028285100E1,6.623524427E-1,-2.332632542E-1,-2.595828176E-1
3.030485256E1,5.666909814E-1,-1.780410409E-1,-2.921681106E-1
3.032685100E1,2.918713987E-1,-2.084970325E-1,-2.754478753E-1
3.034887131E1,-3.532546386E-2,-1.055924222E-1,-3.303210139E-1
3.037085100E1,-6.459637880E-1,3.114190996E-1,-9.440486133E-2
3.039085100E1,-9.073268771E-1,3.086963892E-1,7.661995478E-3
3.041285725E1,-4.789008796E-1,-1.092925146E-1,-3.792600334E-2
3.043485100E1,1.569923609E-1,-3.715107739E-1,-3.246137798E-1
3.045485100E1,1.894729435E-1,5.052728206E-2,-3.887721002E-1
3.047685100E1,-2.957460284E-1,3.745301962E-1,-3.172310293E-1
3.049885100E1,-6.722135544E-1,9.550441802E-2,-2.682047486E-1
3.052085100E1,-6.626316905E-1,-9.201376140E-2,-2.879618704E-1
3.054085100E1,-4.269424379E-1,-6.681120396E-2,-3.434982598E-1
3.056285100E1,-1.178271770E-1,5.920156837E-2,-3.899065554E-1
3.058285100E1,1.284911335E-1,5.527457595E-2,-3.959628344E-1
3.060285100E1,1.929985136E-1,2.535963431E-2,-2.455329150E-1
3.062285100E1,7.620107383E-2,4.349360615E-2,-7.122688740E-2
3.064285100E1,1.733111963E-2,-3.324852139E-2,-3.616322204E-2
3.066485100E1,-4.537856148E-4,-1.274613887E-1,-6.656685472E-2
3.068485100E1,3.066543490E-2,-2.266833633E-1,-2.445206232E-2
3.070485100E1,2.364921123E-1,-2.578375041E-1,-1.064650831E-3
3.072485100E1,5.825734735E-1,-1.846558303E-1,-2.096140385E-2
3.074485100E1,6.378305554E-1,7.236135006E-2,4.356341809E-2
3.076485100E1,3.739542365E-1,1.134638563E-1,7.869689912E-2
3.078485100E1,2.069960535E-2,-3.937462717E-2,-1.214749180E-2
3.080485100E1,-2.378883772E-2,-2.567030191E-1,-1.531526446E-1
3.082685100E1,1.754055917E-1,-9.271188825E-2,-2.605252862E-1
3.084887131E1,1.214225590E-1,3.759962916E-1,-2.212204784E-1
3.087084944E1,-2.363175750E-1,4.627042413E-1,8.030259609E-2
3.089085100E1,-4.448669851E-1,2.191086262E-1,2.025454640E-1
3.091285569E1,-3.534291685E-1,1.436056942E-1,2.493900955E-1
3.093485100E1,-2.203129083E-1,4.410621524E-1,6.288421154E-2
3.095485100E1,-2.400700450E-1,4.233819544E-1,-4.419173673E-2
3.097685100E1,-4.249527752E-1,1.175304726E-1,2.272244096E-1
3.099685256E1,-6.489657760E-1,-1.636420637E-1,6.703984141E-1
3.101884944E1,-7.920303941E-1,-2.260026783E-1,9.664586186E-1
3.103884944E1,-6.170436740E-1,-2.560223341E-1,8.598887920E-1
3.105884944E1,-2.502278686E-1,-2.631956637E-1,5.031260848E-1
3.107885100E1,1.189790964E-1,-3.168819845E-1,1.508139074E-1
3.110085100E1,3.054151535E-1,-2.295980603E-1,6.702063978E-2
3.112285100E1,3.158696890E-1,2.017600536E-1,1.029046103E-1
3.114285100E1,4.348313212E-1,4.838750660E-1,1.148252115E-1
3.116285100E1,5.810201168E-1,5.650852323E-1,1.195550524E-2
3.118285569E1,6.738891006E-1,4.987278283E-1,-9.478883445E-2
3.120484944E1,6.211277843E-1,2.871241271E-1,-1.997529268E-1
3.122485100E1,5.556779504E-1,1.585631669E-1,-2.505594790E-1
3.124485100E1,5.843013525E-1,1.710422686E-3,-3.093945086E-1
3.126685100E1,5.174552202E-1,-8.761553094E-3,-3.186622262E-1
3.128885100E1,2.752733231E-1,6.318091881E-3,-2.332807034E-1
3.131084944E1,8.480554819E-2,-1.630661041E-1,-2.622531652E-1
3.133084944E1,-2.824117243E-1,-3.083996847E-2,-1.609891653E-1
3.135084944E1,-5.981592536E-1,1.439373046E-1,4.679227620E-2
3.137084944E1,-5.114338398E-1,1.703441292E-1,1.940457076E-1
3.139084944E1,-1.458048075E-1,8.485791087E-2,8.049458265E-2
3.141084944E1,1.214400083E-1,1.237787530E-1,-2.426531315E-1
3.143084944E1,7.819075137E-3,2.074847370E-1,-2.954667807E-1
3.145085100E1,-2.805791199E-1,-1.850049011E-3,-1.529781073E-1
3.147285881E1,-5.184151530E-1,-2.577676773E-1,8.042477071E-2
3.149484944E1,-5.319240093E-1,-2.496868074E-1,2.103994340E-1
3.151485100E1,-3.542145789E-1,-1.283166111E-1,6.857398897E-2
3.153485100E1,-3.284709528E-2,-6.267477572E-2,-1.907819360E-1
3.155485100E1,3.022910357E-1,-1.585282534E-1,-4.318468273E-1
3.157485100E1,4.702266157E-1,-2.959729433E-1,-5.191830993E-1
3.159485100E1,4.976980984E-1,-3.827332556E-1,-4.149869382E-1
3.161685100E1,4.727573395E-1,-1.975189149E-1,-1.140572652E-1
3.163885100E1,4.327543974E-1,1.015781611E-1,9.632471949E-2
3.166084944E1,3.429397345E-1,2.290570140E-1,1.111425683E-1
3.168085100E1,1.803797781E-1,1.017526984E-1,1.236565784E-1
3.170285100E1,-1.016828790E-1,-1.273915768E-1,5.981243402E-2
3.172285100E1,-2.354100049E-1,1.926843449E-2,-1.539380383E-2
3.174485100E1,-1.231853366E-1,3.815464377E-1,6.599090248E-2
3.176485100E1,9.264207631E-2,3.356966376E-1,1.517912894E-1
3.178485100E1,1.739220619E-1,6.703809649E-2,1.011592820E-1
3.180485100E1,1.791580468E-1,6.817255914E-2,-1.932079531E-2
3.182685100E1,-8.908160776E-2,5.051332116E-1,-1.905899495E-2
3.184886975E1,-4.349709451E-1,2.841047049E-1,9.601055831E-2
3.187084944E1,-3.474950492E-1,-2.972121239E-1,1.900139898E-1
3.189085100E1,-2.086017579E-1,-4.772253633E-1,3.460115194E-1
3.191285256E1,-3.429397345E-1,9.272934496E-2,4.316548407E-1
3.193485100E1,-5.462008119E-1,4.122293293E-1,3.772703707E-1
3.195485100E1,-5.650852323E-1,2.118829638E-1,3.186098635E-1
3.197485256E1,-3.954567015E-1,-1.334478706E-1,4.101000130E-1
3.199685100E1,-2.894279361E-1,-2.421993464E-1,5.264785886E-1
3.201884944E1,-2.283239663E-1,-2.492504716E-1,4.390550256E-1
3.203885100E1,-9.171704948E-2,-1.861917228E-1,2.739817798E-1
3.206084944E1,1.318945289E-1,-1.203579083E-1,9.258971363E-2
3.208084944E1,4.170638621E-1,1.035154760E-1,1.487020496E-2
3.210085100E1,4.478863776E-1,4.298222363E-1,-4.623377323E-2
3.212085100E1,1.807812005E-1,6.201503873E-1,-2.145009674E-2
3.214085100E1,-1.869771183E-1,4.425456822E-1,1.154709831E-1
3.216285412E1,-3.611609936E-1,1.951627135E-1,2.784847319E-1
3.218485100E1,-1.756324768E-1,1.154884398E-1,2.830749452E-1
3.220485100E1,2.424436808E-1,-2.417281084E-2,-7.682939619E-2
3.222485100E1,6.045820713E-1,-2.830051482E-1,-5.518905520E-1
3.224684944E1,6.787585616E-1,-4.888318181E-1,-6.975731850E-1
3.226684944E1,4.577649534E-1,-4.767715931E-1,-5.761331916E-1
3.228684944E1,2.747497261E-1,-5.885424614E-1,-3.525215983E-1
3.230684944E1,2.615201473E-1,-7.258126140E-1,-3.031113446E-1
3.232685100E1,6.056292355E-2,-3.680375814E-1,-2.479414791E-1
3.234887131E1,-5.323254317E-2,-2.173632979E-1,-9.922196716E-2
3.237084944E1,2.688330710E-1,-3.222750425E-1,-2.437526882E-1
3.239085100E1,3.281742632E-1,-2.591464818E-1,-4.171511531E-1
3.241285100E1,-2.597049996E-2,-2.600540593E-2,-3.960326612E-1
3.243285412E1,-3.825587034E-1,2.989749052E-2,-1.747074574E-1
3.245485100E1,-4.990769029E-1,-3.099704720E-2,2.356194425E-3
3.247485100E1,-5.327792168E-1,-1.338842064E-1,3.721041977E-2
3.249485412E1,-6.112142801E-1,-3.458369970E-1,-1.166403517E-1
3.251685100E1,-6.236061454E-1,-3.714409769E-1,-2.069785893E-1
3.253685100E1,-4.574857056E-1,-6.850416958E-2,-1.862440854E-1
3.255685100E1,-1.338667572E-1,1.445481628E-1,-1.521403491E-1
3.257685100E1,1.574985087E-1,1.199913844E-1,-1.456128210E-1
3.259685100E1,2.585007250E-1,8.356636763E-2,-8.042477071E-2
3.261685100E1,2.345024347E-1,2.015157193E-1,-1.500983164E-2
3.263885100E1,2.678033113E-1,4.208337963E-1,3.841469809E-2
3.266084944E1,2.963743508E-1,3.506889939E-1,8.054694533E-2
3.268085100E1,2.718873918E-1,1.115963534E-1,1.100604609E-1
3.270285100E1,2.508212626E-1,-2.793050408E-1,5.527457595E-2
3.272285100E1,2.639985085E-1,-2.764776051E-1,-8.758062124E-2
3.274485100E1,9.049531817E-2,-1.433613449E-1,-1.419825405E-1
3.276686975E1,-1.776745170E-1,-4.057890549E-2,-3.556980938E-2
3.278885100E1,-4.534365237E-2,-8.504989743E-2,-1.159073189E-1
3.281085100E1,6.946410518E-3,1.746201962E-1,-1.691573113E-1
3.283285725E1,-3.810751736E-1,4.225442111E-1,5.059709400E-2
3.285485100E1,-4.405909181E-1,1.867502346E-3,1.805019528E-1
3.287485100E1,-7.705628872E-2,-3.018546999E-1,9.882054478E-2
3.289485100E1,3.204599023E-1,-1.540253013E-1,4.738568887E-2
3.291485100E1,3.998549283E-1,4.521275461E-1,-1.258382387E-2
3.293485100E1,-1.659808122E-2,1.096346021E0,8.775515109E-2
3.295485100E1,-4.454952776E-1,1.166054487E0,4.209210575E-1
3.297485100E1,-7.349232435E-1,5.477017760E-1,7.802668810E-1
3.299485100E1,-8.667479753E-1,-3.749141693E-1,9.933018088E-1
3.301485100E1,-6.614972353E-1,-9.276075959E-1,7.733728290E-1
3.303485100E1,-3.018023372E-1,-6.225938201E-1,3.589095175E-1
3.305485100E1,-4.002039880E-2,5.689773336E-2,1.182984188E-1
3.307684944E1,7.508406043E-2,2.127730846E-1,1.210385859E-1
3.309684944E1,8.388052136E-2,-4.618141055E-2,1.789835095E-1
3.311684944E1,2.809980186E-3,-2.068913281E-1,2.052856237E-1
3.313684944E1,-1.665044017E-2,-1.060287505E-1,9.717993438E-2
3.315684944E1,1.174955666E-1,-1.703441329E-2,-1.077915356E-1
3.317684944E1,3.775496185E-1,3.769911081E-2,-2.553940415E-1
3.319685881E1,6.158219576E-1,1.897172816E-2,-2.998999357E-1
3.321884944E1,7.528826594E-1,1.560324337E-2,-3.284535110E-1
3.323884944E1,6.632251143E-1,-4.450589418E-3,-3.024306595E-1
3.325884944E1,3.460115194E-1,-7.120943069E-2,-7.503170520E-2
3.327884944E1,8.203047514E-2,-3.922976553E-1,-4.656538367E-2
3.329885100E1,-8.677776903E-2,-4.716228545E-1,-8.033750206E-2
3.332085100E1,-4.095589519E-1,-6.021386012E-2,7.641051710E-2
3.334085100E1,-2.201558352E-1,2.096140385E-2,5.272639543E-2
3.336085100E1,2.431767285E-1,4.230678082E-2,-1.029046103E-1
3.338085100E1,4.348836839E-1,3.550872207E-1,-2.811725438E-1
3.340085100E1,2.227563709E-1,5.908114314E-1,-3.201631904E-1
3.342285100E1,-3.385938704E-1,4.432263672E-1,-1.245990545E-1
3.344484944E1,-6.198187470E-1,-1.460491568E-1,1.758768260E-1
3.346484944E1,-5.349957943E-1,-3.813893497E-1,3.154158890E-1
3.348484944E1,-3.549999595E-1,-9.827949107E-2,2.727077007E-1
3.350484944E1,-1.309695095E-1,2.821673751E-1,1.075297371E-1
3.352485100E1,3.443534672E-2,4.232772589E-1,5.787511915E-2
3.354684944E1,8.555603772E-2,3.587000668E-1,1.757022887E-1
3.356684944E1,1.515294909E-1,9.004153311E-2,1.838180721E-1
3.358684944E1,2.081828713E-1,-8.979719132E-2,1.438674927E-1
3.360684944E1,3.057467639E-1,5.338962004E-2,1.701521426E-1
3.362684944E1,3.454355597E-1,2.936865389E-1,2.640508711E-1
3.364684944E1,3.133215010E-1,1.863313466E-1,3.565184176E-1
3.366684944E1,2.818357646E-1,-1.337620318E-1,3.941476941E-1
3.368685100E1,3.097610474E-1,-2.980498672E-1,3.023782969E-1
3.370884944E1,2.269451618E-1,-1.255764365E-1,2.193529755E-1
3.372884944E1,-9.896016680E-3,3.138101846E-2,1.809382886E-1
3.374887444E1,-2.132792324E-1,-2.471735328E-1,6.455972791E-2
3.377084944E1,-2.673320770E-1,-4.630358517E-1,-1.073551998E-1
3.379084944E1,-4.107632339E-1,-1.986184716E-1,-1.148077548E-1
3.381084944E1,-7.758861184E-1,-5.166174378E-3,2.067342550E-1
3.383084944E1,-7.861486673E-1,-3.188018501E-1,5.548401475E-1
3.385084944E1,-4.118104279E-1,-6.261194348E-1,5.812993646E-1
3.387084944E1,-9.569640458E-2,-3.039839864E-1,2.940530777E-1
3.389084944E1,-1.319119781E-1,5.463404059E-1,6.867870688E-2
3.391084944E1,-2.747846246E-1,8.347386122E-1,1.112647429E-1
3.393084944E1,-3.136531115E-1,3.744952977E-1,3.069336116E-1
3.395085100E1,-4.286354184E-1,-2.560572624E-1,4.484449029E-1
3.397285569E1,-3.107384145E-1,-3.563962281E-1,3.735528290E-1
3.399484944E1,9.702285379E-2,-2.597049996E-2,1.432042718E-1
3.401485100E1,4.641005099E-1,2.062281072E-1,-4.991641641E-2
3.403485100E1,6.227858067E-1,2.607696354E-1,-5.054473504E-2
3.405485256E1,6.765943170E-1,2.896722853E-1,1.230980754E-1
3.407685100E1,5.500928760E-1,4.325274825E-1,3.540574908E-1
3.409685100E1,3.054849803E-1,4.312185049E-1,4.191233516E-1
3.411685100E1,8.545131981E-2,1.595929116E-1,3.259053230E-1
3.413885100E1,-1.853539608E-2,-3.426779509E-1,1.188220158E-1
3.416085100E1,3.691371530E-2,-6.114935279E-1,-8.820894361E-2
3.418085100E1,2.220058739E-1,-4.061904848E-1,-1.339365691E-1
3.420085100E1,4.473627806E-1,-5.000368133E-2,-1.268330812E-1
3.422085100E1,4.059286714E-1,1.439198554E-1,-3.080506064E-2
3.424085100E1,1.225395650E-1,9.601055831E-2,3.715806082E-2
3.426285100E1,-8.475318551E-2,-3.590142131E-1,-3.102497160E-1
3.428285569E1,-2.393020988E-1,-4.616046846E-1,-4.798782766E-1
3.430485100E1,-1.394343525E-1,-3.406708241E-1,-5.816833377E-1
3.432485100E1,3.519631028E-1,-3.865729868E-1,-6.541144848E-1
3.434485100E1,5.196194053E-1,-3.883357719E-2,-6.206565499E-1
3.436485100E1,2.465801090E-1,4.031710625E-1,-5.086936355E-1
3.438485100E1,-4.594230056E-1,6.808005571E-1,-2.446078956E-1
3.440485100E1,-9.831963181E-1,3.928561509E-1,-9.592329711E-2
3.442485100E1,-1.187888503E0,-9.211847931E-2,5.255186185E-2
3.444485100E1,-1.140153766E0,-5.618913174E-1,-5.415756628E-2
3.446485100E1,-8.512494564E-1,-7.020412087E-1,-3.683691919E-1
3.448485100E1,-3.264463842E-1,-7.534935474E-1,-7.259522676E-1
3.450485100E1,2.616248429E-1,-7.991862893E-1,-9.119868875E-1
3.452485100E1,5.715604424E-1,-8.142833710E-1,-9.134878516E-1
3.454685100E1,5.612978935E-1,-6.617590189E-1,-7.021459341E-1
3.456685100E1,4.224743843E-1,-1.914277077E-1,-3.431491852E-1
3.458685100E1,4.094716907E-1,1.805717647E-1,-1.766273193E-2
3.460885100E1,3.972893059E-1,2.107135952E-1,9.937904775E-2
3.463084944E1,2.713463306E-1,-1.129228063E-2,1.943424046E-1
3.465084944E1,2.413441241E-1,7.822565734E-2,2.067517042E-1
3.467085100E1,3.209834993E-1,5.545434356E-1,2.830575109E-1
3.469085100E1,2.216917276E-1,9.963037372E-1,3.892782331E-1
3.471085100E1,-1.692969352E-2,9.064890742E-1,4.645019174E-1
3.473284944E1,1.632580906E-1,-1.047197584E-4,2.686585188E-1
3.475286975E1,1.782155633E-1,-8.988445252E-2,1.058716699E-1
3.477485100E1,-2.600366175E-1,1.276359260E-1,1.901536286E-1
3.479485100E1,-2.599667907E-1,-8.501498401E-2,3.393618166E-1
3.481485100E1,1.980948634E-2,-1.868374944E-1,5.160065889E-1
3.483485100E1,-1.023984700E-1,2.849075496E-1,5.223596096E-1
3.485485100E1,-4.925493598E-1,7.967253327E-1,4.489161372E-1
3.487485100E1,-6.792472601E-1,5.216091275E-1,3.158173263E-1
3.489485100E1,-5.934817791E-1,-3.373197913E-1,3.213151097E-1
3.491485100E1,-4.421791732E-1,-8.619657755E-1,3.717376888E-1
3.493684944E1,-3.142290711E-1,-6.857049465E-1,4.516039491E-1
3.495685100E1,-1.282816976E-1,-3.418052793E-1,3.969227672E-1
3.497685100E1,1.080882400E-1,-1.999798268E-1,2.071182281E-1
3.499685412E1,2.685887218E-1,-3.565707505E-1,5.340707488E-3
3.501885100E1,2.709798217E-1,-4.432787299E-1,-8.779006451E-2
3.503885100E1,2.670528293E-1,-3.148050308E-1,-1.327497363E-1
3.506084944E1,2.446951568E-1,1.474803239E-1,-1.443212777E-1
3.508085100E1,3.290469348E-1,4.530874789E-1,-1.713738739E-1
3.510085100E1,4.003959894E-1,1.947089285E-1,-9.953612834E-2
3.512085100E1,3.692069352E-1,-2.304358184E-1,-8.332201838E-2
3.514085100E1,4.537506998E-1,-2.881538570E-1,-2.363699377E-1
3.516085100E1,5.548925400E-1,-1.305331737E-1,-2.627942264E-1
3.518085100E1,3.568674624E-1,-3.878121451E-2,-1.872563809E-1
3.520285100E1,2.363001257E-1,-3.491007686E-1,-4.021936655E-1
3.522285100E1,2.075545490E-1,-3.375292122E-1,-6.067985892E-1
3.524285100E1,-1.178446338E-1,-1.049640998E-1,-4.816585183E-1
3.526285100E1,-3.337244093E-1,7.599163800E-2,-1.253146380E-1
3.528285100E1,-8.920377493E-2,-8.831365965E-3,-3.080506064E-2
3.530285100E1,7.787659019E-2,-4.883431271E-2,-8.695230633E-2
3.532285100E1,-1.036551073E-1,8.909905702E-2,-1.582140923E-1
3.534285100E1,-4.052479863E-1,2.441715598E-1,-1.640085876E-1
3.536285256E1,-6.960198283E-1,3.125535548E-1,-7.314674556E-2
3.538485100E1,-7.415205836E-1,9.782570601E-2,-8.848818950E-3
3.540485100E1,-5.715778470E-1,1.192583442E-1,-8.004079759E-2
3.542485100E1,-2.530203760E-1,1.969080418E-1,-3.593632877E-1
3.544485100E1,4.389503226E-2,3.035825789E-1,-5.546307564E-1
3.546485100E1,2.006081492E-1,2.688330710E-1,-5.589940548E-1
3.548485100E1,2.534741759E-1,1.230806187E-1,-4.766843319E-1
3.550684944E1,3.285233378E-1,7.712610066E-2,-3.105813265E-1
3.552685100E1,3.673394322E-1,6.684610993E-2,-1.305506229E-1
3.554685100E1,2.684141994E-1,1.942027807E-1,3.600614145E-2
3.556685100E1,3.073524870E-2,4.418300986E-1,2.984687686E-1
3.558685100E1,-6.583382189E-2,5.463229418E-1,4.371526241E-1
3.560884944E1,-8.881980181E-2,7.106806040E-1,5.006302595E-1
3.562885100E1,-6.970845163E-2,8.092044592E-1,4.685510993E-1
3.564886975E1,-4.118977115E-2,7.074168324E-1,3.306177258E-1
3.567085100E1,-7.435102761E-2,2.968106866E-1,1.703790426E-1
3.569085100E1,1.298699528E-1,-1.632755548E-1,5.319763720E-2
3.571085100E1,1.693667471E-1,-1.571843475E-1,4.118977115E-2
3.573285100E1,-2.231927067E-1,-1.239881888E-1,2.632479966E-1
3.575285725E1,-4.238881171E-1,-2.834938169E-1,4.220555127E-1
3.577485100E1,-1.818633080E-1,-2.535788715E-1,3.063925505E-1
3.579485100E1,1.620189101E-1,7.119198143E-2,1.431170036E-3
3.581485100E1,1.744456589E-1,5.862910151E-1,-2.062630057E-1
3.583485100E1,-9.157742560E-2,6.813241839E-1,-1.077217236E-1
3.585485100E1,-3.400948644E-1,2.918016016E-1,2.928487957E-1
3.587485100E1,-5.088158250E-1,-2.302787453E-1,7.445749044E-1
3.589485100E1,-5.341056585E-1,-5.807757378E-1,8.471653461E-1
3.591485100E1,-3.002839088E-1,-5.897467732E-1,6.153158545E-1
3.593684944E1,3.104940802E-2,-3.496243656E-1,1.573763341E-1
3.595685100E1,2.167524397E-1,-1.155058891E-1,-8.798204362E-2
3.597685100E1,1.883384734E-1,7.164576650E-2,-1.651430577E-1
3.599685256E1,-7.941247895E-3,-1.019272301E-2,-2.409601510E-1
3.601884944E1,-1.319643408E-1,-2.215870023E-1,-3.190985322E-1
3.603885100E1,9.965829551E-3,-3.966260850E-1,-1.829454154E-1
3.606085100E1,4.002563655E-1,-3.833790123E-1,1.708502769E-1
3.608284944E1,6.336941719E-1,-2.041686177E-1,2.113942802E-1
3.610285100E1,5.741435289E-1,-1.933824830E-2,-5.969026126E-3
3.612285100E1,4.350756705E-1,7.531096041E-2,-2.913478017E-1
3.614285100E1,1.960877478E-1,2.472782433E-1,-4.280943573E-1
3.616285569E1,5.770058557E-2,1.728748679E-1,-4.813443422E-1
3.618485100E1,3.268652558E-1,-3.644770980E-1,-8.040208220E-1
3.620485100E1,3.322932422E-1,-6.064146757E-1,-9.307841063E-1
3.622485100E1,4.942772537E-2,-3.386462331E-1,-8.223118782E-1
3.624485100E1,8.628907800E-2,3.590142354E-2,-6.229777932E-1
3.626485100E1,2.775771618E-1,4.426329434E-1,-4.496491849E-1
3.628485100E1,1.419999897E-1,6.690894365E-1,-3.294658065E-1
3.630485100E1,-2.920284867E-1,6.268349886E-1,-1.320865154E-1
3.632485100E1,-7.366161942E-1,2.179567218E-1,8.550368249E-2
3.634485100E1,-9.040456414E-1,-2.659707367E-1,2.193180770E-1
3.636485100E1,-8.656833172E-1,-3.749490678E-1,2.302612811E-1
3.638485100E1,-6.603453159E-1,-1.384569705E-1,1.475675851E-1
3.640485100E1,-2.965838015E-1,1.202531811E-2,-1.121199504E-1
3.642485100E1,3.710569814E-2,-1.227315515E-1,-4.498935342E-1
3.644485100E1,2.784498334E-1,-2.949606478E-1,-7.072073817E-1
3.646485100E1,4.916766882E-1,-3.211580217E-1,-8.837649226E-1
3.648685100E1,6.027320027E-1,-1.148426607E-1,-7.828150988E-1
3.650885100E1,4.778711498E-1,2.932502329E-1,-3.876899779E-1
3.653085100E1,2.922030091E-1,4.400149584E-1,4.988151044E-2
3.655286506E1,2.528283894E-1,1.383522451E-1,2.744181156E-1
3.657485100E1,3.746698201E-1,-1.707455665E-1,2.760238349E-1
3.659485256E1,2.924124599E-1,-1.658237278E-1,2.260550410E-1
3.661685100E1,3.073524870E-2,-9.496336430E-2,2.503500283E-1
3.663885100E1,-5.675810575E-2,-1.898743659E-1,1.288576573E-1
3.665885100E1,-1.574985087E-1,-5.932199359E-1,-1.317549050E-1
3.668085100E1,-4.208686948E-1,-8.670446873E-1,-3.190810978E-1
3.670285100E1,-7.258126140E-1,-5.572138429E-1,-1.068316028E-1
3.672285100E1,-7.595847249E-1,-1.733461022E-1,2.342755497E-1
3.674285100E1,-4.049513042E-1,3.813544288E-2,3.756821156E-1
3.676285100E1,5.810201168E-2,1.404291838E-1,1.137780100E-1
3.678285569E1,3.275459409E-1,3.335324228E-1,-4.321435094E-1
3.680485100E1,9.501572698E-2,7.669151425E-1,-6.297671795E-1
3.682485100E1,-3.140196502E-1,9.495114684E-1,-2.403492928E-1
3.684485100E1,-5.878617764E-1,7.972489595E-1,5.224992037E-1
3.686485100E1,-5.126206279E-1,3.811450005E-1,9.926909208E-1
3.688485100E1,-2.605078518E-1,-1.141619831E-1,9.225112200E-1
3.690685100E1,-5.276130140E-2,-4.954291582E-1,5.060058832E-1
3.692685100E1,6.597344577E-2,-3.156078756E-1,2.254441828E-1
3.694685100E1,2.608045638E-1,-5.813691765E-2,9.449212253E-2
3.696685100E1,3.565882146E-1,-9.424778074E-2,2.569124661E-2
3.698685412E1,1.926668882E-1,-4.388805032E-1,-7.948229462E-2
3.700885100E1,-1.242674440E-1,-9.535955191E-1,-2.887996435E-1
3.703085100E1,-8.679522574E-2,-1.149630904E0,-5.316098332E-1
3.705085100E1,3.486295044E-1,-8.355938196E-1,-6.251943707E-1
3.707285256E1,7.017445564E-1,-3.577052355E-1,-6.582159996E-1
3.709485100E1,7.986626625E-1,1.032013148E-1,-6.934018731E-1
3.711485100E1,7.339982390E-1,4.011813700E-1,-5.680697560E-1
3.713485100E1,5.715778470E-1,4.042706192E-1,-3.779859543E-1
3.715485100E1,4.689699709E-1,-4.932300374E-2,-4.001865387E-1
3.717485100E1,2.565110326E-1,-4.997575879E-1,-4.051258266E-1
3.719685100E1,-2.073625624E-1,-4.909262061E-1,-1.255415380E-1
3.721885100E1,-2.835811079E-1,-1.660331786E-1,9.737192094E-2
3.724085100E1,-1.296081543E-1,1.775523424E-1,7.054620981E-2
3.726285100E1,-1.883908361E-1,3.147526681E-1,-2.752384171E-2
3.728285100E1,-4.902629852E-1,1.969604045E-1,-1.081056967E-1
3.730285100E1,-8.381594419E-1,-3.575830460E-1,-5.729915947E-2
3.732285100E1,-1.040844560E0,-5.231449604E-1,2.276258469E-1
3.734285100E1,-7.823961973E-1,-1.153662652E-1,3.426430523E-1
3.736285100E1,-2.671051919E-1,4.646066427E-1,9.283406287E-2
3.738285256E1,1.673072577E-1,8.400793076E-1,-2.058092207E-1
3.740285256E1,5.124635696E-1,8.294502497E-1,-3.993313313E-1
3.742484944E1,8.266403079E-1,6.288246512E-1,-4.702440500E-1
3.744485100E1,7.838448286E-1,5.033878684E-1,-2.984513044E-1
3.746685100E1,5.760807991E-1,5.515589714E-1,8.749335259E-2
3.748685100E1,5.724854469E-1,4.453382194E-1,2.699849904E-1
3.750884944E1,5.410695076E-1,2.227389216E-1,2.223549485E-1
3.752884944E1,4.705756605E-1,-2.099980116E-1,6.703809649E-2
3.754886975E1,2.822372019E-1,-2.263343036E-1,-4.194026068E-2
3.757085100E1,1.267109066E-2,3.097435832E-1,4.862487316E-2
3.759085100E1,-1.342507303E-1,5.596922040E-1,2.280970812E-1
3.761085100E1,-6.696828455E-2,-5.836381018E-2,1.955466866E-1
3.763285725E1,1.680926532E-1,-9.304175973E-1,6.352998316E-3
3.765485100E1,3.694862127E-2,-7.936710119E-1,6.283185212E-4
3.767485100E1,-5.155178905E-1,-4.433136433E-2,2.617819309E-1
3.769485100E1,-7.318339944E-1,6.976080686E-2,5.953492522E-1
3.771485100E1,-4.353200197E-1,-1.870818436E-1,6.073222160E-1
3.773485100E1,-1.002342552E-1,-3.276332021E-1,2.867052257E-1
3.775485100E1,-1.395739764E-1,6.819001585E-2,-1.014210805E-1
3.777485100E1,-3.246836066E-1,2.504198253E-1,-1.646194607E-1
3.779485100E1,-3.830997646E-1,1.162389293E-1,1.201135591E-1
3.781485100E1,-4.041484296E-1,-1.390503794E-1,5.667782426E-1
3.783485100E1,-4.353025556E-1,-1.390503794E-1,8.169537187E-1
3.785684944E1,-3.559598923E-1,-1.065523475E-1,6.988647580E-1
3.787685100E1,-1.593136489E-1,-9.599310905E-2,4.495269954E-1
3.789685100E1,1.394518092E-2,-1.144936010E-1,3.279124498E-1
3.791685100E1,4.366813600E-2,-1.315978263E-2,3.741985857E-1
3.793885100E1,-1.106538717E-2,2.421120703E-1,5.240874887E-1
3.796085100E1,-9.883799404E-2,4.230503440E-1,5.939180851E-1
3.798085100E1,-1.879021525E-1,4.245513380E-1,5.722759962E-1
3.800085100E1,-1.874483675E-1,3.226764798E-1,4.565432370E-1
3.802284944E1,-1.311789453E-1,3.080680668E-1,3.369881809E-1
3.804285100E1,3.766420484E-2,3.891386092E-1,2.031214237E-1
3.806285100E1,2.571044564E-1,3.001791835E-1,-4.281292483E-2
3.808285100E1,3.850196302E-1,-3.480186686E-2,-2.385341525E-1
3.810285100E1,2.700896859E-1,-3.171612322E-1,-3.362900317E-1
3.812285100E1,2.017600648E-2,-3.466223776E-1,-4.113391936E-1
3.814285100E1,-2.556383610E-1,-1.766273193E-2,-2.300867587E-1
3.816285256E1,-2.730567753E-1,2.053030729E-1,-7.120943163E-3
3.818485100E1,1.303761005E-1,-8.965755999E-2,-1.023286507E-1
3.820485100E1,5.527981520E-1,-5.077337027E-1,-4.282339811E-1
3.822485100E1,5.885948539E-1,-3.854559660E-1,-6.660001874E-1
3.824485256E1,2.668084800E-1,-2.097362131E-1,-6.666634083E-1
3.826685100E1,-3.360107839E-1,-1.148775741E-1,-2.391624600E-1
3.828885100E1,-6.836454868E-1,-3.051882684E-1,2.697930038E-1
3.830885100E1,-7.235785723E-1,-3.559598923E-1,3.838153481E-1
3.832885100E1,-5.567774773E-1,-3.326772153E-1,2.056172341E-1
3.834886975E1,-1.671676338E-1,-1.827185154E-1,-1.350186765E-1
3.837084944E1,3.213500082E-1,-1.411447823E-1,-4.964763522E-1
3.839085100E1,4.167846143E-1,1.003564335E-2,-5.514891148E-1
3.841285100E1,2.354449183E-1,5.754350498E-2,-2.883633077E-1
3.843286194E1,1.238834709E-1,1.450019479E-1,6.660176069E-2
3.845485100E1,1.526639462E-1,1.868724078E-1,2.330363542E-1
3.847485100E1,2.011666447E-1,7.208209485E-2,2.508212626E-1
3.849485100E1,2.237163037E-1,6.314601004E-2,2.286381274E-1
3.851485100E1,2.047794759E-1,3.190287352E-1,3.286629617E-1
3.853485100E1,1.591914743E-1,6.561216116E-1,5.293234587E-1
3.855485100E1,1.990373433E-1,5.557477474E-1,7.459886074E-1
3.857485100E1,1.924574524E-1,6.839945167E-2,9.264032841E-1
3.859485100E1,3.497639671E-2,-5.137900114E-1,8.970468640E-1
3.861485100E1,-2.199987471E-1,-4.625995159E-1,7.661646605E-1
3.863485100E1,-2.586054206E-1,8.735372871E-2,5.813866258E-1
3.865485100E1,-7.086036727E-3,7.499155998E-1,3.285407722E-1
3.867485100E1,1.102175415E-1,1.142300487E0,1.062905490E-1
3.869485100E1,-6.988298148E-2,1.009568214E0,1.763829738E-1
3.871485100E1,-3.887546360E-1,3.635695279E-1,4.811523557E-1
3.873485100E1,-5.587322712E-1,-2.314830124E-1,7.674911022E-1
3.875685100E1,-3.760660887E-1,-3.844262064E-1,8.164126873E-1
3.877685100E1,-7.698646933E-2,-2.862339914E-1,6.674836874E-1
3.879685100E1,1.511280537E-1,-7.253587991E-2,4.835783839E-1
3.881884944E1,1.857030392E-1,-6.904522330E-2,3.748269081E-1
3.883884944E1,6.944665313E-2,-5.234242231E-2,3.904476166E-1
3.885885100E1,2.823942713E-2,2.295107953E-2,3.652799726E-1
3.888084944E1,1.011767387E-1,5.763076991E-2,1.993515044E-1
3.890085100E1,2.869146764E-1,7.452555932E-3,1.054178830E-2
3.892285100E1,5.352051854E-1,-7.569492608E-2,-2.652376890E-1
3.894285100E1,6.796835661E-1,-8.833111078E-2,-4.641179442E-1
3.896285100E1,7.040483356E-1,-8.731882274E-2,-5.813168287E-1
3.898285412E1,6.131166816E-1,-1.396088898E-1,-6.623349786E-1
3.900485100E1,4.085641205E-1,-1.580744684E-1,-7.369129062E-1
3.902485100E1,-1.252622753E-1,1.898220032E-1,-5.337914824E-1
3.904485100E1,-6.367484927E-1,4.328416586E-1,-1.403070241E-1
3.906485100E1,-4.081103504E-1,1.060811132E-1,-1.000597253E-1
3.908485100E1,1.908692122E-1,-2.826386094E-1,-4.494397342E-1
3.910485100E1,3.036698401E-1,-4.408701509E-2,-6.564008594E-1
3.912685100E1,-1.120326817E-1,-1.105491519E-1,-4.920432270E-1
3.914886975E1,-6.808704138E-1,-4.088084698E-1,-4.543092102E-2
3.917085100E1,-8.625766039E-1,-6.726499200E-1,3.521550894E-1
3.919287288E1,-7.140840292E-1,-6.729815006E-1,3.282266259E-1
3.921485100E1,-3.660129905E-1,-4.888143539E-1,-2.455678210E-2
3.923485100E1,-6.499606371E-2,-1.885828227E-1,-4.489684999E-1
3.925485100E1,1.979203373E-1,-1.060985625E-1,-6.289992332E-1
3.927485100E1,3.613704145E-1,-1.513375044E-1,-6.231523752E-1
3.929485100E1,3.793123960E-1,-9.419541806E-2,-5.028468370E-1
3.931485100E1,3.184702396E-1,1.955466866E-1,-3.517711163E-1
3.933685100E1,2.588672340E-1,5.067563653E-1,-2.284286916E-1
3.935885100E1,2.263343036E-1,4.370304346E-1,-2.360034138E-1
3.938084944E1,2.069262415E-1,2.208888680E-1,-2.057568580E-1
3.940085100E1,9.484118968E-2,1.425061375E-1,-1.182635128E-1
3.942285100E1,5.218534265E-3,1.289100200E-1,-1.435184181E-1
3.944285569E1,-2.612757869E-2,-1.728748679E-1,-2.637017965E-1
3.946485100E1,-5.324999616E-2,-4.413239658E-1,-4.547455311E-1
3.948485100E1,-1.228711754E-1,-5.923821926E-1,-5.459040999E-1
3.950485100E1,-1.687209755E-1,-5.324475765E-1,-5.640205741E-1
3.952485100E1,-1.886700988E-1,-1.121897623E-1,-3.767642379E-1
3.954685100E1,-1.822123677E-2,2.981894910E-1,-1.728399545E-1
3.956685881E1,2.768790424E-1,1.351757497E-1,-1.396961510E-1
3.958885100E1,3.088185489E-1,1.249830276E-1,-2.722888291E-1
3.960885100E1,2.083923109E-2,5.311560631E-1,-3.429223001E-1
3.963084944E1,-3.324154019E-1,9.011833072E-1,-1.637467891E-1
3.965085100E1,-3.545112908E-1,7.441909313E-1,1.333431602E-1
3.967085100E1,-2.998301089E-1,2.759714723E-1,4.199087620E-1
3.969085100E1,-3.105464280E-1,-1.323483139E-1,5.413662195E-1
3.971284944E1,-3.183131516E-1,-3.227113783E-1,3.894702196E-1
3.973285100E1,-1.924050897E-1,-2.007477731E-1,1.230631620E-1
3.975285881E1,-4.981169850E-2,7.009242475E-2,-5.733406544E-2
3.977485100E1,4.401720315E-2,2.030690610E-1,-7.492698729E-2
3.979485100E1,3.879866749E-2,2.745926380E-1,-1.008625776E-1
3.981485100E1,-1.401499379E-2,3.299545050E-1,-9.356710315E-2
3.983485100E1,-4.670501128E-2,4.005530477E-1,-1.450368613E-1
3.985684944E1,3.906046972E-2,4.025776386E-1,-2.228087336E-1
3.987685100E1,2.893930376E-1,2.305405438E-1,-3.985110223E-1
3.989685725E1,5.271418095E-1,4.986405745E-2,-6.232745051E-1
3.991884944E1,5.526061654E-1,-3.790855035E-2,-6.814637780E-1
3.993885100E1,3.721565604E-1,-3.333578818E-3,-5.418898463E-1
3.995885100E1,2.006430477E-1,-2.527236752E-2,-4.482180178E-1
3.997885100E1,3.565009534E-1,-1.770461947E-1,-6.456496716E-1
3.999885100E1,4.140444696E-1,-2.601413131E-1,-8.243015409E-1
4.002084944E1,-3.431317210E-2,6.318091881E-3,-6.650227904E-1
4.004085100E1,-1.500110477E-1,1.480039209E-2,-4.739616215E-1
4.006285100E1,8.131489158E-2,-1.552470326E-1,-5.125159621E-1
4.008285413E1,-4.874704406E-2,2.860594541E-2,-5.552765131E-1
4.010286194E1,-4.179365337E-1,2.896373868E-1,-4.457047284E-1
4.012485100E1,-6.077061892E-1,7.335618883E-2,-3.190112710E-1
4.014685100E1,-5.283285975E-1,-4.162959456E-1,-2.018996924E-1
4.016686819E1,-4.179888964E-1,-6.505889297E-1,-1.409178823E-1
4.018885100E1,-2.669132054E-1,-6.123661995E-1,-2.179392576E-1
4.021084944E1,-2.085668407E-2,-2.755002081E-1,-3.225892186E-1
4.023084944E1,1.921083927E-1,4.572762642E-3,-3.631157577E-1
4.025085100E1,3.106860518E-1,-6.649704650E-3,-4.231899679E-1
4.027085100E1,3.316649199E-1,-1.069537774E-1,-4.236786664E-1
4.029085100E1,2.289522886E-1,-2.150245570E-2,-2.679603994E-1
4.031085100E1,1.358738840E-1,3.417529166E-1,-1.099557430E-2
4.033085100E1,1.392249167E-1,6.384589076E-1,1.883733869E-1
4.035285100E1,2.321985960E-1,4.433659911E-1,2.979277074E-1
4.037285100E1,2.191609889E-1,1.337794811E-1,3.369532526E-1
4.039288069E1,7.993607782E-3,1.287180334E-1,3.253817260E-1
4.041485100E1,-2.463532239E-1,1.632231921E-1,2.079385221E-1
4.043485100E1,-2.896373868E-1,-1.638864167E-2,2.160717547E-2
4.045485256E1,-1.780235767E-2,-3.859272003E-1,-2.353227437E-1
4.047685100E1,6.326818466E-2,-2.367539108E-1,-2.241177261E-1
4.049885100E1,-2.997952104E-1,8.426449448E-2,-1.033234876E-2
4.052084944E1,-3.678979576E-1,-2.354798168E-1,8.976228535E-2
4.054085100E1,-8.895943314E-2,-5.663070083E-1,-9.512044489E-3
4.056285100E1,2.967059612E-1,-4.810301960E-1,-3.323630393E-1
4.058285100E1,4.217064381E-1,2.286381321E-3,-5.628512502E-1
4.060285100E1,2.491981089E-1,3.597472608E-1,-5.890486240E-1
4.062285412E1,-1.758244634E-1,3.312111199E-1,-2.637890577E-1
4.064484944E1,-6.061004996E-1,-2.921681106E-2,4.414635897E-1
4.066485100E1,-6.509031057E-1,-4.773300886E-1,8.002334833E-1
4.068485100E1,-3.677408695E-1,-6.374465823E-1,6.701714993E-1
4.070485100E1,-1.488765888E-2,-3.990869820E-1,2.638414204E-1
4.072485100E1,1.962971836E-1,-5.057964101E-2,-2.862340072E-3
4.074485100E1,1.916371584E-1,8.335692436E-2,5.258677155E-2
4.076485100E1,4.326671362E-2,1.808684766E-1,2.040464431E-1
4.078485100E1,-3.907792270E-2,1.092401594E-1,3.619289398E-1
4.080485100E1,-5.096361507E-3,8.084364980E-2,4.042182565E-1
4.082685100E1,1.360309571E-1,1.408480667E-2,3.366914690E-1
4.084685100E1,2.403492928E-1,-1.051386371E-1,1.290147305E-1
4.086884944E1,2.807885706E-1,-2.738770545E-1,-2.022662014E-1
4.088884944E1,2.623404264E-1,-2.158448696E-1,-3.877074420E-1
4.090884944E1,2.573138773E-1,-8.587019891E-2,-4.671024680E-1
4.092885100E1,2.594955564E-1,-1.293114424E-1,-6.151238680E-1
4.094886975E1,3.288374841E-1,-2.835811079E-1,-7.910006642E-1
4.097085100E1,-5.602506921E-3,2.712241560E-2,-6.159266829E-1
4.099286038E1,-3.826285303E-1,2.564412355E-1,-1.176351905E-1
4.101485100E1,-1.683719158E-1,5.497787148E-3,-5.775294453E-2
4.103485100E1,2.316226512E-1,-2.948733866E-1,-3.593807518E-1
