"Time (s)","Acceleration x (m/s^2)","Acceleration y (m/s^2)","Acceleration z (m/s^2)"
0.000000000E0,-4.859415531E0,4.005288601E0,8.475224495E0
2.199687500E-2,-2.926202774E0,2.574599981E0,9.213108063E0
4.199687500E-2,-2.238502026E0,2.274347782E0,9.819081306E0
6.199687500E-2,-2.787913799E0,2.332258940E0,1.021324348E1
8.199843700E-2,-3.701713562E0,2.394517899E0,1.036956501E1
1.020031250E-1,-3.965841770E0,3.086968660E0,9.343296051E0
1.239968750E-1,-3.611662865E0,3.525912046E0,9.104468346E0
1.439968750E-1,-2.448961973E0,3.243281603E0,8.772910118E0
1.639968750E-1,-1.536809325E0,3.005422115E0,8.288276672E0
1.840015620E-1,-1.271512747E0,2.686658144E0,7.902627945E0
2.059968750E-1,-1.450014830E0,2.536407709E0,8.265521049E0
2.260000000E-1,-1.499421477E0,2.343243361E0,9.040735245E0
2.479968750E-1,-1.220583081E0,2.363460302E0,9.808612823E0
2.680015620E-1,-1.211983204E0,2.345273733E0,1.011372089E1
2.899968750E-1,-1.398472428E0,2.272997618E0,9.567575455E0
3.100062500E-1,-1.622445226E0,2.453300238E0,9.034749985E0
3.319968750E-1,-1.050029755E0,2.684139490E0,8.433565140E0
3.519984370E-1,-2.631036043E-1,2.642997503E0,8.277051926E0
3.739968750E-1,1.325142831E-1,2.559842110E0,7.988991261E0
3.939968750E-1,-2.725559175E-1,2.444968224E0,8.576547623E0
4.139968750E-1,-6.919817328E-1,2.409055471E0,8.945838928E0
4.340015620E-1,-7.353455424E-1,2.484750509E0,9.137681961E0
4.559968750E-1,-5.653859377E-1,2.606519461E0,9.179043770E0
4.760031250E-1,-6.620925069E-1,2.646636724E0,8.894181252E0
4.979984370E-1,-1.026288986E0,2.656242132E0,9.006585121E0
5.180000000E-1,-8.591544628E-1,2.409974575E0,9.349261284E0
5.399984370E-1,-6.471239328E-1,2.320431709E0,9.577304840E0
5.619968750E-1,-7.022289634E-1,2.610579967E0,9.825018883E0
5.819968750E-1,-1.415432811E0,2.956446648E0,9.843253136E0
6.019968750E-1,-1.435802698E0,2.525959492E0,9.692475319E0
6.219968750E-1,-1.182601571E0,1.606835008E0,8.661781311E0
6.419968750E-1,-1.699797034E0,9.039452076E-1,1.014931870E1
6.619968750E-1,-2.466238499E0,1.515587211E0,1.110241127E1
6.819968750E-1,-1.866711140E0,1.011837482E0,1.051690388E1
7.019968750E-1,-1.967784762E0,6.477464437E-1,9.502490997E0
7.219968750E-1,-3.045941591E0,1.080388308E0,8.314008713E0
7.420000000E-1,-3.516603470E0,9.057456851E-1,7.702156067E0
7.639968750E-1,-3.280113697E0,6.260741353E-1,8.031263351E0
7.839968750E-1,-1.913398027E0,3.606146574E-1,7.955271721E0
8.039968750E-1,-1.511287093E0,4.519486725E-1,8.337682724E0
8.239968750E-1,-1.832589030E0,6.460226178E-1,8.259976387E0
8.439968750E-1,-1.703436136E0,3.924096823E-1,9.053299904E0
8.639968750E-1,-1.793400764E0,-1.226310134E-1,9.413139343E0
8.839968750E-1,-2.041736841E0,-5.338112265E-2,9.968584061E0
9.039984370E-1,-1.570270777E0,3.273927271E-1,9.356195450E0
9.240031250E-1,-2.774305046E-1,3.980599642E-1,8.867270470E0
9.459968750E-1,-1.289708614E-1,8.203971386E-1,8.724460602E0
9.660000000E-1,-2.785892971E-2,5.213900805E-1,9.095936775E0
9.879953120E-1,-3.385784328E-1,2.876585424E-1,9.827383995E0
1.007998437E0,-6.468175054E-1,-6.839468479E-1,1.022926426E1
1.027998437E0,-3.192811608E-1,-7.861505151E-1,1.100383663E1
1.048003125E0,4.203356206E-1,-1.671028376E0,1.145940590E1
1.069998437E0,1.876603961E0,-2.361401081E0,1.173664474E1
1.090000000E0,1.479080319E0,-2.429731607E0,1.053772449E1
1.111996875E0,3.928884864E-1,-3.272538662E0,1.007991505E1
1.132001562E0,8.423663378E-1,-5.667506218E0,1.398578739E1
1.153996875E0,2.204964012E-1,-2.947358131E0,9.559060097E0
1.173996875E0,5.578777194E-1,-2.694597483E0,1.028888130E1
1.193996875E0,1.368429810E-1,-3.207559824E0,1.010477638E1
1.213998437E0,-1.587039709E0,-2.509918213E0,1.088579369E1
1.235996875E0,-2.615406752E0,-2.002577305E0,1.093149376E1
1.255996875E0,-2.115583658E0,-1.899042487E0,9.309460640E0
1.275996875E0,-1.034476995E0,-1.447860003E0,9.251970291E0
1.295996875E0,-3.040636182E-1,-7.377972007E-1,9.504109383E0
1.315996875E0,3.469677269E-1,-7.359584570E-1,7.581766605E0
1.335996875E0,7.599483728E-1,-1.234766483E0,7.478451729E0
1.356004687E0,1.267777681E-1,-1.251027822E0,8.059304237E0
1.377998437E0,-9.162993431E-1,-1.329672575E0,8.107628822E0
1.399996875E0,-1.965218306E0,-1.261773109E0,8.208625793E0
1.419998437E0,-2.490410328E0,-3.567360640E-1,8.357382774E0
1.441998437E0,-2.370058537E0,8.522208929E-1,8.257639885E0
1.461998437E0,-1.674274802E0,7.889469266E-1,7.634171009E0
1.483998437E0,-1.377738476E0,7.344070077E-1,7.901986122E0
1.504006250E0,-1.909375906E0,7.023534775E-1,8.103634834E0
1.525996875E0,-2.391759634E0,8.018564582E-1,7.973170280E0
1.546001562E0,-2.493398190E0,7.078983784E-1,8.062129021E0
1.567998437E0,-2.183090687E0,8.157332540E-1,8.719088554E0
1.588004687E0,-1.753034472E0,7.557632923E-1,9.444742203E0
1.609996875E0,-1.540879488E0,8.200332522E-1,1.086493587E1
1.630000000E0,-1.273044944E0,-5.161899142E-3,1.161909962E1
1.651996875E0,-8.031780124E-1,-5.287642479E-1,1.175426674E1
1.672000000E0,-2.041392177E-1,-9.119705558E-1,1.107279968E1
1.693996875E0,7.517505884E-1,-1.330687761E0,9.921543121E0
1.713996875E0,1.085090518E0,-1.615205050E0,9.903519630E0
1.733996875E0,1.614170820E-1,-1.786151171E0,1.039889908E1
1.753996875E0,-1.414398551E0,-1.913062811E0,1.167475986E1
1.773996875E0,-2.619907856E0,-1.832320929E0,1.068721867E1
1.793998437E0,-3.231032610E0,-1.484950900E0,9.696468353E0
1.815996875E0,-2.932082891E0,-1.007882357E0,9.384754181E0
1.835996875E0,-2.112423420E0,-7.882478237E-1,9.229340553E0
1.855996875E0,-1.626352549E0,-7.208462358E-1,8.971044540E0
1.875996875E0,-1.890011549E0,-3.623001575E-1,8.909744263E0
1.895996875E0,-2.199878693E0,-2.063514590E-1,8.680886269E0
1.915996875E0,-2.505177736E0,-2.922841534E-2,8.414852142E0
1.936001562E0,-2.510387421E0,2.622991502E-1,8.087077141E0
1.957996875E0,-2.171904802E0,3.046860993E-1,7.816551208E0
1.978006250E0,-1.835289717E0,4.467388988E-1,7.550871372E0
1.999996875E0,-1.726008773E0,3.619075418E-1,7.164419174E0
2.020001562E0,-1.876460314E0,2.946113050E-1,7.134059906E0
2.041996875E0,-2.080810308E0,2.487862855E-1,7.392786980E0
2.061998437E0,-2.140531301E0,1.195281222E-1,7.616204739E0
2.083996875E0,-2.027438641E0,-3.832638264E-2,8.000741959E0
2.103996875E0,-2.115181446E0,-2.756875157E-1,8.308770180E0
2.123996875E0,-2.123762131E0,-2.793937624E-1,8.845043182E0
2.143996875E0,-1.817112923E0,-6.124272346E-1,9.910472870E0
2.163996875E0,-1.085799217E0,-1.000919938E0,1.105492973E1
2.183996875E0,-5.398637652E-1,-1.127439260E0,1.160405350E1
2.203996875E0,-4.673385918E-1,-1.092081547E0,1.170726395E1
2.223996875E0,-4.063056111E-1,-9.004784226E-1,1.134808540E1
2.243996875E0,8.234713078E-1,-1.361611247E0,1.144288540E1
2.263996875E0,1.234737635E0,-1.655762792E0,1.181251240E1
2.283996875E0,7.939651608E-1,-8.135880828E-1,1.258172131E1
2.303996875E0,3.389902413E-1,-1.350693703E0,1.270836544E1
2.323996875E0,-1.575289071E-1,-1.081135273E0,1.164895058E1
2.344003125E0,3.591398299E-1,-4.584608972E-1,1.036869335E1
2.365996875E0,1.521831155E0,-5.250005722E-1,9.561885834E0
2.386003125E0,1.766633511E0,1.366610229E-1,8.670620918E0
2.407996875E0,1.467434883E0,3.934056461E-1,7.860710144E0
2.427996875E0,7.834594250E-1,3.512485325E-1,7.491495609E0
2.447996875E0,-2.281195484E-2,3.367683887E-1,7.477560997E0
2.468004687E0,-6.679631472E-1,4.845672548E-1,7.749494553E0
2.489998437E0,-9.734824300E-1,7.230871916E-1,8.011114120E0
2.509998437E0,-6.746860147E-1,8.016648889E-1,8.006517410E0
2.529998437E0,-4.430039227E-1,7.631661296E-1,8.069561005E0
2.549998437E0,-5.901036859E-1,7.675906420E-1,8.123488426E0
2.569998437E0,-6.405734420E-1,6.087688804E-1,8.681202888E0
2.592003125E0,-8.381621242E-1,4.439137280E-1,9.266748428E0
2.613996875E0,-1.279988170E0,5.822889805E-1,9.791767120E0
2.634003125E0,-1.342227817E0,7.258070111E-1,1.003934765E1
2.655996875E0,-1.141009569E0,7.325586677E-1,1.018080711E1
2.676000000E0,-9.735973477E-1,5.254123807E-1,1.055646610E1
2.697996875E0,-8.155800104E-1,4.341166839E-2,1.106896019E1
2.718000000E0,-8.899438977E-1,-3.606912792E-1,1.152870369E1
2.739996875E0,-1.318649650E0,-4.084220827E-1,1.175749302E1
2.759996875E0,-1.371599913E0,-6.528509408E-2,1.135902119E1
2.779996875E0,-7.656849027E-1,-5.609135628E-1,1.129461861E1
2.800001562E0,-8.334982395E-1,-6.891948581E-1,1.151660824E1
2.821996875E0,-1.811108232E0,-9.085516334E-1,1.178154087E1
2.841998437E0,-2.711098194E0,-1.196918964E0,1.162006664E1
2.863996875E0,-3.257761478E0,-1.232180715E0,1.069078159E1
2.884004687E0,-3.079920053E0,-7.254622579E-1,9.922511101E0
2.905996875E0,-1.992061973E0,-5.822698474E-1,9.450660706E0
2.925996875E0,-1.212615252E0,-3.649816811E-1,9.475809097E0
2.945996875E0,-1.287017465E0,-3.120985627E-1,9.524268150E0
2.965996875E0,-1.592115402E0,-3.261285722E-1,9.215100288E0
2.985996875E0,-1.827053547E0,-9.522219002E-2,8.538919449E0
3.005998437E0,-1.634789705E0,1.574427038E-1,8.141770363E0
3.027996875E0,-1.089859724E0,2.727378905E-1,7.861265659E0
3.047996875E0,-5.548036098E-1,2.389221787E-1,7.490623951E0
3.067996875E0,-3.500131369E-1,3.130849600E-1,7.108576298E0
3.087996875E0,-3.084785044E-1,2.358767539E-1,6.771252632E0
3.108000000E0,-2.943335772E-1,2.931460552E-2,6.764021873E0
3.129996875E0,-3.436158001E-1,-1.782243848E-1,7.156546593E0
3.150000000E0,-5.800767541E-1,-3.466708362E-1,7.538393021E0
3.171996875E0,-9.160407186E-1,-4.528680444E-1,7.978102684E0
3.191996875E0,-9.671138525E-1,-5.419514775E-1,8.487999916E0
3.211996875E0,-6.144575477E-1,-6.649847627E-1,9.145390511E0
3.232001562E0,-4.420462251E-1,-5.240332484E-1,9.736509323E0
3.253998437E0,-5.847023726E-1,-2.120113522E-1,1.004312992E1
3.275996875E0,-6.714299321E-1,1.815283597E-1,9.966218948E0
3.295996875E0,6.522762775E-2,2.170296013E-1,9.601630211E0
3.315996875E0,1.127726436E0,-2.305616289E-1,1.021402836E1
3.335996875E0,1.359533072E0,3.861751854E-1,1.155897522E1
3.356004687E0,1.700160861E0,-2.819603682E-1,1.334057808E1
3.377998437E0,1.030167460E0,-5.995559692E-1,1.324024200E1
3.399996875E0,1.596453600E-2,-2.501462027E-2,1.167565060E1
3.419998437E0,-2.268745601E-1,6.172252074E-2,1.019836044E1
3.440001562E0,-2.027888745E-1,4.546110332E-1,9.451675415E0
3.461996875E0,3.509133458E-1,2.375239581E-1,8.995369911E0
3.481998437E0,4.170986712E-1,3.001849949E-1,8.408532143E0
3.503996875E0,-1.488235779E-2,4.892503321E-1,7.542721748E0
3.523996875E0,-4.429560602E-1,4.902750552E-1,7.214266300E0
3.543998437E0,-8.268040419E-1,6.442030668E-1,7.431707382E0
3.563998437E0,-9.937756062E-1,6.591141224E-1,7.904552937E0
3.585996875E0,-9.670467973E-1,5.403808951E-1,8.141635895E0
3.606003125E0,-1.374290943E0,6.355743408E-1,8.619346619E0
3.627998437E0,-1.688534617E0,5.488851070E-1,9.427810669E0
3.648000000E0,-1.780500770E0,4.930619001E-1,1.007403374E1
3.668000000E0,-2.085502863E0,5.674737096E-1,1.029697227E1
3.689996875E0,-2.618375540E0,1.012747288E0,1.048402691E1
3.709996875E0,-2.713588238E0,1.398443580E0,1.076748180E1
3.730004687E0,-1.933078527E0,1.437411666E0,1.106760979E1
3.751996875E0,-7.138168812E-1,1.233885407E0,1.168028545E1
3.771998437E0,-4.741477221E-2,1.221406698E0,1.245542240E1
3.793996875E0,-9.535626322E-2,9.588011503E-1,1.293920422E1
3.813996875E0,-3.896323740E-1,2.650476992E-1,1.239714718E1
3.833996875E0,-7.607144713E-1,-3.533362746E-1,1.187195587E1
3.854001562E0,-7.265540361E-1,-6.933033466E-1,1.179124260E1
3.875996875E0,-7.554472685E-1,-9.996079206E-1,1.147083092E1
3.896000000E0,-1.227794528E0,-9.765470028E-1,1.075836468E1
3.917996875E0,-1.319004059E0,-1.001312613E0,9.531373978E0
3.938001562E0,-1.032188177E0,-6.275298595E-1,8.579995155E0
3.959996875E0,-4.475337565E-1,-5.179232955E-1,8.100905418E0
3.979998437E0,-2.552601993E-1,-5.367034078E-1,7.830025673E0
3.999998437E0,-4.735156298E-1,-3.801321983E-1,7.650442123E0
4.021996875E0,-8.634161949E-1,-6.751649082E-2,7.388487339E0
4.041996875E0,-1.137351155E0,2.333388925E-1,7.275815964E0
4.061996875E0,-1.144390106E0,5.836871862E-1,7.292201996E0
4.081996875E0,-7.982268929E-1,8.803862929E-1,7.365550995E0
4.101996875E0,-4.794245362E-1,1.027438164E0,7.538067341E0
4.121996875E0,-3.209283650E-1,1.099589825E0,7.746248245E0
4.141996875E0,-4.060853124E-1,9.415916800E-1,8.041922569E0
4.162001562E0,-6.700987816E-1,8.807789087E-1,8.107207298E0
4.183996875E0,-9.789316654E-1,9.496840239E-1,8.214965820E0
4.204003125E0,-1.087264419E0,9.915921688E-1,8.273480415E0
4.225996875E0,-1.095749497E0,9.208482504E-1,8.596246719E0
4.245996875E0,-7.608389854E-1,8.107628822E-1,8.992698669E0
4.265996875E0,-1.630834490E-1,5.041230917E-1,9.492741585E0
4.285996875E0,-3.907337319E-3,3.775368631E-1,1.004361916E1
4.305996875E0,-9.811438620E-2,6.918764114E-1,1.051827431E1
4.325996875E0,1.814804822E-1,8.097189665E-1,1.056624413E1
4.345996875E0,9.855492115E-1,2.798725963E-1,1.010342598E1
4.365996875E0,2.143902302E0,-8.000751734E-1,1.035508537E1
4.385996875E0,2.117077589E0,-2.570414916E-2,1.122783852E1
4.405996875E0,1.872055054E0,-8.260378838E-1,1.318043423E1
4.425998437E0,7.355083823E-1,-1.048373103E0,1.284911537E1
4.447996875E0,-9.218633920E-2,-8.083783090E-2,1.086913967E1
4.467996875E0,7.383239269E-1,-2.457887381E-1,1.028948402E1
4.487996875E0,1.328197718E0,5.037112832E-1,9.727823257E0
4.507996875E0,1.469331145E0,8.643929958E-1,9.559817314E0
4.527998437E0,9.424152374E-1,7.162206173E-1,9.152583122E0
4.549996875E0,-1.084094495E-2,8.049880862E-1,8.272484779E0
4.569998437E0,-5.379962921E-1,7.542405725E-1,7.865172863E0
4.591996875E0,-7.902876735E-1,8.245726228E-1,7.767326832E0
4.611996875E0,-6.317819357E-1,6.384474039E-1,7.540547848E0
4.631996875E0,-5.284769535E-1,5.909751654E-1,7.349117279E0
4.652004687E0,-6.643909812E-1,5.292621851E-1,7.610717297E0
4.673996875E0,-9.029396176E-1,3.621565104E-1,8.060214043E0
4.694001562E0,-1.182084441E0,1.850430667E-1,8.481908798E0
4.715998437E0,-1.484807253E0,1.014183834E-1,9.076849937E0
4.737996875E0,-1.575643301E0,3.688985854E-2,9.619193077E0
4.757996875E0,-1.623785853E0,4.163037986E-2,1.008659935E1
4.777996875E0,-1.230150342E0,-1.976844519E-1,1.005562782E1
4.797996875E0,7.212293148E-2,-9.925115108E-1,1.139570141E1
4.818001562E0,4.476678371E-1,-1.402686119E0,1.365176678E1
4.839996875E0,-4.638335109E-1,-1.578535557E0,1.554401016E1
4.859996875E0,-1.560042739E0,-1.647019267E0,1.451435947E1
4.879996875E0,-2.361659765E0,-1.449200630E0,1.175739765E1
4.899996875E0,-2.931067944E0,-3.088903129E-1,9.299855232E0
4.919996875E0,-2.479617119E0,1.407790482E-1,8.137335777E0
4.939996875E0,-1.694022179E0,1.151611060E-1,7.544474125E0
4.959998437E0,-1.531973004E0,1.886630952E-1,7.738519669E0
4.979998437E0,-2.431110620E0,2.309925854E-1,8.243983269E0
5.000001562E0,-2.966645718E0,-2.138022184E-1,8.642656326E0
5.021998437E0,-3.048096418E0,-6.785072088E-1,9.348151207E0
5.042001562E0,-3.209197521E0,-8.128985167E-1,1.023919582E1
5.063996875E0,-3.040626526E0,-1.126788020E0,1.072677040E1
5.084001562E0,-2.866328716E0,-1.233732224E0,9.976198196E0
5.105995312E0,-3.098901272E0,-6.069971919E-1,9.059448242E0
5.125998437E0,-2.816395283E0,-4.242142439E-1,8.220883369E0
5.147996875E0,-2.216111422E0,-2.933567464E-1,7.554070473E0
5.167996875E0,-1.817294836E0,-1.876383871E-1,7.202132225E0
5.187996875E0,-1.439528108E0,-1.766633540E-1,7.509768009E0
5.207996875E0,-1.322231412E0,-3.555293977E-1,8.162426949E0
5.227996875E0,-1.597813606E0,-3.931566477E-1,9.226746559E0
5.247996875E0,-1.607811809E0,-9.207716584E-1,1.025382042E1
5.267996875E0,-1.427537918E0,-1.322528362E0,1.075257015E1
5.287996875E0,-8.760671616E-1,-1.128463864E0,1.085047436E1
5.308003125E0,9.458245635E-1,-1.639472604E0,1.036844444E1
5.329998437E0,1.722542048E0,-1.707745671E0,9.753058434E0
5.350003125E0,-4.768004715E-1,-4.588056505E-1,1.132708263E1
5.371996875E0,-2.903505802E0,-1.057729602E0,1.395654869E1
5.391996875E0,-3.885329485E0,-8.817557096E-1,1.318716717E1
5.411996875E0,-2.572905064E0,-7.065863609E-1,1.147125149E1
5.432000000E0,-1.559295654E-1,-1.027016789E-1,1.045394611E1
5.453996875E0,2.730520010E0,1.095586643E-2,9.987173080E0
5.473996875E0,3.636246681E0,5.990579724E-1,8.791365623E0
5.493996875E0,2.317328691E0,6.405639052E-1,7.685110092E0
5.513996875E0,3.100682795E-1,2.896409333E-1,6.881242275E0
5.533996875E0,-1.216943979E0,-6.434656680E-2,7.105176926E0
5.553996875E0,-1.755457401E0,-1.262989342E-1,7.620275021E0
5.574004687E0,-1.063973665E0,-2.761759758E-1,8.078763962E0
5.595996875E0,-2.594261169E-1,-3.190321624E-1,8.033964157E0
5.616000000E0,1.168274656E-1,-3.560656607E-1,7.447212219E0
5.637996875E0,3.843172640E-2,-3.554335833E-1,7.067980289E0
5.657996875E0,-2.213008553E-1,-2.942857146E-1,7.165002823E0
5.677998437E0,-6.452661157E-1,-3.759183884E-1,7.471384048E0
5.698001562E0,-9.873591661E-1,-5.485211611E-1,7.557575226E0
5.719996875E0,-1.283378243E0,-5.600804090E-1,7.829202175E0
5.740001562E0,-1.414523125E0,-5.732101798E-1,8.633433342E0
5.761998437E0,-1.293673396E0,-7.798681259E-1,9.756228447E0
5.781998437E0,-1.464944959E0,-8.971360922E-1,1.085599041E1
5.803996875E0,-1.659038067E0,-1.070936084E0,1.138625813E1
5.823996875E0,-1.382546186E0,-1.580106020E0,1.147243977E1
5.843996875E0,-1.186738729E0,-1.902384758E0,1.173873234E1
5.863998437E0,-1.178397298E0,-1.685929775E0,1.240885067E1
5.885996875E0,-1.290532231E0,-1.390044808E0,1.284752560E1
5.906000000E0,-1.468823552E0,-1.079890251E0,1.221764946E1
5.927996875E0,-1.712514997E0,-3.398904502E-1,1.096152687E1
5.947996875E0,-1.743151188E0,3.347859979E-1,1.024482727E1
5.967996875E0,-1.416400194E0,7.450755835E-1,9.803402901E0
5.987998437E0,-1.323648810E0,1.101342440E0,9.680513382E0
6.009996875E0,-1.254465938E0,1.073301554E0,9.617115021E0
6.030001562E0,-1.104866624E0,1.254494667E0,9.513188362E0
6.051996875E0,-9.053817391E-1,1.202674508E0,9.177281380E0
6.072000000E0,-6.163249612E-1,9.874645472E-1,8.643873215E0
6.093996875E0,-3.709288836E-1,9.001144767E-1,7.832516193E0
6.113996875E0,-4.058076143E-1,8.927977681E-1,7.683223248E0
6.133996875E0,-1.191833541E-1,6.820793748E-1,8.151356697E0
6.154004687E0,4.234864190E-2,5.591993332E-1,8.694936752E0
6.175996875E0,1.652956754E-2,6.542969942E-1,8.970231056E0
6.196004687E0,-2.835021913E-1,8.746210337E-1,9.168662071E0
6.217996875E0,-4.218966365E-1,6.995474100E-1,9.585320473E0
6.238006250E0,-5.112099648E-1,5.504174232E-1,1.003153324E1
6.259996875E0,-4.026281238E-1,6.298091412E-1,1.026522541E1
6.280004687E0,-4.554729536E-2,6.761704683E-1,1.046942329E1
6.301996875E0,3.053277731E-1,7.545470595E-1,1.055374622E1
6.321996875E0,3.611126542E-1,6.588938832E-1,1.034805584E1
6.341996875E0,3.495151401E-1,4.504450858E-1,9.937900543E0
6.362014062E0,4.043519199E-1,5.067950487E-1,9.660766602E0
6.383996875E0,5.088827610E-1,6.577637792E-1,9.586987495E0
6.404003125E0,3.881096840E-1,7.386495471E-1,9.625140190E0
6.425996875E0,4.788116217E-1,6.599473357E-1,9.517679214E0
6.446000000E0,1.051188588E0,1.936813295E-1,9.753632545E0
6.467996875E0,1.958121777E0,-1.155729070E-1,9.989681244E0
6.487996875E0,2.446012259E0,-7.258357406E-1,1.035136890E1
6.507998437E0,1.627884746E0,-9.198810458E-1,1.047334957E1
6.528004687E0,3.836468980E-2,-1.014375389E-1,1.034914780E1
6.549996875E0,-5.053872466E-1,2.563998401E-1,9.539839745E0
6.570001562E0,-5.293101072E-1,7.531583905E-1,8.700749397E0
6.591996875E0,8.316498995E-2,9.995121360E-1,8.433929443E0
6.612003125E0,1.172402263E0,6.629831791E-1,8.369362831E0
6.633996875E0,1.491989851E0,5.985121727E-1,8.309929848E0
6.653996875E0,1.038891912E0,5.021311045E-1,8.458207130E0
6.673996875E0,2.766356468E-1,2.569648623E-1,8.700787544E0
6.693996875E0,-6.530711651E-1,1.774199158E-1,8.988321304E0
6.713996875E0,-1.301746607E0,4.340208694E-2,9.217561722E0
6.733996875E0,-1.691809893E0,3.822103515E-2,9.362353325E0
6.753996875E0,-1.617043853E0,1.182448342E-1,9.412440300E0
6.773996875E0,-1.094198108E0,2.262041904E-2,9.263031960E0
6.793996875E0,-6.352008581E-1,5.564124510E-2,9.021275520E0
6.813996875E0,-4.651837945E-1,1.174020767E-1,8.877240181E0
6.833996875E0,-6.687196493E-1,1.197100803E-1,8.977566719E0
6.853996875E0,-1.028098941E0,6.221093610E-2,9.249050140E0
6.873996875E0,-1.271771193E0,-7.121313363E-2,9.240651131E0
6.893996875E0,-1.224921465E0,-2.186001837E-1,9.018756866E0
6.913996875E0,-9.165482521E-1,-2.393435538E-1,9.085372925E0
6.933996875E0,-5.150406361E-1,-3.244718015E-1,9.509184837E0
6.953996875E0,-5.716683269E-1,-3.006925583E-1,9.956211090E0
6.973996875E0,-1.233128786E0,-2.717610598E-1,1.048807812E1
6.994003125E0,-1.911051750E0,-2.531245947E-1,1.055129528E1
7.015996875E0,-2.115899563E0,-3.263392746E-1,1.037653732E1
7.037996875E0,-1.947300076E0,-4.247026443E-1,1.021966934E1
7.057996875E0,-1.811194420E0,-4.885607958E-1,1.025077438E1
7.077996875E0,-1.758636951E0,-5.356212258E-1,1.020323563E1
7.097996875E0,-1.886065960E0,-5.888203979E-1,9.954746246E0
7.118000000E0,-2.209704638E0,-6.086348295E-1,9.576691628E0
7.139996875E0,-2.261735439E0,-5.854685307E-1,9.184253693E0
7.160001562E0,-2.361324549E0,-4.012107551E-1,8.860527992E0
7.181996875E0,-2.467741966E0,-1.472434103E-1,8.718255997E0
7.201996875E0,-2.320948839E0,-3.436158225E-2,8.880045891E0
7.221996875E0,-2.144151449E0,-1.701990068E-1,9.091780663E0
7.241996875E0,-2.167757988E0,-2.020418942E-1,9.237998009E0
7.261996875E0,-2.198978424E0,-2.257349044E-1,9.473099709E0
7.282000000E0,-2.027429104E0,-3.297390342E-1,9.867568016E0
7.303996875E0,-2.126740694E0,-3.355042636E-1,1.036029530E1
7.323996875E0,-2.280362368E0,-4.982525408E-1,1.040695286E1
7.343996875E0,-2.197245121E0,-6.418759227E-1,1.008933830E1
7.363996875E0,-1.784245253E0,-5.673108697E-1,9.902533531E0
7.384000000E0,-1.198575735E0,-5.854014754E-1,9.743721008E0
7.405996875E0,-9.081494212E-1,-4.724526107E-1,9.567488670E0
7.425996875E0,-7.013670206E-1,-4.386273324E-1,9.627573013E0
7.445996875E0,-6.515389085E-1,-3.948230147E-1,9.719549179E0
7.466001562E0,-8.086943030E-1,-3.186970055E-1,9.685283661E0
7.487996875E0,-1.074278355E0,-1.669524759E-1,9.436008453E0
7.508001562E0,-1.328379750E0,-9.576806426E-2,8.926761627E0
7.529996875E0,-1.643782258E0,2.116474323E-3,8.433987617E0
7.550003125E0,-1.877513766E0,7.333918661E-2,8.206719398E0
7.571996875E0,-1.962373853E0,-3.671747446E-2,8.037286758E0
7.592000000E0,-2.026911974E0,-6.589800864E-2,8.332233429E0
7.613996875E0,-1.999761701E0,-1.700170487E-1,9.138351440E0
7.633996875E0,-1.837272048E0,-3.736199737E-1,1.010221004E1
7.653996875E0,-1.622043014E0,-5.242726803E-1,1.083859825E1
7.673996875E0,-1.419522166E0,-5.603964329E-1,1.130961514E1
7.693996875E0,-1.271014690E0,-6.055127382E-1,1.163572502E1
7.713996875E0,-1.038815379E0,-5.587875247E-1,1.153278351E1
7.733996875E0,-4.857930839E-1,-4.541321695E-1,1.101270485E1
7.753996875E0,1.015237272E-1,-2.182745785E-1,1.023224354E1
7.773996875E0,4.670800269E-1,-7.461290061E-2,9.671416283E0
7.793996875E0,6.630502343E-1,-1.103439704E-1,9.503055573E0
7.813996875E0,7.762480378E-1,-2.362406701E-1,9.572028160E0
7.833996875E0,7.167569399E-1,-3.801704943E-1,9.801402092E0
7.853996875E0,5.575999618E-1,-5.867900848E-1,9.759187698E0
7.874003125E0,4.013639688E-1,-7.441274524E-1,9.474354744E0
7.895996875E0,5.455427766E-1,-9.240661263E-1,8.964934349E0
7.916000000E0,3.838384151E-1,-9.582935572E-1,8.702176094E0
7.937996875E0,-1.437574476E-1,-8.185583949E-1,8.580024719E0
7.957996875E0,-7.058872581E-1,-5.277107954E-1,8.625753403E0
7.978009375E0,-1.012718558E0,-3.692050576E-1,8.563264847E0
8.000003125E0,-9.871006608E-1,-1.317194104E-1,8.302967072E0
8.022007812E0,-8.253292441E-1,7.237192243E-2,8.368223190E0
8.043996875E0,-2.053841949E-1,1.086105630E-1,8.807435036E0
8.063996875E0,3.530585766E-1,3.983951639E-3,9.261414528E0
8.083996875E0,2.272097468E-1,1.111388430E-1,9.780888557E0
8.103996875E0,-3.629226685E-1,1.741446555E-1,1.036589718E1
8.123996875E0,-7.299442291E-1,1.403768361E-1,1.049914932E1
8.143996875E0,-8.475474119E-1,2.752278447E-1,1.028554821E1
8.163998437E0,-7.208366990E-1,4.054436982E-1,1.003868675E1
8.185996875E0,-5.038837194E-1,4.664479494E-1,1.002210903E1
8.206003125E0,-3.297294676E-1,4.494778514E-1,1.005800247E1
8.227996875E0,-1.554698795E-1,3.275746703E-1,1.003934765E1
8.248000000E0,-9.548076428E-3,2.101917565E-1,9.987114906E0
8.269998437E0,-3.351882473E-2,1.141842678E-1,9.897801399E0
8.291996875E0,-1.026920974E-1,6.469132751E-2,9.777173042E0
8.311996875E0,-1.075954214E-1,-1.086009853E-2,9.595453262E0
8.331996875E0,-1.850430667E-1,-1.736275107E-2,9.404003143E0
8.351996875E0,-2.094830722E-1,-6.955634803E-2,9.233220100E0
8.372001562E0,-3.152780533E-1,-3.576937318E-2,9.214487076E0
8.393996875E0,-4.104523659E-1,-7.144297939E-3,9.218930244E0
8.413996875E0,-4.197227061E-1,3.780923411E-2,9.275568008E0
8.433996875E0,-3.987303376E-1,1.517732441E-1,9.352010727E0
8.454000000E0,-4.388858974E-1,2.258306891E-1,9.451781273E0
8.475996875E0,-4.486063421E-1,2.819124758E-1,9.539322853E0
8.496001562E0,-5.214858651E-1,3.462302983E-1,9.468282700E0
8.517996875E0,-6.740922928E-1,4.216189384E-1,9.444168091E0
8.537996875E0,-7.563953400E-1,3.991134465E-1,9.419651031E0
8.557996875E0,-8.440806270E-1,3.675195277E-1,9.523962021E0
8.577996875E0,-9.056403041E-1,2.651147544E-1,9.526442528E0
8.597996875E0,-1.012498379E0,2.338656187E-1,9.617499352E0
8.617998437E0,-1.135416627E0,2.392382026E-1,9.717720032E0
8.638006250E0,-1.164223671E0,2.391711771E-1,9.681950569E0
8.659996875E0,-1.005382776E0,2.588706613E-1,9.434285164E0
8.680003125E0,-8.947514892E-1,3.688794672E-1,9.052927017E0
8.700012500E0,-8.715564609E-1,3.823923171E-1,8.916629791E0
8.721996875E0,-1.120907664E0,4.004158676E-1,9.025728226E0
8.741996875E0,-1.321225882E0,3.669449091E-1,9.227847099E0
8.762003125E0,-1.371350884E0,3.125199378E-1,9.477064133E0
8.783996875E0,-1.364311934E0,2.628546059E-1,9.541622162E0
8.804001562E0,-1.406421185E0,2.326972485E-1,9.526078224E0
8.825996875E0,-1.646444559E0,1.957690865E-1,9.457172394E0
8.845998437E0,-1.786438346E0,1.738956571E-1,9.398314476E0
8.867996875E0,-1.731544137E0,1.847653389E-1,9.273250580E0
8.887996875E0,-1.610091090E0,2.052788585E-1,9.201012611E0
8.907996875E0,-1.586053252E0,2.285121977E-1,9.224035263E0
8.928003125E0,-1.701080322E0,1.934898049E-1,9.329197884E0
8.949996875E0,-1.833747745E0,2.395925671E-1,9.397730827E0
8.970000000E0,-1.862612247E0,2.922075093E-1,9.517890930E0
8.991996875E0,-1.843180895E0,2.310500294E-1,9.778091431E0
9.011996875E0,-1.824151874E0,1.590611935E-1,9.911650658E0
9.031996875E0,-1.852451324E0,1.838938445E-1,1.003394604E1
9.051998437E0,-1.837779641E0,1.769315004E-1,1.005613613E1
9.073996875E0,-1.873242497E0,2.787616849E-1,9.868813515E0
9.094003125E0,-1.786553383E0,3.361171782E-1,9.719558716E0
9.115996875E0,-1.606547594E0,4.174817502E-1,9.630523682E0
9.135996875E0,-1.472682953E0,3.415664136E-1,9.516674042E0
9.155996875E0,-1.450733066E0,3.664278090E-1,9.457805634E0
9.175996875E0,-1.425957799E0,3.534128964E-1,9.460304260E0
9.195996875E0,-1.265000343E0,3.119932115E-1,9.493124962E0
9.215996875E0,-1.165143013E0,2.234747857E-1,9.523941994E0
9.235998437E0,-1.203862071E0,1.205624267E-1,9.544350624E0
9.257996875E0,-1.358565807E0,9.404424578E-3,9.472342491E0
9.277996875E0,-1.386999369E0,-1.289900094E-1,9.257650375E0
9.297996875E0,-1.411515951E0,-2.401384264E-1,9.071601868E0
9.318003125E0,-1.458729625E0,-3.562667966E-1,9.027586937E0
9.339996875E0,-1.444575071E0,-5.150023699E-1,8.874750137E0
9.360003125E0,-1.483121753E0,-7.283735871E-1,8.730810165E0
9.380007812E0,-1.440744400E0,-1.094485402E0,8.853393555E0
9.402000000E0,-1.683315277E0,-1.526868701E0,9.518445015E0
9.423996875E0,-2.166532278E0,-1.637461543E0,1.028982925E1
9.443998437E0,-2.443646669E0,-1.516046882E0,1.072359085E1
9.465996875E0,-2.025638342E0,-1.060717583E0,1.028122807E1
9.485996875E0,-1.033414006E0,-6.596504450E-1,9.675773621E0
9.505996875E0,-1.599614173E-1,-2.568978369E-1,9.199719429E0
9.526000000E0,4.239748120E-1,-1.202176586E-1,8.783157349E0
9.547996875E0,7.862749696E-1,1.433935314E-1,8.904131889E0
9.568001562E0,9.945801497E-1,1.847174466E-1,9.327857018E0
9.589996875E0,1.163582087E0,1.091947481E-1,9.903059959E0
9.609996875E0,1.220927954E0,1.280323267E-1,1.027273464E1
9.629998437E0,1.392113447E0,1.055076793E-1,1.024884987E1
9.650001562E0,1.526284456E0,1.184459478E-1,1.007198524E1
9.671996875E0,1.671727419E0,9.256941080E-2,9.916639328E0
9.691998437E0,1.572952151E0,-5.128380284E-2,9.776818275E0
9.713996875E0,1.161245227E0,-1.535162181E-1,9.561646461E0
9.734001562E0,8.357966542E-1,-1.245463714E-1,9.627487183E0
9.755996875E0,8.430750370E-1,-2.862124443E-1,9.652999878E0
9.775996875E0,8.751477599E-1,-4.111227393E-1,9.610259056E0
9.795996875E0,8.459768295E-1,-5.111237764E-1,9.581289291E0
9.816004687E0,7.535701990E-1,-6.003509164E-1,9.512364388E0
9.837996875E0,4.837245047E-1,-7.417237163E-1,9.705087662E0
9.857998437E0,5.379197001E-1,-9.238362312E-1,9.885025978E0
9.879996875E0,7.332769036E-1,-1.024258614E0,9.893674850E0
9.900000000E0,8.779633045E-1,-9.792093635E-1,9.636431694E0
9.921996875E0,9.963709712E-1,-9.262017012E-1,9.364125252E0
9.942000000E0,1.225093842E0,-8.989557028E-1,9.501628876E0
9.963996875E0,1.493407249E0,-8.947132230E-1,9.732008934E0
9.983996875E0,1.525977969E0,-8.079856038E-1,9.729001045E0
1.000399688E1,1.517751455E0,-6.713820100E-1,9.533576965E0
1.002400000E1,1.569494963E0,-5.256230235E-1,9.392347336E0
1.004599688E1,1.581513882E0,-3.211486638E-1,9.248964310E0
1.006600000E1,1.513872981E0,-1.536407173E-1,9.222225189E0
1.008799688E1,1.384164691E0,-6.425079703E-2,9.275195122E0
1.010799688E1,1.349889278E0,2.014960162E-2,9.415246010E0
1.012799688E1,1.149369955E0,8.767566830E-2,9.523464203E0
1.014800156E1,7.615188956E-1,1.619438082E-1,9.727766037E0
1.016999688E1,4.569956362E-1,2.026643902E-1,9.716522217E0
1.019000469E1,2.418814152E-1,2.587844729E-1,9.597684860E0
1.021199688E1,1.435563341E-2,3.368258774E-1,9.507883072E0
1.023200312E1,-1.332708448E-1,2.789627910E-1,9.611360550E0
1.025399688E1,-3.747021556E-1,2.678632736E-1,9.772020340E0
1.027399844E1,-4.337527454E-1,1.894005090E-1,9.818238258E0
1.029599688E1,-3.497066796E-1,1.670195162E-2,9.928916931E0
1.031599688E1,-3.056533635E-1,-2.380985767E-1,1.012042522E1
1.033599688E1,-6.173305511E-1,-4.488170445E-1,1.030975819E1
1.035600156E1,-9.725247025E-1,-5.856025815E-1,1.045137024E1
1.037799688E1,-1.157098532E0,-5.672726035E-1,1.045039368E1
1.039799844E1,-1.130302668E0,-3.101544678E-1,1.032866287E1
1.041999844E1,-1.049301982E0,-1.112729162E-1,9.799056053E0
1.044000312E1,-1.099925041E0,1.104014292E-1,9.391600609E0
1.046199844E1,-1.145740509E0,2.532969713E-1,8.987200737E0
1.048399688E1,-1.144744515E0,5.128762722E-1,8.654895782E0
1.050399688E1,-1.244477272E0,7.259219289E-1,8.503916740E0
1.052399688E1,-1.508308768E0,8.043272495E-1,8.612096786E0
1.054399688E1,-1.894924402E0,8.398092985E-1,8.802377701E0
1.056399688E1,-2.250626326E0,8.610219955E-1,8.744764328E0
1.058399688E1,-2.581198454E0,9.326181412E-1,8.635253906E0
1.060399688E1,-2.849301100E0,1.098306537E0,8.576920509E0
1.062399688E1,-2.957451820E0,1.143863440E0,8.529955864E0
1.064399688E1,-2.940836191E0,1.073952675E0,8.322781563E0
1.066400000E1,-3.036029816E0,1.105757356E0,8.113661766E0
1.068599688E1,-2.962680817E0,1.081508756E0,8.254834175E0
1.070599844E1,-2.732904434E0,8.939661980E-1,8.671922684E0
1.072799688E1,-2.521736145E0,6.589130163E-1,9.402528763E0
1.074799688E1,-2.470165014E0,4.629236758E-1,1.015489197E1
1.076799688E1,-2.374224424E0,2.512666881E-1,1.062623310E1
1.078799688E1,-2.275114059E0,9.879434109E-2,1.071897507E1
1.080799688E1,-2.122478962E0,1.545409262E-1,1.062560177E1
1.082799688E1,-1.831315279E0,2.641187310E-1,1.039203262E1
1.084799688E1,-1.508854628E0,2.768080235E-1,1.002414894E1
1.086799688E1,-1.141469240E0,1.727943271E-1,9.681031227E0
1.088800313E1,-9.877518415E-1,1.887780130E-1,9.570878983E0
1.090999844E1,-7.449702024E-1,9.593086690E-2,9.650116920E0
1.093000000E1,-3.901878297E-1,-1.156686693E-1,9.842611313E0
1.095199688E1,-2.579225600E-1,-1.978855580E-1,9.928677559E0
1.097199688E1,-1.388732791E-1,-3.292793632E-1,9.838694572E0
1.099199688E1,-8.818323165E-2,-3.304572999E-1,9.778772354E0
1.101200000E1,3.555389345E-1,-7.541447878E-1,9.840264320E0
1.103399688E1,8.455841541E-1,-1.190157771E0,1.058554077E1
1.105399844E1,4.817516804E-1,-1.156035542E0,1.130612850E1
1.107599688E1,-5.990197062E-1,-1.242916226E0,1.183772850E1
1.109600156E1,-1.387698531E0,-1.142513037E0,1.088575459E1
1.111799688E1,-1.514677405E0,-4.723951519E-1,9.824118614E0
1.113799688E1,-5.150406361E-1,-2.553464174E-1,8.977739334E0
1.115799688E1,5.709596276E-1,-9.338344634E-2,8.519316673E0
1.117800469E1,1.492870927E0,-7.337749749E-2,8.040016174E0
1.120001094E1,1.642470241E0,-1.434509903E-1,7.945962906E0
1.122199688E1,8.297441602E-1,-2.633717656E-1,8.590797424E0
1.124199688E1,-2.402629256E-1,-2.786276340E-1,9.289148331E0
1.126200469E1,-8.620658517E-1,-2.922458351E-1,9.550183296E0
1.128399688E1,-7.379791141E-1,-2.415653616E-1,9.195382118E0
1.130399688E1,-2.518700361E-1,-1.179575250E-1,8.492041588E0
1.132399688E1,8.775228262E-2,1.527117640E-1,7.819213867E0
1.134400156E1,2.440936565E-1,3.208038509E-1,7.545279026E0
1.136599688E1,1.377144828E-2,6.113354564E-1,7.891719818E0
1.138600312E1,-1.552017331E-1,7.665851116E-1,8.387166023E0
1.140799688E1,-3.042072654E-1,9.453649521E-1,9.101711273E0
1.142799844E1,-5.420281291E-1,1.014164686E0,9.844737053E0
1.144800781E1,-7.951431274E-1,1.065889001E0,1.047438335E1
1.146999688E1,-7.950282097E-1,1.063533068E0,1.097605515E1
1.148999844E1,-6.130305529E-1,1.065151572E0,1.120237446E1
1.150999844E1,-3.960488439E-1,9.964954853E-1,1.126320648E1
1.153199688E1,-1.616086066E-1,7.431506515E-1,1.141601372E1
1.155199688E1,-3.280822337E-1,7.132997513E-1,1.165945625E1
1.157199688E1,-3.757938743E-1,6.355935335E-1,1.186333656E1
1.159199688E1,-3.049734235E-1,1.110909623E-3,1.208717442E1
1.161199688E1,-3.699328899E-1,-4.085370004E-1,1.267604256E1
1.163199688E1,-1.019767046E0,-4.836191833E-1,1.304351425E1
1.165200000E1,-1.516391635E0,-5.710170865E-1,1.206081009E1
1.167200469E1,-1.402465940E0,-5.660945773E-1,1.055628395E1
1.169399688E1,-1.162643552E0,-4.502727389E-1,9.554109573E0
1.171399688E1,-1.260575891E0,-2.914413810E-1,9.147113800E0
1.173399844E1,-1.531398416E0,-4.651167989E-1,8.890695572E0
1.175599688E1,-2.041497469E0,-4.749713242E-1,8.262581825E0
1.177600000E1,-2.454257727E0,-2.843162417E-1,7.604415417E0
1.179799688E1,-2.522205353E0,-1.492641121E-1,7.008882046E0
1.181800156E1,-2.432959080E0,1.090798248E-2,6.726490498E0
1.183999688E1,-2.052185297E0,-3.090435639E-2,6.818370819E0
1.185999844E1,-1.651367068E0,-1.744032353E-1,6.916638374E0
1.188199688E1,-1.442611814E0,-2.742510140E-1,7.202850819E0
1.190199688E1,-1.373697162E0,-3.824306428E-1,7.666999817E0
1.192199688E1,-1.424952269E0,-3.996018469E-1,8.144824982E0
1.194199688E1,-1.567895651E0,-4.577713609E-1,8.544167519E0
1.196199688E1,-1.421456695E0,-2.630940378E-1,8.736921310E0
1.198199688E1,-1.038365245E0,-2.223255783E-1,8.942831993E0
1.200199844E1,-4.777294397E-1,-2.057098038E-2,9.342710495E0
1.202399688E1,4.170028865E-1,2.257349044E-1,1.015136719E1
1.204399688E1,1.491099238E0,2.384241819E-1,1.067958641E1
1.206399688E1,2.098153830E0,2.673844695E-1,1.060971260E1
1.208399688E1,2.256199837E0,2.440361977E-1,1.006949520E1
1.210399688E1,2.740853310E0,-1.348127127E-1,1.016229534E1
1.212400156E1,2.884773731E0,-1.436425298E-1,1.140822792E1
1.214599688E1,2.029315710E0,-5.823177695E-1,1.316981411E1
1.216600000E1,8.897619843E-1,-1.043412209E0,1.358678818E1
1.218799688E1,2.072421089E-2,-9.586670995E-1,1.220693398E1
1.220799688E1,9.279925823E-1,-5.364831686E-1,1.117203426E1
1.222800156E1,2.763607979E0,-3.695498407E-1,9.720248222E0
1.224999688E1,3.451720715E0,1.031039059E-1,8.363061905E0
1.226999688E1,2.605140448E0,2.961244583E-1,7.879413605E0
1.229000625E1,1.155116081E0,4.977832735E-1,7.899093628E0
1.231199688E1,1.066856310E-1,8.765172362E-1,7.722765446E0
1.233200312E1,-3.270479664E-2,1.087992311E0,7.578433514E0
1.235399688E1,3.964223266E-1,1.077505708E0,6.984547138E0
1.237400313E1,5.708159804E-1,1.130283475E0,6.490518093E0
1.239599688E1,2.910295725E-1,1.246316075E0,6.604348183E0
1.241600000E1,-2.063323110E-1,1.302685142E0,7.270855427E0
1.243799688E1,-3.872286081E-1,1.188644528E0,8.138504028E0
1.245799688E1,-4.387326539E-1,1.219089270E0,8.749869347E0
1.247799688E1,-4.308126569E-1,1.225294948E0,9.368711472E0
1.249799844E1,-3.722696304E-1,1.134976029E0,9.944527626E0
1.251999688E1,-4.776527882E-1,9.603621960E-1,1.038853741E1
1.253999688E1,-7.860834599E-1,8.112608790E-1,1.049188995E1
1.255999688E1,-7.754244804E-1,4.786392152E-1,1.079263973E1
1.257999688E1,-2.335687429E-1,1.115314960E-1,1.194479656E1
1.259999688E1,4.389912486E-1,-7.744476199E-1,1.312417126E1
1.261999688E1,1.548090875E-1,-1.181548119E0,1.426220226E1
1.264000781E1,-5.572073460E-1,-1.621295929E0,1.483494377E1
1.266199688E1,-1.173407793E0,-1.689904213E0,1.391364479E1
1.268199688E1,-1.561488748E0,-1.552074790E0,1.239343166E1
1.270199688E1,-1.531302691E0,-9.681864381E-1,1.107790470E1
1.272199688E1,-9.901939034E-1,-7.056191564E-1,9.664223671E0
1.274199688E1,-4.966340363E-1,-4.131147265E-1,8.528309822E0
1.276199688E1,-5.557804108E-1,-1.795651205E-2,7.958192348E0
1.278199688E1,-8.215942383E-1,2.505675554E-1,7.647118568E0
1.280199688E1,-1.089093685E0,3.926394880E-1,7.500239372E0
1.282200156E1,-1.336701870E0,6.162675023E-1,7.580147743E0
1.284399688E1,-1.152482510E0,5.048892498E-1,7.895694256E0
1.286399844E1,-9.363627434E-1,3.245483935E-1,7.999027729E0
1.288599688E1,-8.580723405E-1,3.154025674E-1,8.026676178E0
1.290599688E1,-8.032163978E-1,3.242228031E-1,8.021025658E0
1.292599688E1,-7.801171541E-1,2.973598540E-1,7.991155624E0
1.294599688E1,-7.109342813E-1,1.141076535E-1,8.103693008E0
1.296599688E1,-8.404318094E-1,-2.765781805E-2,8.410447121E0
1.298599688E1,-1.126280427E0,-1.036976650E-1,8.583730698E0
1.300599844E1,-1.284345627E0,-2.157175690E-1,8.658525467E0
1.302799688E1,-9.060617089E-1,-1.837310344E-1,8.752540588E0
1.304799688E1,-2.542642355E-1,-9.897629917E-2,9.040122032E0
1.306799688E1,5.327481627E-1,-1.853591055E-1,9.534487724E0
1.308799688E1,8.185009956E-1,-3.004244268E-1,9.905529976E0
1.310799688E1,2.704202831E-1,-4.676354676E-2,1.003378296E1
1.312799688E1,-3.467378616E-1,4.350360036E-1,1.002882195E1
1.314799688E1,2.365471274E-1,4.748276770E-1,9.015586853E0
1.316800469E1,1.516659737E0,-9.575849026E-2,8.288037300E0
1.318999688E1,2.638372183E0,-6.395391375E-2,1.002261734E1
1.320999844E1,2.571640968E0,-9.637140632E-1,1.292693615E1
1.323000000E1,8.870517612E-1,-1.646291375E0,1.455243683E1
1.325199688E1,-5.360713601E-1,-1.225390792E0,1.320296860E1
1.327199688E1,-1.164156646E-1,-5.608273745E-1,1.186020470E1
1.329199688E1,1.206198812E0,-1.364024729E-1,1.146121597E1
1.331200156E1,2.051955223E0,3.069462180E-1,1.039274120E1
1.333399688E1,2.016463757E0,5.424016118E-1,8.593824387E0
1.335400000E1,1.462483764E0,6.388496161E-1,6.888165951E0
1.337599688E1,8.305389881E-1,7.419535518E-1,6.066006660E0
1.339600156E1,2.250358164E-1,1.030828357E0,5.913601398E0
1.341799688E1,-1.725548953E-1,1.011875868E0,6.164016247E0
1.343800313E1,-2.986144125E-1,8.501331210E-1,6.525760651E0
1.345999688E1,-5.716395974E-1,7.909772396E-1,7.195610523E0
1.347999688E1,-8.855099082E-1,6.650230885E-1,7.957531929E0
1.349999688E1,-1.048727393E0,4.536150098E-1,8.943453789E0
1.352000312E1,-1.251698256E0,3.459334075E-1,1.005461311E1
1.354199688E1,-1.244879484E0,8.015787229E-3,1.097809505E1
1.356199688E1,-1.395407796E0,-9.187988192E-2,1.143918991E1
1.358199688E1,-1.487919807E0,-1.637442410E-1,1.149059772E1
1.360200469E1,-1.425028801E0,1.396298409E-2,1.159145164E1
1.362399688E1,-1.034486651E0,-1.548282355E-1,1.168429756E1
1.364400313E1,-1.127161384E0,-1.357512325E-1,1.127558899E1
1.366599688E1,-1.423352957E0,-1.503175646E-1,1.024724102E1
1.368599688E1,-1.084879875E0,-5.774718523E-1,9.747513771E0
1.370599688E1,-6.477752328E-1,-8.522112966E-1,1.041113853E1
1.372600000E1,-1.054597974E0,-5.605879426E-1,1.200199890E1
1.374799688E1,-1.229930162E0,-1.615090251E0,1.384091759E1
1.376800313E1,-1.854318857E0,-1.935740829E0,1.304181099E1
1.378999688E1,-2.174806595E0,-1.438694954E0,1.164231300E1
1.381000000E1,-1.194160819E0,-1.107069373E0,1.075560665E1
1.383199688E1,-4.585758150E-1,-6.780954003E-1,1.019902134E1
1.385200469E1,-7.086166143E-1,-4.652125537E-1,9.836309433E0
1.387399688E1,-1.283665657E0,-3.168773949E-1,9.171592712E0
1.389399688E1,-1.563672185E0,9.976159781E-2,8.461980820E0
1.391399688E1,-1.266398668E0,3.950336874E-1,7.854178905E0
1.393400000E1,-6.306806207E-1,4.120421112E-1,7.383277416E0
1.395599688E1,-2.552793622E-1,4.354861379E-1,7.014599323E0
1.397600625E1,2.688209713E-2,8.365340531E-2,6.735349178E0
1.399799688E1,-2.004425675E-1,-1.244122982E-1,6.481879711E0
1.401799688E1,-4.588439763E-1,-3.500801623E-1,6.443352222E0
1.403799688E1,-7.453437448E-1,-5.061438084E-1,6.549702644E0
1.405799688E1,-8.124388456E-1,-7.330757976E-1,6.873197556E0
1.407799688E1,-8.048156500E-1,-1.067009568E0,6.928388596E0
1.409799688E1,-7.881807685E-1,-1.176702261E0,6.937477112E0
1.411800313E1,-7.205685377E-1,-1.345234871E0,7.225490093E0
1.413999688E1,-1.028730989E0,-1.378495097E0,8.254220963E0
1.416000469E1,-1.158630848E0,-1.328015804E0,9.203052521E0
1.418199688E1,-4.185160100E-1,-1.419349909E0,9.450325966E0
1.420199688E1,8.580819368E-1,-1.887837648E0,9.837220192E0
1.422199688E1,1.316772580E0,-2.030943871E0,1.137937164E1
1.424200312E1,7.978820801E-1,-2.362282276E0,1.355175591E1
1.426399688E1,-5.148395300E-1,-2.504516840E0,1.531208801E1
1.428399844E1,-8.634831905E-1,-2.532653570E0,1.475255394E1
1.430599688E1,1.999637336E-1,-2.368727207E0,1.334229183E1
1.432799688E1,1.451096892E0,-1.432086945E0,1.216212273E1
1.434799688E1,2.000441551E0,-1.157663584E0,1.116310978E1
1.436799688E1,1.523775220E0,-7.739974856E-1,9.868899345E0
1.438799688E1,7.603697777E-1,-5.231043696E-1,8.475090981E0
1.440800156E1,-9.068278223E-2,-1.139065400E-1,7.707557678E0
1.442999844E1,-5.750297904E-1,1.659181863E-1,7.469258308E0
1.444999844E1,-5.834574103E-1,1.554890275E-1,7.482254028E0
1.447199688E1,-6.422781348E-1,-1.772666909E-2,7.597989559E0
1.449199688E1,-9.107830524E-1,-7.436390966E-2,7.681145191E0
1.451199688E1,-1.302033901E0,-1.857421696E-1,7.920220375E0
1.453199844E1,-1.835605741E0,-2.489012182E-1,8.385557175E0
1.455399844E1,-2.349908829E0,-3.256210089E-1,9.271565437E0
1.457400312E1,-2.476639032E0,-4.314638674E-1,9.835428238E0
1.459599688E1,-2.379376650E0,-4.422377944E-1,1.003604317E1
1.461600312E1,-2.090923309E0,-4.720982611E-1,9.848491669E0
1.463799688E1,-1.956570268E0,-6.134710908E-1,9.973285675E0
1.465799688E1,-1.724687099E0,-9.552481771E-1,1.062120533E1
1.467799688E1,-1.819248557E0,-1.238338590E0,1.143073368E1
1.469799688E1,-2.065372467E0,-1.429874778E0,1.166651344E1
1.471799844E1,-2.088356733E0,-1.643657684E0,1.111278343E1
1.473999688E1,-1.580939174E0,-1.821317196E0,1.146537209E1
1.475999688E1,-1.381348968E0,-1.753474951E0,1.256705952E1
1.477999844E1,-1.943411827E0,-2.025887251E0,1.292344093E1
1.480199688E1,-2.646138668E0,-2.059817791E0,1.203059578E1
1.482199688E1,-2.510157824E0,-2.003372192E0,1.102895737E1
1.484199688E1,-1.931929231E0,-1.904137373E0,1.023531723E1
1.486199688E1,-1.363239288E0,-1.857708931E0,1.010062027E1
1.488200469E1,-1.343673825E0,-1.560636520E0,1.014795780E1
1.490399688E1,-1.271550894E0,-1.303671479E0,9.218184471E0
1.492399688E1,-1.190014005E0,-7.339090109E-1,8.232969284E0
1.494399688E1,-8.449521065E-1,-3.972363472E-1,7.329168320E0
1.496399688E1,-5.128858685E-1,-5.642654374E-2,6.836078167E0
1.498399844E1,-3.503674567E-1,1.805706918E-1,6.749015331E0
1.500599844E1,-3.954359293E-1,1.020025685E-1,6.820716858E0
1.502799688E1,-4.458195269E-1,-5.634992942E-2,7.143531799E0
1.504799688E1,-2.159378380E-1,-1.363545656E-1,7.116534710E0
1.506799688E1,-1.261935830E-1,-1.194802374E-1,7.050799370E0
1.508799844E1,-9.298121929E-2,-1.040711626E-1,7.054246902E0
1.510999688E1,-4.077038169E-1,-7.007349283E-2,7.219964504E0
1.513000469E1,-7.877977490E-1,-1.210891455E-1,7.681221485E0
1.515199688E1,-9.016084671E-1,-2.604700029E-1,8.359977722E0
1.517199844E1,-6.389549375E-1,-3.689847887E-1,9.038867950E0
1.519399688E1,-4.760439098E-1,-3.213114440E-1,9.626788139E0
1.521399688E1,-5.056650043E-1,1.492066495E-2,1.002767277E1
1.523399688E1,-6.147735715E-1,5.306700468E-1,1.003896427E1
1.525401719E1,4.373727739E-2,4.449767470E-1,9.603765488E0
1.527599531E1,1.685211539E0,-3.691763282E-1,1.020360851E1
1.529600312E1,2.638716698E0,-5.680482984E-1,1.148806953E1
1.531799688E1,1.963331580E0,-1.428438187E0,1.309277821E1
1.533799688E1,-6.137584448E-1,-1.483437777E0,1.300756359E1
1.535799688E1,-2.370096922E0,-1.347198129E0,1.202216816E1
1.537799688E1,-2.556432962E0,-9.056403041E-1,1.097163963E1
1.539799688E1,-1.607696891E0,-3.499173522E-1,1.073558140E1
1.541799688E1,-3.919691145E-1,-1.013992280E-1,1.064913177E1
1.543801562E1,-2.511900663E-1,9.120950848E-2,9.788205147E0
1.545999688E1,-9.472706914E-1,4.099543691E-1,8.247747421E0
1.547999688E1,-1.463029623E0,5.856504440E-1,7.346607685E0
1.549999688E1,-1.792241931E0,6.851055622E-1,7.165299892E0
1.552000312E1,-1.872074246E0,7.246387005E-1,7.049257755E0
1.554199688E1,-2.036900520E0,8.003433347E-1,7.110185146E0
1.556199688E1,-1.992234349E0,7.562612891E-1,7.369927406E0
1.558199688E1,-1.941142082E0,6.078112125E-1,7.989287853E0
1.560199688E1,-1.830453396E0,2.824487686E-1,8.619709969E0
1.562199688E1,-1.829677582E0,7.539819926E-2,9.273462296E0
1.564199688E1,-1.844416380E0,-1.169232354E-1,9.884117126E0
1.566200156E1,-1.813780189E0,-2.633909285E-1,1.037551308E1
1.568200313E1,-1.519810557E0,-5.392412543E-1,1.065970421E1
1.570400469E1,-1.271819115E0,-8.223508596E-1,1.087410069E1
1.572599688E1,-1.250520229E0,-8.894267678E-1,1.144426441E1
1.574599688E1,-1.486942887E0,-1.041439414E0,1.184239197E1
1.576599688E1,-2.127362967E0,-9.541755915E-1,1.119507599E1
1.578600156E1,-2.537135601E0,-9.246885777E-1,9.875344276E0
1.580799688E1,-2.263880730E0,-9.063394070E-1,9.314229965E0
1.582799688E1,-1.518737912E0,-1.427624106E0,1.040031624E1
1.584799688E1,-1.557370782E0,-1.699136257E0,1.224672508E1
1.586799688E1,-1.951025367E0,-2.508194447E0,1.345060635E1
1.588799688E1,-2.829553604E0,-2.515271664E0,1.294877148E1
1.590799688E1,-2.706127882E0,-2.228407860E0,1.172433853E1
1.592800156E1,-1.161072850E0,-2.091909885E0,1.107856560E1
1.594999688E1,-1.309053600E-1,-1.733880877E0,1.093100548E1
1.597000156E1,-4.142256081E-1,-1.176395774E0,1.086770344E1
1.599199688E1,-8.102361560E-1,-8.681854010E-1,9.527073860E0
1.601199688E1,-9.678704143E-1,-4.176445305E-1,7.679622173E0
1.603199688E1,-7.724460959E-1,2.135627903E-2,6.568674088E0
1.605200000E1,-3.781976700E-1,2.036699504E-1,6.273727894E0
1.607399688E1,-1.253316700E-1,2.878979743E-1,6.189720154E0
1.609400469E1,-4.358404875E-2,7.667191327E-2,6.078533173E0
1.611599688E1,-3.342688680E-1,-1.358374357E-1,6.247171402E0
1.613600000E1,-5.840415359E-1,-4.182191491E-1,6.668206215E0
1.615799688E1,-7.577936053E-1,-8.183285594E-1,6.922853470E0
1.617799688E1,-9.860376120E-1,-9.556311965E-1,7.128486156E0
1.619799688E1,-9.391208291E-1,-1.373744965E0,7.607173920E0
1.621800000E1,-7.391570807E-1,-1.848256707E0,8.197297096E0
1.623999688E1,-4.222797155E-1,-2.095213890E0,8.998386383E0
1.625999688E1,-3.479924202E-1,-2.076969862E0,9.677277565E0
1.627999688E1,-1.511890590E-1,-1.938795805E0,1.025233555E1
1.629999688E1,7.778186798E-1,-2.228283405E0,1.112422752E1
1.632000156E1,1.136805296E0,-2.141900539E0,1.243480396E1
1.634199688E1,8.190180659E-1,-2.400264025E0,1.415292072E1
1.636199688E1,-4.123294055E-1,-1.827350497E0,1.507398033E1
1.638199688E1,-8.947227597E-1,-1.157567739E0,1.477472401E1
1.640200000E1,1.005296588E0,-1.333196878E0,1.319283676E1
1.642399688E1,3.205883980E0,-8.828762174E-1,1.135298824E1
1.644399688E1,4.139325619E0,-7.251175046E-1,9.590722084E0
1.646399688E1,2.664229155E0,-3.231885135E-1,8.755883217E0
1.648399844E1,9.650740027E-1,-3.307350278E-1,7.804225922E0
1.650599688E1,-2.758407593E-1,-8.319371939E-2,7.389636517E0
1.652599844E1,-4.686218798E-1,-6.179913506E-2,7.233563423E0
1.654799688E1,-1.078348458E-1,-7.666233927E-2,6.979480743E0
1.656799688E1,4.730942473E-2,-2.780625820E-1,6.980859756E0
1.658799688E1,-2.333388925E-1,-2.963159680E-1,7.209065914E0
1.660800312E1,-5.094670057E-1,-3.812622726E-1,7.512689114E0
1.662800312E1,-6.461950541E-1,-4.956093132E-1,7.945474625E0
1.664999844E1,-6.196576953E-1,-5.664968491E-1,8.341341019E0
1.666999844E1,-5.360617638E-1,-5.529073477E-1,8.517391205E0
1.669200000E1,-5.390114188E-1,-5.523806214E-1,8.725111961E0
1.671399688E1,-1.060047150E0,-4.844906628E-1,9.091013908E0
1.673399688E1,-1.477164984E0,-5.659796596E-1,9.794343948E0
1.675399688E1,-1.418803930E0,-7.200609446E-1,1.064127827E1
1.677399844E1,-1.019125462E0,-7.462631464E-1,1.130737400E1
1.679599688E1,-6.674747467E-1,-7.850012779E-1,1.155058670E1
1.681599688E1,-1.164568424E0,-6.332567930E-1,1.115928841E1
1.683599688E1,-2.067479134E0,-4.536341727E-1,1.011438179E1
1.685599688E1,-2.084995270E0,-4.509814084E-1,9.810796738E0
1.687599688E1,-9.693644047E-1,-1.217288852E0,1.023131466E1
1.689599688E1,-1.317270637E0,-1.170247436E0,1.178103352E1
1.691600000E1,-2.382201910E0,-1.305328369E0,1.331365681E1
1.693799688E1,-3.155509949E0,-1.764718175E0,1.328529072E1
1.695800469E1,-3.017441273E0,-1.574532390E0,1.264572334E1
1.697999688E1,-1.543637514E0,-1.495188594E0,1.216845322E1
1.699999688E1,-7.239204049E-1,-1.123493552E0,1.204316998E1
1.701999688E1,-5.396722555E-1,-7.417620420E-1,1.174698830E1
1.704000469E1,-6.695336699E-1,-3.638899326E-1,1.075717640E1
1.706199688E1,-7.867634296E-1,1.546845883E-1,9.133535385E0
1.708199688E1,-5.367512703E-1,5.220987797E-1,7.958451271E0
1.710199688E1,-2.222106457E-1,6.674076319E-1,7.166362762E0
1.712199688E1,3.941813484E-2,5.644953251E-1,6.672822475E0
1.714199688E1,1.337975562E-1,1.731103659E-1,6.548994064E0
1.716199688E1,-7.738059852E-3,-1.458068788E-1,6.626106262E0
1.718200312E1,-2.795565724E-1,-5.354584455E-1,6.546111107E0
1.720399688E1,-5.829018950E-1,-9.498276711E-1,6.162119865E0
1.722399688E1,-6.695911884E-1,-1.038001299E0,5.946124554E0
1.724399688E1,-6.167654991E-1,-1.268246889E0,5.982410908E0
1.726400156E1,-5.375844836E-1,-1.530172586E0,6.373738289E0
1.728599688E1,-5.231905580E-1,-1.920686007E0,6.979385376E0
1.730600312E1,-7.675140500E-1,-1.991583109E0,7.843921661E0
1.732799844E1,-5.896727443E-1,-2.049043894E0,8.672248840E0
1.734800312E1,5.241481662E-1,-2.233273029E0,9.431900024E0
1.736999688E1,1.542756557E0,-2.377566814E0,1.073566723E1
1.738999688E1,1.823452711E0,-2.582721233E0,1.282066345E1
1.740999688E1,1.518776298E0,-2.754088640E0,1.432697010E1
1.743000313E1,1.072094798E0,-2.547718048E0,1.443038940E1
1.745199688E1,6.951612830E-1,-2.036412239E0,1.336983490E1
1.747199688E1,1.203019261E0,-1.362396479E0,1.207322121E1
1.749199688E1,1.914058924E0,-9.435548782E-1,1.105589676E1
1.751199688E1,1.981977701E0,-4.288781285E-1,1.032460213E1
1.753199688E1,1.519590259E0,-3.254103065E-1,9.152410507E0
1.755199688E1,7.516548634E-1,-1.280802190E-1,7.896882057E0
1.757200156E1,-3.936067689E-3,1.556901485E-1,7.243982792E0
1.759399688E1,-3.692816794E-1,1.242207661E-1,6.997753620E0
1.761399844E1,-6.413300037E-1,7.595365494E-2,7.076733589E0
1.763599688E1,-9.283373356E-1,-6.481582671E-2,7.184530258E0
1.765599844E1,-1.359916091E0,-7.664319128E-2,7.430721283E0
1.767799688E1,-1.702794552E0,-1.277450323E-1,7.745213985E0
1.769799688E1,-1.650064707E0,-2.455780655E-1,8.212389946E0
1.771799688E1,-1.458116651E0,-4.544290602E-1,8.908134460E0
1.773800000E1,-1.377441645E0,-6.253271699E-1,9.508131981E0
1.775999688E1,-1.478687763E0,-6.901238561E-1,1.002170658E1
1.778000625E1,-1.485812902E0,-7.394922972E-1,1.034528828E1
1.780199688E1,-9.284235239E-1,-1.029430151E0,1.091850758E1
1.782199688E1,-8.277233690E-2,-1.460051298E0,1.199701023E1
1.784199688E1,1.065611243E-1,-1.753254771E0,1.287287617E1
1.786200469E1,-2.891142368E-1,-1.849702716E0,1.286560631E1
1.788399688E1,-1.016156673E0,-1.957250357E0,1.126122379E1
1.790400469E1,-1.110191226E0,-1.805764437E0,1.049081707E1
1.792599688E1,-5.270212293E-1,-1.992445111E0,1.161010647E1
1.794600156E1,-5.691687465E-1,-2.155806065E0,1.298743343E1
1.796799688E1,-1.410721064E0,-2.593370676E0,1.279117584E1
1.798799688E1,-2.080532551E0,-2.434750080E0,1.199437618E1
1.800799688E1,-1.844061971E0,-2.360424280E0,1.141144562E1
1.802802031E1,-1.251813054E0,-2.323237658E0,1.145263481E1
1.804999688E1,-7.587608099E-1,-2.341596127E0,1.183049774E1
1.806999844E1,-7.444913983E-1,-2.061292648E0,1.176609421E1
1.809199688E1,-6.661244035E-1,-1.476762772E0,1.090670872E1
1.811200312E1,-2.332048118E-1,-9.796115756E-1,9.821619034E0
1.813399688E1,4.430326521E-1,-7.231733799E-1,8.479649544E0
1.815599688E1,9.175059795E-1,-5.485307574E-1,7.133964539E0
1.817599688E1,1.106255293E0,-4.974289238E-1,6.085093498E0
1.819599688E1,9.584180713E-1,-5.353435278E-1,5.565015793E0
1.821599688E1,7.394443750E-1,-6.379973292E-1,5.517820835E0
1.823600156E1,6.243119836E-1,-7.590768337E-1,5.723578453E0
1.825799688E1,5.872498155E-1,-9.397146106E-1,5.985791683E0
1.827800000E1,5.658934712E-1,-1.251152396E0,6.143866062E0
1.829999688E1,6.129156351E-1,-1.577118158E0,6.654798508E0
1.831999844E1,4.919318259E-1,-1.957173705E0,7.171429157E0
1.834199688E1,2.826881707E-1,-2.293760300E0,7.609079361E0
1.836199688E1,-1.101332754E-1,-2.077037096E0,8.092631340E0
1.838199844E1,-3.426772952E-1,-1.569992900E0,7.986779213E0
1.840399688E1,4.433965683E-1,-1.699289441E0,7.632724762E0
1.842399688E1,1.108984590E0,-1.699069262E0,8.622104645E0
1.844399844E1,1.077706814E0,-1.273859024E0,1.141565895E1
1.846599688E1,8.668638468E-1,-2.500667095E0,1.559062004E1
1.848599688E1,2.317587147E-3,-2.206113338E0,1.618361664E1
1.850599844E1,-2.687443495E-1,-1.581054211E0,1.456659126E1
1.852799688E1,1.291796207E0,-9.065788388E-1,1.211644173E1
1.854799688E1,2.513595819E0,-3.906570971E-1,1.042050362E1
1.856799844E1,2.573585033E0,1.807909608E-1,9.606178284E0
1.858999688E1,1.262529492E0,2.632568479E-1,9.462430954E0
1.860999688E1,-2.686294317E-1,2.445916384E-1,9.342500687E0
1.862999844E1,-1.196813583E0,4.059991539E-1,9.284532547E0
1.865200000E1,-1.298117042E0,5.144852400E-1,8.816312790E0
1.867399688E1,-1.046620488E0,6.618340015E-1,7.977240562E0
1.869399688E1,-8.736250401E-1,7.108767629E-1,7.427397728E0
1.871399688E1,-1.128559709E0,6.742933989E-1,7.393630028E0
1.873400156E1,-1.555790544E0,5.615456700E-1,7.420694351E0
1.875599688E1,-1.844263196E0,3.685251176E-1,8.019713402E0
1.877600156E1,-1.588677406E0,5.458780006E-2,8.775591850E0
1.879799688E1,-1.409638882E0,-1.397735029E-1,9.520131111E0
1.881800312E1,-1.238922715E0,-4.384070635E-1,9.745061874E0
1.883999688E1,-9.060041904E-1,-6.891374588E-1,9.824175835E0
1.885999844E1,-6.669480205E-1,-9.575178623E-1,1.040503788E1
1.888199688E1,-3.673854768E-1,-1.347475886E0,1.130015373E1
1.890199688E1,-4.029441476E-1,-1.743859887E0,1.138565540E1
1.892199688E1,-8.448371291E-1,-2.150223017E0,1.109689522E1
1.894200313E1,-1.165296316E0,-2.215460300E0,1.207444763E1
1.896399688E1,-9.503256679E-1,-2.711308956E0,1.356208038E1
1.898400312E1,-1.293673396E0,-2.705265760E0,1.451657104E1
1.900599844E1,-1.399928093E0,-2.732301235E0,1.374876118E1
1.902799688E1,-1.004042029E0,-2.188032150E0,1.211384678E1
1.904799688E1,-4.385124147E-1,-1.551069260E0,1.068844414E1
1.906799688E1,5.283524469E-2,-1.282094955E0,9.657989502E0
1.908799688E1,2.567541972E-2,-9.670276642E-1,9.113347054E0
1.910800469E1,-1.831468493E-1,-5.363682508E-1,8.572754860E0
1.912999844E1,-1.967938095E-1,-1.608903520E-3,7.808516502E0
1.915000000E1,1.243165284E-1,2.747777402E-1,7.278871059E0
1.917199688E1,4.074356556E-1,3.186778128E-1,7.069866657E0
1.919199688E1,5.173199177E-1,7.635588199E-2,6.898987770E0
1.921199688E1,3.131903112E-1,-1.833958477E-1,6.820151806E0
1.923200313E1,1.385764033E-1,-5.065843463E-1,6.841670990E0
1.925399688E1,1.021749526E-1,-7.929883599E-1,6.892006397E0
1.927399688E1,7.921934873E-2,-9.578530788E-1,7.091999054E0
1.929399688E1,-3.080858849E-2,-1.177410841E0,7.275787830E0
1.931399688E1,-5.612104535E-1,-1.370651722E0,7.714567661E0
1.933399688E1,-9.879338145E-1,-1.702248693E0,7.894793987E0
1.935399688E1,-8.729642630E-1,-2.001791954E0,7.814683914E0
1.937399844E1,-7.370502353E-1,-1.981393456E0,8.452873230E0
1.939599688E1,-7.104553580E-1,-2.200903416E0,1.018583393E1
1.941599688E1,-1.073320627E0,-2.453989744E0,1.055748177E1
1.943599688E1,-8.452777267E-1,-2.912460089E0,1.078681755E1
1.945600000E1,-4.236204922E-1,-2.733795166E0,1.222936249E1
1.947799688E1,-7.209228277E-1,-2.582778454E0,1.518412304E1
1.949799688E1,-1.532729626E0,-2.365001917E0,1.545438099E1
1.951799688E1,-1.795344830E0,-1.672809601E0,1.351883125E1
1.953799688E1,-8.019043803E-1,-1.244190097E0,1.179777336E1
1.955799688E1,9.173144698E-1,-8.794094324E-1,9.844747543E0
1.957799688E1,2.120247602E0,-4.170507789E-1,8.848778725E0
1.959800469E1,2.474579811E0,-3.791266084E-1,8.462995529E0
1.961999688E1,1.568575621E0,-2.228235602E-1,7.806065083E0
1.964000000E1,3.586705625E-1,-1.814804822E-1,7.596917152E0
1.966199688E1,-5.646676421E-1,-1.574044079E-1,7.647109032E0
1.968199688E1,-6.297324896E-1,-1.376091242E-1,7.629899502E0
1.970199688E1,-4.257848263E-1,-7.477571070E-2,7.436936378E0
1.972200312E1,-5.311009288E-1,-1.924938173E-3,7.048702240E0
1.974399688E1,-8.612614274E-1,-1.613500416E-1,6.894486904E0
1.976400156E1,-1.025235415E0,-2.543599904E-1,7.200245380E0
1.978599688E1,-1.311256289E0,-2.599145472E-1,7.894976139E0
1.980600156E1,-1.623086810E0,-3.377452493E-1,8.871705055E0
1.982800313E1,-1.739492893E0,-5.450831056E-1,9.948826790E0
1.984999844E1,-1.506498814E0,-7.302027345E-1,1.071989441E1
1.987200313E1,-1.065448523E0,-8.444637060E-1,1.102223396E1
1.989399688E1,-5.672342777E-1,-1.118858457E0,1.138362503E1
1.991400000E1,-4.424867928E-1,-1.248116493E0,1.185863400E1
1.993599688E1,-1.010937333E0,-1.191804886E0,1.186918736E1
1.995599688E1,-1.655245781E0,-9.773802161E-1,1.071156216E1
1.997599688E1,-1.509036660E0,-8.895800114E-1,1.064686108E1
1.999600469E1,2.554421723E-1,-1.738688469E0,1.197838306E1
2.001799688E1,6.497863680E-2,-2.329223156E0,1.336654091E1
2.003800313E1,-1.452274919E0,-2.258747339E0,1.292594051E1
2.005999844E1,-1.887607813E0,-2.314877033E0,1.100952530E1
2.008199844E1,-1.498712778E0,-1.803140402E0,1.021755314E1
2.010400313E1,-8.144021034E-1,-1.647230029E0,1.064791489E1
2.012599688E1,-9.062052965E-1,-1.484663606E0,1.079838562E1
2.014600469E1,-1.214702964E0,-1.141392589E0,1.022149849E1
2.016800313E1,-1.166962624E0,-6.355647445E-1,9.111536980E0
2.018800469E1,-5.538842082E-1,-2.817975581E-1,8.179732323E0
2.020999844E1,2.091766149E-1,-7.176858932E-2,7.411845207E0
2.023199844E1,6.145149469E-1,3.676536307E-2,6.567936897E0
2.025399844E1,8.660402298E-1,-7.521624118E-2,6.103337288E0
2.027599688E1,1.004262209E0,-2.906752229E-1,5.955519199E0
2.029599688E1,7.768992782E-1,-6.986376047E-1,6.336159229E0
2.031599688E1,2.088893056E-1,-1.024469376E0,6.706676483E0
2.033600312E1,-5.563550591E-1,-1.333608627E0,7.019215107E0
2.035799688E1,-1.252675056E0,-1.366801858E0,7.271755219E0
2.037800313E1,-1.302206278E0,-1.528381705E0,7.461884022E0
2.040000312E1,-1.018608332E0,-1.749673009E0,7.587742329E0
2.042199688E1,-4.835329950E-1,-2.150117636E0,8.156988144E0
2.044199688E1,-3.233800232E-1,-2.057193756E0,8.671271324E0
2.046200313E1,-4.938759282E-2,-2.296020269E0,8.935352325E0
2.048399844E1,4.912518859E-1,-2.743965864E0,1.025473881E1
2.050599844E1,1.201314688E0,-2.824420691E0,1.210012341E1
2.052800156E1,6.957550347E-2,-2.855439901E0,1.417468929E1
2.054999688E1,-1.356660008E0,-2.345312119E0,1.535404396E1
2.056999844E1,-4.895567894E-1,-2.641541958E0,1.478071880E1
2.059199688E1,1.699260712E0,-2.577731609E0,1.332320595E1
2.061199688E1,2.708857059E0,-2.141038895E0,1.148674774E1
2.063199688E1,1.894349813E0,-1.688745379E0,1.032109642E1
2.065199688E1,5.998049974E-1,-1.543656707E0,9.736049652E0
2.067199688E1,-2.404161543E-1,-1.175189137E0,9.316805840E0
2.069199688E1,-4.453215003E-1,-6.342335939E-1,9.196339607E0
2.071199688E1,-1.849664450E-1,-3.931949437E-1,9.177223206E0
2.073199688E1,-8.207323030E-3,-3.254198655E-2,9.097526550E0
2.075200312E1,7.554185390E-2,1.989006996E-1,8.751381874E0
2.077399688E1,1.649126038E-2,4.366353452E-1,8.261835098E0
2.079399844E1,3.246537223E-2,6.835924387E-1,8.160014153E0
2.081599688E1,-2.357809804E-2,8.227242827E-1,8.354978561E0
2.083599688E1,-1.146152243E-1,7.992228270E-1,8.720487595E0
2.085599688E1,-1.425220370E-1,8.532934785E-1,8.862108231E0
2.087600156E1,-2.945155203E-1,9.142976999E-1,9.070663452E0
2.089799688E1,-5.264562368E-1,7.793509364E-1,9.234540939E0
2.091800313E1,-9.752732515E-1,5.918562412E-1,9.495949745E0
2.093999688E1,-1.104866624E0,2.338656187E-1,1.007039547E1
2.096000000E1,-9.597014189E-1,-1.400799602E-1,1.037791634E1
2.098199688E1,-6.605793834E-1,-3.761003315E-1,1.001817322E1
2.100199688E1,-1.025676057E-1,-8.585128188E-1,9.294751167E0
2.102199688E1,1.810974181E-1,-1.072535276E0,9.205130577E0
2.104199688E1,1.013226137E-1,-7.294079065E-1,1.063456535E1
2.106199688E1,-4.611423910E-1,-1.392994404E0,1.255204296E1
2.108199688E1,-1.337113738E0,-1.543886542E0,1.190417194E1
2.110199688E1,-2.082246780E0,-1.354543567E0,1.008859158E1
2.112199688E1,-1.818683505E0,-7.676193714E-1,8.874386787E0
2.114200156E1,-8.494915366E-1,-5.188714266E-1,8.512372971E0
2.116399688E1,-2.464112341E-1,-4.744828939E-1,8.859628677E0
2.118400156E1,-4.216285050E-1,-6.798862219E-1,9.060023308E0
2.120599688E1,-1.221789956E0,-5.786976814E-1,9.109315872E0
2.122599844E1,-1.701750755E0,-4.769058228E-1,8.982824326E0
2.124799688E1,-1.672484040E0,-3.754108250E-1,8.626222610E0
2.126799688E1,-1.352474928E0,-3.453683853E-1,8.195974350E0
2.128799688E1,-1.134276986E0,-3.378984630E-1,7.819328785E0
2.130800313E1,-9.871485233E-1,-3.422463238E-1,7.557125568E0
2.132999688E1,-9.170941710E-1,-4.082784355E-1,7.229503155E0
2.135000156E1,-9.786251783E-1,-3.143778443E-1,6.962673664E0
2.137199531E1,-1.203306675E0,-2.206017524E-1,7.232481003E0
2.139199688E1,-1.506795645E0,-4.036720097E-1,7.842504501E0
2.141199688E1,-1.761107802E0,-6.977757215E-1,8.461060524E0
2.143200312E1,-1.728814721E0,-8.567698598E-1,9.153846741E0
2.145200781E1,-1.222699761E0,-8.451628089E-1,9.867434502E0
2.147399688E1,-5.391933322E-1,-7.047668099E-1,1.016658497E1
2.149399688E1,-1.338933408E-1,-5.584139824E-1,1.039666843E1
2.151399688E1,2.462867498E-1,-3.377069533E-1,1.055489540E1
2.153399688E1,8.370799422E-1,-7.052647471E-1,1.071088314E1
2.155399688E1,8.625255227E-1,-8.146893978E-1,1.221026516E1
2.157400000E1,8.668063283E-1,-1.520021200E0,1.483848667E1
2.159599688E1,5.200780630E-1,-2.115200758E0,1.618673897E1
2.161600000E1,2.633621730E-2,-1.991190553E0,1.458485413E1
2.163799688E1,6.988387704E-1,-1.673393846E0,1.196723557E1
2.165799844E1,1.668174386E0,-1.246756554E0,9.494446754E0
2.167799844E1,1.841849685E0,-7.335163355E-1,8.253867149E0
2.170001094E1,1.275851011E0,-5.650699139E-1,7.736795902E0
2.172199688E1,3.616776764E-1,-5.651082397E-1,7.550047874E0
2.174199688E1,-1.045116931E-1,-6.650230885E-1,7.539331436E0
2.176199688E1,-2.026260793E-1,-6.478901505E-1,7.488593578E0
2.178199844E1,7.852981240E-2,-5.598792434E-1,7.238523960E0
2.180199844E1,5.598984361E-1,-6.440785527E-1,6.888951778E0
2.182399688E1,7.808353901E-1,-7.042879462E-1,6.626987457E0
2.184399688E1,6.400658488E-1,-7.657135725E-1,6.741152763E0
2.186400156E1,5.287067890E-1,-8.084261417E-1,7.279139042E0
2.188599531E1,6.263327599E-1,-9.414479733E-1,8.188218117E0
2.190600000E1,4.728931487E-1,-9.996175170E-1,8.797063828E0
2.192799688E1,-1.959031522E-1,-8.524507284E-1,9.208779335E0
2.194800156E1,-7.943099141E-1,-4.624927342E-1,9.163949966E0
2.196999688E1,-7.739784122E-1,4.741477221E-2,8.866447449E0
2.198999844E1,-3.740221858E-1,3.517656922E-1,8.568052292E0
2.201199688E1,1.282334477E-1,4.474284053E-1,8.324687958E0
2.203199688E1,4.299986362E-2,6.854982376E-1,8.271008492E0
2.205199688E1,-4.486159384E-1,8.997314572E-1,8.692819595E0
2.207200156E1,-8.420024514E-1,1.008935690E0,9.370676041E0
2.209399688E1,-1.343252420E0,1.003132224E0,1.028137207E1
2.211399688E1,-1.737740397E0,8.686929941E-1,1.085526276E1
2.213399688E1,-1.990328670E0,6.652720571E-1,1.143948650E1
2.215399688E1,-1.563375354E0,1.289325505E-1,1.161604404E1
2.217399688E1,-5.836393237E-1,-2.688592970E-1,1.153622150E1
2.219399688E1,4.855345190E-1,-8.558791876E-1,1.157529449E1
2.221399844E1,3.420548141E-1,-6.926808357E-1,1.197353745E1
2.223599688E1,-2.134861797E-1,-1.614946485E0,1.298200321E1
2.225599688E1,-7.929117680E-1,-2.208861828E0,1.395481586E1
2.227599688E1,-8.570092916E-1,-2.424110174E0,1.378013515E1
2.229599688E1,-6.102341413E-1,-2.187208414E0,1.251883125E1
2.231599688E1,-5.649741292E-1,-1.447381139E0,1.086447525E1
2.233599688E1,-5.441637635E-1,-4.072920084E-1,9.242959023E0
2.235599688E1,-4.389912486E-1,3.020429015E-1,8.120385170E0
2.237599688E1,-2.961148620E-1,8.959485888E-1,7.395315647E0
2.239600000E1,-1.646923572E-1,1.282209992E0,6.877756119E0
2.241799688E1,-1.132744700E-1,1.536694407E0,6.681871891E0
2.243799688E1,-2.921692133E-1,1.577759743E0,6.901468277E0
2.245799688E1,-5.536926985E-1,1.477366090E0,7.225356102E0
2.247799844E1,-7.440795898E-1,1.372576714E0,7.055128574E0
2.249999844E1,-6.539043784E-1,1.051686645E0,6.475721836E0
2.252199688E1,-7.624574304E-1,9.435452819E-1,6.046527863E0
2.254199688E1,-8.525273204E-1,9.920901656E-1,6.323115349E0
2.256199688E1,-6.808343530E-1,6.981204748E-1,7.263998508E0
2.258199688E1,-5.239949822E-1,1.978568286E-1,7.461376667E0
2.260199688E1,-8.731079102E-1,2.465070225E-2,7.389847279E0
2.262199688E1,-1.501423120E0,-1.652573794E-1,7.615553379E0
2.264199688E1,-1.847002029E0,-4.655381441E-1,8.361997604E0
2.266200313E1,-1.738592625E0,-1.058495760E0,9.868793488E0
2.268399688E1,-1.092924356E0,-1.400129199E0,1.199671268E1
2.270399688E1,-9.854916930E-1,-1.525604486E0,1.304842758E1
2.272399688E1,-5.332748890E-1,-1.178110003E0,1.297826862E1
2.274400469E1,1.345368981E0,-1.943181992E0,1.260007000E1
2.276599688E1,3.131395578E0,-1.703215957E0,1.249248409E1
2.278599688E1,2.933146000E0,-2.316294432E0,1.308328724E1
2.280599688E1,1.198250055E-1,-1.008916616E0,1.385537910E1
2.282599688E1,-1.615023017E0,2.686389983E-1,1.302640152E1
2.284599688E1,-1.797681570E0,1.145721316E0,1.136518955E1
2.286599688E1,-1.169376016E0,1.659938335E0,9.583606720E0
2.288599844E1,-2.480201423E-1,1.959836006E0,7.750241756E0
2.290799688E1,1.301296502E-1,1.930569291E0,7.151173592E0
2.292800000E1,-4.778060317E-1,1.475747705E0,7.486773968E0
2.294999688E1,-1.429434180E0,1.121511102E0,7.813237667E0
2.296999688E1,-1.982130885E0,8.441284895E-1,7.911620617E0
2.298999844E1,-2.048124552E0,4.755746424E-1,7.362812042E0
2.300999844E1,-2.310203552E0,6.615179181E-1,6.876013279E0
2.303199688E1,-2.300406456E0,8.506311178E-1,6.926262856E0
2.305200313E1,-2.630059242E0,1.059673667E0,7.522313595E0
2.307399688E1,-2.479578972E0,1.005133748E0,7.710775375E0
2.309400469E1,-2.281626225E0,1.270631552E0,7.689639568E0
2.311599688E1,-2.184010029E0,1.853533506E0,8.127549171E0
2.313599688E1,-2.106035709E0,2.010047197E0,9.945590973E0
2.315599688E1,-2.466899157E0,2.165258646E0,1.141185760E1
2.317600000E1,-3.053909779E0,1.878720403E0,1.213640022E1
2.319799688E1,-2.732033253E0,1.445456147E0,1.179375076E1
2.321800156E1,-1.049330711E0,6.339558959E-1,1.181448555E1
2.323999688E1,-6.001497507E-1,1.715416789E0,1.292660141E1
2.325999844E1,-6.586449146E-1,-1.100087836E-1,1.502985096E1
2.328199688E1,-1.651979923E0,-1.026049614E0,1.532794762E1
2.330199688E1,-2.007892370E0,-1.183205009E0,1.324872684E1
2.332199688E1,-1.504803658E0,-5.440009236E-1,1.164695835E1
2.334200000E1,-5.543056130E-1,2.036986686E-2,1.084201717E1
2.336399531E1,4.046200812E-1,-1.709747314E-1,1.033971500E1
2.338399688E1,-4.731421471E-1,4.804013669E-1,1.108441639E1
2.340399688E1,-1.468775749E0,7.258261740E-2,1.142281246E1
2.342399688E1,-1.817428946E0,3.201526776E-2,9.544044495E0
2.344399688E1,-6.350667477E-1,-5.035101771E-1,7.807693005E0
2.346399688E1,-4.020247757E-1,-2.449076772E-1,6.993836403E0
2.348400000E1,-5.891460180E-1,-4.156430066E-1,7.807213783E0
2.350599844E1,-2.080848515E-1,-9.332310557E-1,8.120691299E0
2.352799688E1,3.290399313E-1,-1.054119110E0,7.823752880E0
2.354799688E1,1.304025888E0,-1.710101724E0,7.966169834E0
2.356799688E1,1.888383508E0,-2.102396488E0,8.251539230E0
2.358799688E1,1.180274367E0,-1.962948442E0,8.549483299E0
2.360800156E1,-1.696052589E-2,-1.472903371E0,8.855903625E0
2.362999688E1,4.823837578E-1,-1.735815406E0,9.324372292E0
2.365000312E1,1.705868602E0,-2.571918488E0,9.951422691E0
2.367000625E1,2.231214046E0,-2.449460030E0,1.088032532E1
2.369199844E1,1.875579357E0,-1.360768437E0,1.131948853E1
2.371399688E1,1.456766367E0,-3.137170374E-1,1.168091679E1
2.373399688E1,1.698638201E0,4.501099139E-2,1.137289810E1
2.375599688E1,2.261246920E0,5.488467962E-2,1.020273685E1
2.377599688E1,2.172278404E0,1.985942423E-1,9.188745499E0
2.379599688E1,1.346192598E0,4.258518815E-1,8.688941002E0
2.381600000E1,5.154907703E-1,5.068429112E-1,8.216766357E0
2.383799688E1,-1.411812901E-1,5.588641167E-1,7.843691826E0
2.385800469E1,-7.821570039E-1,7.458034158E-1,7.813553810E0
2.387999688E1,-1.917832136E0,9.811726213E-1,8.034317970E0
2.389999688E1,-2.802288532E0,8.682620525E-1,8.298503876E0
2.391999688E1,-3.239508152E0,7.578893304E-1,8.492510796E0
2.394000156E1,-3.469954729E0,9.515898228E-1,8.795128822E0
2.396199688E1,-3.187937021E0,1.329624772E0,9.513523102E0
2.398200313E1,-2.070247173E0,1.215995908E0,1.016042709E1
2.400399844E1,-1.642920375E0,1.157682776E0,1.020139694E1
2.402400000E1,-1.634923697E0,8.563101888E-1,1.007345963E1
2.404599688E1,-1.694041371E0,7.314573526E-1,1.057843590E1
2.406599688E1,-1.536751866E0,5.710362792E-1,1.134261703E1
2.408599688E1,-1.132237196E0,2.543216944E-1,1.175672722E1
2.410599844E1,-1.064078927E0,-2.335783280E-2,1.191256142E1
2.412799688E1,-1.181998134E0,-3.443340659E-1,1.211498642E1
2.414799844E1,-1.215066910E0,-7.279139161E-1,1.186018562E1
2.416800781E1,-1.128846884E0,-1.166033745E0,1.100181675E1
2.419000156E1,-9.231563210E-1,-1.810323000E0,1.114342880E1
2.421199688E1,-1.015649080E0,-2.077620983E0,1.254937077E1
2.423199688E1,-1.205097556E0,-2.112471104E0,1.348989010E1
2.425199688E1,-1.220554471E0,-2.060526609E0,1.262464428E1
2.427199844E1,-1.196918964E0,-1.602132678E0,1.114248085E1
2.429399688E1,-7.351922989E-1,-1.076452255E0,9.948636055E0
2.431399688E1,-5.096872449E-1,-1.010544658E0,9.564050674E0
2.433399688E1,-9.285863638E-1,-8.584362268E-1,9.365437508E0
2.435399688E1,-1.431732655E0,-4.831020236E-1,9.100551605E0
2.437399688E1,-1.347523808E0,-9.536584467E-2,8.605431557E0
2.439399688E1,-8.321287036E-1,3.545525372E-1,8.223469734E0
2.441400469E1,-3.783700466E-1,5.958688855E-1,7.789525986E0
2.443599688E1,-8.808746934E-2,5.141404271E-1,7.254277706E0
2.445600000E1,3.098097071E-2,3.089765310E-1,7.411461830E0
2.447799688E1,3.863475323E-1,4.164953157E-2,8.387568474E0
2.449799688E1,4.728739858E-1,-1.975886822E-1,9.014696121E0
2.451799688E1,4.131147265E-1,-4.325843453E-1,8.611196518E0
2.453799688E1,4.116973579E-1,-2.880128920E-1,8.328546524E0
2.455799688E1,5.659701824E-1,-2.887886167E-1,8.212342262E0
2.457799688E1,2.617245615E-1,-2.349478006E-1,8.258635521E0
2.459799688E1,5.636908486E-2,-3.931374848E-1,8.710517883E0
2.461799688E1,1.002883241E-1,-5.738901496E-1,9.302029610E0
2.463799844E1,-4.161122441E-2,-6.488669515E-1,9.720985413E0
2.465999844E1,-3.776517808E-1,-6.608762741E-1,1.002326775E1
2.468000156E1,-2.903687656E-1,-7.796957493E-1,9.780495644E0
2.470001094E1,1.696148217E-1,-9.018862247E-1,8.942841530E0
2.472199688E1,-3.545333818E-2,-2.735136151E-1,8.449721336E0
2.474199688E1,-4.335228801E-1,2.442660332E-1,9.575561523E0
2.476200469E1,-7.746679187E-1,-2.541588843E-1,1.114290237E1
2.478399688E1,-1.399468422E0,-3.206602037E-1,1.172367764E1
2.480399688E1,-1.229939699E0,-4.846822098E-2,1.113762474E1
2.482399688E1,8.621041477E-2,2.296518236E-1,1.040606213E1
2.484399688E1,1.056561112E0,3.063907921E-1,9.693738937E0
2.486399688E1,9.470025897E-1,4.403894544E-1,8.837850571E0
2.488399688E1,1.466113329E-1,6.635003090E-1,8.194192886E0
2.490400156E1,-5.126847625E-1,7.845990658E-1,7.848145485E0
2.492599688E1,-8.954314590E-1,8.070088029E-1,7.866283894E0
2.494599844E1,-9.446657896E-1,6.617573500E-1,7.992237568E0
2.496799688E1,-1.070533872E0,6.346454024E-1,8.075000763E0
2.498799688E1,-1.175495625E0,6.784496903E-1,8.067856789E0
2.500799688E1,-1.086574912E0,5.610189438E-1,8.415226936E0
2.502800156E1,-9.263644814E-1,4.894801676E-1,9.104651451E0
2.504999688E1,-5.497087240E-1,2.483649105E-1,9.948099136E0
2.507000156E1,-1.666747481E-1,1.453567743E-1,1.037382698E1
2.509199688E1,1.669812053E-1,1.554603130E-1,1.068754387E1
2.511199844E1,1.784925163E-1,1.606030464E-1,1.087771130E1
2.513399688E1,9.679278731E-2,5.967308581E-2,1.081688881E1
2.515399688E1,1.908657551E-1,-8.065586537E-2,1.092855358E1
2.517399688E1,3.591589928E-1,-2.037657201E-1,1.140999889E1
2.519400000E1,1.990922391E-1,-5.022556186E-1,1.172546864E1
2.521599688E1,-5.920382142E-1,-4.985876977E-1,1.114389801E1
2.523600312E1,-1.271522164E0,-4.570722580E-1,1.010702610E1
2.525799688E1,-1.225362062E0,-2.853409648E-1,9.548181534E0
2.527799688E1,-2.955115438E-1,-7.078888416E-1,1.040510464E1
2.529799688E1,-9.419363737E-1,-1.008964419E0,1.206302261E1
2.531800000E1,-2.291365862E0,-1.138711095E0,1.280522442E1
2.533999688E1,-2.656769037E0,-1.365901589E0,1.142497730E1
2.536000625E1,-2.387708664E0,-8.977777958E-1,1.030514240E1
2.538199688E1,-1.158496737E0,-7.339281440E-1,1.056291103E1
2.540200469E1,-8.746497631E-1,-5.660467744E-1,1.097247410E1
2.542399688E1,-1.017315388E0,-2.703915834E-1,1.044209099E1
2.544400156E1,-1.391433477E0,1.165497396E-2,9.474919319E0
2.546599688E1,-1.732655048E0,2.527031898E-1,8.564768791E0
2.548599688E1,-1.419876575E0,2.543599904E-1,8.052380562E0
2.550599688E1,-7.702625990E-1,2.035262883E-1,7.678243160E0
2.552599844E1,-6.955634803E-2,-8.606676757E-2,7.474851131E0
2.554799688E1,2.312894613E-1,-4.236779511E-1,7.546150208E0
2.556800469E1,1.580077410E-1,-7.872996926E-1,7.946422577E0
2.558999688E1,6.829220802E-2,-1.041956544E0,8.461300850E0
2.560999688E1,1.013226155E-2,-1.153219938E0,8.660259247E0
2.562999688E1,1.854931712E-1,-1.314349771E0,8.547913551E0
2.565000312E1,5.377855897E-1,-1.251621604E0,8.609693527E0
2.567199688E1,7.233649492E-1,-1.433810830E0,8.970969200E0
2.569200469E1,6.878254414E-1,-1.636906147E0,9.544294357E0
2.571399688E1,5.490383506E-1,-1.418717742E0,1.021045589E1
2.573399844E1,6.064704657E-1,-1.001044393E0,1.020875168E1
2.575599688E1,8.413703442E-1,-8.582734466E-1,9.371833801E0
2.577600469E1,1.083309174E0,-5.216007829E-1,8.776607513E0
2.579799688E1,1.302570224E0,-3.981940746E-1,9.666799545E0
2.581799688E1,1.234230161E0,-9.830496311E-1,1.112547302E1
2.583799688E1,3.610743284E-1,-1.302349925E0,1.182672501E1
2.585800156E1,-6.837936044E-1,-1.102482080E0,1.064385414E1
2.587999688E1,-5.413864851E-1,-3.611509800E-1,9.149584770E0
2.590000000E1,3.903793693E-1,-9.344090521E-2,7.870133877E0
2.592199688E1,9.279255271E-1,2.384529114E-1,7.121504784E0
2.594200000E1,4.027717710E-1,3.508367240E-1,7.226553440E0
2.596399688E1,-6.477847695E-1,2.584492862E-1,7.883770943E0
2.598399844E1,-1.598426461E0,3.006542623E-1,8.479822159E0
2.600599844E1,-2.096209764E0,4.028579295E-1,8.760269165E0
2.602799688E1,-1.964385033E0,4.095329940E-1,8.583653450E0
2.604799688E1,-1.732731700E0,6.547183990E-1,8.389138222E0
2.606799688E1,-1.306333899E0,5.886480212E-1,8.521883011E0
2.608799688E1,-9.398007989E-1,4.692539573E-1,8.839795113E0
2.610799844E1,-6.305561066E-1,4.357638657E-1,9.116545677E0
2.612999688E1,-5.259486437E-1,4.089296460E-1,9.310839653E0
2.614999844E1,-4.857547879E-1,3.643017411E-1,9.535482407E0
2.617199688E1,-2.732358575E-1,5.527732894E-2,1.003797722E1
2.619199688E1,-2.898707986E-1,-2.563807070E-1,1.051693344E1
2.621199688E1,-1.365748495E-1,-7.421642542E-1,1.128586388E1
2.623200000E1,8.954314142E-2,-1.047032237E0,1.245175457E1
2.625399688E1,-7.529285550E-2,-1.259800196E0,1.368772793E1
2.627400312E1,-5.166974664E-1,-1.388215542E0,1.354204464E1
2.629599688E1,-5.463663936E-1,-1.088365793E0,1.234860229E1
2.631599688E1,7.600153983E-2,-1.179881692E0,1.236133003E1
2.633599688E1,1.754471101E-2,-1.422625065E0,1.282199383E1
2.635600312E1,-1.531293035E0,-1.437507391E0,1.215871429E1
2.637799688E1,-2.159407139E0,-1.279959321E0,1.051857090E1
2.639800625E1,-1.977620244E0,-9.712414742E-1,9.780428886E0
2.641999844E1,-1.313583493E0,-9.788549542E-1,1.000211239E1
2.644199688E1,-1.203479052E0,-9.595193863E-1,1.053146076E1
2.646199688E1,-1.330093980E0,-8.600738645E-1,1.044849682E1
2.648199688E1,-1.214453936E0,-8.509663343E-1,9.596794128E0
2.650199688E1,-1.120428920E0,-6.566433311E-1,8.699264526E0
2.652200156E1,-1.040644526E0,-4.296442866E-1,8.164687157E0
2.654399688E1,-9.863728285E-1,-1.541291326E-1,7.593996048E0
2.656400156E1,-7.919732332E-1,-1.554986089E-1,7.123123646E0
2.658599688E1,-4.886278510E-1,-2.043115944E-1,6.969549656E0
2.660599844E1,-3.429645896E-1,-1.550772339E-1,6.954983234E0
2.662799688E1,-3.692912459E-1,-1.195089743E-1,7.187106133E0
2.664799688E1,-4.870285094E-1,-1.025101393E-1,7.619613647E0
2.666799688E1,-6.626862884E-1,-1.279748678E-1,8.079339027E0
2.668800156E1,-9.432675838E-1,-8.973468095E-2,8.594493866E0
2.670999844E1,-9.943981171E-1,-1.371398717E-1,9.147105217E0
2.673199688E1,-2.217413783E-1,-5.581458807E-1,9.788980484E0
2.675199688E1,4.000423551E-1,-8.977010846E-1,1.060745335E1
2.677199844E1,7.169580460E-1,-6.999975443E-1,1.117675591E1
2.679399688E1,1.120141625E0,-1.077898264E0,1.106328011E1
2.681400156E1,1.154129744E0,-1.324625611E0,1.007408237E1
2.683599688E1,1.375555038E0,-1.468450069E0,1.008564186E1
2.685599688E1,7.676959634E-1,-1.551538467E0,1.136225891E1
2.687599688E1,-5.629822016E-1,-1.365537763E0,1.213361359E1
2.689599688E1,-6.240630746E-1,-1.138988733E0,1.137615395E1
2.691599688E1,7.390038371E-1,-8.623914719E-1,1.057530403E1
2.693599688E1,2.483773708E0,-5.000721216E-1,9.923764229E0
2.695599688E1,2.474972486E0,-8.464939892E-2,9.282703400E0
2.697599688E1,1.222747564E0,9.979032725E-2,8.427408218E0
2.699599688E1,1.508921683E-1,3.069845140E-1,7.674192429E0
2.701599688E1,-2.515635788E-1,7.060500979E-1,7.704253674E0
2.703599688E1,-1.423783898E-1,8.518186808E-1,7.720562935E0
2.705599688E1,-4.876509681E-2,9.766427875E-1,7.454710960E0
2.707599688E1,-2.155835032E-1,1.020983458E0,7.215089798E0
2.709599688E1,-6.524486542E-1,1.032667160E0,7.165280819E0
2.711599688E1,-8.888425827E-1,9.609942436E-1,7.322550774E0
2.713600313E1,-7.063852549E-1,9.492147565E-1,7.954993725E0
2.715799688E1,-5.306317210E-1,9.993493557E-1,8.889651299E0
2.717800469E1,-5.508196354E-1,9.456522465E-1,9.922327995E0
2.720001094E1,-8.419066668E-1,8.161545992E-1,1.085607624E1
2.722199688E1,-1.351115108E0,8.822633028E-1,1.095308971E1
2.724199688E1,-1.514533639E0,9.229264259E-1,1.120089912E1
2.726199688E1,-1.200807095E0,5.790807605E-1,1.173183727E1
2.728199688E1,-6.751552820E-1,9.685982764E-2,1.192804718E1
2.730201250E1,-3.884448409E-1,-2.348233014E-1,1.144467640E1
2.732399688E1,2.892003953E-1,-9.008040428E-1,1.122984028E1
2.734399688E1,1.862114221E-1,-1.211935282E0,1.243654728E1
2.736399688E1,-8.488019705E-1,-1.794741511E0,1.365666962E1
2.738399688E1,-2.087130785E0,-1.857747316E0,1.270888138E1
2.740399688E1,-2.334317923E0,-1.620175362E0,1.102359390E1
2.742399688E1,-1.916165829E0,-1.105728507E0,1.022000408E1
2.744399844E1,-1.344507098E0,-7.007062435E-1,9.887440681E0
2.746599688E1,-1.118542314E0,-6.955634952E-1,9.544686317E0
2.748599844E1,-1.420518160E0,-3.800651431E-1,8.867730141E0
2.750799688E1,-1.516046882E0,-2.956360206E-2,8.162206650E0
2.752800156E1,-1.381732106E0,2.857048512E-1,7.607872486E0
2.754999688E1,-1.073550463E0,4.893556833E-1,7.352698803E0
2.756999844E1,-8.874922395E-1,4.873158336E-1,7.175498962E0
2.759199688E1,-8.953548074E-1,3.754778802E-1,6.971044064E0
2.761199688E1,-1.043508053E0,3.054713905E-1,7.059351444E0
2.763199688E1,-1.128454328E0,2.133233696E-1,7.324063778E0
2.765200156E1,-1.192628503E0,4.993347079E-2,7.739409924E0
2.767399688E1,-9.873687625E-1,2.036029100E-2,8.062541962E0
2.769399688E1,-6.877009273E-1,-1.276875734E-1,8.200781822E0
2.771399688E1,-7.681843638E-1,-1.103726923E-1,8.373585701E0
2.773399688E1,-9.907110333E-1,-1.068292782E-1,8.977078438E0
2.775399688E1,-9.668552876E-1,-1.513039768E-1,9.885878563E0
2.777399844E1,-4.055011570E-1,-2.809356451E-1,1.039377499E1
2.779399844E1,1.511220075E-2,-2.904262245E-1,1.055156231E1
2.781599688E1,-5.551674962E-2,1.370824128E-1,1.052889442E1
2.783599688E1,-1.134372801E-1,2.964404821E-1,1.046512318E1
2.785599688E1,2.859538794E-1,9.015605599E-2,1.031442165E1
2.787600312E1,1.146870494E0,-1.425124705E-1,1.107364273E1
2.789799688E1,1.626658916E0,-3.230257034E-1,1.230623531E1
2.791800313E1,1.619801998E0,-7.611070871E-1,1.243393230E1
2.793999688E1,3.303998411E-1,-7.947600484E-1,1.126944065E1
2.795999688E1,-7.388889790E-1,-3.668587208E-1,1.031890392E1
2.797999844E1,-3.648859262E-1,-3.798353076E-1,9.554473877E0
2.800000469E1,5.853727460E-1,-3.168773949E-1,9.587437630E0
2.802199688E1,1.039045334E0,-2.396021336E-1,9.605815887E0
2.804200000E1,1.042770624E0,2.635537088E-2,9.174916267E0
2.806399688E1,3.172796071E-1,3.480786085E-1,8.298686981E0
2.808400156E1,-3.151439726E-1,5.971139073E-1,7.463913918E0
2.810599688E1,-5.382453203E-1,7.524592876E-1,7.065749168E0
2.812599688E1,-3.609306812E-1,7.440029979E-1,7.042448521E0
2.814599688E1,-5.632119998E-2,7.671309710E-1,7.103223324E0
2.816600000E1,1.181969494E-1,8.763639927E-1,7.497576714E0
2.818799688E1,3.536618948E-1,6.875285506E-1,8.307075500E0
2.820799688E1,2.465836108E-1,4.332451522E-1,9.312381744E0
2.822799688E1,-1.279940307E-1,3.085742891E-1,9.854045868E0
2.824799688E1,-6.473250985E-1,4.115536809E-1,9.949641228E0
2.826799688E1,-8.337951303E-1,4.754214287E-1,1.001646900E1
2.828799688E1,-6.720428467E-1,5.519401431E-1,1.041907692E1
2.830800156E1,-3.537193537E-1,5.668991208E-1,1.104650211E1
2.832999688E1,-4.721365869E-2,2.173935026E-1,1.161637020E1
2.835000469E1,-2.427720428E-1,6.569689512E-2,1.196820259E1
2.837199688E1,-2.980206609E-1,4.714661837E-1,1.161426258E1
2.839199688E1,1.451077759E-1,2.794895470E-1,1.114022064E1
2.841199688E1,5.502258539E-1,-2.924948335E-1,1.156641674E1
2.843200000E1,4.403894544E-1,-9.084846377E-1,1.255511761E1
2.845399688E1,-6.896545887E-1,-1.730184197E0,1.274732304E1
2.847400469E1,-1.842443585E0,-1.544911385E0,1.174974632E1
2.849599688E1,-1.957135320E0,-1.234268427E0,1.046002769E1
2.851599688E1,-1.450666070E0,-8.291790485E-1,9.617555618E0
2.853599688E1,-5.293483734E-1,-6.090466380E-1,9.207859993E0
2.855600312E1,1.038125902E-2,-1.776689142E-1,9.231926918E0
2.857799688E1,9.840168804E-2,-8.668925613E-2,8.923467636E0
2.859799688E1,-2.817400694E-1,2.225841433E-1,8.316997528E0
2.861800000E1,-6.861494780E-1,4.807940125E-1,7.737246037E0
2.863800312E1,-6.521709561E-1,6.636248231E-1,7.279685020E0
2.865999844E1,-2.918435931E-1,7.900195122E-1,7.216296196E0
2.867999844E1,6.080314517E-2,7.474122643E-1,7.203396320E0
2.870001250E1,2.476753891E-1,5.964148045E-1,7.194049358E0
2.872199688E1,6.750690937E-2,4.265701175E-1,7.578883648E0
2.874199688E1,-8.848969825E-3,8.006210625E-2,8.169610023E0
2.876199688E1,-1.615511477E-1,-1.676515788E-1,8.646620750E0
2.878199688E1,-1.561785638E-1,-3.222787082E-1,8.888856888E0
2.880199688E1,-8.480262756E-2,-3.738881350E-1,9.086407661E0
2.882199688E1,8.860461414E-2,-5.850279331E-1,9.476853371E0
2.884199688E1,3.598963916E-1,-7.533116341E-1,9.693261147E0
2.886199688E1,6.878445148E-1,-7.665084600E-1,9.450105667E0
2.888199844E1,8.652453423E-1,-5.655870438E-1,9.199221611E0
2.890399688E1,1.191603780E0,-6.088742018E-1,9.278565407E0
2.892399688E1,2.322806597E0,-1.309034586E0,9.906929016E0
2.894399688E1,2.983127356E0,-1.953553677E0,1.187477112E1
2.896399844E1,2.048967361E0,-2.162883520E0,1.400349426E1
2.898399844E1,4.890300632E-1,-1.988193035E0,1.465050316E1
2.900600156E1,-6.170241237E-1,-1.754930615E0,1.268401146E1
2.902799688E1,2.349478006E-1,-1.412368298E0,1.119150352E1
2.904799688E1,1.964145660E0,-1.244506121E0,1.016895008E1
2.906799688E1,3.129930496E0,-1.222192168E0,9.217858315E0
2.908800312E1,2.584023714E0,-1.129814267E0,8.645108223E0
2.910999688E1,7.273392677E-1,-8.127740026E-1,7.899668694E0
2.913000469E1,-5.461940169E-1,-4.872966707E-1,7.497049809E0
2.915199688E1,-1.045576692E0,-3.198749423E-1,7.390192032E0
2.917200469E1,-1.127716899E0,-9.986694157E-2,6.981664658E0
2.919399688E1,-1.144438028E0,1.173541844E-1,6.300839901E0
2.921399688E1,-1.126931667E0,2.583248019E-1,6.093128204E0
2.923399688E1,-1.115075469E0,2.675089538E-1,6.725762844E0
2.925400000E1,-1.234977126E0,2.156505287E-1,7.744763851E0
2.927599688E1,-1.306841373E0,1.434318423E-1,8.789775848E0
2.929600000E1,-1.492717743E0,2.256008387E-1,9.508993149E0
2.931799688E1,-1.715598702E0,2.013140619E-1,1.004315948E1
2.933799844E1,-1.619054914E0,1.453471929E-1,1.049080753E1
2.935999688E1,-1.424492598E0,1.510071009E-1,1.094350338E1
2.937999688E1,-1.251123667E0,1.615128517E-1,1.123238754E1
2.939999688E1,-1.164099097E0,-7.660488039E-2,1.154621029E1
2.942000469E1,-1.109741211E0,-3.691475689E-1,1.202100849E1
2.944199688E1,-1.004492164E0,-9.263549447E-1,1.217606735E1
2.946200000E1,-8.793040514E-1,-1.818511128E0,1.253138542E1
2.948399688E1,-1.537527561E0,-2.223514080E0,1.359635544E1
2.950399688E1,-2.349104404E0,-2.393387794E0,1.395767879E1
2.952399688E1,-2.515721798E0,-2.380497217E0,1.253161526E1
2.954400156E1,-2.122182131E0,-2.057787657E0,1.079587650E1
2.956599688E1,-1.442583084E0,-1.391318440E0,9.667881966E0
2.958599844E1,-8.390240669E-1,-1.244937062E0,9.578808784E0
2.960799688E1,-8.151108027E-1,-1.204666495E0,9.906430244E0
2.962799688E1,-1.274337769E0,-9.722757339E-1,9.702397346E0
2.964799688E1,-1.701252699E0,-7.567400932E-1,8.536440849E0
2.966800156E1,-1.673977852E0,-6.741976142E-1,7.199670792E0
2.968999688E1,-1.435946465E0,-5.426985025E-1,6.455045223E0
2.970999844E1,-7.740358114E-1,-7.824442983E-1,6.234031677E0
2.973199688E1,-8.379706182E-3,-1.078195214E0,6.292469501E0
2.975200469E1,4.297113419E-1,-1.311227679E0,6.663283825E0
2.977399688E1,7.628118396E-1,-1.558912635E0,7.158289433E0
2.979400313E1,7.693431973E-1,-1.850746751E0,7.758544922E0
2.981599688E1,6.791392565E-1,-2.200242758E0,8.424688339E0
2.983600156E1,2.535555363E-1,-2.399928808E0,8.910758972E0
2.985799688E1,-1.753896326E-1,-2.640450239E0,9.537330627E0
2.987800156E1,-1.987666339E-1,-2.846217394E0,1.010077381E1
2.989999688E1,-1.648360044E-1,-2.563452721E0,9.869521141E0
2.991999844E1,-1.166455075E-2,-1.978214025E0,9.410744667E0
2.994199688E1,1.141411781E0,-1.898429513E0,8.318500519E0
2.996199844E1,2.686064482E0,-2.115526199E0,7.728396893E0
2.998399844E1,3.150137424E0,-1.656538606E0,9.250601768E0
3.000599688E1,1.510865688E0,-1.980014443E0,1.326382923E1
3.002600313E1,-2.870168984E-1,-2.221225262E0,1.512459373E1
3.004799688E1,-1.887339592E0,-1.094772696E0,1.370694828E1
3.006800312E1,-1.415222168E0,-1.503079832E-1,1.280134678E1
3.008999688E1,7.574391961E-1,7.141137719E-1,1.226997757E1
3.011000313E1,2.508836269E0,1.047262073E0,1.205125332E1
3.013199688E1,2.666508436E0,9.280404449E-1,1.138876724E1
3.015199844E1,1.315259576E0,8.596907854E-1,1.006425667E1
3.017399688E1,5.281225443E-1,7.144393921E-1,8.890196800E0
3.019399688E1,6.580702662E-1,4.979269207E-1,8.288525581E0
3.021399688E1,9.708392620E-1,9.779834747E-2,7.969521999E0
3.023399688E1,8.210292459E-1,-6.629065424E-2,7.566395283E0
3.025399688E1,4.718684256E-1,-2.748447955E-1,7.174149036E0
3.027399688E1,2.031815350E-1,-5.725494027E-1,6.945215225E0
3.029399688E1,-2.937493920E-1,-6.614604592E-1,7.048137188E0
3.031399844E1,-7.267551422E-1,-8.019713759E-1,7.444004059E0
3.033400469E1,-9.524517059E-1,-8.134635687E-1,7.702970505E0
3.035599688E1,-1.196085691E0,-7.148702741E-1,7.847158909E0
3.037600625E1,-1.189401150E0,-8.660880923E-1,7.896316528E0
3.039799844E1,-1.094130993E0,-9.988513589E-1,8.442491531E0
3.041800000E1,-8.309986591E-1,-1.220209718E0,9.170845985E0
3.043999688E1,-3.454546034E-1,-1.753350496E0,9.314191818E0
3.045999688E1,7.178678513E-1,-2.845384359E0,9.318941116E0
3.047999688E1,7.853460908E-1,-2.420882463E0,9.576710701E0
3.050000313E1,1.004798561E-1,-1.778183222E0,1.085511875E1
3.052199844E1,-1.419541359E0,-2.365365982E0,1.269986153E1
3.054199844E1,-2.743688107E0,-2.396710873E0,1.238487053E1
3.056199844E1,-2.796753168E0,-2.331454277E0,1.170779991E1
3.058201094E1,-1.987321496E0,-2.051476479E0,1.129113197E1
3.060399688E1,-8.598248959E-1,-2.010985613E0,1.093806362E1
3.062399844E1,-7.812280059E-1,-1.795651197E0,1.050186920E1
3.064599688E1,-1.111397982E0,-1.362722158E0,9.842524529E0
3.066599844E1,-1.087618828E0,-1.244477272E0,9.475944519E0
3.068799844E1,-8.602557778E-1,-1.199131131E0,9.488776207E0
3.070800156E1,-5.682494044E-1,-1.225946188E0,9.393228531E0
3.072999844E1,-1.223628595E-1,-1.274548411E0,8.717996597E0
3.075000156E1,5.654146522E-2,-1.204944253E0,8.214190483E0
3.077199688E1,9.345047921E-2,-1.305720925E0,8.479774475E0
3.079199844E1,-9.486784786E-2,-1.359533072E0,9.083045959E0
3.081399688E1,-2.514869571E-1,-1.560176730E0,9.284311295E0
3.083399844E1,-1.594251096E-1,-1.690210581E0,9.132011414E0
3.085399844E1,5.942408741E-2,-1.782636404E0,9.079770088E0
3.087599844E1,-1.342380941E-1,-1.793592334E0,9.287712097E0
3.089800156E1,-5.295208097E-1,-1.537795782E0,9.402088165E0
3.091999688E1,-7.924903631E-1,-1.045385122E0,9.312563896E0
3.093999688E1,-7.338036299E-1,-7.235181928E-1,9.322169304E0
3.095999688E1,-6.380069256E-1,-2.426571399E-1,9.410323143E0
3.097999688E1,-5.289461613E-1,-2.234268934E-2,9.609932899E0
3.099999688E1,-8.826943487E-2,7.958326489E-3,1.006892109E1
3.101999688E1,2.461813986E-1,1.724878699E-1,1.120312119E1
3.103999688E1,7.230201960E-1,2.468996644E-1,1.228569221E1
3.105999688E1,9.673340917E-1,4.545248449E-1,1.282357407E1
3.107999688E1,1.306918144E0,6.028599739E-1,1.244520378E1
3.109999688E1,1.788918853E0,8.452872634E-1,1.133665085E1
3.111999688E1,2.413680792E0,8.406521082E-1,1.007762623E1
3.113999844E1,2.612313509E0,8.139711022E-1,9.341256142E0
3.116199688E1,2.230888367E0,7.086454034E-1,9.306674004E0
3.118199688E1,1.493828654E0,7.212676406E-1,1.014532375E1
3.120199688E1,7.344836593E-1,8.570667505E-1,1.083663559E1
3.122199844E1,3.133148253E-1,7.707414031E-1,1.051679897E1
3.124399688E1,3.045424353E-3,9.063106775E-1,9.578300476E0
3.126400000E1,-1.274385750E-1,1.575719833E0,9.112158775E0
3.128599688E1,5.594770610E-2,1.732214451E0,8.679909706E0
3.130599844E1,4.419887960E-1,1.780663610E0,8.985927582E0
3.132799688E1,1.095318556E0,1.724687099E0,9.429486275E0
3.134799844E1,1.348806977E0,1.571237922E0,9.663141251E0
3.136999688E1,9.210685492E-1,1.623019814E0,9.653067589E0
3.138999688E1,7.533212304E-1,1.407694817E0,1.000815487E1
3.140999688E1,9.613677263E-1,1.075197577E0,1.041331291E1
3.143000313E1,8.091156483E-1,1.042952538E0,1.105488205E1
3.145199688E1,4.907155633E-1,6.747435331E-1,1.161005878E1
3.147200469E1,4.823933542E-1,1.770943105E-1,1.138956261E1
3.149399844E1,7.774451971E-1,7.891288400E-2,1.076991367E1
3.151400156E1,1.552860141E0,-1.775252670E-1,1.030488396E1
3.153599688E1,1.718366504E0,1.644529253E-1,9.548669815E0
3.155599688E1,1.164348125E0,4.544769228E-1,8.963498116E0
3.157599688E1,4.103661701E-2,9.527199268E-1,8.895751953E0
3.159599844E1,-9.269104004E-1,1.467712641E0,8.666961670E0
3.161799688E1,-1.309800625E0,1.827235579E0,8.358080864E0
3.163799844E1,-1.451556683E0,2.102156878E0,8.117521286E0
3.165999688E1,-1.224270225E0,2.013150215E0,7.823456287E0
3.168000625E1,-9.599311948E-1,1.922409892E0,7.632102013E0
3.170001094E1,-7.926914692E-1,2.115056992E0,7.309584141E0
3.172199688E1,-6.811120510E-1,2.373956203E0,7.090198517E0
3.174199688E1,-5.153279901E-1,2.280093908E0,7.181513309E0
3.176200469E1,-3.640048504E-1,1.967037797E0,7.339492321E0
3.178399688E1,-3.217136860E-1,1.819277167E0,7.437223434E0
3.180400469E1,-6.037315130E-1,2.029689312E0,7.642981529E0
3.182599688E1,-6.328641176E-1,1.812583089E0,8.045121193E0
3.184599844E1,-7.250409126E-1,1.767485857E0,8.176639557E0
3.186799688E1,-6.331802011E-1,1.673116088E0,8.332990646E0
3.188799688E1,-3.733039200E-1,2.115210295E0,8.756754875E0
3.190799688E1,1.428859588E-2,2.106217623E0,9.238506317E0
3.192799688E1,5.799810290E-1,1.900929093E0,9.695099831E0
3.194799688E1,7.741699219E-1,1.850430608E0,1.025119591E1
3.196799688E1,8.902407885E-1,2.254370928E0,1.062876129E1
3.198799688E1,1.094016075E0,2.434625387E0,1.060136223E1
3.200799688E1,1.095519662E0,2.875771523E0,1.010291767E1
3.202800156E1,1.305931687E0,2.127478123E0,9.391351700E0
3.204999688E1,5.480806231E-1,2.067450762E0,9.425052643E0
3.206999688E1,-1.438819468E-1,2.661097765E0,9.724576950E0
3.208999688E1,-5.074749887E-2,2.884323597E0,1.001733971E1
3.210999688E1,4.426208436E-1,2.591292381E0,1.013117027E1
3.212999688E1,7.863802910E-1,2.384471655E0,9.527735710E0
3.214999844E1,1.064289689E0,2.323974848E0,8.960922241E0
3.217000156E1,1.258698821E0,2.305941820E0,8.351799011E0
3.219199688E1,1.252991080E0,2.267730474E0,8.079846382E0
3.221199688E1,7.925765514E-1,2.164425373E0,8.206298828E0
3.223199688E1,-9.775046259E-2,2.310845137E0,8.735675812E0
3.225200312E1,-8.284416795E-1,2.706951380E0,8.917549133E0
3.227399688E1,-1.012986779E0,2.923444748E0,8.451034546E0
3.229400156E1,-7.592205405E-1,2.937455654E0,8.185727119E0
3.231599688E1,-2.583248019E-1,2.642853975E0,8.328144073E0
3.233600156E1,-1.790575534E-1,2.869651794E0,8.639572144E0
3.235799688E1,2.065046877E-1,2.822016954E0,8.742169380E0
3.237799688E1,2.786084712E-1,2.880013943E0,8.646889687E0
3.239799688E1,-6.881893426E-2,3.088491440E0,8.322273254E0
3.241800156E1,-1.175936162E-1,2.934726238E0,8.030985832E0
3.243999688E1,-4.589205980E-1,2.954234123E0,8.082613945E0
3.245999688E1,-1.097195506E0,3.233924866E0,8.542119026E0
3.248002031E1,-1.124010563E0,2.770694733E0,8.983120918E0
3.250200000E1,-9.719213843E-1,2.451164484E0,9.411309242E0
3.252399688E1,-7.049774528E-1,2.205844879E0,1.023046207E1
3.254399844E1,-3.258029819E-1,1.911980748E0,1.092770100E1
3.256599688E1,7.300399989E-2,1.730969429E0,1.124924278E1
3.258599688E1,1.108323857E-1,1.696971774E0,1.114159966E1
3.260599688E1,-1.559104174E-1,1.620606422E0,1.079424858E1
3.262600469E1,1.227172017E-1,1.565951586E0,1.007911968E1
3.264799688E1,1.154474497E0,1.397189140E0,9.424152374E0
3.266799688E1,1.872390270E0,1.170036793E0,9.074810028E0
3.268799844E1,1.265124917E0,8.967913389E-1,8.766254425E0
3.270999844E1,-3.151439726E-1,4.707862437E-1,8.180039406E0
3.273199688E1,-1.974297047E0,5.871922970E-1,7.906650066E0
3.275199844E1,-2.776459932E0,1.029305696E0,7.616147041E0
3.277399844E1,-1.871959209E0,9.942545295E-1,7.677285671E0
3.279599688E1,-2.564381361E-1,8.987450004E-1,8.560199738E0
3.281600156E1,8.425674438E-1,9.937373400E-1,9.545079231E0
3.283800312E1,8.926637769E-1,9.885179996E-1,1.029954910E1
3.285800469E1,-3.333398998E-1,1.111781120E0,1.067682743E1
3.287999688E1,-1.627386689E0,1.324261665E0,1.039390945E1
3.290000156E1,-1.808876872E0,1.707841516E0,9.528712273E0
3.292199688E1,-7.867347002E-1,1.658061266E0,8.330768585E0
3.294200000E1,1.984888911E-1,1.468038321E0,7.416384697E0
3.296399688E1,2.303413600E-1,1.398721337E0,7.465235710E0
3.298399844E1,-5.985504016E-2,1.061703920E0,8.423912048E0
3.300599688E1,-5.676652193E-1,9.046730399E-1,9.235278130E0
3.302599688E1,-8.019617796E-1,8.165281415E-1,9.257324219E0
3.304599688E1,-1.105345488E0,1.350875616E0,8.906631470E0
3.306599688E1,-8.086751699E-1,1.672005177E0,8.638768196E0
3.308599688E1,-6.388496161E-1,1.632711411E0,9.399281502E0
3.310599688E1,-5.553590059E-1,1.536589146E0,1.152145386E1
3.312599688E1,-7.708563209E-1,1.059798241E0,1.321745872E1
3.314599688E1,-7.080708146E-1,5.441445708E-1,1.358269882E1
3.316600312E1,3.646464944E-1,-3.835990131E-1,1.292945480E1
3.318799688E1,1.401891232E0,-1.013475180E0,1.204332352E1
3.320800156E1,1.488973141E0,-1.142551422E0,1.220307350E1
3.322999688E1,1.168456674E0,-1.361390948E0,1.211306190E1
3.324999844E1,3.238205612E-1,-8.375492096E-1,1.160201359E1
3.327199688E1,1.622023731E-1,-3.764547110E-1,1.040019226E1
3.329199688E1,5.377951860E-1,3.229299188E-2,9.078477859E0
3.331199688E1,9.586575031E-1,4.008468390E-1,7.712844372E0
3.333199688E1,1.077754617E0,8.702157140E-1,6.849993229E0
3.335199688E1,7.287949920E-1,1.121204734E0,7.028476238E0
3.337199688E1,2.569936216E-1,9.154852629E-1,7.809407234E0
3.339199688E1,-2.473689318E-1,9.617125392E-1,8.374936104E0
3.341199688E1,-5.340219140E-1,9.391208291E-1,8.384552002E0
3.343200000E1,-3.385018110E-1,6.605889797E-1,7.865747452E0
3.345399688E1,-1.881555170E-1,4.579629004E-1,7.363501549E0
3.347399844E1,-5.128380284E-2,3.479253948E-1,7.313146591E0
3.349599688E1,-1.012268439E-1,4.215422869E-1,7.575033665E0
3.351599688E1,-3.472166955E-1,6.940024495E-1,8.272742271E0
3.353599688E1,-2.582673430E-1,6.874040365E-1,8.989442825E0
3.355600313E1,-4.048116133E-2,7.048434019E-1,9.413215637E0
3.357799688E1,-2.903209031E-1,8.537627459E-1,9.752666473E0
3.359800156E1,-3.580576479E-1,7.098520398E-1,1.015973759E1
3.361999688E1,-2.001839876E-1,1.247474849E-1,1.115577316E1
3.363999688E1,-2.297571748E-1,-5.208633542E-1,1.230067062E1
3.365999844E1,-4.897866249E-1,-1.143240809E0,1.288478947E1
3.367999844E1,-4.342698753E-1,-1.938364863E0,1.271142960E1
3.370001094E1,-3.089860976E-1,-2.612782717E0,1.216482449E1
3.372200469E1,1.235025004E-1,-3.130169630E0,1.253706455E1
3.374399688E1,2.251698822E-1,-3.401480675E0,1.340192699E1
3.376400000E1,-2.237429321E-1,-3.601003885E0,1.325449181E1
3.378599688E1,-6.068247557E-1,-3.264474869E0,1.254986954E1
3.380599688E1,-5.125315785E-1,-2.815973759E0,1.187557507E1
3.382599688E1,-3.257646561E-1,-2.125074148E0,1.104004669E1
3.384600000E1,-3.198940754E-1,-1.458988190E0,9.769741058E0
3.386799688E1,-3.860602379E-1,-8.997410536E-1,8.100255013E0
3.388800000E1,-2.681697309E-1,-5.098021626E-1,6.797091007E0
3.390999688E1,1.652190685E-1,-2.301785648E-1,5.920343876E0
3.393000156E1,7.388793826E-1,-2.868253738E-2,5.788586140E0
3.395199688E1,1.186250329E0,-1.548569649E-2,6.434225559E0
3.397199688E1,8.003050089E-1,-2.615713179E-1,7.457401752E0
3.399199688E1,2.693381011E-1,-7.333918214E-1,8.212130547E0
3.401199688E1,-3.820187971E-2,-1.168016076E0,8.778215408E0
3.403199844E1,-1.668184102E-1,-1.461008906E0,8.983513832E0
3.405399688E1,-7.300399989E-2,-1.620462775E0,8.974013329E0
3.407399688E1,4.198567867E-1,-1.820148826E0,8.914608955E0
3.409399688E1,8.082346320E-1,-1.872256160E0,9.009409904E0
3.411399688E1,8.787390590E-1,-1.765963078E0,9.025891304E0
3.413399688E1,6.297708154E-1,-1.349946618E0,9.248379707E0
3.415399844E1,1.043575048E0,-1.280610561E0,9.617336273E0
3.417599688E1,2.297121525E0,-1.505330324E0,1.010799408E1
3.419599688E1,3.767726660E0,-1.675500631E0,1.098698235E1
3.421599688E1,5.260425091E0,-1.720463753E0,1.259484196E1
3.423600000E1,5.716137409E0,-2.059195280E0,1.342953682E1
3.425799688E1,4.440391541E0,-1.003726006E0,1.340819073E1
3.427799688E1,3.683421850E0,-4.123198688E-1,1.203976059E1
3.429799688E1,3.708130121E0,-5.071876943E-2,1.032877731E1
3.431799688E1,3.895653486E0,2.361736298E-1,8.549243927E0
3.433799688E1,3.802653074E0,5.388103127E-1,7.175757885E0
3.435799688E1,3.206918240E0,7.160483003E-1,6.386083126E0
3.437799688E1,2.292314053E0,7.722832561E-1,5.934038639E0
3.439799688E1,1.215086102E0,7.187680602E-1,6.216985226E0
3.441799688E1,1.357320845E-1,5.917605162E-1,6.910202503E0
3.443799688E1,-6.115748882E-1,1.402044594E-1,7.614470959E0
3.445799688E1,-1.261648536E0,-6.924031302E-3,7.737073421E0
3.447799844E1,-1.862459064E0,1.120677963E-1,7.740157127E0
3.449999844E1,-2.014596224E0,5.149449036E-2,7.668282986E0
3.452199688E1,-1.906569839E0,-1.703522354E-1,8.086971283E0
3.454199688E1,-1.874391675E0,-2.623853385E-1,8.938589096E0
3.456199844E1,-1.899243593E0,-3.249984980E-1,1.002723217E1
3.458399688E1,-1.892846346E0,-4.913955331E-1,1.079908466E1
3.460399688E1,-1.648666501E0,-7.132039666E-1,1.106498528E1
3.462399688E1,-1.216436386E0,-8.763448596E-1,1.150161171E1
3.464400469E1,-9.030929208E-1,-9.373586774E-1,1.208890820E1
3.466599688E1,-5.112865567E-1,-1.474426031E0,1.287462807E1
3.468599844E1,-4.585949779E-1,-2.042962790E0,1.331519032E1
3.470799688E1,-6.621404290E-1,-2.310519457E0,1.352047825E1
3.472799688E1,-8.907675147E-1,-2.146114588E0,1.328595257E1
3.474799688E1,-9.081398249E-1,-1.699701309E0,1.243510056E1
3.476799688E1,-6.183839440E-1,-1.594844818E0,1.138984013E1
3.478799688E1,-2.943814695E-1,-1.704920650E0,1.033618069E1
3.480799688E1,-1.864029765E-1,-1.894665837E0,9.721340179E0
3.482799844E1,-3.029048145E-1,-1.740412235E0,9.678867340E0
3.484999688E1,-1.712716073E-1,-1.319731832E0,9.422026634E0
3.486999688E1,1.283579469E-1,-1.065256953E0,8.764415741E0
3.488999688E1,3.336559534E-1,-6.531286836E-1,7.823839188E0
3.491000312E1,4.442010224E-1,-2.958084047E-1,6.826453209E0
3.493199688E1,6.502460241E-1,-2.042062581E-1,6.342824936E0
3.495200469E1,9.437177181E-1,-2.325440198E-1,6.276207924E0
3.497399688E1,1.098191500E0,-1.056992188E-1,6.738595486E0
3.499399688E1,1.457503796E0,-3.840299249E-1,7.048730850E0
3.501399688E1,1.591588616E0,-4.191672802E-1,7.310455799E0
3.503400469E1,1.605609179E0,-7.337940931E-1,7.635300636E0
3.505599688E1,1.432690263E0,-9.715574980E-1,7.995388508E0
3.507599844E1,1.405089974E0,-1.318927407E0,8.654081345E0
3.509799688E1,1.571630597E0,-1.634320378E0,9.474822998E0
3.511800312E1,1.962689996E0,-1.947807670E0,1.018674374E1
3.513999688E1,2.577003956E0,-2.197235584E0,1.042289829E1
3.515999688E1,2.918455362E0,-2.061848164E0,1.054546261E1
3.517999688E1,3.364772797E0,-2.181462288E0,1.053779125E1
3.520001719E1,3.224338293E0,-2.062575817E0,1.060631371E1
3.522199688E1,2.685786724E0,-1.981671095E0,1.148560810E1
3.524200000E1,2.197091818E0,-2.358298302E0,1.213682175E1
3.526399688E1,1.572607398E0,-1.963197470E0,1.206608677E1
3.528400469E1,1.942980886E0,-1.810131311E0,1.123578739E1
3.530599688E1,2.452553272E0,-1.640602827E0,1.052694130E1
3.532599688E1,2.579809904E0,-1.324491620E0,1.028098965E1
3.534599688E1,2.210221767E0,-1.024210811E0,9.691029549E0
3.536600469E1,1.625002146E0,-7.724269629E-1,8.832708359E0
3.538799688E1,1.095529318E0,-6.516729593E-1,7.965910912E0
3.540800000E1,8.442338109E-1,-5.458014011E-1,7.464565277E0
3.542999844E1,7.589811087E-1,-5.384368300E-1,7.337318420E0
3.545000156E1,8.497405052E-1,-4.963850379E-1,7.450966358E0
3.547199688E1,1.088183880E0,-6.348178387E-1,7.422638416E0
3.549199688E1,9.842754602E-1,-6.316095591E-1,7.322388172E0
3.551199688E1,6.868581772E-1,-5.564316511E-1,7.834125042E0
3.553200469E1,5.223861337E-1,-5.934364200E-1,8.754523277E0
3.555399688E1,2.381943315E-1,-7.150905728E-1,9.463245392E0
3.557400000E1,-1.767687052E-1,-6.814280748E-1,9.977242470E0
3.559599688E1,-1.474828273E-2,-6.596121192E-1,1.043899727E1
3.561599688E1,2.641857862E-1,-6.376237869E-1,1.049795246E1
3.563599688E1,2.859347165E-1,-6.367715001E-1,1.021331024E1
3.565600000E1,4.074356556E-1,-7.888702750E-1,9.937737465E0
3.567799688E1,6.746764779E-1,-9.038781524E-1,1.045399380E1
3.569800469E1,7.231159806E-1,-1.227200747E0,1.108230972E1
3.571999688E1,4.290984273E-1,-1.863502979E0,1.102143002E1
3.574000469E1,-5.890693888E-2,-2.563586712E0,1.100948715E1
3.576199844E1,-5.506281257E-1,-2.379558802E0,1.140125561E1
3.578399688E1,-1.213793159E0,-2.314570665E0,1.142729473E1
3.580399688E1,-1.905640841E0,-2.059042215E0,1.026385689E1
3.582399688E1,-1.923855901E0,-1.735585570E0,9.562345505E0
3.584399688E1,-1.727445364E0,-1.451499104E0,9.536613464E0
3.586399688E1,-1.616995931E0,-1.438972712E0,1.000453568E1
3.588399688E1,-1.575470924E0,-1.623757243E0,1.016518688E1
3.590399688E1,-1.567330599E0,-1.289421320E0,9.939193726E0
3.592399688E1,-1.272882104E0,-1.113121867E0,9.603468895E0
3.594399688E1,-1.059405565E0,-1.065237761E0,9.388422012E0
3.596400000E1,-1.142695069E0,-1.029908895E0,9.366461754E0
3.598599688E1,-1.216043830E0,-1.049081683E0,9.491075516E0
3.600599688E1,-1.222555995E0,-1.062795639E0,9.789200783E0
3.602599688E1,-1.063667178E0,-1.000680566E0,9.944316864E0
3.604599688E1,-7.916188240E-1,-9.608793259E-1,9.831147194E0
3.606599688E1,-4.361277819E-1,-9.325032234E-1,9.132040977E0
3.608599688E1,-1.862018555E-1,-8.404030800E-1,8.516883850E0
3.610600000E1,-7.019799203E-3,-7.959763408E-1,8.243580818E0
3.612799688E1,-1.363737322E-2,-7.783262134E-1,8.180191994E0
3.614799688E1,-6.827305257E-2,-7.401052117E-1,8.174149513E0
3.616800313E1,1.226789039E-2,-7.758937478E-1,8.336534500E0
3.618999688E1,2.225745767E-1,-8.953452110E-1,8.705222130E0
3.620999844E1,3.696264327E-1,-1.095299482E0,9.113059998E0
3.623000156E1,3.924958408E-1,-1.155422568E0,9.321412086E0
3.625199688E1,2.940750122E-1,-9.763267040E-1,9.467267990E0
3.627199844E1,5.047072768E-1,-7.760278583E-1,9.590942383E0
3.629399688E1,7.655507922E-1,-8.099679947E-1,9.351560593E0
3.631399844E1,8.278478980E-1,-8.110405803E-1,9.729958534E0
3.633599531E1,6.641228199E-1,-3.387987018E-1,1.123002243E1
3.635599688E1,5.555027127E-1,-1.024363995E0,1.279866505E1
3.637599688E1,-1.027687117E-1,-1.084142447E0,1.271270275E1
3.639600156E1,-2.311170846E-1,-1.023482919E0,1.152861691E1
3.641799688E1,5.695805550E-1,-9.920997024E-1,1.013356400E1
3.643800000E1,1.283100605E0,-1.019422412E0,9.666560173E0
3.645999688E1,1.281328917E0,-8.200523853E-1,9.742925644E0
3.647999688E1,6.488956809E-1,-6.158652902E-1,9.783024788E0
3.649999844E1,1.477892697E-1,-5.973341465E-1,9.233171463E0
3.652000000E1,-2.073761821E-1,-5.009819269E-1,8.614030838E0
3.654199688E1,-1.566669792E-1,-4.888481200E-1,8.279752731E0
3.656200000E1,1.167508513E-1,-3.876691163E-1,7.985945702E0
3.658399688E1,7.139796615E-1,-3.119548857E-1,7.909944534E0
3.660400156E1,1.236767888E0,-2.623853385E-1,7.850184917E0
3.662599688E1,1.439106822E0,-8.070375025E-2,7.978447437E0
3.664599688E1,1.263899088E0,-2.569457330E-2,8.326439857E0
3.666599688E1,8.968679905E-1,-1.009012386E-1,8.671559334E0
3.668600156E1,8.554195762E-1,-4.284759164E-1,8.897054672E0
3.670799688E1,6.699168086E-1,-4.641591012E-1,9.209286690E0
3.672799688E1,2.783881724E-1,-4.972757101E-1,9.810107231E0
3.674799688E1,2.885683179E-1,-5.730761290E-1,1.047220993E1
3.676799688E1,9.299271107E-1,-5.458588004E-1,1.098333263E1
3.678799688E1,1.669074535E0,-6.518549323E-1,1.073040009E1
3.680799688E1,1.627990127E0,-3.589866161E-1,1.024489498E1
3.682800469E1,1.271052957E0,-1.647306532E-1,1.015189457E1
3.684999688E1,9.736739397E-1,-6.609912217E-2,1.053297424E1
3.686999844E1,1.261744261E0,-7.076302171E-2,1.084820366E1
3.689199688E1,1.083855152E0,-5.677897334E-1,1.135208797E1
3.691199688E1,-1.789043248E-1,-1.097396731E0,1.173293877E1
3.693199688E1,-1.643504500E0,-1.408355594E0,1.108318996E1
3.695199688E1,-2.145951748E0,-1.311543703E0,9.552500725E0
3.697199688E1,-1.865494847E0,-1.119720221E0,8.321603775E0
3.699199688E1,-1.758014441E0,-1.140099764E0,7.475980759E0
3.701199688E1,-1.728546619E0,-1.431368709E0,7.465599537E0
3.703199844E1,-1.905344009E0,-1.473114014E0,8.271679878E0
3.705399688E1,-2.097732306E0,-1.191785812E0,9.338305473E0
3.707399688E1,-1.925148845E0,-9.735302925E-1,9.634315491E0
3.709399688E1,-1.529645920E0,-7.504290342E-1,9.249078751E0
3.711399688E1,-1.195884585E0,-4.074643850E-1,8.747492790E0
3.713399688E1,-9.404711127E-1,-2.687635124E-1,8.279868126E0
3.715399688E1,-6.970095634E-1,-2.505867183E-1,8.043406487E0
3.717399688E1,-3.781976700E-1,-2.135915160E-1,8.137987137E0
3.719399844E1,-1.810016483E-1,-3.393445611E-1,8.661072731E0
3.721599688E1,-5.363107324E-1,-5.454374552E-1,8.989538193E0
3.723600000E1,-6.374993324E-1,-7.831434011E-1,9.283364296E0
3.725799688E1,-5.205090046E-1,-9.974148273E-1,9.616961479E0
3.727799688E1,-4.706425667E-1,-1.127898812E0,1.003025913E1
3.729799688E1,-4.668693244E-1,-1.451575756E0,1.072068977E1
3.731799688E1,-4.822688401E-1,-1.648005605E0,1.084308147E1
3.733799688E1,-2.843641341E-1,-1.506039023E0,1.037531185E1
3.735799688E1,8.242470026E-1,-1.758703947E0,9.768649101E0
3.737799688E1,1.339393020E0,-1.711605191E0,9.965337753E0
3.739799688E1,6.160184741E-1,-1.210479617E0,1.120633888E1
3.741800469E1,-5.857558250E-1,-1.642805457E0,1.267858124E1
3.743999688E1,-1.652841926E0,-1.492545247E0,1.225328541E1
3.746000000E1,-7.979490757E-1,-1.305424094E0,1.148732185E1
3.748001562E1,1.541138053E0,-1.151869655E0,1.048812580E1
3.750199844E1,3.465731382E0,-1.125830173E0,9.344282150E0
3.752200156E1,3.520549059E0,-9.123057723E-1,8.405208588E0
3.754399531E1,2.071042061E0,-5.851524472E-1,8.067396164E0
3.756399688E1,8.358349800E-1,-4.044381380E-1,7.973218441E0
3.758399688E1,6.014234386E-3,-1.519360393E-1,8.124426842E0
3.760399688E1,-8.209238201E-2,-1.230236590E-1,8.305092812E0
3.762399688E1,2.989208698E-1,-2.080082446E-1,8.048224449E0
3.764399688E1,5.443648696E-1,-1.654106081E-1,7.415187359E0
3.766399688E1,4.830158353E-1,-8.326075971E-2,7.105722427E0
3.768400000E1,2.740499079E-1,-5.872498080E-2,7.447499275E0
3.770400625E1,2.439212613E-2,-8.214984834E-2,8.239281654E0
3.772599688E1,-5.146192908E-1,1.649126038E-2,9.279868126E0
3.774599688E1,-8.525081873E-1,-1.909136474E-1,9.888043404E0
3.776599688E1,-1.003132224E0,-3.335984945E-1,1.005822372E1
3.778599688E1,-8.279628158E-1,-4.568423927E-1,1.014641571E1
3.780599844E1,-2.780242860E-1,-6.506578326E-1,1.045839977E1
3.782800312E1,2.315001488E-1,-1.314541221E0,1.046500778E1
3.785000000E1,5.004360080E-1,-2.090846777E0,1.060407257E1
3.787199688E1,2.173552066E-1,-2.061532259E0,1.130190563E1
3.789199688E1,-6.134998202E-1,-2.149102449E0,1.169068527E1
3.791199688E1,-1.935711980E0,-1.927983642E0,1.137467957E1
3.793200469E1,-2.713233948E0,-1.767313480E0,1.090217972E1
3.795399688E1,-2.906436205E0,-1.921940684E0,1.020825386E1
3.797400312E1,-2.620654821E0,-2.009118319E0,9.369956970E0
3.799599688E1,-2.072344542E0,-1.796149254E0,9.084626198E0
3.801600156E1,-1.344392061E0,-1.792912364E0,9.417860031E0
3.803799688E1,-8.977873325E-1,-1.743907809E0,9.704006195E0
3.805799844E1,-7.080036998E-1,-1.719936967E0,9.442673683E0
3.807999688E1,-5.987994671E-1,-1.541894674E0,8.963469505E0
3.809999688E1,-3.679696321E-1,-1.478448272E0,8.720640182E0
3.811999688E1,-2.268170863E-1,-1.469034314E0,8.537379265E0
3.814000000E1,-8.849927783E-2,-1.595352411E0,8.395555496E0
3.816199688E1,6.227797270E-2,-1.607514858E0,8.344271660E0
3.818200156E1,7.256346196E-2,-1.612331986E0,8.764282227E0
3.820399688E1,6.227797270E-2,-1.565003395E0,9.483318329E0
3.822400312E1,-2.354936861E-2,-1.397169948E0,1.014488411E1
3.824599688E1,5.326045752E-1,-9.306548834E-1,1.099808121E1
3.826599688E1,9.369277358E-1,-5.045349002E-1,1.107560539E1
3.828599688E1,5.018438697E-1,-6.693230569E-2,1.039966488E1
3.830599688E1,3.113419712E-1,2.316629589E-1,9.701668739E0
3.832599688E1,8.244385123E-1,3.862326145E-1,9.636815071E0
3.834599688E1,1.640430450E0,5.559336394E-2,9.532015800E0
3.836599688E1,2.136183262E0,-2.711289525E-1,9.119484901E0
3.838599688E1,1.812937379E0,-3.296145201E-1,8.971849442E0
3.840599844E1,1.022735953E0,-4.633450508E-1,9.583922386E0
3.842799688E1,-3.223457336E-1,-5.485211611E-1,1.072474003E1
3.844799688E1,-6.785168052E-1,-6.592290401E-1,1.108587170E1
3.846799688E1,-9.811342955E-1,-2.539673448E-1,1.157359028E1
3.848800469E1,-5.906304121E-1,-1.779274940E-1,1.120683670E1
3.850999844E1,5.267243832E-3,1.110526472E-1,1.072102451E1
3.852999844E1,6.354211569E-1,4.636036456E-1,1.024632168E1
3.855199688E1,9.037728310E-1,6.159036160E-1,9.722230911E0
3.857201719E1,8.893023133E-1,5.465196371E-1,9.602932930E0
3.859399688E1,3.638612032E-1,5.823177695E-1,9.555603981E0
3.861400312E1,2.887407243E-1,6.009829044E-1,8.977739334E0
3.863599688E1,9.422524571E-1,4.517954290E-1,8.112417221E0
3.865600000E1,1.476188064E0,5.637100339E-1,7.698843002E0
3.867799688E1,1.557830453E0,6.707308292E-1,7.875716686E0
3.869799688E1,1.472750068E0,5.582991242E-1,7.940398216E0
3.871799688E1,1.335916638E0,3.659010530E-1,7.951364040E0
3.873800469E1,1.067162752E0,3.077506721E-1,8.044230461E0
3.875999688E1,8.997697234E-1,3.032783270E-1,8.605910301E0
3.878000000E1,1.012076974E0,4.843086898E-1,9.180978775E0
3.880199688E1,1.074833751E0,6.113162637E-1,9.255639076E0
3.882199688E1,1.209311247E0,3.502142429E-1,8.916639328E0
3.884199688E1,1.202827811E0,-7.465120405E-2,9.336572647E0
3.886200312E1,1.560291648E0,-3.934918642E-1,1.071761513E1
3.888399688E1,2.119615555E0,-8.074397445E-1,1.186128712E1
3.890400156E1,8.818802238E-1,-6.883713007E-1,1.152927876E1
3.892599688E1,-7.242746949E-1,-8.833167553E-1,1.050667667E1
3.894599844E1,-1.164903522E0,-6.701083183E-1,1.009855080E1
3.896799688E1,4.124251604E-1,-1.126893282E0,9.757185936E0
3.898800000E1,1.784235716E0,-1.632395506E0,9.525944710E0
3.900999688E1,1.919393182E0,-2.435065985E0,1.004366684E1
3.902999688E1,4.053958058E-1,-2.393301487E0,1.044048119E1
3.904999688E1,-1.076011777E0,-2.043920517E0,1.040023041E1
3.906999688E1,-1.355424523E0,-1.854950786E0,9.669951439E0
3.908999688E1,-7.290822864E-1,-1.649356008E0,8.561033249E0
3.910999688E1,-1.253220886E-1,-1.127889276E0,7.841192245E0
3.912999688E1,3.892397583E-1,-1.181212902E0,7.403733253E0
3.914999844E1,-8.001422137E-2,-9.578339458E-1,7.197458267E0
3.916999844E1,-7.544321418E-1,-1.100863576E0,7.130756378E0
3.919199688E1,-1.248317599E0,-1.064691901E0,7.374390125E0
3.921199844E1,-1.153459311E0,-9.901173115E-1,7.950731754E0
3.923399688E1,-1.001417994E0,-1.029238582E0,8.394042015E0
3.925399688E1,-7.291780114E-1,-1.171463728E0,8.447988510E0
3.927399688E1,-4.753352404E-1,-1.376311660E0,8.290229797E0
3.929400312E1,-3.561710119E-1,-1.491013050E0,8.515131950E0
3.931599688E1,-4.740998149E-1,-1.573191643E0,9.090563774E0
3.933599688E1,-4.723855555E-1,-1.639980197E0,9.621665001E0
3.935599688E1,-1.798428446E-1,-1.582174659E0,9.883782387E0
3.937599688E1,4.791659415E-1,-1.682300210E0,9.625580788E0
3.939599688E1,1.796398282E0,-2.297044992E0,9.815556526E0
3.941599688E1,2.846906900E0,-2.322174549E0,9.751640320E0
3.943600156E1,2.988873482E0,-2.222460985E0,1.046779537E1
3.945799688E1,1.515807390E0,-2.280228138E0,1.271930218E1
3.947799688E1,1.271704137E-1,-2.001437664E0,1.361128616E1
3.949799688E1,3.853515685E-1,-1.573862076E0,1.320062351E1
3.951800000E1,1.993268728E0,-1.370862484E0,1.214949131E1
3.953999688E1,3.067901373E0,-1.309867740E0,1.052093697E1
3.956000000E1,2.386415720E0,-9.249471426E-1,9.097621918E0
3.958199688E1,1.024430990E0,-6.991643906E-1,8.435116768E0
3.960200312E1,1.376665980E-1,-4.536437690E-1,8.304048538E0
3.962399688E1,-1.772666909E-2,-2.119155824E-1,8.176649094E0
3.964399844E1,3.909539878E-1,-1.201123148E-1,8.125451088E0
3.966599688E1,6.017490625E-1,-5.923255160E-2,8.185756683E0
3.968599688E1,4.346816838E-1,-1.216924787E-1,8.203827858E0
3.970599688E1,1.963341236E-1,-1.488427222E-1,8.453006744E0
3.972600000E1,1.898027360E-1,-3.325641751E-1,9.061651230E0
3.974799688E1,1.155058667E-1,-3.860219419E-1,9.839987755E0
3.976799688E1,-2.503281534E-1,-2.951859236E-1,1.027635479E1
3.978799688E1,-6.172443032E-1,-4.283227026E-1,1.048001480E1
3.980799688E1,-6.238044500E-1,-6.448159814E-1,1.039359379E1
3.982799688E1,-4.710065126E-1,-7.096701264E-1,1.054307842E1
3.984799688E1,-1.431924105E-1,-7.963593602E-1,1.117886353E1
3.986799844E1,2.730826437E-1,-1.087178230E0,1.171142006E1
3.988999688E1,5.041614175E-1,-1.460233212E0,1.154255199E1
3.990999688E1,8.401349783E-1,-2.309581041E0,1.160595989E1
3.992999844E1,7.881233096E-1,-2.257674694E0,1.193115902E1
3.995000312E1,1.833383888E-1,-2.119960308E0,1.302183342E1
3.997200000E1,-5.439913273E-1,-2.430162668E0,1.352733517E1
3.999200156E1,-8.523932695E-1,-2.436645985E0,1.244339466E1
4.001399688E1,-2.756205201E-1,-1.847940683E0,1.150536537E1
4.003399688E1,7.383239269E-1,-1.499852419E0,1.080937958E1
4.005399688E1,1.068292856E0,-1.141382933E0,1.024321842E1
4.007399688E1,6.885341406E-1,-5.150789618E-1,9.632956505E0
4.009399688E1,4.048307836E-1,-1.007192731E-1,8.801861763E0
4.011399688E1,5.693603158E-1,-8.446743712E-3,8.138150215E0
4.013399688E1,1.033998251E0,-2.465644628E-1,7.670773506E0
4.015399688E1,1.284996867E0,-4.232757092E-1,7.257428646E0
4.017400469E1,1.334355593E0,-6.692655683E-1,6.618176937E0
4.019599688E1,1.257722020E0,-1.036833048E0,5.950807571E0
4.021600000E1,1.221837759E0,-1.236059308E0,6.030429363E0
4.023799688E1,1.290761948E0,-1.523909450E0,6.865919590E0
4.025800469E1,8.454596400E-1,-1.732425213E0,7.452393532E0
4.027999688E1,5.554356575E-1,-1.793008089E0,7.703343868E0
4.029999688E1,7.841010690E-1,-1.946572185E0,7.667134285E0
4.031999688E1,1.105000734E0,-2.050480366E0,7.623415947E0
4.034000000E1,1.086958051E0,-2.079977036E0,7.988407135E0
4.036199688E1,1.088499904E0,-2.044954777E0,8.849083900E0
4.038200469E1,9.975585341E-1,-1.845173001E0,9.477457047E0
4.040399688E1,1.873051047E0,-2.102865696E0,9.744209290E0
4.042400313E1,3.312780380E0,-2.546319485E0,9.771034241E0
4.044599688E1,3.801762342E0,-2.315939903E0,1.081301975E1
4.046599844E1,2.980522394E0,-2.667667389E0,1.247928810E1
4.048799688E1,1.547535419E0,-2.620827198E0,1.370072365E1
4.050799688E1,7.852981687E-1,-2.082083941E0,1.300094604E1
4.052799688E1,1.341681838E0,-1.150806546E0,1.187295151E1
4.054800469E1,2.766107321E0,-9.049220681E-1,1.035386944E1
4.056999844E1,3.034554958E0,-3.476476669E-1,8.574804306E0
4.059199688E1,2.080982685E0,-1.384997815E-1,7.493755341E0
4.061199688E1,9.008901715E-1,9.255026281E-2,7.316469669E0
4.063200000E1,-1.257434767E-2,3.303327858E-1,7.782840729E0
4.065399688E1,3.094266355E-2,2.790777385E-1,7.932009220E0
4.067399844E1,2.029325254E-2,2.193759084E-1,7.698612690E0
4.069599688E1,-4.059704244E-1,2.694051564E-1,7.296904087E0
4.071599688E1,-5.311297178E-1,8.470685780E-2,7.268097401E0
4.073599844E1,-4.330727756E-1,-1.265000403E-1,7.818026543E0
4.075799688E1,-4.943739176E-1,-1.993795484E-1,8.983369827E0
4.077799688E1,-5.065364838E-1,-3.628269136E-1,1.007535648E1
4.079800000E1,-8.739697933E-1,-4.595622122E-1,1.083531475E1
4.081999688E1,-1.206227541E0,-6.021608710E-1,1.094346523E1
4.083999844E1,-1.315862775E0,-4.672524035E-1,1.067238426E1
4.086199688E1,-1.074335814E0,-3.218190372E-1,1.096736908E1
4.088199688E1,-8.699188232E-1,-4.302380383E-1,1.213328743E1
4.090199688E1,-6.834105253E-1,-8.045571446E-1,1.262311268E1
4.092199688E1,-7.786039710E-1,-1.183635831E0,1.228369141E1
4.094199688E1,-7.888511419E-1,-1.901800632E0,1.238148880E1
4.096199844E1,-1.100758195E0,-1.803207397E0,1.322270679E1
4.098399688E1,-1.300942183E0,-2.000412941E0,1.423947620E1
4.100399844E1,-1.217097163E0,-2.216504097E0,1.383890724E1
4.102599688E1,-8.598152995E-1,-1.710072875E0,1.254260921E1
4.104600313E1,-3.340390325E-2,-1.116023540E0,1.161187840E1
4.106799688E1,5.308807492E-1,-7.199268937E-1,1.062753582E1
4.108800312E1,2.852068841E-1,-3.014970422E-1,9.782066345E0
4.110999688E1,5.166687444E-2,-1.723154932E-1,8.710258484E0
4.113000000E1,1.404917520E-2,-5.092945695E-2,7.710440636E0
4.115199688E1,7.861600816E-2,7.445967197E-2,7.212973118E0
4.117199688E1,4.107109308E-1,-2.544749081E-1,7.135314941E0
4.119199688E1,7.171687484E-1,-5.232863426E-1,6.640567303E0
4.121199688E1,9.009189606E-1,-5.765716434E-1,6.145743370E0
4.123199688E1,9.962081909E-1,-8.039728999E-1,5.976731777E0
4.125199688E1,8.501906395E-1,-1.072497129E0,6.212388039E0
4.127199688E1,6.219370365E-1,-1.290465117E0,6.727247238E0
4.129199688E1,3.958668709E-1,-1.492507100E0,6.908584118E0
4.131199688E1,4.514219463E-1,-1.778173566E0,6.934326172E0
4.133199688E1,5.827678442E-1,-1.971021771E0,7.178400993E0
4.135199688E1,7.140275836E-1,-2.134143591E0,7.833971500E0
4.137399688E1,1.127668977E0,-2.341979504E0,8.745263100E0
4.139399688E1,1.188759446E0,-1.936775088E0,9.238468170E0
4.141399688E1,1.229068279E0,-1.630432248E0,9.411520958E0
4.143399688E1,2.299027443E0,-2.089199543E0,9.912320137E0
4.145399688E1,3.374847651E0,-2.333551645E0,1.089003658E1
4.147399688E1,3.892502785E0,-2.126472473E0,1.286474514E1
4.149399688E1,3.647604465E0,-2.420796394E0,1.412228489E1
4.151399688E1,2.495486021E0,-1.962661266E0,1.374692154E1
4.153399688E1,2.423257828E0,-1.666919827E0,1.213234901E1
4.155399688E1,3.075390339E0,-1.075877666E0,1.058476543E1
4.157399688E1,3.189153433E0,-4.338963926E-1,1.005311871E1
4.159400000E1,2.252982140E0,-2.926576436E-1,9.983887672E0
4.161599688E1,7.642579079E-1,2.878788114E-2,9.325223923E0
4.163599688E1,-3.099341989E-1,5.888874531E-1,8.740128517E0
4.165599688E1,-9.709445834E-1,1.092254043E0,8.720678329E0
4.167599844E1,-9.078238606E-1,1.167077541E0,8.556512833E0
4.169799844E1,-6.256719232E-1,1.077572703E0,7.966897488E0
4.171800000E1,-7.695251703E-1,1.232726574E0,7.097390652E0
4.173999688E1,-8.444637060E-1,1.114979744E0,6.996010780E0
4.175999688E1,-7.174560428E-1,8.382961750E-1,7.677275658E0
4.177999688E1,-1.106274366E0,8.071907163E-1,8.856391907E0
4.179999688E1,-1.576093435E0,7.265444398E-1,1.021617413E1
4.181999688E1,-1.669132113E0,3.266935945E-1,1.128414059E1
4.183999688E1,-1.690967202E0,1.265191883E-1,1.200890446E1
4.186000313E1,-1.308268428E0,-2.865093350E-1,1.205016136E1
4.188199688E1,-9.869186878E-1,-5.555984378E-1,1.197029972E1
4.190200312E1,-9.500575662E-1,-4.276140034E-1,1.206849957E1
4.192399688E1,-6.689399481E-1,-7.559643984E-1,1.183606148E1
4.194400000E1,-8.545385301E-2,-1.358230591E0,1.184124279E1
4.196599688E1,7.949132919E-1,-1.979229093E0,1.227273560E1
4.198599688E1,1.199983478E0,-1.939782262E0,1.244318390E1
4.200599688E1,1.128684044E0,-2.102138042E0,1.208255005E1
4.202600469E1,4.145033658E-1,-1.970475793E0,1.106954384E1
4.204799688E1,1.643475741E-1,-1.629522443E0,9.806965828E0
4.206800469E1,4.040742218E-1,-1.365556836E0,8.936932564E0
4.208999844E1,4.123390019E-1,-9.823696613E-1,8.512909889E0
4.211000156E1,2.995816767E-1,-6.777985096E-1,8.828207016E0
4.213199688E1,1.238664165E-1,-2.261179835E-1,9.070327759E0
4.215199688E1,-2.865380608E-2,1.980770826E-1,8.398571968E0
4.217199688E1,-1.517349184E-1,4.837628305E-1,7.270979881E0
4.219199688E1,6.224924698E-3,5.300092101E-1,6.657058716E0
