"Time (s)","Linear Acceleration x (m/s^2)","Linear Acceleration y (m/s^2)","Linear Acceleration z (m/s^2)"
1.799843700E-2,-9.160000086E-2,8.009999990E-2,2.556999922E-1
4.799687500E-2,8.202999830E-1,-3.400999904E-1,1.081900001E0
6.799687500E-2,1.599999960E-3,-3.907999992E-1,1.437600017E0
8.799687500E-2,-7.696999907E-1,-1.929999888E-1,1.001199961E0
1.079968750E-1,-8.621999621E-1,5.961999893E-1,2.466999888E-1
1.279968750E-1,-2.603999972E-1,5.853999853E-1,1.327999979E-1
1.479968750E-1,7.802000046E-1,2.020999938E-1,-1.228000000E-1
1.679984370E-1,1.445899963E0,-1.260000020E-1,-6.866999865E-1
1.979968750E-1,1.388199925E0,-5.838999748E-1,-8.676999807E-1
2.179984370E-1,1.072499990E0,-6.225999594E-1,-2.475999892E-1
2.379984370E-1,1.092399955E0,-6.510999799E-1,4.813999832E-1
2.680015620E-1,9.082999825E-1,-3.668999970E-1,9.235000014E-1
2.979968750E-1,3.455999792E-1,-1.629000008E-1,4.639999941E-2
3.180046870E-1,2.942000031E-1,6.949999928E-2,-5.690000057E-1
3.479968750E-1,1.200399995E0,9.239999950E-2,-1.020499945E0
3.680031250E-1,1.529699922E0,2.060000040E-2,-1.300199986E0
3.979968750E-1,8.413999677E-1,-1.243999973E-1,-8.053999543E-1
4.179968750E-1,3.824999928E-1,-3.819999844E-2,-4.439999759E-1
4.379968750E-1,3.321000040E-1,9.649999440E-2,-3.106999993E-1
4.580015620E-1,4.226999879E-1,2.204999924E-1,-2.874999940E-1
4.879968750E-1,1.730000041E-2,3.351999819E-1,-4.982999861E-1
5.079968750E-1,-1.547999978E-1,2.338999957E-1,-2.718999982E-1
5.279968750E-1,6.269999593E-2,-6.999999750E-3,-9.539999813E-2
5.479968750E-1,1.657999903E-1,1.419999897E-1,2.044999897E-1
5.679968750E-1,-3.319999948E-2,3.535999954E-1,3.555999994E-1
5.879968750E-1,-6.852999926E-1,6.398000121E-1,5.126999617E-1
6.080000000E-1,-9.579999745E-2,7.310000062E-2,8.619999886E-2
6.379968750E-1,-4.422999918E-1,-1.501399994E0,6.385999918E-1
6.580000000E-1,-1.480700016E0,-9.720000029E-1,1.503999949E0
6.879968750E-1,-7.002999783E-1,-1.628999949E0,6.358999610E-1
7.080015620E-1,-1.588499904E0,-1.280799985E0,-6.629999876E-1
7.379968750E-1,-2.491600037E0,-1.161999941E0,-1.794699907E0
7.580046870E-1,-2.411399841E0,-1.200699925E0,-1.608599901E0
7.879968750E-1,-6.204000115E-1,-1.414799929E0,-1.599999905E0
8.080046870E-1,-4.082999825E-1,-9.642999768E-1,-1.299999952E0
8.379968750E-1,-7.926999927E-1,-3.225999773E-1,-7.252999544E-1
8.579968750E-1,-8.434000015E-1,-5.634999871E-1,-6.299999952E-1
8.779968750E-1,-1.246599913E0,-2.788999975E-1,1.880999953E-1
8.979968750E-1,-1.422799945E0,2.797999978E-1,4.219000041E-1
9.179968750E-1,-4.339999706E-2,6.058999896E-1,-6.534000039E-1
9.379968750E-1,1.497000009E-1,1.044299960E0,-1.283599973E0
9.579984370E-1,3.280000016E-2,1.228899956E0,-7.989000082E-1
9.879953120E-1,-3.304999769E-1,1.112399936E0,4.479999840E-2
1.007998437E0,-6.327999830E-1,3.700000048E-1,4.678999782E-1
1.027998437E0,-3.073000014E-1,4.810999930E-1,1.278399944E0
1.048003125E0,3.880999982E-1,-2.034000009E-1,1.745999932E0
1.077996875E0,2.037899971E0,-7.792999744E-1,1.730699897E0
1.098004687E0,1.385100007E0,-1.014500022E0,3.486999869E-1
1.127996875E0,1.986899972E0,-3.985199928E0,4.154500008E0
1.147996875E0,1.883699894E0,-2.912699938E0,7.021999955E-1
1.168001562E0,2.020499945E0,-1.249400020E0,2.672999799E-1
1.198000000E0,1.700099945E0,-2.168900013E0,5.048999786E-1
1.227996875E0,-6.320999861E-1,-1.071599960E0,1.686199903E0
1.248004687E0,-8.148999810E-1,-8.575999737E-1,2.671000063E-1
1.277996875E0,7.213999629E-1,-5.080000162E-1,-3.520999849E-1
1.297996875E0,1.422699928E0,-1.142999977E-1,-3.148999810E-1
1.317996875E0,2.066299915E0,-4.504999816E-1,-2.194200039E0
1.338003125E0,2.223700047E0,-1.048499942E0,-2.177199841E0
1.367996875E0,1.152999997E0,-1.070799947E0,-1.470499992E0
1.387996875E0,6.989999861E-2,-9.878000021E-1,-1.597700000E0
1.407996875E0,-1.800999939E-1,-8.100999594E-1,-1.149299979E0
1.427996875E0,-7.881000042E-1,5.684999824E-1,-1.407499909E0
1.447996875E0,-3.287999928E-1,1.412999988E0,-1.600799918E0
1.467998437E0,3.804000020E-1,1.078699946E0,-1.989999890E0
1.488004687E0,3.558999896E-1,1.169899940E0,-1.657799959E0
1.517996875E0,-5.618999600E-1,1.248299956E0,-1.634899974E0
1.538003125E0,-7.888999581E-1,9.797999859E-1,-1.636500001E0
1.567998437E0,-5.110999942E-1,1.194199920E0,-9.499999881E-1
1.588004687E0,-1.769999973E-2,1.134199977E0,-2.113000005E-1
1.617996875E0,3.155999780E-1,9.070000052E-1,1.641399980E0
1.637996875E0,6.647999883E-1,4.459999874E-2,1.961299896E0
1.657996875E0,9.386999607E-1,-3.831000030E-1,1.928900003E0
1.677996875E0,1.503199935E0,-1.037699938E0,1.046000004E0
1.697996875E0,2.316799879E0,-1.639899969E0,1.721999943E-1
1.717996875E0,2.300499916E0,-1.927399993E0,2.029999942E-1
1.738004687E0,1.157099962E0,-2.034499884E0,1.004699945E0
1.767996875E0,-1.088400006E0,-1.821699977E0,1.354399920E0
1.788003125E0,-1.756799936E0,-1.467700005E0,1.986999959E-1
1.817998437E0,-1.331200004E0,-7.831000090E-1,-3.222000003E-1
1.838001562E0,-4.415999949E-1,-6.362000108E-1,-4.887999892E-1
1.867996875E0,-1.864999980E-1,-3.747999966E-1,-7.913999557E-1
1.887996875E0,-5.669000149E-1,-9.389999509E-2,-8.575999737E-1
1.907996875E0,-9.811999798E-1,-1.096000001E-1,-1.172599912E0
1.927998437E0,-1.210399985E0,1.459999979E-1,-1.554199934E0
1.957996875E0,-9.030999541E-1,1.140999943E-1,-1.918299913E0
1.978006250E0,-6.234999895E-1,1.556999981E-1,-2.187599897E0
2.007996875E0,-5.694999695E-1,-6.419999897E-2,-2.607300043E0
2.028004687E0,-7.612999678E-1,-1.603000015E-1,-2.514099836E0
2.057996875E0,-8.974999785E-1,-3.256999850E-1,-2.159299850E0
2.077996875E0,-8.472999930E-1,-4.231999815E-1,-1.800899982E0
2.097998437E0,-9.145999551E-1,-6.255999804E-1,-1.554099917E0
2.127998437E0,-1.062799931E0,-6.322999597E-1,-7.360000014E-1
2.157996875E0,-4.912000000E-1,-1.150900006E0,1.000200033E0
2.177996875E0,6.250000000E-2,-1.284399986E0,1.673900008E0
2.197996875E0,1.511999965E-1,-1.207499981E0,1.939799905E0
2.217996875E0,7.889999449E-2,-9.470999837E-1,1.672199965E0
2.237996875E0,9.272999763E-1,-1.112399936E0,1.516600013E0
2.257996875E0,1.825500011E0,-1.760399938E0,1.820999980E0
2.277998437E0,1.350299954E0,-8.107999563E-1,2.618199825E0
2.307996875E0,3.513999879E-1,-1.060799956E0,2.655299902E0
2.327996875E0,-2.117999941E-1,-2.825999856E-1,1.316699982E0
2.347996875E0,8.728999496E-1,4.209999740E-2,4.170999825E-1
2.368000000E0,1.929699898E0,-9.290000051E-2,-2.791000009E-1
2.397996875E0,2.010900021E0,7.066000104E-1,-1.752699971E0
2.417996875E0,1.500299931E0,6.527999640E-1,-2.166499853E0
2.437996875E0,6.814999580E-1,7.321000099E-1,-2.352200031E0
2.457996875E0,-2.740000002E-2,7.928000093E-1,-2.171900034E0
2.477998437E0,-5.105999708E-1,1.116500020E0,-1.930699944E0
2.507996875E0,-2.542999983E-1,1.382200003E0,-1.776199937E0
2.527998437E0,1.950000040E-2,1.373099923E0,-1.724999905E0
2.557996875E0,-1.714999974E-1,1.364099979E0,-1.430799961E0
2.577996875E0,-2.412000000E-1,1.118799925E0,-8.919000030E-1
2.597998437E0,-5.792999864E-1,1.130699992E0,-3.531999886E-1
2.618000000E0,-1.025499940E0,1.314499974E0,2.789999917E-2
2.647996875E0,-9.677999616E-1,1.371299982E0,3.283999860E-1
2.668003125E0,-8.029999733E-1,1.236299992E0,5.708000064E-1
2.697996875E0,-5.030999780E-1,5.335999727E-1,1.263299942E0
2.718000000E0,-5.392999649E-1,8.169999719E-2,1.721599936E0
2.747996875E0,-1.073199987E0,7.169999927E-2,1.864699960E0
2.767996875E0,-7.608999610E-1,5.179999769E-2,1.403100014E0
2.787996875E0,-1.232999936E-1,-6.312999725E-1,1.571999907E0
2.808003125E0,-6.541999578E-1,-6.556999683E-1,1.816799998E0
2.828006250E0,-1.696299911E0,-9.534999728E-1,2.048099995E0
2.858003125E0,-2.825299978E0,-1.179199934E0,1.123799920E0
2.887996875E0,-2.509299994E0,-6.358999610E-1,-2.019999921E-2
2.908004687E0,-1.403899908E0,-6.656000018E-1,-3.707000017E-1
2.937996875E0,-7.440999746E-1,-4.242999852E-1,-2.428999990E-1
2.957996875E0,-9.691999555E-1,-5.174999833E-1,-4.190999866E-1
2.977996875E0,-1.242100000E0,-3.903999925E-1,-1.024399996E0
2.997998437E0,-1.158599973E0,-2.245000005E-1,-1.498899937E0
3.027996875E0,-3.892000020E-1,-1.921999902E-1,-1.926299930E0
3.047996875E0,2.091999948E-1,-3.709999919E-1,-2.277299881E0
3.067996875E0,4.452999830E-1,-4.337999821E-1,-2.646899939E0
3.087996875E0,5.101000071E-1,-6.308000088E-1,-2.968600035E0
3.108000000E0,5.550000072E-1,-9.162999988E-1,-2.968899965E0
3.137996875E0,5.157999992E-1,-1.245199919E0,-2.390499830E0
3.158000000E0,2.301999927E-1,-1.370199919E0,-2.052700043E0
3.187996875E0,-1.300000004E-3,-1.454699993E0,-1.376099944E0
3.208000000E0,2.714999914E-1,-1.551399946E0,-7.053999901E-1
3.228003125E0,4.572999775E-1,-1.404500008E0,-9.849999845E-2
3.257996875E0,1.920000017E-1,-8.985999823E-1,3.361999989E-1
3.277996875E0,1.442999989E-1,-5.004999638E-1,1.639000028E-1
3.298001562E0,9.221999645E-1,-5.270999670E-1,-1.715999991E-1
3.327996875E0,1.976499915E0,-4.481999874E-1,1.226999998E0
3.348000000E0,1.955299973E0,-2.439999878E-1,2.947199821E0
3.377998437E0,1.021399975E0,-5.372999907E-1,3.422600031E0
3.407996875E0,-4.199999943E-2,1.342999935E-1,1.238099933E0
3.427996875E0,-1.451999992E-1,5.044000149E-1,-5.519999936E-2
3.448001562E0,1.776999980E-1,5.850999951E-1,-4.662999809E-1
3.477998437E0,5.496000051E-1,4.919999838E-1,-1.261299968E0
3.498003125E0,1.859000027E-1,6.985999942E-1,-2.065999985E0
3.527996875E0,-3.879999816E-1,7.531999946E-1,-2.595399857E0
3.548001562E0,-7.135999799E-1,8.883999586E-1,-2.270799875E0
3.577996875E0,-7.623999715E-1,8.757999539E-1,-1.768799901E0
3.598003125E0,-9.669999480E-1,9.159999490E-1,-1.433699965E0
3.627998437E0,-1.420699954E0,9.442999959E-1,-3.804999888E-1
3.648000000E0,-1.485899925E0,9.228999615E-1,2.689000070E-1
3.668000000E0,-1.772899985E0,1.010200024E0,4.952999949E-1
3.697996875E0,-2.379099846E0,1.572799921E0,7.691999674E-1
3.717996875E0,-2.081399918E0,1.763899922E0,1.110999942E0
3.738001562E0,-1.069599986E0,1.556299925E0,1.432399988E0
3.767996875E0,2.471999973E-1,1.186100006E0,2.478099823E0
3.788001562E0,2.813999951E-1,8.646999598E-1,3.065199852E0
3.817996875E0,-2.206999958E-1,-3.337000012E-1,2.452199936E0
3.837998437E0,-5.367999673E-1,-9.132999778E-1,2.019299984E0
3.867996875E0,-3.030999899E-1,-1.641299963E0,1.862800002E0
3.888004687E0,-6.960999966E-1,-1.645200014E0,1.335899949E0
3.917996875E0,-7.866999507E-1,-1.795300007E0,-2.374999970E-1
3.938001562E0,-3.921999931E-1,-1.532499909E0,-1.172599912E0
3.967996875E0,4.078999758E-1,-1.571699977E0,-1.762399912E0
3.987998437E0,3.502999842E-1,-1.586300015E0,-1.941999912E0
4.017996875E0,-1.730000041E-2,-1.293599963E0,-2.325000048E0
4.038000000E0,-2.820000052E-1,-1.022400022E0,-2.386199951E0
4.067996875E0,-1.519999951E-1,-5.285999775E-1,-2.371700048E0
4.088000000E0,2.651999891E-1,-3.693999946E-1,-2.302500010E0
4.117996875E0,5.975999832E-1,-1.995999962E-1,-1.952899933E0
4.137998437E0,5.408999920E-1,-3.973999918E-1,-1.701200008E0
4.168003125E0,1.246999949E-1,-4.335999787E-1,-1.529099941E0
4.197996875E0,-1.518999934E-1,-2.958999872E-1,-1.430199981E0
4.217996875E0,-1.639000028E-1,-3.464999795E-1,-1.203999996E0
4.237996875E0,-1.740000024E-2,-3.810999990E-1,-8.820999861E-1
4.257996875E0,5.299000144E-1,-6.954999566E-1,-3.473999798E-1
4.278004687E0,7.764999866E-1,-8.894000053E-1,8.519999683E-2
4.307996875E0,5.404999852E-1,-5.119999647E-1,8.434000015E-1
4.327998437E0,7.974999547E-1,-4.354999959E-1,8.278999925E-1
4.357996875E0,2.407799959E0,-1.830399990E0,5.507000089E-1
4.378006250E0,2.754799843E0,-1.547500014E0,1.017699957E0
4.407996875E0,2.001199961E0,-1.756099939E0,3.514699936E0
4.428006250E0,7.918999791E-1,-1.675099969E0,3.062599897E0
4.457996875E0,4.930000007E-1,-7.638999820E-1,8.810999990E-1
4.477996875E0,1.481199980E0,-4.362999797E-1,4.069999978E-2
4.497996875E0,1.962599993E0,2.955999970E-1,4.930000007E-2
4.518000000E0,1.707199931E0,3.516999781E-1,-3.752000034E-1
4.547996875E0,5.788999796E-1,5.173000097E-1,-1.452399969E0
4.568001562E0,1.351999938E-1,4.838999808E-1,-1.909299970E0
4.597996875E0,-4.959999770E-2,5.051000118E-1,-2.081899881E0
4.617996875E0,1.321000010E-1,4.154999852E-1,-2.356299877E0
4.637996875E0,1.640999913E-1,3.396999836E-1,-2.404500008E0
4.657996875E0,-2.730000019E-2,3.057000041E-1,-2.050699949E0
4.677996875E0,-2.229999900E-1,1.404999942E-1,-1.649199963E0
4.697996875E0,-5.458999872E-1,4.939999804E-2,-1.189499974E0
4.718001562E0,-7.858999968E-1,3.899999894E-3,-6.613999605E-1
4.747996875E0,-9.417999983E-1,2.369999886E-2,8.280000091E-2
4.768006250E0,-7.841999531E-1,3.299999982E-3,3.203999996E-1
4.797996875E0,8.315999508E-1,-8.709999919E-1,1.609899998E0
4.818001562E0,1.106599927E0,-1.160099983E0,3.860399961E0
4.847996875E0,-5.078999996E-1,-1.162899971E0,5.796000004E0
4.868001562E0,-1.800199986E0,-8.925999999E-1,3.474900007E0
4.897996875E0,-2.427099943E0,1.244999990E-1,-2.983999848E-1
4.918006250E0,-1.741599917E0,4.578000009E-1,-1.587899923E0
4.947996875E0,-2.092999965E-1,2.748999894E-1,-2.026099920E0
4.968003125E0,-6.087999940E-1,3.650999963E-1,-1.934699893E0
4.997996875E0,-1.690400004E0,-2.529999986E-2,-1.146099925E0
5.018003125E0,-1.925499916E0,-4.783999920E-1,-5.552999973E-1
5.047996875E0,-2.403399944E0,-6.003000140E-1,7.620999813E-1
5.068003125E0,-2.298799992E0,-8.334999681E-1,8.416999578E-1
5.097996875E0,-2.422799826E0,-4.627999961E-1,-3.867000043E-1
5.117998437E0,-2.354599953E0,-1.314000040E-1,-1.279299974E0
5.147996875E0,-1.528399944E0,-1.326999962E-1,-2.240599871E0
5.167996875E0,-1.093299985E0,-1.379999965E-1,-2.582599878E0
5.187996875E0,-7.030999660E-1,-2.334999889E-1,-2.277199984E0
5.207996875E0,-6.024000049E-1,-5.020999908E-1,-1.620499969E0
5.227996875E0,-9.226999879E-1,-6.123999953E-1,-5.631999969E-1
5.247996875E0,-1.002200007E0,-1.212800026E0,4.541999996E-1
5.267996875E0,-9.100999832E-1,-1.719200015E0,9.532999992E-1
5.287996875E0,-4.013999999E-1,-1.645299911E0,1.054700017E0
5.308003125E0,1.410899997E0,-2.280699968E0,5.825999975E-1
5.337996875E0,1.532599926E0,-1.682999969E0,3.452999890E-1
5.357996875E0,-9.287999868E-1,-1.011099935E0,2.521499872E0
5.377996875E0,-2.733599901E0,-1.284299970E0,4.246799946E0
5.397996875E0,-2.700899839E0,-1.113299966E0,3.570499897E0
5.417996875E0,-1.260900021E0,-2.023999989E-1,1.034299970E0
5.437996875E0,1.429099917E0,-2.958000004E-1,7.504000068E-1
5.457996875E0,3.724900007E0,9.250000119E-2,-7.509999722E-2
5.477996875E0,4.125999928E0,3.935999870E-1,-1.204699993E0
5.498009375E0,2.494199991E0,2.425999939E-1,-2.350800037E0
5.527998437E0,-2.189999968E-1,-3.387999833E-1,-2.819399834E0
5.547998437E0,-1.102100015E0,-3.615999818E-1,-2.338500023E0
5.577996875E0,-2.071999907E-1,-5.514000058E-1,-1.631899953E0
5.598004687E0,4.706999958E-1,-6.103000045E-1,-1.806299925E0
5.627996875E0,7.745999694E-1,-7.888999581E-1,-2.634099960E0
5.647998437E0,5.745999813E-1,-8.757999539E-1,-2.709599972E0
5.667998437E0,1.704999954E-1,-8.682999611E-1,-2.424900055E0
5.698001562E0,-4.043000042E-1,-1.155200005E0,-2.219099998E0
5.727996875E0,-7.051999569E-1,-1.122799993E0,-1.695699930E0
5.748007812E0,-6.891999841E-1,-1.191900015E0,-6.841999888E-1
5.777996875E0,-7.118999958E-1,-1.387499928E0,8.815999627E-1
5.798001562E0,-1.001799941E0,-1.563899994E0,1.594900012E0
5.827998437E0,-7.249000072E-1,-2.390799999E0,1.763399959E0
5.848003125E0,-7.134000063E-1,-2.544699907E0,2.047600031E0
5.877996875E0,-8.938999772E-1,-2.125999928E0,2.928299904E0
5.897996875E0,-1.136899948E0,-1.756599903E0,2.832399845E0
5.917996875E0,-1.251199961E0,-1.237800002E0,1.762099981E0
5.938004687E0,-1.406599998E0,-4.000999928E-1,6.664999723E-1
5.967996875E0,-9.885999560E-1,2.820000052E-1,9.399999864E-3
5.987998437E0,-9.269999862E-1,6.897000074E-1,-1.210999936E-1
6.017996875E0,-8.183000088E-1,7.805999517E-1,-2.217999995E-1
6.037998437E0,-6.218000054E-1,9.462999701E-1,-3.696999848E-1
6.067996875E0,-2.572000027E-1,7.576999664E-1,-1.034899950E0
6.088001562E0,6.749999523E-2,4.781999886E-1,-1.765999913E0
6.117996875E0,1.303000003E-1,3.077999949E-1,-2.052399874E0
6.137998437E0,3.948999941E-1,6.369999796E-2,-1.500999928E0
6.167996875E0,5.309000015E-1,-4.710000008E-2,-9.106000066E-1
6.187998437E0,3.691000044E-1,1.780999899E-1,-7.310999632E-1
6.217996875E0,1.480000019E-1,7.140000165E-2,-1.993999928E-1
6.238006250E0,7.939999551E-2,-4.559999704E-2,2.502999902E-1
6.267996875E0,3.125000000E-1,1.177999973E-1,5.821999907E-1
6.288001562E0,6.516999602E-1,1.512999982E-1,7.096999884E-1
6.317996875E0,8.965999484E-1,1.156999990E-1,6.315999627E-1
6.337998437E0,8.578000069E-1,-2.049999982E-1,2.502000034E-1
6.367996875E0,8.420000076E-1,-2.280000001E-1,-1.569999903E-1
6.388001562E0,8.585999608E-1,-1.370999962E-1,-1.745999902E-1
6.417996875E0,6.861000061E-1,-1.829999983E-1,-1.770000011E-1
6.437996875E0,9.989999533E-1,-6.191999912E-1,-1.122999936E-1
6.457996875E0,1.657699943E0,-1.087399960E0,4.889999703E-2
6.478001562E0,2.154999971E0,-1.391899943E0,5.593000054E-1
6.507998437E0,1.264500022E0,-1.858799934E0,7.091999650E-1
6.528004687E0,-3.427999914E-1,-9.458999634E-1,5.741999745E-1
6.557996875E0,-8.342999816E-1,-4.236999750E-1,-6.168999672E-1
6.578000000E0,-7.576000094E-1,7.419999689E-2,-1.211899996E0
6.607996875E0,5.880999565E-1,-2.384999990E-1,-1.368799925E0
6.627998437E0,1.067099929E0,-3.907999992E-1,-1.469699979E0
6.657996875E0,3.889999986E-1,-5.367000103E-1,-1.223199964E0
6.678004687E0,-3.888999820E-1,-6.820999980E-1,-1.015599966E0
6.707996875E0,-1.495100021E0,-6.876999736E-1,-6.117999554E-1
6.727996875E0,-1.875799894E0,-6.571999788E-1,-4.935999811E-1
6.747996875E0,-1.877399921E0,-5.472999811E-1,-3.813999891E-1
6.767996875E0,-1.399599910E0,-5.270999670E-1,-4.426999986E-1
6.787996875E0,-8.693000078E-1,-5.467000008E-1,-7.078999877E-1
6.807996875E0,-5.676000118E-1,-4.917999804E-1,-9.035999775E-1
6.828001562E0,-5.884999633E-1,-4.830999970E-1,-9.136999846E-1
6.857996875E0,-1.014099956E0,-5.357999802E-1,-5.044000149E-1
6.878004687E0,-1.160399914E0,-5.776999593E-1,-6.133999825E-1
6.907996875E0,-7.532999516E-1,-7.150999904E-1,-7.889999747E-1
6.927996875E0,-3.422999978E-1,-7.423999906E-1,-4.466999769E-1
6.947996875E0,-2.157000005E-1,-6.956999898E-1,4.939999804E-2
6.968001562E0,-7.965999842E-1,-5.385999680E-1,5.356999636E-1
6.997996875E0,-1.773899913E0,-3.655000031E-1,7.294999957E-1
7.018001562E0,-1.815799952E0,-4.233999848E-1,5.338999629E-1
7.047996875E0,-1.510800004E0,-4.768999815E-1,4.077000022E-1
7.067996875E0,-1.452799916E0,-4.729999900E-1,4.174999893E-1
7.087996875E0,-1.399399996E0,-5.465999842E-1,2.996000051E-1
7.107996875E0,-1.719599962E0,-5.637999773E-1,-3.099999856E-3
7.127996875E0,-1.830099940E0,-5.419999957E-1,-4.019999802E-1
7.147996875E0,-1.742100000E0,-4.273999929E-1,-7.500000000E-1
7.168003125E0,-1.768599987E0,-1.937000006E-1,-1.037299991E0
7.197996875E0,-1.549299955E0,1.354999989E-1,-9.274999499E-1
7.218000000E0,-1.282799959E0,5.009999871E-2,-7.159000039E-1
7.247996875E0,-1.274399996E0,1.359999925E-2,-5.047999620E-1
7.267996875E0,-1.217899919E0,2.279999852E-2,-1.493999958E-1
7.287996875E0,-1.074399948E0,-2.869999968E-2,2.541999817E-1
7.308000000E0,-1.245499969E0,-1.159999985E-2,6.480999589E-1
7.337996875E0,-1.276600003E0,-2.803999782E-1,4.159999788E-1
7.358003125E0,-9.548999667E-1,-2.349999994E-1,2.021999955E-1
7.387996875E0,-1.200999990E-1,-2.933999896E-1,-5.229999870E-2
7.407998437E0,1.244999990E-1,-2.296999991E-1,-2.016000003E-1
7.437996875E0,2.994000018E-1,-2.232999951E-1,-9.959999472E-2
7.458003125E0,1.895999908E-1,-1.764999926E-1,-4.380000010E-2
7.487996875E0,-1.643999964E-1,3.419999778E-2,-3.386999965E-1
7.508001562E0,-3.824999928E-1,1.119999960E-1,-8.360999823E-1
7.537996875E0,-7.193999887E-1,2.158999890E-1,-1.465799928E0
7.558000000E0,-8.475999832E-1,2.448999882E-1,-1.635699987E0
7.587996875E0,-8.726999760E-1,2.284999937E-1,-1.508399963E0
7.608000000E0,-8.557999730E-1,2.576999962E-1,-8.960999846E-1
7.637996875E0,-6.394999623E-1,7.490000129E-2,5.394999981E-1
7.657996875E0,-4.835999906E-1,7.739999890E-2,1.207899928E0
7.677996875E0,-3.145999908E-1,1.006999984E-1,1.659500003E0
7.697996875E0,-2.074999958E-1,1.026000008E-1,1.922899961E0
7.717998437E0,3.969999775E-2,1.633999944E-1,1.731099963E0
7.748003125E0,8.776999712E-1,2.994999886E-1,6.660000086E-1
7.777996875E0,1.345999956E0,3.439999819E-1,-1.618999988E-1
7.798003125E0,1.510599971E0,1.624999940E-1,-2.850999832E-1
7.827996875E0,1.506199956E0,-1.547999978E-1,-6.599999964E-2
7.847996875E0,1.348399997E0,-4.032999873E-1,3.759999946E-2
7.867996875E0,1.081499934E0,-6.933999658E-1,-2.018999904E-1
7.887996875E0,1.145900011E0,-9.077000022E-1,-6.739999652E-1
7.907996875E0,1.119099975E0,-1.137899995E0,-9.977999926E-1
7.927996875E0,7.895999551E-1,-1.111699939E0,-1.191999912E0
7.947998437E0,2.791000009E-1,-9.180999994E-1,-1.207799911E0
7.978009375E0,-1.900999993E-1,-6.090999842E-1,-1.208799958E0
8.007996875E0,-3.529999778E-2,-3.373000026E-1,-1.514499903E0
8.028006250E0,2.028999925E-1,-2.184999883E-1,-1.317799926E0
8.057996875E0,1.011199951E0,-3.375999928E-1,-6.584999561E-1
8.077996875E0,1.083699942E0,-2.689000070E-1,-1.930999905E-1
8.098003125E0,5.315999985E-1,-8.150000125E-2,4.407999814E-1
8.127996875E0,-6.939999759E-2,-5.999999703E-4,6.843999624E-1
8.147998437E0,-1.077999994E-1,1.811999977E-1,4.402000010E-1
8.177996875E0,2.017999887E-1,3.215000033E-1,2.263000011E-1
8.197996875E0,3.531000018E-1,3.488000035E-1,2.461999953E-1
8.217996875E0,5.778999925E-1,2.296999991E-1,2.854999900E-1
8.238003125E0,6.823999882E-1,1.114000008E-1,2.266999930E-1
8.267996875E0,7.371999621E-1,-7.349999994E-2,1.184000000E-1
8.287998437E0,6.383000016E-1,-1.492999941E-1,2.009999938E-2
8.317996875E0,6.155999899E-1,-2.489999980E-1,-2.536999881E-1
8.338001562E0,5.670999885E-1,-2.748999894E-1,-4.189999998E-1
8.367996875E0,5.012999773E-1,-3.366999924E-1,-5.633000135E-1
8.388004687E0,4.013999999E-1,-3.409999907E-1,-5.821999907E-1
8.417996875E0,3.951999843E-1,-2.597999871E-1,-4.917999804E-1
8.438003125E0,4.307999909E-1,-1.453000009E-1,-4.120000005E-1
8.467996875E0,3.974999785E-1,-3.729999810E-2,-2.831999958E-1
8.488000000E0,3.779999912E-1,-2.599999867E-2,-2.430999875E-1
8.517996875E0,1.912999898E-1,9.359999746E-2,-3.297999799E-1
8.537996875E0,1.273999959E-1,7.959999889E-2,-3.580999970E-1
8.557996875E0,5.219999701E-2,5.619999766E-2,-2.491999865E-1
8.577996875E0,4.999999655E-4,-4.820000008E-2,-2.486999929E-1
8.597996875E0,-1.053999960E-1,-7.449999452E-2,-1.506000012E-1
8.617998437E0,-2.304999977E-1,-7.180000097E-2,-5.240000039E-2
8.638006250E0,-2.523999810E-1,-7.379999757E-2,-9.079999477E-2
8.667996875E0,-1.099999994E-2,-2.649999969E-2,-4.799999893E-1
8.688000000E0,1.088999957E-1,3.519999981E-2,-8.008999825E-1
8.717996875E0,-4.609999806E-2,5.240000039E-2,-7.676999569E-1
8.737996875E0,-2.504000068E-1,6.119999662E-2,-5.496000051E-1
8.757996875E0,-3.023000062E-1,3.709999844E-2,-3.321000040E-1
8.778003125E0,-3.010999858E-1,5.939999968E-2,-2.228000015E-1
8.807996875E0,-3.269000053E-1,8.200000040E-3,-2.296999991E-1
8.828003125E0,-5.286999941E-1,1.699999906E-3,-3.058999777E-1
8.857996875E0,-5.895000100E-1,3.539999947E-2,-3.804999888E-1
8.877998437E0,-4.766999781E-1,7.289999723E-2,-4.855999947E-1
8.907996875E0,-3.664999902E-1,1.206999943E-1,-5.126999617E-1
8.928003125E0,-4.640999734E-1,1.187999994E-1,-4.036999941E-1
8.957996875E0,-5.859000087E-1,2.256999910E-1,-2.744999826E-1
8.978004687E0,-6.026999950E-1,3.008999825E-1,-1.270999908E-1
9.007996875E0,-5.719999671E-1,2.483000010E-1,1.171999946E-1
9.027996875E0,-6.233999729E-1,2.863999903E-1,2.630999982E-1
9.047996875E0,-5.942999721E-1,2.956999838E-1,3.504999876E-1
9.067996875E0,-6.590999961E-1,3.880999982E-1,1.931999922E-1
9.087996875E0,-6.390999556E-1,5.192999840E-1,2.679999918E-2
9.107996875E0,-4.885999858E-1,5.825999975E-1,-5.229999870E-2
9.128004687E0,-3.143999875E-1,5.302000046E-1,-1.824999899E-1
9.157996875E0,-3.082000017E-1,5.180000067E-1,-2.956999838E-1
9.177996875E0,-2.971999943E-1,4.992999732E-1,-2.892999947E-1
9.197996875E0,-1.655000001E-1,4.393000007E-1,-2.736999989E-1
9.218003125E0,-1.064999998E-1,3.282999992E-1,-2.290999889E-1
9.247996875E0,-3.094999790E-1,1.392000020E-1,-2.252999991E-1
9.268003125E0,-4.350000024E-1,4.289999977E-2,-3.762999773E-1
9.297996875E0,-5.063999891E-1,-1.688999981E-1,-7.039999962E-1
9.318003125E0,-5.756999850E-1,-2.976000011E-1,-7.549999952E-1
9.347996875E0,-6.094999909E-1,-5.349999666E-1,-9.932999611E-1
9.368001562E0,-6.542999744E-1,-7.402999997E-1,-1.093400002E0
9.397996875E0,-8.123999834E-1,-1.332899928E0,-4.186999798E-1
9.417996875E0,-1.265799999E0,-1.418099999E0,2.953000069E-1
9.437996875E0,-1.699099898E0,-1.260200024E0,8.836999536E-1
9.457996875E0,-1.569299936E0,-8.657999635E-1,7.387999892E-1
9.477996875E0,-7.038999796E-1,-4.563999772E-1,1.333999932E-1
9.497998437E0,3.238999844E-1,-6.870000064E-2,-3.852999806E-1
9.518000000E0,9.307999611E-1,1.655000001E-1,-8.090999722E-1
9.547996875E0,1.480000019E0,4.084999859E-1,-8.831999898E-1
9.568001562E0,1.603500009E0,5.026000142E-1,-4.551999867E-1
9.597996875E0,1.637899995E0,5.349999666E-1,2.665999830E-1
9.618000000E0,1.643000007E0,6.529999971E-1,5.313000083E-1
9.647998437E0,1.788100004E0,7.035999894E-1,2.969000041E-1
9.668000000E0,1.876199961E0,7.032999992E-1,1.595000029E-1
9.697996875E0,1.612499952E0,5.354999900E-1,-6.650000066E-2
9.717996875E0,1.182799935E0,5.138999820E-1,-2.529000044E-1
9.737996875E0,9.106000066E-1,5.098000169E-1,-1.447999924E-1
9.758004687E0,9.200999737E-1,3.662999868E-1,-1.446999907E-1
9.787996875E0,8.812999725E-1,1.986999959E-1,-2.037999928E-1
9.808001562E0,8.599999547E-1,9.709999710E-2,-2.824999988E-1
9.828003125E0,6.233999729E-1,-1.300000004E-3,-1.942999959E-1
9.857998437E0,5.992999673E-1,-2.556000054E-1,9.079999477E-2
9.887996875E0,8.828999996E-1,-3.563999832E-1,1.189999934E-2
9.908003125E0,1.050499916E0,-3.233000040E-1,-2.937999964E-1
9.937998437E0,1.366299987E0,-3.321999907E-1,-3.449999988E-1
9.967998437E0,1.732199907E0,-3.348000050E-1,-3.170000017E-2
9.997998437E0,1.794799924E0,-1.810999960E-1,-1.987999976E-1
1.002800313E1,1.909199953E0,-1.759999990E-2,-4.348999858E-1
1.004800469E1,1.924399972E0,1.429999918E-1,-5.626999736E-1
1.007799688E1,1.792499900E0,2.973999977E-1,-5.726000071E-1
1.009800156E1,1.735700011E0,3.903999925E-1,-4.742999971E-1
1.012799688E1,1.583400011E0,4.549999833E-1,-2.771999836E-1
1.014800156E1,1.222299933E0,5.163999796E-1,-7.009999454E-2
1.017799688E1,8.883000016E-1,5.670999885E-1,-9.719999880E-2
1.019800313E1,7.471999526E-1,5.816000104E-1,-2.518999875E-1
1.022800312E1,5.654999614E-1,5.755999684E-1,-1.793999970E-1
1.025799688E1,3.470000029E-1,5.040999651E-1,-8.299999870E-3
1.027799688E1,3.901999891E-1,3.841999769E-1,5.379999802E-2
1.029800313E1,4.855999947E-1,1.787000000E-1,1.739999950E-1
1.032799688E1,3.838000000E-1,-1.818999946E-1,4.299999774E-1
1.034799688E1,4.600000102E-3,-3.251000047E-1,6.175000072E-1
1.036799688E1,-1.941999942E-1,-4.570999742E-1,7.080999613E-1
1.038799688E1,-2.985000014E-1,-2.460999936E-1,6.492999792E-1
1.040799688E1,-1.913999915E-1,-1.140000001E-1,3.251000047E-1
1.042799688E1,-1.744000018E-1,3.999999911E-2,-1.453000009E-1
1.044799844E1,-1.780999899E-1,9.629999846E-2,-5.460000038E-1
1.047799688E1,-2.085999995E-1,3.258999884E-1,-9.939999580E-1
1.049799844E1,-2.611999810E-1,5.250999928E-1,-1.227299929E0
1.052799688E1,-5.963999629E-1,6.617000103E-1,-1.097800016E0
1.054800156E1,-9.936999679E-1,6.870999932E-1,-9.698999524E-1
1.057799688E1,-1.465699911E0,7.752000093E-1,-1.105599999E0
1.059799688E1,-1.739899993E0,9.454999566E-1,-1.170400023E0
1.061799688E1,-1.836699963E0,1.042899966E0,-1.203299999E0
1.063799844E1,-1.756999969E0,1.039799929E0,-1.342499971E0
1.066799688E1,-1.750199914E0,1.089200020E0,-1.622399926E0
1.068799844E1,-1.583099961E0,1.058300018E0,-1.437899947E0
1.071799688E1,-1.217899919E0,8.289999962E-1,-6.583999991E-1
1.073799844E1,-1.134400010E0,7.192999721E-1,7.580000162E-2
1.076799688E1,-1.066499949E0,5.081999898E-1,9.035999775E-1
1.078799688E1,-1.000200033E0,4.097999930E-1,9.893999696E-1
1.080799688E1,-8.596000075E-1,5.026000142E-1,9.001999497E-1
1.082799688E1,-5.884000063E-1,6.208999753E-1,6.635999680E-1
1.084799688E1,-2.780999839E-1,6.209999919E-1,2.888999879E-1
1.086799688E1,5.920000002E-2,4.887000024E-1,-5.859999731E-2
1.088800313E1,1.898999959E-1,4.739999771E-1,-1.704999954E-1
1.091799688E1,4.990999997E-1,2.502999902E-1,-9.200000204E-3
1.093800156E1,6.204000115E-1,9.789999574E-2,1.158000007E-1
1.096799688E1,6.207000017E-1,-1.061999947E-1,6.129999831E-2
1.098800469E1,5.529999733E-1,-1.775999963E-1,3.350000083E-2
1.101799688E1,1.013800025E0,-7.513999939E-1,1.501999944E-1
1.103799688E1,1.140499949E0,-9.475999475E-1,9.587000012E-1
1.105799688E1,4.059000015E-1,-8.032999635E-1,1.635199904E0
1.107799844E1,-6.724999547E-1,-7.022999525E-1,2.005199909E0
1.110799688E1,-1.447799921E0,-1.002999991E-1,4.452999830E-1
1.112800156E1,-7.907999754E-1,3.127999902E-1,-3.876000047E-1
1.115799688E1,8.585999608E-1,3.953000009E-1,-1.278399944E0
1.117800469E1,1.670399904E0,3.096999824E-1,-1.766199946E0
1.120799688E1,1.464800000E0,1.257999986E-1,-1.681999922E0
1.122800469E1,4.608999789E-1,6.359999627E-2,-9.845999479E-1
1.125799688E1,-7.895999551E-1,1.603000015E-1,-2.550999820E-1
1.127799688E1,-7.922999859E-1,2.265999913E-1,-4.493999779E-1
1.129799688E1,-3.307999969E-1,2.881999910E-1,-1.087000012E0
1.131799688E1,9.789999574E-2,5.001000166E-1,-1.814000010E0
1.133799688E1,3.228999972E-1,6.916999817E-1,-2.256099939E0
1.135799688E1,2.660999894E-1,8.844999671E-1,-2.088899851E0
1.137799844E1,8.069999516E-2,1.182500005E0,-1.626199961E0
1.140799688E1,-1.107999980E-1,1.465600014E0,-6.995999813E-1
1.142799844E1,-3.373000026E-1,1.595699906E0,3.949999809E-2
1.144800781E1,-6.010999680E-1,1.706699967E0,6.802999973E-1
1.147800000E1,-5.554000139E-1,1.749099970E0,1.290699959E0
1.150799688E1,-1.649999917E-1,1.639599919E0,1.455500007E0
1.152799688E1,8.509999514E-2,1.384299994E0,1.590299964E0
1.154799688E1,1.960000023E-2,1.228699923E0,1.794099927E0
1.156800000E1,-6.030000001E-2,1.179899931E0,2.038300037E0
1.159799688E1,1.063999981E-1,3.443000019E-1,2.469399929E0
1.161800469E1,-1.203999966E-1,-4.319999740E-2,3.045699835E0
1.164799688E1,-1.225700021E0,-1.929999888E-1,2.539899826E0
1.166801406E1,-1.212999940E0,-3.456999958E-1,1.035599947E0
1.169799688E1,-8.190000057E-1,-3.920999765E-1,-3.768999875E-1
1.171800625E1,-9.129999876E-1,-3.987999856E-1,-6.886000037E-1
1.174799688E1,-1.383700013E0,-7.121999860E-1,-1.281799912E0
1.176800469E1,-1.779099941E0,-6.757999659E-1,-1.941899896E0
1.179799688E1,-1.848399997E0,-6.143999696E-1,-2.780400038E0
1.181800156E1,-1.717299938E0,-5.846999884E-1,-3.045500040E0
1.184799688E1,-1.158100009E0,-7.967999578E-1,-2.888700008E0
1.186799688E1,-8.787999749E-1,-1.060799956E0,-2.776199818E0
1.188799688E1,-7.671999931E-1,-1.144500017E0,-2.461199999E0
1.190800000E1,-7.437999845E-1,-1.263899922E0,-1.912400007E0
1.193799688E1,-1.003399968E0,-1.314000010E0,-1.269099951E0
1.195799688E1,-9.447000027E-1,-1.152099967E0,-1.076399922E0
1.197799844E1,-6.401000023E-1,-1.090199947E0,-8.642999530E-1
1.200799688E1,9.799999744E-2,-7.714999914E-1,-2.316999882E-1
1.202799688E1,8.835999966E-1,-6.146999598E-1,4.890999794E-1
1.204799688E1,1.709399939E0,-5.622000098E-1,8.866999745E-1
1.206799688E1,2.071399927E0,-5.196999907E-1,7.866999507E-1
1.208799688E1,2.134999990E0,-5.522999763E-1,1.683999896E-1
1.210800156E1,2.631099939E0,-9.454999566E-1,5.194000006E-1
1.213799688E1,1.967199922E0,-7.487999797E-1,2.502199888E0
1.215800312E1,8.249999881E-1,-1.145099998E0,3.951799870E0
1.218799688E1,-5.498999953E-1,-9.330999851E-1,2.408799887E0
1.220799688E1,4.267999828E-1,-5.396999717E-1,1.365299940E0
1.222800156E1,2.239099979E0,-4.657999873E-1,-8.389999717E-2
1.225800156E1,2.612799883E0,4.289999977E-2,-1.693300009E0
1.228799688E1,6.908000112E-1,3.459999859E-1,-1.913899899E0
1.230800312E1,-2.260999978E-1,7.813000083E-1,-2.058699846E0
1.233799688E1,-2.453999966E-1,1.140499949E0,-2.369199991E0
1.235799688E1,2.257999927E-1,1.138100028E0,-2.929399967E0
1.237799688E1,3.337999880E-1,1.199999928E0,-3.361299992E0
1.239799844E1,4.669999704E-2,1.304299951E0,-3.165299892E0
1.242799688E1,-5.799999833E-1,1.387799978E0,-2.046700001E0
1.244799844E1,-6.286000013E-1,1.331599951E0,-1.310199976E0
1.247799688E1,-6.656999588E-1,1.403399944E0,-4.361999929E-1
1.249799844E1,-6.205999851E-1,1.318199992E0,1.326999962E-1
1.252799688E1,-8.179000020E-1,1.068400025E0,6.119999886E-1
1.254799688E1,-1.003799915E0,8.297999501E-1,7.182999849E-1
1.256799688E1,-7.252999544E-1,4.476999938E-1,1.423399925E0
1.258799688E1,-4.619999975E-2,-8.599999361E-3,2.521699905E0
1.260799688E1,3.594000041E-1,-8.800999522E-1,3.738299847E0
1.262799688E1,-3.215999901E-1,-1.060899973E0,4.818900108E0
1.264800000E1,-9.749999642E-1,-1.452799916E0,4.871699810E0
1.267799688E1,-1.735799909E0,-1.234599948E0,2.822700024E0
1.269800156E1,-1.601499915E0,-7.879999876E-1,1.602199912E0
1.272799688E1,-5.566999912E-1,-5.230999589E-1,-5.072000027E-1
1.274799688E1,-1.599999964E-1,-3.174999952E-1,-1.486199975E0
1.276799688E1,-2.547999918E-1,-2.300000051E-3,-1.963899970E0
1.278799688E1,-4.354999959E-1,1.375000030E-1,-2.205499887E0
1.280799688E1,-6.450999975E-1,2.336999923E-1,-2.358199835E0
1.282799844E1,-8.010999560E-1,4.302999973E-1,-2.089599848E0
1.285799688E1,-4.420999885E-1,7.059999555E-2,-1.815400004E0
1.287799688E1,-4.481000006E-1,-4.889999703E-2,-1.748299956E0
1.289799688E1,-4.062999785E-1,-7.239999622E-2,-1.787499905E0
1.291799688E1,-4.201000035E-1,-1.545999944E-1,-1.815499902E0
1.293800156E1,-3.651999831E-1,-2.868999839E-1,-1.755399942E0
1.296799688E1,-5.428999662E-1,-5.546000004E-1,-1.343899965E0
1.298800469E1,-8.952999711E-1,-6.381999850E-1,-1.207399964E0
1.301799688E1,-9.002999663E-1,-7.386999726E-1,-1.119099975E0
1.303800313E1,-3.695999980E-1,-7.181999683E-1,-9.116999507E-1
1.306799688E1,6.658999920E-1,-8.118999600E-1,-2.626000047E-1
1.308799688E1,8.715999722E-1,-9.431999922E-1,1.098999977E-1
1.310799688E1,2.982999980E-1,-6.768999696E-1,2.371999919E-1
1.312799688E1,-2.398999929E-1,-2.398999929E-1,2.386000007E-1
1.314799688E1,4.355999827E-1,-2.565000057E-1,-7.755999565E-1
1.316800469E1,1.821799994E0,-8.679999709E-1,-1.492999911E0
1.319799688E1,2.920599937E0,-7.088999748E-1,1.229499936E0
1.321799688E1,2.049999952E0,-1.834699988E0,4.085199833E0
1.323800000E1,-2.885999978E-1,-1.387599945E0,4.563699722E0
1.326799688E1,-4.998999834E-1,-4.328999817E-1,2.211599827E0
1.328800000E1,8.009999990E-1,2.510000020E-2,1.818799973E0
1.331799688E1,1.998600006E0,6.832000017E-1,1.321000010E-1
1.333799688E1,1.822299957E0,7.964999676E-1,-1.604799986E0
1.335799688E1,1.279999971E0,8.195999861E-1,-3.175499916E0
1.337800156E1,8.151999712E-1,8.964999914E-1,-3.784199953E0
1.340799688E1,1.482999921E-1,1.209100008E0,-3.743299961E0
1.342800312E1,-1.569999941E-2,1.134799957E0,-3.486999989E0
1.345799688E1,-3.586999774E-1,1.093999982E0,-2.700500011E0
1.347800312E1,-6.904000044E-1,1.046499968E0,-1.933699965E0
1.350799688E1,-1.052600026E0,8.865999579E-1,-4.289999902E-1
1.352800469E1,-1.243199944E0,8.131999969E-1,6.439999938E-1
1.355799688E1,-1.398699999E0,5.866000056E-1,1.561699986E0
1.357800000E1,-1.487800002E0,5.090999603E-1,1.670099974E0
1.360799688E1,-1.133199930E0,6.205999851E-1,1.883099914E0
1.362799688E1,-7.053999901E-1,3.607999980E-1,1.852199912E0
1.364799688E1,-7.804999948E-1,3.106999993E-1,1.302799940E0
1.366799844E1,-8.521999717E-1,1.384999901E-1,3.644999862E-1
1.369799688E1,1.340000033E-1,-8.464999795E-1,2.009999901E-1
1.371800156E1,-2.049999870E-2,-3.625999987E-1,1.387699962E0
1.374799688E1,-6.017999649E-1,-1.257399917E0,4.056600094E0
1.376800313E1,-1.295699954E0,-1.460199952E0,3.253000021E0
1.379799688E1,-1.231799960E0,-7.985999584E-1,1.452600002E0
1.381799688E1,-1.296999902E-1,-4.983999729E-1,6.416999698E-1
1.383799688E1,2.890999913E-1,-1.388999969E-1,3.610999882E-1
1.385799688E1,-5.040000007E-2,3.830000013E-2,-7.519999892E-2
1.387799688E1,-5.018999577E-1,1.676999927E-1,-7.468000054E-1
1.389799688E1,-6.094999909E-1,5.569999814E-1,-1.429499984E0
1.391800000E1,-1.361999959E-1,6.654999852E-1,-2.015300035E0
1.394799688E1,6.836000085E-1,4.731999934E-1,-2.630899906E0
1.396800000E1,1.006199956E0,1.338000000E-1,-2.895200014E0
1.399799688E1,8.398999572E-1,-4.226000011E-1,-3.275300026E0
1.401799688E1,5.796999931E-1,-7.675999999E-1,-3.310899973E0
1.403799688E1,2.805999815E-1,-1.005900025E0,-3.208899975E0
1.405799688E1,1.939999908E-1,-1.320099950E0,-2.872900009E0
1.407799688E1,1.427000016E-1,-1.728299975E0,-2.814299822E0
1.409799688E1,6.629999727E-2,-1.888199925E0,-2.809700012E0
1.411800313E1,1.750000007E-2,-2.039099932E0,-2.536000013E0
1.414799688E1,-5.381999612E-1,-1.810999990E0,-1.074999928E0
1.416799688E1,-4.513999820E-1,-1.674399972E0,-4.289000034E-1
1.418799688E1,4.802999794E-1,-1.694000006E0,-3.274999857E-1
1.420799844E1,1.644500017E0,-1.927999973E0,3.868999779E-1
1.423799688E1,1.411000013E0,-1.687500000E0,3.359499931E0
1.425799688E1,1.845999956E-1,-1.593099952E0,5.376999855E0
1.427799688E1,-7.134999633E-1,-1.168399930E0,5.294499874E0
1.429799688E1,-3.309999779E-2,-1.105899930E0,4.131499767E0
1.431799688E1,1.121099949E0,-3.170999885E-1,2.944499969E0
1.433799688E1,1.988799930E0,3.032000065E-1,1.940099955E0
1.435800000E1,1.944999933E0,6.567999721E-1,8.867999911E-1
1.438799688E1,8.953999877E-1,1.122300029E0,-1.205600023E0
1.440800156E1,1.424999982E-1,1.541000009E0,-1.967899919E0
1.443799688E1,-2.675999999E-1,1.854999900E0,-2.207499981E0
1.445800000E1,-2.787999809E-1,1.737599969E0,-2.166899920E0
1.448799688E1,-5.640000105E-1,1.598199964E0,-2.013200045E0
1.450799844E1,-9.771999717E-1,1.488899946E0,-1.801499963E0
1.453799844E1,-1.770599961E0,1.404699922E0,-1.009799957E0
1.455800156E1,-2.125900030E0,1.252099991E0,-2.838000059E-1
1.458799688E1,-2.052299976E0,1.103299975E0,3.856000006E-1
1.460800156E1,-1.690899968E0,9.617999792E-1,2.272000015E-1
1.462800469E1,-1.440500021E0,8.691999912E-1,7.829999924E-2
1.465799688E1,-9.739999771E-1,2.176999897E-1,9.109999537E-1
1.467799688E1,-1.014299989E0,-1.511999965E-1,1.709199905E0
1.469799688E1,-1.224200010E0,-4.269999862E-1,1.939000010E0
1.471799844E1,-1.180199981E0,-7.242999673E-1,1.377599955E0
1.474799688E1,-4.545999765E-1,-8.996999860E-1,2.224200010E0
1.476799688E1,-4.490999877E-1,-1.102699995E0,3.097599983E0
1.478799688E1,-1.266699910E0,-1.204100013E0,2.942699909E0
1.480799688E1,-1.551299930E0,-1.271799922E0,2.042899847E0
1.482799688E1,-1.235399961E0,-1.301599979E0,1.041599989E0
1.484799844E1,-5.239999890E-1,-1.390799999E0,3.984999955E-1
1.487799688E1,-1.987999976E-1,-1.179299951E0,4.274999797E-1
1.489800000E1,-1.255999953E-1,-1.093500018E0,-2.031999975E-1
1.492799688E1,7.449999452E-2,-5.695999861E-1,-1.710399985E0
1.494800000E1,5.227999687E-1,-4.044999778E-1,-2.525799990E0
1.497799688E1,9.578999877E-1,-1.497000009E-1,-2.980700016E0
1.499800312E1,1.032299995E0,-3.445000052E-1,-2.886699915E0
1.502799688E1,8.739999533E-1,-6.268000007E-1,-2.572099924E0
1.504799688E1,1.076099992E0,-7.973999977E-1,-2.589499950E0
1.506799688E1,1.168200016E0,-8.506000042E-1,-2.652299881E0
1.508799844E1,1.216899991E0,-8.847000003E-1,-2.646800041E0
1.511799688E1,7.350999713E-1,-8.637999892E-1,-2.351699829E0
1.513800156E1,3.833999932E-1,-9.523999691E-1,-1.778399944E0
1.516799531E1,4.658999741E-1,-1.072700024E0,-7.841999531E-1
1.518800313E1,6.460999846E-1,-1.077799916E0,-2.493999898E-1
1.521799688E1,4.481000006E-1,-4.791999757E-1,3.296999931E-1
1.523800000E1,3.344999850E-1,7.599999756E-2,2.129999995E-1
1.526799688E1,1.830399990E0,-5.720999837E-1,4.649999738E-2
1.528799844E1,3.022199869E0,-9.007999897E-1,1.160399914E0
1.531799688E1,2.255899906E0,-1.523899913E0,3.280299902E0
1.533799688E1,-4.423999786E-1,-1.294099927E0,3.199899912E0
1.535799688E1,-2.164799929E0,-9.523999691E-1,2.215899944E0
1.537799688E1,-2.248600006E0,-3.721999824E-1,1.175300002E0
1.539799688E1,-1.264199972E0,2.732999921E-1,9.370999932E-1
1.541799688E1,-8.669999987E-2,6.182999611E-1,8.536999822E-1
1.543801562E1,-1.719999872E-2,8.463999629E-1,1.310000010E-2
1.546799688E1,-9.553999901E-1,1.231999993E0,-1.997099996E0
1.548800156E1,-1.440299988E0,1.430699944E0,-2.564999819E0
1.551799688E1,-1.650599957E0,1.531299949E0,-2.717000008E0
1.553799688E1,-1.796000004E0,1.684099913E0,-2.693899870E0
1.555799688E1,-1.763799906E0,1.681299925E0,-2.495199919E0
1.557799688E1,-1.764199972E0,1.584599972E0,-1.915299892E0
1.559799688E1,-1.694399953E0,1.272499919E0,-1.286599994E0
1.561799688E1,-1.709399939E0,1.025300026E0,-6.089000106E-1
1.563799688E1,-1.754499912E0,9.065999985E-1,9.499999695E-3
1.565799688E1,-1.761299968E0,7.638999820E-1,5.385999680E-1
1.567799688E1,-1.470099926E0,4.724999964E-1,8.610000014E-1
1.569799688E1,-1.149099946E0,1.978999972E-1,1.006500006E0
1.571799688E1,-9.608999491E-1,6.399999559E-2,1.407799959E0
1.573799688E1,-9.817000031E-1,-1.085999981E-1,1.997399926E0
1.575799688E1,-1.416199923E0,-5.599999800E-2,1.912199974E0
1.577800313E1,-1.780900002E0,-1.010999978E-1,5.552999973E-1
1.580799688E1,-1.253899932E0,-1.755999923E-1,-4.223999977E-1
1.582799688E1,-3.867999911E-1,-7.351999879E-1,6.672999859E-1
1.584799688E1,-5.001999736E-1,-9.192000031E-1,2.518499851E0
1.586799688E1,-1.091899991E0,-1.568699956E0,3.718699932E0
1.588799688E1,-2.049799919E0,-1.545899987E0,3.215399981E0
1.590799688E1,-1.954399943E0,-1.294199944E0,1.983999968E0
1.592800156E1,-4.248999953E-1,-1.227699995E0,1.319700003E0
1.595799688E1,5.404999852E-1,-7.044999599E-1,1.260599971E0
1.597800625E1,6.030000001E-2,-2.820999920E-1,7.752000093E-1
1.600799688E1,-2.719999850E-1,7.360000163E-2,-1.744499922E0
1.602799688E1,-8.799999952E-2,3.885000050E-1,-3.092799902E0
1.604799844E1,3.820999861E-1,4.271999896E-1,-3.495499849E0
1.606800156E1,6.333999634E-1,3.974999785E-1,-3.583599806E0
1.609799688E1,7.294999957E-1,-5.839999765E-2,-3.704199791E0
1.611800156E1,3.723999858E-1,-3.204999864E-1,-3.501899958E0
1.614799688E1,-3.700000001E-3,-9.174999595E-1,-2.917999983E0
1.616800313E1,-2.606999874E-1,-1.219299912E0,-2.751600027E0
1.619799688E1,-3.292999864E-1,-1.669299960E0,-2.183099985E0
1.621800000E1,-1.717000008E-1,-2.101199865E0,-1.607999921E0
1.624799688E1,1.359999925E-1,-2.217000008E0,-5.066999793E-1
1.626800000E1,1.638000011E-1,-2.034499884E0,6.109999865E-2
1.629799688E1,1.169899940E0,-1.903199911E0,1.223199964E0
1.631800469E1,1.588999987E0,-1.688099980E0,2.462999821E0
1.634799688E1,7.623999715E-1,-1.512599945E0,4.759500027E0
1.636800000E1,-7.145999670E-1,-2.660999894E-1,5.375000000E0
1.639799688E1,6.241999865E-1,6.399999838E-3,3.813399792E0
1.641799688E1,2.696699858E0,1.943999976E-1,2.174200058E0
1.643799688E1,4.055999756E0,3.476999998E-1,1.994999945E-1
1.645799688E1,3.185999870E0,6.717000008E-1,-7.275999784E-1
1.647799688E1,1.445899963E0,6.814000010E-1,-1.699599981E0
1.649799688E1,1.472999901E-1,8.944999576E-1,-2.296399832E0
1.651800000E1,-3.023000062E-1,1.030099988E0,-2.480599880E0
1.654799688E1,9.820000082E-2,9.882999659E-1,-2.784799814E0
1.656799688E1,2.013999969E-1,7.766000032E-1,-2.785799980E0
1.658799688E1,-6.359999627E-2,7.689999938E-1,-2.550400019E0
1.660800312E1,-3.378999829E-1,6.923999786E-1,-2.245199919E0
1.662800312E1,-4.752999842E-1,5.979999900E-1,-1.812199950E0
1.665800312E1,-4.154999852E-1,5.396999717E-1,-1.312299967E0
1.668799688E1,-3.722999990E-1,5.006999969E-1,-1.050899982E0
1.670800469E1,-7.638999820E-1,5.508999825E-1,-8.272999525E-1
1.673799688E1,-1.363199949E0,4.359000027E-1,1.940999925E-1
1.675799844E1,-1.166499972E0,3.048999906E-1,1.049499989E0
1.678799688E1,-5.320000052E-1,3.224999905E-1,1.765899897E0
1.680800000E1,-5.839999914E-1,2.897000015E-1,1.686899900E0
1.682800313E1,-1.432999969E0,5.479999781E-1,7.066000104E-1
1.685799688E1,-1.384899974E0,4.671999812E-1,7.599999756E-2
1.687799688E1,-1.221999973E-1,-2.960999906E-1,5.548999906E-1
1.689799688E1,-7.236999869E-1,-8.179999888E-2,2.242300034E0
1.691799688E1,-1.815899968E0,-1.252999902E-1,3.667599916E0
1.693799688E1,-2.588099957E0,-4.381999969E-1,3.576499939E0
1.695800469E1,-2.508499861E0,-2.636999786E-1,2.934299946E0
1.698799688E1,-7.152999640E-1,-1.650999933E-1,2.417700052E0
1.700799688E1,-2.928999960E-1,2.330999970E-1,2.202800035E0
1.702800000E1,-2.481999993E-1,5.036000013E-1,1.704399943E0
1.705800000E1,-4.381999969E-1,9.483000040E-1,-3.427999914E-1
1.708799688E1,5.819999799E-2,1.167099953E0,-2.105700016E0
1.710799688E1,4.680999815E-1,1.024399996E0,-2.808899879E0
1.712799688E1,7.105000019E-1,6.205999851E-1,-3.184899807E0
1.714800156E1,7.378000021E-1,2.159999870E-2,-3.264199972E0
1.716800313E1,5.288000107E-1,-4.314000010E-1,-3.135699987E0
1.719800312E1,1.316999942E-1,-1.273599982E0,-3.499899864E0
1.722799688E1,3.639999777E-2,-1.665499926E0,-3.830799818E0
1.724800469E1,1.525000036E-1,-1.988599896E0,-3.725699902E0
1.727799688E1,2.654999793E-1,-2.487699986E0,-2.980799913E0
1.729800312E1,-3.949999809E-2,-2.581300020E0,-2.262899876E0
1.732799844E1,1.090000011E-2,-2.505899906E0,-1.118499994E0
1.734800312E1,1.056699991E0,-2.562899828E0,-3.711999953E-1
1.737799688E1,2.082799911E0,-2.453899860E0,1.752999902E0
1.739799688E1,1.845799923E0,-2.457599878E0,3.632200003E0
1.741799688E1,1.210099936E0,-2.065399885E0,4.783599854E0
1.743801406E1,5.439000130E-1,-1.517599940E0,4.368099689E0
1.746799688E1,8.041999936E-1,-4.323999882E-1,2.584100008E0
1.748800469E1,1.581499934E0,1.772999913E-1,1.475799918E0
1.751799688E1,1.637399912E0,9.275999665E-1,2.839999795E-1
1.753799844E1,1.072600007E0,1.069199920E0,-9.847999811E-1
1.756799688E1,-1.067999974E-1,1.435699940E0,-2.392699957E0
1.758799844E1,-4.976999760E-1,1.556399941E0,-2.701900005E0
1.761799688E1,-9.486999512E-1,1.484099984E0,-2.611500025E0
1.763800000E1,-1.254199982E0,1.468999982E0,-2.502399921E0
1.766799688E1,-1.921499968E0,1.543200016E0,-2.075500011E0
1.768800156E1,-2.081899881E0,1.521999955E0,-1.682399988E0
1.771799688E1,-1.850999951E0,1.316399932E0,-7.350999713E-1
1.773800000E1,-1.794899940E0,1.188300014E0,-1.362999976E-1
1.776799688E1,-1.922099948E0,1.225899935E0,4.945999980E-1
1.778799688E1,-1.763299942E0,1.078499913E0,8.637999892E-1
1.780799688E1,-1.035599947E0,7.960999608E-1,1.613699913E0
1.782799844E1,-3.282999992E-1,3.871999979E-1,2.669199944E0
1.785799688E1,-5.257999897E-1,1.854999959E-1,3.342199802E0
1.787799844E1,-1.246500015E0,9.999999404E-2,2.119699955E0
1.790799688E1,-1.173699975E0,8.309999853E-2,8.924999833E-1
1.792800000E1,-5.015000105E-1,-1.736999899E-1,2.132999897E0
1.795799688E1,-9.914999604E-1,-5.530999899E-1,3.545399904E0
1.797800000E1,-1.836799979E0,-7.357999682E-1,2.726399899E0
1.800799688E1,-1.815099955E0,-6.276999712E-1,1.751500010E0
1.802802031E1,-1.205999970E0,-6.808999777E-1,1.764899969E0
1.805799688E1,-6.559999585E-1,-7.458999753E-1,2.200500011E0
1.807799688E1,-6.997999549E-1,-4.177999794E-1,1.833199978E0
1.809799688E1,-4.341000021E-1,3.130000085E-2,8.531999588E-1
1.811799688E1,2.311999947E-1,2.062999904E-1,-3.055999875E-1
1.813799688E1,9.160999656E-1,2.043999881E-1,-1.542099953E0
1.815799688E1,1.431499958E0,8.500000089E-2,-2.773699999E0
1.817799688E1,1.678599954E0,-1.644999981E-1,-3.782099962E0
1.819799688E1,1.592099905E0,-4.847999811E-1,-4.263099670E0
1.821799688E1,1.418399930E0,-8.266999722E-1,-4.258399963E0
1.823799688E1,1.347499967E0,-1.152599931E0,-4.034800053E0
1.825799688E1,1.322700024E0,-1.485700011E0,-3.780599833E0
1.827800000E1,1.301800013E0,-1.926999927E0,-3.624799967E0
1.830799688E1,1.306399941E0,-2.549399853E0,-2.920799971E0
1.832800156E1,1.094399929E0,-2.943599939E0,-2.391099930E0
1.835799688E1,6.359999776E-1,-2.976300001E0,-1.757900000E0
1.837799688E1,3.567999899E-1,-2.404399872E0,-1.691199899E0
1.839799688E1,9.083999991E-1,-2.289700031E0,-2.073899984E0
1.841800156E1,1.796899915E0,-2.454900026E0,-1.509199977E0
1.844799688E1,1.653999925E0,-1.600499988E0,2.480900049E0
1.846800313E1,1.131299973E0,-2.222899914E0,5.953700066E0
1.849799688E1,-3.315999806E-1,-9.475999475E-1,5.613299847E0
1.851800469E1,5.041999817E-1,-4.346999824E-1,3.533299923E0
1.854799688E1,2.539999962E0,5.245000124E-1,6.500999928E-1
1.856799844E1,2.564999819E0,1.096300006E0,-1.616999954E-1
1.859799688E1,5.381999612E-1,1.293399930E0,-3.727999926E-1
1.861799688E1,-8.550999761E-1,1.470699906E0,-4.175999761E-1
1.863799688E1,-1.402699947E0,1.715099931E0,-5.719999671E-1
1.865799688E1,-1.325899959E0,1.894400001E0,-1.104499936E0
1.867799844E1,-1.053599954E0,2.001800060E0,-1.907299995E0
1.870799688E1,-1.148399949E0,2.034199953E0,-2.329900026E0
1.872799688E1,-1.518399954E0,1.932599902E0,-2.338700056E0
1.874799688E1,-1.919499993E0,1.781099916E0,-1.993299961E0
1.876800469E1,-1.904599905E0,1.582599998E0,-1.264999986E0
1.879799688E1,-1.555299997E0,1.242599964E0,-1.967999935E-1
1.881800312E1,-1.343199968E0,9.088000059E-1,2.269999869E-2
1.884799688E1,-8.228999972E-1,4.686999917E-1,2.347999960E-1
1.886799688E1,-4.635999799E-1,6.030000001E-2,1.000399947E0
1.888799688E1,-2.728999853E-1,-2.803999782E-1,1.683799982E0
1.890800000E1,-3.714999855E-1,-7.818999887E-1,1.445299983E0
1.893799688E1,-8.860999942E-1,-1.092499971E0,2.053499937E0
1.895799844E1,-6.298999786E-1,-1.429799914E0,3.366099834E0
1.898799688E1,-1.128799915E0,-1.392899990E0,4.757800102E0
1.900799688E1,-1.174700022E0,-1.366299987E0,3.878199816E0
1.902799688E1,-7.580999732E-1,-9.269999862E-1,2.377500057E0
1.904799688E1,-1.689999998E-1,-4.226999879E-1,9.397999644E-1
1.906799688E1,2.858999968E-1,-2.628999949E-1,-1.023999974E-1
1.908799688E1,2.716999948E-1,-2.569999918E-2,-6.586999893E-1
1.910800469E1,1.448999941E-1,3.276000023E-1,-1.192799926E0
1.913799688E1,3.598999977E-1,8.308999538E-1,-2.259299994E0
1.915799844E1,7.213000059E-1,9.240999818E-1,-2.648200035E0
1.918799688E1,9.194999933E-1,5.342999697E-1,-2.855399847E0
1.920800000E1,7.493999600E-1,1.594000012E-1,-2.979799986E0
1.922800156E1,4.654999971E-1,-2.373999953E-1,-2.964599848E0
1.924800469E1,3.885999918E-1,-6.374999881E-1,-2.937500000E0
1.927799688E1,3.466999829E-1,-1.025200009E0,-2.683300018E0
1.929800000E1,1.595000029E-1,-1.267400026E0,-2.467299938E0
1.932799688E1,-6.682999730E-1,-1.735499978E0,-1.947199941E0
1.934800000E1,-6.663999557E-1,-2.126199961E0,-1.995700002E0
1.937799688E1,-5.051999688E-1,-2.181900024E0,-1.015900016E0
1.939799844E1,-5.121999979E-1,-2.318199873E0,4.734999835E-1
1.942799688E1,-6.959999800E-1,-2.533599854E0,7.631999850E-1
1.944799688E1,3.480000049E-2,-2.600299835E0,1.647599936E0
1.946799688E1,6.419999897E-2,-1.870700002E0,4.107999802E0
1.948799688E1,-4.678999782E-1,-1.650799990E0,6.060100079E0
1.950799688E1,-1.191299915E0,-7.213000059E-1,4.876399994E0
1.952799688E1,-7.833999991E-1,-7.549999654E-2,2.952699900E0
1.954800156E1,6.981999874E-1,2.890000045E-1,1.116400003E0
1.957799688E1,2.632099867E0,8.326999545E-1,-8.786000013E-1
1.959800469E1,2.819599867E0,8.438000083E-1,-1.270900011E0
1.962800469E1,1.249099970E0,1.147799969E0,-2.082299948E0
1.965799844E1,-2.421999872E-1,1.278900027E0,-2.103399992E0
1.968800312E1,-3.307999969E-1,1.384199977E0,-2.106400013E0
1.971799688E1,-2.486999929E-1,1.547500014E0,-2.561800003E0
1.973799844E1,-5.622999668E-1,1.465699911E0,-2.816099882E0
1.976799688E1,-8.471999764E-1,1.296000004E0,-2.361099958E0
1.978800469E1,-1.174399972E0,1.375399947E0,-1.699099898E0
1.981799688E1,-1.547299981E0,1.233799934E0,-2.188999951E-1
1.983800312E1,-1.490000010E0,1.062299967E0,7.056999803E-1
1.986799688E1,-8.320999742E-1,8.015999794E-1,1.293299913E0
1.988799688E1,-2.732000053E-1,5.069999695E-1,1.531099916E0
1.990799688E1,3.379999846E-2,2.222999930E-1,2.059399843E0
1.993799688E1,-5.245999694E-1,1.498000026E-1,2.104599953E0
1.995799688E1,-9.598000050E-1,2.457999885E-1,8.847999573E-1
1.997799844E1,-4.635999799E-1,1.977999955E-1,1.037699938E0
2.000799688E1,1.609300017E0,-1.150699973E0,3.006700039E0
2.002799688E1,1.960999966E-1,-1.173300028E0,3.789799929E0
2.004799688E1,-8.290999532E-1,-1.280799985E0,2.291499853E0
2.006799688E1,-8.008999825E-1,-1.166399956E0,7.921999693E-1
2.008800312E1,-2.891999781E-1,-8.197999597E-1,5.146999955E-1
2.011799688E1,2.935000062E-1,-7.344999909E-1,1.093099952E0
2.013800312E1,-7.699999958E-2,-4.793999791E-1,8.249999881E-1
2.016800313E1,-1.121999994E-1,5.379999802E-2,-6.263999939E-1
2.018800469E1,5.191999674E-1,2.549000084E-1,-1.565999985E0
2.021799688E1,1.443399906E0,2.682999969E-1,-2.675299883E0
2.023799688E1,1.716199994E0,5.169999972E-2,-3.287599802E0
2.025799688E1,1.908499956E0,-2.322999984E-1,-3.702299833E0
2.027799688E1,1.947199941E0,-5.766000152E-1,-3.784299850E0
2.029799688E1,1.637799978E0,-1.060999990E0,-3.385200024E0
2.031799688E1,9.776999950E-1,-1.400799990E0,-3.044099808E0
2.033799688E1,2.342999876E-1,-1.699999928E0,-2.731099844E0
2.035799688E1,-3.799999952E-1,-1.680899978E0,-2.496999979E0
2.037800313E1,-4.512999952E-1,-1.820599914E0,-2.313400030E0
2.040799688E1,-5.539999902E-2,-2.159899950E0,-2.036599874E0
2.042800000E1,3.188999891E-1,-2.176100016E0,-1.473299980E0
2.045799688E1,5.687999725E-1,-2.034399986E0,-1.001999974E0
2.047800469E1,1.119099975E0,-2.328599930E0,-6.999999750E-4
2.050799688E1,1.845799923E0,-1.922399998E0,2.538499832E0
2.052800156E1,5.796999931E-1,-1.494399905E0,4.472499847E0
2.055799688E1,-1.053300023E0,-4.550999999E-1,5.754899979E0
2.057800313E1,5.819999576E-1,-8.080999851E-1,4.620599747E0
2.060799688E1,2.697700024E0,-2.848999798E-1,2.233999968E0
2.062800156E1,2.128000021E0,1.128999963E-1,8.366999626E-1
2.065799688E1,1.180000007E-1,3.587999940E-1,-5.389999971E-2
2.067799688E1,-5.631999969E-1,8.216999769E-1,-4.195999801E-1
2.069799688E1,-5.192999840E-1,1.256500006E0,-4.442999959E-1
2.071800469E1,-3.137999773E-1,1.455199957E0,-4.745999873E-1
2.074799688E1,-6.219999865E-2,1.699800014E0,-8.379999995E-1
2.076800312E1,-1.397999972E-1,1.700999975E0,-1.344399929E0
2.079799688E1,-1.911999881E-1,1.761500001E0,-1.556399941E0
2.081799844E1,-2.714999914E-1,1.711499929E0,-1.388499975E0
2.084799688E1,-2.883999944E-1,1.461599946E0,-1.007499933E0
2.086800469E1,-3.129999936E-1,1.338299990E0,-8.139999509E-1
2.089799688E1,-4.679999948E-1,1.040899992E0,-5.748000145E-1
2.091800313E1,-7.827999592E-1,7.218999863E-1,-3.208999932E-1
2.094799688E1,-6.471999884E-1,3.000000026E-3,4.188999832E-1
2.096799688E1,-4.041999876E-1,-3.276000023E-1,6.107000113E-1
2.098799688E1,6.889999658E-2,-7.277999520E-1,-1.171000004E-1
2.100799688E1,7.297999859E-1,-1.434700012E0,-5.375999808E-1
2.102800156E1,8.141999841E-1,-1.261999965E0,-3.458999991E-1
2.105799688E1,1.879999936E-1,-1.685999990E0,2.519700050E0
2.107799688E1,-7.574999928E-1,-1.757399917E0,2.452600002E0
2.109799688E1,-1.568599939E0,-1.644599915E0,5.902000070E-1
2.111799844E1,-1.411299944E0,-1.116699934E0,-7.278999686E-1
2.114799688E1,-6.419999897E-2,-7.996999621E-1,-1.244599938E0
2.116800000E1,2.331999987E-1,-8.098999858E-1,-8.662999868E-1
2.119799688E1,-5.351999998E-1,-8.788999915E-1,-7.156999707E-1
2.121799688E1,-1.222700000E0,-7.030000091E-1,-7.563999891E-1
2.123799688E1,-1.330299973E0,-6.193000078E-1,-9.915999770E-1
2.125799688E1,-1.129499912E0,-5.274999738E-1,-1.412599921E0
2.127799688E1,-8.361999989E-1,-5.658000112E-1,-1.794499993E0
2.129799688E1,-6.906999946E-1,-5.794999599E-1,-2.098099947E0
2.131799688E1,-5.956999660E-1,-6.538000107E-1,-2.421200037E0
2.133799688E1,-5.254999995E-1,-6.796000004E-1,-2.713699818E0
2.135800312E1,-5.936999917E-1,-5.748999715E-1,-2.769799948E0
2.138799688E1,-9.013999701E-1,-5.870999694E-1,-2.089900017E0
2.140800000E1,-1.160399914E0,-8.416999578E-1,-1.462899923E0
2.143799688E1,-1.069299936E0,-9.187999964E-1,-3.764999807E-1
2.145800156E1,-4.878999889E-1,-8.393999934E-1,1.521999985E-1
2.148799688E1,3.215000033E-1,-5.449000001E-1,5.236999989E-1
2.150799688E1,5.451999903E-1,-1.333999932E-1,7.109999657E-1
2.152799688E1,1.157199979E0,-1.913999915E-1,7.824999690E-1
2.154800781E1,1.372200012E0,-3.813999891E-1,1.796299934E0
2.157799688E1,1.089399934E0,-8.915999532E-1,5.605999947E0
2.159800156E1,5.498999953E-1,-1.064299941E0,6.343299866E0
2.162800313E1,2.673999965E-1,-6.198999882E-1,3.381899834E0
2.164800313E1,1.348399997E0,-4.007000029E-1,8.810999990E-1
2.167799844E1,2.078299999E0,1.546999961E-1,-1.526299953E0
2.170799844E1,1.210899949E0,3.461000025E-1,-2.137399912E0
2.173799688E1,3.479000032E-1,1.783999950E-1,-2.243499994E0
2.175799688E1,1.780999899E-1,1.737999916E-1,-2.242499828E0
2.177799844E1,3.933999836E-1,2.432999909E-1,-2.468799829E0
2.179799844E1,8.731999993E-1,1.547999978E-1,-2.824699879E0
2.182799688E1,1.162899971E0,-6.799999624E-3,-3.181999922E0
2.184799688E1,9.916999936E-1,-6.469999999E-2,-2.947499990E0
2.186799688E1,9.061999917E-1,-7.119999826E-2,-2.347499847E0
2.188799688E1,9.763000011E-1,-1.614999920E-1,-1.492200017E0
2.190799688E1,7.448999882E-1,-1.361999959E-1,-9.387999773E-1
2.192799688E1,1.197999939E-1,6.489999592E-2,-5.609999895E-1
2.194800156E1,-4.533999860E-1,4.949999750E-1,-6.055999994E-1
2.197799688E1,-2.018999904E-1,1.093299985E0,-1.036299944E0
2.199799688E1,3.032999933E-1,1.246699929E0,-1.285399914E0
2.201799688E1,6.836999655E-1,1.257399917E0,-1.526799917E0
2.203800625E1,4.940999746E-1,1.388299942E0,-1.463699937E0
2.206799688E1,-1.556999981E-1,1.503399968E0,-5.742999911E-1
2.208800312E1,-4.587000012E-1,1.374400020E0,2.597000003E-1
2.211799688E1,-9.632999897E-1,1.113699913E0,1.217999935E0
2.213799844E1,-9.655999541E-1,6.552999616E-1,1.716599941E0
2.216799844E1,1.255999953E-1,-3.097999990E-1,1.767699957E0
2.218800000E1,1.319299936E0,-1.175099969E0,1.803799987E0
2.221799688E1,1.194299936E0,-1.357599974E0,2.433599949E0
2.223799844E1,4.941999912E-1,-2.130499840E0,3.355799913E0
2.226799688E1,-2.888999879E-1,-2.590899944E0,4.119100094E0
2.228800000E1,-2.014999986E-1,-2.307800055E0,3.318300009E0
2.231799688E1,-3.839999810E-2,-1.175300002E0,8.974999785E-1
2.233800469E1,5.549999699E-2,-1.070999950E-1,-7.062000036E-1
2.236799688E1,3.586999774E-1,9.369999766E-1,-2.155599833E0
2.238800469E1,5.528999567E-1,1.386899948E0,-2.750699997E0
2.241799688E1,7.161999941E-1,1.808299899E0,-3.100199938E0
2.243799688E1,4.984999895E-1,1.864499927E0,-2.876799822E0
2.245799688E1,1.673000008E-1,1.772499919E0,-2.558799982E0
2.247799844E1,-1.352999955E-1,1.634899974E0,-2.743299961E0
2.250799688E1,-2.022999972E-1,1.089599967E0,-3.568599939E0
2.252799688E1,-4.423999786E-1,1.011799932E0,-3.788999796E0
2.254799688E1,-5.722999573E-1,9.308999777E-1,-3.203500032E0
2.256799688E1,-3.913999796E-1,4.327999949E-1,-2.449699879E0
2.258799688E1,-4.068000019E-1,-5.849999934E-2,-2.321799994E0
2.260799688E1,-9.265999794E-1,-2.588999867E-1,-2.398000002E0
2.262799844E1,-1.494399905E0,-5.658999681E-1,-2.051599979E0
2.265799844E1,-1.625199914E0,-1.326099992E0,-3.421999812E-1
2.267800156E1,-9.876999855E-1,-1.745099902E0,1.580099940E0
2.270799688E1,-6.326999664E-1,-1.847099900E0,3.376999855E0
2.272799688E1,1.955999881E-1,-1.634299994E0,3.039299965E0
2.274799688E1,2.226199865E0,-2.383100033E0,2.729799986E0
2.276799688E1,3.678799868E0,-2.100399971E0,2.752499819E0
2.278799688E1,3.122399807E0,-2.340800047E0,3.352299929E0
2.280799688E1,3.206999898E-1,-5.604000092E-1,4.035299778E0
2.282800156E1,-1.127900004E0,1.018700004E0,3.116400003E0
2.285799688E1,-6.087999940E-1,2.272699833E0,6.681999564E-1
2.287800469E1,3.519999981E-1,2.653800011E0,-1.297599912E0
2.290799688E1,9.282999635E-1,2.659099817E0,-2.605999947E0
2.292800000E1,2.204999924E-1,2.243999958E0,-2.279599905E0
2.295799688E1,-1.174399972E0,1.899099946E0,-1.967199922E0
2.297800000E1,-1.579199910E0,1.614499927E0,-1.995999932E0
2.300799688E1,-1.832399964E0,1.458299994E0,-2.845099926E0
2.302799688E1,-1.797899961E0,1.569999933E0,-2.871099949E0
2.304799688E1,-2.157799959E0,1.729099989E0,-2.387500048E0
2.306799844E1,-2.104099989E0,1.593999982E0,-2.119499922E0
2.309799688E1,-1.704800010E0,1.702499986E0,-2.086699963E0
2.311800000E1,-1.564399958E0,2.101799965E0,-1.557399988E0
2.314799688E1,-1.571599960E0,2.137699842E0,1.162799954E0
2.316799844E1,-2.093099833E0,1.840599895E0,2.218099833E0
2.319799688E1,-1.825399995E0,7.992999554E-1,2.042899847E0
2.321800156E1,-1.389999967E-2,-2.915999889E-1,2.097699881E0
2.324799688E1,6.279000044E-1,-1.120999977E-1,4.342199802E0
2.326799688E1,-4.129999876E-2,-1.362200022E0,5.691199780E0
2.328799688E1,-8.779999614E-1,-1.903499961E0,5.122499943E0
2.330799688E1,-8.697999716E-1,-1.624599934E0,2.928599834E0
2.332799688E1,-1.309999973E-1,-7.658999562E-1,1.518099904E0
2.334799688E1,1.372900009E0,-8.114999533E-1,1.235199928E0
2.336800000E1,1.649599910E0,-4.237999916E-1,5.615000129E-1
2.339799688E1,5.389999971E-2,-2.784000039E-1,1.956200004E0
2.341799688E1,-7.649999857E-1,-2.395000011E-1,4.244000018E-1
2.343799688E1,1.402999908E-1,-7.903999686E-1,-1.433899999E0
2.345800312E1,8.935999870E-1,-9.224999547E-1,-2.726099968E0
2.348799688E1,7.703999877E-1,-1.177399993E0,-1.756399989E0
2.350799844E1,1.152400017E0,-1.670499921E0,-1.600899935E0
2.353799688E1,2.083199978E0,-2.285599947E0,-1.816599965E0
2.355799688E1,2.925099850E0,-3.008800030E0,-1.572699904E0
2.357799688E1,2.868599892E0,-3.186800003E0,-1.260599971E0
2.359799688E1,1.761399984E0,-2.928699970E0,-9.863999486E-1
2.361799688E1,1.145799994E0,-2.549000025E0,-5.134999752E-1
2.363799688E1,2.383999825E0,-3.434399843E0,-2.414999902E-1
2.365800469E1,3.226099968E0,-3.786899805E0,6.746999621E-1
2.368799688E1,3.066799879E0,-2.767499924E0,1.536000013E0
2.370800156E1,2.349099874E0,-1.508599997E0,1.873299956E0
2.373799688E1,2.351099968E0,-7.985999584E-1,1.425499916E0
2.375800156E1,2.642599821E0,-7.577999830E-1,3.138999939E-1
2.378799688E1,1.901299953E0,-3.504999876E-1,-9.365999699E-1
2.380800313E1,8.725000024E-1,-4.349999875E-2,-1.386999965E0
2.383799688E1,-9.709999710E-2,2.690999806E-1,-1.967000008E0
2.385800469E1,-7.055999637E-1,6.207000017E-1,-2.009399891E0
2.388799688E1,-2.147199869E0,1.088099957E0,-1.644899964E0
2.390799844E1,-2.853600025E0,1.152799964E0,-1.453199983E0
2.393799688E1,-3.225099802E0,1.487699986E0,-1.069199920E0
2.395799688E1,-3.073899984E0,1.960199952E0,-4.247999787E-1
2.397799844E1,-2.047699928E0,1.966799974E0,2.951999903E-1
2.399800469E1,-1.445500016E0,1.922999978E0,4.334999919E-1
2.402799688E1,-1.482800007E0,1.570999980E0,3.260000050E-1
2.404800156E1,-1.516799927E0,1.532799959E0,8.585000038E-1
2.407799688E1,-1.043499947E0,1.250199914E0,1.924799919E0
2.409799688E1,-7.231000066E-1,9.097999930E-1,2.103499889E0
2.411799688E1,-7.619000077E-1,7.161999941E-1,2.250000000E0
2.413799688E1,-7.789999843E-1,2.426999956E-1,2.287799835E0
2.415799688E1,-7.010999918E-1,-1.539999992E-1,1.737399936E0
2.417799688E1,-3.885000050E-1,-7.809000015E-1,1.061299920E0
2.419799688E1,-2.372999936E-1,-1.429499984E0,1.897099972E0
2.421799688E1,-4.055999815E-1,-1.430899978E0,3.151299953E0
2.423799688E1,-6.742999554E-1,-1.396899939E0,3.610299826E0
2.425799688E1,-6.944999695E-1,-1.247299910E0,2.392099857E0
2.427799688E1,-5.478000045E-1,-8.118000031E-1,1.015100002E0
2.429800312E1,-9.759999812E-2,-5.273999572E-1,5.759999901E-2
2.432799688E1,-2.940999866E-1,-4.726999998E-1,-3.924999833E-1
2.434800312E1,-9.199000001E-1,-2.131000012E-1,-6.010999680E-1
2.437799688E1,-7.990999818E-1,3.331999779E-1,-1.269199967E0
2.439799688E1,-2.487999946E-1,6.491000056E-1,-1.652599931E0
2.441799688E1,1.879999936E-1,7.092999816E-1,-2.134599924E0
2.443800469E1,4.265999794E-1,4.477999806E-1,-2.576799870E0
2.446799688E1,6.653999686E-1,-1.070000008E-1,-1.870599985E0
2.448800000E1,8.342999816E-1,-3.544999957E-1,-9.486999512E-1
2.451799688E1,7.718999982E-1,-8.555999994E-1,-1.189599991E0
2.453799688E1,7.989000082E-1,-8.303999901E-1,-1.467299938E0
2.455799688E1,9.855999947E-1,-9.298999906E-1,-1.577700019E0
2.457799688E1,7.100999951E-1,-9.503999949E-1,-1.521799922E0
2.459799688E1,5.198000073E-1,-1.169099927E0,-1.065500021E0
2.461799688E1,5.928999782E-1,-1.370299935E0,-4.632000029E-1
2.463799844E1,4.931999743E-1,-1.479099989E0,-3.799999878E-2
2.466799688E1,1.039999947E-1,-1.510699987E0,2.267999947E-1
2.468800312E1,4.792999923E-1,-1.700099945E0,-3.111999929E-1
2.471799688E1,5.773999691E-1,-1.295699954E0,-1.306900024E0
2.473800000E1,1.326999962E-1,-5.941999555E-1,-5.501999855E-1
2.476799688E1,-5.550999641E-1,-8.161000013E-1,1.678799987E0
2.478800000E1,-1.129999995E0,-6.196999550E-1,1.864699960E0
2.481799688E1,-9.109999985E-2,-2.859999985E-2,8.197999597E-1
2.483799688E1,1.071399927E0,1.398999989E-1,1.008999944E-1
2.485799688E1,1.204699993E0,2.874000072E-1,-6.851999760E-1
2.487799688E1,4.952999949E-1,5.518999696E-1,-1.490000010E0
2.489799688E1,-2.196999937E-1,8.290999532E-1,-1.911299944E0
2.491799688E1,-6.398000121E-1,1.005699992E0,-1.988099933E0
2.493799688E1,-7.609999776E-1,9.644999504E-1,-1.838199973E0
2.495799688E1,-8.136999607E-1,1.034699917E0,-1.755699992E0
2.497800156E1,-9.107999802E-1,1.140599966E0,-1.750800014E0
2.500799688E1,-8.057000041E-1,1.159699917E0,-1.379499912E0
2.502800156E1,-6.187999845E-1,1.164600015E0,-6.875000000E-1
2.505799688E1,-1.251000017E-1,9.336999655E-1,3.867000043E-1
2.507800156E1,2.412000000E-1,9.309999943E-1,7.117999792E-1
2.510799688E1,4.229999781E-1,9.831999540E-1,1.085899949E0
2.512799688E1,4.371999800E-1,8.493999839E-1,1.057199955E0
2.514799688E1,4.760999978E-1,7.731999755E-1,1.087100029E0
2.516799688E1,7.461999655E-1,5.848999619E-1,1.449999928E0
2.518799688E1,6.855999827E-1,3.568999767E-1,1.929600000E0
2.520799688E1,2.585999966E-1,1.527999938E-1,1.683499932E0
2.522799688E1,-5.640999675E-1,2.628000081E-1,7.732999921E-1
2.524799688E1,-6.642999649E-1,2.543999851E-1,-1.411999911E-1
2.526800156E1,6.629999727E-2,1.693999916E-1,5.399999768E-2
2.529799688E1,-1.309999973E-1,-3.170000017E-1,2.302299976E0
2.531800000E1,-1.574299932E0,-3.475999832E-1,3.047899961E0
2.534799688E1,-2.034600019E0,-4.262999892E-1,1.080399990E0
2.536800156E1,-1.370700002E0,-8.089999855E-2,5.246999860E-1
2.539799688E1,-2.547999918E-1,4.749999940E-2,1.188300014E0
2.541800156E1,-4.139999747E-1,3.330999911E-1,9.099999666E-1
2.544799688E1,-9.031999707E-1,6.216999888E-1,-5.076999664E-1
2.546800000E1,-1.087599993E0,6.812999845E-1,-1.284399986E0
2.549799688E1,-3.255999982E-1,3.818999827E-1,-1.993099928E0
2.551799688E1,3.528999984E-1,5.829999968E-2,-2.269999981E0
2.553799688E1,8.280999660E-1,-4.458999932E-1,-2.339699984E0
2.555799688E1,8.364999890E-1,-9.048999548E-1,-2.043999910E0
2.557799688E1,7.012000084E-1,-1.313899994E0,-1.609399915E0
2.559799688E1,6.129999757E-1,-1.572099924E0,-1.193799973E0
2.561799688E1,6.283999681E-1,-1.809499979E0,-1.159999967E0
2.563799844E1,9.150999784E-1,-2.014499903E0,-1.203799963E0
2.565800625E1,1.206900001E0,-1.994799972E0,-1.092999935E0
2.568799688E1,1.233600020E0,-2.371500015E0,-3.455999792E-1
2.570800156E1,1.123899937E0,-2.276700020E0,2.908999920E-1
2.573799688E1,1.269400001E0,-1.697600007E0,3.109000027E-1
2.575799844E1,1.525499940E0,-1.566699982E0,-4.585999846E-1
2.578799688E1,1.843899965E0,-1.150300026E0,-7.736999989E-1
2.580799688E1,1.827799916E0,-1.205199957E0,6.219999790E-1
2.582799688E1,1.218500018E0,-1.657799959E0,2.036200047E0
2.584799688E1,7.859999686E-2,-1.542699933E0,1.507900000E0
2.586799688E1,-4.536999762E-1,-8.968999982E-1,1.547999978E-1
2.588799688E1,1.816999912E-1,-3.736999929E-1,-1.197199941E0
2.590800312E1,1.061999917E0,-1.100999936E-1,-2.315599918E0
2.593799688E1,9.103999734E-1,3.251000047E-1,-2.701599836E0
2.595799688E1,-9.769999981E-2,4.256999791E-1,-2.093799829E0
2.597799688E1,-1.097000003E0,6.583999991E-1,-1.480700016E0
2.599799688E1,-1.723399997E0,9.296999574E-1,-1.087499976E0
2.601799688E1,-1.757900000E0,1.142899990E0,-1.084200025E0
2.603799688E1,-1.499599934E0,1.411099911E0,-1.298200011E0
2.605800313E1,-1.169899940E0,1.569599986E0,-1.339200020E0
2.608799688E1,-6.014999747E-1,1.480799913E0,-9.109999537E-1
2.610799844E1,-3.104999959E-1,1.486199975E0,-6.431999803E-1
2.613799688E1,-1.793999970E-1,1.486999989E0,-3.935999870E-1
2.615800000E1,4.600000102E-3,1.385100007E0,-6.689999998E-2
2.618799688E1,1.169999987E-1,9.766999483E-1,7.129999995E-1
2.620799688E1,2.345999926E-1,5.401999950E-1,1.343899965E0
2.622799688E1,4.570999742E-1,1.886999905E-1,2.415999889E0
2.624799688E1,3.590999842E-1,6.169999763E-2,3.714799881E0
2.626799688E1,-5.869999900E-2,-6.839999557E-2,4.082200050E0
2.628799688E1,-2.897999883E-1,1.048999950E-1,2.827600002E0
2.630799688E1,2.863999903E-1,1.463999897E-1,2.522399902E0
2.632799688E1,7.344999909E-1,-8.320000023E-2,2.923699856E0
2.634800156E1,-3.953000009E-1,-2.127999961E-1,2.863799810E0
2.637799688E1,-1.699399948E0,-1.225999966E-1,7.831000090E-1
2.639800625E1,-1.519999981E0,5.700000003E-2,3.399999812E-2
2.642799688E1,-8.402999640E-1,-1.039000005E-1,4.473999739E-1
2.644800000E1,-9.803999662E-1,-1.138999984E-1,8.208999634E-1
2.647799688E1,-1.078400016E0,-1.749999970E-1,-5.599999800E-3
2.649800312E1,-9.504999518E-1,-1.887999922E-1,-9.456999898E-1
2.652799688E1,-8.518999815E-1,-4.639999941E-2,-1.807899952E0
2.654800000E1,-7.677999735E-1,2.389999852E-2,-2.321199894E0
2.657799688E1,-3.753999770E-1,-2.520000041E-1,-2.792599916E0
2.659800156E1,-2.002999932E-1,-3.674999774E-1,-2.879400015E0
2.662799688E1,-1.680999994E-1,-4.183999896E-1,-2.621299982E0
2.664799688E1,-2.829000056E-1,-4.411999881E-1,-2.188499928E0
2.666799688E1,-4.909999967E-1,-4.917999804E-1,-1.727199912E0
2.668800156E1,-7.894999981E-1,-4.640999734E-1,-1.217199922E0
2.671799688E1,-6.574999690E-1,-6.897000074E-1,-4.028999805E-1
2.673800000E1,5.709999800E-2,-1.112399936E0,2.054999918E-1
2.676799688E1,5.685999990E-1,-1.164600015E0,1.225799918E0
2.678800000E1,8.375999928E-1,-1.336499929E0,1.559399962E0
2.681799688E1,1.061900020E0,-1.787199974E0,1.284999996E-1
2.683800156E1,1.213099957E0,-1.886199951E0,3.822999895E-1
2.686799688E1,-1.270000041E-1,-1.621500015E0,2.207999945E0
2.688800156E1,-8.725000024E-1,-1.236899972E0,1.882999897E0
2.691799688E1,1.008899927E0,-7.613999844E-1,6.869999766E-1
2.693800156E1,2.635200024E0,-3.942999840E-1,3.959999979E-2
2.696799688E1,1.728099942E0,1.870999932E-1,-1.009599924E0
2.698800313E1,5.620999932E-1,2.777000070E-1,-1.930799961E0
2.701799688E1,-5.859999731E-2,9.764999747E-1,-2.103800058E0
2.703800313E1,1.674999893E-1,1.158800006E0,-2.099999905E0
2.706799688E1,2.407999933E-1,1.329499960E0,-2.478799820E0
2.708800312E1,-6.229999661E-2,1.374499917E0,-2.634299994E0
2.711799688E1,-4.624999762E-1,1.298799992E0,-2.436100006E0
2.713800000E1,-2.384999990E-1,1.302500010E0,-1.747599959E0
2.716800313E1,-2.199999988E-2,1.480599999E0,-3.714999855E-1
2.719799688E1,-3.858999908E-1,1.366199970E0,1.024299979E0
2.721799688E1,-8.202999830E-1,1.395200014E0,1.172699928E0
2.723799688E1,-1.025399923E0,1.433799982E0,1.301299930E0
2.725799688E1,-7.238999605E-1,1.179799914E0,1.833299994E0
2.727800469E1,-1.188999936E-1,6.283000112E-1,2.169199944E0
2.730799688E1,4.475999773E-1,-5.399999674E-3,1.493199944E0
2.732799688E1,1.083400011E0,-7.429999709E-1,1.588400006E0
2.734799688E1,6.513000131E-1,-1.054199934E0,2.934599876E0
2.736799688E1,-7.084999681E-1,-1.542999983E0,3.857299805E0
2.738799688E1,-1.892199993E0,-1.508299947E0,2.580099821E0
2.740799688E1,-1.878399968E0,-1.320400000E0,9.401999712E-1
2.742800000E1,-1.448400021E0,-8.675999641E-1,2.921999991E-1
2.745799688E1,-7.854999900E-1,-7.026000023E-1,-7.310000062E-2
2.747800156E1,-1.004500031E0,-5.921999812E-1,-6.624000072E-1
2.750799688E1,-1.176999927E0,-1.772999913E-1,-1.640499949E0
2.752800156E1,-9.990999699E-1,3.489999846E-2,-2.196399927E0
2.755799688E1,-5.831999779E-1,1.313000023E-1,-2.524899960E0
2.757799688E1,-4.533999860E-1,-1.929999888E-2,-2.727699995E0
2.759799688E1,-5.640999675E-1,-1.869999915E-1,-2.842000008E0
2.761800469E1,-6.412999630E-1,-3.265999854E-1,-2.671999931E0
2.764799688E1,-7.811999917E-1,-5.558999777E-1,-2.109099865E0
2.766800625E1,-6.994000077E-1,-6.146999598E-1,-1.822999954E0
2.769799688E1,-2.951000035E-1,-8.025999665E-1,-1.565999985E0
2.771799844E1,-4.084999859E-1,-8.471999764E-1,-1.319899917E0
2.774799688E1,-6.667999625E-1,-7.932999730E-1,-1.555999964E-1
2.776799844E1,-2.445999980E-1,-9.006999731E-1,5.277000070E-1
2.779799688E1,2.951000035E-1,-8.485999703E-1,7.786999941E-1
2.781800000E1,2.441999912E-1,-4.259999990E-1,7.378999591E-1
2.784799688E1,3.303999901E-1,-3.258000016E-1,5.976999998E-1
2.786800000E1,1.035200000E0,-5.432999730E-1,7.793999910E-1
2.789799688E1,1.731099963E0,-6.462000012E-1,2.497099876E0
2.791800313E1,1.565199971E0,-9.551999569E-1,2.620499849E0
2.794799688E1,-3.125999868E-1,-7.226999998E-1,1.069199920E0
2.796800313E1,-7.360000014E-1,-3.111000061E-1,1.472000033E-1
2.799799688E1,5.396000147E-1,-3.130999804E-1,-2.449999899E-1
2.801799688E1,9.453999996E-1,-2.076999992E-1,-2.054999918E-1
2.803799688E1,9.371999502E-1,1.343999952E-1,-5.175999999E-1
2.805800469E1,3.991999924E-1,4.450999796E-1,-1.222599983E0
2.808799688E1,-4.621999860E-1,8.630999923E-1,-2.448199987E0
2.810800000E1,-5.381999612E-1,1.003799915E0,-2.761399984E0
2.813799688E1,-1.982999891E-1,1.077899933E0,-2.760099888E0
2.815800469E1,3.539999947E-2,1.164699912E0,-2.543400049E0
2.818799688E1,3.574999869E-1,1.091099977E0,-1.501399994E0
2.820799688E1,2.439000010E-1,8.923999667E-1,-4.887999892E-1
2.822799688E1,-1.176999956E-1,8.217999935E-1,4.309999943E-2
2.824799688E1,-6.312999725E-1,9.442999959E-1,1.423999965E-1
2.826799688E1,-7.833999991E-1,1.012400031E0,2.116999924E-1
2.828799688E1,-5.651000142E-1,1.094599962E0,6.143999696E-1
2.830800156E1,-1.731999964E-1,1.111599922E0,1.242799997E0
2.833799688E1,1.658999920E-1,5.798000097E-1,1.987299919E0
2.835799688E1,-1.563999951E-1,6.739999652E-1,2.092299938E0
2.837799688E1,1.125999987E-1,8.082000017E-1,1.539299965E0
2.839799688E1,5.106999874E-1,3.874000013E-1,1.310299993E0
2.841799688E1,7.597999573E-1,-2.135999948E-1,2.092700005E0
2.843799688E1,3.603999913E-1,-1.053900003E0,2.894899845E0
2.845800312E1,-1.029999971E0,-1.514199972E0,2.747699976E0
2.848799688E1,-2.113899946E0,-1.253199935E0,1.050499916E0
2.850800469E1,-1.750499964E0,-8.873999715E-1,8.850000054E-2
2.853799688E1,-4.226999879E-1,-6.011999846E-1,-6.273999810E-1
2.855799688E1,1.150000002E-2,-2.552999854E-1,-5.778999925E-1
2.857799688E1,3.339999914E-2,-2.287999988E-1,-8.909999728E-1
2.859799688E1,-3.199999928E-1,2.099999972E-2,-1.498299956E0
2.861800000E1,-6.625999808E-1,2.265999913E-1,-2.075899839E0
2.863800312E1,-5.498999953E-1,3.492999971E-1,-2.524799824E0
2.866799688E1,3.209999949E-2,3.935000002E-1,-2.540199995E0
2.868799688E1,3.498999774E-1,2.202999890E-1,-2.654899836E0
2.870799688E1,4.388999939E-1,4.499999806E-2,-2.544499874E0
2.872799688E1,3.434999883E-1,-1.627999991E-1,-2.013700008E0
2.874800312E1,3.041999936E-1,-4.573999941E-1,-1.464100003E0
2.877799688E1,2.962000072E-1,-6.692000031E-1,-9.318999648E-1
2.879800469E1,4.575999975E-1,-7.335000038E-1,-8.015999794E-1
2.882799688E1,7.033999562E-1,-9.930999875E-1,-2.122999877E-1
2.884800469E1,9.775999784E-1,-1.100399971E0,-1.067999974E-1
2.887799844E1,1.317699909E0,-9.043999910E-1,-6.010999680E-1
2.889799844E1,1.517799973E0,-7.667999864E-1,-4.834999740E-1
2.892799688E1,3.041199923E0,-1.609399915E0,3.860999942E-1
2.894799844E1,3.264899969E0,-1.902199984E0,2.409399986E0
2.897799688E1,9.908999801E-1,-1.542400002E0,4.985799789E0
2.899799688E1,-3.902999759E-1,-1.032099962E0,3.704999924E0
2.901799688E1,-1.506000012E-1,-7.915999889E-1,2.198799849E0
2.903801563E1,1.300899982E0,-6.614999771E-1,8.503999710E-1
2.906799688E1,3.213199854E0,-6.288999915E-1,-5.800999999E-1
2.908800312E1,2.562700033E0,-5.324000120E-1,-1.159199953E0
2.911799688E1,1.662999988E-1,-3.649999946E-2,-2.135099888E0
2.913800000E1,-6.467999816E-1,3.300999999E-1,-2.344399929E0
2.916800313E1,-8.219999671E-1,7.038999796E-1,-2.697000027E0
2.918800469E1,-7.926999927E-1,8.957999945E-1,-3.301999807E0
2.921799688E1,-7.958999872E-1,1.119699955E0,-3.623299837E0
2.923800156E1,-8.233999610E-1,1.187600017E0,-2.834199905E0
2.926799688E1,-1.046199918E0,1.182500005E0,-1.294700027E0
2.928800625E1,-1.244300008E0,1.320999980E0,-5.220000148E-1
2.931799688E1,-1.577999949E0,1.412999988E0,3.021000028E-1
2.933799844E1,-1.493799925E0,1.390399933E0,7.577999830E-1
2.936799688E1,-1.186200023E0,1.443499923E0,1.329199910E0
2.938800156E1,-9.924999475E-1,1.319599986E0,1.622900009E0
2.941799688E1,-8.897999525E-1,9.082999825E-1,2.229199886E0
2.943799688E1,-7.588999867E-1,4.569999874E-1,2.454299927E0
2.945799688E1,-5.227999687E-1,-4.429999888E-1,2.641099930E0
2.947800469E1,-9.686999917E-1,-8.495999575E-1,3.499199867E0
2.950799688E1,-2.158200026E0,-1.017199993E0,4.079499722E0
2.952800156E1,-2.214299917E0,-1.018000007E0,2.407999992E0
2.955799688E1,-1.374300003E0,-4.751999974E-1,2.377000004E-1
2.957799688E1,-7.382999659E-1,-1.820999980E-1,-2.057999969E-1
2.959799688E1,-3.914999962E-1,-3.007999957E-1,-1.499999966E-2
2.961799688E1,-7.271999717E-1,-8.479999751E-2,1.706999987E-1
2.963800312E1,-1.195299983E0,1.207999960E-1,-5.665000081E-1
2.966800156E1,-1.248399973E0,1.407999992E-1,-2.576400042E0
2.969799688E1,-7.578999996E-1,-4.399999976E-3,-3.424299955E0
2.971799688E1,-5.319999903E-2,-4.741999805E-1,-3.561599970E0
2.973799688E1,4.758999944E-1,-8.455999494E-1,-3.461299896E0
2.975799688E1,8.488999605E-1,-1.229399920E0,-3.004799843E0
2.977799688E1,9.939999580E-1,-1.513399959E0,-2.526900053E0
2.979799688E1,9.215999842E-1,-1.840799928E0,-1.950099945E0
2.981799688E1,7.360999584E-1,-2.179699898E0,-1.342999935E0
2.983800469E1,2.230999917E-1,-2.389899969E0,-8.234999776E-1
2.986800000E1,-2.554999888E-1,-2.679600000E0,7.880000025E-2
2.989799688E1,-2.766999900E-1,-2.496999979E0,9.919999540E-2
2.991800313E1,-1.335999966E-1,-1.927599907E0,-3.811999857E-1
2.994799688E1,1.579299927E0,-1.848299980E0,-1.843199968E0
2.996800469E1,3.214299917E0,-2.113199949E0,-1.881999969E0
2.999799688E1,2.015799999E0,-1.187399983E0,1.675499916E0
3.001799844E1,6.439999491E-2,-1.581499934E0,5.346199989E0
3.004799688E1,-2.455099821E0,2.078000009E-1,3.996099949E0
3.006800312E1,-1.875799894E0,1.282199979E0,3.095999956E0
3.009799688E1,1.221799970E0,2.233599901E0,2.387899876E0
3.011799688E1,2.425299883E0,2.542700052E0,2.150599957E0
3.013799688E1,1.843599916E0,2.213899851E0,1.381099939E0
3.015799688E1,4.487999976E-1,2.098599911E0,-4.360000044E-2
3.017799688E1,2.300000051E-3,1.795199990E0,-1.031399965E0
3.019799688E1,2.405999899E-1,1.398199916E0,-1.555799961E0
3.021799688E1,4.481999874E-1,9.052999616E-1,-1.832499981E0
3.023799688E1,3.069999814E-1,6.566999555E-1,-2.286299944E0
3.025799688E1,-7.699999958E-3,3.172000051E-1,-2.697299957E0
3.027799688E1,-2.556000054E-1,-8.799999952E-2,-2.871500015E0
3.029799688E1,-7.443999648E-1,-2.118999958E-1,-2.680199862E0
3.031800156E1,-1.105499983E0,-4.111000001E-1,-2.291300058E0
3.034799688E1,-1.378399968E0,-3.772999942E-1,-1.990999937E0
3.036799844E1,-1.441799998E0,-5.697000027E-1,-1.936299920E0
3.039799844E1,-1.264400005E0,-8.752999902E-1,-1.370599985E0
3.041800000E1,-9.536999464E-1,-1.191799998E0,-6.462000012E-1
3.044799688E1,-1.282999963E-1,-2.212399960E0,-3.419999778E-1
3.046799688E1,8.381999731E-1,-3.268699884E0,-6.146999598E-1
3.048799688E1,2.954999804E-1,-2.035199881E0,1.136000007E-1
3.050800000E1,-7.468000054E-1,-2.108899832E0,2.059599876E0
3.053799844E1,-3.026799917E0,-2.073099852E0,2.634199858E0
3.055799844E1,-3.228799820E0,-1.895199895E0,2.037600040E0
3.058799844E1,-1.990199924E0,-1.388899922E0,1.417999983E0
3.060799844E1,-1.227499962E0,-1.327199936E0,1.113899946E0
3.062800469E1,-1.324699998E0,-8.757999539E-1,6.019999981E-1
3.065799844E1,-1.526199937E0,-3.440999985E-1,-1.950999945E-1
3.067799844E1,-1.342299938E0,-2.391999960E-1,-3.583000004E-1
3.069799844E1,-1.056599975E0,-2.419999987E-1,-2.190999985E-1
3.072799844E1,-5.040000081E-1,-3.172000051E-1,-9.973999858E-1
3.075800156E1,-3.193999827E-1,-3.712999821E-1,-1.555099964E0
3.078799688E1,-3.793999851E-1,-5.573999882E-1,-8.062999845E-1
3.080800313E1,-5.688999891E-1,-7.994999886E-1,-4.671999812E-1
3.083799844E1,-4.510999918E-1,-1.104200006E0,-6.804999709E-1
3.086799844E1,-3.955000043E-1,-1.291599989E0,-5.968999863E-1
3.089800156E1,-9.273999929E-1,-1.044899940E0,-3.912999928E-1
3.092799688E1,-1.152099967E0,-3.870999813E-1,-5.487999916E-1
3.094800000E1,-9.591999650E-1,3.599999938E-3,-3.527999818E-1
3.097799688E1,-8.253999949E-1,5.601999760E-1,-2.043999881E-1
3.099800312E1,-4.079999924E-1,6.103999615E-1,1.997999996E-1
3.102799688E1,-9.999999747E-5,9.333999753E-1,1.926999927E0
3.104800469E1,2.969999909E-1,9.957000017E-1,2.890799999E0
3.107799688E1,5.860999823E-1,1.395200014E0,2.753099918E0
3.109800000E1,1.069199920E0,1.547999978E0,1.697099924E0
3.112799688E1,1.916000009E0,1.330299973E0,-1.017999947E-1
3.114800156E1,1.834499955E0,1.175400019E0,-5.666999817E-1
3.117799688E1,8.876000047E-1,9.896999598E-1,1.511999965E-1
3.119799844E1,6.140000001E-2,1.090099931E0,9.557999969E-1
3.122799688E1,-5.273000002E-1,9.602999687E-1,4.985999763E-1
3.124799688E1,-6.481999755E-1,1.069199920E0,-3.912999928E-1
3.126799688E1,-6.859999895E-1,1.669399977E0,-7.798999548E-1
3.128800313E1,-3.831999898E-1,1.550899982E0,-1.116099954E0
3.131799688E1,3.761999905E-1,1.510599971E0,-6.042999625E-1
3.133799844E1,9.074999690E-1,1.118000031E0,-2.266999930E-1
3.136799688E1,6.198999882E-1,8.752999902E-1,-1.718000025E-1
3.138800156E1,4.171999991E-1,6.243000031E-1,1.966999918E-1
3.141799688E1,7.375999689E-1,3.409999982E-2,9.181999564E-1
3.143800000E1,5.582000017E-1,-2.293999940E-1,1.549399972E0
3.146799688E1,5.209000111E-1,-1.134799957E0,1.764899969E0
3.148800313E1,8.579999804E-1,-1.519199967E0,1.164999962E0
3.151799688E1,2.053599834E0,-2.219899893E0,5.734999776E-1
3.153799688E1,2.144599915E0,-2.066699982E0,-8.479999751E-2
3.155799688E1,1.502399921E0,-1.929299951E0,-5.787999630E-1
3.157799688E1,4.265999794E-1,-1.493699908E0,-5.924999714E-1
3.159799688E1,-4.107999802E-1,-9.767999649E-1,-8.455999494E-1
3.161799688E1,-5.932999849E-1,-7.164999843E-1,-1.102999926E0
3.163799844E1,-6.809999943E-1,-4.906999767E-1,-1.320500016E0
3.166799844E1,-4.477999806E-1,-7.099999785E-1,-1.654799938E0
3.168800312E1,-3.240000010E-1,-7.372999787E-1,-1.904899955E0
3.171799688E1,-2.852999866E-1,-5.166000128E-1,-2.284399986E0
3.173799688E1,-2.079999894E-1,-5.647999644E-1,-2.245599985E0
3.175799688E1,-6.489999592E-2,-8.958999515E-1,-2.084100008E0
3.177800000E1,2.449999936E-2,-1.085500002E0,-1.926799893E0
3.180799688E1,-3.638999760E-1,-8.736999631E-1,-1.668200016E0
3.182800156E1,-4.254999757E-1,-1.080600023E0,-1.305400014E0
3.185799688E1,-5.555999875E-1,-1.109200001E0,-1.177500010E0
3.187799688E1,-4.079999924E-1,-8.075999618E-1,-8.680999875E-1
3.189799688E1,-7.499999553E-2,-5.855000019E-1,-4.459999800E-1
3.191799688E1,2.881000042E-1,-6.096999645E-1,-1.599999890E-2
3.193799688E1,7.368999720E-1,-7.178999782E-1,4.161999822E-1
3.195799688E1,7.154999971E-1,-4.217999876E-1,1.092000008E0
3.197800000E1,9.266999960E-1,-2.716999948E-1,1.141299963E0
3.200799688E1,8.303999901E-1,3.289999962E-1,6.209999919E-1
3.202800156E1,1.033299923E0,-4.292999804E-1,-8.129999787E-2
3.205799688E1,-3.070000000E-2,-2.644000053E-1,3.319999948E-2
3.207799688E1,-4.223999977E-1,2.904999852E-1,3.260000050E-1
3.209799688E1,-1.824999899E-1,4.020999968E-1,6.143999696E-1
3.211799688E1,3.404999971E-1,3.790000081E-2,4.640999734E-1
3.213799688E1,6.597999930E-1,1.999999862E-3,-2.340999991E-1
3.215799688E1,9.607999921E-1,-9.839999676E-2,-8.938999772E-1
3.217800000E1,1.185199976E0,-1.696999967E-1,-1.263599992E0
3.220799688E1,8.468999863E-1,-3.416999876E-1,-1.350199938E0
3.222800000E1,-1.019999944E-2,-2.114999890E-1,-8.779999614E-1
3.225799688E1,-1.082199931E0,4.059999883E-1,-6.815999746E-1
3.227800469E1,-1.178699970E0,5.401999950E-1,-1.177799940E0
3.230799688E1,-5.993999839E-1,3.278999925E-1,-1.303499937E0
3.232799688E1,-4.494999945E-1,4.793999791E-1,-1.000299931E0
3.234799688E1,-1.873999983E-1,6.414999962E-1,-8.484999537E-1
3.236800156E1,8.709999919E-2,7.234999537E-1,-9.108999968E-1
3.239799688E1,-1.788000017E-1,1.006399989E0,-1.268199921E0
3.241800156E1,-9.049999714E-2,8.698999882E-1,-1.567600012E0
3.244799688E1,-5.435000062E-1,1.047699928E0,-1.422799945E0
3.246800625E1,-9.042999744E-1,1.154199958E0,-8.018999696E-1
3.249799688E1,-7.664999962E-1,5.148999691E-1,-3.118999898E-1
3.251800000E1,-5.719999671E-1,3.608999848E-1,3.595999777E-1
3.254799688E1,-4.470000044E-2,-3.119999915E-2,1.410499930E0
3.256799844E1,2.352999896E-1,-1.370999962E-1,1.601799965E0
3.259799688E1,4.339999706E-2,-1.875000000E-1,1.315299988E0
3.261800312E1,9.829999506E-2,-3.969999850E-1,7.238000035E-1
3.264799688E1,1.342100024E0,-5.895000100E-1,-1.898999959E-1
3.266799688E1,2.066799879E0,-8.165000081E-1,-5.403999686E-1
3.268799844E1,1.485999942E0,-1.051599979E0,-8.537999988E-1
3.271800625E1,-5.496999621E-1,-1.340600014E0,-1.597199917E0
3.274799688E1,-2.191400051E0,-7.796999812E-1,-1.971799970E0
3.276800625E1,-1.827099919E0,-5.051999688E-1,-2.115099907E0
3.279799688E1,2.857999802E-1,-5.209999681E-1,-1.042999983E0
3.281800313E1,1.260699987E0,-2.757999897E-1,-1.180999950E-1
3.283800312E1,1.259299994E0,-6.279999763E-2,5.433999896E-1
3.285800469E1,1.197999939E-1,2.256999910E-1,9.029999971E-1
3.288799688E1,-1.281399965E0,7.942999601E-1,3.755999804E-1
3.290799688E1,-9.049999714E-1,1.023399949E0,-6.823999882E-1
3.292799688E1,1.948999912E-1,8.540999889E-1,-1.767799973E0
3.294799688E1,9.100999832E-1,6.618999839E-1,-2.422199965E0
3.296799688E1,7.890999913E-1,5.992000103E-1,-2.158999920E0
3.298799688E1,4.557999969E-1,3.432999849E-1,-1.176599979E0
3.300800000E1,-7.419999689E-2,3.491999805E-1,-5.199999809E-1
3.303800156E1,-4.923999906E-1,6.261999607E-1,-7.755999565E-1
3.305800156E1,-6.093999743E-1,1.269699931E0,-1.112200022E0
3.308799688E1,-2.942000031E-1,1.352800012E0,-2.355999947E-1
3.310800469E1,-2.850999832E-1,1.328699946E0,1.926299930E0
3.313799688E1,-7.928000093E-1,8.481999636E-1,3.844399929E0
3.315800312E1,-2.171999961E-1,-9.399999864E-3,3.501299858E0
3.318799688E1,1.035099983E0,-1.140599966E0,2.233599901E0
3.320800156E1,9.115999937E-1,-1.282999992E0,2.410399914E0
3.323799688E1,7.109999657E-2,-1.212199926E0,2.175199986E0
3.325800156E1,-5.356999636E-1,-6.955999732E-1,1.419199944E0
3.328799688E1,-3.240999877E-1,-6.780000031E-2,-4.141999781E-1
3.330799688E1,1.171999946E-1,2.195999920E-1,-1.832199931E0
3.332799688E1,2.531000078E-1,7.229999900E-1,-2.828399897E0
3.334800156E1,-4.490000010E-2,1.081900001E0,-2.874799967E0
3.337799688E1,-7.717999816E-1,1.077399969E0,-1.791399956E0
3.339799688E1,-1.283800006E0,1.407400012E0,-1.334900022E0
3.341799688E1,-1.356099963E0,1.364399910E0,-1.535200000E0
3.343799688E1,-1.151799917E0,1.120999932E0,-2.059999943E0
3.345799688E1,-1.115100026E0,1.000599980E0,-2.406100035E0
3.347799844E1,-1.100000024E0,9.228999615E-1,-2.373499870E0
3.349800469E1,-1.325999975E0,1.063899994E0,-2.102599859E0
3.352799688E1,-1.685199976E0,1.445799947E0,-9.813999534E-1
3.354799688E1,-1.449000001E0,1.414999962E0,-4.083999991E-1
3.356799688E1,-1.600899935E0,1.617699981E0,-6.480000168E-2
3.358799688E1,-1.819199920E0,1.674499989E0,2.441999912E-1
3.360799688E1,-1.674799919E0,1.303599954E0,9.023999572E-1
3.362799688E1,-1.594499946E0,8.460999727E-1,1.958999991E0
3.364799688E1,-1.603099942E0,2.061000019E-1,2.981899977E0
3.366799688E1,-1.673200011E0,-3.527999818E-1,3.223899841E0
3.368800156E1,-1.404599905E0,-1.221799970E0,2.736500025E0
3.371799688E1,-9.601999521E-1,-2.008899927E0,2.660099983E0
3.373799688E1,-7.583999634E-1,-2.245599985E0,3.468299866E0
3.375799688E1,-1.118999958E0,-2.385400057E0,3.673099995E0
3.377799688E1,-1.634599924E0,-2.132099867E0,3.128999949E0
3.379799688E1,-1.703499913E0,-1.717099905E0,2.566999912E0
3.381799688E1,-1.523299932E0,-1.116999984E0,1.761500001E0
3.383800156E1,-1.392799973E0,-4.346999824E-1,6.143999696E-1
3.386799688E1,-1.329100013E0,1.554999948E-1,-1.614899993E0
3.388800000E1,-1.129299998E0,4.059000015E-1,-2.940099955E0
3.391799688E1,-3.964999914E-1,5.062000155E-1,-4.012000084E0
3.393799844E1,2.563999891E-1,5.063999891E-1,-3.803999901E0
3.396799688E1,1.020999998E-1,2.565999925E-1,-2.529399872E0
3.398799688E1,-4.818999767E-1,-2.590000033E-1,-1.644199967E0
3.400799688E1,-8.962000012E-1,-7.278999686E-1,-1.070199966E0
3.402799688E1,-1.109699965E0,-1.101799965E0,-7.989000082E-1
3.404799688E1,-1.185899973E0,-1.300300002E0,-8.165000081E-1
3.406799688E1,-7.511999607E-1,-1.622699976E0,-8.369999528E-1
3.408799688E1,-3.400000036E-1,-1.739099979E0,-7.103999853E-1
3.410799688E1,-1.098999977E-1,-1.768199921E0,-7.701999545E-1
3.412800469E1,-3.509999812E-1,-1.404199958E0,-5.971999764E-1
3.415799688E1,2.902999818E-1,-1.261199951E0,-1.255999953E-1
3.417800469E1,1.597199917E0,-1.526600003E0,4.000999928E-1
3.420799688E1,3.625999928E0,-1.423200011E0,2.137899876E0
3.422800000E1,4.639800072E0,-1.774899960E0,3.380199909E0
3.425799688E1,3.094399929E0,-4.689999819E-1,3.704699993E0
3.427799688E1,2.350299835E0,1.688999981E-1,2.333099842E0
3.429799688E1,2.436699867E0,4.804999828E-1,6.050999761E-1
3.431799688E1,2.678400040E0,6.507999897E-1,-1.181399941E0
3.433799688E1,2.638900042E0,8.730999827E-1,-2.563499928E0
3.435799688E1,2.102499962E0,1.002699971E0,-3.366499901E0
3.437799688E1,1.264500022E0,1.040599942E0,-3.826299906E0
3.439799688E1,2.115999907E-1,1.015799999E0,-3.543799877E0
3.441799688E1,-8.998000026E-1,9.424999952E-1,-2.842000008E0
3.443799688E1,-1.707599998E0,5.618999600E-1,-2.123999834E0
3.445799688E1,-2.436199903E0,4.563999772E-1,-1.995700002E0
3.447799844E1,-3.125299931E0,5.392999649E-1,-1.976300001E0
3.450799688E1,-3.334499836E0,4.001999795E-1,-1.965699911E0
3.452799844E1,-3.268699884E0,1.864999980E-1,-1.402400017E0
3.455799688E1,-3.322399855E0,1.391000003E-1,9.339999408E-2
3.457799688E1,-3.302899837E0,5.709999800E-2,9.402999878E-1
3.459799688E1,-3.159600019E0,-1.580999941E-1,1.323400021E0
3.461800156E1,-2.728799820E0,-3.282999992E-1,1.643199921E0
3.464799688E1,-2.176699877E0,-4.443999827E-1,2.522300005E0
3.466799688E1,-1.806800008E0,-9.557999969E-1,3.228799820E0
3.468799688E1,-1.783100009E0,-1.408999920E0,3.649499893E0
3.470799688E1,-1.931299925E0,-1.615799904E0,3.804600000E0
3.472799688E1,-2.109299898E0,-1.429199934E0,3.574399948E0
3.474799688E1,-2.049900055E0,-1.003799915E0,2.710899830E0
3.476799688E1,-1.681100011E0,-9.667999744E-1,1.657599926E0
3.478799688E1,-1.281799912E0,-1.143199921E0,5.862999558E-1
3.480799688E1,-1.108999968E0,-1.382799983E0,-3.099999949E-2
3.482799844E1,-1.168200016E0,-1.251699924E0,-8.669999987E-2
3.485799688E1,-8.342999816E-1,-7.497999668E-1,-5.837999582E-1
3.487799688E1,-5.317000151E-1,-4.855999947E-1,-1.384499907E0
3.489799688E1,-2.701999843E-1,-1.541000009E-1,-2.325700045E0
3.491799844E1,-6.039999798E-2,-1.359999925E-2,-3.236899853E0
3.494799688E1,4.296000004E-1,-1.844999939E-1,-3.539399862E0
3.496800469E1,5.950999856E-1,-1.166999936E-1,-3.236699820E0
3.499799688E1,1.045199990E0,-5.033999681E-1,-2.685199976E0
3.501800156E1,1.053799987E0,-5.789999962E-1,-2.437199831E0
3.504799688E1,8.956999779E-1,-1.007300019E0,-1.972299933E0
3.506800469E1,7.324999571E-1,-1.255900025E0,-1.409500003E0
3.509799688E1,7.737999558E-1,-1.648999929E0,-3.109000027E-1
3.511800312E1,1.040899992E0,-1.869799972E0,4.151999950E-1
3.514799688E1,1.651499987E0,-1.941799998E0,6.614999771E-1
3.516800156E1,2.118799925E0,-1.674499989E0,7.664999962E-1
3.519799688E1,2.432399988E0,-1.687699914E0,8.145999908E-1
3.521800000E1,1.779899955E0,-1.244799972E0,1.518299937E0
3.524799688E1,8.552999496E-1,-1.254599929E0,2.472100019E0
3.526799688E1,5.723999739E-1,-7.946999669E-1,2.213500023E0
3.528799688E1,1.061499953E0,-5.173000097E-1,1.357100010E0
3.530799688E1,1.514799953E0,-2.642999887E-1,8.237999678E-1
3.532799688E1,1.623899937E0,1.221999973E-1,5.467999578E-1
3.534799688E1,1.265699983E0,4.639999866E-1,-2.779999934E-2
3.536799688E1,7.398999929E-1,7.197999954E-1,-9.338999987E-1
3.538799688E1,2.927999794E-1,8.027999997E-1,-1.712899923E0
3.540800000E1,5.719999969E-2,8.907999992E-1,-2.218999863E0
3.543799688E1,-2.960000001E-2,8.983999491E-1,-2.328599930E0
3.545800000E1,1.345999986E-1,8.561999798E-1,-2.191499949E0
3.548799688E1,2.377999872E-1,7.459999919E-1,-2.351399899E0
3.550799688E1,-7.009999454E-2,8.263999820E-1,-1.996999979E0
3.552799688E1,-2.970999777E-1,8.545999527E-1,-1.136299968E0
3.554800938E1,-5.119999647E-1,7.655999660E-1,-3.533000052E-1
3.557799688E1,-1.002200007E0,8.055999875E-1,3.840999901E-1
3.559799688E1,-7.986999750E-1,8.373000026E-1,8.112999797E-1
3.561799688E1,-4.932999909E-1,7.972999811E-1,8.027999997E-1
3.563799688E1,-4.361999929E-1,7.164999843E-1,4.743999839E-1
3.565799688E1,-2.924000025E-1,4.700999856E-1,2.229999900E-1
3.567799688E1,-9.200000204E-3,2.827999890E-1,7.315999866E-1
3.569800469E1,5.099999905E-2,-1.028999984E-1,1.352199912E0
3.572799688E1,-3.410999775E-1,-1.177999973E0,1.242599964E0
3.574800000E1,-8.535999656E-1,-1.501099944E0,1.405799985E0
3.577799688E1,-1.720399976E0,-1.258000016E0,1.802299976E0
3.579800469E1,-2.496299982E0,-1.004899979E0,9.052000046E-1
3.582799688E1,-2.495399952E0,-5.500000119E-1,-2.524999976E-1
3.584799688E1,-2.250599861E0,-3.312000036E-1,-1.362999976E-1
3.586799688E1,-2.240900040E0,-2.938999832E-1,3.533000052E-1
3.588799688E1,-2.257699966E0,-4.280999899E-1,4.271999896E-1
3.590799688E1,-2.191200018E0,-2.529999986E-2,1.644999981E-1
3.592799688E1,-1.848599911E0,7.609999925E-2,-1.814000010E-1
3.594799688E1,-1.661700010E0,1.502999961E-1,-3.524999917E-1
3.596799688E1,-1.737199903E0,1.109999940E-1,-3.567999899E-1
3.598799688E1,-1.785899997E0,6.859999895E-2,-2.330999970E-1
3.600799688E1,-1.776299953E0,2.759999968E-2,7.589999586E-2
3.602800313E1,-1.566999912E0,4.859999940E-2,2.164999992E-1
3.605799688E1,-1.054199934E0,-2.129999921E-2,-3.276000023E-1
3.607799688E1,-6.978999972E-1,-5.069999769E-2,-1.026000023E0
3.609800156E1,-4.002999961E-1,-7.629999518E-2,-1.477899909E0
3.612799688E1,-2.557999790E-1,-1.967999935E-1,-1.617299914E0
3.614799688E1,-2.567999959E-1,-2.307000011E-1,-1.622699976E0
3.616800313E1,-1.706999987E-1,-3.300999999E-1,-1.469200015E0
3.619799688E1,1.186999977E-1,-5.972999930E-1,-9.220999479E-1
3.621799688E1,1.825999916E-1,-7.379999757E-1,-6.083999872E-1
3.623800312E1,1.884000003E-1,-7.141999602E-1,-4.805999994E-1
3.626799688E1,3.089999855E-1,-3.464999795E-1,-2.150999904E-1
3.628799688E1,5.932999849E-1,-3.278999925E-1,-3.908999860E-1
3.630799688E1,7.893999815E-1,-4.403999746E-1,-3.603000045E-1
3.632799688E1,5.217999816E-1,2.106999904E-1,8.520999551E-1
3.634799688E1,4.088999927E-1,-3.319999948E-2,2.593799829E0
3.636799688E1,-1.296000034E-1,-5.460000038E-2,3.137799978E0
3.638800156E1,-5.651000142E-1,4.429999739E-2,2.257599831E0
3.641799688E1,3.468999863E-1,2.569999918E-2,3.775999844E-1
3.643800000E1,9.948999882E-1,-4.279999807E-2,-9.549999982E-2
3.646799688E1,7.195999622E-1,2.524999976E-1,6.560000032E-2
3.648799688E1,6.689999998E-2,4.632000029E-1,-1.270999908E-1
3.650799688E1,-3.103999794E-1,4.560999870E-1,-7.933999896E-1
3.652799844E1,-5.217999816E-1,5.805999637E-1,-1.276000023E0
3.655799688E1,-2.157000005E-1,5.428000093E-1,-1.733299971E0
3.657799844E1,2.446999997E-1,5.985000134E-1,-1.826599956E0
3.660799688E1,1.027699947E0,5.904999971E-1,-1.941599965E0
3.662799688E1,1.190099955E0,7.039999962E-1,-1.759299994E0
3.664799688E1,9.602999687E-1,7.583999634E-1,-1.428900003E0
3.666799688E1,6.356999874E-1,6.125999689E-1,-1.087999940E0
3.668799688E1,6.243000031E-1,2.833999991E-1,-8.646999598E-1
3.670799688E1,4.946999848E-1,2.328999937E-1,-5.827000141E-1
3.672799688E1,1.700999886E-1,1.941999942E-1,2.379999869E-2
3.674799688E1,2.338999957E-1,1.114999950E-1,6.800999641E-1
3.676799688E1,9.244999886E-1,1.112999991E-1,1.187899947E0
3.678799688E1,1.698599935E0,-8.569999784E-2,9.280999899E-1
3.680799688E1,1.676399946E0,1.000999957E-1,4.323000014E-1
3.682800469E1,1.333699942E0,2.099999934E-1,3.504000008E-1
3.685799688E1,1.237599969E0,2.599000037E-1,8.693999648E-1
3.687800156E1,1.523499966E0,1.797000021E-1,1.184599996E0
3.690799688E1,3.932999969E-1,-5.135999918E-1,1.907599926E0
3.692800313E1,-1.031299949E0,-7.744999528E-1,1.534500003E0
3.695799688E1,-1.460600019E0,-6.470999718E-1,-6.901999712E-1
3.697800000E1,-1.152300000E0,-6.058999896E-1,-1.798999906E0
3.700799688E1,-1.187899947E0,-9.982999563E-1,-2.400300026E0
3.702800000E1,-1.477999926E0,-1.103299975E0,-1.722000003E0
3.705799688E1,-1.920899987E0,-6.777999997E-1,-3.597999811E-1
3.707800000E1,-1.773599982E0,-3.799999952E-1,-2.010999918E-1
3.710799688E1,-1.288800001E0,4.369999841E-2,-8.869999647E-1
3.712800000E1,-1.093899965E0,2.504000068E-1,-1.378199935E0
3.715799688E1,-7.642999887E-1,2.692999840E-1,-1.791299939E0
3.717799688E1,-4.370999932E-1,3.066999912E-1,-1.575199962E0
3.719799688E1,-3.686999977E-1,1.213999987E-1,-1.063699961E0
3.721799688E1,-7.443999648E-1,-2.129999921E-2,-7.681999803E-1
3.723799688E1,-7.627999783E-1,-2.413999885E-1,-4.734999835E-1
3.725799688E1,-6.363999844E-1,-4.342999756E-1,-1.794999987E-1
3.727799688E1,-5.683000088E-1,-5.655999780E-1,2.318999916E-1
3.729799688E1,-5.478000045E-1,-8.950999975E-1,9.178999662E-1
3.731799688E1,-5.591999888E-1,-1.105700016E0,1.044499993E0
3.733799688E1,-3.278999925E-1,-1.005399942E0,5.715999603E-1
3.735799688E1,8.147999644E-1,-1.304299951E0,-2.919999883E-2
3.737799688E1,1.358399987E0,-1.293399930E0,1.553999931E-1
3.739799688E1,5.573999882E-1,-7.197999954E-1,1.404699922E0
3.741800469E1,-7.272999883E-1,-9.706999660E-1,2.876899958E0
3.744799688E1,-1.659299970E0,-5.924000144E-1,2.180899858E0
3.746800156E1,-2.829999849E-2,-4.611999989E-1,1.332700014E0
3.749799688E1,3.144999981E0,-5.676999688E-1,-2.474000007E-1
3.751800469E1,3.432999849E0,-4.320999980E-1,-1.279600024E0
3.754799688E1,1.474599957E0,-7.599999662E-3,-1.767899990E0
3.756799688E1,3.826999962E-1,2.340999991E-1,-1.803599954E0
3.758799688E1,-2.239999920E-1,5.710999966E-1,-1.621799946E0
3.760800000E1,-1.176999956E-1,6.471999884E-1,-1.489399910E0
3.762800312E1,2.599000037E-1,5.952999592E-1,-1.801299930E0
3.765799688E1,4.139999747E-1,7.141999602E-1,-2.705799818E0
3.767799688E1,2.349999994E-1,6.977999806E-1,-2.480700016E0
3.769799688E1,-1.300000004E-3,7.260000110E-1,-1.821200013E0
3.771799688E1,-4.167999923E-1,8.299999833E-1,-8.168999553E-1
3.773799688E1,-9.289999604E-1,7.876999974E-1,-4.849999771E-2
3.775800156E1,-1.135699987E0,5.882999897E-1,2.563000023E-1
3.778799688E1,-9.713999629E-1,3.707999885E-1,3.885000050E-1
3.780800156E1,-3.928000033E-1,4.549999908E-2,6.671000123E-1
3.782800312E1,5.089999735E-2,-6.367999911E-1,6.714999676E-1
3.785800469E1,2.739000022E-1,-1.532499909E0,1.010299921E0
3.788799688E1,-6.311999559E-1,-1.473599911E0,1.909399986E0
3.790799688E1,-1.916999936E0,-1.204399943E0,1.680699944E0
3.792799688E1,-2.788199902E0,-9.117999673E-1,1.145399928E0
3.794799688E1,-3.027699947E0,-9.813999534E-1,6.868000031E-1
3.796799688E1,-2.789099932E0,-1.157099962E0,-1.860999912E-1
3.798799688E1,-2.381700039E0,-9.961999655E-1,-7.073000073E-1
3.800799688E1,-1.692299962E0,-9.425999522E-1,-5.205000043E-1
3.802799688E1,-1.149999976E0,-8.903999925E-1,-1.163999960E-1
3.804800625E1,-8.880999684E-1,-8.112999797E-1,-1.340999901E-1
3.807799688E1,-7.062000036E-1,-6.498999596E-1,-7.730999589E-1
3.809799688E1,-4.644999802E-1,-6.097999811E-1,-1.050300002E0
3.811799688E1,-3.152999878E-1,-6.092999578E-1,-1.209699988E0
3.813799688E1,-1.733999997E-1,-7.852999568E-1,-1.378899932E0
3.815799688E1,-4.529999942E-2,-7.910000086E-1,-1.469200015E0
3.817799688E1,2.899999963E-3,-8.617999554E-1,-1.195699930E0
3.819800000E1,-6.499999668E-3,-7.742999792E-1,-4.986999929E-1
3.822799844E1,-5.900000036E-2,-5.141000152E-1,4.740999937E-1
3.824799844E1,5.464000106E-1,-4.719999805E-2,1.288599968E0
3.827799688E1,6.584999561E-1,5.568999648E-1,9.205999970E-1
3.829799688E1,3.843999803E-1,6.985999942E-1,1.393999904E-1
3.831799688E1,7.110999823E-1,9.302999973E-1,-1.792999953E-1
3.833799688E1,1.572699904E0,6.904999614E-1,-2.312999964E-1
3.835799688E1,2.359999895E0,2.407999933E-1,-5.565999746E-1
3.837799688E1,2.432100058E0,-1.013000011E-1,-8.420000076E-1
3.839800156E1,1.727899909E0,-7.149999589E-2,-5.289999843E-1
3.842799688E1,2.009999938E-2,-8.709999919E-2,9.182999730E-1
3.844799688E1,-3.242999911E-1,-5.169999972E-2,1.289099932E0
3.846799688E1,-6.464999914E-1,4.315999746E-1,1.784099936E0
3.848800469E1,-3.215000033E-1,5.180000067E-1,1.419799924E0
3.851799688E1,3.944999874E-1,8.513999581E-1,6.954999566E-1
3.853799688E1,7.960000038E-1,1.072099924E0,1.997999996E-1
3.855799688E1,8.802999854E-1,1.039199948E0,-1.957999915E-1
3.857799688E1,6.344999671E-1,9.239999652E-1,-1.384999901E-1
3.859799688E1,1.667999923E-1,9.337999821E-1,-3.260999918E-1
3.861799688E1,2.407999933E-1,8.621999621E-1,-9.853999615E-1
3.863799688E1,9.179999828E-1,6.487999558E-1,-1.762599945E0
3.865799688E1,1.444100022E0,6.859999895E-1,-2.117300034E0
3.867799688E1,1.553200006E0,7.339000106E-1,-1.941399932E0
3.869799688E1,1.531199932E0,5.669999719E-1,-1.872799993E0
3.871799688E1,1.468899965E0,3.386999965E-1,-1.862100005E0
3.873800469E1,1.278399944E0,2.572000027E-1,-1.772399902E0
3.876799688E1,1.283399940E0,3.006999791E-1,-8.865999579E-1
3.878800312E1,1.425199986E0,5.250999928E-1,-5.009999871E-1
3.881799688E1,1.751299977E0,3.143000007E-1,-8.174999952E-1
3.883800000E1,1.829999924E0,-6.650000066E-2,-6.459999681E-1
3.886799688E1,2.442600012E0,-3.736999929E-1,1.405099988E0
3.888800313E1,2.659299850E0,-6.441999674E-1,2.071199894E0
3.891799688E1,4.587999880E-1,-4.708999991E-1,1.049399972E0
3.893799844E1,-3.592000008E-1,-3.691000044E-1,4.147999883E-1
3.896799688E1,1.361099958E0,-6.807000041E-1,-1.999999862E-3
3.898800000E1,2.743299961E0,-1.154099941E0,-2.346999943E-1
3.901799844E1,2.432800055E0,-1.941699982E0,4.932999909E-1
3.904799688E1,8.389999717E-2,-1.315999985E0,7.124999762E-1
3.906799688E1,-3.555999994E-1,-1.043200016E0,5.629999936E-2
3.908799688E1,2.263999879E-1,-9.154999852E-1,-1.085199952E0
3.910799688E1,8.122999668E-1,-4.545999765E-1,-1.835599899E0
3.912800156E1,1.375399947E0,-5.866000056E-1,-2.312500000E0
3.915799688E1,5.175999999E-1,-4.373999834E-1,-2.570899963E0
3.917799844E1,-1.670999974E-1,-6.126999855E-1,-2.641399860E0
3.920799688E1,-5.586999655E-1,-5.159000158E-1,-1.969099998E0
3.922800156E1,-5.812000036E-1,-4.281999767E-1,-1.454699993E0
3.925799688E1,-3.321000040E-1,-6.639999747E-1,-1.362200022E0
3.927800000E1,-1.977999955E-1,-8.551999927E-1,-1.522300005E0
3.930799688E1,-4.097999930E-1,-9.602999687E-1,-9.242999554E-1
3.932799844E1,-6.484000087E-1,-9.924999475E-1,-3.607999980E-1
3.935799688E1,-4.519999921E-1,-8.545999527E-1,9.019999951E-2
3.937799688E1,1.363999993E-1,-9.545999765E-1,-1.677999943E-1
3.939799688E1,1.353399992E0,-1.622499943E0,4.569999874E-2
3.941799688E1,2.042000055E0,-1.485299945E0,5.920000002E-2
3.943799688E1,1.649999976E0,-1.254499912E0,9.404000044E-1
3.945799688E1,9.799999744E-2,-1.026999950E0,3.085500002E0
3.947799688E1,-1.267400026E0,-4.123999774E-1,4.022599697E0
3.949799688E1,-8.143999577E-1,2.484999895E-1,3.627799988E0
3.951800000E1,9.700999856E-1,5.852999687E-1,2.583799839E0
3.954799688E1,1.960699916E0,8.439999819E-1,2.752999961E-1
3.956799688E1,9.416999817E-1,1.219799995E0,-7.867999673E-1
3.958799688E1,-2.712000012E-1,1.470099926E0,-1.157899976E0
3.960799688E1,-9.219999909E-1,1.767699957E0,-1.254199982E0
3.962800156E1,-8.373000026E-1,2.058399916E0,-1.342499971E0
3.965799688E1,-2.492999882E-1,2.215699911E0,-1.339299917E0
3.967799688E1,-2.861000001E-1,2.261399984E0,-1.342999935E0
3.969799688E1,-5.619999766E-1,2.213999987E0,-1.212599993E0
3.971799688E1,-6.609999537E-1,2.066599846E0,-7.189999819E-1
3.973799688E1,-7.242000103E-1,1.994300008E0,-1.899999939E-2
3.975799688E1,-8.921999931E-1,1.989799976E0,6.175999641E-1
3.977799688E1,-1.364599943E0,1.973799944E0,9.036999941E-1
3.979799688E1,-1.574000001E0,1.671599984E0,9.937999845E-1
3.981800156E1,-1.428200006E0,1.451599956E0,8.590999842E-1
3.984799688E1,-9.141999483E-1,1.169000030E0,1.593899965E0
3.986799844E1,-3.935999870E-1,7.727999687E-1,2.091599941E0
3.989799688E1,1.488000005E-1,-1.074000001E-1,1.829100013E0
3.991799688E1,5.365999937E-1,-8.747999668E-1,1.912199974E0
3.993799688E1,1.499999911E-1,-5.469999909E-1,2.575299978E0
3.995799688E1,-6.388999820E-1,-5.544999838E-1,3.823400021E0
3.997799688E1,-1.203599930E0,-8.470000029E-1,3.556499958E0
3.999799688E1,-1.276499987E0,-6.758999825E-1,2.418599844E0
4.001799688E1,-4.034999907E-1,-2.181999981E-1,1.704999924E0
4.003799688E1,5.600999594E-1,-1.549999975E-2,9.946999550E-1
4.005799688E1,7.378000021E-1,3.838000000E-1,4.047999978E-1
4.007799688E1,3.906999826E-1,8.947999477E-1,-2.741999924E-1
4.009799688E1,2.811000049E-1,1.153299928E0,-1.073799968E0
4.011799688E1,6.362000108E-1,1.023599982E0,-1.707399964E0
4.013799688E1,1.164699912E0,6.484000087E-1,-2.183300018E0
4.015800000E1,1.417400002E0,3.039000034E-1,-2.648299932E0
4.018799688E1,1.406700015E0,-4.348999858E-1,-3.665499926E0
4.020799688E1,1.294600010E0,-8.788999915E-1,-3.878399849E0
4.022799688E1,1.329999924E0,-1.161299944E0,-3.342199802E0
4.024799688E1,1.099699974E0,-1.502900004E0,-2.646999836E0
4.026799688E1,6.735000014E-1,-1.713999987E0,-2.167000055E0
4.028799688E1,6.148999929E-1,-1.852599978E0,-2.059299946E0
4.030800156E1,9.060999751E-1,-2.069999933E0,-2.186599970E0
4.033799688E1,1.001199961E0,-2.193300009E0,-1.891099930E0
4.035800000E1,9.437999725E-1,-2.164900064E0,-1.096400023E0
4.038799688E1,9.145999551E-1,-1.879399896E0,-2.628999949E-1
4.040800000E1,1.970499992E0,-2.168799877E0,-3.739999980E-2
4.043799688E1,3.524099827E0,-2.336299896E0,4.562999904E-1
4.045799688E1,2.881399870E0,-2.083600044E0,1.926999927E0
4.047799844E1,1.652099967E0,-2.108299971E0,3.674000025E0
4.050799688E1,2.245999873E-1,-1.072700024E0,3.253899813E0
4.052799688E1,8.555999994E-1,-3.390000015E-2,2.124699831E0
4.054800469E1,2.322499990E0,2.662999928E-1,6.176999807E-1
4.057799688E1,2.337399960E0,1.011799932E0,-1.633599997E0
4.059799688E1,1.355700016E0,1.197199941E0,-2.371899843E0
4.061799688E1,1.993999928E-1,1.567099929E0,-2.291199923E0
4.063799688E1,-3.634999990E-1,1.826499939E0,-1.805299997E0
4.065799688E1,-2.264999896E-1,1.822999954E0,-1.782099962E0
4.067799688E1,-3.115999997E-1,1.816899896E0,-2.068799973E0
4.069799844E1,-7.299000025E-1,1.878799915E0,-2.399899960E0
4.072799688E1,-7.612999678E-1,1.604200006E0,-2.123299837E0
4.074800000E1,-7.942000031E-1,1.466199994E0,-1.314800024E0
4.077799688E1,-9.052000046E-1,1.339599967E0,4.208000004E-1
4.079800000E1,-1.307699919E0,1.260999918E0,1.179000020E0
4.082799688E1,-1.690899968E0,1.103600025E0,1.151199937E0
4.084799688E1,-1.625800014E0,1.220399976E0,1.041999936E0
4.086799688E1,-1.286299944E0,1.259500027E0,1.552599907E0
4.088799844E1,-1.023999929E0,1.068300009E0,2.688499928E0
4.091799688E1,-8.860999942E-1,4.651999772E-1,2.658299923E0
4.093800156E1,-8.024999499E-1,-3.513999879E-1,2.628599882E0
4.096799688E1,-1.194700003E0,-3.378999829E-1,3.833999872E0
4.098800156E1,-1.425400019E0,-5.429999828E-1,4.604199886E0
4.101799688E1,-1.169099927E0,-6.161000133E-1,3.300999880E0
4.103800469E1,-5.284000039E-1,-8.700000122E-3,2.165999889E0
4.106799688E1,4.308999777E-1,4.010999799E-1,8.780999780E-1
4.108800312E1,2.472999990E-1,7.206000090E-1,2.319999970E-2
4.111799688E1,1.309999973E-1,7.177999616E-1,-1.424600005E0
4.113800156E1,2.811999917E-1,6.901999712E-1,-2.385799885E0
4.116800156E1,6.897000074E-1,2.805999815E-1,-2.602499962E0
4.118800312E1,1.070899963E0,-2.568999827E-1,-3.068499804E0
4.121799688E1,1.334299922E0,-6.764000058E-1,-3.747399807E0
4.123800156E1,1.341899991E0,-1.106299996E0,-3.814199924E0
4.126799688E1,1.075299978E0,-1.580799937E0,-3.163100004E0
4.128800156E1,8.297999501E-1,-1.817399979E0,-2.905799866E0
4.131799688E1,9.002999663E-1,-2.280699968E0,-2.874599934E0
4.133799688E1,9.555999637E-1,-2.451900005E0,-2.484099865E0
4.135799688E1,1.071599960E0,-2.641599894E0,-1.713599920E0
4.137799688E1,1.314399958E0,-2.635599852E0,-9.337999821E-1
4.139799688E1,1.251299977E0,-2.152600050E0,-5.444999933E-1
4.141799688E1,1.392499924E0,-1.845600009E0,-3.310000002E-1
4.143800312E1,2.578199863E0,-2.359999895E0,1.966999918E-1
4.146799688E1,3.538100004E0,-1.947799921E0,2.503700018E0
4.148799688E1,3.391299963E0,-2.044399977E0,4.089200020E0
4.150799688E1,2.150599957E0,-1.430199981E0,4.309199810E0
4.152800313E1,1.556199908E0,-9.831999540E-1,2.842700005E0
4.155799688E1,2.430899858E0,-5.709999800E-2,6.462999582E-1
4.157799688E1,2.252399921E0,6.309999824E-1,3.084000051E-1
4.159799688E1,1.100799918E0,8.646999598E-1,1.823999882E-1
4.161799688E1,-2.786999941E-1,1.315299988E0,-4.566999972E-1
4.163799688E1,-1.273499966E0,1.976199985E0,-9.846999645E-1
4.165799688E1,-1.839100003E0,2.545500040E0,-9.174000025E-1
4.167799844E1,-1.727699995E0,2.624799967E0,-1.165799975E0
4.169799844E1,-1.506299973E0,2.514199972E0,-1.705500007E0
4.171800000E1,-1.689199924E0,2.599099874E0,-2.575700045E0
4.174799688E1,-1.743799925E0,2.229300022E0,-2.419199944E0
4.176800156E1,-1.807599902E0,2.010699987E0,-1.618099928E0
4.179799688E1,-2.608500004E0,1.897899985E0,4.002999961E-1
4.181800000E1,-2.748299837E0,1.467399955E0,1.490099907E0
4.184799688E1,-2.661700010E0,1.055799961E0,2.328199863E0
4.186800156E1,-2.192899942E0,5.116999745E-1,2.231799841E0
4.189799688E1,-1.893399954E0,4.227999747E-1,2.323199987E0
4.191800156E1,-1.500100017E0,1.055999994E-1,2.112299919E0
4.194799688E1,-3.084999919E-1,-9.957000017E-1,2.159999847E0
4.196800000E1,5.548999906E-1,-1.545599937E0,2.473799944E0
4.199799688E1,8.840000033E-1,-1.749099970E0,2.501399994E0
4.201799688E1,3.991999924E-1,-1.814099908E0,1.715399981E0
4.203799688E1,-1.349999905E-1,-1.520499945E0,5.929999948E-1
4.205799688E1,2.597000003E-1,-1.428300023E0,-5.672000051E-1
4.207799688E1,4.175999761E-1,-1.014199972E0,-1.176100016E0
4.209799688E1,3.987999856E-1,-7.493000031E-1,-1.254299998E0
4.211800312E1,2.675999999E-1,-2.815999985E-1,-8.416000009E-1
4.214799688E1,1.440999955E-1,2.123999894E-1,-1.184599996E0
4.216800000E1,9.099999815E-2,4.162999988E-1,-2.341300011E0
4.219799688E1,4.035999775E-1,2.638999820E-1,-3.208999872E0
4.221799844E1,8.058999777E-1,9.999999404E-2,-3.145099878E0
4.224799688E1,7.164999843E-1,-1.615999937E-1,-2.442399979E0
4.226799688E1,1.270999908E-1,-2.234999985E-1,-1.978500009E0
4.228799688E1,-1.529999971E-1,-4.921000004E-1,-1.613499999E0
4.230800469E1,-9.690000117E-2,-6.493999958E-1,-1.307699919E0
4.233799688E1,2.278999984E-1,-6.952999830E-1,-8.639999628E-1
4.235800156E1,2.678999901E-1,-8.320999742E-1,-4.722999930E-1
4.238799688E1,1.533000022E-1,-1.247699976E0,3.862999976E-1
4.240799688E1,2.737999856E-1,-1.068499923E0,9.811999798E-1
4.242799688E1,1.062399983E0,-1.058899999E0,1.225000024E0
4.244799688E1,2.182299852E0,-1.442899942E0,9.219999909E-1
4.246799688E1,2.556900024E0,-1.789399981E0,9.034999609E-1
4.248799688E1,2.528499842E0,-2.109299898E0,1.647399902E0
4.250799688E1,1.911199927E0,-2.140899897E0,2.694799900E0
4.252799688E1,1.361099958E0,-1.708899975E0,2.378799915E0
4.254799688E1,1.853699923E0,-1.522899985E0,8.269000053E-1
4.256799688E1,2.459199905E0,-1.157799959E0,-1.085699916E0
4.258799688E1,2.378700018E0,-6.046000123E-1,-1.946599960E0
4.260799844E1,1.618999958E0,-1.860999912E-1,-2.011499882E0
4.262800312E1,8.733999729E-1,1.034999937E-1,-1.859200001E0
4.264800312E1,4.264999926E-1,5.019999743E-1,-1.826699972E0
4.266800469E1,4.142999947E-1,8.701999784E-1,-2.423199892E0
4.269800156E1,4.799999893E-1,1.308699965E0,-2.841399908E0
4.272799688E1,1.554999948E-1,1.532999992E0,-2.824899912E0
4.274799688E1,-1.720999926E-1,1.624199986E0,-2.663699865E0
4.276799688E1,-9.479999542E-2,1.689899921E0,-2.071099997E0
4.278799688E1,8.999999613E-3,1.688899994E0,-1.370100021E0
4.280799688E1,-2.576999962E-1,1.821099997E0,-6.574000120E-1
4.282799688E1,-4.655999839E-1,1.667400002E0,2.689999901E-2
4.284799688E1,-1.043300033E0,1.589599967E0,4.831999838E-1
4.286799688E1,-1.726499915E0,1.635899901E0,8.768000007E-1
4.288799688E1,-1.969499946E0,1.448099971E0,1.828899980E0
4.290799688E1,-1.290899992E0,8.070999980E-1,2.772300005E0
4.292799688E1,-7.479999661E-1,4.996999800E-1,3.113799810E0
4.294799688E1,-2.875999808E-1,1.415999979E-1,3.718400002E0
4.296799688E1,-2.539999969E-2,-6.243999600E-1,4.848499775E0
4.298799688E1,-8.551999927E-1,-1.168299913E0,5.974199772E0
4.300799688E1,-1.473199964E0,-1.441699982E0,4.975500107E0
4.302799688E1,-1.107200027E0,-1.518599987E0,3.050899982E0
4.304800312E1,-2.915999889E-1,-1.238899946E0,1.444700003E0
4.307799688E1,-2.909999900E-2,-6.758999825E-1,5.878999829E-1
4.309800000E1,-5.928999782E-1,-3.488999903E-1,4.510999918E-1
4.312799688E1,-1.559000015E0,4.869000018E-1,-6.272000074E-1
4.314799844E1,-1.485599995E0,7.961999774E-1,-1.828799963E0
4.316800156E1,-1.102100015E0,1.007499933E0,-2.718499899E0
4.318800469E1,-4.682999849E-1,9.123999476E-1,-3.274999857E0
4.321799688E1,2.348999977E-1,6.668999791E-1,-3.569299936E0
4.323799688E1,2.567999959E-1,3.592000008E-1,-3.583599806E0
4.325799688E1,-1.206999943E-1,-9.999999747E-5,-3.340699911E0
4.327799688E1,-5.401999950E-1,-4.092999995E-1,-3.076399803E0
4.329800000E1,-3.849000037E-1,-8.458999991E-1,-3.114699841E0
4.332799688E1,1.027999967E-1,-1.560699940E0,-2.994299889E0
4.334799688E1,2.272000015E-1,-2.125099897E0,-2.404999971E0
4.336799688E1,1.700000018E-1,-2.576799870E0,-1.327499986E0
4.338800313E1,1.089999974E-1,-3.118099928E0,-2.890999913E-1
4.341799688E1,2.700999975E-1,-3.209299803E0,3.750999868E-1
4.343800469E1,1.224200010E0,-3.334899902E0,2.169999927E-1
4.346799688E1,2.918299913E0,-3.625299931E0,7.087999582E-1
4.348799688E1,2.439100027E0,-3.262099981E0,2.305299997E0
4.350799688E1,1.487499952E0,-2.385699987E0,3.980299950E0
4.352799688E1,1.546599984E0,-1.361099958E0,4.049499989E0
4.354799688E1,3.105499983E0,-1.163200021E0,2.931399822E0
4.356799688E1,4.528999805E0,-7.369999886E-1,1.147799969E0
4.358800000E1,4.239299774E0,1.020999998E-1,-2.504999936E-1
4.361799688E1,1.823599935E0,8.787999749E-1,-3.953999877E-1
4.363800469E1,5.550999641E-1,1.305999994E0,-7.680000067E-1
4.366800313E1,-6.439999491E-2,1.855699897E0,-1.325999975E0
4.369799688E1,1.500999928E-1,2.075899839E0,-1.917299986E0
4.371799688E1,-2.479999885E-2,2.013900042E0,-2.429299831E0
4.373799688E1,-4.760999978E-1,2.031299829E0,-2.738399982E0
4.375799688E1,-9.289000034E-1,1.887499928E0,-2.430299997E0
4.377800313E1,-8.899999857E-1,1.655999899E0,-1.798399925E0
4.380799688E1,-9.655999541E-1,1.414899945E0,-1.289699912E0
4.382799688E1,-9.413999915E-1,1.217599988E0,-9.059000015E-1
4.384799688E1,-9.355999827E-1,9.536999464E-1,-3.409999907E-1
4.386799688E1,-9.423999786E-1,5.884999633E-1,4.527999759E-1
4.388799688E1,-1.295499921E0,3.340999782E-1,1.543900013E0
4.390799688E1,-1.440699935E0,8.590000123E-2,2.716199875E0
4.392800156E1,-1.163900018E0,-5.859999731E-2,3.131099939E0
4.395799688E1,-7.365999818E-1,2.933999896E-1,2.362799883E0
4.397800156E1,-3.157999814E-1,2.518000007E-1,2.361700058E0
4.400799688E1,-2.739999890E-1,-8.028999567E-1,2.948599815E0
4.402800156E1,-1.315099955E0,-5.672999620E-1,2.586499929E0
4.405799688E1,-1.209299922E0,-6.516999602E-1,1.549199939E0
4.407800156E1,-8.958999515E-1,-5.133000016E-1,9.504999518E-1
4.410799688E1,-5.112000108E-1,-3.141999841E-1,8.636999726E-1
4.412800156E1,-6.355999708E-1,-1.523000002E-1,5.478999615E-1
4.415799688E1,-6.376000047E-1,3.185999990E-1,-1.063599944E0
4.417799844E1,-1.753999889E-1,5.845999718E-1,-1.999599934E0
4.420799688E1,7.145999670E-1,4.775999784E-1,-2.841599941E0
4.422799688E1,7.437999845E-1,1.730999947E-1,-3.356400013E0
4.424799688E1,5.536000133E-1,-1.322999895E-1,-3.613799810E0
4.426800000E1,3.188000023E-1,-4.619999826E-1,-3.232800007E0
4.429799688E1,5.507000089E-1,-1.065299988E0,-2.742399931E0
4.431799688E1,4.145999849E-1,-1.304199934E0,-2.525799990E0
4.433799688E1,1.627999991E-1,-1.547299981E0,-2.349799871E0
4.435799688E1,-1.098999977E-1,-1.890199900E0,-2.253499985E0
4.437799688E1,-4.106999934E-1,-2.212599993E0,-1.883499980E0
4.439799688E1,-3.316999972E-1,-2.395900011E0,-1.269799948E0
4.441800000E1,-2.660000026E-1,-2.284100056E0,-9.316999912E-1
4.444799688E1,-1.150000002E-2,-1.859599948E0,-2.109999955E-1
4.446799688E1,6.893000007E-1,-1.880299926E0,-2.617999911E-1
4.448799844E1,1.337799907E0,-2.101300001E0,2.175000012E-1
4.451800000E1,1.152799964E0,-1.556899905E0,2.568300009E0
4.454799688E1,7.868999839E-1,-1.104799986E0,3.870800018E0
4.456799688E1,9.629999995E-1,-6.503999829E-1,2.873899937E0
4.458799844E1,1.742799997E0,-2.996000051E-1,1.251399994E0
4.461799844E1,2.018699884E0,3.382000029E-1,6.211999655E-1
4.464799688E1,6.369999647E-1,9.991999865E-1,4.638999999E-1
4.466799844E1,1.318999976E-1,1.321399927E0,-2.584999800E-1
4.469799688E1,-1.261999905E-1,1.837099910E0,-1.300699949E0
4.471799688E1,-1.659999937E-1,1.893899918E0,-1.770999908E0
4.473799688E1,-1.129999980E-1,1.835899949E0,-1.997499943E0
4.475799844E1,-7.739999890E-2,1.684799910E0,-1.932799935E0
4.478799688E1,-2.027999908E-1,1.580699921E0,-1.638799906E0
4.480799688E1,-2.787999809E-1,1.436399937E0,-1.421499968E0
4.482799688E1,-6.491000056E-1,1.284099936E0,-1.087700009E0
4.484799688E1,-9.987999797E-1,1.080199957E0,-5.370999575E-1
4.486799688E1,-1.154500008E0,7.969999909E-1,-1.462000012E-1
4.488799688E1,-1.176499963E0,6.220999956E-1,-3.629999980E-2
4.490800156E1,-9.113000035E-1,6.258000135E-1,2.061999887E-1
4.493799688E1,-1.958999932E-1,2.651000023E-1,7.597000003E-1
4.495799688E1,3.830000013E-2,-3.390000015E-2,1.567999959E0
4.497799844E1,4.360000044E-2,-5.479999781E-1,2.113899946E0
4.499799844E1,-2.300999910E-1,-9.371999502E-1,2.208899975E0
4.502800000E1,-4.259999841E-2,-1.144099951E0,2.983500004E0
4.505800156E1,-7.721999884E-1,-1.065400004E0,2.328099966E0
4.508799688E1,-1.062899947E0,-5.788999796E-1,8.235999942E-1
4.510799844E1,-6.958999634E-1,-2.406999916E-1,5.266999602E-1
4.513799688E1,2.962999940E-1,2.769999951E-2,1.478799939E0
4.515799688E1,3.328000009E-1,3.475999832E-1,1.815699935E0
4.517799688E1,-8.739999682E-2,7.013999820E-1,1.306499958E0
4.519799688E1,-1.363999993E-1,9.490000010E-1,-1.004999951E-1
4.521799688E1,2.714000046E-1,1.020799994E0,-1.490199924E0
4.523799688E1,7.204999924E-1,1.015499949E0,-2.299499989E0
4.525799688E1,1.133299947E0,7.195000052E-1,-2.850800037E0
4.527799688E1,1.356099963E0,3.066000044E-1,-3.301599979E0
4.529800156E1,1.189299941E0,-1.950999945E-1,-3.367399931E0
4.532799688E1,8.855999708E-1,-8.834999800E-1,-3.085399866E0
4.534800313E1,2.106999904E-1,-1.239699960E0,-3.206099987E0
4.537799688E1,-3.018999994E-1,-1.791399956E0,-2.883100033E0
4.539800000E1,-2.206999958E-1,-2.035099983E0,-2.321599960E0
4.542799688E1,2.696999907E-1,-2.725299835E0,-1.194800019E0
4.544802344E1,1.165999994E-1,-2.659099817E0,-1.118099928E0
4.547799688E1,-4.930000007E-2,-2.438499928E0,-8.488000035E-1
4.549799688E1,9.922999740E-1,-2.890599966E0,-3.346000016E-1
4.551799688E1,1.819099903E0,-2.660599947E0,1.148999929E0
4.553799688E1,1.870899916E0,-2.681699991E0,3.264299870E0
4.555799688E1,9.951999784E-1,-2.224400043E0,4.506700039E0
4.557799688E1,-9.739999473E-2,-1.177099943E0,4.281199932E0
4.559799844E1,5.820999742E-1,-6.768999696E-1,2.834199905E0
4.562799688E1,2.701099873E0,-1.779999956E-2,6.300000101E-2
4.564799688E1,2.775399923E0,4.745999873E-1,-8.212999701E-1
4.566799688E1,1.586799979E0,6.773999929E-1,-6.222999692E-1
4.568800000E1,-3.669999912E-2,9.654999971E-1,-3.755999804E-1
4.571799688E1,-1.020599961E0,1.476499915E0,-7.676999569E-1
4.573800156E1,-7.616999745E-1,1.722599983E0,-1.382300019E0
4.576799688E1,-2.180999964E-1,1.735899925E0,-2.333400011E0
4.578800469E1,-3.561999798E-1,1.620700002E0,-2.463599920E0
4.581799688E1,-8.792999983E-1,1.589599967E0,-1.741499901E0
4.583800469E1,-8.144999743E-1,1.336699963E0,-1.175099969E0
4.586799688E1,-1.222399950E0,1.302699924E0,-7.109999657E-1
4.588799688E1,-1.502599955E0,1.279099941E0,-6.455999613E-1
4.590799688E1,-1.770099998E0,1.165799975E0,-6.329999566E-1
4.592799688E1,-2.033499956E0,1.194999933E0,-2.008000016E-1
4.594799688E1,-1.744300008E0,7.928999662E-1,7.124999762E-1
4.596799688E1,-1.381299973E0,5.349000096E-1,1.618199944E0
4.598800156E1,-1.072899938E0,1.304000020E-1,1.984999895E0
4.601799688E1,-1.162400007E0,-4.302999973E-1,1.622399926E0
4.603799688E1,-1.406000018E0,-6.843999624E-1,2.708899975E0
4.605799688E1,-1.374199986E0,-1.034699917E0,4.595299721E0
4.607800000E1,-1.308699965E0,-1.291599989E0,5.326299667E0
4.610799688E1,-1.141099930E0,-1.356299996E0,3.245299816E0
4.612799688E1,-4.797999859E-1,-8.452999592E-1,1.946699977E0
4.614799688E1,1.211999953E-1,-5.468999743E-1,1.288599968E0
4.616800313E1,2.151999921E-1,-1.547999978E-1,1.122099996E0
4.619799688E1,5.460000038E-2,5.001999736E-1,-1.556999981E-1
4.621799688E1,4.560000002E-1,7.561999559E-1,-1.092000008E0
4.623799688E1,1.092999935E0,8.068999648E-1,-2.155599833E0
4.625799688E1,1.438399911E0,5.839999914E-1,-3.236099958E0
4.627800313E1,1.405300021E0,3.788000047E-1,-3.871099949E0
4.630799688E1,7.795999646E-1,-2.459999919E-1,-4.233399868E0
4.632799844E1,6.778999567E-1,-8.400999904E-1,-3.949699879E0
4.635799688E1,5.940999985E-1,-1.244499922E0,-3.337599993E0
4.637799688E1,3.158999979E-1,-1.519500017E0,-2.818500042E0
4.639799688E1,4.559999704E-2,-2.129899979E0,-2.408599854E0
4.641800156E1,-2.784000039E-1,-2.479099989E0,-1.990499973E0
4.644799688E1,-1.442999989E-1,-3.001399994E0,-1.154699922E0
4.646800312E1,-3.450999856E-1,-2.952800035E0,-8.075999618E-1
4.649799688E1,-6.629999876E-1,-2.443300009E0,-2.356999964E-1
4.651799688E1,2.679999918E-2,-2.255499840E0,1.950999945E-1
4.653799688E1,9.879999757E-1,-2.310099840E0,1.019899964E0
4.655799688E1,1.550199986E0,-2.177099943E0,2.318300009E0
4.657799688E1,1.857699990E0,-2.104799986E0,3.621799946E0
4.659799688E1,1.548200011E0,-1.507699966E0,3.948599815E0
4.661799688E1,1.358299971E0,-7.978999615E-1,3.196899891E0
4.663799688E1,1.597700000E0,-1.665000021E-1,1.866799951E0
