"Time (s)","Acceleration x (m/s^2)","Acceleration y (m/s^2)","Acceleration z (m/s^2)"
0.000000000E0,-2.948235273E0,4.840064526E0,9.123180389E0
2.168276000E-2,-2.449975729E0,4.710708618E0,9.367518425E0
4.191697900E-2,-1.966089010E0,4.629262447E0,8.902795792E0
6.229916600E-2,-1.506157160E0,4.820900440E0,8.859677315E0
8.239135400E-2,-1.189953923E0,4.916719913E0,9.008196831E0
1.024835410E-1,-9.791518450E-1,4.931092739E0,9.276490211E0
1.225757290E-1,-3.946550786E-1,4.691544533E0,9.127970695E0
1.426679160E-1,-1.311524510E-1,4.533442974E0,8.902795792E0
1.627601040E-1,-9.456151724E-1,3.556087971E0,8.428491592E0
1.828528120E-1,4.198076129E-1,4.701126575E0,8.150615692E0
2.029455210E-1,7.360107899E-1,4.557397842E0,7.963768482E0
2.230382290E-1,1.181569815E0,4.332222939E0,7.484672546E0
2.431309370E-1,1.239061236E0,3.929782629E0,7.633192539E0
2.632235940E-1,5.491634607E-1,2.914099693E0,8.802186012E0
2.833157810E-1,-3.323726356E-1,2.478122473E0,1.014365387E1
3.034079690E-1,2.569150627E-1,2.712879419E0,1.007658005E1
3.235001560E-1,1.104914427E0,2.387094259E0,1.041194725E1
3.435923440E-1,1.698993206E0,1.855298162E0,1.128869247E1
3.636845830E-1,4.102256894E-1,1.448066831E0,1.182528019E1
3.837772910E-1,5.108358264E-1,8.971067071E-1,1.191630840E1
4.038700000E-1,-5.431747437E-1,-2.862596810E-1,1.232833004E1
4.239627080E-1,1.526518703E0,6.383950114E-1,1.280263519E1
4.440554160E-1,2.317026615E0,5.377849340E-1,1.262537003E1
4.641480210E-1,2.484710217E0,-3.712991625E-2,1.147554016E1
4.842402080E-1,2.815286160E0,-1.952314973E-1,9.817869186E0
5.043323960E-1,2.858404875E0,-6.264176369E-1,9.104016304E0
5.244245830E-1,1.162405968E0,-2.754800394E-2,9.583111763E0
5.445167710E-1,7.964966446E-2,4.802934527E-1,1.006220722E1
5.646091660E-1,-4.012426734E-2,9.066886306E-1,1.021551800E1
5.847018750E-1,-3.084178567E-1,1.151027441E0,9.645394325E0
6.047945830E-1,-2.030168027E-1,1.462439656E0,9.310027122E0
6.248872910E-1,-3.323726356E-1,1.912789583E0,9.099225044E0
6.449800000E-1,-5.096380711E-1,1.965490103E0,8.380581856E0
6.650725000E-1,-1.554066658E0,2.573941708E0,5.683272839E0
6.851646870E-1,-1.376801252E0,3.000336885E0,5.807837963E0
7.052568750E-1,-9.024965167E-1,3.053037405E0,7.767339230E0
7.253490620E-1,-9.551970959E-1,2.712879419E0,8.998615265E0
7.454412500E-1,-6.485758424E-1,3.244675636E0,9.755586624E0
7.655338020E-1,-7.539768815E-1,2.425421953E0,9.942433357E0
7.856265100E-1,-1.918179393E0,2.660178900E0,9.209417343E0
8.057192190E-1,-2.181682110E0,2.856608152E0,8.366209030E0
8.258119270E-1,-2.258337498E0,2.976382017E0,8.203316689E0
8.459046350E-1,-2.502676249E0,2.847026348E0,8.735112190E0
8.659970830E-1,-2.263128281E0,2.866190195E0,9.774749756E0
8.860892710E-1,-1.740913987E0,2.938054323E0,1.074252319E1
9.061814580E-1,-1.319309831E0,2.952427387E0,1.082876110E1
9.262736460E-1,-1.065389037E0,2.985964060E0,1.078564167E1
9.463658330E-1,-8.018864393E-1,3.311748981E0,1.059879494E1
9.664584890E-1,-2.748811543E-1,3.575251818E0,1.039278412E1
9.865511980E-1,-1.119886190E-1,3.460268736E0,9.803496361E0
1.006643906E0,-9.935247302E-1,3.666279793E0,8.931541443E0
1.026736614E0,-1.199535847E0,3.560878754E0,8.797394753E0
1.046829323E0,-9.551970959E-1,3.541714907E0,9.012988091E0
1.066921771E0,-6.006662250E-1,3.450686932E0,9.587903023E0
1.087013958E0,-6.964854002E-1,3.215929985E0,1.021551800E1
1.107106146E0,-9.312422872E-1,2.856608152E0,1.051255798E1
1.127198333E0,-1.108507752E0,2.626642227E0,1.060837650E1
1.147289375E0,-1.103716731E0,2.348766804E0,1.082396984E1
1.167375260E0,-2.497885227E0,1.840925217E0,1.071377754E1
1.187476666E0,-1.276191235E0,2.200247049E0,1.006699848E1
1.207568854E0,-6.294119954E-1,2.181083202E0,1.012448978E1
1.227661041E0,-2.317625433E-1,2.142755508E0,1.012448978E1
1.247753229E0,6.881012321E-1,1.936744452E0,1.029217339E1
1.267845416E0,1.061795831E0,2.032563448E0,1.063233185E1
1.287938021E0,6.066549420E-1,1.783433795E0,1.081438828E1
1.308030729E0,-3.898641467E-1,1.548676848E0,1.044069290E1
1.328123437E0,-6.389939189E-1,1.601377368E0,9.750795364E0
1.348216146E0,-4.617284834E-1,2.013399601E0,8.993824005E0
1.368308854E0,-3.515364826E-1,2.439794779E0,8.481191635E0
1.388401458E0,-3.611183763E-1,2.880563021E0,8.217689514E0
1.408493646E0,-3.179997802E-1,3.177602291E0,7.978141308E0
1.428585833E0,-4.761013687E-1,3.393195391E0,7.331362247E0
1.448678021E0,-5.383837819E-1,3.556087971E0,7.264288902E0
1.468771458E0,-3.515364826E-1,3.718980551E0,8.078751564E0
1.488850364E0,4.611296207E-2,3.723771334E0,8.989033699E0
1.508956354E0,6.785193086E-1,3.886663914E0,9.583111763E0
1.529048541E0,1.023468256E0,4.116630077E0,9.841823578E0
1.549140729E0,5.443724990E-1,4.087883949E0,1.002867126E1
1.569232916E0,-8.803384006E-2,3.848336220E0,1.033050156E1
1.589325104E0,-2.509263754E-1,3.810008526E0,1.051734829E1
1.609417760E0,-2.030168027E-1,3.934573412E0,1.036403751E1
1.629511198E0,1.563049704E-1,4.231612682E0,1.030175591E1
1.649603541E0,4.629262388E-1,4.466369629E0,1.044548416E1
1.669695729E0,9.881348908E-2,4.337013721E0,1.061795902E1
1.689787916E0,-2.078077644E-1,4.054347515E0,1.074731445E1
1.709880104E0,-2.988359630E-1,4.020810604E0,1.106830883E1
1.729972604E0,-5.479657054E-1,3.982483149E0,1.068024063E1
1.750065312E0,-8.881236911E-1,4.183703423E0,9.669348717E0
1.770158021E0,-1.151626348E0,4.337013721E0,8.768649101E0
1.790250729E0,-1.055807114E0,4.293895245E0,8.495564461E0
1.810343437E0,-1.031852365E0,4.020810604E0,8.485982895E0
1.830436146E0,-7.731407285E-1,3.671070814E0,8.797394753E0
1.850528489E0,-1.257027388E0,3.378822565E0,9.674139977E0
1.870620677E0,-1.750495911E0,2.722461462E0,1.055088520E1
1.890712864E0,-1.870269895E0,2.363139629E0,1.067065907E1
1.910805052E0,-1.568439603E0,2.300857067E0,9.501666069E0
1.930897448E0,-1.496575236E0,2.420631170E0,7.781712055E0
1.950990156E0,-1.300145984E0,2.411049128E0,6.746865273E0
1.971082864E0,-9.168694019E-1,2.420631170E0,6.775610924E0
1.991175573E0,-3.323726356E-1,2.267320395E0,7.067859650E0
2.011268281E0,2.808698714E-1,2.157128334E0,7.676311016E0
2.031360989E0,8.605756760E-1,2.080473185E0,8.318299294E0
2.051453437E0,8.318299055E-1,1.955908179E0,8.682412148E0
2.071545625E0,3.671070933E-1,1.682823658E0,8.112288475E0
2.091637812E0,8.222479820E-1,1.802597642E0,8.050005913E0
2.111730000E0,6.449825764E-1,2.133173704E0,8.634502411E0
2.131823541E0,1.224688411E0,2.722461462E0,9.338772774E0
2.151910729E0,1.761275649E0,3.714189529E0,1.026342773E1
2.172008489E0,2.518246889E0,3.594415665E0,9.683721542E0
2.192100677E0,1.368417144E0,4.451996803E0,9.281281471E0
2.212192864E0,1.425908566E0,6.191114426E0,1.021072769E1
2.232285052E0,5.167645931E0,7.163678646E0,1.192109871E1
2.252377239E0,7.625407219E0,6.708537579E0,9.401055336E0
2.272469948E0,6.097091675E0,4.950256348E0,5.850956440E0
2.292562656E0,2.230789423E0,2.545196056E0,5.338324070E0
2.312655364E0,-2.320619822E0,3.509376049E-1,8.744694710E0
2.332748073E0,-6.301905155E0,7.294232249E-1,1.336317730E1
2.352840781E0,-6.479170799E0,1.922371507E0,1.538975143E1
2.372933437E0,-2.229591608E0,2.430212975E0,1.579219246E1
2.393025625E0,1.563049704E-1,2.300857067E0,1.475734520E1
2.413117812E0,2.566156387E0,1.769060850E0,1.220855618E1
2.433210000E0,2.537410736E0,1.246846557E0,9.918478966E0
2.453302187E0,-8.018864393E-1,1.203727961E0,6.066549301E0
2.473395937E0,-1.937343240E0,-3.389602005E-1,8.811767578E0
2.493488125E0,-4.425646663E-1,-1.613354802E0,1.324340343E1
2.513580312E0,5.569487438E-2,-2.001422405E0,1.606048584E1
2.533672500E0,4.485533535E-1,-2.327207327E0,1.616588783E1
2.553764687E0,3.000336885E-1,-2.341580391E0,1.485795593E1
2.573857344E0,1.042631984E0,-2.308043480E0,1.308530140E1
2.593950052E0,8.749485612E-1,-2.135569096E0,1.074731445E1
2.614042760E0,-4.281917810E-1,-1.546281457E0,8.883631706E0
2.634135469E0,-4.761013687E-1,4.431635141E-2,8.533892632E0
2.654228177E0,-1.165999174E0,1.353445351E-1,8.605756760E0
2.674320885E0,-8.881236911E-1,6.910955310E-1,8.342253685E0
2.694413125E0,-1.311524510E-1,1.414530039E0,7.973350525E0
2.714505312E0,-1.263614893E-1,2.348766804E0,8.509937286E0
2.734597500E0,6.210278273E-1,2.880563021E0,8.145824432E0
2.754689687E0,4.533443153E-1,3.556087971E0,6.991204262E0
2.774782291E0,-8.641688824E-1,4.212449074E0,6.727701664E0
2.794875000E0,-1.635512948E0,4.533442974E0,7.230751991E0
2.814967708E0,-2.018789530E0,4.581352711E0,7.585282803E0
2.835060416E0,-1.702586412E0,4.720290661E0,7.460718155E0
2.855153125E0,-1.860687971E0,4.940674305E0,7.896695137E0
2.875245833E0,-2.114608765E0,4.720290661E0,8.677620888E0
2.895338125E0,-1.975670934E0,4.566979885E0,8.898005486E0
2.915430312E0,-1.467829466E0,4.638844013E0,8.600965500E0
2.935522500E0,-1.348055601E0,4.710708618E0,8.835722923E0
2.955614687E0,-1.779241681E0,4.600516319E0,8.548265457E0
2.975707239E0,-1.673840642E0,4.509488583E0,7.829621792E0
2.995799948E0,-1.745705009E0,4.495115280E0,7.719429493E0
3.015892656E0,-2.507467270E0,4.576561928E0,7.585282803E0
3.035985364E0,-2.742223978E0,4.643635273E0,7.877531052E0
3.056078073E0,-1.635512948E0,4.332222939E0,8.433281898E0
3.076170781E0,2.994348295E-3,4.126211643E0,9.578320503E0
3.096263229E0,-1.503162831E-1,3.627952337E0,1.061795902E1
3.116355416E0,-1.381592274E0,2.751207113E0,1.131264782E1
3.136447604E0,-2.799715519E0,2.051727295E0,1.156656837E1
3.156539791E0,-2.713478327E0,2.104427814E0,1.071377754E1
3.176632187E0,-3.323726356E-1,2.827862501E0,9.712468147E0
3.196724896E0,1.195942640E0,3.958528280E0,8.279971123E0
3.216817604E0,1.775648475E0,4.533442974E0,7.245124817E0
3.236910312E0,1.736721955E-2,4.950256348E0,6.612718582E0
3.257003021E0,-1.415128946E0,4.346595764E0,6.967249393E0
3.277095729E0,-1.410338044E0,3.814799547E0,7.930231571E0
3.297188333E0,-1.103716731E0,4.188494205E0,8.902795792E0
3.317280521E0,-6.389939189E-1,4.552607059E0,8.644083977E0
3.337372708E0,9.402253479E-2,5.074821472E0,8.668039322E0
3.357464896E0,3.048246503E-1,5.132312775E0,8.730321884E0
3.377557135E0,-7.366096228E-2,5.093985081E0,8.759067535E0
3.397649844E0,-1.798405528E0,5.031702518E0,8.251225471E0
3.417742552E0,-2.449975729E0,4.955047131E0,8.342253685E0
3.437835260E0,-3.149455309E0,4.600516319E0,7.915858746E0
3.457927969E0,-3.297975063E0,5.026911736E0,7.906276703E0
3.478020677E0,-3.120709658E0,5.002956867E0,7.853576183E0
3.498113385E0,-2.919489384E0,4.931092739E0,8.342253685E0
3.518205625E0,-2.502676249E0,4.983793259E0,9.214208603E0
3.538297812E0,-2.473930359E0,5.012538910E0,9.654975891E0
3.558390000E0,-2.435602903E0,4.940674305E0,1.003346157E1
3.578482187E0,-2.426020861E0,4.993374825E0,9.693304062E0
3.598574844E0,-2.296664953E0,5.419770241E0,9.846614838E0
3.618667552E0,-1.530111909E0,5.515589237E0,1.012928104E1
3.638758646E0,-7.731407285E-1,5.697645664E0,1.031133747E1
3.658851719E0,-4.138189256E-1,5.745555401E0,1.034487438E1
3.678945781E0,-7.366096228E-2,5.299996376E0,1.066586781E1
3.699037969E0,3.174009174E-2,4.715499401E0,1.088146114E1
3.719130156E0,1.179773211E-1,4.193284988E0,1.100123501E1
3.739222344E0,2.521241307E-1,3.541714907E0,1.107309914E1
3.759314739E0,3.718980551E-1,3.172811270E0,1.004783440E1
3.779407448E0,1.227682754E-1,3.335703850E0,8.303926468E0
3.799500156E0,-4.473556280E-1,3.273421526E0,7.192424297E0
3.819592864E0,-6.485758424E-1,3.407568216E0,7.005577087E0
3.839685573E0,-6.916944385E-1,3.742935181E0,7.139723778E0
3.859778281E0,-8.114683628E-1,3.972901106E0,7.460718155E0
3.879870937E0,-1.367219329E0,4.154957294E0,7.872740269E0
3.899963125E0,-2.306246996E0,3.666279793E0,7.743384361E0
3.920055312E0,-1.899015665E0,4.835273266E0,7.249915600E0
3.940147500E0,-6.389939189E-1,4.902346611E0,6.617509365E0
3.960239687E0,4.132200405E-2,4.916719913E0,6.617509365E0
3.980332396E0,8.701575994E-1,4.691544533E0,6.809147835E0
4.000425104E0,8.941123486E-1,4.739454269E0,6.684582710E0
4.020517812E0,-1.167795807E-1,4.586143494E0,6.833102703E0
4.040610521E0,-8.162593246E-1,4.543025017E0,7.829621792E0
4.060703229E0,-8.354231715E-1,4.499906540E0,9.118389130E0
4.080795937E0,-1.271400213E0,4.293895245E0,9.870569229E0
4.100888229E0,-1.429501772E0,4.490324497E0,1.059400368E1
4.120980416E0,-1.376801252E0,4.734663486E0,1.114496422E1
4.141072604E0,-9.360332489E-1,4.864019394E0,1.068024063E1
4.161164791E0,-7.396039963E-1,4.816109657E0,9.894524574E0
4.181257396E0,-1.266609311E0,4.317850113E0,9.357936859E0
4.201350104E0,-2.085862875E0,3.675861835E0,9.233371735E0
4.221442812E0,-2.881161928E0,3.441104889E0,9.746004105E0
4.241535521E0,-2.723060131E0,3.632743120E0,1.065628624E1
4.261628229E0,-1.784032702E0,3.886663914E0,1.114975452E1
4.281720937E0,-7.252311110E-1,3.570460796E0,1.070419598E1
4.301813333E0,-2.940450013E-1,3.354867697E0,1.078085136E1
4.321905521E0,-6.006662250E-1,2.985964060E0,1.138451195E1
4.341997708E0,-1.429501772E0,2.430212975E0,1.129348373E1
4.362089896E0,-1.693004489E0,2.377512455E0,1.004783440E1
4.382182344E0,-1.625931025E0,2.593105555E0,8.538682938E0
4.402275052E0,-1.870269895E0,3.029082537E0,7.168469429E0
4.422367760E0,-2.320619822E0,3.230302811E0,5.941984653E0
4.442460469E0,-2.334992647E0,3.096156120E0,5.553916931E0
4.462553177E0,-2.205636978E0,2.588314533E0,6.473780632E0
4.482645885E0,-1.975670934E0,1.946326375E0,8.054796219E0
4.502738437E0,-2.013998508E0,1.716360331E0,1.047902107E1
4.522830625E0,-1.908597589E0,1.764269948E0,1.221813869E1
4.542922812E0,-1.496575236E0,2.276902437E0,1.221334743E1
4.563015000E0,-7.204401493E-1,3.124901772E0,1.066107750E1
4.583107344E0,1.946326345E-1,3.968110323E0,8.744694710E0
4.603200052E0,6.258187890E-1,4.811318874E0,7.475090981E0
4.623292760E0,6.737283468E-1,5.170640469E0,7.034322739E0
4.643385469E0,3.191975057E-1,5.189804077E0,7.039113522E0
4.663478177E0,-3.054235131E-2,5.050866604E0,7.455926895E0
4.683570885E0,8.923157305E-2,5.036493778E0,8.490774155E0
4.703663541E0,1.371411532E-1,4.854437351E0,9.204626083E0
4.723755729E0,1.898416728E-1,4.959838390E0,9.381891251E0
4.743847916E0,3.191975057E-1,5.084403038E0,9.266908646E0
4.763940104E0,5.587453842E-1,4.983793259E0,9.051315308E0
4.784032344E0,6.881012321E-1,4.844855309E0,8.869258881E0
4.804125052E0,6.401916146E-1,4.519070148E0,8.567428589E0
4.824217760E0,-7.845192403E-2,4.475951672E0,8.600965500E0
4.844310469E0,-7.683497667E-1,4.509488583E0,9.080060959E0
4.864403177E0,-9.791518450E-1,4.614889622E0,9.386682510E0
4.884495885E0,-6.581577063E-1,4.432833195E0,9.276490211E0
4.904588594E0,-2.652992606E-1,4.605307579E0,9.889733315E0
4.924680833E0,2.521241307E-1,4.442414761E0,1.112100887E1
4.944773021E0,5.204176903E-1,4.212449074E0,1.183486176E1
4.964865208E0,7.312198281E-1,4.097465992E0,1.143242168E1
4.984957396E0,5.874910951E-1,3.843545437E0,1.054130363E1
5.005050052E0,2.808698714E-1,3.254257679E0,1.035924721E1
5.025142760E0,1.850507110E-1,2.698506594E0,1.006699848E1
5.045235469E0,1.083954051E-1,2.195456028E0,9.468129158E0
5.065328177E0,-6.587565877E-3,1.922371507E0,8.907587051E0
5.085420885E0,1.036044434E-1,1.888834834E0,8.227271080E0
5.105513594E0,-4.090279639E-1,1.989444971E0,7.743384361E0
5.125605989E0,-8.785417676E-1,2.118800879E0,7.978141308E0
5.145697135E0,-6.964854002E-1,2.286484241E0,8.538682938E0
5.165790625E0,4.629262388E-1,3.110528946E0,8.950705528E0
5.185883541E0,1.727738857E0,4.131002903E0,8.768649101E0
5.205975729E0,2.240371227E0,4.734663486E0,8.021260262E0
5.226067916E0,2.628438950E0,5.170640469E0,7.633192539E0
5.246160104E0,2.609275103E0,5.276041508E0,7.570909977E0
5.266252552E0,1.996032476E0,5.012538910E0,7.863158226E0
5.286345260E0,1.406744719E0,4.528652191E0,8.313508034E0
5.306437969E0,9.036942720E-1,4.083093166E0,8.907587051E0
5.326530677E0,2.377512455E-1,3.637534142E0,9.511247635E0
5.346623385E0,7.006774843E-2,3.350076675E0,9.798705101E0
5.366716094E0,1.179773211E-1,3.302167177E0,9.654975891E0
5.386808646E0,2.760789096E-1,3.273421526E0,9.487293243E0
5.406900833E0,3.814799488E-1,3.153647423E0,9.535202026E0
5.426993021E0,1.610959321E-1,2.981173038E0,9.568738937E0
5.447085208E0,-2.557173371E-1,2.981173038E0,9.841823578E0
5.467177500E0,-1.503162831E-1,3.110528946E0,1.042632008E1
5.487270208E0,8.444061875E-2,3.086574078E0,1.068024063E1
5.507362916E0,2.808698714E-1,3.110528946E0,1.073294163E1
5.527455625E0,5.587453842E-1,2.914099693E0,1.132702065E1
5.547548333E0,3.239884675E-1,2.066100359E0,1.201212692E1
5.567641041E0,-7.396039963E-1,1.347456694E0,1.258225060E1
5.587733750E0,-1.994834781E0,1.151027441E0,1.314758396E1
5.607825989E0,-1.716959238E0,1.174982190E0,1.274035263E1
5.627918958E0,-7.443949580E-1,1.093535900E0,1.092457962E1
5.648004010E0,-7.845192403E-2,1.395366192E0,9.017779350E0
5.668103750E0,7.785305381E-3,1.582213521E0,7.427181244E0
5.688195989E0,-2.892540395E-1,1.064790249E0,6.406707287E0
5.708288177E0,-5.383837819E-1,6.192312241E-1,6.928921700E0
5.728380364E0,-1.012688518E0,2.263727188E-1,8.701576233E0
5.748472552E0,-1.918179393E0,1.497174054E-1,1.052213955E1
5.768565156E0,-2.119399548E0,5.665307045E-1,1.130306530E1
5.788657864E0,-1.621140122E0,1.198937058E0,1.081438828E1
5.808750573E0,-1.060598135E0,1.975072026E0,9.563947678E0
5.828843281E0,-2.461354136E-1,2.808698654E0,8.414118767E0
5.848935989E0,1.898416728E-1,3.350076675E0,7.566119194E0
5.869028698E0,7.006774843E-2,3.661489010E0,7.364898682E0
5.889121041E0,-2.892540395E-1,3.690234661E0,7.499045372E0
5.909213229E0,-7.539768815E-1,3.762099028E0,7.834412575E0
5.929305416E0,-8.450050354E-1,3.781262875E0,8.682412148E0
5.949397604E0,-7.635588050E-1,3.651906967E0,9.204626083E0
5.969490104E0,-6.246210337E-1,3.843545437E0,9.290863991E0
5.989582812E0,-5.048471093E-1,3.771681070E0,9.846614838E0
6.009675521E0,-2.317625433E-1,3.632743120E0,1.049818516E1
6.029768229E0,2.521241307E-1,3.479432583E0,1.082876110E1
6.049860937E0,4.006437957E-1,3.259048462E0,1.068982315E1
6.069953646E0,5.731182694E-1,3.067410231E0,1.051255798E1
6.090046094E0,2.233783752E-1,3.172811270E0,1.059879494E1
6.110138281E0,-1.263614893E-1,3.460268736E0,1.044548416E1
6.130233177E0,2.473331541E-1,3.359658718E0,9.956806183E0
6.150315208E0,1.205524564E0,2.847026348E0,9.549574852E0
6.170416250E0,2.058315039E0,2.717670441E0,1.038320160E1
6.190508437E0,2.518246889E0,2.626642227E0,1.194984436E1
6.210600625E0,2.776958466E0,2.779952765E0,1.275472546E1
6.230692812E0,3.361455202E0,2.736834288E0,1.239061260E1
6.250785000E0,2.623647928E0,2.794325829E0,1.163364124E1
6.270877656E0,1.833139896E0,2.549986839E0,1.102039909E1
6.290970364E0,1.857094765E0,1.999026895E0,1.037841034E1
6.311063073E0,1.703784108E0,1.352247596E0,9.674139977E0
6.331155781E0,1.416326642E0,8.875247836E-1,9.492083549E0
6.351248489E0,6.162368655E-1,6.863046288E-1,9.731631279E0
6.371341198E0,-1.796608907E-3,6.048583388E-1,9.851405144E0
6.391433385E0,-2.221806347E-1,8.539881110E-1,9.712468147E0
6.411525573E0,7.785305381E-3,1.376202464E0,9.444173813E0
6.431617760E0,7.006774843E-2,1.725942254E0,8.672829628E0
6.451709948E0,6.527678668E-2,2.228992701E0,7.867949486E0
6.471802552E0,1.515140235E-1,2.727252245E0,7.542164326E0
6.491895260E0,2.521241307E-1,2.966800213E0,7.637983322E0
6.511987969E0,6.066549420E-1,2.894935846E0,7.594864845E0
6.532080677E0,1.502563953E0,2.856608152E0,7.149305820E0
6.552173385E0,2.494292021E0,3.134483576E0,6.277351379E0
6.572266094E0,2.503874063E0,3.996855974E0,5.812628746E0
6.592358385E0,1.962495804E0,4.619680405E0,6.157577515E0
6.612450573E0,1.416326642E0,5.352696896E0,6.895384789E0
6.632543594E0,1.143242121E0,5.965939522E0,7.843994617E0
6.652635833E0,8.749485612E-1,6.128831863E0,9.056106567E0
6.672728021E0,6.162368655E-1,6.104876995E0,1.044548416E1
6.692820208E0,7.647565007E-1,5.707227707E0,1.125036526E1
6.712912396E0,9.324400425E-1,5.199386120E0,1.160968685E1
6.733004948E0,6.114459038E-1,4.825691700E0,1.181090736E1
6.753097656E0,-7.366096228E-2,4.729872227E0,1.186839867E1
6.773190364E0,-6.629486680E-1,4.360968590E0,1.125036526E1
6.793283073E0,-1.582812428E0,3.417150259E0,1.027780056E1
6.813375781E0,-2.320619822E0,2.003817797E0,9.928060532E0
6.833468489E0,-2.469139576E0,5.425758958E-1,1.051255798E1
6.853560729E0,-3.015308619E0,-1.712767184E-1,1.203129101E1
6.873652916E0,-2.258337498E0,-5.832990408E-1,1.343983269E1
6.893745104E0,-1.980461836E0,-4.683160484E-1,1.279305363E1
6.913837291E0,-1.793614507E0,1.197739271E-3,1.030654621E1
6.933929844E0,-6.389939189E-1,1.074372172E0,8.806977272E0
6.954022552E0,-4.569375217E-1,2.018190622E0,7.499045372E0
6.974115260E0,-4.970617965E-2,2.003817797E0,6.593554497E0
6.994207969E0,2.090055048E-1,1.793015718E0,7.408017159E0
7.014300677E0,9.402253479E-2,1.414530039E0,9.333982468E0
7.034393385E0,6.048583239E-2,1.280383229E0,1.052693081E1
7.054485573E0,4.006437957E-1,1.754688025E0,1.084792423E1
7.074577760E0,1.071377754E0,2.535614014E0,1.022030926E1
7.094669948E0,1.627128839E0,3.345285892E0,9.046525002E0
7.114762135E0,1.799603224E0,4.049556255E0,7.594864845E0
7.134855104E0,1.229479313E0,4.475951672E0,6.291724205E0
7.154946510E0,6.306097507E-1,4.499906540E0,6.124041080E0
7.175040729E0,2.808698714E-1,4.389714241E0,6.809147835E0
7.195132916E0,3.174009174E-2,4.236403942E0,7.393644333E0
7.215225104E0,-2.796721160E-1,4.217239857E0,8.006887436E0
7.235317291E0,-6.587565877E-3,4.183703423E0,8.955496788E0
7.255409479E0,-9.282479435E-2,4.107048035E0,9.592694283E0
7.275502135E0,-3.275817037E-1,4.154957294E0,1.019156361E1
7.295594844E0,-2.413444668E-1,3.987273932E0,1.037362003E1
7.315687552E0,-4.234008193E-1,4.073511124E0,1.027300930E1
7.335780260E0,-2.365535051E-1,4.150166512E0,1.061316776E1
7.355872969E0,3.575251698E-1,4.327432156E0,1.121203709E1
7.375965521E0,1.047423005E0,3.872291088E0,1.166717815E1
7.396057708E0,1.617546916E0,3.508178234E0,1.236186695E1
7.416149896E0,2.101433516E0,3.211138964E0,1.284575367E1
7.436242083E0,2.379309177E0,2.861399174E0,1.281221676E1
7.456334271E0,2.959014893E0,2.693715572E0,1.271639824E1
7.476426927E0,3.538720608E0,2.617060423E0,1.217501926E1
7.496519635E0,3.361455202E0,2.343975782E0,1.034008312E1
7.516612344E0,2.714676142E0,1.912789583E0,7.973350525E0
7.536705052E0,1.976868629E0,1.884043932E0,6.593554497E0
7.556797760E0,1.258225083E0,1.788224697E0,6.478571892E0
7.576890312E0,1.802597642E-1,1.716360331E0,7.293034554E0
7.596982500E0,-3.515364826E-1,2.027772665E0,8.495564461E0
7.617074687E0,-7.845192403E-2,2.526032209E0,9.535202026E0
7.637166875E0,2.952427268E-1,2.894935846E0,9.669348717E0
7.657259062E0,5.108358264E-1,3.072201252E0,8.907587051E0
7.677351666E0,5.587453842E-1,3.235093832E0,8.308717728E0
7.697444375E0,8.605756760E-1,3.388404369E0,8.433281898E0
7.717537083E0,9.611857533E-1,3.359658718E0,8.366209030E0
7.737629791E0,9.563947916E-1,3.704607487E0,8.188943863E0
7.757722500E0,1.128869295E0,4.039974689E0,8.155406952E0
7.777815052E0,1.301343679E0,4.255567551E0,8.519519806E0
7.797907239E0,1.531309605E0,4.404087067E0,9.104016304E0
7.817999427E0,2.034360170E0,4.547815800E0,9.602275848E0
7.838091614E0,2.776958466E0,5.017329693E0,9.822659492E0
7.858183802E0,3.136280298E0,5.462888718E0,9.472919464E0
7.878276406E0,2.853613853E0,5.903656960E0,8.917168617E0
7.898369114E0,2.585320234E0,6.205487251E0,8.279971123E0
7.918461823E0,2.297862768E0,6.512108326E0,8.145824432E0
7.938554531E0,2.134970188E0,6.780402184E0,8.409327507E0
7.958647239E0,1.569637299E0,6.655837059E0,8.275180817E0
7.978739739E0,1.526518703E0,6.516899586E0,8.668039322E0
7.998831927E0,1.560055375E0,5.774301052E0,8.888422966E0
8.018924114E0,2.808698714E-1,4.236403942E0,9.698095322E0
8.039016302E0,-2.052326202E0,2.569150686E0,1.101560783E1
8.059108489E0,-4.308866978E0,1.448066831E0,1.219897461E1
8.079201146E0,-4.462177753E0,9.689710736E-1,1.286012650E1
8.099293854E0,-2.382902384E0,1.194146037E0,1.176778793E1
8.119386562E0,-2.652992606E-1,2.195456028E0,9.386682510E0
8.139479271E0,1.018677235E0,3.627952337E0,6.924130917E0
8.159571979E0,2.187670708E0,4.701126575E0,5.414979458E0
8.179664375E0,3.466856241E0,5.084403038E0,4.811318874E0
8.199756562E0,4.827487946E0,4.921510696E0,5.314369202E0
8.219848750E0,5.071826935E0,4.495115280E0,6.876221180E0
8.239940937E0,4.233409405E0,3.905827761E0,8.045214653E0
8.260033125E0,2.930269241E0,3.742935181E0,8.457237244E0
8.280125833E0,2.666766405E0,3.742935181E0,7.944604397E0
8.300218541E0,3.016506433E0,4.844855309E0,7.316989422E0
8.320311250E0,4.214245796E0,5.070030212E0,7.225961208E0
8.340403958E0,4.353183270E0,5.410188198E0,7.163678646E0
8.360496666E0,3.845341921E0,5.443725109E0,6.766029358E0
8.380588958E0,3.303963661E0,5.640154362E0,7.077441216E0
8.400681146E0,2.776958466E0,5.438933849E0,7.599655628E0
8.420773333E0,2.072687864E0,5.084403038E0,7.968559265E0
8.440865521E0,1.837930918E0,4.854437351E0,8.529101372E0
8.460957812E0,1.785230398E0,4.830482483E0,9.477710724E0
8.481050521E0,1.986450553E0,4.576561928E0,1.053172112E1
8.501143229E0,1.905004263E0,4.274731636E0,1.135576630E1
8.521235937E0,1.061795831E0,4.231612682E0,1.176299763E1
8.541328646E0,-3.994460404E-1,4.351386547E0,1.165759659E1
8.561421354E0,-1.357637405E0,5.170640469E0,1.061316776E1
8.581513541E0,-5.192199945E-1,6.492944717E0,9.348355293E0
8.601605729E0,1.176778793E0,7.537373066E0,8.658456802E0
8.621697916E0,2.355354309E0,8.030841827E0,8.591383934E0
8.641790104E0,3.557884455E0,8.529101372E0,9.065688133E0
8.661882448E0,4.516076088E0,8.687203407E0,9.151926041E0
8.681975156E0,4.961635113E0,8.270389557E0,8.490774155E0
8.702067864E0,4.947262287E0,7.403226376E0,7.877531052E0
8.722160573E0,5.124527454E0,6.296515465E0,7.719429493E0
8.742253281E0,4.985589504E0,5.328742027E0,6.900176048E0
8.762345885E0,4.314855576E0,4.701126575E0,5.462888718E0
8.782438073E0,3.021297216E0,4.442414761E0,4.466369629E0
8.802530260E0,2.379309177E0,4.528652191E0,4.547815800E0
8.822622448E0,2.120597363E0,4.485533714E0,4.887973785E0
8.842714635E0,1.790021300E0,4.351386547E0,5.405397415E0
8.862807083E0,1.301343679E0,4.102256775E0,6.377961636E0
8.882899791E0,8.557847142E-1,4.107048035E0,7.786502838E0
8.902992500E0,1.080959678E0,4.337013721E0,8.816558838E0
8.923085208E0,1.516936779E0,4.562189102E0,8.677620888E0
8.943177916E0,2.144552231E0,4.931092739E0,7.776921272E0
8.963270416E0,3.318336725E0,5.501216412E0,6.147995472E0
8.983362604E0,3.509974957E0,5.812628746E0,4.087883949E0
9.003454791E0,3.816596270E0,6.516899586E0,6.737283230E0
9.023546979E0,4.559194565E0,6.387543678E0,8.859677315E0
9.043639166E0,3.653703690E0,6.392334461E0,8.629711151E0
9.063731666E0,2.403263807E0,6.560018063E0,7.067859650E0
9.083824375E0,2.403263807E0,6.957667351E0,6.919339657E0
9.103917083E0,2.685930252E0,6.857057095E0,7.556537151E0
9.124009791E0,3.088370800E0,6.583972931E0,8.318299294E0
9.144102500E0,3.251263142E0,6.540853977E0,8.821350098E0
9.164194948E0,3.174607992E0,6.401916504E0,8.783021927E0
9.184287135E0,3.136280298E0,6.339633942E0,8.246435165E0
9.204379323E0,3.294381857E0,6.358798027E0,7.676311016E0
9.224471510E0,3.318336725E0,6.277351379E0,7.484672546E0
9.244563698E0,3.232099533E0,6.339633942E0,7.891903877E0
9.264656302E0,2.154134035E0,6.684582710E0,8.466818810E0
9.284749010E0,1.550473452E0,7.010367870E0,8.826140404E0
9.304841719E0,1.579219222E0,7.618819714E0,8.385373116E0
9.324934427E0,2.158925056E0,7.982932091E0,7.494254589E0
9.345027135E0,3.026088238E0,7.843994617E0,7.264288902E0
9.365119531E0,3.294381857E0,6.871430397E0,8.600965500E0
9.385211719E0,2.987760544E0,5.683272839E0,1.031133747E1
9.405303906E0,2.149343014E0,4.533442974E0,1.104435349E1
9.425396094E0,1.464236259E0,4.049556255E0,1.021072769E1
9.445488281E0,1.162405968E0,4.140584469E0,8.313508034E0
9.465580937E0,8.893213868E-1,4.432833195E0,5.774301052E0
9.485673646E0,6.593554616E-1,4.475951672E0,3.613579273E0
9.505766354E0,8.605756760E-1,4.107048035E0,3.283003330E0
9.525859062E0,9.420219660E-1,3.651906967E0,5.170640469E0
9.545951771E0,8.318299055E-1,3.340494871E0,7.992514133E0
9.566044166E0,4.916719794E-1,3.402777195E0,1.037362003E1
9.586136354E0,6.210278273E-1,3.896245956E0,1.186360741E1
9.606228541E0,1.574428320E0,4.485533714E0,1.148512173E1
9.626320729E0,2.211625576E0,5.223340988E0,9.266908646E0
9.646412916E0,2.283489943E0,5.740764141E0,6.885803223E0
9.666505625E0,1.996032476E0,5.970730305E0,5.438933849E0
9.686598333E0,1.445072412E0,6.114459038E0,4.887973785E0
9.706691041E0,5.731182694E-1,6.061758518E0,4.662798882E0
9.726783750E0,-1.934348941E-1,6.061758518E0,4.662798882E0
9.746876458E0,-2.509263754E-1,6.234232903E0,5.510798454E0
9.766968854E0,8.444061875E-2,6.282142639E0,6.569600105E0
9.787061041E0,5.779091716E-1,6.454617023E0,7.417599201E0
9.807153229E0,9.516038299E-1,6.564808846E0,8.337463379E0
9.827245416E0,9.276490808E-1,6.804356575E0,9.036942482E0
9.847337656E0,1.061795831E0,7.398435593E0,9.343564034E0
9.867430364E0,1.243852258E0,8.083541870E0,9.185461998E0
9.887523073E0,1.866676688E0,8.366209030E0,9.506456375E0
9.907615781E0,2.120597363E0,7.762548447E0,1.026821899E1
9.927708489E0,1.813976169E0,7.087023258E0,1.140846634E1
9.947801198E0,1.210315585E0,6.780402184E0,1.294157314E1
9.967893646E0,6.976830959E-1,6.210278034E0,1.197379971E1
9.987985833E0,-4.491522163E-2,6.109668255E0,9.008196831E0
1.000807802E1,2.137964666E-1,6.631882191E0,7.355316639E0
1.002817021E1,9.516038299E-1,6.579181671E0,6.751656055E0
1.004826250E1,1.464236259E0,6.186323166E0,7.475090981E0
1.006835521E1,2.408054829E0,5.721600533E0,8.409327507E0
1.008844792E1,2.906314373E0,5.304787159E0,8.553055763E0
1.010854062E1,2.901523352E0,4.715499401E0,8.097915649E0
1.012863333E1,2.657184601E0,4.202867031E0,7.446344852E0
1.014872604E1,2.192461729E0,3.829172373E0,6.286933422E0
1.016881854E1,1.076168776E0,3.853127241E0,5.074821472E0
1.018891073E1,-1.311524510E-1,3.877082109E0,4.576561928E0
1.020900292E1,-1.721750259E0,4.063929558E0,4.806527615E0
1.022909510E1,-2.315828800E0,4.480742455E0,5.697645664E0
1.024918740E1,-8.689598441E-1,4.950256348E0,8.260807991E0
1.026928010E1,7.887113094E-1,5.079612255E0,1.125515556E1
1.028937281E1,9.659767151E-1,4.979001999E0,1.288887215E1
1.030946552E1,9.180671573E-1,4.816109657E0,1.272597980E1
1.032955823E1,1.057004929E0,5.070030212E0,1.152824020E1
1.034965094E1,1.354044199E0,4.926301479E0,9.583111763E0
1.036974359E1,1.579219222E0,4.940674305E0,8.030841827E0
1.038983578E1,1.660665512E0,4.959838390E0,7.091814041E0
1.040992797E1,1.344462276E0,4.974211216E0,6.516899586E0
1.043002016E1,8.797395229E-1,5.165849686E0,6.028221607E0
1.045011234E1,7.024740577E-1,5.520380497E0,5.419770241E0
1.047020505E1,1.028259158E0,6.306097031E0,5.654527187E0
1.049029776E1,1.277388930E0,6.732492447E0,5.898865700E0
1.051039047E1,1.483400106E0,7.364898682E0,6.157577515E0
1.053048318E1,1.512145877E0,7.963768482E0,5.903656960E0
1.055057588E1,1.440281510E0,8.404536247E0,5.467679977E0
1.057066859E1,3.766889870E-1,8.399745941E0,6.052176476E0
1.059076094E1,-4.281917810E-1,7.810457706E0,8.141034126E0
1.061085312E1,-1.563648582E0,7.484672546E0,9.726840973E0
1.063094531E1,-8.306322098E-1,6.411498547E0,1.052213955E1
1.065103750E1,1.023468256E0,5.970730305E0,1.156656837E1
1.067113010E1,3.303963661E0,4.883183002E0,1.142763042E1
1.069122281E1,4.937680244E0,4.174121380E0,1.155219555E1
1.071131552E1,4.789160252E0,3.489014387E0,1.108747196E1
1.073140823E1,1.928959131E0,2.765579939E0,1.018677235E1
1.075150094E1,-4.970617965E-2,2.171501398E0,9.228581429E0
1.077159365E1,-3.611183763E-1,1.864880085E0,7.958977222E0
1.079168625E1,7.455927134E-1,2.176292181E0,6.828311443E0
1.081177844E1,1.430699587E0,2.842235327E0,6.392334461E0
1.083187062E1,1.200733662E0,3.259048462E0,6.416289330E0
1.085196281E1,1.047423005E0,3.580042601E0,6.607927322E0
1.087205521E1,1.636710763E0,3.848336220E0,6.670209885E0
1.089214792E1,1.818767071E0,4.471160889E0,7.087023258E0
1.091224062E1,1.651083589E0,5.199386120E0,7.705056667E0
1.093233333E1,1.521727800E0,5.462888718E0,7.863158226E0
1.095242604E1,1.833139896E0,5.616199493E0,7.939813614E0
1.097251875E1,2.048732996E0,5.664109230E0,8.064378738E0
1.099261146E1,1.689411283E0,5.731182575E0,8.375790596E0
1.101270391E1,1.545682549E0,5.573081017E0,8.677620888E0
1.103279609E1,1.478609085E0,5.649735928E0,8.850095749E0
1.105288828E1,7.982932329E-1,5.558708191E0,8.874050140E0
1.107298047E1,2.712879479E-1,5.290414333E0,9.142343521E0
1.109307302E1,2.473331541E-1,4.897555828E0,8.845304489E0
1.111316573E1,5.635363460E-1,5.788673878E0,8.759067535E0
1.113325844E1,4.611296207E-2,6.152786732E0,7.911067963E0
1.115335115E1,1.200733662E0,6.468989849E0,8.572219849E0
1.117344385E1,1.612755895E0,6.085713387E0,9.683721542E0
1.119353656E1,1.516936779E0,5.793464661E0,1.064191341E1
1.121362927E1,1.823558092E0,5.510798454E0,1.155698586E1
1.123372177E1,2.336190462E0,5.031702518E0,1.254392338E1
1.125381396E1,3.136280298E0,4.581352711E0,1.282179928E1
1.127390615E1,3.452483416E0,4.619680405E0,1.249601364E1
1.129399833E1,3.821387053E0,4.662798882E0,1.128390121E1
1.131409094E1,3.816596270E0,4.533442974E0,9.827450752E0
1.133418365E1,3.327918530E0,4.284313202E0,8.902795792E0
1.135427635E1,2.149343014E0,4.126211643E0,8.155406952E0
1.137436906E1,1.296552777E0,4.188494205E0,6.828311443E0
1.139446177E1,5.779091716E-1,4.222031116E0,5.232923031E0
1.141455448E1,-4.491522163E-2,4.073511124E0,4.394505501E0
1.143464719E1,-7.204401493E-1,3.551296949E0,4.490324497E0
1.145473974E1,-1.659467816E0,2.962009192E0,5.266459465E0
1.147483005E1,-2.421229839E0,2.708088398E0,6.641464233E0
1.149492313E1,-2.267919302E0,2.851817131E0,8.002096176E0
1.151501729E1,-2.148145437E0,2.938054323E0,8.883631706E0
1.153510948E1,-1.534902930E0,2.952427387E0,9.415428162E0
1.155520167E1,-1.113298655E0,2.933263540E0,9.889733315E0
1.157529385E1,-7.443949580E-1,2.995545864E0,1.060358620E1
1.159538651E1,-5.767114758E-1,2.938054323E0,1.054130363E1
1.161547922E1,2.994348295E-3,3.215929985E0,9.923270226E0
1.163557193E1,7.887113094E-1,3.795635700E0,9.415428162E0
1.165566464E1,1.085750699E0,4.269940376E0,9.080060959E0
1.167575734E1,7.072650194E-1,4.619680405E0,8.955496788E0
1.169585005E1,2.215817571E-2,4.969420433E0,8.845304489E0
1.171594276E1,-3.707002997E-1,5.654527187E0,8.677620888E0
1.173603547E1,3.527342081E-1,6.181532383E0,8.505146980E0
1.175612766E1,1.162405968E0,6.382752419E0,8.442864418E0
1.177621984E1,8.749485612E-1,6.564808846E0,9.257327080E0
1.179631203E1,3.479432464E-1,6.234232903E0,1.079522419E1
1.181640443E1,-2.575139515E-2,6.047385693E0,1.197859001E1
1.183649714E1,3.431523144E-1,6.215069294E0,1.230437565E1
1.185658984E1,6.018639803E-1,5.501216412E0,1.154740429E1
1.187668255E1,3.287794292E-1,4.279522419E0,1.074252319E1
1.189677526E1,1.083954051E-1,3.321331024E0,1.076168728E1
1.191686797E1,-3.898641467E-1,2.396676302E0,1.046943855E1
1.193696068E1,-1.041434288E0,1.965490103E0,9.482501984E0
1.195705338E1,-1.424710870E0,2.003817797E0,8.145824432E0
1.197714588E1,-1.199535847E0,2.372721434E0,7.048695564E0
1.199723807E1,-8.402140737E-1,2.938054323E0,6.286933422E0
1.201733026E1,-2.844630778E-1,3.402777195E0,5.860538483E0
1.203742245E1,5.252086520E-1,3.335703850E0,5.956357479E0
1.205751510E1,6.641464233E-1,3.498596430E0,6.995995045E0
1.207760781E1,1.850507110E-1,3.762099028E0,7.987723351E0
1.209770052E1,-4.665194452E-1,4.092675209E0,8.347044945E0
1.211779323E1,-6.102481484E-1,4.552607059E0,8.615338326E0
1.213788594E1,-3.563274443E-1,5.151476383E0,8.787813187E0
1.215797865E1,3.174009174E-2,5.625781536E0,8.476400375E0
1.217807135E1,2.712879479E-1,6.004266739E0,8.030841827E0
1.219816406E1,3.671070933E-1,6.191114426E0,7.896695137E0
1.221825630E1,1.994235814E-1,6.018640041E0,8.097915649E0
1.223834849E1,-1.934348941E-1,5.870120049E0,8.385373116E0
1.225844068E1,-4.617284834E-1,5.798255920E0,8.792604446E0
1.227853307E1,-7.108582854E-1,5.563498974E0,9.036942482E0
1.229862578E1,-8.545869589E-1,5.620990276E0,9.228581429E0
1.231871849E1,-1.003106594E0,5.520380497E0,9.199835777E0
1.233881120E1,-1.103716731E0,5.443725109E0,9.233371735E0
1.235890391E1,-7.443949580E-1,5.376651764E0,9.578320503E0
1.237899661E1,-6.294119954E-1,5.391024590E0,9.990343094E0
1.239908932E1,-5.431747437E-1,5.482052803E0,1.072336006E1
1.241918203E1,-6.887000799E-2,5.237713814E0,1.114975452E1
1.243927448E1,5.539544225E-1,5.074821472E0,1.106351757E1
1.245936667E1,1.191151738E0,5.213758945E0,1.112100887E1
1.247945885E1,1.454654336E0,5.098775864E0,1.120724678E1
1.249955104E1,1.684620261E0,4.710708618E0,1.094853497E1
1.251964375E1,1.833139896E0,4.442414761E0,1.029696465E1
1.253973646E1,1.746902704E0,4.030392647E0,9.674139977E0
1.255982917E1,1.469027162E0,3.647116184E0,8.936332703E0
1.257992188E1,9.851405621E-1,3.436313868E0,7.891903877E0
1.260001458E1,3.718980551E-1,3.374031544E0,6.775610924E0
1.262010729E1,-4.970617965E-2,3.359658718E0,6.052176476E0
1.264020000E1,-5.815024376E-1,3.378822565E0,6.090504169E0
1.266029266E1,-1.079761982E0,3.584833622E0,6.464199066E0
1.268038484E1,-1.372010350E0,3.833963394E0,6.818729877E0
1.270047703E1,-1.304936886E0,4.222031116E0,6.967249393E0
1.272056922E1,-6.725305915E-1,4.519070148E0,7.072650433E0
1.274066167E1,2.377512455E-1,4.849646091E0,7.221169949E0
1.276075438E1,7.408017516E-1,5.113149166E0,7.345735073E0
1.278084708E1,7.887113094E-1,5.074821472E0,7.130141735E0
1.280093979E1,5.874910951E-1,5.185013294E0,6.866639137E0
1.282103250E1,3.862709105E-1,5.352696896E0,6.732492447E0
1.284112521E1,4.054347575E-1,5.630572319E0,6.900176048E0
1.286121792E1,7.791293859E-1,5.989893913E0,7.350525856E0
1.288131063E1,1.516936779E0,6.339633942E0,8.217689514E0
1.290140307E1,1.895422339E0,6.684582710E0,9.171089172E0
1.292149526E1,1.847512841E0,7.091814041E0,1.014844513E1
1.294158745E1,1.876258612E0,7.110978127E0,1.057483959E1
1.296167964E1,1.737320781E0,6.818729877E0,1.068982315E1
1.298177229E1,1.425908566E0,6.435452938E0,1.114017296E1
1.300186500E1,1.018677235E0,5.937193394E0,1.114975452E1
1.302195771E1,4.245985746E-1,5.568289757E0,1.080001545E1
1.304205042E1,9.881348908E-2,5.084403038E0,1.035445595E1
1.306214312E1,5.569487438E-2,4.547815800E0,1.044548416E1
1.308223583E1,1.179773211E-1,3.570460796E0,1.076647854E1
1.310232854E1,-1.359434128E-1,2.875771999E0,1.099644470E1
1.312242120E1,-4.377737045E-1,2.593105555E0,1.045027542E1
1.314251338E1,-5.862933993E-1,2.521241188E0,8.945914268E0
1.316260557E1,-3.084178567E-1,2.938054323E0,7.316989422E0
1.318269776E1,2.473331541E-1,3.484223604E0,5.865329266E0
1.320279021E1,6.114459038E-1,3.924991608E0,5.074821472E0
1.322288292E1,7.024740577E-1,3.800426722E0,5.285623550E0
1.324297563E1,6.354007125E-1,3.671070814E0,6.583972931E0
1.326306833E1,4.102256894E-1,3.867500067E0,8.203316689E0
1.328316104E1,3.479432464E-1,4.279522419E0,9.544784546E0
1.330325375E1,2.569150627E-1,4.614889622E0,1.008137131E1
1.332334646E1,1.946326345E-1,4.816109657E0,9.549574852E0
1.334343917E1,-1.359434128E-1,5.022120953E0,8.457237244E0
1.336353141E1,-5.144290328E-1,5.165849686E0,7.695474625E0
1.338362359E1,-7.443949580E-1,5.055657387E0,7.853576183E0
1.340371578E1,-7.635588050E-1,4.753827095E0,8.600965500E0
1.342380812E1,-9.408242106E-1,4.428041935E0,9.127970695E0
1.344390083E1,-1.022270441E0,4.471160889E0,9.741213799E0
1.346399354E1,-9.743608832E-1,4.437623978E0,1.018677235E1
1.348408625E1,-9.791518450E-1,4.394505501E0,1.036882877E1
1.350417896E1,-9.024965167E-1,4.408878326E0,1.052693081E1
1.352427167E1,-8.354231715E-1,4.595725536E0,1.069940472E1
1.354436438E1,-5.096380711E-1,4.648426056E0,1.053651237E1
1.356445708E1,-8.324287832E-2,4.710708618E0,1.049339390E1
1.358454938E1,-5.449713767E-2,4.921510696E0,1.052213955E1
1.360464156E1,4.611296207E-2,5.146685600E0,1.057004929E1
1.362473375E1,7.408017516E-1,5.050866604E0,1.040236568E1
1.364482599E1,1.550473452E0,5.046075344E0,1.032571030E1
1.366491870E1,1.967286706E0,5.223340988E0,1.058442211E1
1.368501141E1,2.206834555E0,5.208968163E0,1.066107750E1
1.370510411E1,2.465546370E0,5.098775864E0,9.956806183E0
1.372519682E1,2.685930252E0,5.012538910E0,9.027360916E0
1.374528953E1,2.364936113E0,4.634053230E0,8.088333130E0
1.376538224E1,1.861885667E0,4.245985508E0,7.158887863E0
1.378547495E1,1.114496350E0,3.929782629E0,6.464199066E0
1.380556729E1,3.335703909E-1,3.718980551E0,6.191114426E0
1.382565948E1,-3.371635973E-1,3.718980551E0,6.536063194E0
1.384575167E1,-4.425646663E-1,3.829172373E0,7.024740696E0
1.386584385E1,-6.916944385E-1,4.068720341E0,7.187633514E0
1.388593656E1,-9.024965167E-1,4.231612682E0,7.106186867E0
1.390602927E1,-4.904742241E-1,4.614889622E0,7.269079685E0
1.392612198E1,4.102256894E-1,4.988584042E0,7.273870468E0
1.394621469E1,1.282179832E0,5.194595337E0,7.403226376E0
1.396630740E1,1.603173971E0,5.391024590E0,7.661938190E0
1.398640010E1,1.579219222E0,5.501216412E0,7.676311016E0
1.400649281E1,1.545682549E0,5.635363102E0,7.599655628E0
1.402658510E1,1.473818183E0,5.836583614E0,7.604446411E0
1.404667729E1,1.401953816E0,6.009057999E0,7.867949486E0
1.406676948E1,1.512145877E0,6.229442120E0,8.490774155E0
1.408686172E1,1.401953816E0,6.473780632E0,9.060897827E0
1.410695443E1,1.009095311E0,6.766029358E0,9.300445557E0
1.412704714E1,1.104914427E0,6.928921700E0,9.381891251E0
1.414713984E1,1.435490489E0,6.813938618E0,8.917168617E0
1.416723255E1,1.157614946E0,6.574390888E0,8.644083977E0
1.418732526E1,3.287794292E-1,6.272560596E0,9.501666069E0
1.420741797E1,-8.593779206E-1,6.267769814E0,1.046464825E1
1.422751068E1,-8.785417676E-1,6.641464233E0,1.058921337E1
1.424760292E1,-9.282479435E-2,6.842684269E0,1.013407230E1
1.426769510E1,7.264288664E-1,6.416289330E0,1.017239952E1
1.428778729E1,9.228581190E-1,5.453306675E0,1.090541649E1
1.430787958E1,2.233783752E-1,4.174121380E0,1.122161961E1
1.432797229E1,-9.072874784E-1,3.072201252E0,1.027300930E1
1.434806500E1,-1.424710870E0,2.885353804E0,8.749485016E0
1.436815771E1,-9.839428067E-1,3.057828426E0,6.670209885E0
1.438825042E1,-4.377737045E-1,3.407568216E0,4.265149593E0
1.440834312E1,1.754688025E-1,3.757308006E0,2.861399174E0
1.442843583E1,3.048246503E-1,3.896245956E0,2.799116611E0
1.444852854E1,-3.371635973E-1,3.441104889E0,4.135793686E0
1.446862073E1,-1.031852365E0,3.484223604E0,6.406707287E0
1.448871292E1,-1.070180058E0,3.857918262E0,8.543474197E0
1.450880510E1,-1.886439323E-1,4.317850113E0,9.865777969E0
1.452889745E1,1.013886333E0,5.017329693E0,1.045027542E1
1.454899016E1,2.010405302E0,5.630572319E0,1.022510052E1
1.456908286E1,1.698993206E0,6.066549301E0,9.204626083E0
1.458917557E1,8.174570799E-1,6.152786732E0,7.829621792E0
1.460926828E1,2.137964666E-1,6.114459038E0,7.518209457E0
1.462936099E1,-1.071976647E-1,5.850956440E0,8.035633087E0
1.464945370E1,-3.994460404E-1,5.759928226E0,8.691993713E0
1.466954641E1,-4.425646663E-1,5.817419529E0,9.300445557E0
1.468963859E1,-3.946550786E-1,6.052176476E0,9.736422539E0
1.470973078E1,-4.281917810E-1,6.325261116E0,9.808286667E0
1.472982297E1,-3.515364826E-1,6.464199066E0,1.038320160E1
1.474991531E1,1.515140235E-1,6.205487251E0,1.128390121E1
1.477000802E1,3.383613527E-1,6.076131344E0,1.130306530E1
1.479010073E1,5.970730186E-1,6.435452938E0,1.069461441E1
1.481019344E1,8.366208673E-1,6.512108326E0,9.741213799E0
1.483028615E1,1.310925603E0,6.133622646E0,9.204626083E0
1.485037885E1,1.660665512E0,5.951566219E0,9.190253258E0
1.487047156E1,2.283489943E0,5.908447742E0,9.683721542E0
1.489056427E1,3.006924391E0,5.731182575E0,9.760376930E0
1.491065651E1,3.303963661E0,5.491634369E0,9.060897827E0
1.493074870E1,3.251263142E0,5.410188198E0,7.863158226E0
1.495084089E1,2.887150526E0,5.256877899E0,6.267769814E0
1.497093443E1,2.451173306E0,5.304787159E0,5.031702518E0
1.499102667E1,1.919377208E0,5.247295856E0,4.111838818E0
1.501111885E1,1.148033142E0,5.050866604E0,3.781262875E0
1.503121104E1,2.521241307E-1,4.887973785E0,4.566979885E0
1.505130338E1,-4.856832623E-1,4.782572746E0,5.649735928E0
1.507139609E1,-5.719205141E-1,4.729872227E0,6.675001144E0
1.509148880E1,-4.186098874E-1,4.902346611E0,7.542164326E0
1.511158151E1,-4.186098874E-1,5.093985081E0,8.069169044E0
1.513167422E1,-3.898641467E-1,5.252086639E0,8.232062340E0
1.515176693E1,-1.982258558E-1,5.323951244E0,8.150615692E0
1.517185964E1,4.198076129E-1,5.630572319E0,8.399745941E0
1.519195234E1,1.004304409E0,5.630572319E0,8.303926468E0
1.521204464E1,7.024740577E-1,5.501216412E0,7.647565365E0
1.523213682E1,4.964629412E-1,5.381442547E0,7.087023258E0
1.525222901E1,3.671070933E-1,5.367069721E0,7.614028454E0
1.527232130E1,2.569150627E-1,5.496425629E0,8.557847023E0
1.529241401E1,2.994348295E-3,5.740764141E0,9.113597870E0
1.531250672E1,1.706778407E-1,6.248605728E0,9.429800987E0
1.533259943E1,4.006437957E-1,6.502526283E0,9.530411720E0
1.535269214E1,5.156267285E-1,6.497735500E0,9.305236816E0
1.537278484E1,4.054347575E-1,6.536063194E0,9.132761955E0
1.539287755E1,-3.179997802E-1,6.670209885E0,8.883631706E0
1.541297026E1,3.335703909E-1,6.133622646E0,7.537373066E0
1.543306276E1,-1.175581098E0,6.277351379E0,8.725530624E0
1.545315495E1,-1.103716731E0,5.410188198E0,9.798705101E0
1.547324714E1,-3.132088184E-1,3.987273932E0,1.130306530E1
1.549333932E1,-4.904742241E-1,3.182393312E0,1.244810390E1
1.551343198E1,-3.946550786E-1,3.033873558E0,1.214627361E1
1.553352469E1,-4.713104069E-1,3.057828426E0,1.039278412E1
1.555361740E1,-2.940450013E-1,2.918890715E0,8.433281898E0
1.557371010E1,-3.563274443E-1,2.885353804E0,7.230751991E0
1.559380281E1,-2.221806347E-1,2.482913494E0,6.871430397E0
1.561389552E1,-3.563274443E-1,2.066100359E0,6.574390888E0
1.563398823E1,7.785305381E-3,2.276902437E0,6.871430397E0
1.565408094E1,6.210278273E-1,2.779952765E0,7.877531052E0
1.567417313E1,8.893213868E-1,3.627952337E0,8.907587051E0
1.569426531E1,2.664969862E-1,3.465059757E0,8.989033699E0
1.571435750E1,3.144065440E-1,3.800426722E0,8.845304489E0
1.573444995E1,2.293071747E0,3.048246384E0,6.938503742E0
1.575454266E1,1.315716624E0,4.428041935E0,8.409327507E0
1.577463536E1,5.922820568E-1,3.939364433E0,8.102705956E0
1.579472807E1,1.555264473E0,3.666279793E0,8.361417770E0
1.581482078E1,1.037841082E0,3.191975117E0,9.343564034E0
1.583491349E1,1.425908566E0,3.215929985E0,1.031133747E1
1.585500620E1,3.048246503E-1,2.564359665E0,1.053172112E1
1.587509891E1,2.154134035E0,3.364449501E0,1.045027542E1
1.589519156E1,3.313545704E0,4.437623978E0,1.070898724E1
1.591528375E1,3.361455202E0,4.092675209E0,1.091020679E1
1.593537594E1,3.212935686E0,3.402777195E0,1.058921337E1
1.595546813E1,2.436800480E0,2.856608152E0,1.008616257E1
1.597556068E1,1.775648475E0,2.593105555E0,1.160968685E1
1.599565338E1,8.270389438E-1,2.320020914E0,1.188756180E1
1.601574609E1,6.689373851E-1,2.549986839E0,1.213190079E1
1.603583880E1,1.579219222E0,2.075682163E0,1.308530140E1
1.605593151E1,1.737320781E0,1.797806621E0,1.414410305E1
1.607602422E1,1.646292686E0,1.606168389E0,1.431178665E1
1.609611693E1,1.598383069E0,1.376202464E0,1.339192295E1
1.611620964E1,1.363626122E0,1.026462555E0,1.160489559E1
1.613630229E1,1.085750699E0,8.300333023E-1,9.482501984E0
1.615639448E1,6.497735381E-1,1.021671653E0,7.518209457E0
1.617648667E1,-5.928809568E-2,1.587004542E0,6.267769814E0
1.619657885E1,-5.431747437E-1,2.233783722E0,5.721600533E0
1.621667141E1,-7.012763619E-1,2.693715572E0,5.601826668E0
1.623676411E1,-9.072874784E-1,2.990754843E0,5.601826668E0
1.625685682E1,-1.309727907E0,3.225511789E0,6.104876995E0
1.627694953E1,-1.515739083E0,3.383613348E0,6.885803223E0
1.629704224E1,-1.410338044E0,3.618370295E0,7.446344852E0
1.631713495E1,-7.300220728E-1,3.905827761E0,7.997304916E0
1.633722766E1,2.617060244E-1,4.327432156E0,8.581801414E0
1.635732036E1,1.449863434E0,4.552607059E0,9.089643478E0
1.637741307E1,1.761275649E0,4.614889622E0,9.075270653E0
1.639750547E1,1.550473452E0,4.758618355E0,9.127970695E0
1.641759766E1,1.972077727E0,5.194595337E0,9.353145599E0
1.643768984E1,2.245162249E0,5.553916931E0,9.357936859E0
1.645778219E1,2.111015558E0,5.965939522E0,9.616648674E0
1.647787490E1,1.790021300E0,6.119249821E0,9.693304062E0
1.649796760E1,1.296552777E0,6.100086212E0,9.602275848E0
1.651806031E1,9.947224855E-1,5.941984653E0,9.530411720E0
1.653815302E1,8.222479820E-1,5.649735928E0,9.678931236E0
1.655824573E1,3.383613527E-1,5.323951244E0,9.817869186E0
1.657833844E1,-2.605082989E-1,5.050866604E0,1.007658005E1
1.659843115E1,-9.024965167E-1,4.653216839E0,1.036882877E1
1.661852385E1,-1.798405528E0,4.054347515E0,1.063712215E1
1.663861656E1,-2.747014999E0,3.220721006E0,1.135576630E1
1.665870891E1,-3.374630451E0,2.061309338E0,1.233791256E1
1.667880109E1,-4.074110031E0,1.218100786E0,1.272597980E1
1.669889328E1,-4.011827469E0,6.863046288E-1,1.184923458E1
1.671898568E1,-3.436912775E0,8.923157454E-1,1.019156361E1
1.673907839E1,-1.836733222E0,1.189355135E0,8.773440361E0
1.675917109E1,-7.587678432E-1,1.481603503E0,7.609237671E0
1.677926380E1,-7.587678432E-1,1.634914160E0,6.809147835E0
1.679935651E1,-1.376801252E0,1.730733275E0,6.569600105E0
1.681944922E1,-1.922970414E0,2.056518316E0,6.560018063E0
1.683954193E1,-1.879851818E0,2.655387878E0,6.603136539E0
1.685963464E1,-1.415128946E0,3.402777195E0,6.837893486E0
1.687972734E1,-5.288019180E-1,3.924991608E0,6.914548874E0
1.689982005E1,3.527342081E-1,4.523861408E0,6.708537579E0
1.691991271E1,7.024740577E-1,5.036493778E0,6.502526283E0
1.694000490E1,6.258187890E-1,5.520380497E0,6.636673450E0
1.696009708E1,-1.616948098E-2,5.462888718E0,6.904966831E0
1.698018927E1,-9.887337685E-1,5.242504597E0,7.350525856E0
1.700028193E1,-1.544484735E0,5.084403038E0,8.164988518E0
1.702037464E1,-1.798405528E0,4.988584042E0,9.338772774E0
1.704046734E1,-1.697795391E0,4.993374825E0,1.049339390E1
1.706056005E1,-1.352846503E0,4.907137871E0,1.156656837E1
1.708065276E1,-1.165999174E0,4.739454269E0,1.236186695E1
1.710074547E1,-1.003106594E0,4.610098362E0,1.263495159E1
1.712083818E1,-8.785417676E-1,4.528652191E0,1.250080490E1
1.714093088E1,-1.027061462E0,4.605307579E0,1.245768642E1
1.716102359E1,-1.223490715E0,4.873600960E0,1.233791256E1
1.718111630E1,-1.180372000E0,4.835273266E0,1.145637608E1
1.720120896E1,-8.258412480E-1,4.950256348E0,1.090541649E1
1.722130115E1,2.215817571E-2,4.816109657E0,1.063233185E1
1.724139333E1,8.270389438E-1,4.514279366E0,1.018198109E1
1.726148552E1,1.066586852E0,4.394505501E0,9.669348717E0
1.728157818E1,1.128869295E0,4.289104462E0,9.429800987E0
1.730167088E1,1.138451219E0,4.001646996E0,9.923270226E0
1.732176359E1,1.061795831E0,3.177602291E0,9.860987663E0
1.734185630E1,6.018639803E-1,2.559568882E0,8.883631706E0
1.736194901E1,4.437623918E-1,2.535614014E0,7.532582283E0
1.738204172E1,6.689373851E-1,2.918890715E0,6.104876995E0
1.740213443E1,9.132761955E-1,3.259048462E0,5.060448647E0
1.742222714E1,2.521241307E-1,3.378822565E0,4.950256348E0
1.744231984E1,-7.923045158E-1,3.445895910E0,5.846165180E0
1.746241255E1,-1.419919848E0,3.656697989E0,7.039113522E0
1.748250526E1,-1.544484735E0,4.006437778E0,8.107497215E0
1.750259786E1,-9.983156919E-1,4.394505501E0,8.821350098E0
1.752269005E1,2.377512455E-1,4.768199921E0,9.051315308E0
1.754278224E1,1.732529879E0,5.194595337E0,9.161507607E0
1.756287448E1,2.566156387E0,5.525171280E0,8.989033699E0
1.758296719E1,2.508664846E0,5.529962063E0,8.141034126E0
1.760305990E1,2.010405302E0,5.443725109E0,7.575700760E0
1.762315260E1,1.564846396E0,5.271250725E0,7.350525856E0
1.764324531E1,1.114496350E0,5.256877899E0,7.192424297E0
1.766333802E1,1.205524564E0,5.414979458E0,7.499045372E0
1.768343073E1,1.564846396E0,5.673690796E0,8.466818810E0
1.770352344E1,1.684620261E0,5.879702091E0,8.696784973E0
1.772361615E1,1.737320781E0,6.056967258E0,8.960287094E0
1.774370885E1,1.718156934E0,5.994685173E0,9.343564034E0
1.776380156E1,1.334880471E0,5.932402611E0,9.425010681E0
1.778389427E1,1.143242121E0,6.138413906E0,9.693304062E0
1.780398698E1,7.408017516E-1,6.516899586E0,9.966388702E0
1.782407948E1,8.749485612E-1,6.928921700E0,1.011969948E1
1.784417167E1,1.210315585E0,6.919339657E0,1.003825283E1
1.786426385E1,9.947224855E-1,6.239023685E0,9.875360489E0
1.788435625E1,3.239884675E-1,4.859228134E0,1.055567646E1
1.790444896E1,-8.785417676E-1,3.436313868E0,1.167675972E1
1.792454167E1,-2.483512402E0,2.176292181E0,1.142283916E1
1.794463438E1,-3.307557106E0,1.668450832E0,9.731631279E0
1.796472818E1,-2.655986786E0,1.994235873E0,7.887113094E0
1.798481880E1,-1.041434288E0,2.545196056E0,6.809147835E0
1.800491276E1,-7.366096228E-2,2.770370960E0,6.349215984E0
1.802500547E1,-1.742710620E-1,2.746416092E0,6.713328838E0
1.804509766E1,-2.748811543E-1,3.009918690E0,7.479881763E0
1.806518984E1,5.569487438E-2,3.522551298E0,8.193734169E0
1.808528240E1,8.509937525E-1,4.020810604E0,8.581801414E0
1.810537510E1,1.818767071E0,4.437623978E0,8.198525429E0
1.812546781E1,2.412845850E0,4.940674305E0,7.422390461E0
1.814556052E1,2.139761209E0,5.276041508E0,6.564808846E0
1.816565323E1,1.291761756E0,5.506007195E0,6.133622646E0
1.818574594E1,7.408017516E-1,5.601826668E0,6.349215984E0
1.820583865E1,5.970730186E-1,5.779091835E0,7.235542774E0
1.822593135E1,7.408017516E-1,5.913239002E0,7.791294098E0
1.824602406E1,6.354007125E-1,6.133622646E0,8.241643906E0
1.826611677E1,7.168469429E-1,6.296515465E0,8.984242439E0
1.828620948E1,4.533443153E-1,6.282142639E0,9.851405144E0
1.830630219E1,1.658868939E-1,6.061758518E0,1.055567646E1
1.832639490E1,1.802597642E-1,5.654527187E0,1.091020679E1
1.834648760E1,5.090392008E-2,4.998166084E0,1.089583397E1
1.836658010E1,-1.263614893E-1,4.428041935E0,1.103477192E1
1.838667229E1,-3.707002997E-1,4.006437778E0,1.081438828E1
1.840676448E1,-7.348130345E-1,3.570460796E0,1.042152977E1
1.842685693E1,-6.916944385E-1,3.393195391E0,1.111142731E1
1.844694964E1,-2.575139515E-2,3.005127907E0,1.201212692E1
1.846704234E1,1.023468256E0,2.549986839E0,1.212231922E1
1.848713505E1,2.307444811E0,2.305648088E0,1.160968685E1
1.850722776E1,2.590111256E0,2.324811935E0,1.139409351E1
1.852732047E1,2.340981483E0,2.396676302E0,1.161926842E1
1.854741318E1,2.230789423E0,2.439794779E0,1.112100887E1
1.856750589E1,2.087060690E0,2.439794779E0,9.257327080E0
1.858759859E1,2.000823498E0,2.722461462E0,6.833102703E0
1.860769130E1,1.833139896E0,3.048246384E0,5.208968163E0
1.862778401E1,1.023468256E0,3.158438444E0,4.753827095E0
1.864787672E1,7.006774843E-2,2.875771999E0,5.256877899E0
1.866796943E1,-7.252311110E-1,2.660178900E0,6.497735500E0
1.868806214E1,-1.357637405E0,2.990754843E0,7.987723351E0
1.870815484E1,-1.151626348E0,3.134483576E0,9.209417343E0
1.872824755E1,-8.497959971E-1,3.278212309E0,9.956806183E0
1.874833984E1,-5.048471093E-1,3.441104889E0,1.034487438E1
1.876843203E1,1.563049704E-1,3.450686932E0,1.072336006E1
1.878852422E1,7.312198281E-1,3.469850779E0,1.037362003E1
1.880861688E1,7.647565007E-1,3.843545437E0,9.832242012E0
1.882870958E1,8.845304251E-1,4.049556255E0,9.276490211E0
1.884880229E1,8.749485612E-1,4.370550632E0,8.490774155E0
1.886889500E1,9.659767151E-1,4.811318874E0,7.987723351E0
1.888898771E1,1.315716624E0,5.319159985E0,8.088333130E0
1.890908042E1,1.694202185E0,5.716809750E0,8.284762383E0
1.892917313E1,2.163716078E0,5.994685173E0,8.438073158E0
1.894926583E1,2.350563288E0,6.037803650E0,8.735112190E0
1.896935854E1,2.134970188E0,5.544334888E0,9.319609642E0
1.898945125E1,1.516936779E0,5.074821472E0,1.001908875E1
1.900954396E1,8.557847142E-1,5.046075344E0,1.038799286E1
1.902963667E1,6.018639803E-1,5.414979458E0,1.046943855E1
1.904972938E1,1.004304409E0,5.577871799E0,1.057004929E1
1.906982208E1,1.703784108E0,4.787364006E0,1.098686218E1
1.908991479E1,1.334880471E0,3.599206448E0,1.183965302E1
1.911000750E1,-1.119886190E-1,2.430212975E0,1.275951672E1
1.913010021E1,-1.822360277E0,1.716360331E0,1.288887215E1
1.915019292E1,-2.167309284E0,1.428902984E0,1.130785656E1
1.917028562E1,-1.376801252E0,1.836134315E0,8.888422966E0
1.919037833E1,6.527678668E-2,2.578732729E0,6.651046276E0
1.921047094E1,1.263016105E0,3.105737925E0,4.998166084E0
1.923056312E1,1.397162914E0,2.966800213E0,4.332222939E0
1.925065531E1,8.701575994E-1,2.684133768E0,5.156267643E0
1.927074776E1,-6.887000799E-2,3.033873558E0,6.976831436E0
1.929084047E1,-5.449713767E-2,3.498596430E0,9.032152176E0
1.931093318E1,4.581352770E-1,3.968110323E0,1.042152977E1
1.933102589E1,1.186360717E0,4.016019821E0,1.019635487E1
1.935111859E1,1.459445357E0,4.303477287E0,8.989033699E0
1.937121130E1,1.411535740E0,4.662798882E0,8.083541870E0
1.939130401E1,1.114496350E0,4.830482483E0,7.767339230E0
1.941139672E1,7.839203477E-1,4.648426056E0,7.705056667E0
1.943148943E1,5.491634607E-1,4.816109657E0,7.752966404E0
1.945158214E1,3.191975057E-1,4.983793259E0,7.958977222E0
1.947167484E1,7.006774843E-2,4.878392220E0,8.490774155E0
1.949176755E1,-5.449713767E-2,4.643635273E0,9.147134781E0
1.951186026E1,-1.263614893E-1,4.667590141E0,9.707676888E0
1.953195297E1,1.610959321E-1,4.317850113E0,1.032091904E1
1.955204568E1,1.850507110E-1,3.843545437E0,1.095811653E1
1.957213839E1,-5.928809568E-2,3.594415665E0,1.147554016E1
1.959223109E1,-4.473556280E-1,3.642325163E0,1.123599243E1
1.961232380E1,-9.264513254E-1,3.881872892E0,1.083834267E1
1.963241651E1,-7.635588050E-1,4.375341415E0,1.087666988E1
1.965250922E1,5.569487438E-2,4.384923458E0,1.103956318E1
1.967260193E1,1.009095311E0,3.776471853E0,1.128869247E1
1.969269464E1,6.354007125E-1,3.172811270E0,1.148991299E1
1.971278734E1,-4.329827428E-1,2.952427387E0,1.190672588E1
1.973288005E1,-4.856832623E-1,2.746416092E0,1.233791256E1
1.975297276E1,6.048583239E-2,2.305648088E0,1.136055660E1
1.977306547E1,3.623161316E-1,2.315229893E0,9.501666069E0
1.979315818E1,5.635363460E-1,2.578732729E0,7.982932091E0
1.981325089E1,2.042145431E-1,2.880563021E0,6.377961636E0
1.983334359E1,-4.904742241E-1,3.124901772E0,4.955047131E0
1.985343630E1,-1.448665619E0,3.594415665E0,4.145375729E0
1.987352901E1,-2.411648035E0,4.178912163E0,4.447206020E0
1.989362172E1,-3.120709658E0,4.686753750E0,5.702436447E0
1.991371443E1,-3.254856586E0,4.787364006E0,6.847475529E0
1.993380714E1,-2.809297562E0,4.753827095E0,7.982932091E0
1.995389984E1,-1.803196430E0,4.595725536E0,9.496874809E0
1.997399255E1,-6.916944385E-1,4.375341415E0,1.091020679E1
1.999408526E1,-3.323726356E-1,3.920200586E0,1.113538170E1
2.001417797E1,-5.383837819E-1,3.704607487E0,1.053172112E1
2.003427068E1,-5.958752632E-1,3.814799547E0,9.884942055E0
2.005436339E1,-4.234008193E-1,3.944155455E0,9.151926041E0
2.007445609E1,-1.790620238E-1,4.135793686E0,8.739903450E0
2.009454880E1,3.000336885E-1,4.533442974E0,8.658456802E0
2.011464151E1,6.785193086E-1,4.902346611E0,8.428491592E0
2.013473422E1,1.004304409E0,5.333532810E0,8.026050568E0
2.015482693E1,1.425908566E0,5.731182575E0,7.867949486E0
2.017491964E1,1.459445357E0,5.927611828E0,7.896695137E0
2.019501234E1,1.052213907E0,5.712018490E0,8.184152603E0
2.021510505E1,5.012539029E-1,5.520380497E0,8.644083977E0
2.023519776E1,2.808698714E-1,5.563498974E0,9.060897827E0
2.025529047E1,3.239884675E-1,5.697645664E0,9.372309685E0
2.027538318E1,4.485533535E-1,5.434143066E0,9.894524574E0
2.029547589E1,1.515140235E-1,4.432833195E0,1.047422981E1
2.031556859E1,-1.204326868E0,3.378822565E0,1.139409351E1
2.033566130E1,-2.536212921E0,2.458958626E0,1.269723415E1
2.035575401E1,-2.986562967E0,1.845716238E0,1.297990036E1
2.037584672E1,-2.066699028E0,1.797806621E0,1.152824020E1
2.039593943E1,-7.204401493E-1,2.209828854E0,9.161507607E0
2.041603214E1,3.096156120E-1,2.760788918E0,7.249915600E0
2.043612484E1,8.318299055E-1,2.909308672E0,6.310888290E0
2.045621755E1,7.264288664E-1,2.492495537E0,6.694164753E0
2.047631026E1,2.569150627E-1,2.324811935E0,8.002096176E0
2.049640297E1,-2.030168027E-1,2.732043266E0,9.065688133E0
2.051649568E1,-3.084178567E-1,3.187184095E0,9.420219421E0
2.053658838E1,-1.838529855E-1,3.556087971E0,8.941123962E0
2.055668109E1,5.569487438E-2,3.977692127E0,7.724220753E0
2.057677380E1,1.706778407E-1,4.681962967E0,6.387543678E0
2.059686651E1,1.515140235E-1,5.376651764E0,5.625781536E0
2.061695922E1,2.664969862E-1,5.673690796E0,5.573081017E0
2.063705193E1,1.083954051E-1,5.635363102E0,5.726391315E0
2.065714464E1,-6.677396297E-1,5.640154362E0,6.310888290E0
2.067723734E1,-1.233072639E0,5.371860504E0,7.757757187E0
2.069733005E1,-1.649885893E0,4.988584042E0,9.233371735E0
2.071742276E1,-2.128981590E0,4.499906540E0,1.024905491E1
2.073751547E1,-2.550585747E0,4.006437778E0,1.101560783E1
2.075760818E1,-2.885952711E0,3.642325163E0,1.147074890E1
2.077770088E1,-3.168619156E0,3.369240522E0,1.140367603E1
2.079779359E1,-3.595014334E0,3.278212309E0,1.121682835E1
2.081788630E1,-3.523149967E0,3.139274597E0,1.177257919E1
2.083797901E1,-2.938653231E0,3.244675636E0,1.335359478E1
2.085807172E1,-1.678631544E0,3.163229465E0,1.474297237E1
2.087816443E1,-2.413444668E-1,2.851817131E0,1.552868938E1
2.089825714E1,1.387580991E0,2.549986839E0,1.587363815E1
2.091834984E1,1.914586186E0,2.324811935E0,1.529393291E1
2.093844255E1,2.106224537E0,1.797806621E0,1.340629578E1
2.095853526E1,2.005614519E0,1.687614679E0,1.135097504E1
2.097862797E1,2.494292021E0,1.687614679E0,8.730321884E0
2.099872068E1,3.078788757E0,2.233783722E0,5.975521088E0
2.101881338E1,3.026088238E0,3.024291754E0,3.584833622E0
2.103890609E1,2.139761209E0,3.786053896E0,2.411049128E0
2.105899880E1,9.947224855E-1,4.303477287E0,2.075682163E0
2.107909151E1,-2.575139515E-2,4.423251152E0,2.813489437E0
2.109918438E1,-3.754912615E-1,4.298686028E0,4.739454269E0
2.111927760E1,-1.694801003E-1,4.413669109E0,7.043904781E0
2.113937083E1,4.485533535E-1,4.605307579E0,9.003406525E0
2.115946375E1,9.036942720E-1,4.686753750E0,9.717258453E0
2.117955646E1,8.701575994E-1,5.108357906E0,9.851405144E0
2.119964917E1,1.248643160E0,5.458097935E0,9.899314880E0
2.121974188E1,1.239061236E0,5.491634369E0,9.314818382E0
2.123983458E1,8.078751564E-1,5.697645664E0,8.289553642E0
2.125992729E1,7.264288664E-1,5.836583614E0,7.872740269E0
2.128002000E1,8.749485612E-1,6.061758518E0,8.251225471E0
2.130011271E1,8.030841947E-1,6.239023685E0,8.830931664E0
2.132020542E1,4.437623918E-1,6.579181671E0,9.089643478E0
2.134029812E1,6.737283468E-1,6.627091408E0,8.960287094E0
2.136039083E1,9.036942720E-1,6.315679073E0,8.323090553E0
2.138048354E1,8.366208673E-1,5.884492874E0,8.318299294E0
2.140057625E1,2.215817571E-2,5.688063622E0,8.706366539E0
2.142066896E1,-1.065389037E0,5.625781536E0,9.415428162E0
2.144076167E1,-1.439083695E0,5.716809750E0,1.008616257E1
2.146085438E1,-1.118089557E0,5.347905636E0,1.005262566E1
2.148094786E1,-8.593779206E-1,4.442414761E0,1.005741692E1
2.150104057E1,-9.504061341E-1,3.469850779E0,1.083834267E1
2.152113328E1,-1.726541162E0,2.641015053E0,1.122161961E1
2.154122599E1,-2.378111362E0,2.104427814E0,1.044069290E1
2.156131870E1,-2.018789530E0,2.310439110E0,8.821350098E0
2.158141141E1,-1.137253404E0,2.631433249E0,7.058277607E0
2.160150411E1,-9.120784402E-1,2.981173038E0,5.668900013E0
2.162159682E1,-1.084552884E0,3.019500732E0,5.026911736E0
2.164168953E1,-1.194744945E0,3.110528946E0,5.927611828E0
2.166178224E1,-7.348130345E-1,3.503387451E0,7.958977222E0
2.168187495E1,-5.449713767E-2,3.958528280E0,9.568738937E0
2.170196766E1,4.533443153E-1,4.384923458E0,1.013407230E1
2.172206036E1,8.701575994E-1,4.705917835E0,9.444173813E0
2.174215307E1,1.018677235E0,4.887973785E0,8.337463379E0
2.176224578E1,5.587453842E-1,5.084403038E0,7.355316639E0
2.178233849E1,-1.215705350E-1,5.132312775E0,6.660628319E0
2.180243120E1,-5.288019180E-1,5.007748127E0,6.377961636E0
2.182252391E1,-8.833327293E-1,4.840064526E0,6.583972931E0
2.184261661E1,-1.496575236E0,4.835273266E0,7.340943813E0
2.186270932E1,-1.937343240E0,4.749036312E0,8.356626511E0
2.188280229E1,-2.100235701E0,4.672380924E0,9.041733742E0
2.190289552E1,-2.181682110E0,4.739454269E0,1.032571030E1
2.192298875E1,-2.210427761E0,4.648426056E0,1.179174328E1
2.194308161E1,-2.478721380E0,4.571770668E0,1.203129101E1
2.196317432E1,-2.641613960E0,4.581352711E0,1.118808270E1
2.198326703E1,-2.723060131E0,4.480742455E0,1.056046677E1
2.200335974E1,-2.871579885E0,4.313059330E0,1.087666988E1
2.202345245E1,-2.564958572E0,3.953737259E0,1.162885094E1
2.204354516E1,-1.760077834E0,3.369240522E0,1.244331360E1
2.206363786E1,-7.348130345E-1,3.091365099E0,1.313800240E1
2.208373057E1,4.389714301E-1,2.981173038E0,1.284096241E1
2.210382328E1,1.119287372E0,2.914099693E0,1.160968685E1
2.212391599E1,1.459445357E0,2.770370960E0,1.063233185E1
2.214400870E1,1.986450553E0,2.679342747E0,1.039757442E1
2.216410141E1,2.340981483E0,2.487704515E0,9.525620461E0
2.218419411E1,2.542201519E0,2.664969921E0,7.690683842E0
2.220428682E1,2.800913334E0,3.196766138E0,5.587453842E0
2.222437953E1,2.532619715E0,3.915409565E0,4.293895245E0
2.224447224E1,1.986450553E0,4.581352711E0,4.107048035E0
2.226456495E1,1.229479313E0,5.022120953E0,4.471160889E0
2.228465807E1,2.856608033E-1,5.419770241E0,5.046075344E0
2.230475130E1,-2.413444668E-1,6.009057999E0,6.085713387E0
2.232484453E1,-6.407905370E-2,6.186323166E0,7.460718155E0
2.234493729E1,8.923157305E-2,6.018640041E0,8.610548019E0
2.236503000E1,4.868810177E-1,5.874911308E0,9.669348717E0
2.238512271E1,1.143242121E0,5.668900013E0,1.084313393E1
2.240521542E1,1.325298548E0,5.290414333E0,1.111142731E1
2.242530812E1,1.057004929E0,5.026911736E0,1.007178974E1
2.244540083E1,8.030841947E-1,5.050866604E0,8.730321884E0
2.246549354E1,7.120559812E-1,5.089194298E0,7.791294098E0
2.248558625E1,8.222479820E-1,5.295205116E0,7.374480724E0
2.250567896E1,9.755586386E-1,5.558708191E0,7.408017159E0
2.252577167E1,9.563947916E-1,6.124041080E0,7.652356148E0
2.254586438E1,1.042631984E0,6.555226803E0,7.930231571E0
2.256595708E1,1.320507526E0,6.569600105E0,8.121870041E0
2.258604979E1,1.531309605E0,6.143204689E0,8.188943863E0
2.260614250E1,1.157614946E0,6.176741600E0,8.548265457E0
2.262623521E1,6.210278273E-1,6.325261116E0,9.621439934E0
2.264632838E1,2.712879479E-1,6.401916504E0,1.092457962E1
2.266642161E1,5.299996138E-1,6.171950340E0,1.153303146E1
2.268651484E1,5.252086520E-1,5.352696896E0,1.181090736E1
2.270660755E1,5.090392008E-2,4.442414761E0,1.229958439E1
2.272670026E1,-8.545869589E-1,3.618370295E0,1.194026279E1
2.274679297E1,-1.688213468E0,3.043455601E0,1.018198109E1
2.276688568E1,-1.573230505E0,2.995545864E0,8.179361343E0
2.278697838E1,-9.695699215E-1,3.153647423E0,6.382752419E0
2.280707109E1,-2.700901926E-1,3.201557159E0,5.573081017E0
2.282716380E1,3.174009174E-2,2.966800213E0,5.793464661E0
2.284725651E1,1.563049704E-1,2.866190195E0,6.852266312E0
2.286734922E1,3.671070933E-1,3.211138964E0,8.409327507E0
2.288744193E1,1.013886333E0,3.805217743E0,9.554366112E0
2.290753464E1,1.881049514E0,4.394505501E0,9.425010681E0
2.292762734E1,2.604484081E0,5.122730732E0,8.543474197E0
2.294772005E1,3.030879259E0,5.779091835E0,7.479881763E0
2.296781302E1,2.982969761E0,6.330051899E0,6.401916504E0
2.298790625E1,2.820077181E0,6.516899586E0,5.716809750E0
2.300799948E1,2.475128174E0,6.310888290E0,5.601826668E0
2.302809245E1,1.622337818E0,5.865329266E0,5.803046703E0
2.304818516E1,8.462027907E-1,5.458097935E0,6.210278034E0
2.306827786E1,4.629262388E-1,5.319159985E0,7.431972027E0
2.308837057E1,4.437623918E-1,5.036493778E0,8.965078354E0
2.310846328E1,2.329602838E-1,4.820900440E0,9.913687706E0
2.312855599E1,6.258187890E-1,4.701126575E0,1.098686218E1
2.314864870E1,9.803496003E-1,4.413669109E0,1.206003666E1
2.316874141E1,3.766889870E-1,4.102256775E0,1.244331360E1
2.318883411E1,-4.761013687E-1,4.025601864E0,1.215585613E1
2.320892682E1,-1.017479539E0,3.996855974E0,1.152824020E1
2.322901953E1,-9.551970959E-1,4.231612682E0,1.152824020E1
2.324911224E1,-9.282479435E-2,4.499906540E0,1.132222939E1
2.326920495E1,6.785193086E-1,4.571770668E0,1.072336006E1
2.328929792E1,1.100123525E0,4.528652191E0,1.049339390E1
2.330939115E1,1.330089450E0,4.413669109E0,1.074252319E1
2.332948438E1,1.071377754E0,4.169330597E0,1.082876110E1
2.334957740E1,7.264288664E-1,3.762099028E0,9.942433357E0
2.336967010E1,5.395815372E-1,3.512969255E0,8.859677315E0
2.338976281E1,6.210278273E-1,3.393195391E0,7.748175144E0
2.340985552E1,5.635363460E-1,3.580042601E0,6.085713387E0
2.342994823E1,1.467230618E-1,4.016019821E0,4.571770668E0
2.345004094E1,-2.173896730E-1,4.576561928E0,3.776471853E0
2.347013365E1,-7.060673237E-1,5.228131771E0,4.715499401E0
2.349022635E1,-9.264513254E-1,5.309578419E0,6.780402184E0
2.351031906E1,-1.367219329E0,5.410188198E0,8.351836205E0
2.353041177E1,-1.276191235E0,5.620990276E0,9.966388702E0
2.355050448E1,-9.072874784E-1,5.630572319E0,1.130306530E1
2.357059719E1,-7.012763619E-1,5.520380497E0,1.159052277E1
2.359068990E1,-7.845192403E-2,5.386233330E0,1.144200325E1
2.361078312E1,7.982932329E-1,5.098775864E0,1.045985699E1
2.363087635E1,8.318299055E-1,5.022120953E0,9.012988091E0
2.365096958E1,8.222479820E-1,4.859228134E0,8.040423393E0
2.367106234E1,4.198076129E-1,4.772991180E0,7.043904781E0
2.369115505E1,2.808698714E-1,4.979001999E0,5.855747223E0
2.371124776E1,5.060448647E-1,5.458097935E0,5.093985081E0
2.373134047E1,4.341804981E-1,6.181532383E0,5.036493778E0
2.375143318E1,4.485533535E-1,6.895384789E0,5.338324070E0
2.377152589E1,3.958528340E-1,7.197215080E0,5.319159985E0
2.379161859E1,-2.605082989E-1,7.087023258E0,5.371860504E0
2.381171130E1,-5.910843015E-1,6.766029358E0,7.125350952E0
2.383180401E1,-7.108582854E-1,6.440244198E0,1.022030926E1
2.385189672E1,-7.300220728E-1,6.085713387E0,1.395725536E1
2.387198943E1,-7.204401493E-1,5.587453842E0,1.593592072E1
2.389208224E1,-1.838529855E-1,5.185013294E0,1.503522110E1
2.391217547E1,7.599655390E-1,5.448515892E0,1.277388954E1
2.393226870E1,1.689411283E0,4.796945572E0,9.995134354E0
2.395236188E1,1.416326642E0,3.881872892E0,7.594864845E0
2.397245458E1,3.479432464E-1,2.957218170E0,6.138413906E0
2.399254729E1,-7.970954776E-1,2.808698654E0,5.539544106E0
2.401264000E1,-1.027061462E0,3.369240522E0,5.290414333E0
2.403273271E1,-1.311524510E-1,4.691544533E0,4.940674305E0
2.405282542E1,1.195942640E0,6.248605728E0,4.772991180E0
2.407291812E1,2.393682003E0,7.297825336E0,4.677171707E0
2.409301083E1,2.882359505E0,7.513418674E0,4.308268070E0
2.411310354E1,2.091851711E0,7.139723778E0,4.595725536E0
2.413319625E1,3.623161316E-1,6.440244198E0,5.616199493E0
2.415328896E1,-1.146835327E0,5.807837963E0,7.101396084E0
2.417338172E1,-2.248755455E0,5.482052803E0,8.543474197E0
2.419347495E1,-2.584122419E0,5.391024590E0,9.190253258E0
2.421356818E1,-2.497885227E0,5.683272839E0,9.032152176E0
2.423366141E1,-2.018789530E0,5.985103130E0,8.016469002E0
2.425375411E1,-1.899015665E0,6.272560596E0,6.684582710E0
2.427384682E1,-2.181682110E0,6.296515465E0,5.850956440E0
2.429393953E1,-2.809297562E0,6.147995472E0,6.157577515E0
2.431403224E1,-3.091964006E0,5.855747223E0,7.182842255E0
2.433412495E1,-3.235692739E0,5.352696896E0,8.256016731E0
2.435421766E1,-3.087172985E0,4.681962967E0,9.568738937E0
2.437431036E1,-2.804506540E0,3.939364433E0,1.077606010E1
2.439440307E1,-2.315828800E0,3.584833622E0,1.151865864E1
2.441449578E1,-1.822360277E0,3.359658718E0,1.196421719E1
2.443458849E1,-1.362428427E0,3.120110750E0,1.178216076E1
2.445468141E1,-1.118089557E0,3.311748981E0,1.125994682E1
2.447477469E1,-9.456151724E-1,3.551296949E0,1.042632008E1
2.449486698E1,-8.977055550E-1,3.790844679E0,9.410637856E0
2.451496021E1,-7.012763619E-1,4.284313202E0,8.778230667E0
2.453505344E1,-5.671295524E-1,5.022120953E0,8.533892632E0
2.455514667E1,-3.754912615E-1,5.913239002E0,8.701576233E0
2.457523938E1,1.467230618E-1,6.689373970E0,8.644083977E0
2.459533208E1,1.377999067E0,7.139723778E0,8.145824432E0
2.461542479E1,2.331399441E0,7.431972027E0,8.174570084E0
2.463551750E1,2.508664846E0,7.221169949E0,8.792604446E0
2.465561021E1,2.111015558E0,6.176741600E0,9.338772774E0
2.467570292E1,1.569637299E0,5.204176903E0,1.003825283E1
2.469579563E1,1.339671373E0,4.212449074E0,1.029696465E1
2.471588833E1,6.785193086E-1,3.661489010E0,9.199835777E0
2.473598104E1,-2.365535051E-1,3.594415665E0,7.570909977E0
2.475607375E1,-6.006662250E-1,3.551296949E0,6.440244198E0
2.477616682E1,-8.210502863E-1,3.493805408E0,5.678482056E0
2.479626005E1,-1.601976275E0,3.330912828E0,5.587453842E0
2.481635328E1,-2.435602903E0,3.445895910E0,6.948085308E0
2.483644625E1,-2.957817078E0,3.762099028E0,8.246435165E0
2.485653896E1,-3.336302757E0,4.260358810E0,8.529101372E0
2.487663167E1,-2.933862448E0,4.610098362E0,8.711157799E0
2.489672438E1,-2.105026722E0,4.749036312E0,9.324399948E0
2.491681708E1,-1.405547023E0,4.940674305E0,9.995134354E0
2.493690979E1,-8.497959971E-1,5.050866604E0,1.079043293E1
2.495700250E1,-2.940450013E-1,4.974211216E0,1.125515556E1
2.497709521E1,3.000336885E-1,4.892765045E0,1.079043293E1
2.499718792E1,4.629262388E-1,5.031702518E0,9.405846596E0
2.501728062E1,6.018639803E-1,5.391024590E0,8.097915649E0
2.503737359E1,1.296552777E0,5.520380497E0,7.350525856E0
2.505746682E1,1.790021300E0,5.788673878E0,6.737283230E0
2.507756005E1,1.981659651E0,6.574390888E0,6.502526283E0
2.509765312E1,1.334880471E0,7.484672546E0,6.387543678E0
2.511774583E1,-1.137852296E-2,7.829621792E0,6.421080112E0
2.513783854E1,-5.910843015E-1,7.700265884E0,7.527791500E0
2.515793125E1,-9.408242106E-1,7.513418674E0,8.423700333E0
2.517802396E1,-2.028371572E0,7.082232475E0,8.759067535E0
2.519811667E1,-3.317138910E0,6.440244198E0,9.611857414E0
2.521820938E1,-3.091964006E0,6.655837059E0,1.053651237E1
2.523830208E1,-1.592394352E0,6.967249393E0,9.928060532E0
2.525839479E1,-7.443949580E-1,6.406707287E0,8.778230667E0
2.527848750E1,-1.304936886E0,5.386233330E0,9.161507607E0
2.529858047E1,-2.253546476E0,3.958528280E0,1.091499805E1
2.531867370E1,-3.398585081E0,2.708088398E0,1.200254536E1
2.533876693E1,-3.666878700E0,2.300857067E0,1.135097504E1
2.535886005E1,-2.632032156E0,2.885353804E0,8.768649101E0
2.537895276E1,-1.189953923E0,3.718980551E0,5.831792355E0
2.539904547E1,1.257626247E-2,4.159748554E0,4.356177807E0
2.541913818E1,6.593554616E-1,3.939364433E0,4.150166512E0
2.543923088E1,2.521241307E-1,3.651906967E0,4.523861408E0
2.545932359E1,-5.383837819E-1,3.709398508E0,5.989893913E0
2.547941630E1,-4.281917810E-1,3.987273932E0,7.791294098E0
2.549950901E1,1.227682754E-1,4.399296284E0,8.246435165E0
2.551960172E1,1.095332623E0,5.036493778E0,7.455926895E0
2.553969443E1,1.612755895E0,5.620990276E0,6.540853977E0
2.555978750E1,-3.781861782E0,6.761238098E0,7.202006340E0
2.557988073E1,3.208144665E0,3.747726202E0,5.093985081E0
2.559997396E1,3.375828028E0,6.689373970E0,7.499045372E0
2.562006698E1,2.518246889E0,7.336153030E0,9.875360489E0
2.564015969E1,8.749485612E-1,6.095294952E0,1.161447811E1
2.566025240E1,-3.024890423E0,5.510798454E0,1.159052277E1
2.568034510E1,-5.612007141E0,4.921510696E0,1.181569767E1
2.570043781E1,-5.894673824E0,4.629262447E0,1.166238689E1
2.572053052E1,-4.649024963E0,4.370550632E0,1.094853497E1
2.574062323E1,-3.872889996E0,4.365759850E0,9.769959450E0
2.576071594E1,-3.815398455E0,4.490324497E0,9.472919464E0
2.578080865E1,-4.672979832E0,4.768199921E0,9.544784546E0
2.580090135E1,-4.677770615E0,4.777781963E0,9.453756332E0
2.582099458E1,-3.652505875E0,4.897555828E0,9.482501984E0
2.584108781E1,-2.119399548E0,4.935883522E0,9.841823578E0
2.586118104E1,-1.007897615E0,4.955047131E0,9.942433357E0
2.588127396E1,-3.132088184E-1,4.916719913E0,9.937643051E0
2.590136667E1,9.881348908E-2,4.734663486E0,1.027780056E1
2.592145938E1,2.521241307E-1,4.308268070E0,1.050776672E1
2.594155208E1,3.575251698E-1,3.944155455E0,1.025384617E1
2.596164479E1,7.168469429E-1,3.771681070E0,9.846614838E0
2.598173750E1,1.248643160E0,3.886663914E0,8.955496788E0
2.600183021E1,1.138451219E0,4.131002903E0,7.494254589E0
2.602192292E1,1.275592297E-1,4.514279366E0,6.095294952E0
2.604201562E1,-9.120784402E-1,4.911928654E0,5.405397415E0
2.606210854E1,-1.439083695E0,5.276041508E0,5.534753323E0
2.608220177E1,-1.592394352E0,5.443725109E0,5.822210789E0
2.610229500E1,-1.410338044E0,5.644945145E0,6.167159557E0
2.612238823E1,-1.051016212E0,5.764719009E0,6.229442120E0
2.614248094E1,-9.504061341E-1,5.697645664E0,6.147995472E0
2.616257365E1,-9.072874784E-1,5.549126148E0,6.229442120E0
2.618266635E1,-1.276191235E0,5.323951244E0,6.454617023E0
2.620275906E1,-1.760077834E0,5.132312775E0,6.952876568E0
2.622285177E1,-2.243964434E0,4.988584042E0,7.503836632E0
2.624294448E1,-2.541003942E0,5.084403038E0,7.714638710E0
2.626303719E1,-2.387693167E0,5.271250725E0,7.958977222E0
2.628312990E1,-2.445184708E0,5.491634369E0,8.385373116E0
2.630322266E1,-2.876370907E0,5.582662582E0,9.003406525E0
2.632331589E1,-2.713478327E0,5.812628746E0,9.626230240E0
2.634340911E1,-2.497885227E0,6.152786732E0,9.520829201E0
2.636350234E1,-2.277501106E0,6.234232903E0,9.127970695E0
2.638359521E1,-2.363738537E0,6.167159557E0,9.127970695E0
2.640368792E1,-2.991353750E0,6.296515465E0,9.587903023E0
2.642378063E1,-3.523149967E0,6.670209885E0,9.961597443E0
2.644387333E1,-3.149455309E0,6.924130917E0,1.014365387E1
2.646396604E1,-2.402065992E0,6.948085308E0,1.011011696E1
2.648405875E1,-2.172100067E0,6.100086212E0,1.015802670E1
2.650415146E1,-2.660777807E0,4.749036312E0,1.120245552E1
2.652424417E1,-3.441703796E0,3.306958199E0,1.194505405E1
2.654433688E1,-3.853726149E0,2.320020914E0,1.111621857E1
2.656443010E1,-2.809297562E0,2.128382683E0,9.319609642E0
2.658452333E1,-7.348130345E-1,2.674551725E0,7.307407379E0
2.660461656E1,7.791293859E-1,3.273421526E0,5.582662582E0
2.662470948E1,1.023468256E0,3.656697989E0,4.351386547E0
2.664480219E1,2.425422072E-1,3.704607487E0,3.934573412E0
2.666489490E1,-1.348055601E0,3.695025682E0,4.265149593E0
2.668498760E1,-2.564958572E0,3.881872892E0,5.376651764E0
2.670508031E1,-2.933862448E0,4.154957294E0,6.900176048E0
2.672517302E1,-2.263128281E0,4.643635273E0,8.107497215E0
2.674526573E1,-8.833327293E-1,5.175431252E0,8.759067535E0
2.676535844E1,-1.215705350E-1,5.611408710E0,8.653666496E0
2.678545125E1,-5.928809568E-2,5.918029785E0,8.548265457E0
2.680554448E1,-4.521465898E-1,6.023430824E0,8.308717728E0
2.682563771E1,-9.504061341E-1,5.985103130E0,8.241643906E0
2.684573094E1,-1.276191235E0,5.874911308E0,8.696784973E0
2.686582375E1,-1.740913987E0,5.673690796E0,9.065688133E0
2.688591646E1,-2.133772612E0,5.534753323E0,9.089643478E0
2.690600917E1,-2.354156494E0,5.405397415E0,8.830931664E0
2.692610188E1,-2.416439056E0,5.386233330E0,9.022569656E0
2.694619458E1,-2.445184708E0,5.434143066E0,9.798705101E0
2.696628729E1,-2.478721380E0,5.414979458E0,1.057963085E1
2.698638000E1,-2.157727242E0,5.242504597E0,1.068024063E1
2.700647271E1,-1.822360277E0,5.343114853E0,1.055567646E1
2.702656568E1,-1.534902930E0,5.414979458E0,1.045985699E1
2.704665891E1,-1.357637405E0,5.228131771E0,1.045027542E1
2.706675214E1,-1.170790195E0,5.026911736E0,1.051734829E1
2.708684536E1,-5.719205141E-1,4.691544533E0,1.038799286E1
2.710693807E1,-1.455253214E-1,4.432833195E0,1.011969948E1
2.712703078E1,3.653104603E-2,4.020810604E0,1.002867126E1
2.714712349E1,3.383613527E-1,3.613579273E0,9.975970268E0
2.716721620E1,8.318299055E-1,3.407568216E0,9.276490211E0
2.718730891E1,1.301343679E0,3.541714907E0,8.141034126E0
2.720740161E1,1.526518703E0,4.054347515E0,7.422390461E0
2.722749432E1,1.191151738E0,4.658008099E0,6.382752419E0
2.724758703E1,6.066549420E-1,5.185013294E0,5.798255920E0
2.726768010E1,1.257626247E-2,5.587453842E0,5.803046703E0
2.728777333E1,-2.575139515E-2,5.798255920E0,6.004266739E0
2.730786656E1,-1.796608907E-3,5.989893913E0,6.478571892E0
2.732795969E1,-2.096043713E-2,6.037803650E0,7.053486347E0
2.734805240E1,-1.455253214E-1,5.994685173E0,7.537373066E0
2.736814510E1,-1.263614893E-1,5.712018490E0,8.246435165E0
2.738823781E1,9.402253479E-2,5.482052803E0,9.084852219E0
2.740833052E1,2.473331541E-1,5.113149166E0,9.597484589E0
2.742842323E1,-8.324287832E-2,4.902346611E0,9.257327080E0
2.744851594E1,3.653104603E-2,5.127521992E0,8.778230667E0
2.746860865E1,-3.084178567E-1,5.170640469E0,8.581801414E0
2.748870141E1,-1.822360277E0,4.988584042E0,8.332672119E0
2.750879464E1,-8.689598441E-1,5.515589237E0,8.380581856E0
2.752888786E1,-6.821125150E-1,5.889284134E0,7.537373066E0
2.754898109E1,-6.389939189E-1,5.721600533E0,7.647565365E0
2.756907401E1,-1.223490715E0,5.472470760E0,8.591383934E0
2.758916672E1,-1.870269895E0,5.410188198E0,9.343564034E0
2.760925943E1,-2.138563395E0,5.692854881E0,1.024426365E1
2.762935214E1,-2.095444918E0,5.951566219E0,1.003346157E1
2.764944484E1,-1.851106048E0,6.004266739E0,9.223790169E0
2.766953755E1,-1.233072639E0,5.501216412E0,9.367518425E0
2.768963026E1,-1.343264580E0,4.327432156E0,1.052693081E1
2.770972297E1,-1.764868855E0,2.995545864E0,1.194505405E1
2.772981604E1,-2.330201864E0,2.411049128E0,1.189235306E1
2.774990927E1,-2.234382629E0,2.703297615E0,9.765168190E0
2.777000250E1,-1.304936886E0,3.412359238E0,7.546955109E0
2.779009568E1,-4.138189256E-1,3.762099028E0,5.616199493E0
2.781018838E1,-4.904742241E-1,3.814799547E0,4.217239857E0
2.783028109E1,-9.695699215E-1,3.714189529E0,4.154957294E0
2.785037380E1,-1.486993313E0,3.924991608E0,5.937193394E0
2.787046651E1,-1.338473678E0,4.375341415E0,8.270389557E0
2.789055922E1,-9.504061341E-1,4.859228134E0,9.305236816E0
2.791065193E1,-4.234008193E-1,5.304787159E0,8.921959877E0
2.793074464E1,-1.311524510E-1,5.501216412E0,8.567428589E0
2.795083745E1,-5.449713767E-2,5.414979458E0,7.820039749E0
2.797093151E1,-4.042370021E-1,5.175431252E0,7.355316639E0
2.799102422E1,-8.450050354E-1,4.739454269E0,7.494254589E0
2.801111693E1,-1.486993313E0,4.614889622E0,8.217689514E0
2.803120964E1,-1.798405528E0,4.691544533E0,8.375790596E0
2.805130234E1,-1.889433742E0,4.926301479E0,8.145824432E0
2.807139478E1,-2.033162355E0,4.921510696E0,8.217689514E0
2.809148795E1,-2.603286266E0,4.859228134E0,8.370999336E0
2.811158066E1,-3.369839430E0,4.777781963E0,8.624920845E0
2.813167352E1,-3.772279739E0,4.667590141E0,9.281281471E0
2.815176675E1,-3.834562302E0,4.528652191E0,1.014365387E1
2.817185998E1,-3.815398455E0,4.308268070E0,1.073773289E1
2.819195321E1,-3.681251764E0,4.020810604E0,1.103956318E1
2.821204608E1,-3.738743067E0,3.790844679E0,1.125515556E1
2.823213879E1,-3.824980259E0,3.733353376E0,1.116412735E1
2.825223149E1,-3.824980259E0,3.675861835E0,1.068982315E1
2.827232420E1,-3.580641508E0,3.608788490E0,1.044069290E1
2.829241691E1,-2.876370907E0,3.814799547E0,1.064670467E1
2.831250962E1,-1.975670934E0,4.121420860E0,1.085750675E1
2.833260233E1,-9.072874784E-1,4.394505501E0,1.106351757E1
2.835269509E1,7.006774843E-2,4.514279366E0,1.089104366E1
2.837278832E1,9.611857533E-1,4.375341415E0,1.027780056E1
2.839288155E1,1.272598028E0,4.375341415E0,9.511247635E0
2.841297478E1,1.171987891E0,4.332222939E0,8.754276276E0
2.843306780E1,1.033050179E0,4.265149593E0,8.184152603E0
2.845316050E1,9.468128681E-1,4.169330597E0,7.700265884E0
2.847325321E1,6.497735381E-1,4.154957294E0,6.885803223E0
2.849334592E1,2.808698714E-1,4.308268070E0,6.512108326E0
2.851343863E1,-1.455253214E-1,4.557397842E0,6.119249821E0
2.853353134E1,-8.497959971E-1,4.940674305E0,5.788673878E0
2.855362405E1,-1.645094872E0,5.237713814E0,5.803046703E0
2.857371681E1,-2.066699028E0,5.280832291E0,6.713328838E0
2.859381004E1,-2.603286266E0,5.117939949E0,7.695474625E0
2.861390326E1,-2.986562967E0,4.940674305E0,8.078751564E0
2.863399649E1,-2.914698601E0,4.777781963E0,8.878841400E0
2.865408946E1,-2.929071426E0,4.514279366E0,9.712468147E0
2.867418217E1,-2.991353750E0,4.226821899E0,9.822659492E0
2.869427488E1,-2.531421900E0,4.035183430E0,9.458546638E0
2.871436759E1,-1.985252857E0,4.073511124E0,9.008196831E0
2.873446030E1,-1.673840642E0,4.198076248E0,8.361417770E0
2.875455300E1,-1.736123085E0,4.006437778E0,7.719429493E0
2.877464571E1,-1.884642720E0,4.619680405E0,7.700265884E0
2.879473858E1,-7.060673237E-1,5.323951244E0,7.523000240E0
2.881483181E1,-7.683497667E-1,5.620990276E0,7.125350952E0
2.883492504E1,-8.833327293E-1,5.697645664E0,7.326570988E0
2.885501826E1,-9.839428067E-1,5.841374397E0,7.388853550E0
2.887511118E1,-1.530111909E0,6.133622646E0,7.230751991E0
2.889520389E1,-2.095444918E0,6.363588810E0,7.178051472E0
2.891529660E1,-2.100235701E0,6.445034981E0,7.125350952E0
2.893538931E1,-2.133772612E0,6.675001144E0,7.647565365E0
2.895548202E1,-2.205636978E0,6.852266312E0,9.367518425E0
2.897557472E1,-1.908597589E0,7.254706860E0,1.045985699E1
2.899566743E1,-1.113298655E0,7.570909977E0,9.741213799E0
2.901576035E1,-6.629486680E-1,6.967249393E0,9.343564034E0
2.903585358E1,-1.554066658E0,5.108357906E0,1.054130363E1
2.905594681E1,-3.551895857E0,3.287794352E0,1.198817253E1
2.907604004E1,-5.142493725E0,2.243365765E0,1.208878231E1
2.909613290E1,-5.118538857E0,2.339184761E0,1.043111134E1
2.911622561E1,-3.566268682E0,3.297376156E0,8.083541870E0
2.913631832E1,-1.726541162E0,3.776471853E0,7.067859650E0
2.915641102E1,-1.218699694E0,3.647116184E0,7.465508938E0
2.917650373E1,-1.486993313E0,3.043455601E0,9.104016304E0
2.919659644E1,-1.764868855E0,2.779952765E0,1.034487438E1
2.921668915E1,-1.290564060E0,3.029082537E0,1.030175591E1
2.923678222E1,-2.221806347E-1,3.695025682E0,9.027360916E0
2.925687545E1,7.982932329E-1,4.327432156E0,7.532582283E0
2.927696868E1,1.219897389E0,4.772991180E0,6.167159557E0
2.929706191E1,1.080959678E0,5.146685600E0,5.299996376E0
2.931715467E1,7.982932329E-1,5.414979458E0,4.796945572E0
2.933724738E1,4.581352770E-1,5.683272839E0,4.916719913E0
2.935734009E1,-1.359434128E-1,5.932402611E0,5.453306675E0
2.937743280E1,-9.647789598E-1,5.980312347E0,6.095294952E0
2.939752550E1,-1.352846503E0,6.243814945E0,7.221169949E0
2.941761821E1,-1.194744945E0,6.401916504E0,8.902795792E0
2.943771092E1,-1.510948062E0,6.382752419E0,9.928060532E0
2.945780410E1,-1.745705009E0,6.090504169E0,1.045506573E1
2.947789733E1,-2.143354416E0,5.434143066E0,1.060837650E1
2.949799056E1,-2.315828800E0,5.103567123E0,1.082876110E1
2.951808373E1,-2.200845957E0,5.266459465E0,1.097248936E1
2.953817644E1,-1.899015665E0,5.333532810E0,1.060358620E1
2.955826915E1,-1.362428427E0,5.280832291E0,1.053172112E1
2.957836186E1,-6.102481484E-1,5.055657387E0,1.063233185E1
2.959845457E1,1.563049704E-1,4.701126575E0,1.083355141E1
2.961854728E1,6.354007125E-1,4.222031116E0,1.069461441E1
2.963863998E1,7.120559812E-1,3.829172373E0,1.034487438E1
2.965873290E1,7.743384242E-1,3.637534142E0,9.329191208E0
2.967882613E1,8.462027907E-1,3.618370295E0,7.987723351E0
2.969891936E1,7.599655390E-1,3.757308006E0,6.775610924E0
2.971901259E1,7.360107899E-1,4.044765472E0,6.540853977E0
2.973910550E1,1.179773211E-1,4.207658291E0,6.924130917E0
2.975919821E1,-9.072874784E-1,4.289104462E0,7.767339230E0
2.977929092E1,-1.434292793E0,4.269940376E0,8.495564461E0
2.979938363E1,-1.625931025E0,4.380132675E0,8.620129585E0
2.981947634E1,-1.463038564E0,4.648426056E0,8.394954681E0
2.983956905E1,-1.324100733E0,4.811318874E0,7.973350525E0
2.985966175E1,-1.285773158E0,4.830482483E0,7.815248966E0
2.987975498E1,-1.103716731E0,4.758618355E0,8.107497215E0
2.989984821E1,-9.168694019E-1,4.705917835E0,8.289553642E0
2.991994144E1,-5.527566671E-1,4.825691700E0,8.404536247E0
2.994003462E1,-4.234008193E-1,5.084403038E0,8.529101372E0
2.996012733E1,-2.461354136E-1,5.443725109E0,8.677620888E0
2.998022004E1,3.174009174E-2,5.922820568E0,8.620129585E0
3.000031274E1,3.048246503E-1,6.377961636E0,8.610548019E0
3.002040545E1,7.168469429E-1,6.952876568E0,8.792604446E0
3.004049816E1,1.023468256E0,7.340943813E0,8.481191635E0
3.006059087E1,1.109705448E0,7.403226376E0,7.412808418E0
3.008068384E1,4.629262388E-1,7.225961208E0,6.833102703E0
3.010077707E1,-7.204401493E-1,6.943294525E0,8.006887436E0
3.012087030E1,-1.673840642E0,6.952876568E0,9.142343521E0
3.014096353E1,-1.611558199E0,7.192424297E0,9.487293243E0
3.016105649E1,-1.036643386E0,6.861848354E0,9.616648674E0
3.018114920E1,-1.151626348E0,5.688063622E0,1.056046677E1
3.020124191E1,-1.985252857E0,4.245985508E0,1.142283916E1
3.022133462E1,-3.154246330E0,3.206347942E0,1.098207092E1
3.024142733E1,-3.623760223E0,2.856608152E0,9.123180389E0
3.026152004E1,-3.077590942E0,3.053037405E0,7.537373066E0
3.028161274E1,-2.291874170E0,3.187184095E0,6.502526283E0
3.030170597E1,-2.138563395E0,3.124901772E0,5.625781536E0
3.032179920E1,-2.526630878E0,3.196766138E0,5.410188198E0
3.034189243E1,-2.632032156E0,3.575251818E0,6.607927322E0
3.036198561E1,-1.889433742E0,4.059138298E0,7.705056667E0
3.038207832E1,-6.964854002E-1,4.701126575E0,7.891903877E0
3.040217102E1,5.635363460E-1,5.276041508E0,7.412808418E0
3.042226373E1,1.401953816E0,5.731182575E0,6.742074490E0
3.044235644E1,1.512145877E0,6.061758518E0,6.291724205E0
3.046244915E1,9.899315238E-1,6.243814945E0,6.114459038E0
3.048254186E1,2.137964666E-1,6.344424725E0,6.277351379E0
3.050263498E1,-3.994460404E-1,6.248605728E0,6.468989849E0
3.052272821E1,-5.096380711E-1,6.124041080E0,7.063068390E0
3.054282144E1,-7.875135541E-1,6.056967258E0,7.968559265E0
3.056291467E1,-1.146835327E0,5.898865700E0,9.060897827E0
3.058300748E1,-1.558857679E0,5.659317970E0,9.688512802E0
3.060310019E1,-1.908597589E0,5.232923031E0,9.793913841E0
3.062319290E1,-2.282292128E0,4.820900440E0,1.038799286E1
3.064328561E1,-2.780551672E0,4.605307579E0,1.158573151E1
3.066337832E1,-3.144664526E0,4.360968590E0,1.212711048E1
3.068347103E1,-3.206946850E0,4.054347515E0,1.200733662E1
3.070356410E1,-2.775760651E0,4.116630077E0,1.217501926E1
3.072365733E1,-2.037953377E0,4.102256775E0,1.302301884E1
3.074375056E1,-9.983156919E-1,4.111838818E0,1.325777626E1
3.076384379E1,-2.748811543E-1,3.733353376E0,1.224209309E1
3.078393670E1,7.964966446E-2,3.388404369E0,1.067065907E1
3.080402941E1,1.515140235E-1,3.029082537E0,9.238162994E0
3.082412212E1,-1.796608907E-3,2.617060423E0,8.481191635E0
3.084421483E1,2.952427268E-1,2.439794779E0,8.792604446E0
3.086430754E1,5.156267285E-1,2.502077341E0,8.112288475E0
3.088440024E1,4.916719794E-1,2.779952765E0,6.406707287E0
3.090449332E1,3.575251698E-1,3.345285892E0,5.079612255E0
3.092458655E1,1.257626247E-2,3.819590569E0,4.720290661E0
3.094467978E1,-7.539768815E-1,4.178912163E0,5.506007195E0
3.096477394E1,-9.408242106E-1,4.337013721E0,7.269079685E0
3.098486212E1,-8.977055550E-1,4.590934753E0,8.701576233E0
3.100495899E1,-7.443949580E-1,4.916719913E0,8.998615265E0
3.102505170E1,-6.437848806E-1,5.218550205E0,9.166298866E0
3.104514441E1,-4.856832623E-1,5.328742027E0,9.329191208E0
3.106523712E1,-1.119886190E-1,5.271250725E0,9.492083549E0
3.108532983E1,-8.324287832E-2,5.103567123E0,9.683721542E0
3.110542254E1,-4.186098874E-1,4.897555828E0,9.463337898E0
3.112551550E1,-7.731407285E-1,4.864019394E0,8.711157799E0
3.114560873E1,-8.833327293E-1,4.983793259E0,8.169779778E0
3.116570196E1,-7.539768815E-1,5.170640469E0,7.887113094E0
3.118579519E1,-4.281917810E-1,5.472470760E0,7.901485920E0
3.120588837E1,-7.845192403E-2,5.750346184E0,7.982932091E0
3.122598108E1,1.419321001E-1,5.779091835E0,7.829621792E0
3.124607379E1,-1.551072299E-1,5.649735928E0,7.570909977E0
3.126616649E1,-3.802822232E-1,5.592244625E0,8.059587479E0
3.128625920E1,-8.450050354E-1,5.113149166E0,8.418909073E0
3.130635191E1,-1.597185373E0,4.844855309E0,9.151926041E0
3.132644498E1,-2.105026722E0,4.801736832E0,1.016281796E1
3.134653821E1,-2.301455975E0,5.314369202E0,1.086708832E1
3.136663144E1,-2.018789530E0,5.874911308E0,1.054609394E1
3.138672467E1,-2.037953377E0,5.702436447E0,1.007658005E1
3.140681785E1,-2.560167789E0,4.840064526E0,1.046464825E1
3.142691056E1,-2.564958572E0,3.546505928E0,1.125036526E1
3.144700327E1,-2.785342693E0,2.037354469E0,1.226604748E1
3.146709597E1,-3.072800159E0,1.534304023E0,1.262537003E1
3.148718868E1,-2.981771946E0,1.462439656E0,1.121203709E1
3.150728139E1,-2.402065992E0,1.879252911E0,8.615338326E0
3.152737462E1,-1.295355082E0,2.722461462E0,6.900176048E0
3.154746785E1,-7.635588050E-1,3.359658718E0,5.831792355E0
3.156756108E1,-6.342029572E-1,3.316540003E0,4.974211216E0
3.158765431E1,-8.785417676E-1,3.014709711E0,4.715499401E0
3.160774743E1,-1.324100733E0,2.837444305E0,5.362278938E0
3.162784014E1,-1.645094872E0,2.880563021E0,7.096605301E0
3.164793285E1,-1.649885893E0,3.292585373E0,8.394954681E0
3.166802556E1,-1.381592274E0,3.733353376E0,8.524310112E0
3.168811827E1,-9.791518450E-1,4.226821899E0,8.179361343E0
3.170821118E1,-7.683497667E-1,4.792154789E0,7.939813614E0
3.172830441E1,-4.856832623E-1,5.146685600E0,7.494254589E0
3.174839764E1,-1.119886190E-1,5.343114853E0,7.259497643E0
3.176849087E1,-4.042370021E-1,5.726391315E0,7.523000240E0
3.178858410E1,-1.070180058E0,5.362278938E0,8.279971123E0
3.180867717E1,-1.678631544E0,5.194595337E0,8.830931664E0
3.182876988E1,-2.205636978E0,5.046075344E0,9.381891251E0
3.184886259E1,-1.985252857E0,4.959838390E0,1.011969948E1
3.186895530E1,-1.803196430E0,4.686753750E0,1.058442211E1
3.188904800E1,-1.539693832E0,4.538234234E0,1.096290779E1
3.190914108E1,-1.395965099E0,4.514279366E0,1.108268166E1
3.192923431E1,-1.582812428E0,4.360968590E0,1.099644470E1
3.194932754E1,-2.037953377E0,4.394505501E0,1.091020679E1
3.196942077E1,-2.560167789E0,4.356177807E0,1.077126884E1
3.198951399E1,-2.421229839E0,4.571770668E0,1.050297546E1
3.200960702E1,-1.942134261E0,4.744245052E0,1.055088520E1
3.202969972E1,-1.132462502E0,4.672380924E0,1.087187958E1
3.204979243E1,-2.700901926E-1,4.586143494E0,1.103956318E1
3.206988514E1,1.275592297E-1,4.250776768E0,1.088146114E1
3.208997785E1,2.215817571E-2,3.948946476E0,1.049339390E1
3.211007108E1,-3.659093380E-1,3.393195391E0,9.635812759E0
3.213016431E1,-3.467455208E-1,3.230302811E0,8.735112190E0
3.215025754E1,-2.652992606E-1,3.263839483E0,7.441554070E0
3.217035076E1,-1.790620238E-1,3.661489010E0,6.253396511E0
3.219044399E1,-3.227907419E-1,3.896245956E0,5.266459465E0
3.221053707E1,-1.003106594E0,3.786053896E0,4.854437351E0
3.223062978E1,-1.395965099E0,3.532133102E0,6.080922127E0
3.225072248E1,-2.196054935E0,3.259048462E0,7.911067963E0
3.227081519E1,-3.087172985E0,3.335703850E0,9.300445557E0
3.229090795E1,-2.895534754E0,3.656697989E0,1.048381138E1
3.231100118E1,-1.764868855E0,4.068720341E0,1.113538170E1
3.233109441E1,-4.473556280E-1,4.198076248E0,1.100123501E1
3.235118764E1,4.629262388E-1,4.322640896E0,1.039278412E1
3.237128087E1,9.947224855E-1,4.566979885E0,9.621439934E0
3.239137410E1,1.013886333E0,4.667590141E0,8.706366539E0
3.241146728E1,9.659767151E-1,4.921510696E0,7.776921272E0
3.243155998E1,1.090541601E0,5.199386120E0,7.048695564E0
3.245165269E1,1.219897389E0,5.683272839E0,6.468989849E0
3.247174540E1,1.607964993E0,6.258187771E0,5.937193394E0
3.249183811E1,2.043941975E0,6.871430397E0,6.387543678E0
3.251193134E1,2.297862768E0,7.225961208E0,7.082232475E0
3.253202457E1,1.991241574E0,7.288243294E0,7.063068390E0
3.255211780E1,1.358835220E0,7.336153030E0,6.789983749E0
3.257221102E1,5.060448647E-1,7.091814041E0,7.178051472E0
3.259230425E1,-1.071976647E-1,6.861848354E0,8.021260262E0
3.261239748E1,-7.443949580E-1,6.833102703E0,9.113597870E0
3.263249040E1,-1.276191235E0,6.933712482E0,9.928060532E0
3.265258311E1,-9.551970959E-1,6.972040176E0,9.952015877E0
3.267267582E1,-6.773215532E-1,6.344424725E0,9.956806183E0
3.269276853E1,-6.773215532E-1,4.911928654E0,1.091020679E1
3.271286160E1,-1.094134808E0,3.182393312E0,1.289845467E1
3.273295483E1,-2.047535181E0,1.840925217E0,1.403870201E1
3.275304806E1,-2.866788864E0,1.400157213E0,1.333443165E1
3.277314128E1,-2.162518263E0,1.711569428E0,1.101081753E1
3.279323452E1,-8.977055550E-1,2.300857067E0,7.738593578E0
3.281332774E1,2.090055048E-1,3.235093832E0,4.590934753E0
3.283342097E1,5.347905755E-1,3.934573412E0,3.086574078E0
3.285351384E1,-6.150391102E-1,3.651906967E0,3.565669775E0
3.287360655E1,-1.913388491E0,2.938054323E0,5.855747223E0
3.289369925E1,-2.426020861E0,3.024291754E0,8.141034126E0
3.291379196E1,-1.606767178E0,3.527342081E0,9.712468147E0
3.293388519E1,-7.845192403E-2,4.035183430E0,1.007178974E1
3.295397842E1,7.455927134E-1,4.595725536E0,9.616648674E0
3.297407165E1,4.485533535E-1,5.132312775E0,8.270389557E0
3.299416488E1,-1.551072299E-1,5.391024590E0,7.149305820E0
3.301425811E1,-5.767114758E-1,5.587453842E0,6.813938618E0
3.303435134E1,-8.785417676E-1,5.879702091E0,7.178051472E0
3.305444457E1,-1.060598135E0,5.985103130E0,7.781712055E0
3.307453769E1,-1.209117770E0,5.937193394E0,8.739903450E0
3.309463040E1,-1.098925829E0,5.812628746E0,9.640603065E0
3.311472311E1,-1.079761982E0,5.553916931E0,1.023468208E1
3.313481582E1,-9.456151724E-1,5.295205116E0,1.037841034E1
3.315490894E1,-8.018864393E-1,5.175431252E0,1.026821899E1
3.317500217E1,-9.599879980E-1,5.093985081E0,1.034487438E1
3.319509540E1,-1.357637405E0,5.122730732E0,1.011490822E1
3.321518863E1,-1.549275756E0,5.271250725E0,9.928060532E0
3.323528186E1,-1.578021526E0,5.309578419E0,1.022989082E1
3.325537509E1,-9.743608832E-1,4.950256348E0,1.146116734E1
3.327546832E1,1.994235814E-1,4.691544533E0,1.248643208E1
3.329556155E1,1.200733662E0,4.140584469E0,1.272597980E1
3.331565478E1,1.459445357E0,3.594415665E0,1.201691818E1
3.333574790E1,1.167196870E0,3.115319729E0,1.040236568E1
3.335584061E1,7.695474625E-1,2.784743786E0,8.701576233E0
3.337593332E1,7.312198281E-1,2.708088398E0,7.278661728E0
3.339602608E1,9.851405621E-1,2.962009192E0,5.956357479E0
3.341611931E1,1.071377754E0,3.259048462E0,4.495115280E0
3.343621254E1,8.030841947E-1,3.661489010E0,3.407568216E0
3.345630576E1,7.485870272E-2,4.025601864E0,3.081783056E0
3.347639899E1,-1.070180058E0,4.399296284E0,3.589624643E0
3.349649222E1,-1.985252857E0,4.600516319E0,5.017329693E0
3.351658545E1,-1.994834781E0,4.691544533E0,6.742074490E0
3.353667868E1,-1.467829466E0,4.844855309E0,8.442864418E0
3.355677191E1,-6.198300719E-1,5.012538910E0,1.002388000E1
3.357686514E1,-2.269715965E-1,4.979001999E0,1.090541649E1
3.359695837E1,-1.263614893E-1,4.988584042E0,1.113059139E1
3.361705160E1,-1.742710620E-1,5.108357906E0,1.076647854E1
3.363714483E1,-4.665194452E-1,5.247295856E0,9.702885628E0
3.365723806E1,-4.665194452E-1,5.352696896E0,8.696784973E0
3.367733123E1,-3.994460404E-1,5.467679977E0,8.107497215E0
3.369742394E1,-3.994460404E-1,5.668900013E0,8.016469002E0
3.371751665E1,-4.761013687E-1,5.688063622E0,8.026050568E0
3.373760952E1,-7.587678432E-1,5.668900013E0,8.035633087E0
3.375770274E1,-1.041434288E0,5.688063622E0,7.882322311E0
3.377779597E1,-1.544484735E0,5.697645664E0,7.762548447E0
3.379788920E1,-1.669049621E0,5.510798454E0,8.351836205E0
3.381798243E1,-2.023580551E0,5.271250725E0,9.075270653E0
3.383807566E1,-2.507467270E0,5.093985081E0,9.913687706E0
3.385816889E1,-2.435602903E0,4.935883522E0,1.112580013E1
3.387826212E1,-2.378111362E0,4.562189102E0,1.190193558E1
3.389835535E1,-2.330201864E0,3.867500067E0,1.333922195E1
3.391844858E1,-2.723060131E0,2.880563021E0,1.514062214E1
3.393854181E1,-3.264438391E0,2.214619875E0,1.576823711E1
3.395863504E1,-2.885952711E0,1.907998681E0,1.366979790E1
3.397872826E1,-1.913388491E0,2.080473185E0,9.678931236E0
3.399882149E1,-6.916944385E-1,2.751207113E0,6.411498547E0
3.401891472E1,1.227682754E-1,3.522551298E0,5.050866604E0
3.403900795E1,4.677171707E-1,3.369240522E0,4.705917835E0
3.405910118E1,-2.796721160E-1,3.421941042E0,5.213758945E0
3.407919441E1,-6.677396297E-1,3.407568216E0,5.836583614E0
3.409928764E1,-6.821125150E-1,3.623161316E0,6.085713387E0
3.411938087E1,-3.994460404E-1,4.327432156E0,5.970730305E0
3.413947410E1,-2.605082989E-1,4.739454269E0,6.191114426E0
3.415956733E1,5.569487438E-2,4.840064526E0,6.593554497E0
3.417966056E1,-2.844630778E-1,5.098775864E0,6.780402184E0
3.419975378E1,-4.042370021E-1,5.290414333E0,6.694164753E0
3.421984702E1,-3.419545591E-1,5.376651764E0,6.488153458E0
3.423994024E1,-6.821125150E-1,5.424561024E0,6.785192966E0
3.426003347E1,-1.151626348E0,5.237713814E0,7.570909977E0
3.428012670E1,-1.568439603E0,5.185013294E0,8.653666496E0
3.430021993E1,-1.683422565E0,5.189804077E0,9.472919464E0
3.432031316E1,-1.654676795E0,5.247295856E0,9.956806183E0
3.434040639E1,-1.669049621E0,5.266459465E0,1.047422981E1
3.436049962E1,-2.052326202E0,5.161058426E0,1.064670467E1
3.438059285E1,-2.517049074E0,5.012538910E0,9.975970268E0
3.440068608E1,-2.838043213E0,5.113149166E0,9.631021500E0
3.442077931E1,-3.408167124E0,4.974211216E0,1.031612873E1
3.444087254E1,-3.935172319E0,4.801736832E0,1.121682835E1
3.446096577E1,-4.011827469E0,4.658008099E0,1.217022896E1
3.448105946E1,-3.604596376E0,4.605307579E0,1.256308746E1
3.450115321E1,-2.478721380E0,4.562189102E0,1.289845467E1
3.452124665E1,-1.180372000E0,4.178912163E0,1.290324497E1
3.454133988E1,-1.119886190E-1,3.690234661E0,1.268765163E1
3.456143311E1,2.760789096E-1,3.043455601E0,1.161447811E1
3.458152634E1,-1.742710620E-1,2.559568882E0,9.779541016E0
3.460161957E1,-5.000561476E-1,2.372721434E0,7.614028454E0
3.462171280E1,-5.527566671E-1,2.674551725E0,5.716809750E0
3.464180602E1,-1.646891534E-1,3.191975117E0,4.456788063E0
3.466189925E1,-2.365535051E-1,3.642325163E0,4.001646996E0
3.468199248E1,-7.587678432E-1,3.795635700E0,4.159748554E0
3.470208571E1,-1.702586412E0,3.699816704E0,4.672380924E0
3.472217894E1,-2.775760651E0,3.704607487E0,5.865329266E0
3.474227217E1,-3.312347889E0,3.857918262E0,7.015159130E0
3.476236540E1,-3.350675583E0,4.083093166E0,7.364898682E0
3.478245863E1,-2.766178846E0,4.298686028E0,7.978141308E0
3.480255186E1,-1.625931025E0,4.495115280E0,9.003406525E0
3.482264509E1,-1.359434128E-1,5.194595337E0,9.626230240E0
3.484273884E1,8.893213868E-1,5.860538483E0,9.549574852E0
3.486283259E1,1.186360717E0,6.076131344E0,9.324399948E0
3.488292634E1,8.509937525E-1,6.152786732E0,8.720739365E0
3.490301962E1,4.868810177E-1,6.363588810E0,8.208106995E0
3.492311285E1,4.102256894E-1,6.732492447E0,8.030841827E0
3.494320608E1,3.144065440E-1,7.187633514E0,7.661938190E0
3.496329931E1,7.006774843E-2,7.637983322E0,7.398435593E0
3.498339254E1,-4.186098874E-1,7.714638710E0,7.570909977E0
3.500348576E1,-9.504061341E-1,7.326570988E0,7.901485920E0
3.502357899E1,-1.194744945E0,6.794775009E0,8.117078781E0
3.504367222E1,-1.233072639E0,6.416289330E0,8.811767578E0
3.506376545E1,-1.836733222E0,6.095294952E0,1.028738213E1
3.508385868E1,-2.272710323E0,5.850956440E0,1.103956318E1
3.510395238E1,-2.363738537E0,5.491634369E0,1.113059139E1
3.512404613E1,-2.531421900E0,4.432833195E0,1.147074890E1
3.514413988E1,-3.091964006E0,3.292585373E0,1.209357357E1
3.516423337E1,-3.412958145E0,2.712879419E0,1.199775410E1
3.518432660E1,-3.293184042E0,2.334393740E0,1.011011696E1
3.520441983E1,-3.096754789E0,2.564359665E0,7.460718155E0
3.522451306E1,-2.449975729E0,3.057828426E0,5.458097935E0
3.524460628E1,-1.721750259E0,3.230302811E0,4.921510696E0
3.526469952E1,-1.649885893E0,2.962009192E0,5.319159985E0
3.528479274E1,-1.755286932E0,2.669760942E0,6.497735500E0
3.530488597E1,-1.678631544E0,2.909308672E0,7.455926895E0
3.532497920E1,-1.266609311E0,3.541714907E0,7.997304916E0
3.534507295E1,-5.000561476E-1,4.245985508E0,7.546955109E0
3.536516670E1,2.215817571E-2,4.921510696E0,6.325261116E0
3.538526045E1,3.431523144E-1,5.774301052E0,5.640154362E0
3.540535394E1,6.018639803E-1,6.785192966E0,6.085713387E0
3.542544717E1,1.085750699E0,7.647565365E0,6.732492447E0
3.544554040E1,2.489500999E0,8.265598297E0,7.470299721E0
3.546563363E1,3.577048302E0,8.433281898E0,8.898005486E0
3.548572686E1,3.399782896E0,8.169779778E0,1.043590260E1
3.550582009E1,3.155444145E0,7.360107899E0,1.102998066E1
3.552591332E1,2.446382523E0,5.764719009E0,1.100123501E1
3.554600655E1,-9.282479435E-2,4.337013721E0,1.194505405E1
3.556610030E1,-2.493094206E0,3.532133102E0,1.260620594E1
3.558619405E1,-3.829771280E0,3.340494871E0,1.200733662E1
3.560628780E1,-4.265748501E0,3.627952337E0,1.038320160E1
3.562638139E1,-3.930381536E0,4.404087067E0,9.722049713E0
3.564647462E1,-2.167309284E0,4.610098362E0,1.068982315E1
3.566656785E1,-1.041434288E0,4.677171707E0,1.092457962E1
3.568666108E1,-2.605082989E-1,5.098775864E0,9.381891251E0
3.570675431E1,7.964966446E-2,5.779091835E0,6.981622219E0
3.572684754E1,-4.491522163E-2,6.191114426E0,5.141894817E0
3.574694077E1,-3.850731850E-1,5.980312347E0,5.151476383E0
3.576703410E1,-1.022270441E0,5.534753323E0,6.114459038E0
3.578712785E1,-1.304936886E0,5.208968163E0,6.449825764E0
3.580722160E1,-1.453456640E0,5.261668682E0,5.803046703E0
3.582731535E1,-1.458247542E0,5.515589237E0,5.395815372E0
3.584740889E1,-1.180372000E0,5.573081017E0,5.678482056E0
3.586750212E1,-1.242654443E0,5.352696896E0,5.827001572E0
3.588759535E1,-1.688213468E0,5.084403038E0,5.903656960E0
3.590768858E1,-2.033162355E0,5.079612255E0,6.258187771E0
3.592778181E1,-2.617659092E0,5.276041508E0,6.665419102E0
3.594787504E1,-3.125500679E0,5.774301052E0,6.948085308E0
3.596796826E1,-3.288393259E0,6.454617023E0,7.637983322E0
3.598806175E1,-3.087172985E0,7.053486347E0,8.088333130E0
3.600815550E1,-2.004416704E0,7.887113094E0,8.533892632E0
3.602824925E1,-5.719205141E-1,8.327880859E0,9.353145599E0
3.604834300E1,-4.952651858E-1,8.289553642E0,9.736422539E0
3.606843644E1,-1.079761982E0,8.260807991E0,1.015802670E1
3.608852967E1,-1.865478873E0,7.930231571E0,1.002388000E1
3.610862290E1,-2.459557533E0,7.192424297E0,9.209417343E0
3.612871613E1,-2.253546476E0,6.056967258E0,8.668039322E0
3.614880936E1,-1.319309831E0,4.552607059E0,1.019156361E1
3.616890259E1,-1.204326868E0,3.000336885E0,1.146116734E1
3.618899582E1,-1.927761316E0,1.936744452E0,1.069940472E1
3.620908957E1,-2.651195765E0,1.543885946E0,7.877531052E0
3.622918332E1,-2.905116558E0,1.716360331E0,5.185013294E0
3.624927707E1,-2.263128281E0,1.793015718E0,3.393195391E0
3.626937077E1,-1.285773158E0,1.946326375E0,2.157128334E0
3.628946399E1,-9.312422872E-1,2.291275263E0,2.152337551E0
3.630955722E1,-1.261818290E0,2.468540668E0,4.686753750E0
3.632965045E1,-1.793614507E0,2.502077341E0,7.666728973E0
3.634974368E1,-1.870269895E0,2.971591234E0,9.597484589E0
3.636983691E1,-1.405547023E0,3.704607487E0,1.034008312E1
3.638993014E1,-1.146835327E0,4.600516319E0,1.049339390E1
3.641002373E1,-1.017479539E0,5.060448647E0,1.063712215E1
3.643011748E1,-1.348055601E0,5.386233330E0,1.031133747E1
3.645021123E1,-1.659467816E0,5.577871799E0,9.468129158E0
3.647030498E1,-1.860687971E0,5.913239002E0,9.238162994E0
3.649039842E1,-1.625931025E0,6.076131344E0,9.918478966E0
3.651049165E1,-1.616349101E0,6.200695992E0,1.068982315E1
3.653058488E1,-1.338473678E0,6.109668255E0,1.157135868E1
3.655067811E1,-7.731407285E-1,6.009057999E0,1.141804886E1
3.657077134E1,-7.827225924E-1,5.798255920E0,1.038320160E1
3.659086457E1,-6.294119954E-1,5.491634369E0,9.971179008E0
3.661095795E1,-6.887000799E-2,5.204176903E0,1.069940472E1
3.663105170E1,-2.940450013E-1,5.074821472E0,1.129348373E1
3.665114545E1,-8.162593246E-1,5.194595337E0,1.115454578E1
3.667123920E1,-6.054571867E-1,4.979001999E0,1.033529186E1
3.669133285E1,-2.844630778E-1,4.739454269E0,9.913687706E0
3.671142608E1,-2.796721160E-1,4.595725536E0,1.035924721E1
3.673151931E1,-1.982258558E-1,4.332222939E0,1.123599243E1
3.675161254E1,5.827001333E-1,3.915409565E0,1.156177711E1
3.677170576E1,1.325298548E0,3.350076675E0,1.153303146E1
3.679179899E1,1.023468256E0,2.789534807E0,1.023947334E1
3.681189238E1,4.293895364E-1,2.540405035E0,8.462027550E0
3.683198613E1,1.179773211E-1,2.482913494E0,6.473780632E0
3.685207988E1,-2.844630778E-1,2.708088398E0,5.093985081E0
3.687217363E1,-8.306322098E-1,2.890144825E0,4.753827095E0
3.689226733E1,-2.119399548E0,3.091365099E0,5.635363102E0
3.691236056E1,-2.957817078E0,3.292585373E0,7.254706860E0
3.693245378E1,-3.000935793E0,3.522551298E0,8.476400375E0
3.695254702E1,-2.823670387E0,3.987273932E0,8.845304489E0
3.697264024E1,-2.421229839E0,4.514279366E0,8.605756760E0
3.699273347E1,-1.616349101E0,5.127521992E0,7.973350525E0
3.701282681E1,-1.017479539E0,5.601826668E0,7.230751991E0
3.703292056E1,-8.402140737E-1,5.688063622E0,7.776921272E0
3.705301431E1,-7.443949580E-1,5.496425629E0,8.821350098E0
3.707310806E1,-7.204401493E-1,5.501216412E0,9.099225044E0
3.709320181E1,-6.725305915E-1,5.539544106E0,8.941123962E0
3.711329509E1,-5.335928202E-1,5.759928226E0,8.423700333E0
3.713338832E1,-2.652992606E-1,6.147995472E0,7.829621792E0
3.715348155E1,-1.311524510E-1,6.636673450E0,7.417599201E0
3.717357478E1,-8.803384006E-2,7.034322739E0,7.355316639E0
3.719366800E1,-6.587565877E-3,7.187633514E0,6.904966831E0
3.721376129E1,-1.886439323E-1,7.043904781E0,6.310888290E0
3.723385504E1,-6.773215532E-1,6.818729877E0,6.459407806E0
3.725394879E1,-1.357637405E0,6.564808846E0,7.321780205E0
3.727404254E1,-1.554066658E0,6.363588810E0,8.711157799E0
3.729413628E1,-1.271400213E0,5.884492874E0,1.061795902E1
3.731422962E1,-1.745705009E0,4.911928654E0,1.247684956E1
3.733432285E1,-2.780551672E0,3.469850779E0,1.377040863E1
3.735441608E1,-3.959127188E0,2.444585800E0,1.359314346E1
3.737450931E1,-4.529251099E0,2.238574743E0,1.196900845E1
3.739460254E1,-3.944754362E0,2.645806074E0,9.420219421E0
3.741469587E1,-3.082381964E0,3.024291754E0,7.197215080E0
3.743478962E1,-2.229591608E0,3.201557159E0,5.855747223E0
3.745488337E1,-1.740913987E0,3.048246384E0,5.898865700E0
3.747497712E1,-1.922970414E0,2.549986839E0,7.235542774E0
3.749507087E1,-2.306246996E0,2.353557587E0,8.212898254E0
3.751516420E1,-2.234382629E0,2.607478380E0,8.366209030E0
3.753525743E1,-1.395965099E0,3.235093832E0,7.906276703E0
3.755535066E1,-5.192199945E-1,3.795635700E0,7.182842255E0
3.757544389E1,-1.616948098E-2,4.356177807E0,6.555226803E0
3.759553712E1,5.090392008E-2,4.892765045E0,5.975521088E0
3.761563050E1,-2.173896730E-1,5.343114853E0,5.386233330E0
3.763572425E1,-3.946550786E-1,5.980312347E0,5.074821472E0
3.765581800E1,-3.371635973E-1,6.478571892E0,5.347905636E0
3.767591175E1,-2.096043713E-2,6.780402184E0,5.898865700E0
3.769600550E1,4.437623918E-1,7.063068390E0,7.134932995E0
3.771609878E1,7.072650194E-1,7.273870468E0,8.629711151E0
3.773619202E1,4.245985746E-1,7.288243294E0,9.171089172E0
3.775628524E1,1.275592297E-1,6.957667351E0,9.286072731E0
3.777637847E1,-3.054235131E-2,6.526481152E0,1.038320160E1
3.779647170E1,-1.886439323E-1,6.080922127E0,1.199296379E1
3.781656519E1,-3.994460404E-1,5.601826668E0,1.265890598E1
3.783665894E1,-1.742710620E-1,5.180222511E0,1.264453316E1
3.785675269E1,4.245985746E-1,4.844855309E0,1.245768642E1
3.787684644E1,9.420219660E-1,4.528652191E0,1.258225060E1
3.789694019E1,1.095332623E0,4.016019821E0,1.239540386E1
3.791703342E1,1.042631984E0,3.709398508E0,1.232833004E1
3.793712665E1,1.215106487E0,3.393195391E0,1.176778793E1
3.795721988E1,1.085750699E0,3.321331024E0,1.036403751E1
3.797731311E1,8.605756760E-1,3.306958199E0,8.323090553E0
3.799740634E1,8.174570799E-1,3.618370295E0,6.315679073E0
3.801749998E1,7.743384242E-1,4.131002903E0,5.338324070E0
3.803759373E1,4.485533535E-1,4.590934753E0,5.625781536E0
3.805768748E1,-5.928809568E-2,4.830482483E0,5.975521088E0
3.807778123E1,-6.725305915E-1,5.419770241E0,5.793464661E0
3.809787483E1,-6.006662250E-1,5.788673878E0,5.750346184E0
3.811796806E1,-2.940450013E-1,6.497735500E0,4.964629173E0
3.813806128E1,-5.527566671E-1,7.446344852E0,3.436313868E0
3.815815452E1,-1.185163021E0,7.575700760E0,3.762099028E0
3.817824774E1,-1.755286932E0,6.076131344E0,7.091814041E0
3.819834103E1,-1.630722046E0,4.308268070E0,1.231395721E1
3.821843478E1,-2.700901926E-1,3.139274597E0,1.630003357E1
3.823852852E1,4.054347575E-1,2.296066284E0,1.666893768E1
3.825862228E1,4.868810177E-1,2.219410896E0,1.379436302E1
3.827871602E1,-6.587565877E-3,3.029082537E0,9.971179008E0
3.829880952E1,-4.186098874E-1,3.857918262E0,6.655837059E0
3.831890274E1,-6.102481484E-1,5.007748127E0,4.648426056E0
3.833899597E1,-7.396039963E-1,6.109668255E0,3.340494871E0
3.835908920E1,-1.304936886E0,6.890594006E0,2.818280458E0
3.837918243E1,-1.817569375E0,6.976831436E0,3.536924124E0
3.839927587E1,-2.315828800E0,6.679791927E0,5.386233330E0
3.841936962E1,-2.828461409E0,6.411498547E0,7.676311016E0
3.843946337E1,-2.598495245E0,6.037803650E0,9.899314880E0
3.845955712E1,-1.707377315E0,5.506007195E0,1.255829620E1
3.847965087E1,-1.362428427E0,4.533442974E0,1.470464516E1
3.849974420E1,-1.558857679E0,3.618370295E0,1.559097195E1
3.851983743E1,-1.750495911E0,2.966800213E0,1.417284870E1
3.853993066E1,-1.865478873E0,3.062619209E0,1.073773289E1
3.856002389E1,-1.338473678E0,3.460268736E0,7.752966404E0
3.858011712E1,-7.204401493E-1,3.771681070E0,5.563498974E0
3.860021066E1,-4.569375217E-1,4.006437778E0,4.456788063E0
3.862030441E1,-9.168694019E-1,3.924991608E0,4.279522419E0
3.864039816E1,-1.932552338E0,3.795635700E0,4.907137871E0
3.866049191E1,-2.282292128E0,3.685443640E0,6.157577515E0
3.868058566E1,-1.587603450E0,4.083093166E0,6.646255016E0
3.870067894E1,-4.665194452E-1,4.816109657E0,6.325261116E0
3.872077217E1,1.994235814E-1,5.271250725E0,5.932402611E0
3.874086540E1,2.521241307E-1,5.592244625E0,6.358798027E0
3.876095863E1,-1.790620238E-1,5.678482056E0,6.900176048E0
3.878105186E1,-6.006662250E-1,5.865329266E0,7.412808418E0
3.880114545E1,-7.252311110E-1,6.200695992E0,8.342253685E0
3.882123920E1,-5.575476289E-1,6.339633942E0,8.893214226E0
3.884133295E1,-4.042370021E-1,6.502526283E0,9.252535820E0
3.886142670E1,-4.281917810E-1,6.516899586E0,1.011490822E1
3.888152040E1,-6.916944385E-1,6.387543678E0,1.031133747E1
3.890161363E1,-8.929146528E-1,6.253396511E0,9.928060532E0
3.892170686E1,-9.312422872E-1,6.138413906E0,9.904106140E0
3.894180009E1,-1.223490715E0,6.147995472E0,9.779541016E0
3.896189332E1,-1.194744945E0,5.812628746E0,9.765168190E0
3.898198655E1,-1.022270441E0,5.295205116E0,1.045506573E1
3.900208024E1,-6.389939189E-1,4.753827095E0,1.140367603E1
3.902217399E1,-7.366096228E-2,4.327432156E0,1.195942688E1
3.904226774E1,4.245985746E-1,3.824381590E0,1.213190079E1
3.906236149E1,5.156267285E-1,3.177602291E0,1.190672588E1
3.908245509E1,5.970730186E-1,2.847026348E0,1.164801407E1
3.910254832E1,5.156267285E-1,2.890144825E0,9.865777969E0
3.912264155E1,5.204176903E-1,3.120110750E0,7.532582283E0
3.914273478E1,2.952427268E-1,3.383613348E0,5.846165180E0
3.916282800E1,-2.413444668E-1,3.661489010E0,5.098775864E0
3.918292123E1,-9.408242106E-1,3.771681070E0,5.405397415E0
3.920301498E1,-1.788823605E0,3.853127241E0,6.397125244E0
3.922310873E1,-1.903806567E0,4.154957294E0,7.508627415E0
3.924320248E1,-1.549275756E0,4.543025017E0,8.088333130E0
3.926329623E1,-6.389939189E-1,4.931092739E0,8.069169044E0
3.928338978E1,3.431523144E-1,5.242504597E0,8.040423393E0
3.930348300E1,1.148033142E0,5.266459465E0,8.375790596E0
3.932357623E1,1.282179832E0,5.185013294E0,8.529101372E0
3.934366946E1,8.174570799E-1,5.199386120E0,8.208106995E0
3.936376269E1,1.802597642E-1,5.314369202E0,7.743384361E0
3.938385597E1,3.239884675E-1,5.558708191E0,7.297825336E0
3.940394972E1,8.701575994E-1,5.956357479E0,7.163678646E0
3.942404347E1,1.263016105E0,6.483362675E0,7.513418674E0
3.944413722E1,1.277388930E0,6.967249393E0,8.016469002E0
3.946423097E1,1.061795831E0,7.297825336E0,8.289553642E0
3.948432441E1,8.989033103E-1,7.110978127E0,8.164988518E0
3.950441764E1,4.677171707E-1,6.698955536E0,8.577011108E0
3.952451087E1,-5.479657054E-1,6.234232903E0,9.889733315E0
3.954460410E1,-1.453456640E0,5.946775436E0,1.132702065E1
3.956469733E1,-1.851106048E0,6.061758518E0,1.175341511E1
3.958479066E1,-1.180372000E0,6.052176476E0,1.089104366E1
3.960488441E1,-7.970954776E-1,5.084403038E0,9.516038895E0
3.962497816E1,-1.573230505E0,3.287794352E0,9.218998909E0
3.964507191E1,-2.426020861E0,1.558258772E0,1.031133747E1
3.966516566E1,-3.609387398E0,3.940562308E-1,1.110184574E1
3.968525905E1,-4.366358280E0,3.844743073E-1,1.054609394E1
3.970535228E1,-3.992663860E0,1.328292847E0,8.093124390E0
3.972544550E1,-2.751806021E0,2.430212975E0,5.779091835E0
3.974553873E1,-9.216603637E-1,3.283003330E0,5.252086639E0
3.976563196E1,6.928921938E-1,3.589624643E0,6.291724205E0
3.978572530E1,1.358835220E0,3.709398508E0,8.509937286E0
3.980581905E1,1.234270334E0,4.068720341E0,1.020114517E1
3.982591280E1,1.157614946E0,4.672380924E0,1.063233185E1
3.984600655E1,1.373208046E0,5.271250725E0,9.971179008E0
3.986610030E1,1.708575130E0,5.597035408E0,9.113597870E0
3.988619363E1,1.459445357E0,5.702436447E0,8.342253685E0
3.990628686E1,8.797395229E-1,5.386233330E0,8.164988518E0
3.992638009E1,8.444061875E-2,5.007748127E0,8.174570084E0
3.994647332E1,-6.437848806E-1,4.634053230E0,8.078751564E0
3.996656655E1,-1.204326868E0,4.389714241E0,8.150615692E0
3.998665993E1,-1.467829466E0,4.188494205E0,8.260807991E0
4.000675368E1,-1.616349101E0,4.078302383E0,8.644083977E0
4.002684743E1,-1.726541162E0,4.174121380E0,9.209417343E0
4.004694118E1,-1.956507087E0,4.365759850E0,9.683721542E0
4.006703493E1,-2.085862875E0,4.380132675E0,1.001908875E1
4.008712821E1,-2.085862875E0,4.418460369E0,1.054609394E1
4.010722144E1,-1.860687971E0,4.648426056E0,1.104435349E1
4.012731467E1,-1.913388491E0,4.907137871E0,1.068024063E1
4.014740790E1,-2.052326202E0,5.165849686E0,9.793913841E0
4.016750113E1,-1.678631544E0,5.285623550E0,9.089643478E0
4.018759452E1,-1.007897615E0,5.093985081E0,8.581801414E0
4.020768826E1,-2.173896730E-1,4.840064526E0,9.425010681E0
4.022778202E1,5.569487438E-2,4.586143494E0,1.128869247E1
4.024787576E1,1.736721955E-2,4.049556255E0,1.180132484E1
4.026796952E1,1.275592297E-1,3.546505928E0,1.137972069E1
4.028806280E1,7.551746368E-1,3.005127907E0,1.103956318E1
4.030815602E1,8.989033103E-1,2.784743786E0,9.928060532E0
4.032824925E1,1.076168776E0,2.880563021E0,8.064378738E0
4.034834248E1,1.651083589E0,3.072201252E0,6.440244198E0
4.036843571E1,2.067896843E0,3.608788490E0,7.134932995E0
4.038852910E1,1.761275649E0,4.145375729E0,7.417599201E0
4.040862285E1,4.389714301E-1,4.245985508E0,6.521690369E0
4.042871660E1,-8.593779206E-1,3.924991608E0,6.421080112E0
4.044881035E1,-1.534902930E0,3.546505928E0,7.446344852E0
4.046890352E1,-1.970879912E0,3.455477715E0,8.476400375E0
4.048899498E1,-1.831942201E0,3.517760277E0,8.998615265E0
4.050909097E1,-1.343264580E0,3.474641562E0,9.664558411E0
4.052918420E1,-1.247445464E0,3.469850779E0,9.875360489E0
4.054927743E1,-1.151626348E0,3.718980551E0,9.525620461E0
4.056937066E1,-9.216603637E-1,4.001646996E0,9.204626083E0
4.058946389E1,-5.240109563E-1,4.408878326E0,9.147134781E0
4.060955712E1,2.042145431E-1,4.921510696E0,8.802186012E0
4.062965056E1,5.731182694E-1,5.362278938E0,8.284762383E0
4.064974431E1,6.641464233E-1,5.985103130E0,7.978141308E0
4.066983806E1,4.820900559E-1,6.449825764E0,8.222479820E0
4.068993181E1,2.215817571E-2,6.622300625E0,8.035633087E0
4.071002550E1,-3.659093380E-1,6.746865273E0,7.513418674E0
4.073011873E1,-4.617284834E-1,6.358798027E0,7.757757187E0
4.075021196E1,-9.360332489E-1,5.668900013E0,8.533892632E0
4.077030519E1,-1.597185373E0,5.438933849E0,9.396265030E0
4.079039842E1,-2.334992647E0,5.414979458E0,9.894524574E0
4.081049165E1,-2.742223978E0,5.472470760E0,1.059879494E1
4.083058504E1,-2.545794725E0,5.002956867E0,1.192588997E1
4.085067878E1,-2.277501106E0,3.862709045E0,1.290324497E1
4.087077254E1,-2.315828800E0,2.875771999E0,1.368896198E1
4.089086628E1,-2.176891088E0,2.056518316E0,1.371291733E1
4.091095998E1,-2.085862875E0,1.596586466E0,1.167675972E1
4.093105321E1,-1.922970414E0,1.994235873E0,8.763857841E0
4.095114644E1,-1.338473678E0,2.425421953E0,6.684582710E0
4.097123967E1,-2.940450013E-1,2.861399174E0,5.261668682E0
4.099133290E1,-9.282479435E-2,2.957218170E0,4.648426056E0
4.101142613E1,-7.204401493E-1,2.890144825E0,5.060448647E0
4.103151946E1,-1.314518809E0,2.861399174E0,6.128831863E0
4.105161321E1,-1.266609311E0,3.306958199E0,6.871430397E0
4.107170696E1,-3.850731850E-1,3.814799547E0,7.422390461E0
4.109180071E1,6.066549420E-1,4.317850113E0,8.141034126E0
4.111189446E1,1.397162914E0,4.734663486E0,8.078751564E0
4.113198769E1,1.181569815E0,5.271250725E0,7.336153030E0
4.115208092E1,2.185874134E-1,5.644945145E0,7.245124817E0
4.117217415E1,-6.677396297E-1,5.764719009E0,7.776921272E0
4.119226738E1,-9.791518450E-1,5.759928226E0,7.915858746E0
4.121236061E1,-6.581577063E-1,5.956357479E0,7.949395657E0
4.123245384E1,-4.090279639E-1,6.181532383E0,8.835722923E0
4.125254759E1,-8.497959971E-1,6.147995472E0,9.621439934E0
4.127264134E1,-1.165999174E0,5.985103130E0,9.453756332E0
4.129273509E1,-1.213908792E0,5.702436447E0,9.597484589E0
4.131282884E1,-1.175581098E0,5.371860504E0,1.070419598E1
4.133292217E1,-1.525321007E0,5.328742027E0,1.145637608E1
4.135301540E1,-1.357637405E0,5.132312775E0,1.119766426E1
4.137310863E1,-8.785417676E-1,5.012538910E0,1.082396984E1
4.139320186E1,-2.652992606E-1,4.681962967E0,1.101560783E1
4.141329509E1,7.006774843E-2,4.346595764E0,1.154740429E1
4.143338832E1,5.491634607E-1,3.881872892E0,1.160968685E1
4.145348196E1,7.647565007E-1,3.747726202E0,1.145158482E1
4.147357571E1,7.360107899E-1,3.359658718E0,1.111621857E1
4.149366946E1,5.539544225E-1,2.909308672E0,9.995134354E0
4.151376321E1,3.287794292E-1,2.454167843E0,8.476400375E0
4.153385660E1,2.425422072E-1,2.401467323E0,7.288243294E0
4.155394983E1,1.419321001E-1,2.617060423E0,6.780402184E0
4.157404306E1,-1.119886190E-1,3.134483576E0,6.416289330E0
4.159413629E1,-3.275817037E-1,3.580042601E0,6.445034981E0
4.161422952E1,-8.114683628E-1,3.718980551E0,6.895384789E0
4.163432274E1,-1.074970961E0,3.862709045E0,7.527791500E0
4.165441634E1,-1.276191235E0,4.111838818E0,7.757757187E0
4.167451009E1,-1.309727907E0,4.475951672E0,7.609237671E0
4.169460384E1,-8.977055550E-1,4.734663486E0,7.738593578E0
4.171469759E1,-3.898641467E-1,5.002956867E0,8.600965500E0
4.173479102E1,1.467230618E-1,5.271250725E0,9.266908646E0
4.175488425E1,5.779091716E-1,5.381442547E0,9.348355293E0
4.177497748E1,6.066549420E-1,5.587453842E0,8.763857841E0
4.179507071E1,4.964629412E-1,5.860538483E0,8.289553642E0
4.181516394E1,4.677171707E-1,6.033012867E0,8.141034126E0
4.183525717E1,4.629262388E-1,6.181532383E0,8.433281898E0
4.185535071E1,3.958528340E-1,6.306097031E0,8.663248062E0
4.187544446E1,3.527342081E-1,6.421080112E0,7.982932091E0
4.189553821E1,-1.616948098E-2,6.358798027E0,7.384062767E0
4.191563196E1,-4.617284834E-1,6.090504169E0,7.805666924E0
4.193572545E1,-9.935247302E-1,5.635363102E0,8.026050568E0
4.195581868E1,-1.189953923E0,5.558708191E0,8.989033699E0
4.197591191E1,-7.731407285E-1,5.256877899E0,1.063233185E1
4.199600514E1,-6.964854002E-1,4.571770668E0,1.239540386E1
4.201609837E1,-8.785417676E-1,3.479432583E0,1.404828358E1
4.203619160E1,-1.621140122E0,2.367930651E0,1.423513126E1
4.205628504E1,-2.373320341E0,1.965490103E0,1.270202541E1
4.207637878E1,-2.387693167E0,2.032563448E0,1.002388000E1
4.209647254E1,-2.205636978E0,2.200247049E0,7.647565365E0
4.211656629E1,-1.985252857E0,2.214619875E0,6.085713387E0
4.213665988E1,-2.057117224E0,1.907998681E0,6.181532383E0
4.215675311E1,-1.999625683E0,1.596586466E0,7.527791500E0
4.217684634E1,-1.846315145E0,1.802597642E0,8.644083977E0
