"Time (s)","Gyroscope x (rad/s)","Gyroscope y (rad/s)","Gyroscope z (rad/s)"
1.528478750E-1,-1.473825812E0,-9.682388306E-1,-6.185621619E-1
1.728494380E-1,-9.411513209E-1,-1.014682055E0,-1.665218621E-1
1.928541250E-1,-3.201457560E-1,-3.332357109E-1,2.426356673E-1
2.148494380E-1,5.664815307E-1,1.201484650E-1,5.337391496E-1
2.348494380E-1,1.185916305E0,-2.814168930E-1,3.500781357E-1
2.568478750E-1,1.461381674E0,-1.068787217E0,-1.964891702E-1
2.768478750E-1,1.363468647E0,-1.360623717E0,-4.387059510E-1
2.968494380E-1,1.017265201E0,-8.315097690E-1,-3.063401878E-1
3.168510000E-1,6.026970744E-1,-1.343903504E-2,-6.974335760E-2
3.388478750E-1,3.504795730E-1,7.036294937E-1,2.914699726E-3
3.588541250E-1,2.649409771E-1,7.366511226E-1,-7.780677825E-2
3.808494380E-1,5.167919770E-2,4.477991164E-1,-1.726654172E-1
4.028681880E-1,-2.816961408E-1,-1.964368075E-1,-3.065845370E-1
4.248556880E-1,-2.473306060E-1,-1.061910629E0,-4.347964227E-1
4.468478750E-1,2.485348880E-1,-1.347882867E0,-3.444058299E-1
4.668525630E-1,6.853559017E-1,-9.853954315E-1,-1.684591770E-1
4.888478750E-1,9.446769357E-1,-7.199657559E-1,-8.855800331E-2
5.088494380E-1,1.079555988E0,-1.204085231E0,-2.355321795E-1
5.288510000E-1,1.007665873E0,-1.347010255E0,-3.603406847E-1
5.488760000E-1,7.585375309E-1,-8.311257958E-1,-3.690673113E-1
5.708478750E-1,3.501653969E-1,1.121897623E-1,-2.327745557E-1
5.908478750E-1,2.469640970E-2,9.376083016E-1,-2.687108815E-1
6.108478750E-1,-8.503244072E-2,1.284876466E0,-5.283635259E-1
6.308494380E-1,-2.349213213E-1,1.795542359E0,-7.858519554E-1
6.528478750E-1,-6.400820613E-1,1.498051047E0,-1.273636580E0
6.728478750E-1,-9.489704370E-1,1.134097457E0,-1.507528186E0
6.928478750E-1,-1.365109324E0,1.012500405E0,-1.340430260E0
7.128478750E-1,-1.604760408E0,1.195620298E0,-6.479360461E-1
7.328478750E-1,-1.564827323E0,6.174276471E-1,-5.663070083E-1
7.528478750E-1,-1.495188713E0,2.422516942E-1,-3.480710089E-1
7.728478750E-1,-1.342367649E0,1.252448320E0,-1.319643408E-1
7.928650630E-1,-9.422509074E-1,2.066871166E0,9.597565234E-2
8.148478750E-1,-5.970422029E-1,3.164107502E-1,-6.752678752E-1
8.348478750E-1,-4.094018936E-1,-2.513693094E0,-1.282293439E0
8.548478750E-1,-5.358160939E-3,-4.037260532E0,-1.798701406E0
8.748494380E-1,5.585926175E-1,-4.522043228E0,-2.076191425E0
8.968494380E-1,1.020720959E0,-3.921859503E0,-2.522402287E0
9.188494380E-1,1.007369161E0,-1.745817900E0,-2.713603020E0
9.408478750E-1,6.744475961E-1,-3.176673651E-1,-2.278963566E0
9.608494380E-1,3.632553816E-1,-6.516710520E-1,-1.976550460E0
9.828478750E-1,3.985633850E-1,-1.268505335E0,-1.914120078E0
1.002868188E0,5.070181489E-1,-8.979195356E-1,-1.675359011E0
1.024847875E0,5.286951065E-1,-7.846825719E-1,-1.200856328E0
1.044849438E0,4.952895343E-1,-5.282064676E-1,-9.931446910E-1
1.064849438E0,2.781880200E-1,-3.551395833E-1,-8.193448186E-1
1.084849438E0,1.908342987E-1,-7.159689665E-1,-7.855377793E-1
1.106849438E0,4.570493698E-1,-9.682562947E-1,-9.171530604E-1
1.126849438E0,7.650127411E-1,-1.013896704E0,-1.034264684E0
1.146849438E0,1.058332801E0,-3.675314188E-1,-8.785812855E-1
1.168847875E0,1.156315565E0,2.391101122E-1,-4.467170238E-1
1.188849438E0,8.550193310E-1,1.765400469E-1,-3.477568626E-1
1.208849438E0,5.115211010E-1,-3.826110661E-1,-6.573957205E-1
1.228854125E0,2.719222903E-1,-5.218883753E-1,-7.122164965E-1
1.250851000E0,1.713564247E-1,2.270673364E-1,-4.881685972E-2
1.272847875E0,5.562364310E-2,9.579588771E-1,4.656538367E-2
1.292847875E0,5.595525727E-2,1.353625059E0,-9.072221071E-2
1.312847875E0,2.319891602E-1,9.586395621E-1,-1.280722618E-1
1.332847875E0,3.868696690E-1,4.964239895E-1,-5.633922666E-2
1.352847875E0,4.176747501E-1,2.905973233E-2,1.508837193E-1
1.372847875E0,2.280796319E-1,-5.272639394E-1,3.268478215E-1
1.392847875E0,8.662068844E-2,-4.073947668E-1,2.711369097E-1
1.412847875E0,1.228711754E-1,-4.429645464E-2,2.107135952E-1
1.432847875E0,5.927138031E-2,4.249876738E-2,1.452113986E-1
1.452847875E0,-1.943249553E-1,1.440420300E-1,2.317273617E-1
1.472847875E0,-4.718497694E-1,2.875081003E-1,3.741287887E-1
1.492847875E0,-6.047216654E-1,1.313534826E-1,4.783423841E-1
1.512847875E0,-7.522892356E-1,3.581415489E-2,2.771931887E-1
1.532847875E0,-8.262563348E-1,3.880041540E-1,-1.308996975E-1
1.552849438E0,-7.875449061E-1,2.714859545E-1,-7.880859971E-1
1.574847875E0,-5.621181726E-1,-3.390651047E-1,-1.441990972E0
1.594847875E0,-7.657108307E-1,-8.745321035E-1,-1.714541674E0
1.614847875E0,-1.251819968E0,-1.005065322E0,-1.688099861E0
1.634847875E0,-1.717944980E0,-7.544010878E-1,-1.753095984E0
1.654847875E0,-2.071915150E0,-5.130744576E-1,-1.520653009E0
1.674847875E0,-2.101166964E0,-9.012182355E-1,-1.177015185E0
1.694847875E0,-1.816015124E0,-1.579854608E0,-1.440001369E0
1.714847875E0,-1.239323378E0,-2.120679855E0,-1.450927138E0
1.734847875E0,-1.250615716E0,-1.327357769E0,-8.622275591E-1
1.754847875E0,-1.322261453E0,-7.660948038E-1,-2.887472808E-1
1.776846313E0,-1.623487830E0,-4.537332356E-1,1.440943778E-1
1.796847875E0,-1.496008992E0,-6.858446002E-1,2.827782333E-1
1.816847875E0,-8.666432500E-1,-1.614167809E0,-2.170491517E-1
1.836847875E0,-1.971349418E-1,-2.035926580E0,-6.173403859E-1
1.856847875E0,-2.897072136E-1,-1.760880113E0,-8.265530467E-1
1.878847875E0,-1.215918541E0,-9.665633440E-1,-8.747415543E-1
1.898847875E0,-1.842526674E0,-5.954539776E-1,-8.599586487E-1
1.918849438E0,-1.776465893E0,-7.776314616E-1,-9.580984712E-1
1.940847875E0,-1.477648139E0,-1.575840354E0,-1.274003029E0
1.960847875E0,-1.457349896E0,-1.908465147E0,-1.563710332E0
1.982847875E0,-1.754858732E0,-1.428010941E0,-1.831304193E0
2.002866625E0,-2.098967791E0,-8.005999923E-1,-1.943354249E0
2.024846313E0,-2.187944651E0,-6.435028911E-1,-1.727282524E0
2.044846313E0,-1.803378940E0,-8.729788065E-1,-1.522695065E0
2.064846313E0,-1.389369369E0,-1.068473101E0,-1.353136301E0
2.084847875E0,-1.216127992E0,-1.205970168E0,-1.298036218E0
2.106847875E0,-1.165321469E0,-1.269569993E0,-1.291980028E0
2.126847875E0,-1.213335395E0,-1.062992811E0,-9.743126035E-1
2.148852563E0,-1.234401584E0,-1.091144919E0,-7.682066560E-1
2.170847875E0,-1.250074625E0,-1.071719408E0,-7.606493831E-1
2.190847875E0,-1.137535810E0,-8.691390753E-1,-6.251245737E-1
2.210847875E0,-9.401739836E-1,-7.761653662E-1,-5.631304979E-1
2.230849438E0,-8.657181859E-1,-8.168140650E-1,-7.248352170E-1
2.252846313E0,-1.069939137E0,-8.766264915E-1,-7.920129299E-1
2.272847875E0,-1.667714477E0,-7.606145144E-1,-8.773421049E-1
2.294865063E0,-2.380820990E0,-1.278104633E-1,-9.709790349E-1
2.316847875E0,-2.415710211E0,1.142335415E0,-8.186292052E-1
2.338847875E0,-1.452515364E0,1.545174837E0,-2.044478655E-1
2.358847875E0,-1.588947773E-1,1.202584267E0,1.394169033E-1
2.378847875E0,5.603030324E-1,9.934414029E-1,1.991595179E-1
2.398847875E0,9.555503130E-1,1.306483626E0,2.117608041E-1
2.418847875E0,1.356016159E0,1.563954592E0,6.352474689E-1
2.438847875E0,1.699688911E0,1.350780129E0,1.065959811E0
2.460847875E0,2.041005373E0,7.867944241E-1,1.193979740E0
2.482847875E0,2.259311199E0,1.521054506E-1,6.344097257E-1
2.502866625E0,2.124763727E0,-1.282293350E-1,6.538003683E-2
2.524846313E0,1.862597942E0,-8.377580671E-4,-1.551423222E-1
2.544846313E0,1.631202221E0,1.375842988E-1,-3.808308393E-2
2.564846313E0,1.321266651E0,7.116754651E-1,2.707529366E-1
2.584847875E0,7.325321436E-1,1.384447575E0,7.408398986E-1
2.604847875E0,2.548529804E-1,1.850694776E0,1.374813318E0
2.626846313E0,2.056870461E-1,1.394657731E0,2.003638029E0
2.646847875E0,6.617241502E-1,6.114062667E-1,1.816067457E0
2.668855688E0,1.264648080E0,-1.764527857E-1,1.249289274E0
2.690846313E0,1.672391891E0,-1.091232181E0,5.787860751E-1
2.710847875E0,1.582455158E0,-1.691799998E0,2.463532239E-1
2.730847875E0,1.201519608E0,-1.931311488E0,1.659982651E-1
2.750847875E0,7.190232873E-1,-2.003498316E0,1.109505817E-1
2.770847875E0,3.365692794E-1,-2.018333673E0,9.770353138E-2
2.790847875E0,1.307600737E-1,-2.127853155E0,-2.129301615E-2
2.810847875E0,-1.085594818E-1,-2.154067993E0,-2.064724453E-2
2.830847875E0,-3.540574908E-1,-2.361011505E0,2.149547487E-1
2.850847875E0,-5.347165465E-1,-2.570677996E0,4.488637745E-1
2.870847875E0,-6.215466261E-1,-2.641870022E0,5.930279493E-1
2.890847875E0,-8.093266487E-1,-2.662168264E0,8.062199354E-1
2.910847875E0,-1.264124513E0,-2.199725628E0,1.159439683E0
2.930847875E0,-1.650941849E0,-1.817481160E0,1.111041665E0
2.950847875E0,-1.974456072E0,-1.702097416E0,9.244136214E-1
2.970847875E0,-2.223741531E0,-1.629875660E0,5.582261086E-1
2.990847875E0,-2.298424006E0,-1.606156707E0,2.894454002E-1
3.012846313E0,-2.360296011E0,-1.456913590E0,5.455899239E-2
3.032846313E0,-2.353349686E0,-1.476024985E0,-4.490732029E-2
3.052847875E0,-2.152305126E0,-1.446546316E0,-1.542696506E-1
3.072847875E0,-1.961139202E0,-1.249620795E0,-2.931978703E-1
3.092847875E0,-1.975677848E0,-1.048070192E0,-3.814417124E-1
3.114846313E0,-2.019939423E0,-1.045521975E0,-4.089131951E-1
3.134846313E0,-2.041581392E0,-9.795311093E-1,-3.321012557E-1
3.154847875E0,-2.190248489E0,-7.379775643E-1,-3.175452054E-1
3.176847875E0,-2.360906839E0,-7.026346326E-1,-3.322583139E-1
3.198847875E0,-2.210669041E0,-1.166979551E0,-2.479240149E-1
3.218847875E0,-1.850694776E0,-1.812786222E0,-1.945867538E-1
3.238847875E0,-1.390992522E0,-2.446951628E0,-1.289274693E-1
3.258860375E0,-8.920028806E-1,-2.755595684E0,-7.771950960E-2
3.280847875E0,-4.571191967E-1,-2.666740894E0,-1.011592820E-1
3.300847875E0,-2.674542665E-1,-2.298668385E0,-2.701595128E-1
3.320847875E0,-1.603957564E-1,-1.969638944E0,-4.684289098E-1
3.340847875E0,-7.290240377E-2,-1.788456321E0,-5.489584208E-1
3.360847875E0,2.228087336E-1,-1.682863951E0,-5.586973429E-1
3.380847875E0,6.096609831E-1,-1.303429365E0,-5.651550889E-1
3.400847875E0,1.072574615E0,-7.494269013E-1,-7.236135006E-1
3.420847875E0,1.228781581E0,-1.906946748E-1,-7.232993245E-1
3.440847875E0,1.295854568E0,4.799131751E-1,-6.553536654E-1
3.460847875E0,1.608617663E0,1.069642425E0,-6.373244524E-1
3.480847875E0,2.025838614E0,1.342245460E0,-6.814637780E-1
3.500847875E0,2.412132263E0,1.229497194E0,-8.942892551E-1
3.520847875E0,2.627785206E0,8.759632707E-1,-1.143801570E0
3.540847875E0,2.701752186E0,5.595525503E-1,-1.423071623E0
3.560847875E0,2.730078936E0,4.233994186E-1,-1.663403511E0
3.582846313E0,2.917213202E0,6.004630923E-1,-1.827918172E0
3.602866625E0,3.257499933E0,8.610232472E-1,-1.921729684E0
3.624847875E0,3.640337944E0,1.051246762E0,-1.897696495E0
3.644849438E0,3.707463264E0,1.161656260E0,-1.798841000E0
3.666847875E0,3.703361750E0,1.204730988E0,-1.648655415E0
3.686847875E0,3.759927988E0,1.194712758E0,-1.733652949E0
3.706847875E0,3.763156652E0,1.039221406E0,-1.919076800E0
3.726847875E0,3.624019146E0,8.913745284E-1,-1.952046037E0
3.746847875E0,3.510869503E0,8.489979506E-1,-1.754370093E0
3.766849438E0,3.470709324E0,5.806884766E-1,-1.482535005E0
3.788855688E0,3.383355618E0,-6.157521531E-2,-1.312714458E0
3.810847875E0,3.271689415E0,-7.536855340E-1,-1.395827055E0
3.830847875E0,3.019576788E0,-1.051141977E0,-1.468921423E0
3.850847875E0,2.529575586E0,-1.017614245E0,-1.249219418E0
3.870847875E0,1.734508157E0,-6.899286509E-1,-8.002508879E-1
3.890849438E0,7.695156932E-1,-4.280070961E-1,-1.919513047E-1
3.912847875E0,-3.384193406E-2,-4.360879660E-1,4.687256217E-1
3.932847875E0,-4.745899141E-1,-6.146875024E-1,1.016026020E0
3.952847875E0,-7.711737156E-1,-7.344694734E-1,1.414310098E0
3.972847875E0,-1.042345524E0,-8.157494068E-1,1.756464481E0
3.992849438E0,-1.386454701E0,-8.253661990E-1,2.102632999E0
4.014849438E0,-1.794320583E0,-8.436921835E-1,2.476517439E0
4.036849438E0,-2.089438438E0,-7.559719086E-1,2.897525787E0
4.058849438E0,-2.227494001E0,-5.033878684E-1,3.131103277E0
4.078849438E0,-2.162340879E0,-4.131717980E-1,3.178872824E0
4.098849438E0,-1.938781500E0,-5.331282616E-1,3.032876015E0
4.118849438E0,-1.744020224E0,-6.609212756E-1,2.711857557E0
4.138855688E0,-1.694278359E0,-6.033777595E-1,2.519749403E0
4.160849438E0,-1.751839280E0,-3.430269957E-1,2.329298973E0
4.180849438E0,-1.803186893E0,-6.063273922E-2,2.139389753E0
4.200849438E0,-1.899162531E0,2.029294372E-1,1.925272703E0
4.222847875E0,-2.138464689E0,4.684463739E-1,1.774860263E0
4.242849438E0,-2.356613398E0,6.384239793E-1,1.640993476E0
4.262849438E0,-2.432430506E0,6.464699507E-1,1.551527858E0
4.282849438E0,-2.426129818E0,5.046968460E-1,1.462638259E0
4.302869750E0,-2.351848602E0,3.594680130E-1,1.428255320E0
4.324847875E0,-2.045072079E0,5.318018049E-2,1.575369120E0
4.344849438E0,-1.565054178E0,-1.849001795E-1,1.692934513E0
4.364849438E0,-8.865225315E-1,-4.028568864E-1,1.841182709E0
4.384849438E0,-4.338888451E-2,-7.618536949E-1,1.893053889E0
4.404849438E0,7.307868004E-1,-1.021471381E0,1.646788001E0
4.426847875E0,1.141899109E0,-1.199791670E0,1.032850981E0
4.446847875E0,9.973858595E-1,-1.356993437E0,4.017747939E-1
4.466897875E0,3.331833482E-1,-1.393715262E0,4.089306295E-2
4.488855688E0,-4.618664682E-1,-1.012797117E0,-4.021413028E-1
4.510849438E0,-8.696801066E-1,-4.940328896E-1,-8.559269309E-1
4.530849438E0,-7.735822797E-1,1.430297345E-1,-1.219199777E0
4.550849438E0,-3.829601407E-1,8.708145618E-1,-1.432985067E0
4.570849438E0,3.127455413E-1,1.167799830E0,-1.468694568E0
4.590849438E0,1.011034369E0,8.468686342E-1,-1.542295098E0
4.610849438E0,1.516097665E0,3.076142669E-1,-1.865198493E0
4.630849438E0,1.834026933E0,-7.155849785E-2,-2.453322172E0
4.650849438E0,1.943354249E0,-1.269727051E-1,-3.002228022E0
4.670849438E0,1.918343782E0,5.124286562E-2,-3.276646137E0
4.690849438E0,1.845860243E0,4.938583672E-1,-3.269193649E0
4.710849438E0,1.797881126E0,1.045888543E0,-3.072530031E0
4.730849438E0,1.849036694E0,1.517354369E0,-2.878170013E0
4.750849438E0,1.999344468E0,1.754998326E0,-2.734320164E0
4.772849438E0,2.311548948E0,1.668953657E0,-2.572353601E0
4.792849438E0,2.630280972E0,1.422949433E0,-2.413999796E0
4.812849438E0,2.875482321E0,1.056779385E0,-2.289767265E0
4.832849438E0,2.973936319E0,7.312057018E-1,-2.149774313E0
4.852849438E0,2.929482698E0,5.247332454E-1,-1.934069157E0
4.874849438E0,2.919429779E0,4.244989753E-1,-1.475623488E0
4.896849438E0,3.030397654E0,4.212352037E-1,-7.475244999E-1
4.918851000E0,3.311326027E0,2.460565120E-1,-2.474004179E-1
4.940851000E0,3.345674038E0,2.012364566E-2,-2.224247605E-1
4.962847875E0,2.886408091E0,-8.456119895E-2,-5.277003050E-1
4.982849438E0,2.042698383E0,-1.186474785E-1,-6.005503535E-1
5.002869750E0,1.017561913E0,-8.573057503E-2,-1.997703910E-1
5.024847875E0,4.415683076E-2,6.056292448E-3,7.165972590E-1
5.044847875E0,-3.518234789E-1,-1.960004717E-1,1.660925150E0
5.064849438E0,-4.612905085E-1,-5.050982833E-1,2.270010233E0
5.084849438E0,-4.856378734E-1,-6.119822264E-1,2.338566542E0
5.106849438E0,-5.637239218E-1,-5.704085231E-1,2.191697121E0
5.126849438E0,-7.222346663E-1,-4.292462766E-1,1.918762565E0
5.146849438E0,-1.035905242E0,-1.026253626E-1,1.584217906E0
5.168852563E0,-1.593398333E0,2.498962432E-1,1.434276700E0
5.190849438E0,-2.248507738E0,5.332155228E-1,1.566816926E0
5.210849438E0,-2.761913776E0,8.529598713E-1,1.803413749E0
5.230849438E0,-3.091379404E0,1.047127724E0,1.977458000E0
5.250849438E0,-3.236800432E0,9.855001569E-1,1.982746363E0
5.270849438E0,-3.267116785E0,7.617140412E-1,1.847989559E0
5.290849438E0,-3.227096319E0,4.978900850E-1,1.791667700E0
5.310849438E0,-3.017063379E0,2.114640921E-1,1.868427277E0
5.330849438E0,-2.807274818E0,1.556833647E-2,1.998785973E0
5.350849438E0,-2.696237087E0,-8.588765562E-2,2.124275208E0
5.370849438E0,-2.638274670E0,-7.841764390E-2,2.275298357E0
5.390849438E0,-2.563033342E0,-8.861036599E-2,2.480863333E0
5.412849438E0,-2.259695292E0,-2.432989031E-1,2.597433805E0
5.432852563E0,-1.877939343E0,-4.334699810E-1,2.518492699E0
5.454849438E0,-1.693056583E0,-5.986130238E-1,2.168082952E0
5.476849438E0,-1.799800992E0,-6.286501288E-1,1.731907606E0
5.498849438E0,-1.921066403E0,-4.273962379E-1,1.304825544E0
5.518849438E0,-1.877537966E0,-8.899433911E-2,8.866447210E-1
5.538857250E0,-1.555821419E0,2.164906412E-1,3.776194453E-1
5.560847875E0,-9.314821959E-1,3.651403189E-1,-1.044754088E-1
5.580849438E0,-2.433338016E-1,4.640306830E-1,-4.350058734E-1
5.600849438E0,5.162160397E-1,4.546233714E-1,-6.452656984E-1
5.620849438E0,1.185445070E0,1.892635077E-1,-8.300436735E-1
5.640860375E0,1.809121013E0,-3.411245942E-1,-1.108563304E0
5.662849438E0,2.275804520E0,-9.342572689E-1,-1.439163566E0
5.684847875E0,2.537551641E0,-1.159457088E0,-1.752712011E0
5.704847875E0,2.656024694E0,-7.708246708E-1,-2.025943279E0
5.724847875E0,2.609598875E0,-1.033234894E-1,-2.370349169E0
5.744849438E0,2.501842260E0,3.752283454E-1,-2.630368233E0
5.764849438E0,2.453356981E0,6.710616350E-1,-2.744827032E0
5.786847875E0,2.487443209E0,8.543910384E-1,-2.754635811E0
5.806847875E0,2.499835014E0,8.085587025E-1,-2.727687836E0
5.826847875E0,2.541356564E0,1.156577349E0,-2.673512697E0
5.846847875E0,2.665117741E0,2.052018404E0,-2.454351902E0
5.866847875E0,2.672657490E0,2.595880508E0,-1.905009389E0
5.886847875E0,2.469518661E0,2.141519070E0,-1.189040422E0
5.906849438E0,2.171870232E0,1.181186438E0,-6.824411750E-1
5.928854125E0,1.926319838E0,3.025528193E-1,-6.272364259E-1
5.950847875E0,1.669512153E0,-1.676737815E-1,-7.941771746E-1
5.970847875E0,1.240091324E0,-3.433062732E-1,-7.622550726E-1
5.990847875E0,6.555980444E-1,-7.085512877E-1,-5.049760938E-1
6.010847875E0,2.120749503E-1,-1.404553652E0,-1.896649301E-1
6.030847875E0,1.844812930E-2,-1.871621251E0,4.653047770E-2
6.050847875E0,-4.497713596E-2,-1.400120616E0,2.677335143E-1
6.070847875E0,-3.239854574E-1,-7.110471129E-1,5.929756165E-1
6.090847875E0,-7.209256887E-1,-5.299866796E-1,1.098143697E0
6.110847875E0,-9.955009222E-1,-6.638708711E-1,1.584409833E0
6.130847875E0,-1.119209886E0,-5.463927984E-1,1.888550997E0
6.150847875E0,-1.130397439E0,-2.672797143E-1,2.007093668E0
6.170849438E0,-1.161987901E0,-8.581783623E-2,2.035071373E0
6.192849438E0,-1.179476023E0,-8.028514567E-4,1.941172600E0
6.214847875E0,-1.198692083E0,8.210028708E-2,1.849682450E0
6.234847875E0,-1.320044875E0,1.849525422E-1,1.722273469E0
6.256847875E0,-1.585526943E0,4.416904747E-1,1.520705342E0
6.278854125E0,-1.808806896E0,5.756270289E-1,1.382719636E0
6.300846313E0,-1.998977900E0,5.745275021E-1,1.256706834E0
6.320847875E0,-2.147505522E0,5.223944783E-1,1.116382360E0
6.340847875E0,-2.246168852E0,5.130046010E-1,1.028330564E0
6.360847875E0,-2.272663116E0,3.893654943E-1,1.028365493E0
6.380847875E0,-2.213793039E0,1.832770258E-1,1.010022044E0
6.400847875E0,-2.018071890E0,-5.429719388E-2,1.015746713E0
6.420847875E0,-1.768943548E0,-2.326698452E-1,1.112036586E0
6.440866625E0,-1.478887320E0,-3.513696790E-1,1.226233363E0
6.462847875E0,-1.139019370E0,-5.117130876E-1,1.306082249E0
6.482847875E0,-8.842884898E-1,-5.932548642E-1,1.289344549E0
6.502868188E0,-7.104537487E-1,-6.134657860E-1,1.200559616E0
6.524847875E0,-6.233617663E-1,-5.601459742E-1,1.024106860E0
6.546847875E0,-6.370277405E-1,-4.369431734E-1,7.083418965E-1
6.568847875E0,-6.400820613E-1,-1.977981627E-1,2.577327788E-1
6.588855688E0,-5.302659273E-1,9.213592857E-2,-2.273640335E-1
6.610847875E0,-1.994736791E-1,6.687577963E-1,-5.568822026E-1
6.630847875E0,2.654645741E-1,9.033126235E-1,-6.324898601E-1
6.650847875E0,7.553959489E-1,6.015626192E-1,-7.254111767E-1
6.670847875E0,1.392301440E0,7.185520232E-2,-8.699418902E-1
6.690847875E0,1.989134312E0,-5.541420579E-1,-1.127779365E0
6.710847875E0,2.298755646E0,-8.183325529E-1,-1.560655951E0
6.732846313E0,2.370890141E0,-5.090776086E-1,-2.174872160E0
6.752846313E0,2.280185461E0,2.125811018E-2,-2.639600992E0
6.772847875E0,2.175709963E0,5.899038315E-1,-2.841448307E0
6.792847875E0,2.089595556E0,1.087671757E0,-2.848464489E0
6.812847875E0,2.063031435E0,1.356539726E0,-2.806594133E0
6.832847875E0,2.112040281E0,1.334862709E0,-2.782421350E0
6.852852563E0,2.249572277E0,1.093483686E0,-2.711945057E0
6.874847875E0,2.331166506E0,6.158044934E-1,-2.621938229E0
6.896847875E0,2.209813833E0,1.202706397E-1,-2.536818504E0
6.918851000E0,1.998943090E0,-2.402794808E-1,-2.537080288E0
6.940847875E0,1.710893869E0,-3.236538470E-1,-2.413179398E0
6.960847875E0,1.480807185E0,-2.512750626E-1,-2.113960266E0
6.980847875E0,1.233092546E0,-1.754579544E-1,-1.712063313E0
7.000847875E0,1.068124056E0,-2.887647152E-1,-1.335211754E0
7.020847875E0,1.016462326E0,-6.543588638E-1,-9.282358885E-1
7.040847875E0,9.263858795E-1,-9.164200425E-1,-4.828453362E-1
7.060847875E0,7.067885399E-1,-8.533438444E-1,7.555530220E-2
7.080847875E0,4.210083187E-1,-5.299866796E-1,6.391221285E-1
7.100849438E0,5.750859901E-2,-4.698426425E-1,1.010213971E0
7.120849438E0,-4.489859343E-1,-4.869817793E-1,1.240318179E0
7.142849438E0,-8.654913306E-1,-3.169867098E-1,1.475326777E0
7.162849438E0,-1.225622535E0,-3.696607426E-2,1.618653297E0
7.184847875E0,-1.617222071E0,1.361705810E-1,1.688815475E0
7.204847875E0,-1.847622991E0,1.097462997E-1,1.774703145E0
7.224847875E0,-1.930526137E0,-1.752310619E-2,1.835213661E0
7.246847875E0,-1.950841784E0,-1.073202938E-1,1.930927515E0
7.266847875E0,-2.012748480E0,-9.477137774E-2,2.011771202E0
7.288847875E0,-2.169636250E0,4.907865822E-2,2.087134600E0
7.308849438E0,-2.278562307E0,1.862964481E-1,2.141972780E0
7.328854125E0,-2.285857677E0,1.976061761E-1,2.211489201E0
7.348854125E0,-2.255541325E0,2.040813416E-1,2.233794451E0
7.370847875E0,-2.339910507E0,1.528210342E-1,2.239763498E0
7.390847875E0,-2.476918936E0,5.270894244E-2,2.215154409E0
7.410847875E0,-2.540588617E0,-1.972221956E-2,2.153020620E0
7.430847875E0,-2.489153624E0,-2.516764775E-2,2.114780426E0
7.450847875E0,-2.429445982E0,-6.003932655E-2,2.139948130E0
7.470847875E0,-2.170945168E0,-2.627593279E-1,2.213042498E0
7.490847875E0,-1.693004251E0,-5.674239993E-1,2.243847609E0
7.510847875E0,-1.315140486E0,-7.910879254E-1,2.101219416E0
7.530847875E0,-1.197156191E0,-9.001011848E-1,1.884152770E0
7.550847875E0,-1.116906047E0,-9.016545415E-1,1.688326836E0
7.570847875E0,-9.488831758E-1,-9.113236666E-1,1.399806380E0
7.590847875E0,-8.020136952E-1,-7.946484089E-1,9.541540742E-1
7.610851000E0,-6.712361574E-1,-5.193750858E-1,3.880215883E-1
7.632849438E0,-4.587074220E-1,-7.342600077E-2,-2.806489468E-1
7.654847875E0,-9.016370773E-2,6.672568321E-1,-8.717396259E-1
7.674847875E0,3.705508411E-1,1.116260171E0,-1.157065988E0
7.694847875E0,9.111142159E-1,1.033653736E0,-1.352891922E0
7.714847875E0,1.598477244E0,5.119923353E-1,-1.607029319E0
7.734849438E0,2.274774790E0,-1.816887781E-2,-1.965397835E0
7.756847875E0,2.667526245E0,-1.745329201E-1,-2.436706543E0
7.776847875E0,2.737863064E0,1.685115397E-1,-2.861414909E0
7.798847875E0,2.767097235E0,8.236383200E-1,-3.191456795E0
7.818847875E0,2.768598318E0,1.347533822E0,-3.313961267E0
7.838854125E0,2.724267006E0,1.614499331E0,-3.286385059E0
7.860847875E0,2.766870499E0,1.608669996E0,-3.177371979E0
7.880847875E0,2.846946239E0,1.396891713E0,-3.046507120E0
7.900847875E0,2.902657032E0,1.099662185E0,-2.956465483E0
7.920847875E0,2.943305731E0,7.502123117E-1,-2.864800930E0
7.940852563E0,2.893982887E0,3.154682517E-1,-2.783293962E0
7.962846313E0,2.705085754E0,1.485275198E-2,-2.675816536E0
7.982847875E0,2.415046930E0,-8.339183033E-2,-2.446096420E0
8.002868188E0,2.061739922E0,-1.382998824E-1,-2.122267962E0
8.024847875E0,1.620485902E0,-2.514495850E-1,-1.753043652E0
8.046847875E0,1.192426443E0,-3.685088158E-1,-1.454522491E0
8.068847875E0,8.970119953E-1,-3.458893597E-1,-1.100831509E0
8.088849438E0,5.853136182E-1,-3.315252960E-1,-6.862111092E-1
8.110849438E0,1.699601561E-1,-2.606474757E-1,-1.841671467E-1
8.130849438E0,-1.924923658E-1,-1.448972374E-1,2.283239663E-1
8.150849438E0,-5.193052888E-1,-1.293987036E-1,5.301088691E-1
8.172846313E0,-9.207833409E-1,-6.888814270E-2,9.434028268E-1
8.192847875E0,-1.170958877E0,-2.981022373E-2,1.455604553E0
8.212847875E0,-1.296692371E0,1.119977757E-1,1.778036714E0
8.232847875E0,-1.300811291E0,3.536560535E-1,1.812890887E0
8.252847875E0,-1.138111711E0,4.945215881E-1,1.799643874E0
8.272847875E0,-9.796009660E-1,2.914525270E-1,2.011456966E0
8.292847875E0,-8.946034312E-1,-1.213701963E-1,2.475086212E0
8.312847875E0,-8.540070653E-1,-4.542219341E-1,2.911261559E0
8.332847875E0,-7.276277542E-1,-5.252742767E-1,3.126739979E0
8.352849438E0,-6.358758211E-1,-3.619987369E-1,3.146357298E0
8.374847875E0,-8.074765801E-1,-1.361531317E-1,3.027151346E0
8.394847875E0,-1.212078810E0,6.435029209E-2,2.946970940E0
8.414847875E0,-1.634902239E0,2.757271230E-1,2.932048321E0
8.434847875E0,-2.020271063E0,3.752632439E-1,2.890753984E0
8.454847875E0,-2.409688711E0,4.308868945E-1,2.859599829E0
8.474847875E0,-2.870089293E0,5.164254904E-1,2.847940922E0
8.494847875E0,-3.299859047E0,6.376909614E-1,2.683286667E0
8.514847875E0,-3.402589083E0,6.995454431E-1,2.470356464E0
8.534849438E0,-3.067328930E0,5.836904645E-1,2.087640762E0
8.556846313E0,-2.497723341E0,2.756223977E-1,1.568056107E0
8.576846313E0,-1.990652680E0,2.080432512E-2,1.284038782E0
8.596846313E0,-1.632022500E0,-7.864453644E-2,9.739286304E-1
8.616847875E0,-1.364620566E0,-1.681973785E-1,5.991715193E-1
8.638849438E0,-9.136100411E-1,-1.327846497E-1,2.336472273E-1
8.660847875E0,-4.197167754E-1,6.962118298E-2,-1.765575111E-1
8.680847875E0,3.258529678E-2,5.524141788E-1,-4.793372154E-1
8.700847875E0,4.426329434E-1,9.651496410E-1,-6.844308376E-1
8.720847875E0,8.912523985E-1,9.139940143E-1,-8.988620043E-1
8.740847875E0,1.539607286E0,3.666936755E-1,-1.130187988E0
8.760847875E0,2.114728212E0,-5.276305079E-1,-1.373329759E0
8.780847875E0,2.421277761E0,-1.191623569E0,-1.635879636E0
8.800847875E0,2.603804350E0,-1.319713235E0,-1.958800435E0
8.820847875E0,2.696900129E0,-1.006234646E0,-2.287952185E0
8.840847875E0,2.694439173E0,-5.055869818E-1,-2.561898947E0
8.860847875E0,2.638274670E0,-8.943066746E-2,-2.652813196E0
8.880847875E0,2.643912077E0,1.203579083E-1,-2.540012598E0
8.900847875E0,2.663773775E0,1.523323357E-1,-2.486745119E0
8.920847875E0,2.666234732E0,4.499458894E-2,-2.525630951E0
8.942846313E0,2.686044216E0,-1.715484113E-1,-2.551357269E0
8.962847875E0,2.616946697E0,-4.021413028E-1,-2.455713272E0
8.982847875E0,2.481160164E0,-6.968401670E-1,-2.267514229E0
9.002868188E0,2.240845680E0,-9.001011848E-1,-2.056800604E0
9.024847875E0,1.934365869E0,-1.053079247E0,-1.851096153E0
9.046847875E0,1.586818457E0,-1.055976510E0,-1.662495971E0
9.068852563E0,1.250947237E0,-8.697848320E-1,-1.469270468E0
9.090847875E0,7.788706422E-1,-5.653296113E-1,-1.199861526E0
9.110847875E0,1.053655297E-1,-1.211258471E-1,-8.870286942E-1
9.130847875E0,-6.873978972E-1,3.739542365E-1,-5.217487216E-1
9.150847875E0,-1.329347491E0,9.647482038E-1,-2.923077345E-1
9.170849438E0,-1.858164787E0,9.162803888E-1,2.169793248E-1
9.192847875E0,-2.163230896E0,1.114567220E-1,1.046412110E0
9.212847875E0,-2.086174488E0,-3.442138433E-1,1.363555908E0
9.234847875E0,-1.888603330E0,-1.312836707E-1,1.272624254E0
9.256847875E0,-1.616768241E0,2.696010172E-1,1.233581305E0
9.278847875E0,-1.132823348E0,3.686484396E-1,1.519361496E0
9.300847875E0,-4.756720364E-1,1.670629084E-1,1.817393899E0
9.320847875E0,-4.647811875E-2,-1.208291426E-1,1.956601381E0
9.340847875E0,6.002187356E-2,-2.946988344E-1,1.978854299E0
9.360847875E0,-1.182809621E-1,-3.570594490E-1,1.963757157E0
9.380847875E0,-4.209035933E-1,-2.910511196E-1,1.979674578E0
9.400847875E0,-6.171135306E-1,-1.827359758E-2,2.108811617E0
9.420847875E0,-7.262489796E-1,2.786069214E-1,2.318460464E0
9.440847875E0,-8.352971077E-1,3.991917074E-1,2.402812243E0
9.460849438E0,-1.045190454E0,4.011639357E-1,2.350138187E0
9.482847875E0,-1.499534488E0,3.521027267E-1,2.183616400E0
9.502868188E0,-1.898900747E0,3.145956099E-1,2.136370182E0
9.524847875E0,-1.957090020E0,2.473829687E-1,2.332615137E0
9.546847875E0,-1.713215232E0,1.076344550E-1,2.553486586E0
9.568854125E0,-1.335717916E0,-1.329068244E-1,2.669271708E0
9.590847875E0,-8.300262094E-1,-4.367860854E-1,2.633073568E0
9.610847875E0,-4.942947030E-1,-7.071899772E-1,2.358987093E0
9.630847875E0,-4.951673746E-1,-8.506560326E-1,1.848862171E0
9.650847875E0,-6.629458666E-1,-8.918981552E-1,1.211939216E0
9.670847875E0,-7.396879792E-1,-7.354817390E-1,5.194274187E-1
9.690847875E0,-6.526135206E-1,-3.076840937E-1,-1.935046464E-1
9.710847875E0,-5.098455548E-1,4.686907232E-1,-8.658753037E-1
9.730847875E0,-1.998227388E-1,9.514487982E-1,-1.207226753E0
9.750849438E0,2.192657143E-1,8.267624378E-1,-1.260110259E0
9.772847875E0,7.939851880E-1,2.240653634E-1,-1.346399307E0
9.792847875E0,1.373800993E0,-4.377111197E-1,-1.645252109E0
9.812847875E0,1.827481866E0,-1.009289026E0,-2.064008951E0
9.832847875E0,2.056504011E0,-1.241313100E0,-2.567623615E0
9.852847875E0,2.086767912E0,-1.029482484E0,-3.045285463E0
9.874847875E0,2.063956499E0,-4.258254170E-1,-3.402030706E0
9.894847875E0,2.023936272E0,1.364323944E-1,-3.499961138E0
9.914847875E0,1.929740787E0,6.364168525E-1,-3.366984367E0
9.934847875E0,1.799608946E0,9.120741487E-1,-3.151540995E0
9.954847875E0,1.783970833E0,8.731533289E-1,-2.956814528E0
9.976847875E0,1.877660155E0,6.251595020E-1,-2.796226978E0
9.998847875E0,2.043815374E0,2.512401342E-1,-2.707057953E0
1.001884788E1,2.115984917E0,-9.025097638E-2,-2.577659369E0
1.003884944E1,2.076296091E0,-4.424060583E-1,-2.379320145E0
1.005885569E1,1.940631628E0,-6.741334200E-1,-2.153020620E0
1.008084788E1,1.786170006E0,-7.917860746E-1,-1.897731423E0
1.010084788E1,1.527040958E0,-7.075913548E-1,-1.636211276E0
1.012084788E1,1.175915599E0,-6.100623608E-1,-1.333030105E0
1.014084788E1,7.331430316E-1,-5.252917409E-1,-1.013477802E0
1.016084788E1,3.195872307E-1,-3.799756169E-1,-7.047290206E-1
1.018084788E1,-3.115412779E-2,-1.964717060E-1,-3.248406649E-1
1.020084788E1,-2.213601023E-1,-4.194026068E-2,1.673421711E-1
1.022084788E1,-3.187669218E-1,-5.585053563E-2,6.916565299E-1
1.024084944E1,-6.401343942E-1,1.485275198E-2,1.083238602E0
1.026284788E1,-1.031367421E0,2.103121765E-2,1.584689140E0
1.028284788E1,-1.183979034E0,6.291911751E-2,2.056224823E0
1.030286819E1,-1.070427895E0,1.749518067E-1,2.338793516E0
1.032484788E1,-7.710689902E-1,3.067066967E-1,2.362565041E0
1.034484788E1,-4.079008996E-1,2.951002717E-1,2.227092505E0
1.036484788E1,-1.302364618E-1,5.660102889E-2,2.083504200E0
1.038484788E1,-2.759365551E-2,-2.187944800E-1,1.876368523E0
1.040484788E1,-1.171290427E-1,-3.028844297E-1,1.534353852E0
1.042484788E1,-4.474326074E-1,-3.796090931E-2,1.366400838E0
1.044484788E1,-8.671668172E-1,4.007101357E-1,1.427330256E0
1.046484788E1,-1.260057926E0,8.153305650E-1,1.571232677E0
1.048484788E1,-1.551370859E0,1.123904824E0,1.733932257E0
1.050484788E1,-1.696634531E0,1.286656737E0,1.861986995E0
1.052484788E1,-1.678657651E0,1.165600657E0,1.938135743E0
1.054484788E1,-1.583851337E0,8.078954816E-1,1.895340323E0
1.056684631E1,-1.500511885E0,3.452261388E-1,1.923265576E0
1.058684631E1,-1.387885809E0,-1.804670505E-2,2.125811100E0
1.060684788E1,-1.161673665E0,-2.947686613E-1,2.355112314E0
1.062684788E1,-8.322602510E-1,-5.107706189E-1,2.464876175E0
1.064884944E1,-5.700594187E-1,-7.006100416E-1,2.448068619E0
1.066885881E1,-4.613777995E-1,-8.491724730E-1,2.263552427E0
1.069084788E1,-5.256233811E-1,-9.358106256E-1,1.969272494E0
1.071084788E1,-6.929829717E-1,-9.516582489E-1,1.645705819E0
1.073084788E1,-9.471727014E-1,-8.513192534E-1,1.184101224E0
1.075084788E1,-1.137745261E0,-5.893278718E-1,5.591162443E-1
1.077084788E1,-1.120885372E0,3.298672382E-3,-5.464625731E-2
1.079084788E1,-8.244760633E-1,6.264510155E-1,-5.485569835E-1
1.081084788E1,-3.099355698E-1,9.986075759E-1,-9.263160229E-1
1.083084788E1,2.770361006E-1,9.148317575E-1,-1.264264107E0
1.085084944E1,7.281164527E-1,4.205894470E-1,-1.708066463E0
1.087084944E1,9.447118044E-1,-1.481609941E-1,-2.287044525E0
1.089284788E1,9.689893723E-1,-3.811973631E-1,-3.009942532E0
1.091284944E1,9.109222293E-1,-9.012880176E-2,-3.503277302E0
1.093484788E1,9.520770907E-1,3.554886580E-1,-3.750991821E0
1.095484788E1,1.165164351E0,8.517206907E-1,-3.684599400E0
1.097484788E1,1.387763619E0,1.220159650E0,-3.403741121E0
1.099484788E1,1.606139183E0,1.337096691E0,-3.019733667E0
1.101484788E1,1.811145663E0,1.208012223E0,-2.729380846E0
1.103484788E1,2.004370928E0,9.447816014E-1,-2.563277721E0
1.105484788E1,2.228523731E0,5.930105448E-1,-2.473637581E0
1.107484788E1,2.427752972E0,2.179741710E-1,-2.407332659E0
1.109484788E1,2.486867189E0,-1.693841964E-1,-2.302071810E0
1.111484788E1,2.361151218E0,-4.481307268E-1,-2.197386980E0
1.113484788E1,2.107485056E0,-5.384864211E-1,-2.114309311E0
1.115484944E1,1.654258013E0,-5.097757578E-1,-2.030271769E0
1.117484944E1,9.842086434E-1,-3.557853699E-1,-1.849316001E0
1.119684788E1,1.101302728E-1,-2.313259393E-1,-1.236391187E0
1.121684788E1,-6.605722308E-1,-3.415609300E-1,-4.945390522E-1
1.123684788E1,-1.198151112E0,-2.585356236E-1,2.864608765E-1
1.125684788E1,-1.334391475E0,-4.551818594E-2,9.211498499E-1
1.127684788E1,-1.147187471E0,2.256710641E-2,1.327218175E0
1.129684788E1,-1.080864906E0,-2.256885320E-1,1.543953180E0
1.131684788E1,-1.178341627E0,-5.630955696E-1,1.779223561E0
1.133684788E1,-1.265189171E0,-7.649080157E-1,2.001805305E0
1.135885412E1,-1.255502582E0,-7.481353879E-1,1.983758688E0
1.138084788E1,-1.205237150E0,-5.060058832E-1,1.867467403E0
1.140084788E1,-1.060636640E0,-2.884331048E-1,2.053362370E0
1.142084788E1,-8.209505081E-1,-2.007477731E-1,2.373682737E0
1.144085256E1,-7.163180113E-1,-1.525592357E-1,2.555510998E0
1.146085256E1,-8.425053358E-1,-5.878268927E-2,2.470199347E0
1.148284788E1,-1.075402021E0,1.087514684E-1,2.189986706E0
1.150286819E1,-1.320533514E0,2.181836069E-1,1.963477969E0
1.152484788E1,-1.631708264E0,3.450515866E-1,1.859787941E0
1.154684788E1,-1.901326776E0,4.539950490E-1,1.816329241E0
1.156884788E1,-2.045525789E0,4.487939477E-1,1.755871058E0
1.158885413E1,-2.038230419E0,3.478790224E-1,1.698728919E0
1.161084788E1,-1.884065509E0,1.260825843E-1,1.745975018E0
1.163084788E1,-1.567934036E0,-1.833293885E-1,1.831600904E0
1.165084788E1,-1.204416752E0,-5.386086106E-1,1.831147075E0
1.167084788E1,-8.627860546E-1,-7.925365567E-1,1.719515800E0
1.169085100E1,-6.218084693E-1,-8.679347634E-1,1.537966728E0
1.171284788E1,-4.345171750E-1,-7.955210805E-1,1.349593282E0
1.173284788E1,-3.739891648E-1,-7.174699306E-1,1.138338685E0
1.175284788E1,-4.024205506E-1,-5.590813160E-1,8.506560326E-1
1.177284788E1,-4.317595363E-1,-4.147949517E-1,3.875154555E-1
1.179284788E1,-3.615798652E-1,-2.066120803E-1,-1.744282097E-1
1.181284788E1,-1.481086463E-1,2.896897495E-1,-6.703809500E-1
1.183284788E1,3.238981962E-1,7.649603486E-1,-9.857968688E-1
1.185284944E1,9.038885832E-1,7.830419540E-1,-1.185863972E0
1.187284944E1,1.436528087E0,3.906745017E-1,-1.464680314E0
1.189484788E1,1.774982333E0,-1.415811032E-1,-1.912811041E0
1.191484788E1,1.850869298E0,-3.606548309E-1,-2.452117682E0
1.193484788E1,1.795734406E0,-1.948311031E-1,-2.927842140E0
1.195484788E1,1.655025959E0,3.809355497E-1,-3.274499416E0
1.197484788E1,1.519658208E0,1.033217430E0,-3.407615662E0
1.199484788E1,1.481225967E0,1.414083242E0,-3.407964706E0
1.201484788E1,1.571075559E0,1.559678555E0,-3.232227564E0
1.203684788E1,1.741995692E0,1.362683296E0,-2.902726889E0
1.205884788E1,2.060046911E0,8.710240126E-1,-2.635028362E0
1.207884788E1,2.313887596E0,4.556356668E-1,-2.527795315E0
1.209885256E1,2.457842350E0,1.520879865E-1,-2.496518850E0
1.212084788E1,2.416460752E0,-8.695230633E-2,-2.440040112E0
1.214085412E1,2.253534317E0,-2.068564296E-1,-2.341795444E0
1.216284631E1,2.039277554E0,-3.305304646E-1,-2.095215321E0
1.218284944E1,1.738068700E0,-3.042457998E-1,-1.779031515E0
1.220286975E1,1.346922994E0,-1.146855876E-1,-1.467734575E0
1.222484788E1,9.964084625E-1,1.861219108E-1,-1.183350682E0
1.224484788E1,7.100348473E-1,3.415434659E-1,-8.248600364E-1
1.226484788E1,4.752357006E-1,1.771160066E-1,-4.269773364E-1
1.228484788E1,3.112794757E-1,-9.560913593E-2,4.621632025E-2
1.230484788E1,1.733984649E-1,-3.880215883E-1,4.991118014E-1
1.232484788E1,-1.634326279E-1,-3.814068139E-1,7.845429778E-1
1.234484788E1,-6.941348910E-1,-2.976135314E-1,1.144237876E0
1.236484944E1,-1.166944623E0,-1.335351467E-1,1.616331935E0
1.238684788E1,-1.366941810E0,1.308647841E-1,1.982606769E0
1.240684788E1,-1.193124533E0,2.113419175E-1,2.072840214E0
1.242684788E1,-7.516784072E-1,9.403833747E-2,2.045543432E0
1.244684788E1,-3.835361004E-1,-1.627519578E-1,2.053955793E0
1.246684788E1,-2.902831733E-1,-3.906570375E-1,2.077133894E0
1.248684788E1,-4.994783103E-1,-4.912927151E-1,1.950597405E0
1.250885413E1,-1.032885790E0,-3.122394085E-1,1.808806896E0
1.252885412E1,-1.636595249E0,8.901178837E-2,1.819488287E0
1.254885881E1,-2.109160662E0,5.301263332E-1,1.873506188E0
1.257084788E1,-2.275211096E0,7.386407852E-1,1.888428807E0
1.259084788E1,-2.205624819E0,6.360328794E-1,1.872005224E0
1.261084788E1,-2.017059565E0,3.279124498E-1,1.945309043E0
1.263084788E1,-1.730162382E0,-4.626867920E-2,2.051582098E0
1.265084788E1,-1.430070400E0,-3.913551867E-1,2.164976120E0
1.267084788E1,-1.144237876E0,-5.978276134E-1,2.238908291E0
1.269084788E1,-8.833809495E-1,-7.601083517E-1,2.248525143E0
1.271084788E1,-7.321132421E-1,-7.745247483E-1,2.240671158E0
1.273084944E1,-8.013155460E-1,-5.960822701E-1,2.220320702E0
1.275084944E1,-1.029360294E0,-4.906294942E-1,2.018054485E0
1.277085100E1,-1.292870045E0,-3.241425455E-1,1.620730162E0
1.279284788E1,-1.419930100E0,2.181661548E-3,1.000160933E0
1.281284788E1,-1.380887032E0,2.404540032E-1,3.666762114E-1
1.283284788E1,-1.160574079E0,6.636090875E-1,-1.023112014E-1
1.285284944E1,-7.006973028E-1,1.146018147E0,-4.257032573E-1
1.287484788E1,1.043706853E-2,1.124341130E0,-6.977651715E-1
1.289484788E1,6.282486916E-1,6.404834986E-1,-9.476963282E-1
1.291484788E1,1.101355076E0,-3.007202223E-2,-1.260022998E0
1.293484788E1,1.357517123E0,-5.259026289E-1,-1.700613856E0
1.295484788E1,1.529606581E0,-4.963018298E-1,-2.173755169E0
1.297484788E1,1.597307920E0,-8.679522574E-2,-2.589440346E0
1.299484788E1,1.635408401E0,5.048539639E-1,-2.762105703E0
1.301484788E1,1.739028573E0,9.958150387E-1,-2.652394295E0
1.303484788E1,1.981088281E0,1.141672254E0,-2.400595665E0
1.305484788E1,2.278073549E0,1.026305914E0,-2.123629332E0
1.307484788E1,2.573941708E0,6.758438349E-1,-1.939898491E0
1.309484788E1,2.758423090E0,2.071182281E-1,-1.910716653E0
1.311484788E1,2.761250496E0,-1.982519478E-1,-1.997232556E0
1.313484788E1,2.631433010E0,-4.746248424E-1,-2.054968119E0
1.315484788E1,2.403545380E0,-5.662720799E-1,-1.980617046E0
1.317484788E1,2.155656099E0,-5.485744476E-1,-1.846069694E0
1.319484788E1,1.920263648E0,-6.073047519E-1,-1.681153536E0
1.321484788E1,1.617361665E0,-6.662096381E-1,-1.430960536E0
1.323484788E1,1.291753054E0,-6.843959689E-1,-1.166682839E0
1.325484788E1,8.632922173E-1,-6.643944979E-1,-8.456643820E-1
1.327484788E1,2.997603118E-1,-4.817806780E-1,-4.381299913E-1
1.329484788E1,-1.818283945E-1,-2.091777027E-1,4.424409568E-2
1.331484788E1,-5.075941086E-1,1.367814541E-1,4.612730742E-1
1.333484788E1,-7.535808086E-1,2.909289300E-1,7.870213389E-1
1.335484788E1,-1.070672274E0,3.041585386E-1,1.085926414E0
1.337484788E1,-1.315995693E0,2.391101122E-1,1.429267526E0
1.339484788E1,-1.401586652E0,3.328692019E-1,1.624727011E0
1.341484788E1,-1.256392717E0,4.138699174E-1,1.581303239E0
1.343484788E1,-9.320581555E-1,3.843913078E-1,1.520722866E0
1.345484788E1,-5.163905621E-1,1.415287554E-1,1.560289383E0
1.347484788E1,-2.869495749E-1,-9.651670605E-2,1.612963438E0
1.349484788E1,-4.274311364E-1,-9.115854651E-2,1.602404237E0
1.351484788E1,-8.218057156E-1,1.614429504E-1,1.535069466E0
1.353484788E1,-1.269953966E0,5.191830993E-1,1.524580002E0
1.355484788E1,-1.580395579E0,7.962715626E-1,1.596923947E0
1.357485725E1,-1.727858543E0,9.556201100E-1,1.577445984E0
1.359684788E1,-1.681258202E0,8.849517703E-1,1.492465973E0
1.361684788E1,-1.569469929E0,6.502572894E-1,1.444469333E0
1.363684788E1,-1.505259156E0,3.849498332E-1,1.488067746E0
1.365684788E1,-1.426492453E0,9.436995536E-2,1.625652075E0
1.367684788E1,-1.307129383E0,-2.337694019E-1,1.791685224E0
1.369684944E1,-1.138565540E0,-5.196194053E-1,1.988820076E0
1.371884788E1,-8.651073575E-1,-7.094065547E-1,2.185710669E0
1.373884788E1,-5.803568959E-1,-8.325744271E-1,2.248472691E0
1.375885413E1,-4.264712036E-1,-8.713207245E-1,2.159338713E0
1.378084788E1,-4.390550256E-1,-7.954512835E-1,1.911432266E0
1.380084944E1,-5.818578601E-1,-6.363121271E-1,1.574252129E0
1.382284944E1,-7.732506394E-1,-3.813020885E-1,1.034369349E0
1.384284944E1,-9.165596366E-1,-2.208888680E-1,4.849222898E-1
1.386484944E1,-9.450957775E-1,8.527678996E-2,-8.286823332E-2
1.388684788E1,-7.135604024E-1,6.373069882E-1,-5.336344242E-1
1.390684788E1,-2.404889166E-1,1.141201019E0,-8.022580147E-1
1.392684788E1,2.091777027E-1,1.142649651E0,-9.879436493E-1
1.394684788E1,6.077411175E-1,7.519053221E-1,-1.247456670E0
1.396684788E1,8.699418902E-1,1.583537161E-1,-1.666126251E0
1.398684788E1,9.532988071E-1,-2.549577057E-1,-2.154312134E0
1.400684788E1,9.483420849E-1,-2.238908410E-1,-2.603141069E0
1.402684788E1,9.448689222E-1,2.047445774E-1,-2.919534445E0
1.404684788E1,1.081982017E0,7.752228975E-1,-3.064431667E0
1.406684788E1,1.321510911E0,1.263059855E0,-2.954824924E0
1.408684788E1,1.566520214E0,1.492692828E0,-2.685084343E0
1.410684788E1,1.789433718E0,1.399701715E0,-2.444787502E0
1.412684788E1,2.044984818E0,1.155582547E0,-2.273797512E0
1.414684788E1,2.349073648E0,7.960446477E-1,-2.151607037E0
1.416684788E1,2.579072952E0,3.174055815E-1,-2.078896523E0
1.418684788E1,2.676148176E0,-2.178345472E-1,-2.039382219E0
1.420684788E1,2.630071640E0,-6.269571781E-1,-1.996307611E0
1.422684788E1,2.361814499E0,-8.273907900E-1,-1.801319361E0
1.424684788E1,1.982868552E0,-7.976154685E-1,-1.467664838E0
1.426684788E1,1.551475525E0,-6.749362946E-1,-1.099313021E0
1.428684788E1,1.087724090E0,-5.535486341E-1,-7.637211680E-1
1.430684944E1,6.096085906E-1,-4.232248962E-1,-4.277278483E-1
1.432684944E1,2.261074036E-1,-4.351629317E-1,-3.152064607E-2
1.434885100E1,-6.707300246E-2,-5.325697660E-1,4.664916098E-1
1.437084788E1,-1.896649301E-1,-6.363295913E-1,1.013338208E0
1.439084788E1,-2.334203273E-1,-6.667681336E-1,1.378461003E0
1.441084788E1,-4.193851650E-1,-6.964038014E-1,1.552557588E0
1.443084788E1,-7.704232335E-1,-5.607742667E-1,1.676807642E0
1.445084788E1,-1.031664133E0,-4.521100819E-1,1.928815722E0
1.447084788E1,-1.194171667E0,-2.624975145E-1,2.143246889E0
1.449084944E1,-1.259726286E0,-7.946483791E-2,2.189393282E0
1.451284788E1,-1.147937894E0,1.816887781E-2,2.203530550E0
1.453284788E1,-7.934964895E-1,-1.119454205E-1,2.275071621E0
1.455284788E1,-4.210606813E-1,-3.896098435E-1,2.311915398E0
1.457284788E1,-2.391624600E-1,-4.891808927E-1,2.210442066E0
1.459284788E1,-3.570943773E-1,-4.202054739E-1,1.952220559E0
1.461284788E1,-6.952868104E-1,-1.825614423E-1,1.684818625E0
1.463284788E1,-1.054719925E0,2.074149251E-1,1.564931989E0
1.465284944E1,-1.335944772E0,5.809677243E-1,1.507318735E0
1.467284944E1,-1.503967643E0,8.228354454E-1,1.456390023E0
1.469484788E1,-1.514108062E0,8.391193748E-1,1.347010255E0
1.471484788E1,-1.371025920E0,6.523168087E-1,1.276952744E0
1.473484788E1,-1.090918064E0,2.453060299E-1,1.255869150E0
1.475484788E1,-7.233517170E-1,-1.593311131E-1,1.241016388E0
1.477484788E1,-3.968180716E-1,-4.744502902E-1,1.251470923E0
1.479484788E1,-1.491907388E-1,-6.825633645E-1,1.263932586E0
1.481484788E1,9.501572698E-2,-8.187164664E-1,1.210996747E0
1.483484788E1,3.147875965E-1,-9.040805697E-1,1.148269534E0
1.485484788E1,3.759264648E-1,-9.093165398E-1,1.021733165E0
1.487484788E1,2.496518940E-1,-8.518602848E-1,7.969522476E-1
1.489484788E1,1.064650808E-2,-7.177666426E-1,4.331209064E-1
1.491484788E1,-1.712342501E-1,-5.872160196E-1,3.473205259E-3
1.493484788E1,-2.815739810E-1,-1.757372022E-1,-5.025849938E-1
1.495484788E1,-1.899267286E-1,5.258677006E-1,-9.792867899E-1
1.497484788E1,7.298967242E-2,9.708219171E-1,-1.293184280E0
1.499484788E1,3.913202584E-1,9.508379102E-1,-1.444347262E0
1.501484788E1,8.117875457E-1,4.902455211E-1,-1.591635585E0
1.503484788E1,1.160609007E0,-5.618214980E-2,-1.851427794E0
1.505484788E1,1.398671985E0,-4.066268206E-1,-2.252329826E0
1.507484788E1,1.533027411E0,-3.656115830E-1,-2.578671694E0
1.509484788E1,1.597499847E0,-1.632406414E-1,-2.746572256E0
1.511484788E1,1.675027370E0,2.043606043E-1,-2.764933109E0
1.513484788E1,1.702830434E0,5.344372392E-1,-2.574954033E0
1.515484788E1,1.744770765E0,7.728143334E-1,-2.346368313E0
1.517484788E1,1.882285237E0,7.785913944E-1,-2.143177032E0
1.519484788E1,2.051931143E0,6.201853156E-1,-2.043902636E0
1.521684631E1,2.213042498E0,2.893232405E-1,-1.967160583E0
1.523684631E1,2.323137999E0,-4.555309191E-2,-1.851619840E0
1.525684788E1,2.285019875E0,-4.504694641E-1,-1.674486279E0
1.527885100E1,2.025646687E0,-8.106356263E-1,-1.417573810E0
1.530084631E1,1.651639938E0,-1.009568214E0,-1.215115666E0
1.532084788E1,1.266271234E0,-1.023513436E0,-1.061020613E0
1.534084788E1,8.408996463E-1,-8.442157507E-1,-9.676803350E-1
1.536084788E1,3.023433983E-1,-5.821371078E-1,-8.392066360E-1
1.538084788E1,-1.886700988E-1,-3.767816722E-1,-5.635842681E-1
1.540084788E1,-5.322905183E-1,-2.926219106E-1,-1.157676876E-1
1.542084788E1,-6.317219138E-1,-2.684839964E-1,3.830125034E-1
1.544084788E1,-6.201329231E-1,-2.078512609E-1,8.826653361E-1
1.546084788E1,-7.771602273E-1,-2.253569067E-1,1.196074128E0
1.548084788E1,-1.054510474E0,-3.705333918E-2,1.487107754E0
1.550084788E1,-1.300776482E0,2.057045102E-1,1.871830702E0
1.552085413E1,-1.423857093E0,6.075491309E-1,2.134240866E0
1.554085413E1,-1.433753014E0,9.147794247E-1,2.308320045E0
1.556284788E1,-1.278506041E0,8.828224540E-1,2.475243330E0
1.558284788E1,-9.268919826E-1,5.609662533E-1,2.570922375E0
1.560286819E1,-6.889512539E-1,1.619665474E-1,2.477076054E0
1.562484788E1,-6.625968218E-1,-1.580744684E-1,2.120644808E0
1.564484788E1,-8.375834823E-1,-2.580643892E-1,1.846122026E0
1.566484788E1,-1.054440618E0,-1.572367102E-1,1.747196794E0
1.568484788E1,-1.218222380E0,1.292939931E-1,1.840641618E0
1.570484788E1,-1.349732876E0,5.585053563E-1,2.013656139E0
1.572484788E1,-1.435323834E0,8.786336780E-1,2.132460833E0
1.574684631E1,-1.394971848E0,9.769829512E-1,2.130732775E0
1.576684788E1,-1.215953469E0,8.688946962E-1,2.183843136E0
1.578885569E1,-9.232966304E-1,5.555732250E-1,2.283379316E0
1.581084788E1,-6.004456282E-1,1.493303776E-1,2.324063063E0
1.583084788E1,-3.789458871E-1,-1.570970863E-1,2.308442354E0
1.585084788E1,-2.712241709E-1,-3.278775513E-1,2.209621668E0
1.587084788E1,-3.150668442E-1,-4.173082113E-1,2.059977293E0
1.589084788E1,-4.301363826E-1,-5.337566137E-1,1.813920736E0
1.591084944E1,-5.382769704E-1,-7.216413021E-1,1.367413163E0
1.593084944E1,-5.869367719E-1,-8.375136852E-1,8.021707535E-1
1.595284788E1,-4.637165368E-1,-8.363443017E-1,9.723228961E-2
1.597284788E1,-3.074048460E-1,-6.694559455E-1,-6.448817253E-1
1.599284944E1,-1.113345549E-1,6.253514439E-2,-1.184205890E0
1.601484788E1,2.436305135E-1,9.405404925E-1,-1.448727965E0
1.603484788E1,5.382944345E-1,1.245554209E0,-1.535872340E0
1.605484788E1,8.288044930E-1,1.047546625E0,-1.671571612E0
1.607484788E1,1.108214259E0,3.422067165E-1,-1.926843524E0
1.609484788E1,1.289501548E0,-5.218185186E-1,-2.342092276E0
1.611484788E1,1.390748143E0,-1.062783360E0,-2.861589432E0
1.613484788E1,1.485152960E0,-1.070131183E0,-3.337052107E0
1.615484788E1,1.582891464E0,-7.488858700E-1,-3.631750822E0
1.617484788E1,1.644588828E0,-2.276956588E-1,-3.740537167E0
1.619484788E1,1.710003734E0,3.240552843E-1,-3.666867018E0
1.621484788E1,1.775750279E0,7.053748369E-1,-3.480081797E0
1.623484788E1,1.816608548E0,9.026494026E-1,-3.239662647E0
1.625484788E1,1.859857798E0,8.770453930E-1,-3.023364067E0
1.627484788E1,1.927209973E0,6.855304241E-1,-2.862112999E0
1.629484788E1,1.946565747E0,4.031186998E-1,-2.746048689E0
1.631484788E1,1.905218840E0,6.761405617E-2,-2.598847628E0
1.633484788E1,1.765819430E0,-2.470688075E-1,-2.367748499E0
1.635484788E1,1.545087576E0,-4.324402213E-1,-2.026711226E0
1.637484788E1,1.291456342E0,-5.486966372E-1,-1.637624979E0
1.639484788E1,9.892002344E-1,-4.831245840E-1,-1.243128181E0
1.641484788E1,6.823364496E-1,-4.482180178E-1,-8.316668272E-1
1.643484788E1,3.588047922E-1,-3.935717344E-1,-3.325375915E-1
1.645484788E1,-1.258382387E-2,-3.925420046E-1,2.227912843E-1
1.647484788E1,-3.228684664E-1,-3.815464377E-1,8.692088723E-1
1.649484788E1,-4.468566477E-1,-3.847403824E-1,1.520129442E0
1.651484788E1,-4.865105152E-1,-3.973067403E-1,1.975817442E0
1.653484788E1,-6.771877408E-1,-2.758143842E-1,2.248455286E0
1.655484788E1,-8.202000260E-1,-2.330189049E-1,2.448662043E0
1.657484788E1,-9.163153172E-1,-1.334129721E-1,2.425152540E0
1.659484788E1,-9.626886845E-1,7.660250366E-2,2.210302353E0
1.661484788E1,-9.082169533E-1,2.039591819E-1,1.982519507E0
1.663484788E1,-7.463377118E-1,1.443910897E-1,2.020218611E0
1.665484788E1,-6.851987839E-1,-2.525491454E-2,2.191103697E0
1.667484788E1,-7.406479120E-1,-1.125911921E-1,2.333156109E0
1.669484788E1,-8.679871559E-1,-1.509186178E-1,2.361378193E0
1.671484788E1,-1.011523008E0,-2.600540593E-2,2.338793516E0
1.673484788E1,-1.144115686E0,1.695587337E-1,2.300396204E0
1.675484788E1,-1.216913342E0,3.821747303E-1,2.228715658E0
1.677484788E1,-1.269971371E0,5.152211785E-1,2.135637283E0
1.679484788E1,-1.325944066E0,5.633050203E-1,2.032976866E0
1.681484788E1,-1.341163397E0,5.108927488E-1,1.940509439E0
1.683484788E1,-1.364672899E0,3.477219343E-1,1.919722557E0
1.685484788E1,-1.327130914E0,7.658504695E-2,1.904206514E0
1.687484788E1,-1.171918750E0,-1.720720083E-1,1.870469332E0
1.689484788E1,-9.169610739E-1,-4.072027802E-1,1.820640206E0
1.691484788E1,-6.950075626E-1,-6.860889196E-1,1.692602873E0
1.693484788E1,-5.683664680E-1,-9.759880900E-1,1.515853405E0
1.695484788E1,-5.670225620E-1,-1.128268123E0,1.275120139E0
1.697484788E1,-7.015351057E-1,-1.124114156E0,9.609259367E-1
1.699484788E1,-8.448091745E-1,-9.605419636E-1,5.188689232E-1
1.701484788E1,-8.319984674E-1,-5.392369032E-1,-6.880088151E-2
1.703484788E1,-6.724230051E-1,1.855983138E-1,-7.378553748E-1
1.705484788E1,-3.201806545E-1,1.149037480E0,-1.232376933E0
1.707484788E1,2.210983038E-1,1.603940129E0,-1.363974810E0
1.709484788E1,7.695680261E-1,1.346120119E0,-1.381183743E0
1.711484788E1,1.203736186E0,6.289992332E-1,-1.516795874E0
1.713484788E1,1.400521994E0,-3.090105355E-1,-1.934121490E0
1.715484788E1,1.402441859E0,-1.055767059E0,-2.552788258E0
1.717484788E1,1.357237816E0,-1.162581205E0,-3.086894035E0
1.719484788E1,1.348319173E0,-7.833561301E-1,-3.360980511E0
1.721484788E1,1.475885272E0,-1.252099127E-1,-3.375344515E0
1.723484788E1,1.677523255E0,5.196892619E-1,-3.154246330E0
1.725484788E1,1.896125674E0,9.248673916E-1,-2.793190002E0
1.727484788E1,2.109788895E0,1.024804950E0,-2.464596987E0
1.729484788E1,2.316977024E0,8.486837745E-1,-2.284985065E0
1.731484788E1,2.502208710E0,4.406083822E-1,-2.261335850E0
1.733484788E1,2.579963207E0,-9.742427617E-2,-2.299418926E0
1.735484788E1,2.520971060E0,-5.830621123E-1,-2.312229633E0
1.737484788E1,2.297586441E0,-8.422435522E-1,-2.239728689E0
1.739484788E1,2.027985334E0,-8.952142596E-1,-2.110382318E0
1.741484788E1,1.673561335E0,-7.756592035E-1,-1.981891155E0
1.743684631E1,1.143103361E0,-5.636366010E-1,-1.809784293E0
1.745684631E1,5.800950527E-1,-3.686659038E-1,-1.582245708E0
1.747684788E1,2.279400080E-2,-2.153910846E-1,-1.173716426E0
1.749885256E1,-4.472929835E-1,-8.936085552E-2,-5.653470755E-1
1.752084788E1,-5.842838883E-1,1.850049011E-2,1.642354764E-2
1.754085413E1,-4.673119187E-1,7.908086479E-2,4.800353646E-1
1.756284788E1,-4.116184413E-1,1.290670931E-1,1.028400302E0
1.758484788E1,-4.658283889E-1,7.295476273E-3,1.711592078E0
1.760684631E1,-4.526860416E-1,-9.494591504E-3,2.200423956E0
1.762684788E1,-3.514569402E-1,1.375319436E-2,2.248368025E0
1.764884788E1,-1.394169033E-1,1.408480704E-1,2.011352301E0
1.767084788E1,1.222603172E-1,1.365022063E-1,1.782085896E0
1.769084788E1,1.088561863E-1,8.470083028E-2,1.805996895E0
1.771084788E1,-1.412844062E-1,1.624726951E-1,1.901274443E0
1.773084788E1,-5.616294742E-1,3.049264848E-1,1.901064992E0
1.775085100E1,-1.025293708E0,5.559746027E-1,1.835684896E0
1.777284788E1,-1.408410907E0,8.886518478E-1,1.757197499E0
1.779284788E1,-1.581756949E0,1.117830992E0,1.773638487E0
1.781284788E1,-1.599157929E0,1.204835653E0,1.837831736E0
1.783484631E1,-1.477298975E0,1.081266403E0,2.002957344E0
1.785484944E1,-1.291037440E0,8.121191263E-1,2.203896999E0
1.787684788E1,-9.682388306E-1,4.106061459E-1,2.391432762E0
1.789684788E1,-6.074792743E-1,7.052875310E-2,2.512418985E0
1.791684788E1,-2.546086311E-1,-2.761808932E-1,2.517986536E0
1.793684788E1,-6.316346675E-2,-6.066589952E-1,2.412271976E0
1.795684788E1,-1.329766363E-1,-8.365886807E-1,2.213356733E0
1.797684788E1,-5.238082409E-1,-9.697223902E-1,1.955658913E0
1.799684788E1,-1.134586215E0,-9.273981452E-1,1.630573869E0
1.801684788E1,-1.706146598E0,-7.387280464E-1,1.248800516E0
1.803684788E1,-2.040097952E0,-4.432612658E-1,7.064220309E-1
1.805684788E1,-2.079367876E0,-5.208062381E-2,1.022588387E-1
1.807684788E1,-1.845144629E0,5.339311361E-1,-4.782725871E-1
1.809684788E1,-1.384063601E0,1.368041396E0,-8.884598613E-1
1.811684788E1,-6.546729803E-1,1.702045083E0,-9.569465518E-1
1.813684788E1,3.764675185E-2,1.337672710E0,-9.862331748E-1
1.815684788E1,6.393664479E-1,6.580938697E-1,-1.121304274E0
1.817684788E1,1.064877748E0,-2.874906361E-1,-1.420645595E0
1.819684944E1,1.234401584E0,-1.051717997E0,-1.899197459E0
1.821884788E1,1.262169719E0,-1.262763143E0,-2.403824568E0
1.823885569E1,1.278401256E0,-8.765741587E-1,-2.728176594E0
1.826085412E1,1.470021009E0,-1.461538672E-1,-2.842320919E0
1.828284788E1,1.739255548E0,5.655390620E-1,-2.715173721E0
1.830286819E1,1.975311279E0,8.984082341E-1,-2.569456339E0
1.832484788E1,2.220303059E0,9.598088861E-1,-2.484074831E0
1.834484788E1,2.436270237E0,6.949551702E-1,-2.496833086E0
1.836484788E1,2.492120743E0,2.347118706E-1,-2.545772076E0
1.838484788E1,2.303276062E0,-1.675690562E-1,-2.535247803E0
1.840484788E1,1.932934642E0,-4.299269617E-1,-2.448871374E0
1.842484788E1,1.587464213E0,-5.220803618E-1,-2.265384912E0
1.844484788E1,1.300217986E0,-4.726002514E-1,-2.007634878E0
1.846484788E1,9.621825814E-1,-3.831172287E-1,-1.767878890E0
1.848484788E1,5.053077340E-1,-1.979901493E-1,-1.478747606E0
1.850484788E1,-6.038838997E-3,6.649704650E-3,-1.071492553E0
1.852484788E1,-3.626095951E-1,1.033409461E-1,-5.093743205E-1
1.854484788E1,-5.110149384E-1,1.021017581E-1,8.143706620E-2
1.856484788E1,-4.685685337E-1,-2.321287990E-2,5.242794752E-1
1.858484788E1,-4.804717004E-1,-9.669124335E-2,8.025198579E-1
1.860484788E1,-6.448118687E-1,3.665191471E-4,1.117185235E0
1.862484788E1,-7.350803018E-1,5.476843193E-2,1.520914793E0
1.864684631E1,-7.189010978E-1,1.445830762E-1,1.752816677E0
1.866684631E1,-5.823814869E-1,2.403318435E-1,1.631743193E0
1.868684788E1,-3.262718618E-1,2.832494974E-1,1.518628478E0
1.870884788E1,-1.183856800E-1,1.173035800E-1,1.740634322E0
1.872885412E1,-1.547757983E-1,-4.232423380E-2,2.079926252E0
1.875084788E1,-3.691895008E-1,-1.132195070E-1,2.219203472E0
1.877084788E1,-6.598740816E-1,2.827433404E-3,2.129650831E0
1.879084788E1,-9.282010198E-1,2.775771618E-1,2.015122175E0
1.881084788E1,-1.106294394E0,6.017720699E-1,1.935587645E0
1.883084788E1,-1.155006528E0,8.217708468E-1,1.900105000E0
1.885084788E1,-1.125248671E0,8.997870684E-1,1.875583172E0
1.887084788E1,-1.070323110E0,7.490080595E-1,1.840449691E0
1.889084944E1,-1.017439723E0,4.764923453E-1,1.796729207E0
1.891284788E1,-1.016532063E0,2.102249116E-1,1.767564774E0
1.893484631E1,-9.838246703E-1,-3.595378250E-2,1.791440845E0
1.895484788E1,-8.703258634E-1,-3.699923456E-1,1.837168455E0
1.897684788E1,-7.623249292E-1,-6.927386522E-1,1.872877955E0
1.899885256E1,-7.267376184E-1,-8.052076697E-1,1.897661567E0
1.902084788E1,-7.854155898E-1,-7.728841305E-1,1.820884585E0
1.904084788E1,-9.360724092E-1,-6.742206812E-1,1.640016079E0
1.906084788E1,-1.122037292E0,-4.073074758E-1,1.251453400E0
1.908084788E1,-1.515940666E0,2.367888242E-1,6.242868304E-1
1.910084788E1,-2.214770555E0,1.115108252E0,-5.445427261E-3
1.912084788E1,-2.486343622E0,2.126526594E0,-2.410823256E-1
1.914084788E1,-2.077255964E0,2.453706026E0,-2.392322868E-1
1.916284631E1,-1.258522034E0,1.878812075E0,-3.070034087E-1
1.918284631E1,-3.435680568E-1,7.541742325E-1,-5.285031199E-1
1.920286819E1,5.440540314E-1,-4.699299037E-1,-1.025607824E0
1.922484788E1,1.323954463E0,-1.193438649E0,-1.795071125E0
1.924484788E1,1.870626450E0,-1.366191387E0,-2.453095198E0
1.926684788E1,2.292280436E0,-1.145145416E0,-2.956866980E0
1.928884788E1,2.467720985E0,-5.603030324E-1,-3.093892813E0
1.930886819E1,2.476779222E0,1.544092745E-1,-2.954126835E0
1.933084788E1,2.297184944E0,8.221198916E-1,-2.676008701E0
1.935084788E1,2.095005989E0,1.018469453E0,-2.514059544E0
1.937084788E1,1.915184736E0,7.522194386E-1,-2.460687399E0
1.939084788E1,1.767285466E0,2.358463407E-1,-2.446986437E0
1.941084788E1,1.708869338E0,-4.698251784E-1,-2.399618387E0
1.943084788E1,1.683282733E0,-1.032973170E0,-2.362250805E0
1.945084944E1,1.544232368E0,-1.274003029E0,-2.385324001E0
1.947284788E1,1.281281114E0,-1.155809402E0,-2.495506763E0
1.949284788E1,8.824733496E-1,-8.305673003E-1,-2.383456469E0
1.951284788E1,3.737797141E-1,-4.154058099E-1,-2.166285276E0
1.953284788E1,-1.730493903E-1,5.811946467E-3,-1.879981399E0
1.955284944E1,-5.610186458E-1,3.534291685E-1,-1.524161100E0
1.957484788E1,-7.609635592E-1,6.204470992E-1,-1.019202471E0
1.959484788E1,-7.209780812E-1,5.828527212E-1,-5.095663071E-1
1.961484788E1,-5.865877271E-1,1.658586413E-1,-2.129301662E-3
1.963484788E1,-5.933071971E-1,3.012438305E-2,4.417253733E-1
1.965484788E1,-7.209954858E-1,-2.851518989E-1,8.397477269E-1
1.967484788E1,-1.050269365E0,-2.797937393E-1,1.101808906E0
1.969484788E1,-1.333414078E0,-2.464404851E-1,1.352909446E0
1.971484788E1,-1.318753362E0,-2.455503643E-1,1.696931243E0
1.973484788E1,-9.005898833E-1,-1.520705372E-1,2.158431292E0
1.975484788E1,-3.227462769E-1,-1.692969352E-2,2.463916302E0
1.977484788E1,1.099382862E-1,1.543220133E-1,2.378604412E0
1.979484788E1,2.905274928E-1,2.053554356E-1,2.119039059E0
1.981484788E1,1.916546077E-1,2.183581442E-1,1.983793616E0
1.983684788E1,-2.053554356E-1,1.993340552E-1,2.003201723E0
1.985885412E1,-7.589564323E-1,4.218286276E-1,2.056835651E0
1.987886506E1,-1.227210760E0,7.693237066E-1,2.109230280E0
1.990084788E1,-1.637677312E0,1.044806480E0,2.193582058E0
1.992084788E1,-1.868479729E0,1.056046367E0,2.225992918E0
1.994084788E1,-1.919827223E0,8.871159554E-1,2.279609442E0
1.996084788E1,-1.753986120E0,5.784544945E-1,2.509504318E0
1.998084788E1,-1.315454602E0,1.372177899E-1,2.775282860E0
2.000084788E1,-7.671071291E-1,-2.894105017E-1,2.892760992E0
2.002284631E1,-3.693989217E-1,-6.363295913E-1,2.882795334E0
2.004284788E1,-3.319441676E-1,-8.245807886E-1,2.754461050E0
2.006284944E1,-5.933071971E-1,-8.185768723E-1,2.497426510E0
2.008484944E1,-1.141078830E0,-5.633224845E-1,2.043431520E0
2.010684788E1,-1.655130625E0,-1.565560400E-1,1.420523524E0
2.012684788E1,-1.731192112E0,4.343251884E-1,8.650549650E-1
2.014684788E1,-1.237141728E0,8.414756060E-1,3.387683928E-1
2.016684788E1,-3.383146226E-1,8.342848420E-1,-1.970302165E-1
2.018684788E1,6.512172222E-1,2.156703323E-1,-7.715926170E-1
2.020684788E1,1.349104643E0,-7.482575774E-1,-1.339976549E0
2.022684788E1,1.660802960E0,-1.447733164E0,-1.804234147E0
2.024684788E1,1.631341815E0,-1.586416960E0,-2.279923677E0
2.026684788E1,1.485746384E0,-1.155146122E0,-2.756712675E0
2.028684788E1,1.538193583E0,-5.813342929E-1,-3.131295204E0
2.030684788E1,1.833049536E0,-8.861036599E-2,-3.278845310E0
2.032684788E1,2.149599791E0,2.384119779E-1,-3.218421936E0
2.034684788E1,2.301495790E0,3.457497358E-1,-3.088238001E0
2.036684788E1,2.279207945E0,2.220233381E-1,-2.948838472E0
2.038684788E1,2.163876534E0,-4.574507847E-2,-2.859285593E0
2.040684788E1,2.006343126E0,-3.994185925E-1,-2.818008661E0
2.042684788E1,1.770706296E0,-7.395309210E-1,-2.755595684E0
2.044684788E1,1.510844231E0,-1.030372620E0,-2.645884275E0
2.046684788E1,1.206354141E0,-1.147274733E0,-2.478786469E0
2.048684788E1,8.171980381E-1,-1.194311380E0,-2.225504160E0
2.050884788E1,2.724458873E-1,-1.176543951E0,-1.966218114E0
2.052884788E1,-2.257757932E-1,-1.197418094E0,-1.842561483E0
2.054885256E1,-4.131717980E-1,-1.154936671E0,-1.737702131E0
2.057084944E1,-1.913055331E-1,-8.331503868E-1,-1.576695561E0
2.059284631E1,2.951351739E-2,-4.763876200E-1,-1.105805755E0
2.061284631E1,-2.254092693E-1,-3.453134000E-1,-3.579670191E-1
2.063284788E1,-6.411467195E-1,-1.997878402E-1,6.500304341E-1
2.065284788E1,-9.503666759E-1,-9.519025683E-2,1.621183991E0
2.067284788E1,-1.120693326E0,1.027300805E-1,2.170421600E0
2.069284788E1,-1.086449981E0,3.813369870E-1,2.392497301E0
2.071284788E1,-8.218581080E-1,5.438097119E-1,2.472363710E0
2.073484788E1,-4.977853596E-1,5.359382629E-1,2.417071581E0
2.075684788E1,-3.249628544E-1,4.368384480E-1,2.292507410E0
2.077885100E1,-3.520154655E-1,4.803320765E-1,2.183965445E0
2.079885725E1,-4.959876537E-1,5.375788808E-1,2.143142223E0
2.082084788E1,-7.153232098E-1,5.699198246E-1,2.069035530E0
2.084084788E1,-9.711011648E-1,6.657558680E-1,2.000339270E0
2.086084788E1,-1.278471112E0,7.477514148E-1,1.987196922E0
2.088084944E1,-1.529240012E0,7.445749044E-1,2.034984112E0
2.090084944E1,-1.638410330E0,6.209357977E-1,2.145149231E0
2.092284788E1,-1.481784582E0,2.656390965E-1,2.382304668E0
2.094284788E1,-1.184816718E0,-2.175378352E-1,2.699046850E0
2.096484631E1,-7.864453793E-1,-6.067462564E-1,2.869234085E0
2.098484788E1,-4.762479961E-1,-8.514414430E-1,2.822441816E0
2.100684631E1,-3.959279358E-1,-1.024386048E0,2.547849178E0
2.102684788E1,-6.291737556E-1,-9.858492017E-1,2.142426491E0
2.104684788E1,-1.110989332E0,-6.886370778E-1,1.732151985E0
2.106684788E1,-1.554861426E0,-1.868200451E-1,1.328980923E0
2.108684788E1,-1.809749365E0,4.312359393E-1,8.480031490E-1
2.110684788E1,-1.649545550E0,8.648804426E-1,2.758143842E-1
2.112684788E1,-1.202078104E0,1.200559616E0,-2.512575984E-1
2.114684788E1,-7.354817390E-1,1.385721564E0,-5.409299135E-1
2.116684788E1,-2.877873480E-1,1.263461351E0,-7.069455981E-1
2.118684788E1,2.312212139E-1,8.740260005E-1,-9.610655308E-1
2.120684788E1,7.962366343E-1,9.133307636E-2,-1.434904933E0
2.122684788E1,1.254769564E0,-7.141014338E-1,-1.977004290E0
2.124684788E1,1.521682739E0,-1.185148358E0,-2.449133158E0
2.126684788E1,1.668307900E0,-1.209321141E0,-2.828271151E0
2.128884788E1,1.737841725E0,-8.586321473E-1,-3.117070675E0
2.130884788E1,1.758907914E0,-4.412366748E-1,-3.232995510E0
2.132884788E1,1.811442375E0,4.651302472E-2,-3.269298315E0
2.134884944E1,1.860957265E0,1.977807134E-1,-3.289369583E0
2.136884944E1,1.951714396E0,-1.469567232E-2,-3.369340658E0
2.138884944E1,1.975974560E0,-3.369358182E-1,-3.471704245E0
2.140885100E1,1.833817482E0,-5.397081375E-1,-3.477463722E0
2.142885569E1,1.510774493E0,-5.044525266E-1,-3.333858013E0
2.145084788E1,9.932843447E-1,-5.181707740E-1,-2.926707745E0
2.147084944E1,5.214171410E-1,-6.143559217E-1,-2.339596510E0
2.149084944E1,1.484402567E-1,-6.994755864E-1,-1.761682987E0
2.151084944E1,-1.791929603E-1,-5.947907567E-1,-1.428883553E0
2.153084944E1,-3.485073447E-1,-3.954043388E-1,-1.264333963E0
2.155084944E1,-3.231477141E-1,-3.055897057E-1,-1.056884170E0
2.157084944E1,-1.801528782E-1,-2.045874894E-1,-6.791076064E-1
2.159084944E1,2.377138473E-2,-1.271123290E-1,-2.814343274E-1
2.161084944E1,7.972663641E-2,-8.531169593E-2,-2.268928074E-4
2.163084944E1,-1.534842551E-1,-1.480911821E-1,1.685464382E-1
2.165284944E1,-6.065891981E-1,1.593485661E-2,5.963615775E-1
2.167284944E1,-8.126427531E-1,5.729915947E-2,1.280809879E0
2.169484788E1,-8.226783872E-1,1.888620704E-1,1.869317412E0
2.171484788E1,-6.617415547E-1,3.975161910E-1,1.948450685E0
2.173484788E1,-4.104665220E-1,5.202826262E-1,1.858897805E0
2.175484788E1,-1.153313592E-1,3.997851312E-1,1.883821130E0
2.177484944E1,1.605702913E-3,2.235417664E-1,2.073294163E0
2.179684788E1,-1.649161577E-1,1.716356725E-1,2.304969072E0
2.181684944E1,-5.001764297E-1,2.830575109E-1,2.332807064E0
2.183684944E1,-7.959399223E-1,4.736474454E-1,2.262993813E0
2.185885569E1,-8.865923285E-1,6.319139004E-1,2.256064892E0
2.188084788E1,-9.066810608E-1,7.087956667E-1,2.369232178E0
2.190084944E1,-9.572781920E-1,6.757565737E-1,2.550589323E0
2.192084944E1,-1.007037520E0,5.859768391E-1,2.708611250E0
2.194085725E1,-1.088282585E0,4.860567451E-1,2.761896372E0
2.196284944E1,-1.228676915E0,3.243694305E-1,2.791444778E0
2.198284944E1,-1.224540472E0,1.660855263E-1,2.864521742E0
2.200286975E1,-1.031751394E0,-5.777040031E-3,3.003956079E0
2.202484944E1,-6.931051612E-1,-1.673945338E-1,3.087121010E0
2.204684944E1,-3.742509484E-1,-2.435257882E-1,3.033521891E0
2.206885100E1,-2.556732893E-1,-2.909812927E-1,2.712643147E0
2.208885412E1,-5.167396069E-1,-2.412394136E-1,2.159408569E0
2.211084944E1,-1.045434713E0,-1.603957638E-2,1.425218463E0
2.213084944E1,-1.314232945E0,2.151990980E-1,8.750382662E-1
2.215084944E1,-1.362683296E0,5.879141688E-1,3.715457022E-1
2.217084944E1,-9.968448281E-1,1.038697839E0,-2.000147291E-2
2.219084944E1,-4.875751734E-1,1.045085669E0,-3.135483861E-1
2.221084944E1,9.250245057E-4,5.437398553E-1,-6.480058432E-1
2.223084944E1,4.619886577E-1,-3.162711263E-1,-1.175287247E0
2.225084944E1,7.739662528E-1,-1.214068532E0,-1.819104314E0
2.227084944E1,8.629431129E-1,-1.586486816E0,-2.507357359E0
2.229084944E1,7.530223131E-1,-1.252378464E0,-3.135763168E0
2.231084944E1,7.088829279E-1,-6.092071533E-1,-3.557836294E0
2.233084944E1,9.305571914E-1,1.429424621E-2,-3.676326513E0
2.235084944E1,1.372788668E0,4.621980786E-1,-3.558132887E0
2.237084944E1,1.717718124E0,5.963441133E-1,-3.365291595E0
2.239084944E1,1.807567716E0,5.650852323E-1,-3.328622103E0
2.241084944E1,1.753706813E0,3.614053130E-1,-3.364890099E0
2.243084944E1,1.626297832E0,5.155702680E-2,-3.400843859E0
2.245084944E1,1.516499162E0,-1.974665523E-1,-3.306980133E0
2.247284788E1,1.428988338E0,-3.721739948E-1,-3.006294727E0
2.249284788E1,1.321179390E0,-4.928809702E-1,-2.599475861E0
2.251284788E1,1.153348446E0,-5.505990386E-1,-2.184576273E0
2.253284788E1,9.202597737E-1,-5.197939277E-1,-1.861986995E0
2.255284944E1,6.191206574E-1,-4.006228745E-1,-1.528314948E0
2.257485256E1,3.138101995E-1,-1.334653348E-1,-1.219636083E0
2.259684788E1,-6.208136305E-2,3.525739610E-1,-9.691638947E-1
2.261684788E1,-3.987728357E-1,9.167167544E-1,-7.061427832E-1
2.263684788E1,-5.977752805E-1,8.422784209E-1,5.405284837E-2
2.265684788E1,-4.622679055E-1,6.768386811E-2,1.255101204E0
2.267684788E1,-2.182359695E-1,-1.955117881E-1,2.117293835E0
2.269684788E1,-1.517389268E-1,-1.179842558E-2,2.284653425E0
2.271684788E1,-3.831521273E-1,4.306774437E-1,1.920944333E0
2.273684788E1,-8.077208996E-1,5.901830792E-1,1.620765090E0
2.275684788E1,-1.025206447E0,4.696855545E-1,1.654135823E0
2.277684788E1,-1.033915639E0,4.262617528E-1,1.878951669E0
2.279684788E1,-9.944362640E-1,5.275781155E-1,2.237459660E0
2.281684788E1,-9.850812554E-1,5.948954821E-1,2.579718828E0
2.283684788E1,-9.782395959E-1,6.499606371E-1,2.733220577E0
2.285684788E1,-1.003965735E0,5.660800934E-1,2.709431648E0
2.287684788E1,-1.034369349E0,3.047693968E-1,2.517724752E0
2.289684788E1,-1.104461789E0,1.678308547E-1,2.308093309E0
2.291684788E1,-1.304092526E0,1.514596790E-1,2.143753052E0
2.293684788E1,-1.589523673E0,1.662251502E-1,2.007826805E0
2.295684788E1,-1.860451221E0,3.001093566E-1,1.961959481E0
2.297684788E1,-2.019415855E0,4.528605938E-1,2.030917406E0
2.299684788E1,-2.005365849E0,5.115908980E-1,2.111045599E0
2.301684788E1,-1.807881832E0,4.231550694E-1,2.201296568E0
2.303684788E1,-1.547845244E0,3.355919123E-1,2.144276619E0
2.305684788E1,-1.325909138E0,2.186723053E-1,1.816625953E0
2.307684788E1,-1.095822453E0,5.459389836E-2,1.359751105E0
2.309684788E1,-9.059655070E-1,-1.864709705E-1,9.043598175E-1
2.311684788E1,-8.547924757E-1,-2.829876840E-1,4.990594387E-1
2.313684788E1,-7.631801367E-1,-9.461429715E-2,6.037093699E-2
2.315684788E1,-5.718222260E-1,3.417180181E-1,-4.128925502E-1
2.317684788E1,-2.607521974E-2,1.141550064E0,-5.750510693E-1
2.319684788E1,6.492450237E-1,1.457454681E0,-5.230228305E-1
2.321684788E1,1.303237319E0,1.142440200E0,-4.837180078E-1
2.323684788E1,1.849804640E0,1.991595179E-1,-7.006624341E-1
2.325684788E1,2.038352489E0,-9.540144205E-1,-1.169283271E0
2.327684788E1,1.780427814E0,-1.717543602E0,-1.839262843E0
2.329684788E1,1.306762934E0,-1.588563800E0,-2.641189337E0
2.331684788E1,1.110360980E0,-9.206611514E-1,-3.262299538E0
2.333684788E1,1.353118896E0,-2.350958437E-1,-3.566562891E0
2.335684788E1,1.796659350E0,4.560719728E-1,-3.525041580E0
2.337684788E1,2.114955187E0,1.084128737E0,-3.249262094E0
2.339684788E1,2.327850342E0,1.416160107E0,-2.908783197E0
2.341684788E1,2.403754711E0,1.153243780E0,-2.464230299E0
2.343684788E1,2.236028671E0,5.920506120E-1,-1.953407407E0
2.345684788E1,1.876961946E0,1.350710243E-1,-1.522293568E0
2.347684788E1,1.420226812E0,-1.213701963E-1,-1.177678347E0
2.349684788E1,9.419891238E-1,-2.397907823E-1,-1.041647434E0
2.351684788E1,5.664640665E-1,-9.384635091E-2,-1.069659948E0
2.353884944E1,1.821076572E-1,-8.075638115E-2,-9.526355863E-1
2.355885100E1,-2.086192071E-1,-1.431868076E-1,-6.351078749E-1
2.358085413E1,-6.027843356E-1,-1.627868563E-1,-1.280548126E-1
2.360286819E1,-7.685382962E-1,1.666789502E-2,3.615624011E-1
2.362484788E1,-8.403062224E-1,2.494773567E-1,8.282983303E-1
2.364484788E1,-1.104409456E0,1.595230959E-2,1.195009470E0
2.366484788E1,-1.562139511E0,-2.277654596E-2,1.502885580E0
2.368684788E1,-1.541614413E0,1.574287005E-2,1.960353851E0
2.370884788E1,-9.339082241E-1,-4.757767543E-2,2.456603289E0
2.372884788E1,-1.207767874E-1,-1.800132543E-1,2.716098785E0
2.374885569E1,4.349709451E-1,-2.694962919E-1,2.657996893E0
2.377084788E1,5.089380145E-1,-1.927367151E-1,2.334657192E0
2.379084788E1,7.293730974E-2,-5.284857005E-2,2.015576124E0
2.381084788E1,-6.225938201E-1,1.751612425E-1,1.716287017E0
2.383084788E1,-1.223772526E0,4.567177594E-1,1.471783757E0
2.385084788E1,-1.554669499E0,7.453428507E-1,1.308700204E0
2.387084788E1,-1.710649610E0,9.895318747E-1,1.196213722E0
2.389084788E1,-1.771683693E0,1.111355901E0,1.163139820E0
2.391084788E1,-1.763061762E0,1.036917567E0,1.240545154E0
2.393084788E1,-1.671658874E0,8.693659306E-1,1.391341567E0
2.395084788E1,-1.414920926E0,6.371847987E-1,1.579872012E0
2.397084788E1,-1.092122316E0,3.935368359E-1,1.679076552E0
2.399084944E1,-8.362570405E-1,2.513099611E-1,1.739046097E0
2.401284788E1,-5.884726644E-1,9.573131055E-2,1.696023703E0
2.403284788E1,-3.937288225E-1,-3.106686054E-3,1.398706913E0
2.405284788E1,-2.937389016E-1,-1.449844986E-1,9.288642406E-1
2.407284788E1,-2.826909721E-1,-2.987829149E-1,4.946786761E-1
2.409284788E1,-2.916445136E-1,-5.036321878E-1,1.636769772E-1
2.411284788E1,-2.202081978E-1,-6.991963387E-1,-1.955292374E-1
2.413284944E1,-8.688248694E-2,-8.336390853E-1,-7.056715488E-1
2.415484944E1,1.869771183E-1,-6.236410737E-1,-1.147676110E0
2.417684788E1,5.878792405E-1,-2.218138874E-1,-1.504910111E0
2.419684788E1,9.254957438E-1,-4.907865822E-2,-1.886805654E0
2.421684788E1,1.209740043E0,-2.927266359E-1,-2.342109680E0
2.423684788E1,1.322331309E0,-7.024950385E-1,-2.826752663E0
2.425684788E1,1.343414783E0,-1.052224040E0,-3.220900297E0
2.427884788E1,1.397223353E0,-1.200646877E0,-3.468492746E0
2.429884788E1,1.550847173E0,-1.027353168E0,-3.485684395E0
2.431884788E1,1.830134749E0,-5.612629652E-1,-3.408278942E0
2.433884944E1,2.086226940E0,-1.933824830E-2,-3.241495371E0
2.435884944E1,2.238000870E0,4.218635261E-1,-2.991127729E0
2.438084788E1,2.350923538E0,6.155252457E-1,-2.736693621E0
2.440084788E1,2.292367697E0,4.834038317E-1,-2.579823494E0
2.442084788E1,2.101324081E0,1.529257447E-1,-2.539750814E0
2.444285100E1,1.875059605E0,-3.571641743E-1,-2.578671694E0
2.446484788E1,1.580151320E0,-7.767413259E-1,-2.588480234E0
2.448484788E1,1.183909178E0,-9.993929863E-1,-2.450040817E0
2.450684631E1,7.598639727E-1,-1.005274773E0,-2.174034357E0
2.452684631E1,3.526263237E-1,-7.324972153E-1,-1.903176785E0
2.454684788E1,-7.841764390E-2,-3.566056788E-1,-1.601374507E0
2.456884788E1,-5.376486778E-1,-4.677482322E-2,-1.172512174E0
2.458885569E1,-7.962540984E-1,1.794896573E-1,-6.273934841E-1
2.460885569E1,-8.863654733E-1,2.903704345E-1,-1.075122785E-2
2.463084788E1,-8.044745922E-1,2.464404851E-1,7.891680598E-1
2.465084788E1,-7.204195261E-1,5.031784251E-2,1.451293588E0
2.467084788E1,-7.995004058E-1,4.590215907E-2,1.978383064E0
2.469084788E1,-8.343023062E-1,-7.923794910E-3,2.406529665E0
2.471284788E1,-7.537727952E-1,2.600540593E-2,2.549838781E0
2.473484788E1,-7.331604362E-1,1.814967841E-1,2.275769711E0
2.475684788E1,-8.988445401E-1,3.465176821E-1,1.933161616E0
2.477885725E1,-1.163017631E0,4.365592003E-1,1.943528891E0
2.480084631E1,-1.609001637E0,6.123661995E-1,2.349981070E0
2.482084788E1,-2.043012619E0,8.324522376E-1,2.758248568E0
2.484085881E1,-2.317901850E0,1.022623301E0,2.873876572E0
2.486284788E1,-2.398152113E0,1.234925151E0,2.726099491E0
2.488284788E1,-2.335058451E0,1.441851377E0,2.585513353E0
2.490286819E1,-2.187979698E0,1.530391932E0,2.561602354E0
2.492484788E1,-1.993515015E0,1.403942823E0,2.636127949E0
2.494484788E1,-1.773237109E0,1.048192382E0,2.899689913E0
2.496484788E1,-1.455046058E0,5.744402409E-1,3.258721590E0
2.498684788E1,-1.078595996E0,8.002334833E-2,3.595832109E0
2.500884788E1,-8.098502159E-1,-3.847229183E-1,3.661735773E0
2.502886194E1,-6.802071929E-1,-6.884625554E-1,3.451458454E0
2.505084788E1,-8.304451108E-1,-1.062067747E0,3.033748865E0
2.507084788E1,-1.261593819E0,-1.407573104E0,2.594414473E0
2.509084788E1,-1.670157909E0,-1.644606352E0,2.083643913E0
2.511084788E1,-1.770357251E0,-1.695150971E0,1.515539169E0
2.513084788E1,-1.493652821E0,-1.246723533E0,6.952868104E-1
2.515084788E1,-1.085682034E0,-2.145533264E-1,-5.490456820E-1
2.517084788E1,-6.907315254E-1,9.811542630E-1,-1.611235619E0
2.519084788E1,-1.968556792E-1,1.862632871E0,-1.972099900E0
2.521084944E1,3.066717982E-1,2.088740110E0,-1.816102386E0
2.523084944E1,7.598465681E-1,1.593206406E0,-1.667312980E0
2.525084944E1,1.133940458E0,7.208558917E-1,-1.886299491E0
2.527084944E1,1.433089852E0,-2.379581928E-1,-2.375463009E0
2.529084944E1,1.721418262E0,-9.367007613E-1,-3.002961159E0
2.531084944E1,2.038928509E0,-1.266742468E0,-3.479052067E0
2.533084944E1,2.431924343E0,-1.306728005E0,-3.730030298E0
2.535084944E1,2.819963455E0,-1.119174957E0,-3.823510170E0
2.537084944E1,3.121783257E0,-7.978249192E-1,-3.816459179E0
2.539084944E1,3.266540766E0,-4.197342396E-1,-3.717446566E0
2.541084944E1,3.245212793E0,-1.558579057E-1,-3.660444021E0
2.543084944E1,3.169116497E0,-4.689699784E-2,-3.636969328E0
2.545084944E1,2.991948128E0,-1.079835221E-1,-3.650722742E0
2.547084944E1,2.689342976E0,-2.130348831E-1,-3.640529871E0
2.549084944E1,2.330084324E0,-4.813443422E-1,-3.589880466E0
2.551084944E1,1.886892915E0,-5.983337760E-1,-3.422398567E0
2.553084944E1,1.435288906E0,-5.337391496E-1,-3.083630323E0
2.555284788E1,9.508728385E-1,-5.229355693E-1,-2.621868610E0
2.557284788E1,5.187118649E-1,-4.957956672E-1,-2.127154827E0
2.559284788E1,2.246762365E-1,-4.142189920E-1,-1.659668446E0
2.561284944E1,4.974188283E-2,-3.571641743E-1,-1.215115666E0
2.563484944E1,-4.417428374E-2,-3.097261190E-1,-7.326892018E-1
2.565684788E1,-1.444609016E-1,-3.091676235E-1,-2.779785991E-1
2.567684788E1,-2.020742148E-1,-4.465425014E-1,1.489289403E-1
2.569684788E1,-3.150493801E-1,-4.498760700E-1,5.732883215E-1
2.571684788E1,-4.309741557E-1,-4.101698399E-1,1.134341836E0
2.573684788E1,-5.097408891E-1,-2.744704783E-1,1.689566016E0
2.575684788E1,-4.814665318E-1,-8.932594955E-2,2.064724445E0
2.577884788E1,-2.963743508E-1,1.596801728E-1,2.134118795E0
2.579884944E1,-2.611012571E-2,4.045498669E-1,1.951836586E0
2.582084788E1,4.853760451E-2,4.887270927E-1,1.856751084E0
2.584084788E1,-1.378810108E-1,5.239129066E-1,1.888079762E0
2.586084788E1,-5.617341995E-1,5.874952674E-1,1.915428996E0
2.588084788E1,-1.108284116E0,6.794043183E-1,1.866559863E0
2.590084788E1,-1.609019041E0,8.962789178E-1,1.817708015E0
2.592084788E1,-1.914189816E0,1.134464025E0,1.910402536E0
2.594085100E1,-2.093784332E0,1.415147901E0,2.150263071E0
2.596284788E1,-2.064480066E0,1.559591293E0,2.487670183E0
2.598284788E1,-1.878201127E0,1.518837929E0,2.901313066E0
2.600286819E1,-1.586800933E0,1.317496657E0,3.300644398E0
2.602484788E1,-1.279605627E0,8.731358647E-1,3.522144318E0
2.604484788E1,-1.093867660E0,2.269800752E-1,3.515843630E0
2.606484788E1,-9.847846031E-1,-3.894527555E-1,3.362516403E0
2.608484788E1,-9.411339164E-1,-7.955734134E-1,3.274639130E0
2.610484788E1,-1.052922249E0,-9.760230184E-1,3.135379314E0
2.612484788E1,-1.354288220E0,-9.890781045E-1,2.823192120E0
2.614484788E1,-1.622248650E0,-9.067857862E-1,2.476971149E0
2.616484788E1,-1.645810604E0,-8.122762442E-1,1.948014379E0
2.618484788E1,-1.490406513E0,-6.371847987E-1,1.170295596E0
2.620484788E1,-1.144639254E0,1.089085452E-2,2.083050460E-1
2.622484788E1,-6.592283249E-1,1.037755370E0,-6.235014200E-1
2.624484788E1,-1.650034338E-1,1.557043076E0,-1.202304959E0
2.626484788E1,2.639636099E-1,1.383400321E0,-1.552383065E0
2.628484788E1,5.092172623E-1,6.272887588E-1,-1.934522986E0
2.630484788E1,5.797984004E-1,-1.433613449E-1,-2.395045519E0
2.632484788E1,5.841616988E-1,-6.011961102E-1,-2.828131437E0
2.634484788E1,6.565928459E-1,-5.923123956E-1,-3.165782928E0
2.636484788E1,8.489630222E-1,-2.430894524E-1,-3.410617590E0
2.638484788E1,1.166892171E0,2.590941191E-1,-3.597821712E0
2.640484788E1,1.540497422E0,6.872583032E-1,-3.645661116E0
2.642484788E1,1.850799441E0,8.614072204E-1,-3.578274012E0
2.644484788E1,2.041302204E0,8.377754688E-1,-3.463291645E0
2.646484788E1,2.106455326E0,6.353347301E-1,-3.366338730E0
2.648484788E1,2.046293736E0,3.388905823E-1,-3.309091806E0
2.650484788E1,1.862580419E0,1.129577085E-1,-3.248110056E0
2.652484788E1,1.579016805E0,-1.183333248E-2,-3.098081589E0
2.654484788E1,1.312871575E0,-3.455751762E-2,-2.858255863E0
2.656484788E1,1.051316500E0,-1.074250117E-1,-2.454002619E0
2.658484944E1,7.414507866E-1,-1.379159242E-1,-1.960039616E0
2.660684788E1,4.085117579E-1,-9.827949107E-2,-1.357447267E0
2.662684788E1,7.911577821E-2,-2.217266262E-1,-7.621678114E-1
2.664684788E1,-2.252347320E-1,-2.600715160E-1,-2.184977680E-1
2.666684788E1,-4.786216319E-1,-1.604655683E-1,1.783901006E-1
2.668684788E1,-7.048861384E-1,-1.602386832E-1,6.526483893E-1
2.670684788E1,-9.302081466E-1,-1.520181745E-1,1.125091553E0
2.672684788E1,-1.134882927E0,-2.126683742E-1,1.655584455E0
2.674684788E1,-1.156821728E0,-3.642327487E-1,2.241718292E0
2.676684788E1,-9.842086434E-1,-4.689001441E-1,2.701507807E0
2.678684788E1,-6.199584007E-1,-3.539527655E-1,2.807222366E0
2.680684788E1,-1.614080518E-1,-1.669930965E-1,2.623945475E0
2.682684788E1,2.583959997E-1,-5.476843193E-2,2.348235846E0
2.684684788E1,4.235914052E-1,5.724680144E-3,2.256152153E0
2.686684788E1,3.047693968E-1,7.276277989E-2,2.225277424E0
2.688684788E1,-1.152091846E-1,2.386912256E-1,2.171713114E0
2.690684788E1,-6.411641240E-1,4.440117478E-1,2.044897556E0
2.692684788E1,-1.145599246E0,6.554933190E-1,1.870853305E0
2.694684788E1,-1.617763162E0,8.803964257E-1,1.749535441E0
2.696684788E1,-1.973653197E0,1.117988110E0,1.724961281E0
2.698684788E1,-2.178729296E0,1.239428163E0,1.775732875E0
2.700684788E1,-2.373071909E0,1.130763888E0,1.922515035E0
2.702684788E1,-2.574692249E0,8.543037772E-1,2.228488684E0
2.704684788E1,-2.526433945E0,4.614824951E-1,2.641363859E0
2.706684788E1,-1.996464729E0,-7.698646933E-2,2.973622084E0
2.708684788E1,-9.114458561E-1,-8.431685567E-1,3.151488543E0
2.710684788E1,5.963615775E-1,-1.650016785E0,3.211283684E0
2.712684788E1,1.708101392E0,-2.052070856E0,2.952590942E0
2.714684788E1,1.841008186E0,-2.107642174E0,2.331166506E0
2.716684788E1,1.186038494E0,-1.855599165E0,1.745556116E0
2.718684788E1,-4.857251421E-2,-1.414973378E0,1.221887589E0
2.720684788E1,-1.115335226E0,-7.599163651E-1,5.419072509E-1
2.722684788E1,-1.588563800E0,-1.483006328E-1,-2.676636875E-1
2.724684788E1,-1.445865631E0,5.004382730E-1,-9.985028505E-1
2.726684788E1,-7.631626725E-1,9.495638013E-1,-1.504194498E0
2.728684788E1,1.272868663E-1,8.964883685E-1,-1.829209805E0
2.730684788E1,7.245036364E-1,3.767467737E-1,-2.178729296E0
2.732684788E1,9.106429815E-1,-1.980250627E-1,-2.632951260E0
2.734684788E1,8.573755622E-1,-4.876624346E-1,-3.167737722E0
2.736684788E1,7.323576212E-1,-3.808657527E-1,-3.666343451E0
2.738684788E1,7.433880568E-1,-1.388933063E-1,-4.003052235E0
2.740684788E1,9.759008288E-1,1.920560300E-1,-4.216453552E0
2.742684788E1,1.421448469E0,4.836481810E-1,-4.209804058E0
2.744684788E1,1.859753013E0,6.362074018E-1,-3.999805927E0
2.746684788E1,2.128917694E0,5.685409904E-1,-3.756995678E0
2.748684788E1,2.178048611E0,3.360631466E-1,-3.545269728E0
2.750885881E1,2.090991735E0,1.356120780E-2,-3.375117779E0
2.753084788E1,1.932149291E0,-2.817485034E-1,-3.187110901E0
2.755084788E1,1.854761362E0,-4.917814136E-1,-2.932292700E0
2.757084788E1,1.807148814E0,-5.874603987E-1,-2.647804022E0
2.759084788E1,1.659267068E0,-5.603554249E-1,-2.350539684E0
2.761084788E1,1.388863206E0,-4.579394758E-1,-1.949375629E0
2.763084788E1,9.528974295E-1,-3.995407820E-1,-1.451817274E0
2.765084944E1,5.130046010E-1,-3.581590056E-1,-9.701936245E-1
2.767284788E1,1.256811619E-1,-3.045599461E-1,-4.565257728E-1
2.769284944E1,-1.359960586E-1,-1.968905926E-1,2.293362655E-2
2.771284944E1,-3.929434121E-1,-1.173733920E-1,4.842765033E-1
2.773484788E1,-7.381695509E-1,-1.352281123E-1,8.677427769E-1
2.775484788E1,-1.150660634E0,-5.185373127E-2,1.122491002E0
2.777484788E1,-1.436702728E0,1.706931926E-2,1.596696973E0
2.779484788E1,-1.501157641E0,1.000771821E-1,2.158623219E0
2.781484788E1,-1.283689618E0,2.134363204E-1,2.591621876E0
2.783484788E1,-7.900058031E-1,3.233571351E-1,2.797308922E0
2.785484788E1,-2.000147253E-1,3.405835629E-1,2.739346504E0
2.787484944E1,9.995500743E-2,2.853089571E-1,2.606230259E0
2.789684788E1,1.226791963E-1,1.919687688E-1,2.539872885E0
2.791684788E1,-7.833037525E-2,1.011243761E-1,2.499992132E0
2.793684788E1,-4.366464615E-1,1.358389705E-1,2.457266569E0
2.795684788E1,-8.308814168E-1,2.605951130E-1,2.392060995E0
2.797684788E1,-1.234698296E0,5.081002712E-1,2.371972322E0
2.799684788E1,-1.631725788E0,7.880685329E-1,2.462764263E0
2.801684944E1,-1.988645554E0,9.870360494E-1,2.659271002E0
2.803884944E1,-2.172882557E0,1.027108788E0,2.980097294E0
2.805886038E1,-1.977789640E0,7.695156932E-1,3.271305561E0
2.808084944E1,-1.480388284E0,2.974913716E-1,3.325847149E0
2.810084944E1,-1.047075391E0,-9.149015695E-2,3.156166077E0
2.812284788E1,-6.884102225E-1,-3.639011383E-1,2.881433964E0
2.814287131E1,-5.643696785E-1,-5.527806878E-1,2.501248837E0
2.816484788E1,-6.091897488E-1,-6.278821826E-1,1.967596889E0
2.818484788E1,-6.402915120E-1,-5.997126102E-1,1.488120079E0
2.820484788E1,-5.881584883E-1,-5.310164094E-1,9.216560125E-1
2.822484788E1,-4.018445909E-1,-3.762231767E-1,2.450965792E-1
2.824484788E1,-7.382743061E-2,2.972295694E-2,-5.948256850E-1
2.826485256E1,1.870294809E-1,7.489033341E-1,-1.256759286E0
2.828684788E1,4.045149684E-1,1.213876486E0,-1.529676318E0
2.830684788E1,6.877993345E-1,1.269447803E0,-1.583991051E0
2.832684788E1,1.078316808E0,9.872455001E-1,-1.792156458E0
2.834684788E1,1.416334629E0,3.895749450E-1,-2.141030312E0
2.836684788E1,1.615406990E0,-3.472158015E-1,-2.564447165E0
2.838684788E1,1.638096213E0,-9.376955628E-1,-3.044587135E0
2.840684788E1,1.513497114E0,-1.005693674E0,-3.470342875E0
2.842684788E1,1.478119373E0,-7.331081033E-1,-3.765460491E0
2.844684788E1,1.627728939E0,-3.809181154E-1,-3.895452738E0
2.846684788E1,1.912200212E0,1.584758982E-2,-3.808744669E0
2.848684788E1,1.986237049E0,2.860769033E-1,-3.584592104E0
2.850684788E1,1.779450417E0,5.979672670E-1,-3.310348511E0
2.852684788E1,1.603940129E0,7.735299468E-1,-3.116739273E0
2.854684788E1,1.661239266E0,5.909160972E-1,-2.982854843E0
2.856684788E1,1.767110944E0,2.553940415E-1,-2.833158016E0
2.858684788E1,1.803797722E0,-1.811477244E-1,-2.690669298E0
2.860684788E1,1.692620277E0,-5.454502702E-1,-2.498072386E0
2.862684788E1,1.444067955E0,-8.893848658E-1,-2.169426918E0
2.864684788E1,1.055819511E0,-9.646609426E-1,-1.767669439E0
2.866684788E1,5.429545045E-1,-8.020311594E-1,-1.352298498E0
2.868684788E1,-1.893682219E-2,-5.234766006E-1,-9.517455101E-1
2.870684788E1,-5.607568622E-1,-3.373372257E-1,-4.673468173E-1
2.872684788E1,-9.269618392E-1,-2.475575060E-1,1.420174390E-1
2.874684788E1,-1.066431046E0,-2.441191971E-1,8.585972786E-1
2.876684788E1,-9.296670556E-1,-3.307922482E-1,1.508592844E0
2.878684788E1,-7.932521701E-1,-3.142116368E-1,1.993235826E0
2.880684788E1,-7.459537387E-1,-2.015157193E-1,2.432674885E0
2.882684788E1,-7.816631794E-1,-5.810201168E-2,2.901278257E0
2.884684788E1,-7.451334000E-1,4.625122529E-3,3.242926359E0
2.886684788E1,-5.648234487E-1,9.021607041E-2,3.213709593E0
2.888684788E1,-2.531949282E-1,1.208116934E-1,2.942904472E0
2.890684788E1,-1.090830751E-2,5.195845291E-2,2.702939034E0
2.892684788E1,3.909537569E-2,-5.607742816E-2,2.571393490E0
2.894684788E1,-1.998751014E-1,-1.765924096E-1,2.472014427E0
2.896684788E1,-6.183352470E-1,-1.525592357E-1,2.284967661E0
2.898684788E1,-1.032816052E0,9.962339699E-2,1.988628149E0
2.900684788E1,-1.336799979E0,6.371498704E-1,1.746463656E0
2.902684788E1,-1.473022938E0,1.209408402E0,1.750408173E0
2.904684788E1,-1.528978229E0,1.612614393E0,1.943075061E0
2.906684788E1,-1.588563800E0,1.737545133E0,2.150071144E0
2.908684788E1,-1.614691377E0,1.583991051E0,2.225765944E0
2.910684788E1,-1.542609215E0,1.232324600E0,2.191034079E0
2.912684788E1,-1.368634820E0,7.487986088E-1,2.134467840E0
2.914684788E1,-1.135999918E0,2.132443339E-1,2.060745239E0
2.916684788E1,-9.066636562E-1,-2.350085825E-1,1.995836377E0
2.918684788E1,-7.706152201E-1,-5.762379169E-1,1.884013057E0
2.920684788E1,-7.622725368E-1,-8.373566270E-1,1.718974829E0
2.922684788E1,-7.758163214E-1,-9.934414029E-1,1.473546624E0
2.924885412E1,-7.067710757E-1,-1.053934574E0,1.040774703E0
2.927084788E1,-4.491953850E-1,-8.734500408E-1,4.259301424E-1
2.929084788E1,-1.847954541E-1,-3.708999157E-1,-2.546260953E-1
2.931084788E1,4.263839498E-2,6.647610068E-1,-8.352622390E-1
2.933084788E1,3.975161910E-1,1.292521000E0,-1.135476351E0
2.935084788E1,7.775442004E-1,1.311771989E0,-1.313395143E0
2.937084788E1,1.148566246E0,7.601083517E-1,-1.466652513E0
2.939084788E1,1.304406762E0,-2.127381861E-1,-1.763986826E0
2.941084944E1,1.285784006E0,-1.100691915E0,-2.250288010E0
2.943284788E1,1.277197003E0,-1.446668506E0,-2.807780981E0
2.945287756E1,1.321510911E0,-1.321022272E0,-3.138241529E0
2.947484788E1,1.477770329E0,-8.409345150E-1,-3.356320381E0
2.949484788E1,1.718189359E0,-2.805965841E-1,-3.433848143E0
2.951484788E1,1.929810524E0,1.812524348E-1,-3.381994247E0
2.953484788E1,2.010479689E0,4.398055077E-1,-3.268897057E0
2.955484788E1,2.019659996E0,4.335397780E-1,-3.109129429E0
2.957684631E1,1.993986249E0,1.366592795E-1,-2.950514078E0
2.959684631E1,1.956793308E0,-2.746799290E-1,-2.883266449E0
2.961684788E1,1.859421372E0,-7.322354317E-1,-2.824012518E0
2.963884631E1,1.608128905E0,-1.034090161E0,-2.652935266E0
2.965884788E1,1.280600429E0,-1.090324640E0,-2.368917942E0
2.967885569E1,8.372693658E-1,-9.977523685E-1,-1.930508733E0
2.970084788E1,2.624800801E-1,-7.427772284E-1,-1.389456630E0
2.972084788E1,-1.785122752E-1,-5.445601940E-1,-9.066985250E-1
2.974084788E1,-4.743630290E-1,-3.918089569E-1,-3.382797241E-1
2.976084788E1,-5.735849738E-1,-2.739643455E-1,2.801777124E-1
2.978284788E1,-5.115036368E-1,-1.245466918E-1,8.737816215E-1
2.980287444E1,-4.622853696E-1,-5.405284837E-2,1.175776005E0
2.982484788E1,-5.762727857E-1,1.858426630E-1,1.403838158E0
2.984484788E1,-6.723706126E-1,3.157824278E-1,1.739255548E0
2.986484788E1,-7.154279351E-1,4.410970509E-1,1.962238789E0
2.988484788E1,-6.964212656E-1,5.114513040E-1,1.906143904E0
2.990684788E1,-5.759586692E-1,4.392470121E-1,1.752205849E0
2.992884944E1,-5.439493060E-1,3.907966614E-1,1.741419673E0
2.995084788E1,-6.454052925E-1,4.000818133E-1,1.984805822E0
2.997084788E1,-7.564082146E-1,3.928387165E-1,2.254755974E0
2.999084788E1,-7.892378569E-1,4.816236198E-1,2.327396631E0
3.001084788E1,-7.827627063E-1,5.747543573E-1,2.292088509E0
3.003084788E1,-7.648207545E-1,7.514340281E-1,2.205642462E0
3.005084788E1,-7.080451846E-1,8.802568316E-1,2.176460505E0
3.007284788E1,-5.751383305E-1,8.962440491E-1,2.135724545E0
3.009484788E1,-5.799205303E-1,7.751181722E-1,2.025384665E0
3.011484788E1,-7.884001136E-1,5.271941423E-1,1.965083599E0
3.013684788E1,-1.029325366E0,3.047693968E-1,1.952883840E0
3.015885100E1,-1.108650565E0,5.124286562E-2,1.972222090E0
3.017885100E1,-1.077461600E0,-2.062455565E-1,1.987266779E0
3.020084788E1,-1.012849450E0,-5.296201706E-1,2.053170443E0
3.022084788E1,-9.165945649E-1,-7.841066122E-1,2.021544933E0
3.024085413E1,-9.181827903E-1,-8.675857186E-1,1.902705550E0
3.026284788E1,-1.052224040E0,-6.529800296E-1,1.531596184E0
3.028284788E1,-1.200507283E0,-1.424363256E-1,9.932319522E-1
3.030287288E1,-1.273095489E0,6.692639589E-1,3.482455313E-1
3.032484944E1,-9.856048822E-1,1.893315673E0,-1.554215699E-1
3.034684788E1,-3.970973194E-1,2.375131369E0,-4.630358517E-1
3.036684788E1,3.441789374E-2,2.028788090E0,-8.427671194E-1
3.038684788E1,2.897246480E-1,1.339487791E0,-1.357255340E0
3.040684788E1,2.891312540E-1,4.728969634E-1,-2.092894077E0
3.042684788E1,1.469392627E-1,-2.945417762E-1,-2.878257275E0
3.044684788E1,1.313709319E-1,-5.218011141E-1,-3.382517815E0
3.046884788E1,4.045324028E-1,-3.587000668E-1,-3.495283604E0
3.048884944E1,8.879362345E-1,-2.169444226E-2,-3.386113167E0
3.051084788E1,1.509395599E0,4.412192404E-1,-3.134663582E0
3.053084788E1,1.987790346E0,6.257703304E-1,-2.850593805E0
3.055084788E1,2.261737347E0,5.709495544E-1,-2.631782055E0
3.057284788E1,2.328565836E0,2.818881273E-1,-2.567553759E0
3.059284788E1,2.193721771E0,-8.333947510E-2,-2.574954033E0
3.061484788E1,1.948817134E0,-4.714832306E-1,-2.535143137E0
3.063484788E1,1.604306698E0,-7.427946925E-1,-2.450215340E0
3.065684631E1,1.088282585E0,-7.927983403E-1,-2.344657898E0
3.067684631E1,5.231973529E-1,-6.100100279E-1,-2.202081919E0
3.069684788E1,-6.836454570E-2,-2.447649688E-1,-2.024599314E0
3.071885413E1,-6.803293228E-1,-6.806784077E-4,-1.626280308E0
3.074085413E1,-1.100447536E0,-8.297295123E-2,-8.792270422E-1
3.076284631E1,-1.123922229E0,-2.915048897E-1,-8.045967668E-3
3.078284788E1,-9.458986521E-1,-4.072551131E-1,6.675535440E-1
3.080286819E1,-7.898662090E-1,-6.471157074E-1,1.133922935E0
3.082484788E1,-9.241867661E-1,-5.448219776E-1,1.284160852E0
3.084484788E1,-1.116906047E0,-4.099080265E-1,1.600484371E0
3.086484788E1,-1.114759207E0,-2.833891213E-1,2.015663385E0
3.088484788E1,-9.283231497E-1,-1.852143407E-1,2.251893520E0
3.090484788E1,-5.583831668E-1,-4.895648360E-2,2.303660154E0
3.092484788E1,-7.340855151E-2,-2.171189524E-2,2.173685312E0
3.094484788E1,1.923352778E-1,-9.035569429E-2,1.872633576E0
3.096484788E1,-7.408922911E-2,-1.993165910E-2,1.397921443E0
3.098684788E1,-8.551764488E-1,3.678630590E-1,1.067111731E0
3.100884788E1,-1.441990972E0,7.975282073E-1,1.039465785E0
3.102885413E1,-1.648515821E0,1.152580500E0,1.180383563E0
3.104885413E1,-1.648725271E0,1.351932049E0,1.417381883E0
3.107084788E1,-1.522974253E0,1.258364916E0,1.686162591E0
3.109084788E1,-1.431833148E0,8.241270185E-1,1.914800763E0
3.111084788E1,-1.429581761E0,2.532298267E-1,2.162305832E0
3.113084788E1,-1.291002631E0,-2.806140482E-1,2.288021803E0
3.115084788E1,-1.073168039E0,-6.975033879E-1,2.318826914E0
3.117084788E1,-9.226334095E-1,-1.013390541E0,2.208749056E0
3.119084788E1,-9.893922210E-1,-1.224575400E0,2.095791340E0
3.121084788E1,-1.117185235E0,-1.363311529E0,1.953215361E0
3.123084788E1,-1.266550541E0,-1.400120616E0,1.684068203E0
3.125084788E1,-1.373417020E0,-1.223091841E0,1.202270031E0
3.127084788E1,-1.363904953E0,-6.161710620E-1,5.955936313E-1
3.129084788E1,-1.106678367E0,4.418649971E-1,-6.181956083E-2
3.131084788E1,-6.403438449E-1,1.341512442E0,-5.300564766E-1
3.133084788E1,-3.701843321E-2,2.183040380E0,-6.532942057E-1
3.135084788E1,6.853907704E-1,2.697947502E0,-4.471184313E-1
3.137084788E1,1.387013197E0,2.254162550E0,-2.887821794E-1
3.139084788E1,1.797863603E0,1.207540989E0,-4.534190893E-1
3.141084788E1,1.797165513E0,-1.315105557E-1,-1.039413333E0
3.143084788E1,1.443683982E0,-1.381812096E0,-1.772329450E0
3.145284788E1,1.204329491E0,-1.868287683E0,-2.404976368E0
3.147285100E1,1.225133896E0,-1.521333694E0,-2.684665442E0
3.149484788E1,1.414554477E0,-7.127051950E-1,-2.856178999E0
3.151484788E1,1.722849369E0,2.014459074E-1,-2.892446995E0
3.153484788E1,2.109387398E0,8.040731549E-1,-2.833053350E0
3.155484788E1,2.517410517E0,1.038907290E0,-2.730619907E0
3.157484788E1,2.891923189E0,8.954411745E-1,-2.697301626E0
3.159484788E1,3.117262840E0,4.058763087E-1,-2.813226461E0
3.161484788E1,3.065862894E0,-2.072229385E-1,-3.026243925E0
3.163484788E1,2.779925585E0,-6.083694100E-1,-3.111730099E0
3.165484788E1,2.341708183E0,-7.783121467E-1,-2.928034067E0
3.167484788E1,1.805647850E0,-7.579441071E-1,-2.577903748E0
3.169484788E1,1.206214547E0,-5.512447953E-1,-2.213531256E0
3.171484788E1,7.476816177E-1,-3.169867098E-1,-1.803064704E0
3.173484788E1,3.807784915E-1,-1.769414842E-1,-1.410714746E0
3.175484788E1,1.618618369E-1,-3.794345632E-2,-9.307666421E-1
3.177484788E1,8.405505866E-2,-1.441641990E-2,-3.560122550E-1
3.179484788E1,1.069188714E-1,-7.524114102E-2,2.713637948E-1
3.181484788E1,2.115513533E-1,-2.291617244E-1,8.668003082E-1
3.183484788E1,1.745852828E-1,-4.579744041E-1,1.346957803E0
3.185484788E1,-1.753706783E-1,-2.963743508E-1,1.666545033E0
3.187484788E1,-4.602258801E-1,-1.056447774E-1,2.059122086E0
3.189484788E1,-6.955311298E-1,1.114218161E-1,2.309978247E0
3.191484788E1,-8.486663699E-1,3.092897832E-1,2.323748827E0
3.193484788E1,-7.790451646E-1,3.633251786E-1,2.245174170E0
3.195484788E1,-5.178741217E-1,3.282615244E-1,2.192761898E0
3.197484788E1,-2.484301627E-1,3.014008999E-1,2.085860491E0
3.199484788E1,-1.087340117E-1,2.467546463E-1,1.823624730E0
3.201484788E1,-2.086366564E-1,3.271270692E-1,1.522572875E0
3.203484788E1,-5.002637506E-1,5.296899676E-1,1.322505832E0
3.205484788E1,-8.633620143E-1,7.096508741E-1,1.194939613E0
3.207484788E1,-1.337969422E0,9.811368585E-1,1.098178625E0
3.209484788E1,-1.855738759E0,1.264421225E0,1.062486649E0
3.211484788E1,-2.201279163E0,1.390800476E0,1.097532868E0
3.213484788E1,-2.379948378E0,1.325839400E0,1.221451163E0
3.215484788E1,-2.515176535E0,1.066029668E0,1.344025731E0
3.217484788E1,-2.631275892E0,7.551167011E-1,1.545157433E0
3.219484788E1,-2.583820343E0,3.660478890E-1,1.763306141E0
3.221484788E1,-2.307098389E0,-4.335397854E-2,1.951190829E0
3.223484944E1,-1.933667779E0,-4.841892421E-1,2.069227457E0
3.225684788E1,-1.586766124E0,-9.617986083E-1,1.990129113E0
3.227684788E1,-1.403925419E0,-1.180191636E0,1.813938141E0
3.229684788E1,-1.270128489E0,-1.058210611E0,1.551301003E0
3.231684788E1,-1.199355364E0,-7.625343204E-1,1.186649323E0
3.233684788E1,-1.194625497E0,-1.474977732E-1,7.625692487E-1
3.235684788E1,-9.169261456E-1,9.390046000E-1,3.836408257E-1
3.237684788E1,-3.251548409E-1,1.536500573E0,1.249306649E-1
3.239684788E1,2.964267135E-1,1.243267894E0,-1.717927605E-1
3.241684944E1,7.627089024E-1,5.222374201E-1,-6.493497491E-1
3.243884788E1,9.145001769E-1,-3.002140820E-1,-1.297076344E0
3.245885412E1,1.054999113E0,-6.514092088E-1,-1.755556822E0
3.248084788E1,1.300392509E0,-6.065542698E-1,-1.932341218E0
3.250084788E1,1.533917546E0,-1.748296320E-1,-1.848495603E0
3.252084944E1,1.820710063E0,2.481160015E-1,-1.675900102E0
3.254085412E1,2.146824837E0,4.394564629E-1,-1.574356794E0
3.256284788E1,2.447702169E0,4.485670626E-1,-1.631586194E0
3.258284788E1,2.572667599E0,2.878222466E-1,-1.801406622E0
3.260286819E1,2.434332848E0,-7.449065149E-2,-1.981402516E0
3.262484788E1,2.003463507E0,-6.626666188E-1,-2.027845621E0
3.264484788E1,1.504840374E0,-1.082208872E0,-2.094744205E0
3.266484788E1,1.083919287E0,-1.194974542E0,-2.133036613E0
3.268484788E1,7.912799120E-1,-1.071213245E0,-2.061390877E0
3.270484788E1,5.606521368E-1,-7.530746460E-1,-1.866245627E0
3.272484788E1,3.169168830E-1,-4.114788175E-1,-1.495432973E0
3.274484788E1,5.391322076E-2,-1.670105606E-1,-1.016148090E0
3.276484788E1,-1.311440468E-1,-1.391551048E-1,-4.040786326E-1
3.278484788E1,-1.304808110E-1,-3.046821356E-1,3.039839864E-1
3.280484944E1,-3.328342736E-2,-4.802273512E-1,7.918908000E-1
3.282484944E1,-5.019566789E-2,-5.779657960E-1,9.694431424E-1
3.284684788E1,-3.888593614E-1,-4.396833479E-1,8.951444626E-1
3.286684788E1,-7.188836336E-1,-2.629862130E-1,9.323897958E-1
3.288684788E1,-9.683610201E-1,-1.578475833E-1,1.047633886E0
3.290684788E1,-1.170644641E0,7.304202765E-2,1.024822474E0
3.292684788E1,-1.092960119E0,3.064798117E-1,9.736842513E-1
3.294684788E1,-6.898239255E-1,4.131892323E-1,9.594773054E-1
3.296684788E1,-2.169269770E-1,4.851142764E-1,9.345191121E-1
3.298684788E1,1.605702913E-3,6.259274483E-1,8.818101287E-1
3.300684788E1,-4.113740847E-2,7.505439520E-1,8.196763992E-1
3.302684788E1,-2.464753985E-1,7.974758148E-1,8.127125502E-1
3.304684788E1,-5.411567688E-1,7.190232873E-1,8.551589847E-1
3.306684788E1,-8.514937758E-1,6.357187033E-1,9.460033774E-1
3.308684788E1,-1.129105806E0,5.625196099E-1,1.084861755E0
3.310684788E1,-1.286866188E0,5.271418095E-1,1.247369409E0
3.312684788E1,-1.328754067E0,4.138001204E-1,1.397851706E0
3.314684788E1,-1.321755290E0,3.026226461E-1,1.480911851E0
3.316684788E1,-1.233214736E0,1.672548950E-1,1.588947773E0
3.318684788E1,-1.048558950E0,-4.728097096E-2,1.740477204E0
3.320684788E1,-8.400095105E-1,-2.994810343E-1,1.813466907E0
3.322684788E1,-7.132811546E-1,-5.821720362E-1,1.712621808E0
3.324684788E1,-7.419568896E-1,-8.634667397E-1,1.504543662E0
3.326684788E1,-9.065414667E-1,-9.341874719E-1,1.234418988E0
3.328884788E1,-1.012168765E0,-5.991191864E-1,9.389173388E-1
3.330884788E1,-8.949874043E-1,-1.342681795E-1,7.174699306E-1
3.332884788E1,-6.025400162E-1,3.177022934E-1,5.038940310E-1
3.334885412E1,-2.709623575E-1,1.219653487E0,2.426531315E-1
3.337084944E1,1.698379815E-1,1.923457503E0,1.337620318E-1
3.339284788E1,6.498733163E-1,1.682811499E0,4.677482415E-3
3.341284788E1,1.057617188E0,6.723706126E-1,-3.523470759E-1
3.343284788E1,1.185410142E0,-5.451536179E-1,-9.896714687E-1
3.345284788E1,9.607339501E-1,-1.271367669E0,-1.801022649E0
3.347284788E1,8.119969964E-1,-1.278994679E0,-2.510725975E0
3.349284944E1,8.570089936E-1,-7.039785385E-1,-2.841343641E0
3.351484788E1,1.144482255E0,2.960776389E-1,-2.637052774E0
3.353484788E1,1.387362242E0,1.022710562E0,-2.121308088E0
3.355484788E1,1.392598152E0,1.191082478E0,-1.631411552E0
3.357485725E1,1.249847770E0,1.095752597E0,-1.467752099E0
3.359684788E1,1.104793429E0,7.513467669E-1,-1.629753590E0
3.361684788E1,1.048558950E0,2.386388630E-1,-1.840100646E0
3.363684788E1,8.839569092E-1,-2.384817898E-1,-2.047253847E0
3.365684788E1,5.265483856E-1,-4.279023707E-1,-2.155115128E0
3.367684944E1,9.089674801E-2,-3.168645203E-1,-2.023168325E0
3.369684944E1,-3.674441576E-1,-2.073102146E-1,-1.745503783E0
3.371884944E1,-8.494168520E-1,1.862266287E-2,-1.519047260E0
3.373884944E1,-1.252465725E0,2.301216573E-1,-1.275067687E0
3.376084788E1,-1.634186625E0,4.410796165E-1,-8.612326980E-1
3.378084788E1,-2.013691187E0,4.959876537E-1,-5.709146261E-1
3.380084788E1,-2.395796061E0,5.778261423E-1,-3.612831533E-1
3.382084788E1,-2.651190042E0,5.354495645E-1,4.825835302E-2
3.384084788E1,-2.764863253E0,4.642401338E-1,6.129072905E-1
3.386084788E1,-2.776417494E0,2.568601072E-1,1.159788728E0
3.388084788E1,-2.788547516E0,-7.105235010E-2,1.418219686E0
3.390084944E1,-2.887525082E0,-1.352630109E-1,1.576049805E0
3.392284788E1,-2.848045826E0,-1.498714238E-1,1.843224764E0
3.394284944E1,-2.406634569E0,1.569050923E-2,2.374468088E0
3.396484788E1,-1.500756264E0,2.532472610E-1,3.072268248E0
3.398484788E1,-7.466867566E-1,2.898992002E-1,3.310034275E0
3.400484788E1,-3.893829584E-1,8.667305112E-2,3.074100733E0
3.402484788E1,-5.338962078E-1,-1.549503356E-1,2.677806377E0
3.404484788E1,-1.105893016E0,-2.819753885E-1,2.409653902E0
3.406484788E1,-1.835580230E0,-2.207666934E-1,2.300640583E0
3.408484788E1,-2.402498007E0,9.407324716E-3,2.180212975E0
3.410484788E1,-2.754042387E0,3.034429550E-1,2.162131310E0
3.412484788E1,-2.928243637E0,5.292012691E-1,2.242311716E0
3.414484944E1,-3.004008293E0,6.068859100E-1,2.346490383E0
3.416684788E1,-2.952468872E0,3.101973534E-1,2.393265247E0
3.418684788E1,-2.747008562E0,-1.537984163E-1,2.270847797E0
3.420684788E1,-2.384468794E0,-7.434579134E-1,1.967911124E0
3.422684788E1,-1.882058382E0,-1.207069755E0,1.614691377E0
3.424684788E1,-1.255956411E0,-1.184310555E0,1.192129731E0
3.426684788E1,-5.715429783E-1,-5.143485069E-1,6.174625754E-1
3.428684788E1,2.984513063E-3,2.427054793E-1,8.180358261E-2
3.430684788E1,3.572863638E-1,6.087010503E-1,-1.922305673E-1
3.432684788E1,5.655564666E-1,7.912973762E-1,-3.554711938E-1
3.434684788E1,8.751604557E-1,7.358133793E-1,-4.277627468E-1
3.436684788E1,1.384011149E0,7.016223669E-2,-5.562539101E-1
3.438684788E1,2.050046206E0,-1.062922955E0,-8.064642549E-1
3.440684788E1,2.694351912E0,-1.899162531E0,-1.287267566E0
3.442684788E1,3.191439152E0,-2.154294729E0,-2.062944174E0
3.444684788E1,3.577890158E0,-1.787042618E0,-2.944824219E0
3.446684788E1,3.843546629E0,-1.278069735E0,-3.619446278E0
3.448684788E1,3.921999216E0,-8.615119457E-1,-3.913534403E0
3.450684788E1,4.045777798E0,-6.392268538E-1,-4.011290073E0
3.452684788E1,4.176485538E0,-6.554234624E-1,-4.078467846E0
3.454684788E1,4.028551579E0,-8.773246408E-1,-4.213852882E0
3.456884631E1,3.418593884E0,-1.196946740E0,-4.319602489E0
3.458885256E1,2.670440912E0,-1.317165017E0,-4.256857872E0
3.461084788E1,2.173231602E0,-1.054545403E0,-4.045830250E0
3.463084788E1,1.980233073E0,-8.573580980E-1,-3.655836344E0
3.465084788E1,1.718852639E0,-7.273485065E-1,-3.107227087E0
3.467084788E1,1.266882181E0,-6.784618497E-1,-2.401398420E0
3.469084788E1,8.376184106E-1,-7.582059503E-1,-1.686232448E0
3.471084788E1,6.210753918E-1,-9.312728047E-1,-1.101477265E0
3.473284631E1,5.997998714E-1,-9.623221755E-1,-6.804689765E-1
3.475284788E1,4.959527552E-1,-8.438317776E-1,-4.477467537E-1
3.477484788E1,1.206720620E-1,-7.567223907E-1,-2.086890191E-1
3.479684631E1,-3.284535110E-1,-6.745697260E-1,1.592961997E-1
3.481684631E1,-5.636366010E-1,-6.651100516E-1,6.223320365E-1
3.483684788E1,-5.973913074E-1,-5.900958180E-1,1.167817235E0
3.485684788E1,-5.129697323E-1,-4.317246377E-1,1.495782018E0
3.487684788E1,-4.117580652E-1,-1.698554456E-1,1.518436432E0
3.489684788E1,-2.096140385E-1,1.354724616E-1,1.506864905E0
3.491684788E1,1.288227588E-1,3.647563457E-1,1.644327044E0
3.493684788E1,3.770085573E-1,5.474748611E-1,1.786815763E0
3.495684788E1,4.056145251E-1,7.656759620E-1,1.831129670E0
3.497684788E1,3.108606040E-1,9.948376417E-1,1.778106570E0
3.499684788E1,2.104517967E-1,1.130798817E0,1.716653466E0
3.501684788E1,9.395107627E-2,1.228641987E0,1.720964432E0
3.503684788E1,-3.647737950E-2,1.266428351E0,1.770828485E0
3.505684788E1,-3.326248527E-1,1.226914048E0,1.888550997E0
3.507684788E1,-7.875623703E-1,1.122805238E0,2.045630693E0
3.509684788E1,-1.251086950E0,1.009306431E0,2.169828176E0
3.511684788E1,-1.466914296E0,9.276948571E-1,2.290500402E0
3.513684788E1,-1.492588162E0,7.838448286E-1,2.486256361E0
3.515884788E1,-1.511943817E0,5.593082309E-1,2.640334129E0
3.517884944E1,-1.465483189E0,2.564586699E-1,2.669725418E0
3.520084788E1,-1.418219686E0,-2.154608965E-1,2.519278049E0
3.522084788E1,-1.391184449E0,-5.899212956E-1,2.306365252E0
3.524084788E1,-1.335456133E0,-6.356314421E-1,2.051023722E0
3.526084788E1,-1.237071872E0,-5.019043088E-1,1.689548492E0
3.528284788E1,-1.200280428E0,1.062556431E-1,1.160818458E0
3.530287288E1,-9.139765501E-1,7.412762642E-1,7.832688689E-1
3.532485256E1,-3.006329536E-1,7.459362745E-1,3.475125134E-1
3.534485413E1,-2.900737152E-2,1.951103508E-1,-2.605776489E-1
3.536684788E1,-2.076941729E-2,-4.708549380E-1,-1.116975784E0
3.538684788E1,1.049815565E-1,-5.167919993E-1,-1.891238809E0
3.540684788E1,4.808207452E-1,-3.490309417E-1,-2.409235001E0
3.542684788E1,1.070846796E0,-2.670353744E-3,-2.731230736E0
3.544684788E1,1.603556156E0,3.518060148E-1,-2.803173304E0
3.546684788E1,1.963739753E0,5.996951461E-1,-2.776556969E0
3.548684944E1,2.200650692E0,6.795788407E-1,-2.747061014E0
3.550884944E1,2.305370569E0,3.682993650E-1,-2.784829855E0
3.552885725E1,2.176477909E0,-1.173908487E-1,-2.868570805E0
3.555084788E1,1.923282981E0,-5.124984980E-1,-2.904751539E0
3.557084788E1,1.676825047E0,-7.123736143E-1,-2.806524277E0
3.559084788E1,1.294283867E0,-7.503345013E-1,-2.582441568E0
3.561084788E1,7.871783972E-1,-6.543064713E-1,-2.324272394E0
3.563085881E1,2.761808932E-1,-3.564834893E-1,-2.014092445E0
3.565284944E1,-1.569923609E-1,-7.417649031E-2,-1.622213721E0
3.567484788E1,-4.877497256E-1,1.010720134E-1,-1.073010921E0
3.569484788E1,-6.149318814E-1,1.659284532E-1,-3.788411617E-1
3.571484944E1,-4.812047184E-1,-2.241002768E-2,3.965737224E-1
3.573684788E1,-2.485348880E-1,-3.134436905E-1,1.122508526E0
3.575684944E1,-2.087588310E-1,-5.677207112E-1,1.526936173E0
3.577687444E1,-3.263067603E-1,-5.299168825E-1,1.909425139E0
3.579884788E1,-2.655692995E-1,-3.899414539E-1,2.199882746E0
3.581884788E1,3.984586522E-2,-1.265712827E-1,2.248525143E0
3.583885413E1,6.369928122E-1,1.073901057E-1,2.194507122E0
3.586084788E1,1.211502790E0,1.612684280E-1,2.009222984E0
3.588084788E1,1.314512134E0,1.182460561E-1,1.763829708E0
3.590084788E1,8.114385009E-1,1.296779606E-2,1.527128220E0
3.592084788E1,-5.635667965E-2,8.628907800E-2,1.323500633E0
3.594084788E1,-8.038986325E-1,3.285233378E-1,1.210926890E0
3.596084788E1,-1.170539975E0,7.164052725E-1,1.122909904E0
3.598084788E1,-1.242133379E0,1.096852183E0,1.097445607E0
3.600084788E1,-1.205900311E0,1.280425906E0,1.160504341E0
3.602084788E1,-1.190611243E0,1.125091553E0,1.266445756E0
3.604084788E1,-1.162668586E0,7.405955791E-1,1.356993437E0
3.606085100E1,-1.036882639E0,2.691297829E-1,1.436964512E0
3.608284788E1,-7.811046243E-1,-2.716430426E-1,1.570848703E0
3.610287444E1,-5.694485903E-1,-6.628586054E-1,1.743304610E0
3.612484788E1,-4.479736686E-1,-8.620181084E-1,1.921816945E0
3.614484788E1,-5.241223574E-1,-8.341975808E-1,1.878462911E0
3.616484788E1,-6.921800971E-1,-6.311808825E-1,1.672391891E0
3.618484788E1,-8.805709481E-1,-2.942974269E-1,1.383051276E0
3.620484788E1,-1.071318030E0,1.034282148E-1,1.011470675E0
3.622484788E1,-1.183455348E0,6.193475127E-1,5.553637743E-1
3.624484788E1,-8.902400732E-1,1.326031327E0,3.783873841E-2
3.626484788E1,-2.987480164E-1,1.580098867E0,-3.992964327E-1
3.628484788E1,2.736850679E-1,1.310288429E0,-7.229852080E-1
3.630484788E1,6.851464510E-1,6.274109483E-1,-1.132579088E0
3.632484944E1,8.047713041E-1,-1.309869587E-1,-1.735276103E0
3.634684788E1,6.619161367E-1,-6.136577725E-1,-2.396214962E0
3.636684788E1,4.929856956E-1,-6.434156299E-1,-2.842478037E0
3.638685569E1,5.419247150E-1,-4.019842446E-1,-3.025301456E0
3.640885569E1,9.453575611E-1,1.652652323E-1,-2.914787054E0
3.643086662E1,1.555262923E0,6.744650602E-1,-2.610052586E0
3.645284788E1,1.970738530E0,8.944987059E-1,-2.317378283E0
3.647284788E1,2.202954531E0,8.650200963E-1,-2.143211842E0
3.649284788E1,2.289854527E0,5.359033346E-1,-2.138499498E0
3.651284788E1,2.230234146E0,2.858849242E-2,-2.235697031E0
3.653284788E1,1.989570618E0,-4.212177694E-1,-2.280464649E0
3.655284788E1,1.620223999E0,-7.913148403E-1,-2.172969818E0
3.657284788E1,1.246706128E0,-9.289340377E-1,-1.938153267E0
3.659284788E1,8.909032941E-1,-9.217782021E-1,-1.593450665E0
3.661284788E1,4.079357982E-1,-8.055741787E-1,-1.236461043E0
3.663284788E1,-1.716705859E-1,-6.392443180E-1,-8.837649226E-1
3.665284788E1,-7.658504844E-1,-4.022285640E-1,-3.946887553E-1
3.667284944E1,-1.007351637E0,-3.125884533E-1,2.063153684E-1
3.669484788E1,-7.564955354E-1,-2.874382734E-1,9.549045563E-1
3.671484788E1,-4.152138233E-1,-3.108256757E-1,1.481068969E0
3.673484788E1,-3.843913078E-1,-1.834166497E-1,1.716060042E0
3.675484788E1,-5.408600569E-1,-1.621410847E-1,1.922288179E0
3.677484788E1,-7.488335371E-1,-1.248957589E-1,1.996988297E0
3.679484788E1,-8.894197941E-1,2.768092230E-2,1.759745717E0
3.681484788E1,-8.444601297E-1,7.520623505E-2,1.456267834E0
3.683484788E1,-7.214318514E-1,9.992010146E-2,1.372858524E0
3.685484788E1,-7.232993245E-1,1.892984062E-1,1.602055192E0
3.687484788E1,-7.964286208E-1,1.762259007E-1,1.858496428E0
3.689484788E1,-8.408647180E-1,2.121796757E-1,1.876979470E0
3.691484788E1,-8.038811684E-1,3.018895984E-1,1.741070628E0
3.693484788E1,-8.078605533E-1,4.430518150E-1,1.591164351E0
3.695484788E1,-8.649328351E-1,5.199161172E-1,1.481086373E0
3.697484788E1,-1.033810854E0,5.162335038E-1,1.416003108E0
3.699685413E1,-1.267894387E0,4.427900314E-1,1.407416105E0
3.701885725E1,-1.458362222E0,3.168819845E-1,1.426457644E0
3.704084788E1,-1.529117823E0,1.904503256E-1,1.470492244E0
3.706085412E1,-1.494560361E0,2.056870461E-1,1.601933002E0
3.708286350E1,-1.516342044E0,2.842617631E-1,1.749378443E0
3.710287600E1,-1.445848227E0,2.942276001E-1,1.592002034E0
3.712484631E1,-1.296168804E0,3.369881809E-1,9.668076634E-1
3.714484631E1,-1.383400321E0,5.752430558E-1,9.939649701E-2
3.716484788E1,-1.714262366E0,1.208518386E0,-7.671071291E-1
3.718484788E1,-1.935273409E0,2.000740767E0,-1.436266303E0
3.720684788E1,-1.742048025E0,2.703043699E0,-1.838512421E0
3.722884788E1,-1.194101930E0,3.170512676E0,-1.719637990E0
3.724885569E1,-2.977706194E-1,2.717809200E0,-1.442916036E0
3.727084788E1,1.026742339E0,1.667347908E0,-1.585963249E0
3.729084788E1,2.052995920E0,7.682939172E-1,-2.086767912E0
3.731084788E1,2.608062983E0,3.814940751E-1,-2.526556015E0
3.733086663E1,2.675537348E0,9.595645666E-1,-2.600697756E0
3.735284788E1,2.570486069E0,2.425658703E0,-2.479100466E0
3.737284944E1,2.465748787E0,3.690969944E0,-2.179078579E0
3.739484788E1,2.663459778E0,4.593724251E0,-1.913893104E0
3.741684788E1,3.202138186E0,4.789288044E0,-1.822926641E0
3.743884788E1,3.850301027E0,4.571244240E0,-1.842107773E0
3.745884788E1,4.265078545E0,4.268830776E0,-1.886351824E0
3.747884788E1,4.422420025E0,4.040332317E0,-1.831164479E0
3.749884788E1,4.414146900E0,3.776107073E0,-1.769763827E0
3.751885413E1,4.056354523E0,3.615711451E0,-1.678099155E0
3.754084788E1,3.176289797E0,3.872519016E0,-1.396507740E0
3.756084788E1,2.544724941E0,4.147356033E0,-1.041647434E0
3.758084788E1,2.584326506E0,3.913586617E0,-7.127924562E-1
3.760084788E1,3.027500391E0,3.362621069E0,-7.154802680E-1
3.762084788E1,3.253572941E0,2.285595894E0,-8.092917204E-1
3.764084788E1,3.380074501E0,1.340779424E0,-8.439365029E-1
3.766084788E1,3.514674187E0,1.289292216E0,-8.111243248E-1
3.768084788E1,3.577558517E0,1.356085896E0,-6.637661457E-1
3.770084788E1,3.300941229E0,9.848544002E-1,-3.001442850E-1
3.772084788E1,2.658886909E0,6.026622057E-1,-8.457865566E-2
3.774084788E1,1.792784691E0,5.235463977E-1,-9.559167922E-2
3.776084788E1,1.262030125E0,8.217359185E-1,5.490805954E-2
3.778084788E1,9.739286304E-1,9.562484622E-1,3.939033449E-1
3.780084788E1,1.043811560E0,7.652570605E-1,7.155326605E-1
3.782084788E1,8.451582193E-1,2.961474657E-1,8.432383537E-1
3.784084788E1,5.085191131E-1,3.385415077E-1,7.456046343E-1
3.786084788E1,-4.490732029E-2,6.023305655E-1,5.234416723E-1
3.788084788E1,-2.654471397E-1,7.615395188E-1,4.084244967E-1
3.790084788E1,-5.021312088E-2,8.472177386E-1,3.921056688E-1
3.792084788E1,3.898890913E-1,7.966904640E-1,4.268377125E-1
3.794084788E1,5.914746523E-1,6.508681774E-1,2.995683253E-1
3.796084944E1,4.770159423E-1,4.527384043E-1,7.506661117E-2
3.798084944E1,2.761983573E-1,5.345594287E-1,-1.041263416E-1
3.800084944E1,2.617993858E-3,5.973040462E-1,-1.254018992E-1
3.802284788E1,-3.165329099E-1,2.459518015E-1,-1.661553420E-2
3.804284788E1,-2.381152660E-1,-8.927359432E-2,-4.600688070E-2
3.806284944E1,7.951720059E-2,-2.061582953E-1,-2.267008126E-1
3.808284944E1,3.815289587E-2,-5.913175642E-2,-2.034006715E-1
3.810287600E1,-3.585429788E-1,4.317421019E-1,-9.925687313E-2
3.812484788E1,-6.386683583E-1,9.012182355E-1,2.132792398E-2
3.814485412E1,-6.849370003E-1,8.885820508E-1,1.190140024E-1
3.816684788E1,-5.876349211E-1,6.914820075E-1,5.811946467E-2
3.818684788E1,-3.224495649E-1,8.717744946E-1,1.063429117E-1
3.820684788E1,-2.786767185E-1,6.527007818E-1,-1.859124750E-1
3.822684788E1,-6.998769939E-2,1.977632642E-1,-1.015956178E-1
3.824684788E1,3.489262164E-1,-8.484045416E-2,2.192133479E-2
3.826684788E1,4.772777259E-1,-1.748819835E-2,1.840275228E-1
3.828684788E1,5.537929758E-2,-5.248204991E-2,4.268900752E-1
3.830684788E1,-4.219857156E-1,2.735105455E-1,7.180982828E-1
3.832684788E1,-6.386334300E-1,7.322703600E-1,9.391267896E-1
3.834684788E1,-5.999743938E-1,7.536855340E-1,1.075960517E0
3.836684788E1,-3.133563995E-1,2.827956975E-1,1.106730700E0
3.838684788E1,2.435781509E-1,2.403841913E-1,8.715476394E-1
3.840684788E1,4.589866996E-1,5.152211785E-1,5.519778132E-1
3.842684788E1,7.206289768E-1,4.363497794E-1,3.495894372E-1
3.844684788E1,9.394583702E-1,1.118406951E-1,2.095267773E-1
3.846684788E1,1.121408939E0,7.276277989E-2,7.508406043E-2
3.848684788E1,8.953713775E-1,3.468318284E-1,-6.499606371E-2
3.850684788E1,4.057192504E-1,4.563861489E-1,-1.653350443E-1
3.852684788E1,-1.067792401E-1,3.030066192E-1,-1.966462433E-1
3.854684788E1,-2.347991467E-1,1.267632693E-1,-1.927018017E-1
3.856684788E1,8.534659632E-3,-1.456128210E-1,-1.031664088E-1
3.858684788E1,1.626472324E-1,-3.028320670E-1,3.019419685E-2
3.860684788E1,2.234021388E-2,-2.611885071E-1,2.687806962E-3
3.862684788E1,-2.860943675E-1,-9.470156580E-2,-1.417730898E-1
3.864684788E1,-3.734481037E-1,1.915324330E-1,-1.623505205E-1
3.866684788E1,-1.334653348E-1,-5.105087906E-2,9.084438533E-2
3.868684788E1,-1.459269822E-1,-7.572983950E-2,1.338842064E-1
3.870684788E1,-1.199739352E-1,7.038912922E-2,-4.590739608E-1
3.872684788E1,2.076767236E-1,-1.764702350E-1,-9.870185852E-1
3.874684788E1,3.740240633E-1,-5.035274625E-1,-1.197330713E0
3.876684788E1,2.195798755E-1,-7.306122780E-1,-1.070689678E0
3.878684788E1,-3.074048460E-1,-5.333900452E-1,-6.891956329E-1
3.880684788E1,-9.475392699E-1,-1.384220570E-1,-1.770287454E-1
3.882684788E1,-1.132369637E0,1.445132587E-2,2.358288914E-1
3.884684788E1,-1.023513436E0,-4.389851987E-1,2.805791199E-1
3.886684788E1,-1.067600489E0,-1.163384080E0,8.527678996E-2
3.888684788E1,-1.194887280E0,-1.739290357E0,-8.970992267E-2
3.890684944E1,-1.266096711E0,-2.211052895E0,-8.714429289E-2
3.892884788E1,-1.359611511E0,-2.575582266E0,1.166403517E-1
3.894885100E1,-1.808963895E0,-2.591656923E0,5.553113818E-1
3.897084944E1,-2.417193651E0,-2.416356087E0,9.564229846E-1
3.899284788E1,-2.741423607E0,-2.503412962E0,9.872803688E-1
3.901284788E1,-2.821604013E0,-2.620384932E0,8.088030219E-1
3.903284788E1,-3.161594152E0,-2.416844606E0,8.360825181E-1
3.905284788E1,-3.195418596E0,-1.932306409E0,1.034264684E0
3.907285256E1,-2.512750626E0,-2.051355362E0,1.303865671E0
3.909484788E1,-1.636089087E0,-2.592965841E0,1.455342770E0
3.911484788E1,-1.577812552E0,-2.168693781E0,1.128652096E0
3.913484788E1,-1.812890887E0,-1.431745887E0,7.200355530E-1
3.915484788E1,-1.715850592E0,-2.005959272E0,6.199060678E-1
3.917484788E1,-1.023670554E0,-2.614258766E0,7.741233110E-1
3.919484788E1,-6.830695271E-1,-2.462729454E0,8.970817924E-1
3.921484788E1,-2.358288914E-1,-1.813938141E0,6.852337122E-1
3.923484788E1,1.718800217E-1,-1.763445735E0,5.626941323E-1
3.925484788E1,4.117406309E-1,-1.741698980E0,4.489859343E-1
3.927484788E1,6.839945167E-2,-1.515259981E0,5.315051079E-1
3.929484788E1,-5.228831768E-1,-1.336381197E0,7.523241639E-1
3.931484788E1,-7.923445702E-1,-1.449338913E0,9.841562510E-1
3.933484788E1,-8.605520129E-1,-1.969918251E0,1.107952476E0
3.935484788E1,-1.243529677E0,-2.225835800E0,1.428988338E0
3.937684631E1,-1.381602645E0,-2.079140902E0,1.643419504E0
3.939684944E1,-9.902823567E-1,-1.964106321E0,1.602526426E0
3.941884788E1,-2.937389016E-1,-1.917889953E0,1.184240818E0
3.943885569E1,3.449119627E-1,-1.995190620E0,7.479434013E-1
3.946084788E1,8.841663599E-1,-2.276607513E0,5.953143239E-1
3.948084788E1,1.148740768E0,-2.625341654E0,8.360127211E-1
3.950084788E1,1.061631441E0,-2.986747026E0,1.304808140E0
3.952084788E1,6.321756840E-1,-3.177528858E0,1.749587893E0
3.954084788E1,-5.583308265E-2,-2.988893747E0,2.041319609E0
3.956084788E1,-6.914820075E-1,-2.508352280E0,1.964176059E0
3.958084788E1,-1.064947605E0,-1.782504797E0,1.682741761E0
3.960084788E1,-1.303551555E0,-7.648207545E-1,1.333082438E0
3.962084788E1,-1.413891196E0,2.151990868E-2,1.139595270E0
3.964084788E1,-1.331127763E0,3.041410744E-1,1.215778947E0
3.966084788E1,-1.325891733E0,5.783846378E-1,1.276254535E0
3.968084788E1,-1.435463548E0,6.217560768E-1,1.328492284E0
3.970084788E1,-1.573745966E0,4.401545823E-1,1.281455636E0
3.972084788E1,-1.555856347E0,2.357067168E-1,1.186544657E0
3.974085413E1,-1.240964055E0,1.622632593E-1,1.139909387E0
3.976284631E1,-5.435304046E-1,-2.617993741E-4,1.275364399E0
3.978284788E1,7.415904105E-2,-1.733810008E-1,1.426859021E0
3.980287444E1,3.974987268E-1,-1.607622802E-1,1.257405043E0
3.982484788E1,4.794943035E-1,2.064724453E-2,8.134106994E-1
3.984484788E1,3.532895446E-1,2.709449232E-1,4.074820280E-1
3.986484788E1,1.307775229E-1,4.183554053E-1,5.595525727E-2
3.988484788E1,-8.613199741E-2,4.349360466E-1,-1.226966456E-1
3.990484788E1,-2.621135414E-1,3.794345856E-1,-1.242848933E-1
3.992484788E1,-3.095515966E-1,2.728996873E-1,-7.155850064E-3
3.994484788E1,-1.484053433E-1,1.221381426E-1,8.871508390E-2
3.996484788E1,8.749335259E-2,-9.211847931E-2,1.023112014E-1
3.998484788E1,3.529230356E-1,-3.672172725E-1,1.561546028E-1
4.000484788E1,6.159790754E-1,-6.564008594E-1,2.924473584E-1
4.002484788E1,8.357683420E-1,-8.752477169E-1,3.310540617E-1
4.004484788E1,9.580636024E-1,-9.735621214E-1,2.416408360E-1
4.006484788E1,9.231919050E-1,-1.011226296E0,2.542944625E-2
4.008484788E1,7.208908200E-1,-8.937656283E-1,-2.024232894E-1
4.010484788E1,3.270223439E-1,-4.855156839E-1,-4.172558486E-1
4.012484788E1,-2.733185515E-2,4.274311289E-2,-6.003583670E-1
4.014484788E1,-1.762433499E-1,7.890807986E-1,-7.475244999E-1
4.016484788E1,9.950122237E-2,1.296831965E0,-7.375586629E-1
4.018484788E1,6.603453159E-1,1.127203465E0,-6.579716802E-1
4.020484788E1,1.282345772E0,4.580442011E-1,-6.739763618E-1
4.022484788E1,1.736218572E0,-3.499210477E-1,-8.378627300E-1
4.024484788E1,1.888463736E0,-9.306269884E-1,-1.142073631E0
4.026484788E1,1.830571175E0,-1.097323418E0,-1.523340821E0
4.028484788E1,1.676144361E0,-7.406129837E-1,-1.752223253E0
4.030484788E1,1.548787713E0,-2.773153782E-1,-1.753026128E0
4.032484788E1,1.548107028E0,1.492082030E-1,-1.636560321E0
4.034484788E1,1.688763142E0,4.885874689E-1,-1.572087884E0
4.036484788E1,1.879265785E0,6.525087953E-1,-1.598389983E0
4.038484788E1,2.067464590E0,6.741334200E-1,-1.677959561E0
4.040484788E1,2.177228451E0,5.001066327E-1,-1.770584106E0
4.042484944E1,2.163283348E0,1.454906464E-1,-1.667347908E0
4.044684788E1,1.936093688E0,-2.655867636E-1,-1.323064327E0
4.046684788E1,1.602229714E0,-6.902951598E-1,-1.004908204E0
4.048684788E1,1.211817026E0,-1.044230461E0,-7.855552435E-1
4.050684788E1,7.729365230E-1,-1.137954712E0,-6.971717477E-1
4.052684788E1,2.914001644E-1,-1.029307961E0,-5.802521706E-1
4.054684788E1,-4.319689795E-2,-8.400793076E-1,-3.524518013E-1
4.056684788E1,-2.230181694E-1,-4.407130778E-1,-1.439547539E-1
4.058684788E1,-2.547831535E-1,8.222246170E-2,-1.942551509E-2
4.060684788E1,-2.389006615E-1,3.966784179E-1,1.249306649E-1
4.062684788E1,-3.652450442E-1,4.938060045E-1,2.918713987E-1
4.064684788E1,-6.443930268E-1,4.363148510E-1,6.690719724E-1
4.066684788E1,-8.875348568E-1,1.176351905E-1,1.309206367E0
4.068684788E1,-9.369625449E-1,-1.466600150E-1,1.866786718E0
4.070684788E1,-7.117452621E-1,-1.846383810E-1,1.996028304E0
4.072684788E1,-2.413964868E-1,-8.203047328E-3,1.930892706E0
4.074684788E1,3.036872745E-1,3.270747140E-2,1.731942534E0
4.076684788E1,4.352327585E-1,-4.305727407E-2,1.436720133E0
4.078684788E1,-9.948377265E-4,-1.682497375E-2,1.175217390E0
4.080684788E1,-7.219903469E-1,1.325752139E-1,1.081720114E0
4.082684788E1,-1.399771452E0,4.896695614E-1,1.092558622E0
4.084684788E1,-1.693004251E0,9.006248116E-1,1.101529598E0
4.086684788E1,-1.656666517E0,1.213387847E0,1.064790487E0
4.088684944E1,-1.519605756E0,1.309729934E0,1.009079576E0
4.090884788E1,-1.427557111E0,1.126976490E0,9.482199550E-1
4.092884944E1,-1.243843794E0,6.998072267E-1,1.065907478E0
4.094886350E1,-9.474694133E-1,1.537809670E-1,1.254088879E0
4.097084788E1,-6.328040361E-1,-4.391422868E-1,1.409143925E0
4.099084788E1,-4.590390325E-1,-7.592880130E-1,1.510477781E0
4.101084788E1,-3.418401778E-1,-9.317265749E-1,1.563151836E0
4.103084788E1,-2.794970274E-1,-9.618334770E-1,1.562488556E0
4.105084788E1,-2.304183692E-1,-8.874126673E-1,1.545506477E0
4.107084788E1,-2.810503542E-1,-7.638782263E-1,1.472028136E0
4.109084788E1,-4.977853596E-1,-6.342526674E-1,1.218920469E0
4.111084788E1,-8.397651911E-1,-3.857177496E-1,7.705977559E-1
4.113084788E1,-1.216180325E0,1.384220570E-1,3.074048460E-1
4.115084788E1,-1.324338436E0,7.618187666E-1,-4.890412465E-2
4.117084788E1,-1.012622595E0,1.242290497E0,-2.748544514E-1
4.119084944E1,-3.840945959E-1,1.218955398E0,-3.977954388E-1
4.121284788E1,3.415260315E-1,6.296449900E-1,-6.062400937E-1
4.123284788E1,7.662867904E-1,-1.078613475E-2,-9.371196032E-1
4.125284788E1,8.590335846E-1,-4.937885404E-1,-1.377727985E0
4.127284788E1,7.877718210E-1,-6.083344817E-1,-1.802366614E0
4.129284788E1,7.381520867E-1,-4.204498231E-1,-2.040743589E0
4.131284788E1,7.850316167E-1,-6.499606371E-2,-2.097431898E0
4.133284788E1,9.824283719E-1,3.631506562E-1,-2.011666536E0
4.135284944E1,1.292747974E0,6.689497828E-1,-1.840135574E0
4.137284944E1,1.571756244E0,7.169986963E-1,-1.706111670E0
4.139484788E1,1.818039656E0,5.933595896E-1,-1.647747874E0
4.141484788E1,1.944488764E0,3.205122650E-1,-1.656125426E0
4.143484788E1,1.941591501E0,-1.994911395E-2,-1.622248650E0
4.145484788E1,1.803256750E0,-2.926917076E-1,-1.470597029E0
4.147484788E1,1.579697490E0,-5.338089466E-1,-1.245275021E0
