"Time (s)","Acceleration x (m/s^2)","Acceleration y (m/s^2)","Acceleration z (m/s^2)"
0.000000000E0,-2.795642376E0,3.833327532E0,7.740578651E0
2.000468800E-2,-2.837828159E0,3.680663824E0,7.518281937E0
4.200000000E-2,-2.350560188E0,3.984574318E0,8.273412704E0
6.200000000E-2,-1.647861958E0,3.226675272E0,8.497443199E0
8.400000000E-2,-1.913130045E0,2.928846121E0,9.311386108E0
1.040046880E-1,-2.428534746E0,3.181683302E0,8.354203224E0
1.260000000E-1,-3.319953442E0,3.698620319E0,9.292576790E0
1.460000000E-1,-3.373372793E0,3.308949471E0,1.057889557E1
1.660000000E-1,-1.112824917E0,3.218582869E0,9.000283241E0
1.860078130E-1,-2.756205015E-2,2.987839222E0,7.068784714E0
2.080000000E-1,-1.837042212E0,2.452716112E0,9.403562546E0
2.280046880E-1,-3.062145710E0,3.283226252E0,9.683416367E0
2.500062500E-1,-1.869392753E0,3.789063692E0,7.521116734E0
2.700234380E-1,-1.537652135E0,3.295867682E0,6.800136089E0
2.920000000E-1,-1.684359312E0,3.166810513E0,6.599866390E0
3.120000000E-1,-2.127631426E0,2.871538639E0,9.244280815E0
3.320062500E-1,-1.473631144E0,1.595304489E0,1.260190964E1
3.520140630E-1,-2.864509106E0,2.613663912E0,9.314258575E0
3.740000000E-1,-2.567953587E0,3.587768793E0,9.048129082E0
3.940000000E-1,-2.039131880E0,4.009866238E0,7.789429665E0
4.140000000E-1,-2.317108393E0,2.796743631E0,7.435949802E0
4.340046880E-1,-3.153269053E0,2.070668459E0,7.216258049E0
4.560000000E-1,-3.186835766E0,2.998412132E0,6.393122196E0
4.760046880E-1,-3.634580135E0,3.621727943E0,6.932669640E0
4.980000000E-1,-4.466852665E0,2.926087856E0,7.416777134E0
5.180062500E-1,-3.328016996E0,3.137668371E0,5.838663101E0
5.400000000E-1,-2.449239492E0,1.894158363E0,5.660697460E0
5.600078130E-1,-3.268296003E0,1.647565007E0,5.672083855E0
5.820000000E-1,-5.957242966E0,9.725055695E-1,4.746026039E0
6.020203130E-1,-4.555083275E0,2.471668482E0,5.901314259E0
6.240000000E-1,-5.903929234E0,1.972937107E0,5.387030125E0
6.440000000E-1,-8.032566071E0,2.637663364E0,4.394001961E0
6.640000000E-1,-7.501809597E0,9.456617832E-1,2.397400379E0
6.840046880E-1,-6.102858543E0,-2.070256710E0,2.041545391E0
7.060000000E-1,-5.764921665E0,-4.409803867E0,3.893067598E0
7.260015630E-1,-6.155262470E0,-4.623883247E0,4.788633347E0
7.480000000E-1,-8.356788635E0,-5.342105389E0,6.359986305E0
7.680000000E-1,-6.915881157E0,-5.331733704E0,1.023121834E1
7.880000000E-1,-8.586709023E0,-5.341521263E0,9.129119873E0
8.080046880E-1,-1.258906651E1,-6.889420986E0,7.399787903E0
8.300000000E-1,-1.303178310E1,-8.617105484E0,6.884718895E0
8.500000000E-1,-1.119406128E1,-8.634247780E0,6.884574890E0
8.700000000E-1,-1.149162197E1,-7.354365349E0,8.020441055E0
8.900031250E-1,-1.406984234E1,-5.367551327E0,8.780581474E0
9.100187500E-1,-1.544009209E1,-3.563616037E0,7.588077545E0
9.320000000E-1,-1.328049278E1,-3.096871138E0,7.578194141E0
9.520000000E-1,-1.174829006E1,-2.040223837E0,8.636690140E0
9.720000000E-1,-1.092811298E1,-6.771759987E-1,8.902523041E0
9.920000000E-1,-9.220051765E0,-1.193557456E-1,9.747466087E0
1.012000000E0,-8.798691750E0,3.510186970E-1,8.907704353E0
1.032000000E0,-8.690990448E0,-7.339473367E-1,6.534820080E0
1.052000000E0,-6.824461460E0,-1.756577939E-1,7.273307323E0
1.072000000E0,-5.602297783E0,-1.869191527E0,6.181474686E0
1.092000000E0,-8.230451584E0,-3.358394623E0,3.313000441E0
1.112000000E0,-8.654052734E0,-3.840050459E0,5.798277855E-1
1.132000000E0,-8.740367889E0,-2.737041712E0,8.916773200E-1
1.152000000E0,-8.098885536E0,-3.103431463E0,1.404496193E0
1.172000000E0,-7.468022346E0,-1.772293448E0,2.979545593E0
1.192004688E0,-7.764443874E0,5.841852399E-4,4.900021076E0
1.214004688E0,-6.737954140E0,-1.597736955E0,5.113765717E0
1.236000000E0,-5.175603390E0,-2.235121250E0,5.222893715E0
1.256000000E0,-4.549979210E0,-2.792692482E-1,5.057109356E0
1.276000000E0,-4.691562653E0,5.899313092E-2,4.451309681E0
1.296000000E0,-6.279014111E0,1.063695908E0,5.468902111E0
1.316000000E0,-5.607823849E0,1.026920974E-1,6.723550320E0
1.336000000E0,-4.873455048E0,-1.089141488E0,4.273525238E0
1.356000000E0,-6.737724304E0,7.960529327E-1,6.734535217E0
1.376000000E0,-7.310484409E0,1.978568286E-1,7.737475395E0
1.396000000E0,-7.011937141E0,5.003019571E-1,7.126437187E0
1.416001563E0,-1.096343231E1,2.606021404E0,3.822994232E0
1.438000000E0,-1.517802238E1,-1.779523969E0,5.771012783E0
1.458000000E0,-1.325417614E1,-4.497508049E0,3.812162876E0
1.478000000E0,-1.140568924E1,-4.358577251E0,2.447305202E0
1.498000000E0,-9.105255127E0,-3.955709696E0,2.826096535E0
1.518000000E0,-5.127038956E0,-3.696235657E0,5.401424408E0
1.538000000E0,-6.827497005E0,-4.237114906E0,4.838595390E0
1.558000000E0,-6.731097221E0,-4.840950966E0,4.493562222E0
1.578000000E0,-6.836662292E0,-6.577685833E0,3.615196705E0
1.598000000E0,-8.078927040E0,-5.089153290E0,3.828280449E0
1.618000000E0,-9.366902351E0,-2.976912022E0,4.328103542E0
1.638000000E0,-9.034529686E0,-2.802460909E0,3.176425695E0
1.658000000E0,-9.265713692E0,-2.584502459E0,3.120650291E0
1.678000000E0,-8.531517982E0,-2.815159798E0,3.952903509E0
1.698000000E0,-7.743461609E0,-3.439902782E0,4.111265659E0
1.718000000E0,-7.634199142E0,-4.174759865E0,5.857644558E0
1.738000000E0,-7.619527817E0,-5.411394119E0,3.925791740E0
1.758000000E0,-6.000520706E0,-5.620349884E0,3.421390772E0
1.778000000E0,-6.525770187E0,-4.804319859E0,5.684227467E0
1.798000000E0,-4.670866966E0,-3.613922834E0,5.167022228E0
1.818000000E0,-5.037410259E0,-4.665418148E0,3.726651669E0
1.838000000E0,-7.830571651E0,-4.556500912E0,5.677993298E-1
1.858000000E0,-7.745252132E0,-4.655764580E0,3.924307346E0
1.878000000E0,-4.817536354E0,-5.847492695E0,5.070995808E0
1.898000000E0,-7.285507679E0,-8.748039246E0,4.250253677E0
1.918000000E0,-1.029453087E1,-1.033723450E1,1.924133658E0
1.938000000E0,-9.095486641E0,-1.326196194E1,3.607554436E0
1.958000000E0,-8.384111404E0,-7.649225712E0,9.423577785E-1
1.978000000E0,-8.470235825E0,-6.682130814E0,2.528324842E0
1.998000000E0,-8.058528900E0,-6.395439625E0,3.126990318E0
2.018000000E0,-6.688192844E0,-6.336274147E0,3.589731932E0
2.038000000E0,-6.396502495E0,-5.831173897E0,2.577856302E0
2.058000000E0,-6.822852612E0,-4.336607933E0,2.549719572E0
2.078000000E0,-2.114702702E0,-4.845117092E0,4.950768471E0
2.098000000E0,-1.643791914E0,-7.253253460E0,1.227973652E1
2.118000000E0,-3.908974886E0,-1.176267433E1,-8.386409879E-1
2.138014063E0,-4.641313076E0,-7.349519253E0,5.419150829E0
2.160000000E0,-6.744466305E0,-5.202447414E0,3.112088680E0
2.180000000E0,-4.789112091E0,-8.424918175E0,2.989630222E0
2.200000000E0,-1.258517027E0,-9.981139183E0,4.394576073E0
2.220000000E0,-3.910353661E0,-7.158557415E0,3.930637360E0
2.240000000E0,-5.356480598E0,-6.473011494E0,4.383083820E0
2.260003125E0,-4.944581985E0,-7.558916092E0,4.491522312E0
2.282000000E0,-4.956543446E0,-7.600527287E0,3.996755838E0
2.302025000E0,-5.512793064E0,-4.409449100E0,3.760160923E0
2.323998438E0,-6.253032207E0,-5.523059368E0,4.403281689E0
2.343998438E0,-5.127450943E0,-5.860871792E0,5.109992504E0
2.364000000E0,-4.377060413E0,-6.766741753E0,4.005499363E0
2.384000000E0,-4.253673077E0,-5.822899342E0,2.269310474E0
2.405998438E0,-4.438514709E0,-5.530012131E0,2.082735062E0
2.425998438E0,-4.109580040E0,-8.472543716E0,1.477059722E0
2.445998438E0,-2.846227169E0,-9.733186722E0,2.295369148E0
2.466000000E0,-1.304533482E0,-8.493143082E0,3.055154562E0
2.487998438E0,-4.892943859E0,-1.169838619E1,3.666604996E0
2.507998438E0,-6.339233398E0,-9.230998039E0,1.501384735E0
2.527998438E0,-5.597537994E0,-1.090490913E1,3.882887602E0
2.547998438E0,-1.770033360E0,-1.325859070E1,-1.989677399E-1
2.568000000E0,5.728079677E-1,-8.040006638E0,4.685510159E0
2.590023438E0,2.828509808E-1,-6.739227772E0,-5.353818536E-1
2.611998438E0,1.440112352E0,-6.341148376E0,7.569220662E-1
2.632000000E0,3.434530199E-1,-8.296091080E0,1.866261125E0
2.652000000E0,6.673693657E-1,-1.042109776E1,3.552755833E0
2.672000000E0,5.410895869E-2,-1.140047932E1,2.731477737E0
2.692000000E0,6.179913282E-1,-2.010870934E1,6.573941231E0
2.712000000E0,-3.340572357E0,3.787186623E0,7.191731930E0
2.734000000E0,5.004839227E-2,-1.351703072E1,1.003371596E0
2.756000000E0,-3.656740904E0,-1.040403175E1,4.985800743E0
2.778000000E0,-3.165661335E0,-9.213998795E0,6.096920967E0
2.800006250E0,-5.065172911E-1,-8.154536247E0,5.462725639E0
2.821998438E0,-7.257304192E-1,-8.764951706E0,4.555792332E0
2.842000000E0,-1.807143450E0,-9.640875816E0,4.173916817E0
2.864000000E0,-7.090093493E-1,-1.029250145E1,5.523892403E0
2.884000000E0,-1.608491659E0,-9.631097794E0,6.180181503E0
2.905998438E0,-2.104704380E0,-7.939891338E0,5.262503624E0
2.925998438E0,-2.128684759E0,-6.602413654E0,4.479513168E0
2.945998438E0,-1.887368441E0,-6.179846287E0,3.703638315E0
2.965998438E0,-9.631873369E-1,-7.852588654E0,3.038366556E0
2.985998438E0,-9.967349172E-1,-9.723484993E0,3.981480598E0
3.005998438E0,-5.538075566E-1,-9.057083130E0,4.068667889E0
3.025998438E0,3.943537474E-1,-8.569996834E0,3.570578337E0
3.046000000E0,4.961169064E-1,-8.837945938E0,2.052194834E0
3.068000000E0,-5.978130102E-1,-7.875889301E0,2.181807280E0
3.090040625E0,-3.333398998E-1,-8.164859772E0,2.662898302E0
3.111998438E0,-7.158471942E-1,-9.347002029E0,4.228686810E0
3.132000000E0,-1.369425893E0,-1.046020031E1,3.870159864E0
3.152000000E0,-2.200079858E-1,-8.658170700E0,3.721834421E0
3.172000000E0,-4.452257603E-2,-8.817279816E0,3.518633842E0
3.192000000E0,-1.402427554E0,-8.989518166E0,2.953784227E0
3.212000000E0,-7.655891180E-1,-1.008820820E1,2.570175648E0
3.232000000E0,-8.777143359E-1,-1.022329903E1,3.465750694E0
3.252000000E0,-1.323428512E0,-9.937469482E0,3.595219374E0
3.272000000E0,-1.604910016E0,-9.944125175E0,2.925925016E0
3.292000000E0,-1.576984048E0,-9.250620842E0,3.568241596E0
3.312000000E0,-5.855355263E-1,-7.902925014E0,3.866118670E0
3.332000000E0,-7.699273825E-1,-8.328785896E0,4.891296387E0
3.352000000E0,-2.582012415E0,-8.103683472E0,4.097963333E0
3.372000000E0,-3.027209520E0,-9.107419014E0,3.001179695E0
3.392000000E0,-3.390132189E0,-9.152640343E0,1.443521619E0
3.412000000E0,-1.812171221E0,-8.853566170E0,2.853294611E0
3.432000000E0,-1.476073265E0,-9.340987206E0,4.385698795E0
3.452000000E0,-1.162921309E0,-9.931905746E0,4.237171650E0
3.472000000E0,4.374685138E-2,-9.879338264E0,4.741304874E0
3.492000000E0,5.364065766E-1,-9.173192024E0,3.848526239E0
3.512000000E0,9.908547401E-1,-8.188936234E0,2.290609360E0
3.532000000E0,1.786151171E0,-8.249988556E0,1.833077431E0
3.552000000E0,1.811654210E0,-8.030697823E0,2.659249544E0
3.572000000E0,4.080007076E-1,-8.886520386E0,3.478641033E0
3.592000000E0,-1.309159040E0,-1.102733898E1,3.123801231E0
3.612000000E0,-1.997252703E0,-1.250008869E1,1.552783489E0
3.632000000E0,-1.102587461E0,-1.158981323E1,3.130217552E0
3.652000000E0,-7.446925044E-1,-1.059366226E1,3.842195749E0
3.672000000E0,-1.059108615E0,-9.725151062E0,4.166706085E0
3.692000000E0,-3.997933567E-1,-9.935094833E0,2.648485184E0
3.712000000E0,-1.360031009E0,-7.741842747E0,3.740078211E0
3.732000000E0,-4.594568908E-1,-9.679479599E0,2.295359373E0
3.752000000E0,1.925704330E-1,-9.082404137E0,1.965725780E0
3.772000000E0,2.102262259E0,-8.910998344E0,1.335064292E0
3.792000000E0,1.674159884E0,-7.945896149E0,3.357753038E0
3.812000000E0,6.593918800E-1,-8.854485512E0,5.843163967E0
3.832000000E0,4.113046825E-1,-1.034286499E1,6.194642544E0
3.852000000E0,-8.778101206E-2,-1.051272869E1,4.652997017E0
3.872000000E0,-1.464102149E0,-8.927040100E0,6.100674629E0
3.892000000E0,1.467961669E0,-1.022483063E1,1.381080985E0
3.912000000E0,3.468623638E0,-1.243927670E1,-4.040272713E0
3.932000000E0,4.644904137E0,-9.277646065E0,5.865669250E0
3.952000000E0,1.671373010E0,-5.292832851E0,9.784182549E0
3.972000000E0,-2.994466305E0,-4.711290836E0,7.588786125E0
3.992000000E0,-3.061762810E0,-6.583135128E0,4.545219898E0
4.012000000E0,-2.405866146E0,-8.050599098E0,3.693448782E0
4.032000000E0,-2.034544706E0,-9.345296860E0,3.591120720E0
4.052000000E0,-2.933366537E0,-5.942006111E0,5.653207779E0
4.072000000E0,-3.785424232E0,-3.924058437E0,7.065681458E0
4.092000000E0,-2.879180670E0,-8.252229691E0,8.940724373E0
4.112000000E0,-4.584934711E0,-5.536036015E0,9.886837006E0
4.132000000E0,-2.886018515E0,-5.209188938E0,8.129779816E0
4.152000000E0,-2.240407705E0,-8.052553177E0,7.696994781E0
4.172000000E0,-1.572071195E0,-8.078352928E0,7.241081238E0
4.192000000E0,-3.886459768E-1,-9.900550842E0,6.681087017E0
4.213998438E0,1.694089174E0,-9.096289635E0,7.389626980E0
4.234000000E0,3.858141184E0,-8.329418182E0,6.355695724E0
4.256000000E0,1.760475755E0,-6.001583576E0,7.585003376E0
4.278000000E0,1.586206555E0,-6.133600235E0,8.970662117E0
4.299998438E0,-2.047597885E0,-7.584639549E0,7.994861603E0
4.320000000E0,-3.935014248E0,-8.068134308E0,7.664098263E0
4.342006250E0,-5.047034740E0,-7.633538723E0,8.959733963E0
4.364000000E0,-2.910334110E0,-9.953778267E0,6.808276176E0
4.384000000E0,-1.439757943E0,-8.696525574E0,4.796668053E0
4.406000000E0,-2.267395258E0,-7.606532097E0,5.350791931E0
4.428000000E0,1.543637514E0,-6.081185818E0,7.021609306E0
4.450007813E0,2.906953573E0,-3.954857111E0,7.629420280E0
4.471998438E0,-4.248175621E-1,-4.910296917E0,6.274791241E0
4.492000000E0,2.889609933E-1,-6.744945049E0,6.033704281E0
4.514000000E0,1.113840103E0,-6.064484596E0,4.532022476E0
4.536000000E0,-8.160205483E-1,-6.928092003E0,7.029385567E0
4.558000000E0,1.472050995E-1,-6.413712025E0,6.968333721E0
4.578000000E0,1.270162344E0,-6.387021542E0,7.893893719E0
4.600000000E0,9.814503193E-1,-5.899897099E0,6.329359531E0
4.620000000E0,1.872974396E0,-7.055980682E0,7.203118801E0
4.640006250E0,1.033940792E0,-7.092027664E0,7.456674099E0
4.661998438E0,-1.102539420E0,-6.209333420E0,7.264697075E0
4.681998438E0,-1.047137618E0,-6.968362331E0,8.164179802E0
4.702025000E0,-2.539405346E0,-6.383784771E0,5.611070156E0
4.724000000E0,-2.513710737E0,-6.694159031E0,4.955643177E0
4.744000000E0,4.211209118E-1,-8.741096497E0,9.954180717E0
4.766000000E0,2.395427465E0,-6.909244537E0,9.996672630E0
4.788000000E0,-1.875617653E-1,-4.463644505E0,1.003368759E1
4.810003125E0,3.760141730E-1,-5.919003010E0,7.433220863E0
4.831998438E0,4.936365187E-1,-5.328439236E0,7.853240013E0
4.852000000E0,1.033557773E0,-4.009263039E0,8.439752579E0
4.872000000E0,1.354543567E-1,-4.115546227E0,7.199689865E0
4.893998438E0,-9.680236131E-2,-3.632626534E0,6.917289257E0
4.914000000E0,-8.659349382E-2,-4.018342018E0,8.907512665E0
4.935998438E0,-6.660094857E-1,-5.156516552E0,8.763065338E0
4.955998438E0,-2.595506310E-1,-5.411068439E0,8.705116272E0
4.976000000E0,-1.479635835E0,-2.555187702E0,8.316116333E0
4.998000000E0,6.746286154E-1,-1.762956023E0,8.710746765E0
5.020007813E0,1.636839151E0,-4.216524601E0,2.841955900E0
5.041998438E0,-2.521764934E-1,-3.687271833E0,5.899178505E0
5.062000000E0,-5.863687396E-1,-1.910199404E0,8.576067924E0
5.084000000E0,-1.957077861E0,-1.722197086E-1,1.030913544E1
5.104000000E0,-1.454745770E0,-4.515943527E0,1.069438171E1
5.124000000E0,-3.118926525E0,-7.999171257E0,1.010425854E1
5.145998438E0,-7.492606044E-1,-7.522170067E0,1.131454659E1
5.165998438E0,9.725438952E-1,-5.681047916E0,8.786423683E0
5.186000000E0,3.473603427E-1,-5.977038383E0,5.056209087E0
5.208000000E0,-8.646898866E-1,-6.977469921E0,7.693355560E0
5.229998438E0,-1.577568293E0,-3.162750006E0,7.962310314E0
5.250000000E0,-5.031079650E-1,-2.731630802E0,5.889621258E0
5.272003125E0,8.946748376E-1,-5.189805508E0,6.044554710E0
5.294000000E0,4.337623119E-1,-6.723205566E0,6.915306568E0
5.314001563E0,7.801171541E-1,-6.121494770E-1,8.900588989E0
5.336000000E0,-5.502373695E0,-2.675166130E0,7.089116096E0
5.356000000E0,-4.463548183E0,-1.132355881E1,3.944830418E0
5.376000000E0,-5.433430195E0,-1.556734848E1,4.388562202E0
5.396000000E0,-4.637357712E0,-9.085947037E0,5.299086571E0
5.416000000E0,-3.779161215E0,-9.692072868E0,5.756494045E0
5.436000000E0,9.681577086E-1,-1.398485756E1,6.237575054E0
5.456000000E0,3.331301689E0,-1.354542542E1,4.186453342E0
5.476000000E0,3.281090498E0,-1.007102776E1,2.462053537E0
5.496000000E0,2.985263109E0,-7.294979572E0,1.199322581E0
5.516000000E0,4.271265507E0,-8.081292152E0,1.142829061E0
5.536000000E0,4.795471191E0,-1.157653999E1,3.394719601E0
5.556000000E0,2.582318783E0,-1.129066181E1,1.513930321E0
5.576000000E0,2.065238237E0,-1.036595535E1,2.603464603E0
5.596000000E0,1.023597836E0,-9.626989365E0,3.116915464E0
5.616000000E0,1.168734431E0,-1.018936825E1,2.248538494E0
5.636000000E0,1.200127125E0,-1.103165817E1,9.742964506E-1
5.656000000E0,1.474014163E0,-1.063835716E1,6.327817917E0
5.676000000E0,1.509975076E0,-1.138792515E1,6.598305225E0
5.696000000E0,9.304347038E-1,-1.107317257E1,3.512753725E0
5.716000000E0,5.771079659E-1,-1.004886723E1,2.713071108E0
5.736000000E0,1.233100057E0,-9.137845039E0,3.789628744E0
5.756001563E0,2.439021349E0,-8.058403969E0,4.197897434E0
5.778000000E0,2.005938768E0,-8.380299568E0,4.886326313E0
5.798000000E0,-2.477136850E-1,-7.615160465E0,6.152265072E0
5.818000000E0,-3.271925449E0,-6.820669174E0,6.518185616E0
5.838000000E0,-4.648170471E0,-7.337940693E0,4.470156670E0
5.858000000E0,-4.858687401E0,-7.589935780E0,3.737099886E0
5.878000000E0,-5.450256348E0,-7.543181419E0,5.218133926E0
5.898000000E0,-3.994342566E0,-6.824690819E0,7.553370953E0
5.918000000E0,-2.304361582E0,-6.431562901E0,7.257524490E0
5.938000000E0,-2.137849808E0,-6.526478767E0,5.678682804E0
5.958000000E0,-1.986066937E0,-7.400094032E0,4.458127975E0
5.978000000E0,-3.049283981E0,-6.066638947E0,5.425203800E0
5.998000000E0,-3.090770721E0,-6.897254467E0,7.499396324E0
6.018000000E0,-3.847501278E0,-7.877900600E0,9.475914955E0
6.038000000E0,-4.902137756E0,-8.993818283E0,1.000740910E1
6.058000000E0,-4.614201069E0,-8.841527939E0,9.388412476E0
6.078000000E0,-3.751838684E0,-7.809598446E0,8.050254822E0
6.098000000E0,-3.655170202E0,-8.458254814E0,7.758391380E0
6.118000000E0,-3.636198759E0,-7.098376751E0,6.874299049E0
6.138014063E0,-3.180658579E0,-3.845365763E0,7.002627850E0
6.160010938E0,-2.354496241E0,-3.575883865E0,7.011333466E0
6.182000000E0,-2.417846918E0,-6.051421165E0,6.679200172E0
6.202025000E0,-3.729639292E0,-6.169522285E0,8.101346970E0
6.224000000E0,-2.900949001E0,-6.630119324E0,6.249431610E0
6.244000000E0,-3.449173212E0,-6.592463017E0,4.927477837E0
6.266000000E0,-3.281780243E0,-7.065203190E0,7.811389446E0
6.286000000E0,-1.099110961E0,-5.798995972E0,6.006352901E0
6.307998438E0,-2.087475777E0,-4.738460541E0,4.155654430E0
6.327998438E0,-3.139679432E0,-5.659921169E0,6.849370480E0
6.347998438E0,-4.518030643E0,-5.564814568E0,3.770992279E0
6.368000000E0,-2.109416246E0,-4.230908871E0,6.735808372E0
6.390000000E0,-4.133809566E0,-2.993930101E0,5.627599716E0
6.412000000E0,-3.788182735E0,-2.657046556E0,7.261230469E0
6.432000000E0,-3.209820032E0,-2.395331860E0,8.800874710E0
6.452000000E0,-1.992703557E0,-2.655255795E0,7.618129253E0
6.473998438E0,-9.690387845E-1,-3.085924864E0,9.028984070E0
6.493998438E0,1.573191643E0,-4.503273010E0,7.593498230E0
6.514000000E0,1.415289164E0,-4.996354103E0,7.564126015E0
6.536000000E0,-8.820526004E-1,-4.742751122E0,6.615189075E0
6.557998438E0,-3.127526522E0,-4.271418571E0,7.308300972E0
6.578000000E0,-3.963926554E0,-4.468279362E0,5.605927944E0
6.600006250E0,-4.561912060E0,-4.098442554E0,6.841478825E0
6.622000000E0,-4.620837688E0,-4.243492603E0,6.839678764E0
6.642000000E0,-4.620215416E0,-5.594540596E0,8.453016281E0
6.664000000E0,-4.807221889E0,-6.716779709E0,5.747663975E0
6.686000000E0,-4.962912083E0,-5.448513508E0,6.854245186E0
6.708000000E0,-4.207149029E0,-6.221783161E0,7.179348946E0
6.729998438E0,-5.647931099E0,-7.080191135E0,7.320740700E0
6.750000000E0,-4.773089886E0,-8.631432533E0,6.238676548E0
6.770006250E0,-2.686351776E0,-9.632362366E0,3.829582930E0
6.791998438E0,-2.031508923E0,-9.922596931E0,4.013189793E0
6.811998438E0,-2.755582571E0,-1.096289635E1,3.808073521E0
6.831998438E0,-2.603071690E0,-1.162504578E1,3.569649458E0
6.852000000E0,-2.407877445E0,-1.029364109E1,6.112731934E0
6.873998438E0,-2.332345247E0,-1.012022400E1,5.539129257E0
6.893998438E0,-1.472587228E0,-9.814742088E0,5.204065323E0
6.914000000E0,-3.787780285E0,-9.723140717E0,9.018899918E0
6.935998438E0,-9.105569839E0,-1.144303894E1,3.873751163E0
6.955998438E0,-7.826837063E0,-9.756639481E0,2.310452700E0
6.976000000E0,-6.049324036E0,-9.673723221E0,3.505503893E0
6.998000000E0,-3.646857738E0,-9.871302605E0,3.877266169E0
7.020003125E0,-1.828566790E0,-7.751256943E0,6.149555206E0
7.040009375E0,-7.480731010E-1,-7.650978088E0,6.467619419E0
7.062000000E0,-1.627990127E0,-5.888309002E0,3.624265909E0
7.084000000E0,-2.925733566E0,-6.192966938E0,4.594521046E0
7.104006250E0,-4.093376160E0,-6.497058868E0,2.860946417E0
7.125998438E0,-4.231378078E0,-8.681480408E0,1.388522148E0
7.145998438E0,-3.853122711E0,-9.357986450E0,6.230929375E0
7.165998438E0,-1.884696364E0,-1.612304306E1,1.123513699E1
7.186000000E0,-7.995225906E0,-2.477117777E0,4.506730556E0
7.208000000E0,-5.996901035E0,-6.237623215E0,7.640213966E0
7.228000000E0,-4.126665115E0,-7.368031025E0,7.868266106E0
7.250023438E0,-4.412810326E0,-7.074224472E0,7.504356861E0
7.272000000E0,-3.864126682E0,-6.226753235E0,5.285363197E0
7.294000000E0,-1.838641644E0,-6.222300529E0,5.722237587E0
7.315998438E0,-2.301134348E0,-9.119600296E0,6.847435951E0
7.336000000E0,-5.254841805E0,-7.561070919E0,8.048952103E0
7.358000000E0,-3.001093388E0,-7.340363979E0,5.041422844E0
7.380004688E0,-2.713071108E0,-7.069646358E0,5.779171944E0
7.402025000E0,-5.578547478E0,-7.127145767E0,5.655918598E0
7.423998438E0,-4.153259754E0,-6.625053406E0,8.614969254E0
7.444000000E0,-3.899254322E0,-4.331034184E0,3.072795153E0
7.466000000E0,-2.639597893E0,-3.043384790E0,5.602728844E0
7.487998438E0,-3.491263151E0,-3.284768105E0,7.263184547E0
7.508000000E0,-5.391368866E0,-8.622669578E-1,2.517014742E0
7.530000000E0,-1.633477688E0,-2.287180901E0,1.143989754E1
7.550003125E0,-3.437518120E0,-2.005938768E0,6.712345600E0
7.570009375E0,-3.383495331E0,-3.746054173E0,7.133064270E0
7.590023438E0,-2.938710213E0,-3.124816418E0,8.125288963E0
7.611998438E0,-2.561968327E0,-2.065544844E0,6.148022652E0
7.632000000E0,-6.478326917E-1,-1.015036225E0,5.794801235E0
7.654000000E0,2.577310205E-1,-1.241642594E0,4.813542366E0
7.675998438E0,-7.115184069E-1,-3.149716139E0,5.658839226E0
7.696000000E0,-3.153297663E0,-3.763110399E0,6.250638008E0
7.716000000E0,-4.696983337E0,-4.829076290E0,6.188388824E0
7.736000000E0,-6.231139660E0,-3.734619379E0,5.450131893E0
7.756000000E0,-5.929748058E0,-4.120918751E0,6.755498409E0
7.776000000E0,-5.867680550E0,-5.662555218E0,7.708275795E0
7.796000000E0,-6.381437778E0,-7.876291275E0,7.011218548E0
7.816000000E0,-6.061237812E0,-8.340306282E0,6.568300724E0
7.836000000E0,-6.807921886E0,-8.313635826E0,6.711608410E0
7.856000000E0,-7.174149036E0,-9.789967537E0,5.676326752E0
7.876000000E0,-6.547586441E0,-1.086901474E1,5.248291016E0
7.896000000E0,-4.891028404E0,-8.754590034E0,3.679188967E0
7.916000000E0,-2.150931597E0,-1.092016506E1,6.447288036E0
7.936000000E0,-1.156677127E0,-1.126331997E1,6.188551903E0
7.956000000E0,-2.627301216E0,-1.058993721E1,5.484962940E0
7.976000000E0,-3.497401953E0,-8.634487152E0,5.160271168E0
7.996000000E0,-3.589454412E0,-8.253224373E0,4.822448730E0
8.016000000E0,-2.211418629E0,-9.369325638E0,4.195138931E0
8.038000000E0,-3.143059969E0,-8.716379166E0,4.526755333E0
8.058000000E0,-3.060958147E0,-9.383757591E0,5.188838482E0
8.078000000E0,-3.918417454E0,-1.036399078E1,5.811493874E0
8.098000000E0,-3.596196175E0,-9.411376953E0,5.238810062E0
8.118000000E0,-3.467838287E0,-9.166296959E0,5.357916832E0
8.138014063E0,-3.348444223E0,-9.061985970E0,7.489072323E0
8.160000000E0,-3.607468367E0,-8.506636620E0,8.390728951E0
8.180001563E0,-4.889352322E0,-7.531019211E0,6.662086487E0
8.200007813E0,-6.268566132E0,-7.414066792E0,4.107521057E0
8.222000000E0,-6.309238911E0,-6.791143417E0,1.913800240E0
8.242000000E0,-5.351644039E0,-6.141529560E0,2.908916712E0
8.262000000E0,-4.025332928E0,-5.825447083E0,5.750345707E0
8.282000000E0,-3.334778309E0,-6.208969116E0,6.375940800E0
8.302025000E0,-4.079920769E0,-6.618502617E0,7.433019638E0
8.324000000E0,-3.811176538E0,-6.333899021E0,7.571250916E0
8.344000000E0,-1.930004239E0,-6.736488819E0,6.768618584E0
8.364000000E0,-1.745861411E0,-7.228822708E0,7.945665836E0
8.384000000E0,-4.060144901E0,-7.252936840E0,7.997840405E0
8.404000000E0,-5.459775925E0,-7.035926819E0,6.201183796E0
8.424000000E0,-7.312840462E0,-7.199670792E0,5.780512810E0
8.444000000E0,-7.773091793E0,-7.413683891E0,8.658132553E0
8.464000000E0,-5.912395000E0,-6.605459213E0,7.219427586E0
8.484000000E0,-2.500236034E0,-4.849723816E0,3.690891743E0
8.504000000E0,-2.998785377E-1,-2.553530931E0,3.477453470E0
8.524000000E0,-1.130867720E0,-7.818983793E-1,4.083033085E0
8.544007813E0,-2.868215322E0,-1.943804502E0,2.867056608E0
8.566000000E0,-5.490459919E0,-2.298002720E0,8.180690765E0
8.586000000E0,-4.940646172E0,-3.304802656E0,6.738997936E0
8.606000000E0,-2.884112835E0,-2.735375404E0,6.806983471E0
8.626000000E0,-1.248145223E0,-2.267596483E0,6.634620190E0
8.646000000E0,-1.220583081E0,-1.891333103E0,5.532052040E0
8.666000000E0,-4.320480525E-1,-1.591483235E0,6.296137810E0
8.686000000E0,-2.159570009E-1,-1.601366520E0,6.803976536E0
8.706000000E0,-8.364000320E-1,-1.988231301E0,6.098395348E0
8.726000000E0,-2.351479530E0,-2.485775232E0,7.490211964E0
8.746000000E0,-4.351758480E0,-3.448569775E0,8.128161430E0
8.766000000E0,-5.248013496E0,-5.191194534E0,7.572227955E0
8.786000000E0,-6.884162903E0,-6.329666138E0,9.059352875E0
8.806000000E0,-6.798718929E0,-7.785694599E0,5.598802090E0
8.826000000E0,-4.882179737E0,-8.348792076E0,5.759683132E0
8.846000000E0,-3.322969913E0,-8.442740440E0,5.860919476E0
8.866000000E0,-3.461488962E0,-9.045926094E0,2.730108261E0
8.886000000E0,-3.937906265E0,-1.022473526E1,2.842032194E0
8.906000000E0,-3.214120150E0,-1.157417488E1,7.566184998E0
8.926000000E0,-2.408633947E0,-1.136588860E1,9.042650223E0
8.947998438E0,-3.394633293E0,-9.667786598E0,7.440451145E0
8.967998438E0,-4.076760292E0,-9.621607780E0,6.138560772E0
8.987998438E0,-3.312655687E0,-9.869885445E0,5.064780235E0
9.008000000E0,-3.918465376E0,-9.753288269E0,4.890396595E0
9.030000000E0,-4.849311829E0,-9.768476486E0,5.449270248E0
9.050006250E0,-5.835522175E0,-1.065893841E1,7.014445782E0
9.072000000E0,-5.238178253E0,-9.896097183E0,6.050904274E0
9.094000000E0,-4.421018124E0,-8.360754013E0,5.882122517E0
9.114000000E0,-3.377854824E0,-7.678722382E0,5.328075886E0
9.134000000E0,-2.772064209E0,-6.617314816E0,4.912011147E0
9.154000000E0,-2.093116522E0,-6.792110920E0,5.023533344E0
9.175998438E0,-2.979928732E0,-6.672390938E0,6.035380363E0
9.196000000E0,-3.504134417E0,-7.200733662E0,6.635961056E0
9.218000000E0,-4.669449806E0,-6.800471306E0,6.530405045E0
9.240007813E0,-4.815678120E0,-7.026416779E0,6.906161308E0
9.261998438E0,-5.875504971E0,-7.653496742E0,9.035439491E0
9.282000000E0,-6.686928749E0,-8.371900558E0,8.056555748E0
9.302025000E0,-5.718732834E0,-7.715841770E0,6.992304325E0
9.323998438E0,-4.402621269E0,-6.835972786E0,7.021025181E0
9.344015625E0,-4.636313915E0,-6.549597263E0,6.746515751E0
9.365998438E0,-4.650458813E0,-6.377818584E0,7.251414776E0
9.385998438E0,-4.791736126E0,-6.372321129E0,9.967406273E0
9.405998438E0,-4.045501709E0,-6.724594116E0,6.648688316E0
9.425998438E0,-3.570032358E0,-4.944457531E0,1.787980199E0
9.445998438E0,-1.628689170E0,-3.111734390E0,5.471306324E0
9.466000000E0,-1.871882677E-1,-1.856703401E0,4.679131985E0
9.486000000E0,-2.473306060E-1,-1.013475180E0,2.855995417E0
9.508000000E0,-3.195081234E0,-9.321585298E-1,6.196778297E0
9.529998438E0,-4.190657139E0,-2.442919016E0,6.786106110E0
9.550006250E0,-3.397736073E0,-2.132065535E0,5.774804592E0
9.570018750E0,-1.055948257E0,-1.785835028E0,5.127297878E0
9.590021875E0,-9.010913372E-1,-1.583802700E0,5.882927418E0
9.611998438E0,-6.373077631E-1,-2.381541252E0,4.748161793E0
9.632000000E0,-8.247737288E-1,-2.900651932E0,5.423604488E0
9.654000000E0,-1.353911519E0,-3.543677092E0,6.102676392E0
9.675998438E0,-2.071731329E0,-4.753046036E0,5.526698589E0
9.695998438E0,-2.602842093E0,-5.856226921E0,5.354957581E0
9.715998438E0,-3.856618404E0,-7.282146454E0,7.607317448E0
9.735998438E0,-6.008239746E0,-9.200505257E0,7.154238701E0
9.756000000E0,-7.827708721E0,-1.102194691E1,7.349796772E0
9.776000000E0,-7.588901520E0,-1.156801701E1,8.931636810E0
9.796000000E0,-7.174924374E0,-1.032315636E1,7.227884293E0
9.816000000E0,-5.742330074E0,-8.318836212E0,4.615724087E0
9.836000000E0,-3.917000294E0,-7.379992485E0,5.083253860E0
9.856000000E0,-2.696876764E0,-8.122223854E0,6.204277039E0
9.876000000E0,-3.455752373E0,-9.882067680E0,7.583174229E0
9.896000000E0,-3.425307751E0,-1.129568100E1,7.982374191E0
9.916000000E0,-2.550303698E0,-1.176677322E1,5.296567917E0
9.936000000E0,-3.331321001E0,-1.088515091E1,4.217884064E0
9.956000000E0,-4.539109230E0,-9.597406387E0,3.338216305E0
9.976000000E0,-6.374590874E0,-9.901871681E0,5.307610035E0
9.996000000E0,-4.625329494E0,-9.720478058E0,4.188981533E0
1.001600000E1,-2.905651093E0,-8.322542191E0,3.062107325E0
1.003600000E1,-2.158832550E0,-7.300514698E0,2.872371674E0
1.005600000E1,-1.377681136E0,-6.619058132E0,2.301814318E0
1.007600000E1,-1.157031536E0,-7.345525742E0,2.851168633E0
1.009600000E1,-1.787338614E0,-8.487254143E0,3.946851015E0
1.011600000E1,-2.980446100E0,-8.486506462E0,3.616786480E0
1.013600000E1,-4.355426311E0,-8.332569122E0,4.768885612E0
1.015600000E1,-3.238636732E0,-8.736307144E0,3.388925552E0
1.017600000E1,-4.307972908E0,-9.809073448E0,6.925237656E0
1.019600000E1,-3.997474194E0,-9.064927101E0,3.358174324E0
1.021600000E1,-2.287966013E0,-7.023869514E0,2.484108686E0
1.023600000E1,-9.867462516E-1,-7.820104599E0,4.455752850E0
1.025600000E1,-1.961224675E0,-8.713677406E0,4.280564308E0
1.027600000E1,-2.607381344E0,-8.329638481E0,3.907059431E0
1.029600000E1,-2.415912390E0,-8.970614433E0,5.019932270E0
1.031600000E1,-2.510109901E0,-8.569078445E0,3.698189259E0
1.033600000E1,-3.021310091E0,-7.821914673E0,3.982122660E0
1.035600312E1,-3.295637608E0,-7.231331825E0,3.176942825E0
1.037800000E1,-2.928194761E0,-7.025296211E0,3.331732750E0
1.039800000E1,-2.896304131E0,-8.110109329E0,3.404707909E0
1.041800000E1,-2.987963676E0,-9.532140732E0,3.231329679E0
1.043800000E1,-5.205722332E0,-1.087921429E1,6.392403603E0
1.045800000E1,-4.004024506E0,-1.012272263E1,3.950059414E0
1.047800000E1,-3.192054987E0,-8.736901283E0,5.500324249E0
1.049800000E1,-1.929238200E0,-7.666300774E0,1.830166101E0
1.051800000E1,-2.190024137E0,-7.595011234E0,3.853649616E0
1.053800000E1,-2.114779234E0,-8.712537766E0,2.267012119E0
1.055800000E1,-2.632032156E0,-9.144145966E0,4.741956234E0
1.057800000E1,-3.375048637E0,-7.659759998E0,3.820580721E0
1.059800000E1,-3.259925842E0,-8.565103531E0,3.357063532E0
1.061800000E1,-2.710504293E0,-7.300112247E0,3.490564108E0
1.063800000E1,-3.760850430E0,-8.164888382E0,5.230775356E0
1.065800000E1,-4.089507103E0,-9.276727676E0,4.422425747E0
1.067800000E1,-2.965707302E0,-8.101911545E0,3.903209448E0
1.069800156E1,-1.840097308E0,-9.449531555E0,3.888231516E0
1.072000000E1,-1.740508080E0,-9.599350929E0,4.148911953E0
1.074000469E1,-1.076528788E0,-8.391801834E0,1.748102427E0
1.076000469E1,-1.449248552E0,-8.932479858E0,3.669200182E0
1.078200000E1,-2.148336411E0,-9.410581589E0,1.935625911E0
1.080202344E1,-3.319359541E0,-8.726588249E0,4.106036663E0
1.082399844E1,-3.840251684E0,-7.347345352E0,2.620319605E0
1.084400000E1,-2.688276529E0,-7.510629654E0,3.343224764E0
1.086599844E1,-3.763637304E0,-8.692456245E0,5.719134808E0
1.088599844E1,-3.345839262E0,-9.604588509E0,3.057539225E0
1.090600000E1,-3.728930950E0,-1.050635052E1,5.971617699E0
1.092800000E1,-2.838440895E0,-9.682917595E0,2.797863960E0
1.095000469E1,-2.019011021E0,-8.187346458E0,3.663473368E0
1.097199844E1,-9.999622703E-1,-8.338746071E0,2.266858816E0
1.099200000E1,-1.235446453E0,-8.025996208E0,3.434721708E0
1.101400000E1,-1.382488608E0,-8.870718956E0,2.823826790E0
1.103599844E1,-2.592843771E0,-9.770833015E0,4.311363220E0
1.105600000E1,-3.888739109E0,-9.033705711E0,4.691514492E0
1.107800000E1,-3.429023504E0,-7.649426937E0,3.457083464E0
1.110000000E1,-1.784139872E0,-7.284598351E0,2.355377436E0
1.112200312E1,-2.698016405E0,-9.153531075E0,3.802212715E0
1.114399844E1,-2.598570824E0,-7.925592899E0,2.803878307E0
1.116399844E1,-2.930033684E0,-8.970939636E0,4.344508648E0
1.118399844E1,-3.292362452E0,-1.072694302E1,5.468251228E0
1.120399844E1,-3.069845438E0,-8.595021248E0,4.130543709E0
1.122400000E1,-1.500972867E0,-8.047237396E0,3.278964520E0
1.124400000E1,-2.190206051E0,-9.004755974E0,4.999035835E0
1.126600000E1,-2.040434361E0,-9.222905159E0,3.699079752E0
1.128800000E1,-2.678546667E0,-7.986424923E0,4.344182968E0
1.131000625E1,-2.288196087E0,-9.120232582E0,2.518326759E0
1.133000625E1,-2.193050623E0,-8.623186111E0,3.577464104E0
1.135200000E1,-1.898314714E0,-8.183333397E0,3.241040468E0
1.137400000E1,-2.954904556E0,-9.225519180E0,5.706474781E0
1.139600000E1,-3.681650162E0,-1.031240177E1,4.379148006E0
1.141799844E1,-3.895672560E0,-7.339788914E0,4.223764420E0
1.143800000E1,-2.843449593E0,-7.887563705E0,3.017920017E0
1.146000000E1,-2.969356060E0,-9.023889542E0,3.754050732E0
1.148000000E1,-2.067776203E0,-8.743394852E0,2.709671497E0
1.150202188E1,-7.945398092E-1,-9.296072006E0,3.212176085E0
1.152400312E1,-1.489538193E0,-8.437884331E0,3.667869091E0
1.154599844E1,-3.037341833E0,-8.653908730E0,2.693342686E0
1.156599844E1,-3.354381800E0,-7.991261005E0,1.489279628E0
1.158599844E1,-3.057721138E0,-9.298361778E0,2.496462822E0
1.160599844E1,-2.038164854E0,-9.945150375E0,1.713300347E0
1.162600000E1,-4.996986389E-1,-8.096021652E0,1.821460843E0
1.164800000E1,-5.736124516E-1,-9.368885040E0,3.779228210E0
1.166999844E1,-3.398664951E0,-9.241484642E0,4.021722794E0
1.168999844E1,-2.622426510E0,-7.744687080E0,1.676056147E0
1.170999844E1,-1.984592080E0,-9.183602333E0,3.049983263E0
1.173001875E1,-2.454315424E0,-9.329658508E0,2.808781624E0
1.175200000E1,-2.858360767E0,-9.151548386E0,3.623930693E0
1.177200000E1,-2.706568241E0,-1.011147118E1,4.055136204E0
1.179399844E1,-1.979056716E0,-1.031133747E1,4.631966114E0
1.181400000E1,-2.943412304E0,-9.476490021E0,5.436695576E0
1.183600000E1,-3.135561466E0,-8.863602638E0,3.747021437E0
1.185800000E1,-3.404401541E0,-1.017232132E1,6.486371040E0
1.188000312E1,-2.775684357E0,-9.474363327E0,4.431255341E0
1.190202344E1,-2.343109369E0,-8.204641342E0,5.758370876E0
1.192399844E1,-2.209800243E0,-7.706600189E0,5.892292976E0
1.194400000E1,-3.845030546E0,-7.263959885E0,5.016111374E0
1.196400000E1,-3.730587721E0,-8.361270905E0,2.702622890E0
1.198400000E1,-1.701415539E0,-8.979587555E0,2.462455511E0
1.200400000E1,-3.633153141E-1,-9.027154922E0,5.153317928E0
1.202400000E1,-1.699289441E0,-6.812777519E0,6.758620739E0
1.204600000E1,-5.188896179E0,-4.615369797E0,6.437022209E0
1.206800000E1,-8.141952515E0,-5.731546402E0,5.183714867E0
1.208800000E1,-9.491812706E0,-8.693183899E0,6.553294182E0
1.211001875E1,-4.623998642E0,-9.790839195E0,1.029734707E1
1.213200000E1,-2.600754261E0,-8.309354782E0,8.134003639E0
1.215200000E1,-3.602325439E0,-6.844151497E0,5.299498558E0
1.217200000E1,-3.861761332E0,-5.620062828E0,5.250043869E0
1.219399844E1,-3.370355844E0,-4.900547981E0,6.994755745E0
1.221400000E1,-2.578861475E0,-5.276772499E0,8.365244865E0
1.223400000E1,-3.165843248E0,-5.330824375E0,5.452497482E0
1.225600000E1,-4.947943211E0,-6.283792973E0,5.367742538E0
1.227799844E1,-5.257609367E0,-6.814520359E0,8.463933945E0
1.229799844E1,-4.931835651E0,-5.238637924E0,5.047714233E0
1.231799844E1,-2.628536701E0,-4.469390392E0,3.352437735E0
1.233799844E1,-2.307071924E0,-3.102664948E0,5.609308243E0
1.235800000E1,-2.872716427E0,-3.491148233E0,4.019912720E0
1.237999844E1,-2.735116959E0,-4.117107391E0,3.672762871E0
1.240000000E1,-1.882742763E0,-2.781392097E0,5.009359360E0
1.242200000E1,-1.538389564E0,-1.734599113E0,4.289116859E0
1.244400000E1,-8.389857411E-1,-2.373678684E0,5.471526146E0
1.246599844E1,-1.481895924E0,-3.145195723E0,6.402679920E0
1.248600000E1,-1.267356277E0,-3.816568136E0,6.858497143E0
1.250800000E1,-2.094869137E0,-4.470529556E0,6.898719788E0
1.253000938E1,-4.430115700E0,-5.295016766E0,9.298638344E0
1.255200000E1,-6.320137024E0,-7.742810249E0,7.603199005E0
1.257200000E1,-6.817891598E0,-8.172426224E0,9.000446320E0
1.259400000E1,-6.435202122E0,-7.335086823E0,7.911696911E0
1.261400000E1,-5.773502350E0,-7.214447975E0,6.219724178E0
1.263599844E1,-5.021062374E0,-6.683021545E0,5.804722786E0
1.265599844E1,-4.806446075E0,-7.068133354E0,5.514880657E0
1.267599844E1,-4.536159515E0,-8.948530197E0,5.830475330E0
1.269599844E1,-4.277145386E0,-1.148549271E1,7.857904434E0
1.271599844E1,-4.536064148E0,-1.236233616E1,9.201319695E0
1.273599844E1,-4.124557972E0,-1.243015957E1,1.025668335E1
1.275600000E1,-3.488150835E0,-1.144505978E1,7.736958504E0
1.277799844E1,-4.394480705E0,-1.096590328E1,7.369352818E0
1.279800000E1,-4.006753922E0,-1.081818199E1,6.049812317E0
1.282000000E1,-4.087333202E0,-9.170127869E0,5.577810287E0
1.284000938E1,-4.813839436E0,-6.825792313E0,4.536561966E0
1.286199844E1,-4.837494373E0,-6.816282749E0,4.212473869E0
1.288199844E1,-4.472828388E0,-7.251529217E0,4.975993633E0
1.290202500E1,-4.627493858E0,-7.244940281E0,6.333104134E0
1.292399844E1,-4.376955032E0,-6.551081657E0,4.913802147E0
1.294400000E1,-3.885511637E0,-6.965537071E0,4.362963200E0
1.296599844E1,-2.692758560E0,-7.202793121E0,5.648937225E0
1.298600000E1,-1.320459723E0,-7.732677937E0,7.189711094E0
1.300799844E1,-1.933720112E0,-7.430491447E0,8.763496399E0
1.302799844E1,-3.635873079E0,-7.308367729E0,8.373471260E0
1.304799844E1,-6.653553486E0,-7.813937187E0,8.327072144E0
1.306800000E1,-8.023812294E0,-6.950874805E0,8.997994423E0
1.308800000E1,-6.415052891E0,-6.482962132E0,8.995992661E0
1.311000000E1,-6.032488346E0,-5.594579220E0,6.870056629E0
1.313000000E1,-5.988511086E0,-4.409200191E0,4.853736401E0
1.315199844E1,-5.136663914E0,-3.041421413E0,7.430711269E0
1.317199844E1,-3.335429430E0,-2.149466276E0,5.272137642E0
1.319199844E1,-3.943537474E-1,-1.019077539E0,-8.789018393E-1
1.321200000E1,1.262376308E0,-1.069614410E0,3.847137451E0
1.323400000E1,-1.436042190E0,-2.605667353E0,3.583631516E0
1.325600000E1,-1.435074925E0,-3.442775965E0,3.977611780E0
1.327799844E1,-1.810016483E-2,-3.062729836E0,4.811991215E0
1.329800000E1,-9.258856624E-2,-2.489749432E0,5.718416691E0
1.332000000E1,-1.258392453E0,-1.623393297E0,6.658246040E0
1.334000469E1,-1.475450635E0,-2.421466827E0,5.991499424E0
1.336199844E1,-1.249935985E0,-3.884238005E0,6.440603733E0
1.338199844E1,-3.123513937E0,-5.044764996E0,8.043856621E0
1.340202500E1,-4.615359783E0,-8.271659851E0,5.496761799E0
1.342399844E1,-6.539455414E0,-1.029903221E1,5.852233410E0
1.344400000E1,-6.872479439E0,-1.076387119E1,6.464449883E0
1.346599844E1,-6.215232849E0,-1.051345730E1,8.526068687E0
1.348599844E1,-5.431189060E0,-1.008331490E1,8.927948952E0
1.350599844E1,-4.412839413E0,-1.024379253E1,7.537971497E0
1.352600000E1,-4.246872902E0,-1.070495510E1,8.446073532E0
1.354600000E1,-3.519878626E0,-1.164409447E1,8.752348900E0
1.356800000E1,-6.279339790E0,-1.039329720E1,9.870517731E0
1.358800000E1,-7.453245640E0,-1.028613186E1,6.061390400E0
1.361000469E1,-6.877067089E0,-9.788483620E0,6.161612511E0
1.363200000E1,-5.873905659E0,-7.257763863E0,7.354911327E0
1.365200000E1,-5.437997818E0,-6.390517235E0,7.264716625E0
1.367200000E1,-5.052847862E0,-6.721415043E0,7.167713165E0
1.369399844E1,-5.908478260E0,-6.692061901E0,7.768207550E0
1.371399844E1,-7.507488728E0,-6.559318066E0,7.383133888E0
1.373400000E1,-8.319055557E0,-6.187220573E0,5.959350109E0
1.375600000E1,-7.116745472E0,-5.971416950E0,5.266477585E0
1.377799844E1,-7.336063862E0,-4.410607815E0,7.592233658E0
1.379800000E1,-4.840836525E0,-5.795098305E0,7.817873001E0
1.381999844E1,-2.790068626E0,-5.962605953E0,7.289214134E0
1.384000781E1,-1.684598684E0,-6.133964062E0,6.879116058E0
1.386199844E1,-1.109971046E0,-6.600373745E0,6.916925430E0
1.388199844E1,5.408501625E-1,-5.753036499E0,6.609375954E0
1.390202188E1,-5.450352430E-1,-4.715849400E0,5.066418171E0
1.392399844E1,-4.090656281E0,-4.356652260E0,6.963229179E0
1.394400000E1,-5.276811123E0,-6.056046963E0,1.179424000E1
1.396599844E1,-2.863273621E0,-7.151125908E0,6.239433289E0
1.398599844E1,-5.496320724E-1,-3.871548653E0,2.265767097E0
1.400599844E1,6.498725414E-1,-1.871250629E0,4.931701183E0
1.402599844E1,-2.498387814E0,-2.754720688E0,6.858420372E0
1.404600000E1,-1.951686144E0,-2.270986557E0,1.917870522E0
1.406800000E1,7.159429193E-1,-1.045308486E-1,2.319454908E0
1.409002188E1,-1.952998191E-1,-7.825016975E-1,3.617073774E0
1.411200000E1,-9.266518056E-2,-1.321733356E0,2.089151621E0
1.413399844E1,-1.004760265E0,-9.335662723E-1,4.806426525E0
1.415400000E1,-3.445926428E0,-2.913398743E0,5.746965408E0
1.417400000E1,-5.674018383E0,-7.062712669E0,7.194604874E0
1.419600000E1,-6.749704361E0,-1.217931366E1,8.063374519E0
1.421800000E1,-6.420549870E0,-1.408406353E1,8.191914558E0
1.424000000E1,-4.771873951E0,-1.349259090E1,9.997908592E0
1.426001875E1,-4.538104057E0,-1.254065609E1,1.078422165E1
1.428200000E1,-4.669162750E0,-1.002637100E1,9.646985054E0
1.430202500E1,-4.682665825E0,-7.169982910E0,9.640635490E0
1.432400000E1,-4.834218979E0,-6.837706089E0,8.706524849E0
1.434600000E1,-5.574496746E0,-7.425741196E0,5.584341526E0
1.436800000E1,-4.601234436E0,-7.644484997E0,4.014185429E0
1.439000469E1,-2.510799408E0,-8.607088089E0,9.331985474E0
1.441200000E1,-3.573173523E0,-1.004211521E1,8.669577599E0
1.443200000E1,-4.236492157E0,-9.286303520E0,7.390986919E0
1.445400000E1,-5.577340603E0,-7.147592068E0,6.330700397E0
1.447600000E1,-6.771137714E0,-5.782906532E0,5.413960457E0
1.449800000E1,-6.071638107E0,-6.364142418E0,5.051143169E0
1.451800000E1,-5.608724117E0,-7.080123425E0,5.545038223E0
1.454000000E1,-4.875121593E0,-7.437702656E0,6.169158459E0
1.456000156E1,-3.820207357E0,-7.233726025E0,7.510026455E0
1.458199844E1,-5.486609936E0,-7.215663910E0,9.039107323E0
1.460202500E1,-4.882926464E0,-7.434580803E0,8.205772400E0
1.462399844E1,-3.561844349E0,-7.183907509E0,8.128726959E0
1.464399844E1,-3.340016603E0,-7.587254047E0,6.942840099E0
1.466400000E1,-3.562543392E0,-6.132536888E0,7.006708145E0
1.468600000E1,-3.223467112E0,-5.432865143E0,6.836882114E0
1.470799844E1,-2.703839064E0,-5.936058998E0,4.441847801E0
1.472800000E1,-3.216600418E0,-4.189469814E0,5.035006523E0
1.475000313E1,-2.241739035E0,-3.267204285E0,8.627821922E0
1.477001094E1,1.576150805E-1,-3.588190079E0,4.860248566E0
1.479199844E1,3.473795056E-1,-2.300712824E0,3.995731175E-1
1.481199844E1,-1.297609448E0,-3.385257483E0,3.960134029E0
1.483199844E1,-1.941783786E0,-2.067507982E0,3.775924206E0
1.485200000E1,8.568465114E-1,-1.805601597E0,2.175084591E0
1.487400000E1,-1.356324792E0,-1.456574798E0,7.531085968E0
1.489599844E1,-3.291376114E0,-4.034095764E0,6.444970608E0
1.491599844E1,-2.782110453E0,-4.535719395E0,6.313969612E0
1.493599844E1,-2.609411716E0,-3.992043972E0,7.096748829E0
1.495599844E1,-1.854022026E0,-3.938107491E0,6.390679836E0
1.497600000E1,-1.810121775E0,-5.128035069E0,6.640529156E0
1.499800000E1,-3.064070463E0,-7.206480026E0,8.182548523E0
1.501999844E1,-5.201163769E0,-9.371183395E0,9.091884613E0
1.504000000E1,-6.141912460E0,-1.130955791E1,8.332444191E0
1.506200000E1,-5.489530563E0,-1.152847385E1,9.212792397E0
1.508200000E1,-4.715839863E0,-1.127015781E1,9.651381493E0
1.510202500E1,-4.829506874E0,-9.983773232E0,9.601400375E0
1.512400000E1,-4.650822639E0,-7.733252525E0,7.165204048E0
1.514400000E1,-3.688947678E0,-6.440948009E0,5.740797997E0
1.516400000E1,-1.671526194E0,-5.756043911E0,4.473843575E0
1.518400000E1,-1.949722886E0,-6.265893936E0,8.751505852E0
1.520400000E1,-4.855479717E0,-9.836404800E0,1.014381123E1
1.522400000E1,-6.319686890E0,-9.509490967E0,8.454184532E0
1.524400000E1,-4.858132362E0,-7.691459179E0,4.593563557E0
1.526400000E1,-3.871423960E0,-6.757777691E0,6.592827320E0
1.528400000E1,-2.837885380E0,-8.050943375E0,8.152314186E0
1.530401094E1,-3.589205265E0,-7.809004784E0,9.171823502E0
1.532600000E1,-3.854971170E0,-7.927575111E0,7.283324242E0
1.534600000E1,-6.237287998E0,-6.505620480E0,7.997581482E0
1.536600000E1,-8.052724838E0,-7.146107674E0,8.030870438E0
1.538600000E1,-7.204019070E0,-8.441227913E0,8.524870872E0
1.540600000E1,-4.905326843E0,-8.196769714E0,7.951028824E0
1.542600000E1,-3.931336641E0,-7.607921124E0,6.291655540E0
1.544600000E1,-4.262923717E0,-6.333745480E0,5.927640915E0
1.546600000E1,-4.964818001E0,-4.742789268E0,8.433997154E0
1.548600000E1,-4.748774529E0,-4.676881313E0,8.607069016E0
1.550600000E1,-3.542594910E0,-5.618492126E0,4.243358612E0
1.552600000E1,1.425124705E-1,-4.643582821E0,3.783403873E0
1.554600000E1,2.775262833E0,-2.660341024E0,3.634561062E0
1.556600000E1,3.069462180E-1,-6.730675697E-1,5.229750633E0
1.558600000E1,-2.135417223E0,-1.446864009E0,4.250167370E0
1.560600000E1,-3.430325985E0,-2.085387945E0,4.154581547E0
1.562600000E1,-1.377240658E0,-2.074805737E0,3.262693644E0
1.564600000E1,1.379634738E0,-7.134050727E-1,2.701243639E0
1.566600000E1,2.954942942E0,-8.254824281E-1,3.172068357E0
1.568600000E1,6.148118377E-1,-1.733756304E0,3.419274330E0
1.570800000E1,-1.765944004E0,-2.945145845E0,5.174952030E0
1.572800000E1,-5.599894047E0,-3.477031946E0,9.649303436E0
1.574800000E1,-6.002254009E0,-6.302851200E0,8.067281723E0
1.576800000E1,-3.235801935E0,-9.633990288E0,8.234196663E0
1.578800000E1,-1.235513449E0,-1.201069450E1,8.903413773E0
1.580800000E1,-2.033500910E0,-1.328675652E1,1.082014465E1
1.582800000E1,-5.581631184E0,-1.109868526E1,9.682170868E0
1.584800781E1,-8.576020241E0,-9.006756783E0,6.131856918E0
1.587000156E1,-9.070882797E0,-6.223171711E0,2.053755760E0
1.589001562E1,-6.904073238E0,-4.833069801E0,2.676315069E0
1.591200000E1,-3.798583031E0,-6.573912621E0,7.262456417E0
1.593200000E1,-2.131356716E0,-9.546936989E0,7.730570793E0
1.595200000E1,-4.238541603E0,-1.219551754E1,7.112110138E0
1.597200000E1,-3.456882477E0,-1.349700546E1,4.402649403E0
1.599200000E1,-9.701400995E-1,-1.222633553E1,4.677092075E0
1.601200000E1,9.490519762E-1,-8.169773102E0,3.837407112E0
1.603200000E1,4.383304715E-2,-7.828445911E0,6.875965118E0
1.605200000E1,-2.822984219E0,-9.404664040E0,4.343340397E0
1.607200000E1,-5.312005997E0,-8.893319130E0,5.120689869E0
1.609200156E1,-5.095991135E0,-8.528262138E0,3.575883865E0
1.611400000E1,-5.101220131E0,-6.997064114E0,4.131491661E0
1.613400000E1,-2.511929512E0,-4.674420357E0,-1.896801472E0
1.615599844E1,1.491482258E0,-3.989640236E0,1.222230315E0
1.617599844E1,1.954051614E0,-6.403550625E0,5.326399803E0
1.619599844E1,-4.140436649E-1,-1.168375206E1,6.750787258E0
1.621599844E1,-4.485508442E0,-1.562792206E1,7.656695366E0
1.623599844E1,-6.578547955E0,-1.326966190E1,5.644837856E0
1.625600000E1,-2.820292950E0,-8.599886894E0,2.609679937E0
1.627799844E1,1.066655159E0,-8.875104904E0,1.893143177E0
1.629799844E1,1.627329350E0,-9.322667122E0,1.586378932E0
1.631799844E1,-9.312391281E-1,-1.012776089E1,4.533277512E0
1.633799844E1,-2.497612000E0,-8.138332367E0,1.813636422E0
1.635800000E1,-1.858283520E0,-7.139681816E0,2.854558945E0
1.637999844E1,-1.995298982E0,-6.622467518E0,2.539750099E0
1.640000000E1,-1.693399668E0,-7.488296986E0,4.819527626E0
1.642200000E1,-2.131212950E0,-1.003164768E1,5.058852673E0
1.644400000E1,-2.756904125E0,-9.295191765E0,5.106985569E0
1.646599844E1,-2.114482403E0,-8.059275627E0,2.783546925E0
1.648600000E1,-3.816807508E0,-8.849495888E0,8.999747276E0
1.650600000E1,-6.216257095E0,-9.465150833E0,5.194939137E0
1.652600000E1,-3.883088589E0,-9.021142006E0,5.284309387E0
1.654600000E1,-4.170526981E0,-7.691401958E0,5.123515129E0
1.656600000E1,-4.424302578E0,-6.237144470E0,2.873042107E0
1.658600000E1,-3.537844658E0,-6.488564491E0,4.443494797E0
1.660600000E1,-3.735395193E0,-7.639389992E0,4.079509258E0
1.662600000E1,-4.054072857E0,-7.341024399E0,4.853822708E0
1.664600000E1,-3.154705524E0,-8.514183998E0,5.419428825E0
1.666600000E1,-2.689895153E0,-8.383114815E0,5.019827366E0
1.668600000E1,-1.693935990E0,-7.499501228E0,2.856081486E0
1.670600000E1,-2.038442612E0,-9.969254494E0,5.929604530E0
1.672600000E1,-3.084383011E0,-9.355648994E0,2.694108963E0
1.674800000E1,-2.610589504E0,-9.373538971E0,3.921606779E0
1.676800000E1,-3.971702814E0,-7.545719147E0,3.039362431E0
1.678800000E1,-2.568624020E0,-7.298475266E0,3.816577911E0
1.680800000E1,-3.163640738E0,-9.373558998E0,4.842713356E0
1.682800000E1,-3.104369879E0,-8.411865234E0,5.380164146E0
1.684800000E1,-3.235619783E0,-7.208912373E0,2.946228027E0
1.686800000E1,-3.339422941E0,-9.353925705E0,6.401329041E0
1.688800000E1,-3.926050186E0,-7.871091366E0,3.295580387E0
1.690800000E1,-5.811493397E-1,-8.174523354E0,3.055030107E0
1.692800000E1,-1.851388335E0,-1.003416634E1,3.595650434E0
1.694800000E1,-2.705151081E0,-9.200418472E0,2.613328695E0
1.696800000E1,-2.866874456E0,-6.749254227E0,7.590510368E0
1.698800000E1,-1.579732537E0,-9.857043266E0,2.445983410E0
1.700800000E1,-1.875387788E0,-8.028773308E0,3.945012569E0
1.702800000E1,-2.587940454E0,-8.635684967E0,4.305636883E0
1.704800000E1,-2.359619856E0,-8.851947784E0,4.135121346E0
1.706800000E1,-1.648714304E0,-7.778828144E0,2.911215067E0
1.708800000E1,-1.051983476E0,-1.006681347E1,4.296998024E0
1.710800000E1,-2.616584778E0,-1.014030552E1,3.342650414E0
1.712800000E1,-1.956761837E0,-9.110224724E0,3.549519062E0
1.714800000E1,-2.768731356E0,-7.882602692E0,3.565378189E0
1.717001562E1,-2.090559483E0,-7.843960285E0,3.333600283E0
1.719199844E1,-1.624283910E0,-8.845330238E0,3.501424313E0
1.721200156E1,-2.683957577E0,-9.143570900E0,3.173868656E0
1.723400000E1,-2.988250971E0,-6.606809139E0,2.797452450E0
1.725600000E1,-2.383734226E0,-8.752367973E0,4.942829609E0
1.727600000E1,-3.968427658E0,-1.124923325E1,5.805479527E0
1.729800000E1,-3.245340347E0,-1.063533115E1,4.008286476E0
1.732000000E1,-2.209369421E0,-1.001806736E1,3.053890467E0
1.734200000E1,-2.579484224E0,-8.844333649E0,2.600466967E0
1.736200000E1,-2.386214495E0,-9.146615982E0,4.996076584E0
1.738400000E1,-3.182344198E0,-6.435595036E0,1.566813469E0
1.740600000E1,-4.066790938E-1,-5.900213242E0,4.458415508E0
1.742800000E1,-3.969691753E0,-1.244433308E1,6.387260914E0
1.744800000E1,-5.782552719E0,-7.978236675E0,3.355320454E0
1.747000625E1,8.786624670E-1,-8.420943260E0,4.071799755E0
1.749200000E1,-2.884735346E0,-1.100991917E1,4.040924072E0
1.751400156E1,-4.038616180E0,-1.081169701E1,7.158845425E0
1.753599844E1,-4.001400471E0,-7.583595753E0,2.699414492E0
1.755600000E1,-3.341367006E0,-7.843625069E0,3.437489510E0
1.757800000E1,-3.227652073E0,-9.330452919E0,5.297410488E0
1.760000000E1,-4.235620499E0,-7.420244217E0,4.249631405E0
1.762000000E1,-2.780060768E0,-7.647272110E0,3.633018970E0
1.764001094E1,-1.616248846E0,-7.561013699E0,5.090082645E0
1.766199844E1,-2.945318222E0,-7.941394329E0,2.543053865E0
1.768199844E1,1.119528711E-2,-9.348256111E0,3.876787186E0
1.770202500E1,8.304527998E-1,-9.896653175E0,4.530356407E0
1.772399844E1,6.610390544E-1,-7.729862213E0,2.439184189E0
1.774400000E1,6.223583221E-1,-9.204029083E0,4.631238461E0
1.776600000E1,-2.288109779E0,-1.010773563E1,4.315778255E0
1.778800000E1,-2.809624434E0,-8.504940987E0,4.189728737E0
1.781001563E1,-2.966023207E0,-7.343093395E0,3.774095058E0
1.783199844E1,-3.227967978E0,-8.064150810E0,2.292438507E0
1.785200000E1,-1.603013754E0,-9.392980576E0,5.135256290E0
1.787400000E1,-2.859950542E0,-8.373097420E0,5.381083012E0
1.789599844E1,-2.669477463E0,-1.016368294E1,2.458538532E0
1.791599844E1,-3.046995163E0,-7.188523293E0,4.846745014E0
1.793599844E1,-2.186586142E0,-6.403149128E0,1.808867335E0
1.795599844E1,-1.355826855E0,-1.004450989E1,5.167405605E0
1.797600000E1,-3.563577652E0,-8.323854446E0,5.800077915E0
1.799799844E1,-2.653848171E0,-1.230360126E1,3.401356220E0
1.801800000E1,-3.402208567E0,-8.316661835E0,1.305902958E0
1.804000000E1,-3.550572395E0,-6.404365063E0,5.141710758E0
1.806000000E1,-2.219827175E0,-8.443726540E0,2.729207993E0
1.808000469E1,-1.305069804E0,-6.933809280E0,3.507697105E0
1.810202500E1,-2.312023163E0,-6.762681007E0,2.541081190E0
1.812399844E1,-2.731669188E0,-7.513598442E0,2.590746641E0
1.814400312E1,-2.418804407E0,-9.565975189E0,4.277720451E0
1.816599844E1,-7.018841505E-1,-1.084924793E1,4.355100632E0
1.818600000E1,-7.288045883E-1,-1.006624889E1,4.409602642E0
1.820600000E1,-9.695558995E-2,-1.015794659E1,2.796743631E0
1.822600000E1,-1.677281976E0,-1.024368763E1,5.258672237E0
1.824600000E1,-1.844205558E-1,-1.224299908E1,2.611327171E0
1.826600000E1,-2.232631445E0,-1.161919498E1,5.798785210E0
1.828600000E1,-3.427021980E0,-8.381621361E0,2.403634787E0
1.830600000E1,-1.986201048E0,-6.636679173E0,2.528343916E0
1.832600000E1,-1.595266104E0,-8.227942467E0,3.434137344E0
1.834600000E1,-2.134986401E0,-7.656570911E0,2.130590677E0
1.836600000E1,-1.541722298E0,-9.089347839E0,4.183513165E0
1.838600000E1,-3.123877764E0,-7.110520363E0,3.963840246E0
1.840600000E1,-2.498943090E0,-7.891643047E0,3.031509638E0
1.842600000E1,-1.296450734E0,-7.705259323E0,3.432518959E0
1.844600000E1,-2.766145706E0,-9.420704842E0,5.138100624E0
1.846600000E1,-2.677062273E0,-9.590980530E0,2.696349859E0
1.848600000E1,-1.692058921E0,-1.088903046E1,4.887609482E0
1.850600000E1,-2.595027447E0,-9.152449608E0,3.940022707E0
1.852600000E1,-3.339375019E0,-9.048004150E0,5.105855465E0
1.854600000E1,-1.918023705E0,-1.062141609E1,3.136825800E0
1.856600000E1,-2.377174139E0,-9.171602249E0,4.729764462E0
1.858600000E1,-2.649883270E0,-7.494349003E0,4.541427135E0
1.860600000E1,-2.997942924E0,-8.155244827E0,4.204083920E0
1.862600000E1,-2.571774960E0,-6.838510036E0,3.441817999E0
1.864600000E1,-9.382876754E-1,-6.752223492E0,2.565099955E0
1.866600000E1,-1.936152577E0,-8.563005447E0,5.194651604E0
1.868600000E1,-2.606327772E0,-9.485253334E0,4.061744213E0
1.870600000E1,-4.611701488E0,-1.019177151E1,5.297621727E0
1.872600000E1,-3.190120697E0,-7.716828346E0,3.556069613E0
1.874600000E1,-1.476130724E0,-8.500737190E0,3.543542862E0
1.876600000E1,-1.266839147E0,-1.104483604E1,5.366890430E0
1.878600000E1,-3.234068632E0,-1.107067394E1,5.882103443E0
1.880600000E1,-2.986105680E0,-7.686536789E0,3.140043497E0
1.882600000E1,-2.484855652E0,-7.493314743E0,3.120736599E0
1.884600000E1,-3.465166569E0,-8.624469757E0,3.453137875E0
1.886600000E1,-3.541742563E0,-8.704829216E0,3.812823772E0
1.888600000E1,-2.372404814E0,-8.432138443E0,5.431045532E0
1.890600000E1,-1.472118020E0,-9.231974602E0,1.478381276E0
1.892600000E1,-1.620644689E0,-6.547806740E0,2.588543892E0
1.894600000E1,-1.304025888E0,-7.359459877E0,2.788201094E0
1.896600000E1,-2.162787914E0,-8.393659592E0,3.634465218E0
1.898600000E1,-3.154810905E0,-8.716033936E0,2.257023335E0
1.900600000E1,-3.434386492E0,-8.454051018E0,5.214054108E0
1.902600000E1,-2.611595154E0,-9.276659966E0,3.856599331E0
1.904600000E1,-1.067737341E0,-1.100262070E1,4.459229469E0
1.906600000E1,-3.960785389E0,-1.025158882E1,6.449079037E0
1.908600000E1,-4.055777550E0,-1.198650360E1,6.749513149E0
1.910799844E1,-4.086710930E0,-7.059226990E0,5.250781059E0
1.912799844E1,-2.245588779E0,-6.145034790E0,5.293388367E0
1.914799844E1,3.441904187E-1,-8.124981880E0,1.471600771E0
1.916800000E1,-1.060305834E0,-7.005510807E0,4.388657570E0
1.918800000E1,-1.351718426E0,-7.473261356E0,1.680269957E0
1.920800000E1,-1.594270110E0,-9.206586838E0,-1.367022038E0
1.922800000E1,-1.953946233E0,-6.589226246E0,-1.288675213E1
1.924800000E1,2.174892835E-2,-8.862664223E0,1.261559486E1
1.926800000E1,-7.013191581E-1,-1.262626362E1,1.013474178E1
1.928800000E1,-1.640641093E0,-1.268815804E1,4.985207021E-1
1.930800000E1,-2.599202871E0,-8.303263664E0,3.875992298E0
1.932800000E1,-6.068918705E-1,-7.934624195E0,2.223619699E0
1.934800000E1,-3.034028113E-1,-1.031514072E1,4.446942329E0
1.936800000E1,-6.350284815E-1,-1.128262806E1,4.498245239E0
1.938800000E1,-6.834583879E-1,-8.948482513E0,3.722073793E0
1.940800000E1,-3.394978121E-2,-7.792513847E0,3.717208624E0
1.942800000E1,-5.767057538E-1,-8.819912910E0,1.143413305E0
1.944800000E1,-1.861989856E0,-7.962722301E0,4.338150024E0
1.946800000E1,-3.604633570E0,-7.415129662E0,4.924709797E0
1.948800000E1,-4.425557137E0,-9.343449593E0,5.773243904E0
1.950800000E1,-1.740871906E0,-1.013075829E1,6.007942677E0
1.952800000E1,-6.338601112E-1,-1.029550743E1,4.692913055E0
1.954800000E1,-2.183099985E0,-7.948682785E0,3.238857031E0
1.956800000E1,5.608752370E-1,-9.270875931E0,1.240646601E0
1.958800000E1,9.755318761E-1,-8.341312408E0,1.636973143E0
1.960800000E1,-5.987227559E-1,-7.787715912E0,4.184920788E0
1.962800000E1,-3.554010391E0,-6.137765884E0,8.132155418E0
1.964800000E1,-3.314925432E0,-8.105043411E0,2.806511879E0
1.966800000E1,-2.633037567E0,-8.961841583E0,4.887370110E0
1.968800000E1,-2.304716110E0,-8.882737160E0,5.201163769E0
1.970800000E1,-1.491760015E0,-9.590645790E0,3.431264639E0
1.972800000E1,-5.611338615E-1,-1.096896744E1,4.133196831E0
1.974800000E1,3.746351004E-1,-8.896010399E0,3.042149305E0
1.976800000E1,-8.921465874E-1,-1.012169838E1,1.542584062E0
1.978800000E1,-1.170879483E0,-9.062446594E0,8.049210310E-1
1.980800000E1,5.174214840E0,-1.105576229E1,9.978554249E-1
1.982800000E1,5.251575947E0,-1.055459881E1,3.726747274E0
1.984800000E1,1.148939133E0,-1.086894798E1,2.154034376E0
1.986800000E1,-9.361328930E-2,-9.992938042E0,-1.917947084E-1
1.988800000E1,2.364647627E0,-1.162013340E1,7.475646019E0
1.990800000E1,-6.451224089E-1,-7.602069378E0,3.810103655E0
1.992800000E1,-7.611646056E-1,-8.645041466E0,2.517598867E0
1.994800000E1,-1.040108323E0,-7.270338535E0,5.387145519E0
1.996800000E1,1.127132654E0,-7.364373207E0,5.083196640E0
1.998800000E1,1.429491758E0,-6.903786182E0,2.499316692E0
2.000800000E1,2.344210744E-1,-8.240659714E0,3.913676977E0
2.002800000E1,-1.256189793E-1,-9.315876961E0,6.411355972E0
2.004800000E1,1.263621330E0,-8.475626945E0,2.654097080E0
2.006800000E1,2.321245670E0,-1.025766945E1,2.768587828E0
2.008800000E1,-4.242621064E-1,-8.256758690E0,5.643612146E-1
2.010800000E1,-4.854387641E-1,-5.262800217E0,3.688047409E0
2.012800000E1,-2.272978544E0,-7.963210583E0,-2.012029648E0
2.014800000E1,-8.874347687E0,-2.000984764E1,2.243142891E1
2.016800000E1,-4.025419235E0,-1.139101791E1,1.109894466E1
2.018800000E1,-1.445322156E0,-1.270423698E1,8.570629120E0
2.020800000E1,-1.368880033E0,-5.276198387E0,-4.925467014E0
2.022800000E1,3.572800159E0,-3.735289812E0,-3.033587694E0
2.024800000E1,4.870945930E0,-4.933932781E0,5.657105923E0
2.026800000E1,4.059522152E0,-7.547740459E0,8.315406799E0
2.028800000E1,-5.083005428E0,-6.275586128E0,1.118703270E1
2.030800000E1,1.134276986E-1,-9.632611275E0,3.608234406E0
2.032800000E1,2.874746799E0,-1.176116085E1,6.896813869E0
2.034800000E1,1.643245935E0,-1.177493286E1,4.786555290E0
2.036800000E1,2.687625408E0,-7.493075848E0,-3.735241890E-1
2.038800000E1,2.735547781E0,-7.642253399E0,2.715244770E0
2.040800000E1,1.636159182E0,-1.102122879E1,2.614660025E0
2.042800000E1,3.000145435E0,-1.128591251E1,7.661943436E0
2.044800000E1,-1.285762906E0,-5.961246014E0,-1.851235151E0
2.046800000E1,1.931852698E0,-8.341570854E0,1.711490393E0
2.048800000E1,3.057108223E-1,-8.045810699E0,1.046738243E1
2.050800000E1,1.513767600E0,-1.100473690E1,4.437345982E0
2.053000625E1,2.197934628E0,-9.227272034E0,4.612525463E0
2.055200938E1,1.339153528E0,-4.350255013E0,1.474062085E0
2.057400000E1,9.547118545E-1,-6.787207603E0,3.103115320E0
2.059400000E1,3.871328354E0,-1.303593922E1,-1.368784308E0
2.061400000E1,4.844293594E0,-1.108788300E1,2.603157997E0
2.063400000E1,5.624046803E0,-1.017596054E1,1.833632946E0
2.065400000E1,2.510176897E-1,-8.060616493E0,6.466882229E0
2.067400000E1,-1.145223260E0,-8.617422104E0,3.042580366E0
2.069400000E1,2.456920147E0,-1.019693375E1,1.833326459E0
2.071400000E1,4.717496395E0,-1.063325310E1,5.684457302E0
2.073400000E1,2.788296938E0,-1.042034149E1,7.307725906E0
2.075400000E1,1.188491344E0,-1.168187523E1,5.399920940E0
2.077400000E1,1.646751046E0,-8.943932533E0,3.356306791E0
2.079400000E1,2.749587297E0,-7.814616680E0,3.926778078E0
2.081400000E1,2.540477753E0,-6.772937775E0,2.624581337E0
2.083400000E1,1.640660286E0,-4.963180065E0,3.404545069E0
2.085400000E1,7.983513474E-1,-6.260262489E0,3.257579565E0
2.087400000E1,2.131098032E0,-7.364191055E0,2.053679228E0
2.089400000E1,1.800717354E0,-9.276574135E0,6.424352169E0
2.091400000E1,1.779025912E0,-8.778695107E0,5.378430843E0
2.093600000E1,1.859949946E0,-7.262954712E0,1.803197742E0
2.095600000E1,2.256199837E0,-8.112052917E0,4.098403931E0
2.097600000E1,2.503894567E0,-8.531968117E0,5.611261845E0
2.099600000E1,2.483725548E0,-8.497137070E0,3.944389820E0
2.101600000E1,2.650381327E0,-9.367793083E0,4.651330471E0
2.103600000E1,1.883231163E0,-8.003174782E0,3.486972809E0
2.105600000E1,2.204427719E0,-7.760900497E0,4.134048939E0
2.107600000E1,1.407771468E0,-7.453724384E0,4.801964283E0
2.109600000E1,1.969661832E0,-8.701075554E0,4.075601578E0
2.111600000E1,3.459267139E0,-9.654982567E0,5.120230198E0
2.113600000E1,1.382402420E0,-7.853565693E0,6.145418167E0
2.115800000E1,1.680317760E0,-8.446953773E0,4.032477379E0
2.118000000E1,1.769113898E0,-8.140314102E0,4.639053345E0
2.120000000E1,1.773777843E0,-7.622170925E0,3.773644924E0
2.122000000E1,1.667187929E0,-6.790616512E0,3.316151381E0
2.124000000E1,1.242073536E0,-6.436859608E0,4.772275925E0
2.126000469E1,7.169101834E-1,-7.592789650E0,4.893039703E0
2.128200000E1,1.231759310E0,-8.230576515E0,1.716259480E0
2.130202500E1,2.854079962E0,-9.597684860E0,5.864060402E0
2.132399844E1,2.332910150E-2,-1.062218285E1,7.627409458E0
2.134399844E1,1.187820911E0,-1.180248547E1,4.475289345E0
2.136399844E1,2.881345272E0,-1.179077339E1,3.248548508E0
2.138400000E1,2.339470148E0,-9.604426384E0,6.102408409E0
2.140600000E1,1.823002696E0,-8.336610794E0,3.911694527E0
2.142802500E1,1.755026460E0,-9.087489128E0,3.097263813E0
2.144999844E1,3.837713897E-1,-6.960700512E0,3.964089394E0
2.147000156E1,-3.561614454E-1,-7.133245945E0,4.269244671E0
2.149001406E1,1.114960551E0,-8.029261589E0,2.232909203E0
2.151200000E1,1.967104912E0,-8.523683548E0,1.882283092E0
2.153200000E1,1.532231569E0,-9.930737495E0,5.465464592E0
2.155200000E1,4.536150098E-1,-1.157354164E1,5.140666962E0
2.157200000E1,6.248483062E-1,-1.147943020E1,3.930800200E0
2.159200000E1,1.859279513E0,-1.005068684E1,3.008659124E0
2.161200000E1,1.278666496E0,-8.233353615E0,4.395638943E0
2.163200000E1,1.214501977E0,-7.365933895E0,2.103315592E0
2.165200000E1,7.722066641E-1,-8.139911652E0,4.245589733E0
2.167200000E1,1.194687486E0,-8.555948257E0,2.928128004E0
2.169200000E1,6.193512678E-1,-7.707452774E0,2.898104429E0
2.171200000E1,5.669181943E-1,-9.390355110E0,4.008132935E0
2.173200156E1,1.306324363E0,-1.063564777E1,4.623232365E0
2.175400000E1,2.143231869E0,-1.014926052E1,2.866606474E0
2.177400000E1,2.394642353E0,-9.724635124E0,2.561096668E0
2.179400000E1,1.867553949E0,-8.794447899E0,2.999312162E0
2.181400000E1,1.701626182E0,-8.642694473E0,3.089995146E0
2.183400000E1,1.440256000E0,-9.265263557E0,3.783662319E0
2.185400000E1,1.261160135E0,-9.488921165E0,3.793545723E0
2.187400000E1,8.808938861E-1,-9.268365860E0,3.241854429E0
2.189400000E1,8.739411235E-1,-8.979338646E0,2.848228455E0
2.191400000E1,1.195415258E0,-8.552643776E0,3.101611614E0
2.193400000E1,1.010831952E0,-8.267388344E0,3.843890905E0
2.195400156E1,1.096266627E0,-8.975890160E0,5.250235558E0
2.197600000E1,-2.681793272E-1,-1.024698257E1,6.032736778E0
2.199600000E1,6.150225401E-1,-9.408187866E0,2.548742771E0
2.201600000E1,1.384068847E0,-9.438603401E0,3.456499577E0
2.203600000E1,5.694752336E-1,-8.088322639E0,4.386129379E0
2.205600000E1,1.078070641E0,-7.979404926E0,2.815255642E0
2.207600000E1,1.366495371E0,-9.168806076E0,4.577914715E0
2.209600000E1,3.486436605E-1,-8.124005318E0,3.367607355E0
2.211600000E1,1.559209466E0,-8.395287514E0,3.152129412E0
2.213600000E1,9.819099903E-1,-7.745903492E0,5.831987858E0
2.215600000E1,7.331333160E-1,-1.077537346E1,4.837714195E0
2.217600000E1,1.312147021E0,-8.905577660E0,1.857776046E0
2.219600000E1,2.293329000E0,-9.501830101E0,3.545544624E0
2.221600000E1,2.207568884E0,-9.200782776E0,4.343091488E0
2.223600000E1,1.263975739E0,-7.968478203E0,4.664814949E0
2.225600000E1,1.187217474E0,-7.927767277E0,4.063228607E0
2.227600000E1,6.254516840E-1,-8.860595703E0,3.522119522E0
2.229600000E1,1.580201864E0,-9.352949142E0,3.518097401E0
2.231600000E1,1.347456694E0,-8.885054588E0,3.493015766E0
2.233600000E1,1.731467485E0,-8.399500847E0,2.993173599E0
2.235600000E1,6.781528592E-1,-7.292125702E0,4.145110130E0
2.237600000E1,2.809471130E0,-9.512527466E0,5.686200142E0
2.239800000E1,1.168552399E0,-9.310907364E0,5.760458946E0
2.241800000E1,1.299438596E0,-9.227789879E0,3.784121990E0
2.243800000E1,2.773787975E0,-1.012804794E1,3.465233326E0
2.245800000E1,2.122230053E0,-8.734727859E0,3.695574760E0
2.247800000E1,1.422941208E0,-8.074972153E0,4.821443558E0
2.249800000E1,5.064406991E-1,-7.494091034E0,5.864606380E0
2.251800000E1,2.895308018E0,-8.856247902E0,4.020898819E0
2.253800000E1,7.105032802E-1,-7.092477322E0,4.810506821E0
2.255800000E1,5.420472845E-2,-7.308128357E0,7.289740562E0
2.257800000E1,8.937458992E-1,-8.668983459E0,4.887102127E0
2.259800000E1,3.762018681E0,-1.115353203E1,2.885568619E0
2.261800000E1,3.128637552E0,-1.073780251E1,2.201410770E0
2.264000312E1,1.408566236E0,-8.474162102E0,4.778625488E0
2.266200000E1,1.209234595E0,-7.872834682E0,4.955738544E0
2.268399844E1,1.694692612E0,-8.527667999E0,5.020842075E0
2.270399844E1,1.468699098E0,-8.967396736E0,4.251594543E0
2.272399844E1,2.614851236E0,-1.002855492E1,4.182507515E0
2.274400000E1,2.240599394E0,-9.004554749E0,4.455302715E0
2.276400469E1,1.726861119E0,-8.420244217E0,3.297744513E0
2.278599844E1,3.391147256E-1,-8.231150627E0,5.651139736E0
2.280599844E1,-1.391902685E0,-6.751581669E0,5.419524193E0
2.282600000E1,2.028607130E0,-8.648824692E0,4.254611492E0
2.284600000E1,3.290811062E0,-9.553602219E0,4.181090355E0
2.286800000E1,1.383570790E0,-8.295755386E0,4.194861889E0
2.289000000E1,5.046594143E-1,-6.712814808E0,4.389903069E0
2.291199844E1,4.362522960E-1,-6.042926788E0,4.938807011E0
2.293199844E1,-9.043474793E-1,-5.370931625E0,4.958037376E0
2.295199844E1,-1.848323643E-1,-6.687187672E0,4.556826591E0
2.297200000E1,8.527188897E-1,-9.302633286E0,4.435871601E0
2.299200000E1,-4.065354466E-1,-9.271392822E0,4.128226280E0
2.301399844E1,-7.960146070E-1,-9.041090012E0,5.354259014E0
2.303399844E1,3.573393822E-1,-1.076678181E1,6.071245670E0
2.305399844E1,1.256831408E0,-1.221588802E1,5.939296246E0
2.307399844E1,-2.790490091E-1,-1.109551525E1,5.285698414E0
2.309400000E1,-2.052798033E0,-9.059792519E0,4.149572849E0
2.311400000E1,-1.433916092E0,-8.033599854E0,4.392115116E0
2.313400000E1,-2.001092911E0,-6.539532185E0,4.528134346E0
2.315599844E1,-1.338559866E0,-7.306069374E0,4.629524231E0
2.317599844E1,-1.007843971E0,-8.667240143E0,4.154227257E0
2.319600000E1,-5.526487827E-1,-8.292365074E0,3.994926691E0
2.321800000E1,-2.381751873E-2,-9.458409309E0,4.825312614E0
2.324000625E1,-1.662706017E0,-1.097103691E1,4.222586632E0
2.326199844E1,-5.527924299E-1,-1.021230507E1,3.570109129E0
2.328199844E1,9.212887846E-3,-9.215569496E0,2.997684002E0
2.330202500E1,2.311362326E-1,-8.562345505E0,4.120267868E0
2.332400000E1,-5.135275126E-1,-7.678874969E0,4.741716385E0
2.334599844E1,-8.717671633E-1,-7.768342018E0,4.656358242E0
2.336599844E1,-6.219465733E-1,-8.172616959E0,4.314773083E0
2.338599844E1,-1.406775475E0,-9.526241302E0,4.544788361E0
2.340600000E1,-2.308431864E0,-7.761810780E0,3.910037756E0
2.342799844E1,-3.499145031E0,-6.554625034E0,2.630576372E0
2.344800000E1,-1.939753532E0,-7.498275757E0,3.726201534E0
2.347000000E1,-1.722350359E0,-8.632533073E0,5.168669224E0
2.349000000E1,-1.823443174E0,-8.628358841E0,5.926089764E0
2.351000156E1,-4.312819242E-1,-1.014799595E1,7.767259598E0
2.353199844E1,-1.634272456E0,-1.034039497E1,5.502612591E0
2.355199844E1,-1.419081688E0,-1.090680504E1,3.129681349E0
2.357201094E1,-6.852779984E-1,-1.127614498E1,6.937342882E-1
2.359400000E1,-1.814364433E0,-8.688576698E0,3.718453884E0
2.361400000E1,-2.697767258E0,-7.869635582E0,5.699244022E0
2.363600000E1,-2.828720570E0,-7.179933071E0,2.603656054E0
2.365800000E1,-3.559890509E0,-5.828683853E0,3.354381800E0
2.368000469E1,-2.064012527E0,-6.977259159E0,6.146049976E0
2.370202500E1,-1.899061680E0,-8.791106224E0,6.910767555E0
2.372399844E1,-8.541075587E-1,-1.003582287E1,6.022547245E0
2.374400000E1,-8.872624040E-1,-9.246656418E0,3.018542528E0
2.376600000E1,-1.494364977E0,-8.892955780E0,3.960335255E0
2.378800000E1,-2.194745541E0,-9.801611900E0,5.686401367E0
2.381000312E1,-3.267050982E0,-8.642914772E0,3.562131643E0
2.383199844E1,-3.692136765E0,-5.687857151E0,5.445506573E0
2.385200000E1,-1.959328532E0,-6.385402679E0,2.803610086E0
2.387400000E1,-5.334568620E-1,-1.048218822E1,3.112203598E0
2.389400000E1,1.835873872E-1,-1.073218155E1,4.155989170E0
2.391400156E1,-1.840825081E0,-9.379820824E0,5.758457661E0
2.393600000E1,-2.740652323E0,-8.653363228E0,6.195878029E0
2.395600000E1,-1.533122301E0,-8.751132965E0,5.232853413E0
2.397600000E1,-8.952016234E-1,-9.328996658E0,3.789417982E0
2.399600000E1,-2.321810484E0,-8.246129036E0,2.908323050E0
2.401600000E1,-3.900432348E0,-6.073304176E0,2.731439352E0
2.403600000E1,-2.850335360E0,-6.215472221E0,3.074107170E0
2.405600000E1,-7.910442352E-1,-7.402239799E0,5.218373299E0
2.407600000E1,3.564008772E-1,-1.012610340E1,5.287335873E0
2.409600000E1,-1.822322607E0,-9.937862396E0,5.659796715E0
2.411600000E1,-3.778299332E0,-9.173575401E0,8.925631523E0
2.413600000E1,-1.991659760E0,-1.078682709E1,6.085457325E0
2.415600000E1,-4.039976001E-1,-1.069143295E1,4.021712780E0
2.417600000E1,-2.428984642E0,-6.881692410E0,2.649701357E0
2.419600000E1,-1.886468172E0,-6.099391460E0,7.112119794E-1
2.421600000E1,-2.937675953E0,-4.873799801E0,6.133332253E0
2.423600000E1,-3.474666595E0,-6.079586983E0,6.753104687E0
2.425600000E1,-2.037609339E0,-7.474400997E0,5.276925564E0
2.427600000E1,-3.168553352E0,-8.076178551E0,2.638879538E0
2.429600000E1,-3.474388838E0,-9.019685745E0,4.415942192E0
2.431600000E1,-2.398731470E0,-8.498075485E0,6.742301941E0
2.433600000E1,-1.042052388E0,-9.240153313E0,5.693737507E0
2.435600000E1,1.366964698E0,-1.304696274E1,5.633527756E0
2.437600000E1,2.197877131E-2,-1.040461636E1,2.886315346E0
2.439600000E1,-8.835370541E-1,-9.764473915E0,2.958945990E0
2.441600000E1,-1.960065961E0,-8.703258514E0,3.581802130E0
2.443600000E1,-9.573167562E-1,-7.640347481E0,5.805910110E0
2.445600000E1,2.057193965E-1,-7.779603958E0,4.905058384E0
2.447600000E1,-1.661470532E0,-6.631229877E0,6.567812443E0
2.449600000E1,-3.455905676E0,-5.830934525E0,1.678804636E0
2.451600000E1,-4.207579613E0,-9.615813255E0,3.531677246E0
2.453600000E1,-4.764317989E0,-9.255150795E0,3.570300579E0
2.455600000E1,-3.934602261E0,-7.369381428E0,5.113976479E0
2.457800000E1,-1.929266810E0,-6.242383003E0,4.229548931E0
2.460000156E1,-3.305913508E-2,-6.060739517E0,5.772640705E0
2.462199844E1,7.916188985E-2,-7.592665195E0,6.239050388E0
2.464200000E1,3.318459392E-1,-1.273085117E1,3.237305403E0
2.466400000E1,-4.409162104E-1,-1.335727024E1,3.432701111E0
2.468599844E1,-6.910527945E-1,-1.189496899E1,1.757889867E0
2.470599844E1,-7.079942226E-1,-1.180033112E1,2.130446672E0
2.472599844E1,-2.398156881E0,-7.671338558E0,2.850431204E0
2.474599844E1,-2.017651320E0,-5.173850536E0,3.969979048E0
2.476600000E1,-3.077219427E-1,-6.014426231E0,9.051998138E0
2.478800000E1,-2.883298874E0,-6.399126530E0,8.410591125E0
2.480800000E1,-4.936020374E0,-1.372541237E1,4.333859444E0
2.483000000E1,-6.147122383E0,-9.009323120E0,-1.576361537E0
2.485000781E1,-3.798017740E0,-5.112846851E0,4.992810726E0
2.487200469E1,-1.162614703E0,-6.274014950E0,1.645745516E0
2.489400000E1,-4.630386084E-2,-6.571557045E0,2.468182564E0
2.491400156E1,-8.885361254E-2,-7.100895882E0,1.242621326E1
2.493400312E1,-4.424120426E0,-8.781624794E0,7.205599308E0
2.495600000E1,-6.238465786E0,-1.120606995E1,1.103152394E0
2.497600469E1,-7.013871670E0,-1.190728378E1,1.958322883E0
2.499800000E1,-3.334854841E0,-8.296809196E0,4.364380836E0
2.501999844E1,-1.145999074E0,-8.574536324E0,5.362035275E0
2.504000156E1,-1.968962789E0,-8.571873665E0,5.550659657E0
2.506200000E1,-4.399690628E0,-7.441485405E0,4.223745346E0
2.508200781E1,-5.562036991E0,-7.849916935E0,3.000327349E0
2.510202031E1,-4.033215046E0,-6.887687683E0,2.016856432E0
2.512400781E1,-1.761155605E0,-4.571507931E0,1.920714855E0
2.514600000E1,-1.427011251E0,-9.337348938E0,3.869575977E0
2.516600313E1,-3.846620083E0,-1.031527424E1,7.557537079E0
2.518799844E1,-4.559546471E0,-9.474018097E0,5.868399143E0
2.520800625E1,-4.554594994E0,-7.930410385E0,3.052013397E0
2.523000469E1,-3.341223478E0,-8.246358871E0,3.710160494E0
2.525200000E1,-1.687567353E0,-9.505047798E0,5.047053814E0
2.527400312E1,-3.094620705E0,-8.219189644E0,3.747557640E0
2.529599844E1,-2.943661451E0,-7.974980354E0,3.224865198E0
2.531600000E1,-2.416821957E0,-8.513809204E0,4.322300434E0
2.533600000E1,-3.805507183E0,-7.270539761E0,3.776288033E0
2.535600312E1,-4.631879807E0,-7.139451981E0,3.512973785E0
2.537800000E1,-3.497009277E0,-9.030248642E0,4.670378685E0
2.539800156E1,-2.624140978E0,-1.015565777E1,4.176990986E0
2.542000000E1,-1.900842905E0,-8.509366035E0,2.235638380E0
2.544000156E1,-2.424502611E0,-9.331363678E0,5.284099102E0
2.546200000E1,-3.470941067E0,-7.899898529E0,6.379149437E0
2.548200313E1,-4.839342117E0,-5.091835022E0,1.791753531E0
2.550202500E1,-2.944494724E0,-6.293341160E0,2.483017206E0
2.552400000E1,-1.555848002E0,-9.048942566E0,4.245465279E0
2.554400000E1,-1.038394094E0,-7.600450516E0,4.160682201E0
2.556400000E1,-6.818590760E-1,-7.800031185E0,5.070373535E0
2.558400000E1,-8.907292485E-1,-9.022309303E0,5.796199799E0
2.560400000E1,-2.917267799E0,-1.089513111E1,4.053124905E0
2.562400000E1,-5.589896202E0,-9.991118431E0,2.292869568E0
2.564400000E1,-4.593773842E0,-8.561865807E0,3.634944201E0
2.566400000E1,-2.694635630E0,-8.242212296E0,4.962375641E0
2.568400000E1,-1.170774221E0,-8.825506210E0,6.904542446E0
2.570400000E1,-2.899186611E-1,-1.135121727E1,8.342336655E0
2.572400000E1,-4.124060273E-1,-1.083140755E1,7.108107090E0
2.574400000E1,-1.905985713E0,-9.397892952E0,2.532720804E0
2.576600000E1,-7.681384087E0,-4.445649624E0,-3.263440609E0
2.578600000E1,-3.445629597E0,-5.872095585E0,9.774568081E-1
2.580600000E1,-9.476920962E-1,-8.085276604E0,2.594826221E0
2.582600000E1,-1.078520894E0,-6.724249363E0,3.165881634E0
2.584600000E1,-2.945461988E0,-8.161230087E0,2.825292110E0
2.586600000E1,-7.241693735E-1,-9.609894753E0,2.197620583E1
2.588600000E1,-2.443340302E0,-9.677698135E0,5.635711193E0
2.590600000E1,-4.204677582E0,-1.333186340E1,-2.308422089E0
2.592600000E1,-4.888327599E0,-8.665477753E0,1.974421501E0
2.594600000E1,-1.083874226E0,-7.721865654E0,5.743402481E0
2.596600000E1,-1.454027414E0,-8.419075966E0,4.445984840E0
2.598600000E1,-1.622627020E0,-9.574440956E0,1.858274102E0
2.600600000E1,-1.204791069E0,-9.944441795E0,3.242754698E0
2.602600000E1,-1.262548685E0,-8.833588600E0,4.866320133E0
2.604600000E1,-2.753868103E0,-1.032891178E1,4.448790550E0
2.606600000E1,-2.552669287E0,-8.779623985E0,4.513223648E0
2.608600000E1,-9.384216666E-1,-9.679967880E0,3.699759722E0
2.610600000E1,-2.046965837E0,-1.017574024E1,3.516172647E0
2.612600000E1,-2.696780920E0,-9.423318863E0,3.325287580E0
2.614600000E1,-2.819306612E0,-8.894641876E0,1.964921355E0
2.616600000E1,-3.941718102E0,-7.992870331E0,4.445304871E0
2.618600000E1,-3.997761488E0,-7.285019398E0,7.026589394E0
2.620600000E1,-4.680376947E-1,-9.410917282E0,3.427520037E0
2.622600000E1,-6.338792443E-1,-9.449387550E0,2.455780506E0
2.624600000E1,-1.854232550E0,-9.452088356E0,4.367732525E0
2.626600000E1,-2.071990013E0,-1.004397297E1,3.698045731E0
2.628600000E1,-2.000891924E0,-1.099857044E1,4.421506405E0
2.630600000E1,-3.891774893E0,-7.738404751E0,4.889822006E0
2.632600000E1,-2.898707986E-1,-9.716092110E0,4.475778103E0
2.634600000E1,-1.898946643E0,-9.286237717E0,3.593600988E0
2.636600000E1,-2.722437143E0,-7.083762646E0,4.392440796E0
2.638600000E1,-1.105173111E0,-5.891746998E0,3.071904659E0
2.640600312E1,-3.128647208E-1,-6.506865501E0,2.328773022E0
2.642800000E1,-2.143088102E0,-7.621615887E0,2.717035770E0
2.644800000E1,-2.931278467E0,-8.685751915E0,5.828559399E0
2.646800000E1,-1.203957915E0,-8.054477692E0,5.147380352E0
2.648800000E1,-1.454477549E0,-1.043279076E1,4.322999477E0
2.650800000E1,-3.456719637E0,-1.022360516E1,2.891343355E0
2.652800000E1,-1.645994544E0,-8.944459915E0,5.889400959E0
2.654800000E1,-2.290647745E0,-8.067224503E0,5.968457699E0
2.656800000E1,-1.206351995E0,-7.561684132E0,4.771404743E0
2.658800000E1,-1.331999779E0,-7.926608086E0,3.786324739E0
2.660800000E1,-1.392333627E0,-9.383728981E0,2.980694771E0
2.662800000E1,-2.211083412E0,-8.869109154E0,2.270881176E0
2.664800000E1,-1.981039047E0,-9.060081482E0,4.737847805E0
2.666800000E1,-2.172661304E0,-7.583548069E0,5.309113979E0
2.668800000E1,-2.189746380E0,-7.451339722E0,5.411451340E0
2.670800000E1,-1.099848390E0,-9.134080887E0,6.405255795E0
2.672800000E1,-1.402705312E0,-8.865518570E0,3.479799747E0
2.674800000E1,-1.976949811E0,-9.413100243E0,3.448244095E0
2.676800000E1,-2.371466398E0,-9.048109055E0,2.933711290E0
2.678800000E1,-7.469621897E-1,-9.310484886E0,4.782561302E0
2.680800000E1,-1.723078251E0,-8.054707527E0,5.025515556E0
2.682800000E1,6.112300754E-1,-1.038361454E1,4.278993607E0
2.684800469E1,8.878657222E-2,-1.178072643E1,6.832084656E0
2.687000781E1,-1.710609347E-1,-1.261818027E1,7.223756790E0
2.689200000E1,-1.468019128E0,-1.265263748E1,5.772410870E0
2.691200000E1,4.361086488E-1,-9.703440666E0,2.746388674E0
2.693200000E1,2.594510317E0,-6.957694054E0,2.833202481E-1
2.695200000E1,-1.490831017E0,-5.765821934E0,1.203546047E0
2.697202812E1,-8.302852631E0,-8.365455627E0,3.157434702E0
2.699400000E1,-3.354650259E0,-6.543401241E0,4.455964088E0
2.701400781E1,-1.201975465E0,-4.880436420E0,3.302427769E0
2.703600000E1,-3.567073345E-1,-5.670638084E0,7.050943375E0
2.705600000E1,-2.102607250E0,1.064624906E0,5.296557903E0
2.707600000E1,7.239874005E-1,2.495371103E0,1.377096891E0
2.709600781E1,-2.711787939E0,-8.531756401E0,-8.760192394E-1
2.711799844E1,-7.782323837E0,-1.292447567E1,2.846878290E0
2.713801406E1,-4.970400810E0,-9.426853180E0,6.021848202E0
2.716000156E1,-2.190866947E0,-3.228064060E0,2.828940868E0
2.718002656E1,2.453118086E0,-1.568784332E1,4.217348099E0
2.720202031E1,-2.287334204E0,-1.506954575E1,1.571343303E0
2.722400000E1,-5.516307831E0,-1.130391693E1,3.665398121E0
2.724400000E1,-2.105250359E0,-1.033764553E1,-8.533413410E-1
2.726400000E1,3.375355244E0,-1.468315029E1,3.256075859E0
2.728400000E1,1.889034629E0,-1.051033497E1,5.721615314E0
2.730401719E1,-9.003634453E-1,-7.351367474E0,4.707345009E0
2.732600000E1,5.034431219E-1,-1.111709309E1,3.895155430E0
2.734600000E1,-1.134765387E0,-9.101768494E0,4.005078316E0
2.736600000E1,-2.172230482E0,-7.645969391E0,1.768568158E0
2.738600000E1,-2.703398466E0,-1.025102329E1,1.198680997E0
2.740600000E1,-2.339948893E0,-1.235074806E1,1.285083055E0
2.742600000E1,-2.878730774E0,-9.596812248E0,5.583537102E0
2.744600625E1,-3.124136209E0,-6.653189659E0,6.833444118E0
2.746800000E1,-2.580010891E0,-4.798210144E0,2.057730198E0
2.748800000E1,-2.933251381E0,-3.592710495E0,9.028793335E0
2.750800000E1,3.710705996E0,-1.137837696E1,-2.518383980E0
2.752800625E1,5.366095543E0,-1.151965332E1,4.936125278E0
2.755000000E1,3.522167444E0,-1.061227989E1,2.577118635E0
2.757000000E1,2.621478558E0,-1.147808075E1,1.606835008E0
2.759001875E1,2.355233669E0,-1.113577747E1,2.285112381E0
2.761002500E1,1.372184038E0,-5.631813526E0,3.102339506E0
2.763200000E1,7.069023848E-1,-1.144115257E1,3.797050714E0
2.765200000E1,-3.270182610E0,-1.316090679E1,6.407984734E0
2.767200000E1,-1.045845699E1,-5.691898346E0,2.023244143E0
2.769200000E1,-9.063193321E0,-1.204271030E1,3.035234928E0
2.771200625E1,-4.134719372E0,-1.598775101E1,1.053364468E1
2.773400000E1,-6.648334026E0,-4.541512966E0,5.174846649E0
2.775400000E1,-4.632004261E0,-8.733942032E0,2.590497494E0
2.777400000E1,-3.980025053E0,-1.293283558E1,1.877188206E0
2.779400469E1,-3.511814773E-2,-1.258455658E1,3.232363701E0
2.781600000E1,8.133965135E-1,-9.932738304E0,-1.183884889E-1
2.783600000E1,5.027095795E0,-1.436948109E1,2.192772627E0
2.785600000E1,4.905087471E0,-1.376360416E1,1.771670938E0
2.787600312E1,-2.269626617E0,-8.229513168E0,8.040380478E0
2.789800000E1,3.233264208E0,-5.802021980E0,6.546695232E0
2.791800781E1,-4.228840351E0,-4.198424339E0,1.801965141E1
2.794000000E1,-8.236810684E0,-5.324081898E0,2.752665520E1
2.796000781E1,-7.443400860E0,-5.535270214E0,2.621451759E1
2.798200000E1,-7.496551991E0,3.119999170E0,2.069211769E1
2.800202188E1,-6.864655018E-1,4.347774506E0,1.554943943E1
2.802400000E1,3.425461054E0,-6.125919342E0,1.333282089E1
2.804400000E1,-2.519054413E0,-3.981576681E0,1.188218403E1
2.806400000E1,-1.798744678E0,-1.054435134E0,1.010783100E1
2.808400000E1,3.076367140E0,-7.819089413E0,6.466978073E0
2.810400000E1,2.107826471E0,-1.190319538E1,8.599590302E0
2.812400000E1,-2.933193922E0,-4.895501137E0,6.436954975E0
2.814400000E1,-1.243730307E0,-7.063948512E-1,8.300113678E0
2.816400000E1,5.893078804E0,-4.388360977E0,5.798172474E0
2.818400000E1,6.150321484E0,-1.542871475E0,4.111381054E0
2.820400000E1,5.180458546E0,-3.327921152E0,2.821040154E0
2.822400000E1,1.377527863E-1,-7.715458274E-1,6.411011219E0
2.824400000E1,-3.208316326E0,6.187957525E-1,8.649388313E0
2.826400000E1,-2.322203398E0,-1.611240268E0,9.935524940E0
2.828400625E1,-3.768760681E0,4.364534020E-1,8.518243790E0
2.830600000E1,-2.628057957E0,1.686868310E0,8.151452065E0
2.832799844E1,9.744400531E-2,-2.714162767E-1,7.704636574E0
2.834799844E1,-1.195491910E0,-3.426294327E-1,8.886826515E0
2.836799844E1,-2.300262690E0,1.527778387E0,1.081213856E1
2.838799844E1,-7.606282830E-1,1.740086675E0,1.001119137E1
2.840800312E1,2.798343003E-1,1.235762477E0,6.790243149E0
2.842999844E1,-1.777905345E0,2.445054531E0,5.538305759E0
2.845004531E1,-3.265049458E0,5.073284626E0,5.948489666E0
2.847199844E1,-1.349927545E0,4.419955254E0,7.182260036E0
2.849200000E1,-2.515922785E-1,3.290925980E0,7.468673706E0
2.851200000E1,-3.824402094E-1,5.249516964E0,9.334657669E0
2.853200313E1,3.619554043E-1,3.217232466E0,1.042796516E1
2.855399844E1,-2.854942083E-1,4.447248936E0,1.045074844E1
2.857400625E1,2.027601451E-1,5.411010742E0,6.311374187E0
2.859599844E1,-1.425507665E-1,4.771835327E0,8.125327110E0
2.861600781E1,2.392286360E-1,3.555092573E0,7.588038921E0
2.863799844E1,-1.243280172E0,4.745901585E0,8.640558243E0
2.865800000E1,-1.357493162E0,4.796582222E0,9.784489632E0
2.868000625E1,-1.531331427E-2,2.225381851E0,9.755356789E0
2.870202344E1,-6.222817302E-1,2.158526182E0,1.103574753E1
2.872400000E1,-8.380376697E-1,3.552832603E0,1.135677147E1
2.874400000E1,-1.220372468E-1,2.606318474E0,1.170048237E1
2.876400625E1,4.034708813E-2,1.675424099E0,1.184560966E1
2.878600000E1,-1.357330441E0,4.114761353E0,1.087464619E1
2.880600156E1,-4.644272327E-1,4.061198235E0,9.187595367E0
2.882799844E1,1.023281813E-1,3.384414911E0,7.558073044E0
2.884800312E1,-9.710881859E-3,3.299478054E0,7.253932953E0
2.887000000E1,-5.477933288E-1,4.174597263E0,7.721865654E0
2.889001875E1,-1.516200155E-1,3.816386223E0,7.759397030E0
2.891200000E1,6.504566967E-2,3.409898758E0,8.423021317E0
2.893200000E1,-4.667544067E-1,3.151190996E0,8.834575653E0
2.895200000E1,-6.782485843E-1,4.041431427E0,9.621406555E0
2.897200469E1,5.449873805E-1,5.881624699E0,1.414496326E1
2.899400000E1,5.344882965E0,1.026739001E0,1.556471443E1
2.901400313E1,2.958285093E0,6.009025097E0,1.315510464E1
2.903600000E1,1.347552538E-1,4.196355343E0,9.930899620E0
2.905600000E1,1.000144243E0,2.942464352E0,4.673529625E0
2.907600000E1,1.097511649E0,1.237318611E1,1.404453087E1
2.909600313E1,1.846982986E-1,3.799952507E0,4.416478634E0
2.911800000E1,-1.158056140E0,4.506347179E0,1.957058668E0
2.913801406E1,-2.873808146E-1,7.598382473E0,5.880015850E0
2.916000000E1,1.825961947E0,2.232707977E0,9.389704704E0
2.918000625E1,-7.107906044E-2,6.645911217E0,9.221286774E0
2.920202500E1,8.046816587E-1,2.841141701E0,9.392088890E0
2.922400000E1,-4.735347927E-1,4.211113453E0,6.615954876E0
2.924400000E1,-1.039552808E0,4.457228184E0,5.397785187E0
2.926400000E1,-8.969541788E-1,3.525596142E0,1.176364136E1
2.928400000E1,3.500926256E0,3.596464396E0,1.106961060E1
2.930400312E1,-4.491522610E-1,-2.865955234E-1,9.901412964E0
2.932599844E1,1.771096349E0,8.413033485E-1,1.090704441E1
2.934600156E1,3.968532979E-1,3.741620064E0,9.651927948E0
2.936800000E1,-7.298359871E0,4.536628723E0,7.003183365E0
2.938803281E1,-3.246537447E-1,3.061733961E0,1.102616119E1
2.941000469E1,3.256497383E-1,1.081192732E0,1.098816967E1
2.943200000E1,-2.084238768E0,4.931988239E0,7.342690945E0
2.945200000E1,-1.703302145E0,3.079182863E0,1.105168247E1
2.947200000E1,2.040376902E0,8.716617823E-1,1.253315735E1
2.949200000E1,3.152454853E0,2.993719578E0,1.116978455E1
2.951200469E1,-7.125249386E0,1.983414173E0,-1.839934468E0
2.953400000E1,-1.806185693E-1,6.175374031E0,3.037561893E0
2.955400000E1,4.764719963E0,-9.070289135E-1,1.454887390E1
2.957400000E1,-2.425393343E0,4.006505013E0,1.783765411E1
2.959400469E1,-9.738367200E-1,1.328638315E0,1.353367519E1
2.961600000E1,1.514955044E0,1.648369551E0,1.198491383E1
2.963600313E1,1.112058759E-1,2.564103842E0,5.373048306E0
2.965800000E1,1.442564011E0,3.854693413E0,5.026387215E0
2.967800156E1,2.741916418E0,1.841399670E0,8.400957108E0
2.970000000E1,7.755106688E-1,2.788861990E-1,1.167655945E1
2.972000000E1,6.208729744E0,1.040855169E0,1.039598751E1
2.974001406E1,1.941601753E0,-4.112951279E0,5.710620880E0
2.976200000E1,4.767449379E0,1.023674488E0,1.122617149E1
2.978200000E1,-4.927075863E0,7.075728178E-1,5.376380920E0
2.980202813E1,-4.272059917E0,6.967184544E0,1.190069485E1
2.982400000E1,-6.334617138E0,5.733653545E0,1.095127010E1
2.984401406E1,-6.367829800E0,3.130849600E0,4.844101906E0
2.986600000E1,-1.819717765E0,4.584570885E0,1.061503792E1
2.988600313E1,-5.388869047E-1,1.233109683E-1,9.685130119E0
2.990800000E1,-2.817372084E0,2.454861164E0,1.113385201E1
2.992800000E1,-1.410970092E0,2.766864061E0,9.582207680E0
2.994800000E1,5.779602751E-2,4.871999741E0,7.683855057E0
2.996800313E1,-8.755710602E0,6.978140354E0,7.824289322E0
2.999000000E1,2.741092682E0,-6.041241288E-1,1.113537502E1
3.001001875E1,1.597296476E0,7.240161419E0,1.275057030E1
3.003200000E1,6.608542442E0,-2.935367823E0,6.709204674E0
3.005200000E1,-5.811024189E0,5.458080769E0,6.189882755E0
3.007200000E1,-4.214561284E-1,-1.618011117E0,1.409347725E1
3.009200938E1,-1.734752297E0,4.042217255E0,5.983330250E0
3.011400000E1,-4.467675984E-1,-5.760353208E-1,8.569126129E0
3.013400313E1,2.658042610E-1,2.239239454E0,4.434368134E0
3.015600000E1,-2.751081228E0,3.387460232E0,1.230871582E1
3.017600312E1,2.592412949E0,-3.355368376E0,1.109568882E1
3.019800000E1,-6.032152653E0,3.810936928E0,1.170983028E1
3.021800000E1,1.897261262E0,-1.832847476E0,6.747167110E0
3.023800000E1,-5.583718777E0,8.353771210E0,1.634549332E1
3.025800313E1,3.702699900E0,-2.761127472E0,2.459745407E0
3.028000000E1,-3.359026670E0,1.097320080E0,1.293789291E1
3.030002344E1,7.671022322E-3,3.864614964E0,1.279501534E1
3.032200000E1,7.880467176E-1,-2.782742500E0,3.167289257E0
3.034200625E1,-2.589520693E0,6.336743355E0,1.101659393E1
3.036400000E1,4.828281403E0,-3.606022120E0,1.275997448E1
3.038400000E1,-3.384050846E0,3.931892157E0,9.074177742E0
3.040400000E1,-3.703446984E-1,-4.130380750E-1,7.271544933E0
3.042400625E1,1.033749223E0,-5.706627965E-1,1.205773640E1
3.044600000E1,-5.162664652E-1,4.373066902E0,9.446389198E0
3.046600312E1,1.877169013E0,-7.085074902E0,8.657031059E0
3.048800000E1,-5.994449139E0,7.754168034E0,1.387411118E1
3.050800156E1,1.806769848E0,-2.103516817E0,1.532987213E1
3.053000312E1,-1.626247168E0,2.698571682E0,4.385363102E0
3.055200000E1,-3.077497244E0,7.862941027E-1,1.187318134E1
3.057200000E1,4.222404480E0,-1.723317623E0,1.077097797E1
3.059200000E1,-4.786363602E0,3.723079443E0,8.639151573E0
3.061200000E1,-7.388985157E-1,-7.438784838E-1,4.273151875E0
3.063200000E1,2.020888090E0,3.720062733E0,7.327205181E0
3.065200000E1,-2.092522621E0,-2.355166674E0,1.691919136E1
3.067200000E1,-2.017967224E0,3.895241737E0,8.359566689E0
3.069200000E1,2.321532965E0,-1.328236103E0,1.041509342E1
3.071200000E1,-3.008668661E0,5.332107544E0,9.275578499E0
3.073200469E1,4.469763756E0,-1.499392748E0,6.731546879E0
3.075400000E1,-2.978942394E0,2.798094034E0,1.413884258E1
3.077400156E1,1.186173677E0,7.221391201E-1,1.020580196E1
3.079600000E1,-2.712898731E0,1.235628247E0,7.647243023E0
3.081600000E1,-2.649423480E-1,-7.932085991E-1,9.088495255E0
3.083600000E1,-3.136777878E0,4.295590401E0,1.063657570E1
3.085600156E1,2.991947651E0,-2.235513926E0,9.071084023E0
3.087800000E1,-2.955297232E0,3.465358019E0,9.507308006E0
3.089800781E1,2.488820553E-1,6.327396035E-1,1.271829605E1
3.092000000E1,4.253921807E-1,1.320565104E0,1.098886871E1
3.094001094E1,-8.262773156E-1,2.846150398E0,9.319879532E0
3.096200000E1,-3.080015898E0,6.083465099E0,1.019818878E1
3.098200000E1,2.039850235E0,1.588313341E0,1.196417046E1
3.100202188E1,3.395437717E0,1.645276189E0,2.850526810E0
3.102400000E1,2.435027599E0,5.304689407E-1,1.188568878E1
3.104400000E1,1.414867878E0,3.466612697E-1,3.330746412E0
3.106400000E1,1.146449089E0,7.416375279E-1,9.682765007E0
3.108400000E1,1.865140676E0,2.224979401E0,1.345547104E1
3.110400156E1,-1.617465258E0,7.577936053E-1,1.298223305E1
3.112600000E1,2.715063095E0,3.015066147E0,3.846093416E0
3.114600156E1,-1.518306971E0,-1.265287757E0,2.997712851E0
3.116800000E1,2.224998713E0,3.498034000E0,9.356597900E0
3.118800156E1,-2.615014076E0,2.154973000E-1,8.623416901E0
3.121000781E1,4.538755417E0,6.972586155E0,1.189769840E1
3.123000781E1,-2.468230426E-1,-9.133400768E-2,8.747886658E0
3.125200000E1,5.480231643E-1,4.349689960E0,1.307944679E1
3.127200312E1,5.913218975E0,2.201765299E0,7.721108913E0
3.129400000E1,6.769269943E0,4.926568031E0,7.791556358E0
3.131400000E1,4.588305473E0,4.545890331E0,8.503715515E0
3.133400000E1,1.147818565E0,3.243338823E0,8.393802643E0
3.135400313E1,-3.412503719E0,1.014576435E0,1.514441776E1
3.137600000E1,-7.093368530E0,9.194692373E-1,1.064293575E1
3.139600625E1,-6.345678329E0,-1.250252128E0,5.956390858E0
3.141799844E1,-5.753812313E0,-2.329778671E0,5.451175690E0
3.143800156E1,-6.997169495E0,-2.213391542E0,6.822622776E0
3.145999844E1,-6.896880627E0,2.796753168E0,7.244279861E0
3.148000000E1,-5.749598503E0,2.245397329E0,7.456032753E0
3.150000625E1,-3.446204424E0,1.829773426E0,6.884948254E0
3.152199844E1,-3.551826954E0,2.614142656E0,5.315137386E0
3.154199844E1,-5.306192398E0,-1.378868669E-1,1.476309776E1
3.156200000E1,-5.402506351E0,-2.088509947E-1,1.839426875E0
3.158200000E1,-4.797779083E0,-2.871911764E0,7.164888382E0
3.160202969E1,-4.962461948E0,6.873274595E-2,7.438095093E0
3.162399844E1,-4.297534466E0,-2.598024845E0,9.483087540E0
3.164400312E1,-4.071387768E0,-3.002376795E0,8.732266426E0
3.166600000E1,-4.063123226E0,-2.186365604E0,9.657404900E0
3.168600000E1,-4.203624725E0,-7.480060458E-1,9.922270775E0
3.170600000E1,-5.750403404E0,2.467875957E0,1.875548553E1
3.172600000E1,-4.044725895E0,-1.483380318E0,1.210859871E1
3.174600000E1,-5.217751026E0,-3.662908554E0,6.021072388E0
3.176600000E1,-6.745136738E0,-1.856722593E0,6.358453751E0
3.178600156E1,-6.420913696E0,-1.078329325E0,6.957760811E0
3.180800000E1,-4.697490692E0,-9.230988026E-1,5.459057808E0
3.182800313E1,-4.970343590E0,5.263700485E-1,8.846000671E0
3.185000625E1,-2.663472652E0,1.272278786E0,1.160361290E1
3.187000938E1,-1.294410825E0,8.836902380E-1,9.858843803E0
3.189200000E1,-1.764181852E0,2.008926719E-1,1.150632191E1
3.191200000E1,-2.085464716E0,-7.043166757E-1,1.257534409E1
3.193200000E1,-1.314033747E0,-1.620520234E0,1.024041176E1
3.195200781E1,-3.562102795E0,9.564740062E-1,1.241248035E1
3.197400000E1,-2.992455244E0,2.939887941E-1,7.175135136E0
3.199400469E1,-1.710532546E0,1.699883223E0,1.045175362E1
3.201600000E1,-2.028348446E0,-5.839170814E-1,9.941156387E0
3.203600000E1,-8.351166844E-1,1.529032946E0,1.000205612E1
3.205600000E1,-2.040501356E0,-7.844841480E-1,7.570551872E0
3.207600312E1,-1.898305058E0,-7.557824254E-1,8.544034004E0
3.209800000E1,-1.008265376E0,7.030525804E-1,8.584285736E0
3.211800312E1,1.367568038E-2,2.416304827E0,1.319964504E1
3.213801719E1,-3.028512001E0,2.326876640E0,1.251660824E1
3.216000000E1,-2.857881784E0,5.953422189E-1,6.267550945E0
3.218000000E1,-1.264416218E0,9.709636569E-1,7.172664642E0
3.220000625E1,3.533841576E-3,1.239056826E0,1.122080994E1
3.222200000E1,8.820239305E-1,1.456220508E0,1.212495613E1
3.224200156E1,1.149638176E0,1.366399646E0,9.614433289E0
3.226400000E1,2.221311569E0,2.930608273E0,8.217436790E0
3.228400156E1,1.748207808E0,2.247130632E0,9.433748245E0
3.230600000E1,2.698456645E-1,1.169452667E0,1.217106819E1
3.232600000E1,-2.552688122E0,1.317749500E0,1.464524555E1
3.234600000E1,-3.883759022E0,8.763639927E-1,1.291635418E1
3.236600156E1,-2.922573328E0,2.254811287E0,9.240976334E0
3.238800000E1,-1.830558658E0,1.336615682E0,6.913075447E0
3.240800469E1,-2.498981476E0,2.542153835E0,8.889346123E0
3.243000000E1,-2.513538361E0,2.191240549E0,1.144496346E1
3.245000469E1,-2.297236681E0,1.114089131E0,1.072512341E1
3.247200000E1,-1.519379497E0,2.899665534E-1,9.168499947E0
3.249200000E1,-1.314742327E0,1.785126328E0,8.636555672E0
3.251200000E1,-2.231070280E0,2.032313347E0,7.538881302E0
3.253200781E1,-2.146085739E0,1.909596086E0,8.321832657E0
3.255400000E1,-5.793777108E-1,3.130610466E0,6.457094669E0
3.257400625E1,-2.833777107E-2,2.448320389E0,7.414220333E0
3.259600000E1,3.271915913E-1,2.210221767E0,7.429916382E0
3.261600000E1,-7.358434796E-1,1.811251998E0,6.396483421E0
3.263600000E1,-2.023722887E0,1.621343851E0,8.342231750E0
3.265600000E1,-2.587231874E0,2.374291420E0,1.021036053E1
3.267600000E1,-2.413297892E0,3.460943222E0,9.338803291E0
3.269600000E1,-2.278130770E0,3.469198227E0,8.004582405E0
3.271600000E1,-2.108899117E0,2.421552896E0,6.134433270E0
3.273600000E1,-1.102261662E0,2.218218327E0,6.752501011E0
3.275600781E1,-1.099417448E0,2.871366262E0,6.941442013E0
3.277800000E1,-6.571125984E-1,2.566047907E0,7.874749660E0
3.279800625E1,6.561069936E-2,1.848218441E0,8.109601974E0
3.282000156E1,7.323480248E-1,1.426474929E0,6.270653725E0
3.284002812E1,6.197247505E-1,5.553111434E-1,6.236349583E0
3.286200000E1,2.188817501E0,8.731079102E-1,6.139106274E0
3.288200156E1,3.583449364E0,-1.496653795E0,6.780197144E0
3.290202500E1,2.962614059E0,-2.760313511E0,7.755547523E0
3.292400000E1,3.950854301E0,-3.227977514E0,7.361145496E0
3.294400000E1,4.309534073E0,-2.977209091E0,8.356098175E0
3.296400625E1,4.723281384E0,-4.317378044E0,6.796650410E0
3.298600000E1,4.163526535E0,-5.772017956E0,6.066811562E0
3.300600000E1,5.033445358E0,-5.743613243E0,1.035812092E1
3.302600000E1,4.663033009E0,-7.207581520E0,1.613648796E1
3.304600781E1,-1.555321336E0,-9.947534561E0,1.861329079E1
3.306800000E1,-1.027641201E1,-9.399042130E0,1.734404755E1
3.308800469E1,-1.246868610E1,-6.627859116E0,1.664163589E1
3.311000000E1,-1.156462574E1,-5.612545013E0,1.281995392E1
3.313000938E1,-1.129329586E1,-4.281330585E0,1.063306141E1
3.315200000E1,-8.824462891E0,-1.480085969E0,1.115021896E1
3.317200000E1,-6.456865311E0,-9.643844515E-2,1.063453579E1
3.319200000E1,-5.054896832E0,2.835501134E-1,9.952782631E0
3.321200156E1,-5.861168385E0,2.194199800E0,1.068256474E1
3.323400000E1,-7.000693798E0,1.538772583E0,1.227440166E1
3.325400469E1,-8.878110886E0,-2.230629921E-1,1.234119987E1
3.327600000E1,-8.102706909E0,3.064578213E-2,1.350261688E1
3.329600156E1,-4.717755318E0,-1.665693998E0,1.195961189E1
3.331800000E1,-3.583152533E0,-2.720895290E0,9.885486603E0
3.333800000E1,-2.184048414E0,-3.227489233E0,1.044948387E1
3.335800000E1,-1.702593327E0,-3.744445324E0,1.032328987E1
3.337800469E1,-2.018541813E0,-3.772974491E0,5.861283779E0
3.340000000E1,-4.151325703E0,-5.182948589E0,3.825704575E0
3.342000781E1,-6.581669807E0,-6.596504211E0,4.076386929E0
3.344200000E1,-9.496361732E0,-8.535319328E0,3.040664911E0
3.346200938E1,-9.146760941E0,-7.904629230E0,9.160321236E0
3.348400000E1,-3.003583431E0,-5.175986290E0,1.529335690E1
3.350400313E1,-6.205818653E0,-5.925764084E0,7.812672615E0
3.352600000E1,-8.313807487E0,-8.350659370E0,5.651608944E0
3.354600000E1,-7.663274288E0,-6.972451687E0,5.573031425E0
3.356600000E1,-8.423567772E0,-5.694867134E0,4.726949215E0
3.358600781E1,-6.271199703E0,-4.997465134E0,6.091739655E0
3.360800000E1,-5.382165432E0,-4.128111362E0,9.251673698E0
3.362800469E1,-2.849214792E0,-2.495926619E0,6.662191868E0
3.365000313E1,-2.629091978E0,-1.177966475E0,2.834102869E0
3.367000625E1,-3.877285242E0,-4.343589306E0,5.613023758E0
3.369200000E1,-6.677284718E0,-4.129174232E0,4.212272644E0
3.371200000E1,-4.987734795E0,-2.744779825E0,3.716797113E0
3.373200000E1,-4.184011459E0,-2.469408512E0,4.166457176E0
3.375201406E1,-4.040760994E0,-3.293147802E0,9.154565334E-1
3.377400000E1,-5.643774986E0,-3.915985107E0,3.966224909E0
3.379400000E1,-8.647483826E0,-5.470023155E0,2.636580944E0
3.381400000E1,-1.431248093E1,-1.012142086E1,6.438151836E0
3.383401250E1,-9.140248299E0,-1.321745872E1,4.647480488E0
3.385600000E1,-6.890799999E0,-1.440414906E1,4.095320225E0
3.387600625E1,-1.009672165E1,-9.932125092E0,4.125296116E0
3.389800000E1,-1.024654198E1,-4.515511990E0,2.812219620E0
3.391800625E1,-1.079893208E1,-1.119194508E1,3.835788727E0
3.394000000E1,-7.680139065E0,-1.112710953E1,2.365279675E0
3.396000156E1,-1.788679361E0,-8.397068024E0,2.204456568E0
3.398200000E1,-3.178187847E0,-5.209122181E0,3.357781649E0
3.400202188E1,-2.825579405E0,-4.686506093E-1,6.394376278E0
3.402400000E1,-3.801819801E0,1.297848821E-1,4.624994278E0
3.404400000E1,-7.031837463E0,-3.476380836E-3,3.445160389E0
3.406400000E1,-6.501962185E0,-4.562582374E-1,4.062577248E0
3.408400000E1,-6.459192276E0,-1.481417060E0,3.893604040E0
3.410400000E1,-5.516844273E0,-1.802852988E0,2.293386698E0
3.412400000E1,-5.319944859E0,-3.623969078E0,4.526008129E0
3.414400000E1,-6.389204979E0,-6.250436783E0,4.900346756E0
3.416400000E1,-6.113555431E0,-7.704148293E0,6.235209942E0
3.418400781E1,-7.729220867E0,-8.129158020E0,4.792004585E0
3.420600000E1,-8.325002670E0,-1.050133324E1,5.097820282E0
3.422600000E1,-8.322408676E0,-1.039039421E1,3.761367321E0
3.424600000E1,-8.806219101E0,-9.000608444E0,5.881615162E0
3.426600781E1,-9.726348877E0,-6.933914661E0,6.397651672E0
3.428800000E1,-8.912177086E0,-5.688259125E0,3.309600830E0
3.430800469E1,-9.187030792E0,-4.760640144E0,1.050843835E0
3.433000625E1,-7.575953007E0,-1.331099510E0,7.204967022E0
3.435000781E1,-5.236914158E0,-1.553070784E0,5.408022881E0
3.437200000E1,-1.589232802E0,-1.176932096E0,3.849512339E0
3.439200000E1,-2.794876337E0,-2.119835615E0,2.082217932E0
3.441200000E1,-4.855450630E0,-4.060594559E0,3.972248793E0
3.443200000E1,-5.113631725E0,-5.556252480E0,4.454000473E0
3.445200000E1,-5.376371384E0,-6.016552448E0,5.183906078E0
3.447200000E1,-5.720140457E0,-6.254938126E0,5.034651756E0
3.449200000E1,-7.883685112E0,-6.543104649E0,4.322846413E0
3.451200000E1,-1.004279518E1,-6.819960117E0,5.858467579E0
3.453200156E1,-9.106211662E0,-5.712833405E0,5.232585430E0
3.455400000E1,-7.853900909E0,-4.451165676E0,4.907921791E0
3.457400000E1,-8.107169151E0,-4.741908073E0,5.122030735E0
3.459400000E1,-7.570063591E0,-7.315502644E0,7.054745197E0
3.461400312E1,-9.219974518E0,-4.162166595E0,5.261028290E0
3.463600000E1,-7.492500782E0,-2.740652323E0,4.599175453E0
3.465600313E1,-5.853459358E0,-3.553751945E0,4.434166908E0
3.467800000E1,-6.341837883E0,-3.899417162E0,5.266592503E0
3.469800312E1,-6.973495483E0,-3.976165771E0,5.934412003E0
3.472000000E1,-7.103318691E0,-4.705755234E0,3.759155273E0
3.474000469E1,-6.585021973E0,-4.729659081E0,3.815936089E0
3.476200000E1,-7.114494801E0,-4.538573265E0,4.755171776E0
3.478200000E1,-6.720572472E0,-4.579217434E0,4.989497185E0
3.480202500E1,-6.465877056E0,-6.435977936E0,4.834994793E0
3.482400000E1,-6.936174870E0,-6.315396309E0,3.004972219E0
3.484400000E1,-9.531020164E0,-4.806924820E0,5.104179859E0
3.486400625E1,-7.511156559E0,-5.411978245E0,4.771318436E0
3.488600000E1,-8.261432648E0,-4.059282780E0,2.919978142E0
3.490600313E1,-8.507604599E0,-4.466660976E0,4.668023109E0
3.492800000E1,-7.609893322E0,-5.910306931E0,7.397700310E0
3.494800000E1,-7.908498764E0,-4.735070229E0,2.331310749E0
3.496800000E1,-7.504184723E0,-4.179787636E0,5.363528728E0
3.498800156E1,-7.947246075E0,-3.716490507E0,6.468089581E0
3.501000313E1,-7.631517887E0,-3.465559006E0,5.334080219E0
3.503200000E1,-7.694810867E0,-1.508768439E0,5.243110180E0
3.505200000E1,-7.576498985E0,-1.300635695E0,5.962998390E0
3.507200469E1,-9.280376434E0,-7.239778638E-1,5.867470264E0
3.509400000E1,-9.914418221E0,-2.120544434E0,7.767613888E0
3.511400000E1,-1.000495720E1,-4.325862885E0,4.609786034E0
3.513400000E1,-8.532131195E0,-5.968036175E0,5.263508797E0
3.515400156E1,-5.013592243E0,-3.679016590E0,4.724899292E0
3.517400469E1,-1.052136660E0,-5.129596233E0,4.261928082E0
3.519600000E1,-2.286242485E0,-5.923264503E0,5.744446278E0
3.521600000E1,-4.497622967E0,-8.000819206E0,6.738566875E0
3.523600000E1,-7.313807011E0,-5.655248165E0,4.555629253E0
3.525600000E1,-5.055356979E0,-5.516585350E0,3.713138580E0
3.527600000E1,-6.460762501E0,-4.000088692E0,4.099964619E0
3.529600000E1,-7.323508739E0,-4.796610832E0,1.322566628E0
3.531600000E1,-6.849628925E0,-4.178140640E0,2.173015833E0
3.533600469E1,-9.303169250E0,-8.342930794E0,4.882955074E0
3.535800000E1,-9.417937279E0,-7.467189312E0,7.377186298E0
3.537800000E1,-6.692014217E0,-7.710660458E0,3.172949314E0
3.539800000E1,-5.790750504E0,-6.206192493E0,3.460042715E0
3.541800000E1,-5.890521526E0,-5.166735172E0,6.643919468E0
3.543800000E1,-4.945012569E0,-5.240189552E0,7.220203400E0
3.545800000E1,-5.204017639E0,-6.551761627E0,3.601856232E0
3.547800469E1,-7.796784878E0,-4.929508209E0,3.185418129E0
3.550000000E1,-8.197048187E0,-2.726861477E0,6.235650539E0
3.552000469E1,-7.597500801E0,-3.048795700E0,5.150396824E0
3.554200000E1,-6.889976025E0,-5.594990730E0,3.409448385E0
3.556200156E1,-6.471191883E0,-5.002856731E0,4.247218132E0
3.558400000E1,-7.307237625E0,-3.847434282E0,5.095694542E0
3.560400000E1,-7.223076820E0,-4.248836517E0,6.460963726E0
3.562400000E1,-6.954715252E0,-4.221245766E0,6.396924019E0
3.564599844E1,-6.640586376E0,-4.406020641E0,4.318689823E0
3.566599844E1,-5.626699924E0,-5.113995552E0,4.786919117E0
3.568600312E1,-5.724967480E0,-4.555600643E0,5.674717903E0
3.570799844E1,-9.027452469E0,-8.129464388E-1,7.014666080E0
3.572800312E1,-7.579965591E0,1.076950192E0,6.126924992E0
3.575001094E1,-5.157924175E0,-2.858255386E0,2.396548033E0
3.577001562E1,-4.305761337E0,-7.084720612E0,4.515617847E0
3.579199844E1,-3.980187893E0,-6.960480690E0,4.501568317E0
3.581199844E1,-5.111572742E0,-5.598045826E0,4.573442459E0
3.583200000E1,-4.658235550E0,-9.684660912E0,1.666479230E0
3.585200000E1,-2.556241274E0,-1.218767357E1,2.136815548E0
3.587200000E1,-4.628211975E0,-1.141020012E1,5.627771854E0
3.589200000E1,-6.329934120E0,-1.122168064E1,4.612525463E0
3.591200000E1,-4.651665688E0,-9.012301445E0,4.139708996E0
3.593200000E1,-1.055344939E0,-8.927336693E0,4.002933025E0
3.595200000E1,-1.687385440E0,-9.596027374E0,5.200311661E0
3.597200000E1,-2.984066010E0,-1.033014774E1,6.031980515E0
3.599200156E1,-3.932409286E0,-8.695214272E0,4.267147541E0
3.601400000E1,-3.418594599E0,-7.929183960E0,3.444461346E0
3.603400625E1,-2.892253160E0,-8.437664986E0,4.555457115E0
3.605600000E1,-3.531801701E0,-7.217407227E0,3.333811045E0
3.607600000E1,-3.317587852E0,-6.891096592E0,3.062806368E0
3.609600000E1,-3.478526115E0,-7.894362926E0,4.240791798E0
3.611600000E1,-3.716021299E0,-7.251203537E0,2.486263514E0
3.613600000E1,-3.959980965E0,-7.882784843E0,4.274713039E0
3.615600000E1,-4.655974865E0,-7.135132790E0,7.247842312E0
3.617600000E1,-6.364448547E0,-5.242181301E0,7.479610920E0
3.619600000E1,-5.427032948E0,-6.920842171E0,4.691400051E0
3.621600312E1,-2.859509945E0,-1.002280903E1,4.879296780E0
3.623800000E1,1.495341778E0,-1.234433174E1,2.650544167E0
3.625800312E1,2.544078588E0,-1.000742817E1,2.384184361E0
3.628000000E1,1.474828243E0,-9.724145889E0,4.401222706E0
3.630000625E1,-2.714258730E-1,-1.054415989E1,3.680290222E0
3.632200000E1,-2.069164753E0,-8.802291870E0,3.432088137E0
3.634200313E1,-1.749931693E0,-7.244719982E0,3.347658873E0
3.636400000E1,-6.934565902E-1,-7.385221481E0,1.813109756E0
3.638400000E1,9.696517140E-2,-8.464757919E0,4.401500702E0
3.640400000E1,-1.388972163E0,-8.335576057E0,6.447010517E0
3.642400625E1,-1.597861409E0,-1.019872475E1,7.148090363E0
3.644600000E1,-2.805535078E0,-9.304863930E0,4.818608761E0
3.646600469E1,-3.629121304E0,-8.549062729E0,3.416851282E0
3.648800000E1,-2.369675636E0,-8.142555237E0,3.190206766E0
3.650800000E1,-1.245166898E0,-9.573454857E0,3.931681395E0
3.652800000E1,-2.578938246E0,-8.252688408E0,5.762326241E0
3.654800781E1,-1.593216658E0,-8.496581078E0,4.075994492E0
3.657000000E1,-1.812525630E0,-6.294404507E0,4.000030994E0
3.659002656E1,-1.107557774E0,-8.708707809E0,3.300253868E0
3.661200000E1,-7.839382291E-1,-1.098646450E1,4.318632126E0
3.663200313E1,-2.261237383E0,-1.004813862E1,6.102868080E0
3.665400000E1,-2.740403414E0,-7.216344357E0,4.504508495E0
3.667400000E1,-1.597765803E0,-9.030996323E0,4.205597401E0
3.669400000E1,-9.908164144E-1,-8.760431290E0,3.096852064E0
3.671400000E1,1.201544404E0,-9.144834518E0,4.479168415E0
3.673400312E1,-1.672493517E-1,-7.558590412E0,4.308040619E0
3.675600469E1,-1.504612118E-1,-7.996480465E0,3.918226004E0
3.677800000E1,-1.843698144E0,-7.741009712E0,4.068208694E0
3.679800469E1,-2.224232435E0,-8.158538818E0,2.376312256E0
3.682000469E1,-2.256506443E0,-7.849687099E0,4.112146854E0
3.684200000E1,-3.143998623E0,-8.832401276E0,4.488965511E0
3.686200000E1,-5.223037243E0,-9.371173859E0,7.130746365E0
3.688200000E1,-5.701599598E0,-9.246397018E0,5.853200912E0
3.690202500E1,-5.628327847E0,-9.969446182E0,4.145656109E0
3.692400000E1,-4.308212757E0,-7.995034218E0,4.296806812E0
3.694400000E1,-1.910793185E0,-7.923313618E0,5.826375961E0
3.696400156E1,-2.523411751E0,-8.331534386E0,7.568014145E0
3.698600000E1,-5.520243645E0,-7.121916771E0,6.132585049E0
3.700600000E1,-3.943527937E0,-1.092613125E1,3.927534580E0
3.702600000E1,-2.502323627E0,-1.010646152E1,4.178322315E0
3.704600000E1,-1.672876596E0,-8.365666389E0,4.208604336E0
3.706600000E1,-3.883692026E0,-8.119150162E0,4.957807541E0
3.708600000E1,-4.008047104E0,-8.137537003E0,4.251555920E0
3.710600000E1,-2.239181995E0,-7.504395485E0,5.863314152E0
3.712600000E1,-2.241078138E0,-7.063642025E0,7.390555859E0
3.714600000E1,-2.902758837E0,-6.997332096E0,1.084877968E1
3.716600000E1,-2.548819304E0,-8.134845734E0,8.746506691E0
3.718600000E1,-3.245857716E0,-8.146271706E0,6.709280968E0
3.720600000E1,-1.535162091E0,-7.550919533E0,6.402459621E0
3.722600000E1,9.203311056E-2,-8.053797722E0,8.991194725E0
3.724600000E1,-7.085208893E-1,-5.644282818E0,3.665886641E0
3.726600000E1,-4.117461681E0,-6.676997662E0,7.175930023E0
3.728600000E1,-7.614710331E0,-5.585203171E0,6.800385475E0
3.730600000E1,-8.521673203E0,-7.925343513E0,1.132712078E1
3.732600000E1,-6.294528961E0,-7.714185238E0,7.202093601E0
3.734600000E1,-2.657573462E0,-5.448848724E0,4.874240398E0
3.736600000E1,-1.429711938E0,-4.109091759E0,6.355628967E0
3.738600000E1,-3.186615467E0,-3.998958588E0,3.809060097E0
3.740600000E1,2.415653616E-1,-6.912184715E0,2.478717089E0
3.742600000E1,3.745106161E-1,-3.813474894E0,4.152321339E0
3.744600000E1,-1.794502139E-1,-1.342543840E0,1.945834756E0
3.746600000E1,1.084860712E-1,-2.896026373E-1,5.667927742E0
3.748600000E1,-2.303135633E0,-1.622062087E0,5.539454937E0
3.750600469E1,-1.107844949E0,-2.518480062E0,6.138407707E0
3.752800000E1,-3.653168678E-1,-2.101189613E0,7.399874210E0
3.754800000E1,-1.407790482E-1,-4.014214516E0,6.100301266E0
3.756800000E1,-1.792146087E0,-4.942321777E0,6.222740650E0
3.758800000E1,-2.615167379E0,-5.224263191E0,5.945520878E0
3.760800000E1,-3.279452801E0,-7.480626106E0,6.341512680E0
3.762800000E1,-5.166754246E0,-9.653325081E0,5.063736916E0
3.764800000E1,-7.001325607E0,-1.097180271E1,7.539436817E0
3.766800000E1,-7.140218258E0,-1.063715076E1,7.222588539E0
3.768800000E1,-5.693335056E0,-1.027554035E1,5.299555779E0
3.770800000E1,-3.386579037E0,-9.376336098E0,6.770639420E0
3.772800000E1,-2.197254658E0,-7.947571754E0,5.997178078E0
3.774800000E1,-3.986863136E0,-8.315148354E0,6.600105286E0
3.776800000E1,-3.962432623E0,-1.233733082E1,4.701723576E0
3.778999844E1,-3.869374752E0,-1.307944679E1,5.804866791E0
3.781000156E1,-1.651912928E0,-1.236151314E1,4.291865349E0
3.783199844E1,-1.532624245E0,-1.039547062E1,4.394537926E0
3.785200000E1,-2.323496103E0,-9.249796867E0,5.236032486E0
3.787200000E1,-2.833729267E0,-7.975296497E0,5.248137951E0
3.789400000E1,-3.081279993E0,-5.771137238E0,5.163047791E0
3.791400000E1,-4.664594173E0,-8.802148819E0,5.998040676E0
3.793599844E1,-5.423202038E0,-1.086719513E1,7.296712875E0
3.795599844E1,-5.256373882E0,-8.875487328E0,7.216143131E0
3.797599844E1,-4.065278053E0,-5.836326122E0,6.844601154E0
3.799599844E1,-1.010151982E0,-6.119282722E0,7.605947971E0
3.801599844E1,-7.422216535E-1,-7.927929878E0,7.007981300E0
3.803599844E1,-1.962345243E0,-1.018428326E1,7.381869793E0
3.805600000E1,-3.724726677E0,-1.098115921E1,7.355648518E0
3.807799844E1,-4.629677296E0,-1.155036640E1,6.888827324E0
3.809800000E1,-3.632645607E0,-9.395709038E0,5.777726173E0
3.811800000E1,-2.770158529E0,-8.772546768E0,5.069166660E0
3.813801406E1,-5.341415882E0,-7.134309292E0,6.614921093E0
3.816000000E1,-5.093204498E0,-5.832945824E0,7.283573151E0
3.818000000E1,-3.313019753E0,-3.867928743E0,2.145242929E0
3.820000000E1,3.088711798E-1,-2.723940611E0,7.383718155E-3
3.822000000E1,6.492213011E-1,-1.399516225E0,5.471795082E0
3.824000000E1,1.517444998E-1,-2.133023024E0,3.983367443E0
3.826000000E1,-1.039083481E0,-2.754423857E0,2.955335379E0
3.828000000E1,-2.360204220E0,-1.744913340E0,3.592241049E0
3.830000156E1,-1.871145248E0,-1.015840650E0,7.100053310E0
3.832200000E1,-3.362819195E0,-9.374640584E-1,5.473710060E0
3.834201719E1,-1.573613048E0,-2.373266935E0,5.798622608E0
3.836400000E1,-7.671692371E-1,-3.253930807E0,8.065241814E0
3.838400000E1,-8.990322948E-1,-4.330201149E0,5.903813839E0
3.840400000E1,-1.658769965E0,-5.778214455E0,7.503945351E0
3.842400000E1,-2.995673180E0,-6.609318256E0,8.189261436E0
3.844400000E1,-4.403655052E0,-7.815928936E0,6.211047649E0
3.846400000E1,-5.678299427E0,-8.689792633E0,5.358989716E0
3.848400000E1,-6.221352100E0,-9.294549942E0,6.249316216E0
3.850400000E1,-5.084317207E0,-8.292299271E0,6.161899567E0
3.852400000E1,-3.076319218E0,-7.834057808E0,6.153941154E0
3.854400000E1,-2.699462414E0,-8.491916656E0,6.890100479E0
3.856400000E1,-4.387106419E0,-1.046147346E1,7.205675602E0
3.858400000E1,-5.001765251E0,-1.311829090E1,9.187950134E0
3.860400000E1,-5.904829025E0,-1.300871277E1,1.021619225E1
3.862400000E1,-6.203807831E0,-9.610709190E0,7.573846340E0
3.864400000E1,-6.236004829E0,-8.516433716E0,7.701648712E0
3.866400000E1,-5.547777176E0,-7.877517700E0,6.272329807E0
3.868400000E1,-4.097111225E0,-6.432214260E0,5.208882809E0
3.870400000E1,-2.957404137E0,-7.203166485E0,4.644473553E0
3.872400000E1,-4.209312916E0,-8.101509094E0,6.140830517E0
3.874400781E1,-3.935177088E0,-7.607154369E0,3.463394880E0
3.876600000E1,-3.100740194E0,-7.101384163E0,4.318632126E0
3.878600000E1,-3.644042015E0,-8.664117813E0,8.178660393E0
3.880600000E1,-5.326677322E0,-9.699877739E0,9.160100937E0
3.882600000E1,-7.968343735E0,-8.821253777E0,7.812672615E0
3.884600000E1,-8.778934479E0,-7.998290539E0,8.064054489E0
3.886600000E1,-6.131991386E0,-7.217435837E0,5.897359371E0
3.888600000E1,-5.237651348E0,-5.926405907E0,5.191711426E0
3.890600000E1,-4.381628513E0,-6.199392796E0,6.933550835E0
3.892600000E1,-3.463739395E0,-6.283792973E0,6.951889992E0
3.894600000E1,-5.019252300E0,-5.897770882E0,4.735444069E0
3.896600000E1,-5.054724693E0,-6.635980129E0,4.446875572E0
3.898600000E1,-3.739752769E0,-4.903009415E0,4.878128529E0
3.900800000E1,-2.605810881E0,-3.771624327E0,5.256479263E0
3.902800000E1,-2.456096649E0,-3.547900438E0,4.576688766E0
3.904800000E1,-1.425900340E0,-3.632492542E0,1.918751597E0
3.906800000E1,-2.379644960E-1,-2.601118088E0,3.289058685E0
3.908800000E1,-4.866454601E-1,-1.450129628E0,3.610896826E0
3.910800000E1,-3.339748621E0,-6.885341406E-1,4.518893242E0
3.912800000E1,-7.704541087E-2,-2.661940336E0,4.918475628E0
3.914800000E1,-1.254935145E0,-2.075897455E0,5.769824982E0
3.916800000E1,-1.457513452E0,-3.540746689E0,4.656262875E0
3.918800000E1,-1.260393977E0,-4.508454323E0,6.636439800E0
3.920800000E1,-1.664209604E0,-5.308174610E0,6.747205257E0
3.922800000E1,-3.189517021E0,-6.194527626E0,6.999754906E0
3.924800000E1,-5.708447456E0,-7.465704918E0,7.540969372E0
3.926800000E1,-6.491858959E0,-8.926157951E0,7.780437469E0
3.928800000E1,-6.505898476E0,-9.117953300E0,8.919790268E0
3.930800000E1,-6.267789841E0,-9.366222382E0,8.852502823E0
3.932800000E1,-6.563474178E0,-1.033374786E1,7.277855873E0
3.934800000E1,-5.707738876E0,-1.162250900E1,4.704683304E0
3.936800000E1,-3.775023937E0,-1.110919094E1,7.697492599E0
3.938800000E1,-2.379443884E0,-1.113330555E1,6.486486435E0
3.940800000E1,-2.914260387E0,-1.080004311E1,5.377128124E0
3.942800000E1,-2.502094030E0,-1.057560062E1,3.963361502E0
3.944800000E1,-2.156371355E0,-9.747292519E0,4.375988007E0
3.946800000E1,-1.785337090E0,-8.713869095E0,4.287364483E0
3.948800000E1,-3.927716494E0,-8.014494896E0,6.502556324E0
3.950800000E1,-2.912249565E0,-7.090868473E0,3.143759251E0
3.952800000E1,-1.494652182E-1,-6.661320210E0,5.645652294E0
3.954800000E1,-2.606462240E0,-7.155972004E0,5.956658840E0
3.956800000E1,-3.707268000E0,-7.021111488E0,4.392153263E0
3.958800000E1,-2.452802181E0,-8.098798752E0,5.737522602E0
3.961000313E1,-3.033855677E0,-1.063343430E1,8.546763420E0
3.963200000E1,-3.101602077E0,-1.117656422E1,3.443177938E0
3.965200000E1,-3.383964539E0,-8.418271065E0,2.397007704E0
3.967200000E1,-2.708838224E0,-5.031050682E0,2.272413254E0
3.969200000E1,-2.544883013E0,-3.948076963E0,2.022736549E0
3.971200000E1,-1.561211109E0,-8.495824814E0,6.792733073E-1
3.973200000E1,-1.942320108E0,-1.226225853E1,4.103719234E0
3.975200000E1,-1.929401040E0,-1.337693119E1,6.787054062E0
3.977200000E1,-1.860974789E0,-7.542482376E0,4.222912312E0
3.979200000E1,-1.583333462E-1,-4.141988277E0,2.158679247E0
3.981200000E1,-1.738707662E0,-6.904542446E0,5.168018341E0
3.983200000E1,-2.958668232E0,-9.325014114E0,2.642327070E0
3.985200000E1,-2.343339443E0,-1.055583382E1,3.965832233E0
3.987200000E1,-3.715025425E0,-9.416519165E0,6.625589371E0
3.989200312E1,-2.942148209E0,-5.104715824E0,-7.752425224E-2
3.991400000E1,-2.592853546E0,-7.953049660E0,5.460062981E0
3.993400000E1,-3.207684278E0,-1.141209698E1,5.500688076E0
3.995400000E1,-2.955948591E0,-1.116385651E1,5.318068027E0
3.997400000E1,-2.700151920E0,-8.024932861E0,5.390008926E0
3.999400000E1,-5.372110009E-1,-7.777995110E0,1.495925903E0
4.001400000E1,-1.574379206E0,-8.612718582E0,5.925304413E0
4.003400000E1,-3.442478895E0,-1.024411869E1,2.727867126E0
4.005400000E1,-3.789657354E0,-1.070652580E1,5.732542515E0
4.007400000E1,-3.213229418E0,-7.784842968E0,4.454460144E0
4.009400000E1,-1.806291103E0,-7.317312717E0,2.463710308E0
4.011400000E1,-2.393425941E0,-8.016850471E0,4.650344372E0
4.013400000E1,-2.529493093E0,-9.344166756E0,2.787904263E0
4.015400000E1,-2.274941683E0,-9.566234589E0,5.135974407E0
4.017400625E1,-9.902705550E-1,-6.337528229E0,2.266197920E0
4.019600000E1,-7.276648879E-1,-6.029911995E0,2.921079397E0
4.021600000E1,-3.565560102E0,-8.740981102E0,5.755861759E0
4.023600000E1,-3.553895473E0,-9.020796776E0,2.962288380E0
4.025600000E1,-2.397495985E0,-1.014704800E1,6.692492485E0
4.027600000E1,-1.361199498E0,-7.935677052E0,2.668921947E0
4.029600000E1,-2.241863489E0,-8.284934044E0,5.425490856E0
4.031600000E1,-3.040233850E0,-8.675399780E0,2.370173693E0
4.033600000E1,-2.670779705E0,-9.567268372E0,5.316277027E0
4.035600000E1,-1.741551876E0,-1.015452766E1,4.282374382E0
4.037600000E1,-2.166561127E0,-9.624058723E0,4.566230774E0
4.039600000E1,-2.773922205E0,-6.965652466E0,2.958505392E0
4.041600000E1,-2.491396666E0,-7.846028805E0,2.136461258E0
4.043600000E1,-1.831018448E0,-7.974396706E0,3.139392138E0
4.045600000E1,-2.381004810E0,-1.006174850E1,4.324205875E0
4.047600000E1,-3.474599600E0,-1.068294716E1,4.883807659E0
4.049600000E1,-3.464093685E0,-8.230192184E0,4.992629051E0
4.051600000E1,-2.522339344E0,-8.016304016E0,2.580920696E0
4.053600000E1,-1.454659581E0,-8.995446205E0,2.831134081E0
4.055600000E1,-1.708942890E0,-9.488269806E0,3.610369921E0
4.057600000E1,-2.405358553E0,-8.877172470E0,3.765006542E0
4.059600000E1,-2.690469742E0,-6.438927650E0,3.725856781E0
4.061600000E1,-1.846609473E0,-7.574028492E0,1.592517614E0
4.063600000E1,-2.136029959E0,-1.208393860E1,4.678203106E0
4.065600000E1,-1.517828107E0,-8.486947060E0,3.044735193E0
4.067600000E1,-1.487172723E0,-8.264075279E0,3.373382330E0
4.069600000E1,-2.887129545E0,-9.316835403E0,4.614239693E0
4.071600000E1,-2.350474119E0,-8.948060989E0,3.432212591E0
4.073600000E1,-1.871480465E0,-9.985630989E0,4.198088646E0
4.075600000E1,-2.452639341E0,-7.528164864E0,3.905852795E0
4.077600000E1,-2.837857008E0,-7.253214836E0,2.992666006E0
4.079600000E1,-3.050816298E0,-1.006772327E1,4.756713867E0
4.081600000E1,-2.084209919E0,-7.690414906E0,2.686217785E0
4.083600000E1,-2.076653957E0,-8.637446404E0,3.785127401E0
4.085600000E1,-3.627560377E0,-1.270450592E1,5.550229073E0
4.087600000E1,-2.964414358E0,-9.099987030E0,4.497096062E0
4.089600000E1,-2.284911156E0,-8.171898842E0,4.191279888E0
4.091600000E1,-1.347791910E0,-9.241532326E0,2.351498842E0
4.093600000E1,-1.699528813E0,-9.100696564E0,5.309764862E0
4.095600000E1,-2.302101612E0,-8.114026070E0,2.237362385E0
4.097600000E1,-3.012652874E0,-7.307860374E0,4.166706085E0
4.099600000E1,-1.536234736E0,-5.750795841E0,1.284843564E0
4.101600000E1,-3.194200277E0,-1.061536312E1,6.035763264E0
4.103600000E1,-2.530757427E0,-8.751860619E0,1.787731171E0
4.105600000E1,-1.050680995E0,-7.263481617E0,2.679341555E0
4.107600000E1,-3.519735098E0,-1.091646767E1,7.434829712E0
4.109600000E1,-3.262166739E0,-8.993626595E0,1.869411826E0
4.111600000E1,-1.663951039E0,-9.684334755E0,6.000032425E0
4.113600000E1,-2.261419296E0,-9.066496849E0,2.479808807E0
4.115600000E1,-2.837626934E0,-7.844582558E0,4.419658184E0
4.117600000E1,-2.732636452E0,-7.825505733E0,2.750047207E0
4.119600000E1,-3.067364931E0,-8.731232643E0,4.085609436E0
4.121600000E1,-2.055642366E0,-9.157160759E0,2.542489052E0
4.123600000E1,-2.416965723E0,-9.725851059E0,4.297381401E0
4.125600000E1,-2.458883524E0,-8.123401642E0,3.862010241E0
4.127600000E1,-2.884534121E0,-8.594274521E0,4.082008362E0
4.129600000E1,-1.669371486E0,-8.373701096E0,1.893861413E0
4.131600000E1,-1.871260166E0,-9.723418236E0,4.925313473E0
4.133600000E1,-2.663463116E0,-7.972146034E0,3.494097948E0
4.135600000E1,-3.119146824E0,-7.058853626E0,3.424589634E0
4.137600000E1,-2.163946629E0,-7.719547749E0,2.915984392E0
4.139600000E1,-2.165708780E0,-1.110968971E1,4.901936531E0
4.141600000E1,-2.335754395E0,-9.285125732E0,3.167864084E0
4.143600000E1,-2.332306862E0,-7.721042156E0,3.599404573E0
4.145600000E1,-2.730893612E0,-9.120433807E0,3.542365074E0
4.147600000E1,-2.160240173E0,-8.217665672E0,3.071866274E0
4.149600000E1,-1.168973804E0,-9.435424805E0,3.504728317E0
4.151600000E1,-2.360874414E0,-1.025167465E1,3.739886761E0
4.153600000E1,-2.447487116E0,-8.351799011E0,2.717926502E0
4.155600000E1,-2.698543072E0,-8.227894783E0,3.725598097E0
4.157600000E1,-2.157204390E0,-8.379408836E0,2.476159811E0
4.159600000E1,-2.755103827E0,-9.126285553E0,4.007002831E0
4.161600000E1,-2.957643509E0,-1.081747246E1,4.200186729E0
4.163600000E1,-3.121119738E0,-9.469335556E0,4.539684296E0
4.165800000E1,-2.323706865E0,-7.264841080E0,2.496855497E0
4.167800000E1,-2.424952984E0,-9.392960548E0,3.770015478E0
4.169800000E1,-1.993354917E0,-8.855759621E0,2.580470800E0
4.171800000E1,-1.724170089E0,-9.323892593E0,4.284213543E0
4.173800000E1,-2.601491690E0,-7.361557007E0,3.964979887E0
4.175800000E1,-2.911741972E0,-7.631364822E0,3.363623619E0
4.177800000E1,-2.214406729E0,-9.735197067E0,3.730779171E0
4.179800000E1,-2.860668659E0,-9.846480370E0,4.807441711E0
4.181800000E1,-1.691063046E0,-6.707365513E0,2.463566303E0
4.183800000E1,-2.493915558E0,-9.888982773E0,4.825321674E0
4.185800000E1,-3.643534422E0,-1.055384159E1,5.008871078E0
4.187800000E1,-2.180447340E0,-8.301185608E0,3.779601812E0
4.189800000E1,-1.878279924E0,-8.537100792E0,4.045789242E0
4.191800000E1,-2.515559196E0,-9.773419380E0,3.508405685E0
4.193800000E1,-1.726410985E0,-7.291224957E0,2.656002998E0
4.195800000E1,-2.182669163E0,-7.411529064E0,3.090014219E0
4.197800000E1,-1.989064455E0,-8.527083397E0,3.012872934E0
4.199800000E1,-2.050365686E0,-8.420397758E0,2.772016287E0
4.201800000E1,-2.688180923E0,-1.097663021E1,3.865352631E0
4.203800000E1,-2.829132318E0,-8.280815125E0,5.184796810E0
4.205800000E1,-2.548378706E0,-8.784680367E0,2.860649586E0
4.207800000E1,-2.883442402E0,-1.142205620E1,5.055768490E0
4.209800000E1,-3.067250013E0,-8.516146660E0,3.975409269E0
4.211800000E1,-2.429377079E0,-7.074234009E0,1.816557527E0
4.213801406E1,-2.532126904E0,-7.298446178E0,3.900489807E0
4.216000156E1,-2.420461416E0,-7.742292881E0,2.222058535E0
4.218200000E1,-2.418201208E0,-1.039963627E1,5.361891270E0
4.220202188E1,-2.284126043E0,-1.003285408E1,2.298175097E0
4.222400000E1,-1.517847300E0,-8.095753670E0,4.268708706E0
4.224400000E1,-2.330975533E0,-8.492137909E0,3.623356104E0
4.226400000E1,-2.193175077E0,-9.194242477E0,4.050730705E0
4.228400000E1,-2.605944872E0,-9.880248070E0,5.411010742E0
4.230400625E1,-2.409285069E0,-9.866496086E0,3.443570852E0
4.232600000E1,-2.573613644E0,-6.886106968E0,3.570386648E0
4.234600000E1,-2.250645161E0,-7.292584896E0,2.054263353E0
4.236600000E1,-2.005105495E0,-9.334916115E0,4.094793797E0
4.238600000E1,-2.251641273E0,-8.070738792E0,2.833106756E0
