"Time (s)","Acceleration x (m/s^2)","Acceleration y (m/s^2)","Acceleration z (m/s^2)"
-1.495101800E-2,1.815000057E0,9.037050247E0,3.211050034E0
5.050863000E-3,1.831950068E0,9.061050415E0,3.232950211E0
2.505275900E-2,1.813050032E0,9.015000343E0,3.229950190E0
4.505464000E-2,1.840950131E0,9.070950508E0,3.205950260E0
6.522565700E-2,1.851000071E0,9.065999985E0,3.192000151E0
8.525404200E-2,1.852950096E0,9.150000572E0,3.190050125E0
1.052823080E-1,1.864950061E0,9.157050133E0,3.156000137E0
1.253105810E-1,1.872000098E0,9.111000061E0,3.205950260E0
1.453388700E-1,1.834050059E0,9.031949997E0,3.253950119E0
1.653671490E-1,1.705050111E0,9.058950424E0,3.223050117E0
1.853956660E-1,1.674000025E0,9.049050331E0,3.235050201E0
2.054239730E-1,1.630950093E0,9.019950867E0,3.277950048E0
2.254522620E-1,1.717050076E0,8.934000015E0,3.360000134E0
2.454805450E-1,1.717050076E0,8.934000015E0,3.348000050E0
2.655089280E-1,1.645050049E0,8.920050621E0,3.349950075E0
2.855372650E-1,1.735950112E0,9.019950867E0,3.357000113E0
3.055655420E-1,1.744950056E0,9.007950783E0,3.357000113E0
3.255938560E-1,1.759950042E0,8.983950615E0,3.348000050E0
3.456221540E-1,1.755000114E0,8.914950371E0,3.331050158E0
3.656504520E-1,1.840950131E0,8.986950874E0,3.345000267E0
3.856789880E-1,1.966050148E0,9.111000061E0,3.292050123E0
4.057073200E-1,1.779000044E0,9.079950333E0,3.253950119E0
4.257356130E-1,1.860000134E0,9.159000397E0,3.345000267E0
4.457639260E-1,1.654050112E0,9.051000595E0,3.349950075E0
4.657923210E-1,1.603950024E0,9.001049995E0,3.418950081E0
4.858206440E-1,1.711950064E0,9.058950424E0,3.405000210E0
5.058489570E-1,1.647000074E0,9.007950783E0,3.397950172E0
5.258772870E-1,1.615950108E0,9.010950089E0,3.373950243E0
5.459058290E-1,1.602000117E0,8.925000191E0,3.382950068E0
5.659341230E-1,1.522950053E0,8.818950653E0,3.441000223E0
5.859624060E-1,1.597050071E0,8.789999962E0,3.481950283E0
6.059907330E-1,1.615950108E0,8.707050323E0,3.585000277E0
6.260190790E-1,1.540050030E0,8.512949944E0,3.637050152E0
6.460473150E-1,1.492050052E0,8.403000832E0,3.628050089E0
6.660756960E-1,1.441050053E0,8.307000160E0,3.685050249E0
6.861039950E-1,1.564050078E0,8.388000488E0,3.664050102E0
7.061325410E-1,1.867950082E0,8.379000664E0,3.300000191E0
7.261608360E-1,1.960950136E0,9.952050209E0,2.976000071E0
7.461891510E-1,1.852950096E0,9.601950645E0,2.980950117E0
7.662174740E-1,1.858050108E0,9.631050110E0,2.401950121E0
7.862457670E-1,1.762050033E0,9.394050598E0,2.437950134E0
8.062741530E-1,2.040000200E0,9.196950912E0,2.304000139E0
8.263024760E-1,2.287050009E0,9.046950340E0,2.125950098E0
8.463307930E-1,2.563950062E0,9.130050659E0,2.092950106E0
8.663593120E-1,3.013950109E0,9.268950462E0,2.100000143E0
8.863876130E-1,3.333000183E0,9.693000793E0,2.116950035E0
9.064159500E-1,3.390000105E0,9.672000885E0,2.064000130E0
9.264442570E-1,3.342000246E0,9.549000740E0,2.055000067E0
9.464726300E-1,2.959050179E0,9.520950317E0,2.040000200E0
9.665009720E-1,2.586000204E0,9.384000778E0,2.325000048E0
9.865292510E-1,2.406000137E0,9.298050880E0,2.470950127E0
1.006557543E0,2.406000137E0,9.367050171E0,2.586000204E0
1.026585856E0,2.266950130E0,9.439050674E0,2.707950115E0
1.046614393E0,2.157000065E0,9.259950638E0,2.871000051E0
1.066642710E0,2.197950125E0,9.019950867E0,3.060000181E0
1.086671012E0,2.180999994E0,8.902950287E0,3.175050259E0
1.106699399E0,2.263050079E0,8.824049950E0,3.172950268E0
1.126727701E0,2.322000027E0,8.776050568E0,3.052950144E0
1.146756038E0,2.233950138E0,8.605950356E0,3.121950150E0
1.166784360E0,2.101950169E0,8.434050560E0,3.115050077E0
1.186812911E0,2.290950060E0,8.173049927E0,3.132000208E0
1.206841223E0,2.197950125E0,8.079000473E0,3.301950216E0
1.226869526E0,2.326950073E0,8.046000481E0,3.345000267E0
1.246897937E0,2.422950029E0,8.275950432E0,3.253950119E0
1.266926269E0,2.542950153E0,8.515049934E0,3.240000248E0
1.286954596E0,2.670000076E0,8.521950722E0,3.481950283E0
1.306982913E0,2.530950069E0,8.272950172E0,3.496050119E0
1.327011444E0,2.482950211E0,8.589000702E0,3.964950085E0
1.347039772E0,2.883000135E0,8.656050682E0,3.781050205E0
1.367068082E0,2.437050104E0,8.806950569E0,4.071000099E0
1.387096393E0,2.167050123E0,8.800050735E0,4.344000340E0
1.407124745E0,1.924950123E0,8.947950363E0,4.348050117E0
1.427153024E0,1.084950089E0,9.724050522E0,3.895950079E0
1.447181317E0,8.359500170E-1,1.058400059E1,3.321000099E0
1.467209834E0,9.790500402E-1,1.151295090E1,3.340050220E0
1.487238137E0,1.864950061E0,1.217805099E1,3.391050100E0
1.507266421E0,2.494950056E0,1.285605049E1,2.476050138E0
1.527294792E0,2.064000130E0,1.272195053E1,2.650950193E0
1.547323086E0,-8.539500237E-1,1.205895042E1,2.172000170E0
1.567351399E0,-2.388000011E0,1.077795029E1,9.720000625E-1
1.587379944E0,-2.032050133E0,9.054000854E0,3.000000026E-3
1.607408267E0,-1.725000024E0,8.529000282E0,7.810500264E-1
1.627436594E0,6.079500318E-1,8.440950394E0,1.522950053E0
1.647464874E0,5.200500488E-1,8.182050705E0,2.044950008E0
1.667493259E0,7.395000011E-2,8.704050064E0,3.312000275E0
1.687521586E0,1.319999993E-1,8.869050026E0,2.896950245E0
1.707549923E0,1.489500105E-1,9.051000595E0,2.554950237E0
1.727578440E0,-4.200000316E-2,9.061050415E0,2.565000057E0
1.747606748E0,-3.649500310E-1,8.653950691E0,2.125950098E0
1.767635017E0,-1.050000079E-3,9.042000771E0,1.614000082E0
1.787663374E0,-9.900000691E-2,8.692049980E0,1.873050094E0
1.807691697E0,1.720500141E-1,8.095950127E0,1.830000043E0
1.827720214E0,7.039500475E-1,7.714950562E0,1.771950126E0
1.847748536E0,1.140000105E0,7.620000362E0,2.007000208E0
1.867776824E0,1.546950102E0,7.641000271E0,2.091000080E0
1.887805230E0,1.884000063E0,7.846950531E0,2.124000072E0
1.907833542E0,1.960950136E0,8.245050430E0,2.146050215E0
1.927861870E0,2.180999994E0,8.548950195E0,2.011950016E0
1.947890455E0,2.109000206E0,8.616000175E0,1.867950082E0
1.967918743E0,2.107050180E0,9.286050797E0,1.755000114E0
1.987947032E0,2.479950190E0,9.264000893E0,1.717050076E0
2.007975344E0,2.691000223E0,1.021005058E1,1.854000092E0
2.028003765E0,2.964000225E0,1.088505077E1,1.899000049E0
2.048032106E0,3.016950130E0,1.147200012E1,1.843950033E0
2.068060625E0,2.428050041E0,1.171395016E1,1.960950136E0
2.088088941E0,2.052000046E0,1.203900051E1,2.004000187E0
2.108117258E0,1.896000147E0,1.323405075E1,1.561050057E0
2.128145640E0,1.729050040E0,1.487895107E1,1.648050070E0
2.148173967E0,-1.569000125E0,1.343805027E1,1.055999994E0
2.168202491E0,-2.320950031E0,9.961050034E0,-2.295000106E-2
2.188230749E0,-1.747050047E0,7.383000374E0,-4.870500267E-1
2.208259042E0,-1.372950077E0,6.837000370E0,-7.930500507E-1
2.228287399E0,-1.207950115E0,7.723050594E0,-1.381950021E0
2.248315682E0,-1.275000095E0,8.521950722E0,-1.804050088E0
2.268344000E0,-1.696050048E0,9.801000595E0,-2.296950102E0
2.288372521E0,-1.692000031E0,1.001400089E1,-2.580000162E0
2.308400853E0,-3.439500034E-1,9.916050911E0,-1.087950110E0
2.328429250E0,3.469500244E-1,9.742950439E0,-5.400000140E-2
2.348457586E0,6.700500250E-1,8.860050201E0,1.285950065E0
2.368485879E0,9.340500236E-1,8.740050316E0,6.670950413E0
2.388514437E0,-1.095000096E-2,7.816050529E0,2.316000223E0
2.408542738E0,-8.680500388E-1,7.873050213E0,-2.020500153E-1
2.428571045E0,-1.408950090E0,7.768050194E0,5.770500302E-1
2.448599432E0,-1.432950020E0,7.608000278E0,2.044950008E0
2.468627731E0,-9.349500537E-1,7.681950569E0,7.710000277E-1
2.488656252E0,-4.969500303E-1,7.966950417E0,6.300000548E-1
2.508684531E0,2.299500108E-1,8.428950310E0,1.072950006E0
2.528712947E0,1.175999999E0,9.079950333E0,8.719500303E-1
2.548741273E0,2.044950008E0,9.751049995E0,9.630000591E-1
2.568769802E0,2.524050236E0,1.037505054E1,1.276950002E0
2.588798095E0,2.434950113E0,1.119405079E1,1.699950099E0
2.608826416E0,2.040000200E0,1.169505024E1,2.257950068E0
2.628854827E0,3.660000265E-1,1.212795067E1,2.349000216E0
2.648883130E0,-7.219500542E-1,1.216605091E1,2.737050056E0
2.668911442E0,-8.029500246E-1,1.203900051E1,3.024000168E0
2.688940003E0,-5.539500117E-1,1.234605026E1,3.003000259E0
2.708968282E0,-8.700000644E-1,1.232895088E1,3.058050156E0
2.728996678E0,-1.402050018E0,1.224795055E1,3.046050072E0
2.749024975E0,-2.050950050E0,1.193205070E1,2.304000139E0
2.769053541E0,-4.174050331E0,1.142400074E1,2.701050043E0
2.789081815E0,-3.490050077E0,8.968050003E0,1.710000038E0
2.809110216E0,-3.870000124E0,7.945050240E0,1.317000031E0
2.829138509E0,-4.189050198E0,7.861050606E0,1.432050109E0
2.849167043E0,-2.223000050E0,8.290050507E0,2.404050112E0
2.869195315E0,-1.597950101E0,8.407050133E0,2.656050205E0
2.889223690E0,-1.038000107E0,8.992050171E0,1.711950064E0
2.909252028E0,-2.070000172E-1,9.660000801E0,1.339050055E0
2.929280560E0,7.180500627E-1,9.552000046E0,9.870000482E-1
2.949308849E0,1.341000080E0,8.977050781E0,3.499500155E-1
2.969337142E0,1.990050077E0,8.209050179E0,1.080000028E-1
2.989365466E0,2.485050201E0,7.597950459E0,1.780500114E-1
3.009393865E0,2.727000237E0,7.146000385E0,4.000500143E-1
3.029422396E0,2.002050161E0,7.146000385E0,2.068950176E0
3.049450728E0,1.645050049E0,7.435050488E0,7.690500617E-1
3.069479017E0,1.468050122E0,7.750950336E0,1.477950096E0
3.089507409E0,1.345950007E0,8.008049965E0,1.879950047E0
3.109535717E0,1.578000069E0,8.215950012E0,1.863000035E0
3.129564287E0,1.872000098E0,8.635050774E0,2.386950016E0
3.149592618E0,1.915050149E0,9.276000023E0,2.668050051E0
3.169621010E0,1.480050087E0,9.921000481E0,2.947950125E0
3.189649328E0,6.700500250E-1,1.017705059E1,3.235050201E0
3.209677883E0,4.450500309E-1,1.033200073E1,3.060000181E0
3.229706181E0,7.470000386E-1,1.037805080E1,2.802000046E0
3.249734461E0,1.393950105E0,1.070595074E1,2.802000046E0
3.269762855E0,1.792950034E0,1.188600063E1,2.839950085E0
3.289791406E0,1.792950034E0,1.330095100E1,2.872950077E0
3.309819714E0,7.660500407E-1,1.355505085E1,2.293950081E0
3.329848095E0,-9.000000358E-2,1.342800045E1,1.731000066E0
3.349876384E0,-1.534050107E0,1.077000046E1,1.806000113E0
3.369904909E0,-2.305050135E0,8.371050835E0,1.212000012E0
3.389933209E0,-2.620950222E0,7.416000366E0,6.180000305E-1
3.409961629E0,-3.265050173E0,7.918950558E0,3.880500197E-1
3.429989948E0,-3.025050163E0,9.079950333E0,-1.950000077E-1
3.450018484E0,-1.804050088E0,9.958950043E0,-7.669500113E-1
3.470046763E0,-4.489500225E-1,1.004295063E1,3.000000026E-3
3.490075135E0,-8.700000495E-2,9.745950699E0,9.720000625E-1
3.510103423E0,-1.069500074E-1,8.982000351E0,1.621050119E0
3.530132003E0,-8.230500221E-1,8.134050369E0,2.356050014E0
3.550160301E0,-1.440000057E0,7.284000397E0,4.435050011E0
3.570188687E0,-1.986000061E0,6.976050377E0,2.217000008E0
3.590216986E0,-2.338050127E0,7.063950539E0,1.546950102E0
3.610245523E0,-1.941000104E0,7.605000496E0,1.783950090E0
3.630273839E0,-1.249050021E0,8.355000496E0,1.260000110E0
3.650302143E0,-4.950000346E-1,8.982000351E0,4.600500166E-1
3.670330515E0,4.120500088E-1,9.423000336E0,-1.300500035E-1
3.690359058E0,1.341000080E0,9.784050941E0,-5.299500227E-1
3.710387465E0,2.200050116E0,9.994950294E0,-6.210000515E-1
3.730415775E0,2.725050211E0,9.717000008E0,-5.130000114E-1
3.750444082E0,3.213000059E0,1.009005070E1,-2.310000062E-1
3.770472648E0,3.285000086E0,1.047105026E1,3.259500265E-1
3.790500941E0,1.240050077E0,1.081095028E1,1.078050017E0
3.810529317E0,3.070500195E-1,1.162800026E1,9.889500737E-1
3.830557635E0,3.105000220E-2,1.203705025E1,6.780000329E-1
3.850586134E0,9.240000248E-1,1.209000015E1,9.769500494E-1
3.870614498E0,1.915050149E0,1.229100037E1,1.221000075E0
3.890642780E0,1.771950126E0,1.343295097E1,1.267050028E0
3.910671306E0,3.229500055E-1,1.353300095E1,1.945050120E0
3.930699609E0,-1.870950103E0,1.312605095E1,2.542950153E0
3.950727934E0,-4.966950417E0,1.150800037E1,2.959950209E0
3.970756323E0,-5.005050182E0,9.456000328E0,2.911950111E0
3.990784874E0,-4.993050098E0,8.340000153E0,2.386950016E0
4.010813249E0,-5.155950069E0,7.798950195E0,2.248950005E0
4.030841572E0,-4.021049976E0,8.050950050E0,2.895000219E0
4.050869866E0,-2.320950031E0,7.881000519E0,3.493950129E0
4.070898393E0,-1.131000042E0,8.071949959E0,2.457000017E0
4.090926694E0,-3.820500076E-1,8.398050308E0,1.132950068E0
4.110955067E0,2.989500165E-1,8.464950562E0,3.430500031E-1
4.130983609E0,8.550000191E-1,8.263950348E0,-2.689500153E-1
4.151011944E0,1.489050031E0,7.969050407E0,-6.190500259E-1
4.171040346E0,2.002050161E0,7.632000446E0,-7.000500560E-1
4.191068673E0,2.260050058E0,7.432950497E0,-4.819500148E-1
4.211097228E0,1.513050079E0,7.531050205E0,6.000000238E-2
4.231125560E0,1.522950053E0,7.737000465E0,3.550500274E-1
4.251153958E0,1.434000015E0,8.137050629E0,3.090000153E-1
4.271182489E0,1.402950048E0,8.623050690E0,4.069500268E-1
4.291210806E0,1.504050016E0,9.111000061E0,5.320500135E-1
4.311239095E0,1.072950006E0,9.577950478E0,4.740000367E-1
4.331267491E0,1.863000035E0,9.774000168E0,6.540000439E-1
4.351295779E0,1.000950098E0,9.765000343E0,1.429950118E0
4.371324283E0,1.390500069E-1,1.021695042E1,1.693050027E0
4.391352657E0,1.319999993E-1,1.081800079E1,1.047000051E0
4.411381006E0,1.680000126E-1,1.166595078E1,9.940500259E-1
4.431409503E0,2.080500126E-1,1.231005096E1,9.390000701E-1
4.451437829E0,7.710000277E-1,1.420605087E1,7.860000134E-1
4.471466216E0,9.600000083E-2,1.535805035E1,8.479500413E-1
4.491494743E0,-1.759050131E0,1.471800041E1,5.970000029E-1
4.511523036E0,-4.090950012E0,1.271205044E1,5.320500135E-1
4.531551442E0,-4.033050060E0,9.220950127E0,-4.650000334E-1
4.551579736E0,-3.613950253E0,7.960050583E0,-1.311000109E0
4.571608257E0,-4.015950203E0,7.987950325E0,-2.115000010E0
4.591636691E0,-4.264950275E0,9.073050499E0,-3.148950100E0
4.611664986E0,-2.926950216E0,9.664050102E0,-3.391050100E0
4.631693527E0,-1.404000044E0,9.232950211E0,-6.859500408E-1
4.651721830E0,-8.419500589E-1,8.794950485E0,4.000500143E-1
4.671750154E0,-1.620000005E-1,8.089050293E0,1.261950016E0
4.691778520E0,8.205000311E-2,7.228950500E0,2.148000002E0
4.711807076E0,-1.009050012E0,6.286050320E0,2.872950077E0
4.731835397E0,-1.792050123E0,6.063000202E0,4.051050186E0
4.751863779E0,-1.771050096E0,6.171000481E0,2.715000153E0
4.771892092E0,-2.182049990E0,6.628050327E0,1.042050004E0
4.791920642E0,-2.362050056E0,7.090950489E0,2.040000111E-1
4.811949010E0,-1.974000096E0,7.609950542E0,3.670500219E-1
4.831977328E0,-1.404000044E0,8.380949974E0,1.168950081E0
4.852005897E0,-7.990500331E-1,9.166050911E0,8.310000300E-1
4.872034200E0,4.930500090E-1,1.037505054E1,6.130500436E-1
4.892062587E0,1.468050122E0,1.146705055E1,9.439500570E-1
4.912091147E0,1.864950061E0,1.217295074E1,8.599500656E-1
4.932119421E0,2.791950226E0,1.311900043E1,8.650500178E-1
4.952147803E0,3.180000067E0,1.308600044E1,1.570950031E0
4.972176115E0,-2.670000196E-1,1.298295021E1,1.329000115E0
4.992204652E0,4.380000234E-1,1.291995049E1,3.400500119E-1
5.012232945E0,1.390500069E-1,1.326300049E1,2.659500241E-1
5.032261321E0,-2.860500216E-1,1.307595062E1,2.020500153E-1
5.052289629E0,-1.183950067E0,1.238700104E1,2.710500062E-1
5.072318160E0,-2.920050144E0,1.104795074E1,3.430500031E-1
5.092346552E0,-2.251950026E0,9.166050911E0,2.610000074E-1
5.112374865E0,-1.597950101E0,8.857050896E0,3.670500219E-1
5.132403396E0,-1.870950103E0,8.872050285E0,1.018050075E0
5.152431690E0,-1.741950035E0,8.833950043E0,1.663950086E0
5.172460058E0,-1.693950057E0,8.800050735E0,1.960950136E0
5.192488603E0,-1.332000017E0,8.770950317E0,1.413000107E0
5.212516863E0,-9.349500537E-1,8.746950150E0,6.640500426E-1
5.232545255E0,-2.290500104E-1,8.695050240E0,1.660500020E-1
5.252573797E0,3.930000067E-1,8.407050133E0,-3.000000119E-2
5.272602109E0,1.093950033E0,7.864050388E0,-6.105000153E-2
5.292630429E0,1.585050106E0,7.372950554E0,1.500000060E-2
5.312658798E0,1.678050041E0,7.203000546E0,3.979500234E-1
5.332687340E0,6.850500107E-1,7.258050442E0,8.340000510E-1
5.352715664E0,2.040000111E-1,7.414050579E0,1.051050067E0
5.372744072E0,-3.769500256E-1,7.581000328E0,1.276950002E0
5.392772360E0,-5.970000029E-1,7.950000286E0,1.528050065E0
5.412800907E0,-3.220500052E-1,8.386050224E0,1.684050083E0
5.432829308E0,4.890000224E-1,9.018000603E0,1.674000025E0
5.452857611E0,9.340500236E-1,1.013100052E1,1.767000079E0
5.472886176E0,1.330950022E0,1.136700058E1,1.686000109E0
5.492914568E0,8.719500303E-1,1.215195084E1,1.849050045E0
5.512942866E0,1.543950081E0,1.177395058E1,1.594950080E0
5.532971402E0,8.640000224E-1,1.207500076E1,1.003950000E0
5.552999667E0,6.990000606E-1,1.263300037E1,6.760500073E-1
5.573028039E0,5.290500522E-1,1.424700069E1,6.730500460E-1
5.593056566E0,-1.480950117E0,1.470705032E1,4.650000334E-1
5.613084922E0,-4.090950012E0,1.352895069E1,-5.640000105E-1
5.633113237E0,-3.220950127E0,8.853000641E0,-1.588050127E0
5.653141520E0,-3.283950090E0,7.696050167E0,-2.218050003E0
5.673170061E0,-3.991950274E0,7.974000454E0,-2.472000122E0
5.693198434E0,-4.261050224E0,8.910000801E0,-3.037050247E0
5.713226789E0,-3.490050077E0,9.952050209E0,-3.796050072E0
5.733255350E0,-1.354050040E0,1.017705059E1,-2.146050215E0
5.753283738E0,-1.054949999E0,9.868050575E0,-2.329500169E-1
5.773312024E0,-1.549500078E-1,9.327000618E0,6.469500065E-1
5.793340575E0,2.629500031E-1,8.383049965E0,1.593000054E0
5.813368882E0,-9.760500193E-1,7.462050438E0,2.872950077E0
5.833397293E0,-2.829000235E0,7.066950321E0,3.934050083E0
5.853425820E0,-2.961000204E0,6.628050327E0,3.304050207E0
5.873454118E0,-3.229050159E0,7.018950462E0,1.774950027E0
5.893482504E0,-3.226050138E0,6.346050262E0,1.175999999E0
5.913511042E0,-2.071950197E0,7.003950119E0,9.769500494E-1
5.933539373E0,-9.660000205E-1,7.612050533E0,6.280500293E-1
5.953567756E0,6.195000187E-2,8.319000244E0,-3.405000269E-2
5.973596064E0,6.510000229E-1,9.075000763E0,-7.020000219E-1
5.993624624E0,1.003050089E0,9.790950775E0,-1.180950046E0
6.013652994E0,2.473050117E0,1.047405052E1,-1.138050079E0
6.033681542E0,3.334950209E0,1.100700092E1,-6.349500418E-1
6.053709830E0,3.223050117E0,1.218105030E1,1.027950048E0
6.073738244E0,4.650000334E-1,1.255905056E1,2.325000048E0
6.093766538E0,-1.440000057E0,1.329600048E1,1.942050099E0
6.113795042E0,-2.202000141E0,1.402695084E1,1.528050065E0
6.133823431E0,-2.565000057E0,1.438095093E1,1.885050058E0
6.153851693E0,-2.625000238E0,1.418895054E1,1.791000128E0
6.173880268E0,-3.679050207E0,1.193205070E1,1.674000025E0
6.193908668E0,-2.865000248E0,9.424950600E0,1.497000098E0
6.213936975E0,-3.025050163E0,7.912050247E0,1.669050097E0
6.233965494E0,-4.143000126E0,7.150050163E0,1.947000146E0
6.253993812E0,-4.561950207E0,7.287000179E0,2.281949997E0
6.274022169E0,-3.841950178E0,7.882950306E0,2.967000246E0
6.294050515E0,-2.688000202E0,8.269050598E0,2.385000229E0
6.314079152E0,-1.761000037E0,8.881050110E0,1.059000015E0
6.334107448E0,-9.690000415E-1,8.917050362E0,3.900000080E-2
6.354135751E0,1.960500032E-1,8.673000336E0,-1.300500035E-1
6.374164294E0,8.170500398E-1,8.034000397E0,1.939500123E-1
6.394192679E0,8.740500212E-1,7.191000462E0,4.909500182E-1
6.414221006E0,5.440500379E-1,6.877050400E0,8.100000620E-1
6.434249546E0,-5.380499959E-1,6.955950260E0,1.068000078E0
6.454277928E0,-8.010000587E-1,7.123950481E0,1.312050104E0
6.474306231E0,-8.509500623E-1,7.545000553E0,1.518000126E0
6.494334757E0,-1.057050109E0,8.521950722E0,1.903950095E0
6.514363163E0,-8.320500255E-1,9.259950638E0,2.329950094E0
6.534391447E0,-7.050000429E-1,9.559050560E0,2.797050238E0
6.554419983E0,-2.959500253E-1,1.004505062E1,2.863950253E0
6.574448284E0,-7.549500465E-1,1.031595039E1,2.995950222E0
6.594476902E0,-1.387950063E0,1.090695095E1,3.115050077E0
6.614505225E0,-2.106000185E0,1.115595055E1,3.229950190E0
6.634533650E0,-2.589000225E0,1.137105083E1,2.956950188E0
6.654561957E0,-1.890000105E0,1.179495049E1,2.059050083E0
6.674590499E0,-1.207950115E0,1.249905014E1,1.650000095E0
6.694618783E0,-3.480000198E-1,1.304700089E1,1.168950081E0
6.714647154E0,-1.810950041E0,1.333695030E1,1.023000002E0
6.734675691E0,-2.803050041E0,1.333695030E1,7.710000277E-1
6.754703955E0,-4.761000156E0,1.221195030E1,3.139500022E-1
6.774732336E0,-4.663050175E0,1.073895073E1,-2.160000056E-1
6.794760825E0,-3.715050220E0,9.886950493E0,6.495000422E-2
6.814789123E0,-4.105050087E0,9.760050774E0,-2.700000070E-2
6.834817505E0,-3.376950264E0,9.607050896E0,-1.609500051E-1
6.854846060E0,-3.552000284E0,8.266050339E0,1.300500035E-1
6.874874464E0,-3.085050106E0,7.360950470E0,1.300500035E-1
6.894902788E0,-2.424000025E0,6.706950188E0,5.389500260E-1
6.914931336E0,-2.332950115E0,6.478050232E0,2.140500098E-1
6.934959758E0,-1.882950068E0,6.565950394E0,-7.304999977E-2
6.954988092E0,-1.215000033E0,6.625950336E0,-2.599500120E-1
6.975016643E0,-1.416000009E0,6.360000134E0,-1.879500151E-1
6.995044928E0,-1.866000056E0,5.946000099E0,3.760500252E-1
7.015073304E0,-1.639050126E0,5.946000099E0,7.230000496E-1
7.035101859E0,-2.785950184E0,5.688000202E0,1.128000021E0
7.055130157E0,-2.671050072E0,6.355950356E0,1.449000120E0
7.075158534E0,-3.295950174E0,6.447000504E0,1.281000018E0
7.095187079E0,-3.556950092E0,7.066950321E0,8.170500398E-1
7.115215373E0,-3.439050198E0,7.801950455E0,5.320500135E-1
7.135243726E0,-4.324950218E0,9.388950348E0,7.230000496E-1
7.155272291E0,-3.754950285E0,1.081800079E1,2.730000019E-1
7.175300654E0,-1.464000106E0,1.271700096E1,7.570500374E-1
7.195328942E0,-4.950000346E-1,1.364295101E1,1.135050058E0
7.215357454E0,1.662000060E0,1.550895119E1,1.351050019E0
7.235385846E0,3.709050179E0,1.503705025E1,1.726950049E0
7.255414169E0,5.236050129E0,1.365495110E1,2.578950167E0
7.275442705E0,-1.321050048E0,1.339200020E1,2.983950138E0
7.295471131E0,-3.340950251E0,1.297800064E1,2.095050097E0
7.315499423E0,-3.667050123E0,1.256400013E1,2.100000143E0
7.335527975E0,-5.083950043E0,1.132395077E1,2.328000069E0
7.355556283E0,-6.031950474E0,9.351000786E0,2.263050079E0
7.375584683E0,-6.403050423E0,8.488950729E0,2.059050083E0
7.395613230E0,-6.028050423E0,8.038949966E0,2.718000174E0
7.415641489E0,-4.876049995E0,7.492950439E0,3.754950285E0
7.435669860E0,-4.110000134E0,7.012050152E0,4.117949963E0
7.455698378E0,-3.115950108E0,7.264950275E0,3.454950094E0
7.475726767E0,-2.475000143E0,7.524000168E0,1.983000040E0
7.495755067E0,-1.500000119E0,7.488000393E0,1.219050050E0
7.515783609E0,-1.255950093E0,7.273050308E0,8.050500154E-1
7.535811980E0,-4.350000322E-1,7.015950203E0,4.219500124E-1
7.555840255E0,3.949500322E-1,6.676050186E0,3.360000253E-1
7.575868806E0,9.030000567E-1,6.528000355E0,7.350000143E-1
7.595897202E0,-3.600000143E-1,6.520950317E0,1.687950134E0
7.615925765E0,-6.480000019E-1,6.886950493E0,1.959000111E0
7.635954099E0,-9.349500537E-1,7.399050236E0,1.879950047E0
7.655982495E0,-7.429500222E-1,7.921050549E0,2.128950119E0
7.676010812E0,-8.110500574E-1,8.680050850E0,2.505000114E0
7.696039343E0,-4.590000212E-1,9.475050926E0,2.683950186E0
7.716067759E0,-2.100000083E-1,1.003095055E1,2.542950153E0
7.736096301E0,-5.590500236E-1,1.105500031E1,2.670000076E0
7.756124594E0,-8.490000367E-1,1.198695087E1,3.160950184E0
7.776152961E0,-1.021050096E0,1.201800060E1,3.283050060E0
7.796181462E0,-7.150500417E-1,1.210200024E1,3.139050245E0
7.816209724E0,-1.021050096E0,1.249695015E1,2.725050211E0
7.836238087E0,-1.020000055E-1,1.429500103E1,2.542950153E0
7.856266608E0,-1.500000119E0,1.371495056E1,1.945050120E0
7.876294960E0,-2.617950201E0,1.346895027E1,1.564050078E0
7.896323251E0,-4.075950146E0,1.159605026E1,9.820500612E-1
7.916351811E0,-3.466050148E0,9.355050087E0,9.510000348E-1
7.936380215E0,-3.937050104E0,8.275950432E0,1.006049991E0
7.956408520E0,-4.153050423E0,8.296950340E0,4.890000224E-1
7.976437100E0,-2.697000027E0,8.254050255E0,4.360500276E-1
7.996465535E0,-1.926000118E0,7.687050343E0,1.192950010E0
8.016494090E0,-1.275000095E0,7.465950489E0,1.486950040E0
8.036522451E0,-8.989500403E-1,7.183950424E0,1.887000084E0
8.056550860E0,-6.720000505E-1,6.798000336E0,2.428050041E0
8.076579174E0,-6.139500141E-1,6.259950161E0,2.976000071E0
8.096607715E0,-9.180000424E-1,5.881050110E0,3.513000250E0
8.116636121E0,-1.057050109E0,5.953050137E0,3.517950058E0
8.136664429E0,-1.153050065E0,6.597000122E0,2.488050222E0
8.156692936E0,-8.230500221E-1,7.522050381E0,2.227050066E0
8.176721285E0,-3.079500198E-1,8.391000748E0,1.959000111E0
8.196749801E0,1.720500141E-1,9.348000526E0,1.245000005E0
8.216778181E0,6.469500065E-1,9.982950211E0,3.640500307E-1
8.236806501E0,6.300000548E-1,1.050900078E1,-3.900000080E-2
8.256835012E0,1.224000096E0,1.071105003E1,3.195000067E-2
8.276863394E0,1.738050103E0,1.058595085E1,4.290000200E-1
8.296891916E0,8.449500203E-1,1.068705082E1,1.557000041E0
8.316920243E0,2.230500132E-1,1.160595036E1,1.975950122E0
8.336948652E0,-4.369500279E-1,1.260000038E1,2.076000214E0
8.356976975E0,-5.970000029E-1,1.302600098E1,2.341950178E0
8.377005532E0,-1.060050011E0,1.296600056E1,2.502000093E0
8.397033914E0,-8.610000610E-1,1.420605087E1,3.228000164E0
8.417062211E0,-2.245050192E0,1.380195045E1,3.201000214E0
8.437090743E0,-4.384950161E0,1.187895012E1,2.823000193E0
8.457119140E0,-3.147000074E0,9.130050659E0,2.137950182E0
8.477147633E0,-3.052050114E0,7.629000187E0,1.578000069E0
8.497176022E0,-3.841950178E0,7.228950500E0,1.590000033E0
8.517204346E0,-3.379950047E0,7.653000355E0,1.566000104E0
8.537232892E0,-2.070000172E0,8.187000275E0,2.004000187E0
8.557261270E0,-7.150500417E-1,8.632050514E0,2.172000170E0
8.577289586E0,3.405000269E-2,9.358050346E0,1.248000026E0
8.597318109E0,3.949500322E-1,9.523050308E0,7.039500475E-1
8.617346492E0,6.630000472E-1,8.137050629E0,3.570000231E-1
8.637375065E0,1.990500093E-1,8.188950539E0,2.020500153E-1
8.657403363E0,3.300000131E-1,8.134050369E0,-1.995000057E-2
8.677431735E0,6.109500527E-1,8.424000740E0,-4.849500358E-1
8.697460004E0,7.729500532E-1,7.804050446E0,-7.050000429E-1
8.717488532E0,-4.320000112E-1,8.053050041E0,3.720000088E-1
8.737516928E0,-3.990000188E-1,8.070000648E0,9.319500327E-1
8.757545456E0,9.795000404E-2,8.065050125E0,8.260500431E-1
8.777573835E0,1.489500105E-1,8.587050438E0,1.324050069E0
8.797602135E0,6.079500318E-1,8.809950829E0,1.846050143E0
8.817630653E0,4.890000224E-1,9.430050850E0,2.067000151E0
8.837659039E0,6.229500175E-1,9.727050781E0,2.695950031E0
8.857687585E0,3.499500155E-1,1.004505062E1,3.144000053E0
8.877715893E0,1.840500087E-1,1.043805027E1,3.469950199E0
8.897744289E0,2.400000095E-1,1.086105061E1,3.249000072E0
8.917772864E0,1.101000071E0,1.137105083E1,3.088950157E0
8.937801267E0,7.780500650E-1,1.210200024E1,3.039000034E0
8.957829587E0,-3.580500185E-1,1.299000072E1,2.737050056E0
8.977858153E0,-3.889500201E-1,1.435500050E1,2.410950184E0
8.997886491E0,-2.091000080E0,1.365300083E1,1.911000133E0
9.017914861E0,-2.989050150E0,1.154895020E1,1.915950060E0
9.037943403E0,-1.438050032E0,9.138000488E0,-1.203000069E0
9.057971794E0,6.870000362E-1,9.499050140E0,-2.104950190E0
9.078000086E0,2.029950142E0,9.291000366E0,-1.344000101E0
9.098028582E0,-9.060000181E-1,9.577950478E0,-1.810950041E0
9.118056976E0,-2.161050081E0,9.444000244E0,-1.315050006E0
9.138085505E0,-1.692000031E0,9.367050171E0,3.310500085E-1
9.158113776E0,-7.120500207E-1,9.511050224E0,9.439500570E-1
9.178142163E0,-5.140500069E-1,9.247950554E0,9.030000567E-1
9.198170729E0,-2.260500044E-1,8.431050301E0,1.228950024E0
9.218199105E0,2.400000095E-1,7.726950169E0,1.516050100E0
9.238227657E0,4.140000343E-1,7.183950424E0,1.168950081E0
9.258255960E0,7.260000110E-1,7.078950405E0,1.569000125E0
9.278284360E0,4.429500103E-1,7.201050282E0,1.891950130E0
9.298312659E0,-7.429500222E-1,7.368000507E0,1.741050124E0
9.318341195E0,-9.280500412E-1,7.471050262E0,1.411050081E0
9.338369586E0,-7.240500450E-1,8.122050285E0,1.393950105E0
9.358398123E0,-7.990500331E-1,8.101050377E0,1.153950095E0
9.378426442E0,5.629500151E-1,8.862000465E0,9.630000591E-1
9.398454817E0,2.028000116E0,9.154050827E0,1.224000096E0
9.418483370E0,2.976000071E0,9.757950783E0,1.321950078E0
9.438511775E0,3.280050039E0,1.020795059E1,2.110050201E0
9.458540078E0,2.920500040E-1,1.068195057E1,3.024000168E0
9.478568623E0,1.819500029E-1,1.154400063E1,2.104950190E0
9.498597035E0,5.479500294E-1,1.193895054E1,2.023950100E0
9.518625562E0,1.246950030E0,1.216905022E1,2.437950134E0
9.538653941E0,6.700500250E-1,1.219005013E1,2.548050165E0
9.558682227E0,9.790500402E-1,1.337295055E1,2.887950182E0
9.578710764E0,-2.239500135E-1,1.204905033E1,1.699950099E0
9.598739140E0,-2.790000141E-1,1.056900024E1,5.010000467E-1
9.618767691E0,3.040500283E-1,9.339000702E0,1.240950108E0
9.638795955E0,-3.720000088E-1,9.331950188E0,2.431050062E0
9.658824318E0,-1.285050035E0,9.814950943E0,3.121950150E0
9.678852621E0,-2.161050081E0,9.954000473E0,3.811950207E0
9.698881138E0,-1.546050072E0,9.826950073E0,4.051050186E0
9.718909525E0,-1.330500096E-1,9.553950310E0,4.209000111E0
9.738938056E0,-7.800000161E-2,9.226050377E0,3.916950226E0
9.758966422E0,7.905000448E-2,8.944050789E0,2.650950193E0
9.778994737E0,4.650000334E-1,8.404950142E0,1.803000093E0
9.799023268E0,1.161000013E0,7.869000435E0,1.504050016E0
9.819051721E0,1.791000128E0,7.243950367E0,1.317000031E0
9.839080265E0,1.707000136E0,6.856050491E0,9.630000591E-1
9.859108579E0,1.815000057E0,6.904050350E0,1.174050093E0
9.879136985E0,1.224000096E0,7.213050365E0,2.155050039E0
9.899165522E0,9.169500470E-1,7.885050297E0,2.284950018E0
9.919193942E0,7.519500256E-1,8.599050522E0,2.401950121E0
9.939222464E0,7.110000253E-1,9.030000687E0,2.719950199E0
9.959250767E0,9.840000272E-1,9.310050011E0,2.826000214E0
9.979279125E0,1.528050065E0,9.496950150E0,2.968950033E0
9.999307418E0,1.506000042E0,9.529950142E0,3.328050137E0
1.001933594E1,1.374000072E0,9.853050232E0,3.190050125E0
1.003936435E1,1.333950043E0,9.942000389E0,2.647950172E0
1.005939289E1,1.651950121E0,9.798000336E0,2.269950151E0
1.007942120E1,1.906050086E0,9.504000664E0,2.245950222E0
1.009944958E1,2.446950197E0,9.292950630E0,2.683950186E0
1.011947813E1,2.502000093E0,9.513000488E0,2.775000095E0
1.013950653E1,2.856000185E0,1.005000019E1,3.151050091E0
1.015953508E1,3.148050070E0,1.127805042E1,3.609000206E0
1.017956338E1,1.743000031E0,1.193895054E1,3.385950089E0
1.019959176E1,1.170000061E-1,1.248495102E1,2.220000029E0
1.021962029E1,-8.200500607E-1,1.280295086E1,1.912950039E0
1.023964866E1,-6.739500165E-1,1.103400040E1,9.130500555E-1
1.025967697E1,-4.590000212E-1,9.043950081E0,1.525950074E0
1.027970549E1,-4.710000157E-1,8.746950150E0,1.696050048E0
1.029973386E1,-1.095000096E-2,9.407999992E0,1.723950028E0
1.031976239E1,2.680500150E-1,9.777000427E0,2.035950184E0
1.033979072E1,4.380000234E-1,9.571050644E0,2.143050194E0
1.035981910E1,3.520500064E-1,9.255000114E0,2.490000010E0
1.037984742E1,2.470500171E-1,8.862000465E0,2.349000216E0
1.039987598E1,1.319999993E-1,8.326050758E0,1.954050064E0
1.041990438E1,2.470500171E-1,7.732050419E0,1.842000127E0
1.043993293E1,3.690000176E-1,7.404000282E0,1.662000060E0
1.045996134E1,5.200500488E-1,7.231950283E0,1.723950028E0
1.047998963E1,8.239500523E-1,7.507050514E0,1.602000117E0
1.050001815E1,1.141950011E0,7.882950306E0,1.516050100E0
1.052004653E1,1.450950027E0,8.239950180E0,1.614000082E0
1.054007506E1,1.747950077E0,8.491050720E0,1.666950107E0
1.056010334E1,1.927050114E0,8.746950150E0,1.759950042E0
1.058013170E1,1.972950101E0,8.913000107E0,1.891950130E0
1.060016020E1,1.791000128E0,9.049050331E0,2.059050083E0
1.062018859E1,1.671000123E0,9.250050545E0,2.329950094E0
1.064021712E1,1.633050084E0,9.327000618E0,2.538000107E0
1.066024546E1,1.554000020E0,9.672000885E0,2.749050140E0
1.068027385E1,1.237950087E0,9.991950035E0,2.917050123E0
1.070030237E1,1.128000021E0,1.041600037E1,2.902050257E0
1.072033076E1,1.326000094E0,1.076100063E1,3.031950235E0
1.074035927E1,1.663950086E0,1.118700027E1,3.163050175E0
1.076038760E1,1.438950062E0,1.201800060E1,3.715950251E0
1.078041602E1,9.270000458E-1,1.311195087E1,4.047000408E0
1.080044430E1,5.220000148E-1,1.277205086E1,3.193950176E0
1.082047284E1,-1.230000034E-1,1.147395039E1,2.947950125E0
1.084050123E1,-7.429500222E-1,9.688050270E0,2.241000175E0
1.086052977E1,-1.419000030E0,8.403000832E0,1.873050094E0
1.088055816E1,-2.179949999E0,7.921050549E0,2.092950106E0
1.090058650E1,-2.701950073E0,8.596950531E0,2.329950094E0
1.092061504E1,-2.305050135E0,9.406050682E0,2.560050011E0
1.094064342E1,-1.215000033E0,9.826950073E0,2.428050041E0
1.096067173E1,-5.595000088E-2,1.023705006E1,2.614950180E0
1.098070028E1,9.820500612E-1,1.030095005E1,2.140950203E0
1.100072867E1,1.638000131E0,9.565950394E0,1.791000128E0
1.102075720E1,1.954050064E0,8.637000084E0,1.731000066E0
1.104078560E1,1.780950069E0,7.972050190E0,1.891950130E0
1.106081395E1,7.450500131E-1,7.765950203E0,2.161950111E0
1.108084243E1,-7.800000161E-2,7.759050369E0,2.304000139E0
1.110087081E1,-3.870000243E-1,7.750950336E0,2.419050217E0
1.112089913E1,-1.380000114E-1,7.617000580E0,2.425950050E0
1.114092762E1,4.720500112E-1,7.747050285E0,2.478000164E0
1.116095602E1,9.240000248E-1,8.194050789E0,2.671950102E0
1.118098457E1,1.321950078E0,8.556000710E0,3.004950047E0
1.120101297E1,1.546950102E0,8.818950653E0,3.337950230E0
1.122104126E1,1.534950018E0,9.412950516E0,3.457950115E0
1.124106984E1,1.252050042E0,9.856050491E0,3.264000177E0
1.126109824E1,9.960000515E-1,1.002105045E1,2.991000175E0
1.128112673E1,1.072950006E0,9.861000061E0,3.120000124E0
1.130115503E1,1.369950056E0,9.535050392E0,3.301950216E0
1.132118345E1,1.570950031E0,9.331950188E0,3.592050076E0
1.134121175E1,1.465050101E0,1.007400036E1,3.721050262E0
1.136124027E1,4.170000255E-1,1.079205036E1,2.920950174E0
1.138126862E1,-3.720000088E-1,1.057695007E1,1.789050102E0
1.140129711E1,-1.464000106E0,1.065300083E1,1.516050100E0
1.142132550E1,-2.154000044E0,1.073205090E1,7.210500240E-1
1.144135384E1,-2.319000006E0,1.031805038E1,6.229500175E-1
1.146138237E1,-1.255950093E0,1.055505085E1,1.411050081E0
1.148141075E1,-2.890500128E-1,1.126395035E1,1.897050142E0
1.150143927E1,1.033950090E0,1.144305038E1,2.560050011E0
1.152146759E1,1.726050138E0,1.104105091E1,2.715000153E0
1.154149600E1,9.820500612E-1,1.036800003E1,2.641050100E0
1.156152453E1,5.629500151E-1,9.499050140E0,2.401950121E0
1.158155292E1,3.090000153E-1,8.476950645E0,1.947000146E0
1.160158144E1,4.170000255E-1,7.852050304E0,1.609050035E0
1.162160974E1,4.909500182E-1,7.431000233E0,1.675950050E0
1.164163812E1,6.919500232E-1,7.363050461E0,1.672050118E0
1.166166646E1,5.269500017E-1,7.687050343E0,1.693050027E0
1.168169501E1,6.079500318E-1,8.086950302E0,1.927950144E0
1.170172340E1,1.281000018E0,8.131950378E0,1.888950109E0
1.172175194E1,1.662000060E0,8.338050842E0,1.870050073E0
1.174178031E1,1.935000062E0,8.596950531E0,1.855950117E0
1.176180863E1,1.611000061E0,9.256950378E0,1.782000065E0
1.178183720E1,2.148000002E0,9.652050018E0,2.433000088E0
1.180186559E1,1.603950024E0,9.813000679E0,2.980950117E0
1.182189409E1,5.050500035E-1,9.628050804E0,2.962050200E0
1.184192239E1,3.979500234E-1,9.384000778E0,2.893050194E0
1.186195076E1,7.999500632E-1,9.250050545E0,2.751000166E0
1.188197934E1,1.099050045E0,9.589950562E0,2.737050056E0
1.190200776E1,1.552050114E0,1.050000095E1,3.316050053E0
1.192203630E1,1.111050010E0,1.142205048E1,4.102050304E0
1.194206458E1,1.030050039E0,1.181205082E1,4.366950035E0
1.196209299E1,2.590500116E-1,1.197705078E1,3.871950150E0
1.198212154E1,-1.111950040E0,1.134000015E1,3.039000034E0
1.200214992E1,-1.615050077E0,9.730950356E0,2.248950005E0
1.202217824E1,-1.536000013E0,8.926950455E0,2.031000137E0
1.204220680E1,-1.840050101E0,8.833950043E0,2.542950153E0
1.206223507E1,-2.163000107E0,9.208950043E0,3.474000216E0
1.208226343E1,-1.435050011E0,9.580950737E0,3.811950207E0
1.210229197E1,-4.080000222E-1,9.616050720E0,3.790050268E0
1.212232035E1,-8.700000495E-2,9.826950073E0,3.252000093E0
1.214234888E1,4.309500158E-1,9.481950760E0,2.923950195E0
1.216237718E1,9.409500360E-1,8.743050575E0,2.530950069E0
1.218240558E1,7.470000386E-1,8.314050674E0,2.437950134E0
1.220243406E1,1.099500060E-1,7.960050583E0,2.401950121E0
1.222246246E1,-3.769500256E-1,7.714950562E0,2.766000032E0
1.224249100E1,-5.899500251E-1,7.732050419E0,2.959950209E0
1.226251927E1,-4.350000322E-1,7.774950504E0,3.199050188E0
1.228254767E1,-1.090500057E-1,7.912050247E0,3.190050125E0
1.230257600E1,2.160000056E-1,8.058000565E0,3.271050215E0
1.232260455E1,1.990500093E-1,8.447999954E0,3.309000254E0
1.234263296E1,3.780000210E-1,8.733000755E0,3.268950224E0
1.236266150E1,8.520000577E-1,8.685000420E0,3.340050220E0
1.238268984E1,1.101000071E0,8.749950409E0,3.558000088E0
1.240271823E1,1.195050001E0,9.295950890E0,3.694950104E0
1.242274677E1,1.101000071E0,9.808050156E0,3.913050175E0
1.244277516E1,1.036949992E0,9.910950661E0,3.822000265E0
1.246280365E1,1.008000016E0,9.846000671E0,3.892950296E0
1.248283194E1,1.045950055E0,1.027695084E1,4.092000008E0
1.250286032E1,3.979500234E-1,1.123695087E1,4.408050060E0
1.252288887E1,-6.529500484E-1,1.199895096E1,3.867000103E0
1.254291721E1,-7.630500197E-1,1.193205070E1,2.919000149E0
1.256294551E1,-8.560500145E-1,1.136205101E1,2.533950090E0
1.258297406E1,-5.950500369E-1,9.709950447E0,1.854000092E0
1.260300246E1,-1.191000104E0,9.094950676E0,2.172000170E0
1.262303104E1,-1.471050024E0,9.652050018E0,2.004000187E0
1.264305944E1,-7.669500113E-1,9.841050148E0,2.581050158E0
1.266308774E1,4.380000234E-1,9.601950645E0,2.557050228E0
1.268311624E1,1.297950029E0,9.411000252E0,2.854050159E0
1.270314460E1,1.318950057E0,9.292950630E0,3.046050072E0
1.272317298E1,7.279500365E-1,8.950950623E0,2.695950031E0
1.274320152E1,2.749500275E-1,8.178000450E0,2.634000063E0
1.276322992E1,-3.439500034E-1,7.593000412E0,2.512050152E0
1.278325819E1,-5.710500479E-1,7.287000179E0,2.377950191E0
1.280328670E1,-3.130500019E-1,7.210050106E0,2.398950100E0
1.282331505E1,1.609500051E-1,7.339950562E0,2.454000235E0
1.284334361E1,8.239500523E-1,7.356000423E0,2.601000071E0
1.286337200E1,1.413000107E0,7.498050213E0,2.703000069E0
1.288340034E1,1.516050100E0,7.687050343E0,2.734950066E0
1.290342887E1,1.477050066E0,7.926000595E0,2.725050211E0
1.292345727E1,1.531950116E0,8.115000725E0,2.884950161E0
1.294348582E1,1.504050016E0,8.367000580E0,3.304050207E0
1.296351414E1,9.049500227E-1,8.877000809E0,3.739950180E0
1.298354254E1,4.789500237E-1,9.589950562E0,4.129950047E0
1.300357082E1,5.100000501E-1,1.026495075E1,4.473000050E0
1.302359933E1,8.760000467E-1,1.066695023E1,4.315050125E0
1.304362768E1,1.827000141E0,1.103595066E1,4.164000034E0
1.306365623E1,2.779950142E0,1.170405102E1,4.843950272E0
1.308368455E1,2.466000080E0,1.284600067E1,5.335050106E0
1.310371293E1,-3.705000132E-2,1.330800056E1,4.851000309E0
1.312374147E1,-1.054949999E0,1.215405083E1,3.819000244E0
1.314376988E1,-1.846950054E0,1.034400082E1,3.691950083E0
1.316379843E1,-2.239950180E0,9.291000366E0,2.979000092E0
1.318382676E1,-2.344950199E0,9.046950340E0,2.164950132E0
1.320385517E1,-2.278050184E0,9.382050514E0,3.000000238E0
1.322388370E1,-1.797000051E0,9.717000008E0,3.213000059E0
1.324391205E1,-6.619500518E-1,9.801000595E0,3.771000147E0
1.326394032E1,4.210500121E-1,9.988050461E0,4.019999981E0
1.328396885E1,1.117950082E0,9.697950363E0,3.664050102E0
1.330399716E1,1.378950119E0,8.737950325E0,3.088950157E0
1.332402577E1,1.111050010E0,7.537950516E0,2.598000050E0
1.334405408E1,5.770500302E-1,6.564000130E0,2.269950151E0
1.336408246E1,4.050000310E-1,5.989050388E0,2.128950119E0
1.338411076E1,1.699500084E-1,5.580000401E0,2.281949997E0
1.340413931E1,3.229500055E-1,5.752050400E0,2.422950029E0
1.342416774E1,5.599500537E-1,5.970000267E0,2.809050083E0
1.344419630E1,7.300500274E-1,6.268950462E0,3.048000097E0
1.346422468E1,1.021950006E0,6.778950214E0,3.157950163E0
1.348425298E1,1.542000055E0,7.552950382E0,3.352050066E0
1.350428148E1,2.088000059E0,8.379000664E0,3.807000160E0
1.352430985E1,2.380050182E0,9.351000786E0,4.288050175E0
1.354433842E1,2.155050039E0,1.005195045E1,4.390950203E0
1.356436673E1,2.113950014E0,1.149600029E1,4.219050407E0
1.358439511E1,1.741050124E0,1.177800083E1,4.036950111E0
1.360442363E1,1.578000069E0,1.143600082E1,3.484050274E0
1.362445202E1,1.651950121E0,1.110300064E1,3.462000132E0
1.364448030E1,1.054050088E0,1.141905022E1,3.658950090E0
1.366450887E1,4.480500221E-1,1.185705090E1,3.241950035E0
1.368453717E1,-3.480000198E-1,1.194600010E1,1.935000062E0
1.370456559E1,-1.207950115E0,1.149105072E1,7.639500499E-1
1.372459412E1,-1.584000111E0,1.091205025E1,3.000000119E-1
1.374462252E1,-2.415000200E0,1.123995018E1,1.369500011E-1
1.376465084E1,-2.721000195E0,1.180695057E1,1.129500046E-1
1.378467934E1,-1.572000027E0,1.199100018E1,1.390500069E-1
1.380470774E1,1.770000011E-1,1.146000099E1,5.509500504E-1
1.382473628E1,8.809500337E-1,1.044000053E1,1.320000052E0
1.384476458E1,1.378950119E0,9.025050163E0,1.899000049E0
1.386479297E1,1.165950060E0,7.735050201E0,2.137950182E0
1.388482152E1,8.569500446E-1,6.643050194E0,2.080950022E0
1.390484989E1,3.280500174E-1,5.707050323E0,1.870050073E0
1.392487822E1,-1.140000075E-1,5.344950199E0,1.662000060E0
1.394490678E1,-6.760500073E-1,5.436000347E0,1.639950037E0
1.396493510E1,-1.072050095E0,6.061050415E0,1.789050102E0
1.398496345E1,-1.014000058E0,6.829950333E0,1.554000020E0
1.400499199E1,-2.239500135E-1,7.597950459E0,1.729050040E0
1.402502036E1,5.700000525E-1,8.443050385E0,1.813050032E0
1.404504890E1,1.501050115E0,9.382050514E0,2.170050144E0
1.406507718E1,2.368050098E0,1.002600002E1,2.617050171E0
1.408510553E1,3.064950228E0,1.047795010E1,2.835000038E0
1.410513409E1,3.802050114E0,1.100700092E1,3.340050220E0
1.412516250E1,3.156000137E0,1.139805031E1,3.532050133E0
1.414519082E1,2.241000175E0,1.197705078E1,3.079050064E0
1.416521939E1,1.552050114E0,1.240605068E1,2.914050102E0
1.418524777E1,1.417050123E0,1.261905098E1,3.229950190E0
1.420527630E1,1.096950054E0,1.315995026E1,3.618000269E0
1.422530458E1,-4.060500264E-1,1.362900066E1,3.496050119E0
1.424533299E1,-1.753950119E0,1.348500061E1,3.118050098E0
1.426536128E1,-3.126000166E0,1.195095062E1,2.577000141E0
1.428538978E1,-1.464000106E0,9.142050743E0,2.361000061E0
1.430541818E1,-1.728000045E0,8.497950554E0,2.896950245E0
1.432544669E1,-1.861950040E0,8.245050430E0,2.512050152E0
1.434547510E1,-2.118000031E0,8.127000809E0,2.196000099E0
1.436550340E1,-2.125050068E0,8.002950668E0,1.747950077E0
1.438553198E1,-1.681950092E0,7.869000435E0,8.820000291E-1
1.440556034E1,0.000000000E0,7.950000286E0,9.990000725E-1
1.442558865E1,6.319500208E-1,7.939950466E0,1.225950003E0
1.444561721E1,1.360050082E0,7.917000294E0,1.066050053E0
1.446564560E1,2.029950142E0,7.794000149E0,1.128000021E0
1.448567412E1,2.428050041E0,7.774950504E0,1.285950065E0
1.450570243E1,2.386950016E0,7.813950539E0,1.402950048E0
1.452573080E1,2.089950085E0,7.945050240E0,1.315050006E0
1.454575934E1,1.477050066E0,8.091000557E0,1.255050063E0
1.456578775E1,9.310500622E-1,8.266050339E0,1.288950086E0
1.458581607E1,4.530000091E-1,8.539050102E0,1.279050112E0
1.460584460E1,2.160000056E-1,8.914950371E0,1.387050033E0
1.462587300E1,5.100000501E-1,9.295950890E0,1.605000019E0
1.464590152E1,8.479500413E-1,1.000395012E1,1.972950101E0
1.466592983E1,1.153950095E0,1.089705086E1,2.589000225E0
1.468595820E1,1.135050058E0,1.155795097E1,3.004950047E0
1.470598651E1,9.190500379E-1,1.180005074E1,3.133950233E0
1.472601502E1,1.168050051E0,1.121100044E1,3.172950268E0
1.474604339E1,9.100500345E-1,1.063395023E1,3.208950043E0
1.476607190E1,1.306950092E0,1.041105080E1,2.313000202E0
1.478610020E1,1.168050051E0,1.082805061E1,1.999950051E0
1.480612863E1,5.290500522E-1,1.168695068E1,1.224000096E0
1.482615716E1,-1.009050012E0,1.270695019E1,2.122050047E0
1.484618556E1,-2.130000114E0,1.262100029E1,7.120500207E-1
1.486621409E1,-2.223000050E0,1.074705029E1,-6.690000296E-1
1.488624239E1,-2.038950205E0,1.053105068E1,-1.866000056E0
1.490627080E1,-2.326050043E0,1.080600071E1,-2.878950119E0
1.492629934E1,-2.263950109E0,1.123005009E1,-3.670950174E0
1.494632773E1,-1.954950094E0,1.115400028E1,-4.665000439E0
1.496635604E1,-1.000050068E0,9.928050041E0,-4.042050362E0
1.498638455E1,3.405000269E-2,8.518050194E0,-5.899500251E-1
1.500641293E1,1.319999993E-1,7.414050579E0,3.670500219E-1
1.502644148E1,-3.919500113E-1,6.576000214E0,1.039950013E0
1.504646980E1,-1.543050051E0,6.046950340E0,1.858050108E0
1.506649819E1,-2.125050068E0,5.848050117E0,2.340000153E0
1.508652652E1,-3.181050062E0,5.818950176E0,2.320050001E0
1.510655500E1,-3.010950089E0,6.945000172E0,1.429950118E0
1.512658337E1,-2.757000208E0,7.756050587E0,1.308000088E0
1.514661191E1,-1.717950106E0,8.838000298E0,9.370500445E-1
1.516664018E1,-8.250000477E-1,9.571050644E0,6.589500308E-1
1.518666857E1,4.050000310E-1,1.007595062E1,3.019500077E-1
1.520669711E1,1.410000086E0,1.033905029E1,4.960500300E-1
1.522672552E1,1.870050073E0,1.130895042E1,5.970000029E-1
1.524675407E1,2.023050070E0,1.206105042E1,1.063050032E0
1.526678239E1,1.360050082E0,1.258500099E1,1.726950049E0
1.528681082E1,4.429500103E-1,1.269300079E1,2.260950089E0
1.530683938E1,-9.610500336E-1,1.299195099E1,2.572050095E0
1.532686771E1,-2.316000223E0,1.384905052E1,2.881050110E0
1.534689607E1,-3.154050112E0,1.353300095E1,2.926050186E0
1.536692459E1,-5.130000114E0,1.159605026E1,1.887000084E0
1.538695292E1,-2.098950148E0,1.005900002E1,-9.195000678E-2
1.540698130E1,-1.893000126E0,8.563050270E0,-6.810000539E-1
1.542700985E1,-2.484000206E0,7.714950562E0,1.560000032E-1
1.544703821E1,-1.897950053E0,7.680000305E0,7.140000463E-1
1.546706653E1,-1.704000115E0,8.280000687E0,1.204950094E0
1.548709506E1,-7.819500566E-1,8.593950272E0,2.760000229E-1
1.550712345E1,-1.042950034E0,8.893050194E0,1.680000126E-1
1.552715202E1,-7.480500340E-1,9.139950752E0,-1.159500033E-1
1.554718030E1,-6.289500594E-1,9.090000153E0,0.000000000E0
1.556720869E1,-8.700000495E-2,9.027000427E0,2.370000184E-1
1.558723723E1,5.749500394E-1,8.896050453E0,8.205000311E-2
1.560726563E1,1.180050015E0,8.749950409E0,3.600000218E-2
1.562729398E1,1.125000000E0,8.589000702E0,4.095000029E-2
1.564732250E1,4.669500291E-1,8.532000542E0,-1.639500111E-1
1.566735082E1,-2.410500050E-1,8.494050026E0,-2.020500153E-1
1.568737918E1,-9.280500412E-1,8.452950478E0,-4.510500133E-1
1.570740773E1,-1.297050118E0,8.362050056E0,-5.179499984E-1
1.572743611E1,-1.548000097E0,8.398050308E0,-3.889500201E-1
1.574746442E1,-1.234050035E0,8.652000427E0,6.370500326E-1
1.576749294E1,-1.225050092E0,9.090000153E0,1.120950103E0
1.578752130E1,-1.392000079E0,9.784050941E0,1.216950059E0
1.580754984E1,-1.572000027E0,1.054995060E1,1.456050038E0
1.582757814E1,-1.657950044E0,1.106505013E1,1.578000069E0
1.584760652E1,-1.657950044E0,1.126605034E1,1.699950099E0
1.586763502E1,-1.323000073E0,1.113000011E1,1.650000095E0
1.588766339E1,-6.960000396E-1,1.088295078E1,1.534950018E0
1.590769172E1,-1.800000109E-2,1.031595039E1,1.461000085E0
1.592772023E1,-2.505000122E-2,1.000395012E1,1.044000030E0
1.594774861E1,-3.480000198E-1,1.074405098E1,6.540000439E-1
1.596777692E1,-1.725000024E0,1.267395020E1,9.130500555E-1
1.598780548E1,-2.805000067E0,1.269300079E1,4.360500276E-1
1.600783387E1,-2.355000019E0,1.082805061E1,-1.639050126E0
1.602786242E1,-2.367000103E0,8.797950745E0,-2.709000111E0
1.604789076E1,-2.178000212E0,7.929000378E0,-2.413950205E0
1.606791910E1,-8.730000257E-1,8.008049965E0,-1.705950022E0
1.608794768E1,-5.040000081E-1,8.743050575E0,-3.049050093E0
1.610797608E1,-9.040500522E-1,9.226050377E0,-3.022050142E0
1.612800439E1,-1.375950098E0,9.456000328E0,-2.908050060E0
1.614803292E1,-1.986000061E0,9.298050880E0,-2.848050117E0
1.616806129E1,-2.083950043E0,8.862000465E0,-2.608050108E0
1.618808981E1,-2.125050068E0,8.797950745E0,-2.110050201E0
1.620811812E1,-2.209050179E0,9.384000778E0,-2.041050196E0
1.622814653E1,-1.750950098E0,9.820050240E0,-2.115000010E0
1.624817505E1,-1.471050024E0,9.846000671E0,-1.957050085E0
1.626820341E1,-1.264950037E0,9.616050720E0,-1.837050080E0
1.628823172E1,-1.483050108E0,9.291000366E0,-1.843950033E0
1.630826027E1,-1.809000134E0,8.971950531E0,-1.852050066E0
1.632828857E1,-1.873950124E0,8.743050575E0,-1.749000072E0
1.634831696E1,-2.058000088E0,8.515049934E0,-1.612050056E0
1.636834553E1,-1.987950087E0,8.344950676E0,-1.231950045E0
1.638837391E1,-1.822950125E0,8.616000175E0,-1.291050076E0
1.640840222E1,-1.392000079E0,9.139950752E0,-1.195950031E0
1.642843077E1,-7.410000563E-1,9.700050354E0,-1.165050030E0
1.644845915E1,-3.529500067E-1,1.038495064E1,-1.071000099E0
1.646848769E1,-3.169500232E-1,1.099800014E1,-8.479500413E-1
1.648851598E1,-7.480500340E-1,1.106505013E1,-7.290000319E-1
1.650854438E1,-7.650000453E-1,1.085700035E1,-4.410000145E-1
1.652857291E1,-1.086000085E0,1.121595097E1,1.319999993E-1
1.654860124E1,-1.768050075E0,1.230495071E1,1.489500105E-1
1.656862953E1,-2.965050220E0,1.329405022E1,5.800500512E-1
1.658865806E1,-4.780050278E0,1.331295109E1,9.700500369E-1
1.660868636E1,-3.913050175E0,1.213500023E1,1.129500046E-1
1.662871496E1,-3.757950068E0,1.035900021E1,-4.605000094E-2
1.664874325E1,-2.716050148E0,8.881050110E0,1.317000031E0
1.666877163E1,-3.796050072E0,7.282050133E0,1.450950027E0
1.668879997E1,-3.316950083E0,8.188950539E0,1.609050035E0
1.670882851E1,-2.661000013E0,9.171000481E0,1.032000065E0
1.672885695E1,-2.122950077E0,1.001100063E1,3.450000286E-1
1.674888528E1,-1.411050081E0,1.038000011E1,3.210000098E-1
1.676891384E1,-6.480000019E-1,1.010700035E1,8.580000401E-1
1.678894225E1,-2.020500153E-1,9.481950760E0,9.840000272E-1
1.680897080E1,6.495000422E-2,8.653950691E0,9.409500360E-1
1.682899912E1,1.950000064E-3,7.876050472E0,8.929500580E-1
1.684902752E1,-5.500500202E-1,7.063950539E0,1.272000074E0
1.686905606E1,-1.171950102E0,6.661950111E0,1.492050052E0
1.688908444E1,-1.596000075E0,6.679050446E0,1.729050040E0
1.690911276E1,-1.488000035E0,7.054950237E0,1.663950086E0
1.692914130E1,-9.400500655E-1,7.608000278E0,1.537950039E0
1.694916964E1,-2.290500104E-1,8.215950012E0,1.578000069E0
1.696919795E1,4.410000145E-1,8.709000587E0,1.771950126E0
1.698922650E1,6.799500585E-1,9.232950211E0,2.088000059E0
1.700925487E1,6.199500561E-1,9.693000793E0,2.565000057E0
1.702928319E1,2.869500220E-1,1.020300007E1,2.871000051E0
1.704931178E1,1.099500060E-1,1.073895073E1,2.767950058E0
1.706934009E1,-6.795000285E-2,1.108605099E1,2.170050144E0
1.708936864E1,4.095000029E-2,1.117305088E1,1.702950120E0
1.710939693E1,6.060000062E-1,1.165905094E1,1.522950053E0
1.712942530E1,1.594950080E0,1.298700047E1,1.032000065E0
1.714945383E1,1.336050034E0,1.489305115E1,5.989500284E-1
1.716948212E1,3.420000076E-1,1.441200066E1,1.849500090E-1
1.718951050E1,-7.000500560E-1,1.188105011E1,-5.110500455E-1
1.720953902E1,-1.327950120E0,9.676050186E0,-9.829500318E-1
1.722956740E1,-1.063950062E0,8.557950020E0,-7.980000377E-1
1.724959573E1,-1.663050056E0,7.632000446E0,-1.404000044E0
1.726962425E1,-2.137050152E0,8.047950745E0,-2.158050060E0
1.728965259E1,-1.846950054E0,8.605950356E0,-2.388000011E0
1.730968096E1,-1.680000067E0,8.898000717E0,-7.410000563E-1
1.732970952E1,-1.087950110E0,8.929050446E0,2.880000174E-1
1.734973790E1,-1.027950048E0,8.994000435E0,1.027950048E0
1.736976622E1,-9.540000558E-1,9.001049995E0,1.687950134E0
1.738979476E1,-8.149500489E-1,8.692049980E0,2.158050060E0
1.740982313E1,-8.389500380E-1,8.125050545E0,1.894050121E0
1.742985145E1,-9.109500647E-1,7.612050533E0,6.160500050E-1
1.744987999E1,-9.469500184E-1,7.360950470E0,6.109500527E-1
1.746990837E1,-9.900000691E-1,7.483050346E0,2.929500043E-1
1.748993667E1,-3.529500067E-1,7.789950371E0,-3.049500287E-1
1.750996518E1,-8.700000495E-2,8.275950432E0,-1.879500151E-1
1.752999356E1,5.410500169E-1,8.848050117E0,-1.020000055E-1
1.755002212E1,7.759500146E-1,9.718950272E0,-6.795000285E-2
1.757005042E1,1.252050042E0,1.035600090E1,-2.569500208E-1
1.759007879E1,1.417050123E0,1.062195015E1,4.395000264E-2
1.761010733E1,1.480050087E0,1.074405098E1,1.420500129E-1
1.763013566E1,9.510000348E-1,1.076100063E1,4.980000257E-1
1.765016404E1,8.310000300E-1,1.097400093E1,8.239500523E-1
1.767019235E1,1.990500093E-1,1.112505054E1,1.339050055E0
1.769022088E1,-2.809500098E-1,1.106295013E1,1.663950086E0
1.771024928E1,-8.419500589E-1,1.139505100E1,2.128950119E0
1.773027779E1,-1.321050048E0,1.227900028E1,2.457000017E0
1.775030620E1,-2.029050112E0,1.302600098E1,2.715000153E0
1.777033453E1,-2.592000008E0,1.313805103E1,2.707950115E0
1.779036303E1,-2.932050228E0,1.259505081E1,2.078999996E0
1.781039135E1,-3.469950199E0,1.107705021E1,1.231050014E0
1.783041976E1,-3.145050049E0,9.231000900E0,8.220000267E-1
1.785044830E1,-3.307950258E0,8.221050262E0,9.630000591E-1
1.787047665E1,-3.138000250E0,7.840050220E0,1.219050050E0
1.789050502E1,-2.850000143E0,8.043000221E0,1.866000056E0
1.791053354E1,-2.275950193E0,8.623050690E0,1.759950042E0
1.793056192E1,-1.596000075E0,8.841000557E0,1.291050076E0
1.795059025E1,-8.419500589E-1,9.142050743E0,5.850000381E-1
1.797061879E1,-5.595000088E-2,9.346050262E0,2.779500186E-1
1.799064708E1,1.101000071E0,9.322050095E0,2.470500171E-1
1.801067546E1,1.350000024E0,9.087000847E0,-7.005000114E-2
1.803070401E1,1.767000079E0,8.362050056E0,1.129500046E-1
1.805073238E1,1.462950110E0,7.665000439E0,1.030500084E-1
1.807076069E1,7.110000253E-1,7.300950527E0,6.709500551E-1
1.809078922E1,-4.489500225E-1,7.480950356E0,8.860500455E-1
1.811081750E1,-1.066950083E0,7.681950569E0,1.279050112E0
1.813084588E1,-1.309050083E0,7.680000305E0,1.489950061E0
1.815087443E1,-1.183950067E0,8.209050179E0,2.457000017E0
1.817090281E1,-1.830000132E-1,9.025050163E0,2.007000208E0
1.819093112E1,1.680000126E-1,9.664050102E0,1.717050076E0
1.821095960E1,4.410000145E-1,1.003800011E1,1.876950145E0
1.823098798E1,1.905000024E-2,1.043805027E1,1.786950111E0
1.825101630E1,-7.800000161E-2,1.091205025E1,1.687950134E0
1.827104465E1,-1.810500026E-1,1.120605087E1,1.581000090E0
1.829107326E1,3.040500283E-1,1.126095009E1,1.675950050E0
1.831110156E1,9.480000734E-1,1.125600052E1,1.414950013E0
1.833113008E1,1.386000037E0,1.176600075E1,1.131000042E0
1.835115841E1,1.582950115E0,1.295595074E1,1.035000086E0
1.837118682E1,8.119500279E-1,1.350195026E1,4.290000200E-1
1.839121534E1,-1.251000047E0,1.374900055E1,2.370000184E-1
1.841124364E1,-3.004050255E0,1.215705013E1,-3.900000080E-2
1.843127199E1,-3.760050297E0,9.109050751E0,1.009500027E-1
1.845130053E1,-4.308000088E0,7.744050503E0,1.537950039E0
1.847132883E1,-3.028050184E0,8.983950615E0,1.780500114E-1
1.849135724E1,-2.842950106E0,9.499050140E0,-1.369950056E0
1.851138578E1,-1.464000106E0,9.774000168E0,-2.500500083E-1
1.853141406E1,-8.269500136E-1,9.184950829E0,0.000000000E0
1.855144244E1,-1.740000099E-1,8.464950562E0,6.490500569E-1
1.857147098E1,-6.795000285E-2,8.098950386E0,1.210050106E0
1.859149931E1,-6.619500518E-1,7.392000198E0,1.393950105E0
1.861152768E1,-8.610000610E-1,6.991950512E0,1.068000078E0
1.863155624E1,-9.690000415E-1,6.808050156E0,6.349500418E-1
1.865158460E1,-9.490500689E-1,6.904050350E0,7.879500389E-1
1.867161288E1,-9.730500579E-1,7.158000469E0,7.210500240E-1
1.869164122E1,-1.146000028E0,7.588950157E0,9.580500722E-1
1.871166977E1,-1.106999993E0,8.175000191E0,1.015950084E0
1.873169818E1,-4.729500115E-1,8.829000473E0,8.929500580E-1
1.875172670E1,-9.000000358E-2,9.295950890E0,5.970000029E-1
1.877175498E1,5.029500127E-1,9.765000343E0,5.389500260E-1
1.879178338E1,5.940000415E-1,1.024395084E1,4.890000224E-1
1.881181168E1,1.039050102E0,1.091895008E1,4.395000264E-2
1.883184027E1,-1.660500020E-1,1.071300030E1,3.049500287E-1
1.885186865E1,-8.970000148E-1,1.056705093E1,8.959500194E-1
1.887189718E1,-1.249050021E0,1.079205036E1,1.141950011E0
1.889192549E1,-7.770000100E-1,1.136205101E1,1.521000028E0
1.891195390E1,-5.380499959E-1,1.205595016E1,1.786950111E0
1.893198247E1,-4.200000167E-1,1.253505039E1,2.119050026E0
1.895201078E1,-6.169500351E-1,1.347405052E1,2.719950199E0
1.897203909E1,-1.249050021E0,1.383495045E1,2.521950006E0
1.899206747E1,-2.251950026E0,1.331505108E1,2.313000202E0
1.901209600E1,-3.829950094E0,1.203705025E1,2.275050163E0
1.903212438E1,-4.249050140E0,9.798000336E0,1.533000112E0
1.905215269E1,-4.311000347E0,8.235000610E0,1.708050132E0
1.907218122E1,-4.516950130E0,7.929000378E0,1.675950050E0
1.909220952E1,-4.198050022E0,8.050950050E0,1.537950039E0
1.911223791E1,-2.869950056E0,8.095950127E0,1.513950109E0
1.913226646E1,-1.456950068E0,8.221050262E0,1.375050068E0
1.915229474E1,-5.205000192E-2,8.227950096E0,1.044000030E0
1.917232311E1,8.449500203E-1,8.640000343E0,1.132950068E0
1.919235162E1,9.720000625E-1,8.479050636E0,9.049500227E-1
1.921238000E1,8.170500398E-1,7.978950500E0,4.600500166E-1
1.923240828E1,4.450500309E-1,7.407000542E0,3.810000122E-1
1.925243680E1,-1.399500072E-1,7.119000435E0,3.670500219E-1
1.927246520E1,-3.840000033E-1,7.225050449E0,3.310500085E-1
1.929249350E1,-3.199500144E-1,7.609950542E0,5.269500017E-1
1.931252182E1,-1.570500135E-1,8.143950462E0,7.879500389E-1
1.933255037E1,4.800000042E-2,8.584950447E0,1.075049996E0
1.935257879E1,2.230500132E-1,9.018000603E0,1.231050014E0
1.937260713E1,4.240500331E-1,9.388950348E0,1.096950054E0
1.939263565E1,5.700000525E-1,9.511050224E0,9.769500494E-1
1.941266409E1,4.480500221E-1,9.504000664E0,9.649500251E-1
1.943269239E1,4.290000200E-1,9.877050400E0,7.159500122E-1
1.945272095E1,-6.105000153E-2,1.005495071E1,6.679500341E-1
1.947274934E1,1.905000024E-2,1.015995026E1,8.650500178E-1
1.949277787E1,1.699500084E-1,1.066995049E1,1.071000099E0
1.951280616E1,4.720500112E-1,1.125405025E1,1.036949992E0
1.953283456E1,6.630000472E-1,1.203195095E1,1.006049991E0
1.955286310E1,6.229500175E-1,1.317705059E1,6.640500426E-1
1.957289137E1,-1.549500078E-1,1.386405087E1,2.280000150E-1
1.959291968E1,-1.645950079E0,1.441005039E1,2.020500153E-1
1.961294805E1,-5.083950043E0,1.301400089E1,6.949500442E-1
1.963297659E1,-4.588950157E0,1.075395012E1,1.345950007E0
1.965300496E1,-4.966950417E0,8.989050865E0,9.840000272E-1
1.967303328E1,-4.738950253E0,8.697000504E0,-1.780500114E-1
1.969306181E1,-4.129050255E0,8.824049950E0,-4.870500267E-1
1.971309009E1,-3.892050266E0,9.324000359E0,-6.070500016E-1
1.973311849E1,-2.826000214E0,9.319950104E0,-3.790500164E-1
1.975314704E1,-1.552950025E0,8.995950699E0,2.350500077E-1
1.977317537E1,-4.560000300E-1,8.422050476E0,8.190000653E-1
1.979320379E1,-2.505000122E-2,7.573950291E0,1.152000070E0
1.981323234E1,-3.289500177E-1,7.059000492E0,8.599500656E-1
1.983326067E1,-7.960500121E-1,6.837000370E0,8.290500641E-1
1.985328906E1,-1.141050100E0,6.922950268E0,3.090000153E-1
1.987331761E1,-1.443000078E0,7.231950283E0,0.000000000E0
1.989334599E1,-1.423050046E0,7.548000336E0,-2.119500041E-1
1.991337430E1,-9.690000415E-1,7.998000145E0,-1.810500026E-1
1.993340284E1,-5.230500102E-1,8.452950478E0,-2.209500074E-1
1.995343123E1,1.030500084E-1,8.872050285E0,-5.805000290E-2
1.997345950E1,2.250000089E-1,9.420000076E0,-3.270000219E-1
1.999348780E1,2.110500038E-1,9.846000671E0,-3.529500067E-1
2.001351630E1,-2.220000178E-1,1.005000019E1,-1.729500145E-1
2.003354469E1,-1.098000050E0,1.042995071E1,-2.040000111E-1
2.005357300E1,-1.525950074E0,1.062195015E1,3.840000033E-1
2.007360154E1,-1.297050118E0,1.098600006E1,3.619500101E-1
2.009362992E1,-8.149500489E-1,1.166100025E1,7.620000243E-1
2.011365824E1,-4.249500334E-1,1.230000019E1,1.023000002E0
2.013368678E1,-8.869500160E-1,1.273605061E1,1.240950108E0
2.015371519E1,-1.918950081E0,1.288905048E1,1.480050087E0
2.017374348E1,-2.589000225E0,1.270995045E1,1.674000025E0
2.019377201E1,-3.082950115E0,1.200105095E1,1.875000119E0
2.021380039E1,-3.753000259E0,1.054800034E1,1.822050095E0
2.023382870E1,-3.439050198E0,8.773950577E0,2.004000187E0
2.025385722E1,-3.292950153E0,8.551050186E0,1.450950027E0
2.027388553E1,-3.207000256E0,9.025050163E0,1.336050034E0
2.029391389E1,-2.647050142E0,9.580950737E0,1.450950027E0
2.031394242E1,-1.818000078E0,9.691050529E0,1.755000114E0
2.033397073E1,-6.049500108E-1,9.597000122E0,1.312050104E0
2.035399914E1,-4.050000105E-3,9.706950188E0,7.810500264E-1
2.037402769E1,7.695000619E-2,9.537000656E0,2.110500038E-1
2.039405599E1,-1.189500093E-1,8.925000191E0,-3.220500052E-1
2.041408437E1,-3.460500240E-1,8.067000389E0,-4.030500054E-1
2.043411264E1,-2.340000123E-1,7.251000404E0,-2.809500098E-1
2.045414118E1,-1.159500033E-1,6.849000454E0,-2.910000086E-1
2.047416956E1,4.305000231E-2,6.885000229E0,3.900000080E-2
2.049419785E1,-1.140000075E-1,7.219950199E0,4.890000224E-1
2.051422639E1,1.200000010E-2,7.519050121E0,7.690500617E-1
2.053425479E1,8.400000632E-2,8.010000229E0,8.239500523E-1
2.055428332E1,4.140000343E-1,8.653950691E0,7.090500593E-1
2.057431163E1,8.190000653E-1,9.178050041E0,4.960500300E-1
2.059433996E1,8.790000677E-1,9.493950844E0,4.530000091E-1
2.061436837E1,1.175999999E0,9.604050636E0,-3.240000010E-1
2.063439693E1,7.729500532E-1,9.954000473E0,7.905000448E-2
2.065442535E1,4.170000255E-1,1.091400051E1,-1.279500127E-1
2.067445366E1,4.720500112E-1,1.136400032E1,4.030500054E-1
2.069448220E1,8.640000224E-1,1.135695076E1,7.470000386E-1
2.071451048E1,1.152000070E0,1.156800079E1,6.970500350E-1
2.073453887E1,1.261950016E0,1.270995045E1,1.680000126E-1
2.075456742E1,1.219500080E-1,1.395705032E1,-4.890000224E-1
2.077459572E1,-1.548000097E0,1.393305111E1,-3.649500310E-1
2.079462411E1,-2.970000029E0,1.345905018E1,7.695000619E-2
2.081465265E1,-3.175950050E0,1.232700062E1,5.179499984E-1
2.083468094E1,-3.643050194E0,1.033905029E1,8.500500321E-1
2.085470935E1,-4.024050236E0,9.174000740E0,6.370500326E-1
2.087473766E1,-4.122000217E0,8.878950119E0,4.720500112E-1
2.089476622E1,-4.027950287E0,8.766000748E0,1.750500053E-1
2.091479460E1,-3.247950077E0,8.829000473E0,7.905000448E-2
2.093482312E1,-2.074949980E0,8.659049988E0,1.350000054E-1
2.095485140E1,-7.630500197E-1,8.356950760E0,5.149500370E-1
2.097487970E1,1.395000052E-2,7.990950584E0,8.290500641E-1
2.099490809E1,2.560500205E-1,7.428000450E0,1.080000043E0
2.101493662E1,-1.469999999E-1,6.928050518E0,1.281000018E0
2.103496500E1,-7.530000210E-1,6.826950550E0,1.177950025E0
2.105499354E1,-1.231950045E0,7.050000191E0,1.147050023E0
2.107502185E1,-1.597950101E0,7.267950535E0,1.308000088E0
2.109505015E1,-1.873950124E0,7.572000504E0,1.297950029E0
2.111507856E1,-1.888050079E0,7.834950447E0,1.368000031E0
2.113510711E1,-1.612950087E0,8.302050591E0,1.171050072E0
2.115513536E1,-7.939500213E-1,9.030000687E0,7.950000167E-1
2.117516373E1,-1.570500135E-1,9.604050636E0,5.730000138E-1
2.119519228E1,2.950500250E-1,1.036800003E1,6.780000329E-1
2.121522057E1,1.009950042E0,1.076595020E1,9.169500470E-1
2.123524895E1,5.629500151E-1,1.093995094E1,7.260000110E-1
2.125527752E1,7.395000011E-2,1.124895096E1,1.011000037E0
2.127530581E1,-4.420500100E-1,1.186905098E1,1.381950021E0
2.129533409E1,-9.690000415E-1,1.233600044E1,1.675950050E0
2.131536250E1,-1.012050033E0,1.260900021E1,1.924950123E0
2.133539104E1,-1.143000007E0,1.317900085E1,1.995000124E0
2.135541939E1,-1.486050129E0,1.327200031E1,1.948950052E0
2.137544770E1,-2.254050016E0,1.242705059E1,1.729050040E0
2.139547624E1,-3.664050102E0,1.102695084E1,1.834050059E0
2.141550452E1,-3.655050278E0,9.019950867E0,2.035950184E0
2.143553291E1,-3.484950066E0,8.479050636E0,1.686000109E0
2.145556145E1,-3.655050278E0,8.941050529E0,1.618950129E0
2.147558975E1,-3.043950081E0,9.121050835E0,2.182049990E0
2.149561814E1,-1.716000080E0,9.139950752E0,2.397000074E0
2.151564644E1,-9.589500427E-1,9.169050217E0,2.016000032E0
2.153567498E1,-5.260500312E-1,9.055950165E0,1.557000041E0
2.155570339E1,-2.430000156E-1,8.677950859E0,1.116000056E0
2.157573170E1,2.320500165E-1,8.083950043E0,6.130500436E-1
2.159576023E1,5.560500026E-1,7.339950562E0,2.850000262E-1
2.161578864E1,5.790000558E-1,6.664050102E0,2.850000262E-1
2.163581697E1,4.450500309E-1,6.255000114E0,4.960500300E-1
2.165584552E1,1.560000032E-1,6.319950104E0,6.229500175E-1
2.167587383E1,8.205000311E-2,6.693000317E0,8.340000510E-1
2.169590223E1,-1.980000138E-1,7.170000553E0,1.264950037E0
2.171593049E1,-8.505000174E-2,7.801950455E0,1.293000102E0
2.173595903E1,2.710500062E-1,8.548950195E0,1.449000120E0
2.175598743E1,8.569500446E-1,9.460950851E0,1.305000067E0
2.177601574E1,1.015050054E0,1.055700016E1,1.186050057E0
2.179604427E1,7.519500256E-1,1.164405060E1,1.506000042E0
2.181607255E1,-4.590000212E-1,1.174005032E1,1.492050052E0
2.183610093E1,-1.311000109E0,1.175700092E1,2.023950100E0
2.185612949E1,-3.600000143E-1,1.158900070E1,2.031000137E0
2.187615784E1,7.470000386E-1,1.155600071E1,1.777050138E0
2.189618625E1,1.663950086E0,1.227900028E1,1.581000090E0
2.191621477E1,1.185000062E0,1.335105038E1,7.620000243E-1
2.193624308E1,5.509500504E-1,1.363905048E1,3.570000231E-1
2.195627148E1,-1.720050097E0,1.268295097E1,2.779500186E-1
2.197629979E1,-3.205050230E0,1.186200047E1,6.949500442E-1
2.199632835E1,-3.099000216E0,1.017900085E1,5.770500302E-1
2.201635674E1,-3.439050198E0,8.992050171E0,5.179499984E-1
2.203638505E1,-3.286050081E0,9.001049995E0,-6.795000285E-2
2.205641356E1,-3.043950081E0,9.334050179E0,-4.489500225E-1
2.207644188E1,-2.527050018E0,9.444000244E0,-6.259500384E-1
2.209647026E1,-1.813950062E0,9.150000572E0,-4.180500209E-1
2.211649855E1,-1.014000058E0,8.782950401E0,2.209500074E-1
2.213652709E1,-3.580500185E-1,8.315999985E0,6.799500585E-1
2.215655549E1,-3.409500122E-1,8.077050209E0,1.153950095E0
2.217658378E1,-2.890500128E-1,7.476000309E0,1.528050065E0
2.219661228E1,-5.740500093E-1,6.973050117E0,1.690950036E0
2.221664058E1,-1.042950034E0,6.672000408E0,1.759950042E0
2.223666901E1,-1.462050080E0,6.660000324E0,1.377000093E0
2.225669752E1,-1.564950109E0,6.913050175E0,1.059000015E0
2.227672581E1,-1.759050131E0,7.207950115E0,7.260000110E-1
2.229675420E1,-1.225050092E0,7.825950146E0,4.480500221E-1
2.231678274E1,-7.050000429E-1,8.560950279E0,5.730000138E-1
2.233681105E1,8.205000311E-2,9.259950638E0,3.499500155E-1
2.235683937E1,5.770500302E-1,1.013100052E1,3.049500287E-1
2.237686776E1,1.175999999E0,1.090695095E1,5.370000005E-1
2.239689625E1,9.910500646E-1,1.112505054E1,8.050500154E-1
2.241692458E1,2.680500150E-1,1.117005062E1,1.128000021E0
2.243695296E1,-4.440000355E-1,1.154895020E1,1.453950047E0
2.245698128E1,-1.003950000E0,1.211100101E1,1.996950150E0
2.247700982E1,-1.045050025E0,1.259700012E1,2.296050072E0
2.249703820E1,-9.400500655E-1,1.357905102E1,2.490000010E0
2.251706652E1,-1.275000095E0,1.408395100E1,2.538000107E0
2.253709506E1,-2.260950089E0,1.369605064E1,2.229000092E0
2.255712339E1,-3.411000252E0,1.269105053E1,2.361000061E0
2.257715180E1,-5.458050251E0,1.014300060E1,2.422950029E0
2.259718033E1,-4.129050255E0,8.272950172E0,2.371050119E0
2.261720865E1,-4.162050247E0,8.034000397E0,2.040000200E0
2.263723709E1,-3.777000189E0,8.347949982E0,1.936950088E0
2.265726561E1,-2.479050159E0,8.509950638E0,2.397000074E0
2.267729392E1,-1.234050035E0,9.073050499E0,2.007000208E0
2.269732225E1,-2.550000250E-1,9.055950165E0,1.228950024E0
2.271735062E1,4.140000343E-1,8.722949982E0,7.909500599E-1
2.273737892E1,8.910000324E-1,8.031000137E0,4.429500103E-1
2.275740743E1,8.809500337E-1,7.227000237E0,-2.295000106E-2
2.277743580E1,5.530500412E-1,6.595050335E0,-1.639500111E-1
2.279746406E1,4.720500112E-1,6.190050125E0,6.000000238E-2
2.281749261E1,2.130000144E-1,6.351000309E0,2.689500153E-1
2.283752092E1,5.770500302E-1,7.204950333E0,8.410500288E-1
2.285754931E1,5.410500169E-1,8.197050095E0,1.504050016E0
2.287757782E1,2.830500007E-1,8.829000473E0,1.921050072E0
2.289760614E1,-4.200000316E-2,9.223950386E0,2.287050009E0
2.291763453E1,-2.505000122E-2,9.640050888E0,2.505000114E0
2.293766311E1,4.360500276E-1,1.012905025E1,2.308050156E0
2.295769142E1,2.400000095E-1,1.055505085E1,2.368050098E0
2.297771971E1,1.720500141E-1,1.051905060E1,1.945050120E0
2.299774809E1,-1.800000109E-2,1.078995037E1,1.582950115E0
2.301777661E1,1.695000008E-2,1.117005062E1,1.557000041E0
2.303780493E1,5.389500260E-1,1.164000034E1,1.231050014E0
2.305783333E1,1.132950068E0,1.308795071E1,9.010500312E-1
2.307786166E1,7.420500517E-1,1.438305092E1,8.479500413E-1
2.309789015E1,-1.677000046E0,1.405500031E1,1.090050101E0
2.311791853E1,-3.922950268E0,1.270005035E1,1.612050056E0
2.313794685E1,-5.182050228E0,1.046400070E1,1.674000025E0
2.315797539E1,-4.981050014E0,8.946000099E0,1.477950096E0
2.317800371E1,-4.717950344E0,9.154050827E0,6.780000329E-1
2.319803210E1,-3.310050249E0,1.005705070E1,-2.929500043E-1
2.321806063E1,-2.158050060E0,1.049805069E1,-4.150500298E-1
2.323808892E1,-9.420000315E-1,1.018905067E1,4.170000255E-1
2.325811729E1,-1.900500059E-1,9.255000114E0,8.890500665E-1
2.327814560E1,-3.495000303E-2,8.452950478E0,1.651950121E0
2.329817414E1,-3.700500131E-1,7.215000153E0,2.260950089E0
2.331820245E1,-9.949500561E-1,6.256950378E0,2.557050228E0
2.333823084E1,-1.177050114E0,5.757000446E0,2.220000029E0
2.335825914E1,-2.257050037E0,5.190000057E0,1.762950063E0
2.337828766E1,-2.356950045E0,5.251950264E0,1.344000101E0
2.339831605E1,-2.400000095E0,5.637000084E0,9.940500259E-1
2.341834436E1,-1.936050057E0,6.364950180E0,6.250500083E-1
2.343837290E1,-1.099950075E0,7.344000340E0,1.920000017E-1
2.345840122E1,-1.309500039E-1,8.479050636E0,8.205000311E-2
2.347842960E1,6.820500493E-1,9.672000885E0,2.779500186E-1
2.349845814E1,1.801050067E0,1.068405056E1,2.400000095E-1
2.351848646E1,2.305950165E0,1.144305038E1,9.679500461E-1
2.353851485E1,1.870050073E0,1.165605068E1,1.537950039E0
2.355854314E1,9.600000083E-2,1.194405079E1,1.750950098E0
2.357857167E1,-9.349500537E-1,1.237905025E1,2.014050007E0
2.359860001E1,-1.201050043E0,1.289400101E1,2.155050039E0
2.361862842E1,-1.026000023E0,1.351200104E1,2.206050158E0
2.363865670E1,-1.087950110E0,1.461795044E1,2.446950197E0
2.365868525E1,-1.450050116E0,1.542705059E1,2.692050219E0
2.367871357E1,-2.635050058E0,1.420395088E1,2.967000246E0
2.369874196E1,-4.118999958E0,1.155600071E1,2.044950008E0
2.371877048E1,-4.227000237E0,9.279000282E0,1.935000062E0
2.373879880E1,-4.186050415E0,8.071949959E0,1.308000088E0
2.375882720E1,-4.141050339E0,7.692000389E0,7.740000486E-1
2.377885551E1,-3.319950104E0,7.713000298E0,1.114050031E0
2.379888406E1,-2.146950006E0,7.999950409E0,1.687950134E0
2.381891245E1,-7.789500356E-1,8.800050735E0,1.168950081E0
2.383894073E1,-2.809500098E-1,8.920050621E0,5.059500337E-1
2.385896925E1,1.680000126E-1,9.109050751E0,2.040000111E-1
2.387899757E1,7.140000463E-1,9.078000069E0,-2.740500271E-1
2.389902595E1,1.389000058E0,8.628000259E0,-6.790500283E-1
2.391905448E1,1.774050117E0,7.905000210E0,-8.290500641E-1
2.393908275E1,1.647000074E0,7.122000217E0,-3.619500101E-1
2.395911112E1,1.189950109E0,6.754950523E0,-6.300000101E-2
2.397913938E1,7.710000277E-1,6.861000538E0,1.350000054E-1
2.399916768E1,4.530000091E-1,7.347000122E0,7.470000386E-1
2.401919622E1,1.990500093E-1,7.837950230E0,8.790000677E-1
2.403922461E1,3.109500110E-1,8.427000046E0,1.132950068E0
2.405925294E1,8.500500321E-1,8.925000191E0,1.297950029E0
2.407928150E1,1.261950016E0,9.631050110E0,1.474950075E0
2.409930981E1,1.522950053E0,1.042095089E1,1.272000074E0
2.411933820E1,9.070500135E-1,1.099305058E1,9.630000591E-1
2.413936674E1,1.369500011E-1,1.132395077E1,8.070000410E-1
2.415939506E1,3.070500195E-1,1.188105011E1,8.190000653E-1
2.417942349E1,9.700500369E-1,1.237695026E1,1.000950098E0
2.419945179E1,1.575000048E0,1.315995026E1,1.054050088E0
2.421948033E1,1.243050098E0,1.402695084E1,1.180950046E0
2.423950863E1,-1.327950120E0,1.426395035E1,1.072950006E0
2.425953700E1,-3.708000183E0,1.378500080E1,1.396050096E0
2.427956533E1,-5.299950123E0,1.119900036E1,1.723950028E0
2.429959388E1,-4.540950298E0,8.427000046E0,1.128000021E0
2.431962222E1,-3.648000240E0,8.130000114E0,-1.350000054E-1
2.433965058E1,-2.949000120E0,8.733000755E0,-9.079500437E-1
2.435967908E1,-2.569950104E0,9.324000359E0,-1.555050015E0
2.437970736E1,-1.612950087E0,9.565950394E0,-1.737000108E0
2.439973573E1,-7.080000043E-1,9.436950684E0,5.805000290E-2
2.441976404E1,0.000000000E0,8.929050446E0,8.599500656E-1
2.443979256E1,-2.239500135E-1,8.094000816E0,1.624050021E0
2.445982086E1,-4.560000300E-1,7.191000462E0,2.182049990E0
2.447984925E1,-1.114950061E0,6.580950260E0,2.241000175E0
2.449987781E1,-1.713000059E0,6.114000320E0,2.026050091E0
2.451990615E1,-1.885950089E0,5.929050446E0,1.888950109E0
2.453993455E1,-2.604000092E0,6.448950291E0,1.906050086E0
2.455996286E1,-2.403000116E0,7.213050365E0,1.672050118E0
2.457999116E1,-1.861950040E0,8.047950745E0,1.111050010E0
2.460001968E1,-7.909500599E-1,8.842950821E0,1.020000100E0
2.462004809E1,-1.605000161E-2,9.589950562E0,9.199500680E-1
2.464007660E1,1.020000100E0,1.015305042E1,6.040500402E-1
2.466010486E1,1.410000086E0,1.082100010E1,4.819500148E-1
2.468013320E1,1.249950051E0,1.112205029E1,6.540000439E-1
2.470016154E1,6.079500318E-1,1.124895096E1,8.100000620E-1
2.472018986E1,-2.740500271E-1,1.118895054E1,1.126049995E0
2.474021842E1,-1.141050100E0,1.114395046E1,1.980000138E0
2.476024674E1,-9.450000525E-1,1.109100056E1,1.899000049E0
2.478027510E1,-3.360000253E-1,1.228395081E1,1.237950087E0
2.480030362E1,3.949500322E-1,1.346595097E1,1.324050069E0
2.482033191E1,9.310500622E-1,1.357200050E1,2.421000004E0
2.484036030E1,-1.390050054E0,1.291095066E1,2.790000200E0
2.486038860E1,-3.142050266E0,1.246800041E1,1.863000035E0
2.488041697E1,-4.261050224E0,1.041105080E1,1.651950121E0
2.490044552E1,-3.307950258E0,8.623050690E0,1.380000114E0
2.492047390E1,-2.779050112E0,8.035950661E0,7.429500222E-1
2.494050245E1,-2.374050140E0,8.071949959E0,1.128000021E0
2.496053079E1,-1.543050051E0,8.464950562E0,1.639950037E0
2.498055914E1,-1.138950109E0,8.713950157E0,1.888950109E0
2.500058754E1,3.105000220E-2,8.926950455E0,5.440500379E-1
2.502061587E1,-5.400000140E-2,9.433950424E0,9.559500217E-1
2.504064439E1,1.905000024E-2,9.166050911E0,3.690000176E-1
2.506067277E1,6.495000422E-2,8.335950851E0,2.850000262E-1
2.508070106E1,8.359500170E-1,7.540950298E0,-6.000000052E-3
2.510072958E1,8.500500321E-1,7.147950172E0,-3.900000080E-2
2.512075787E1,5.580000281E-1,7.114950180E0,1.870500147E-1
2.514078623E1,4.740000367E-1,7.387050152E0,7.950000465E-3
2.516081454E1,1.939500123E-1,7.870950222E0,3.720000088E-1
2.518084309E1,2.710500062E-1,8.414999962E0,7.309500575E-1
2.520087138E1,2.200500071E-1,8.881050110E0,1.030050039E0
2.522089980E1,4.069500268E-1,9.448950768E0,1.297950029E0
2.524092833E1,2.130000144E-1,9.705000877E0,1.486950040E0
2.526095665E1,-1.620000005E-1,9.415050507E0,2.128950119E0
2.528098499E1,-3.630000055E-1,9.910950661E0,1.522950053E0
2.530101338E1,-4.300500154E-1,1.005000019E1,5.989500284E-1
2.532104192E1,-4.350000322E-1,1.095705032E1,1.540050030E0
2.534107020E1,1.530000120E-1,1.161300087E1,4.170000255E-1
2.536109861E1,1.252050042E0,1.221195030E1,4.909500182E-1
2.538112693E1,2.253000021E0,1.335600090E1,2.730000019E-1
2.540115544E1,6.250500083E-1,1.378500080E1,-2.280000150E-1
2.542118373E1,-1.512000084E0,1.417305088E1,3.049500287E-1
2.544121210E1,-2.211000204E0,1.302300072E1,-4.530000091E-1
2.546124042E1,-2.656050205E0,1.012605095E1,2.569500208E-1
2.548126895E1,-2.758950233E0,8.314050674E0,-2.790000141E-1
2.550129727E1,-3.303000212E0,8.173049927E0,-1.432950020E0
2.552132564E1,-3.271950245E0,8.925000191E0,-1.843950033E0
2.554135394E1,-3.697950125E0,9.589950562E0,-1.762950063E0
2.556138249E1,-2.125050068E0,9.928050041E0,-1.009050012E0
2.558141079E1,-1.000050068E0,9.705000877E0,-1.230000034E-1
2.560143921E1,-5.779500008E-1,9.631050110E0,9.030000567E-1
2.562146777E1,-6.840000153E-1,8.926950455E0,1.648050070E0
2.564149609E1,-1.237050056E0,8.010000229E0,2.277000189E0
2.566152445E1,-1.267950058E0,6.837000370E0,2.311050177E0
2.568155275E1,-1.501950026E0,6.283950329E0,2.088000059E0
2.570158106E1,-2.202000141E0,6.115950108E0,1.638000131E0
2.572160959E1,-2.497950077E0,6.585000515E0,1.506000042E0
2.574163791E1,-2.218050003E0,6.894000530E0,9.169500470E-1
2.576166629E1,-1.615050077E0,7.510050297E0,1.030050039E0
2.578169482E1,-6.739500165E-1,8.167950630E0,5.080500245E-1
2.580172312E1,2.205000073E-2,9.202050209E0,6.300000548E-1
2.582175150E1,7.660500407E-1,1.007100010E1,7.005000114E-2
2.584177985E1,1.372050047E0,1.102695084E1,3.739500046E-1
2.586180837E1,1.651950121E0,1.155105019E1,5.010000467E-1
2.588183668E1,1.372050047E0,1.213005066E1,6.160500050E-1
2.590186503E1,9.870000482E-1,1.243695068E1,5.850000381E-1
2.592189335E1,-7.800000161E-2,1.238205051E1,1.534950018E0
2.594192188E1,-1.315950036E0,1.272705078E1,2.028000116E0
2.596195019E1,-7.579500079E-1,1.245600033E1,2.970000207E-1
2.598197847E1,-2.970000029E0,1.359600067E1,4.935000420E0
2.600200680E1,-2.086950064E0,1.325295067E1,2.541000128E0
2.602203535E1,-3.280950069E0,1.216095066E1,1.702950120E0
2.604206369E1,-3.514050245E0,9.973050117E0,2.470950127E0
2.606209202E1,-3.150000095E0,8.661000252E0,1.108950019E0
2.608212034E1,-3.205050230E0,8.020050049E0,6.040500402E-1
2.610214885E1,-2.866950035E0,7.842000484E0,1.308000088E0
2.612217715E1,-2.307000160E0,7.723050594E0,1.686000109E0
2.614220554E1,-1.548000097E0,7.876050472E0,1.402950048E0
2.616223387E1,-1.183950067E0,8.194050789E0,1.106999993E0
2.618226244E1,-6.139500141E-1,8.565000534E0,6.280500293E-1
2.620229076E1,-1.380000114E-1,8.608050346E0,2.160000056E-1
2.622231917E1,3.499500155E-1,8.443050385E0,3.070500195E-1
2.624234745E1,8.260500431E-1,8.230050087E0,2.929500043E-1
2.626237598E1,1.033950090E0,8.029050827E0,5.200500488E-1
2.628240439E1,1.159050107E0,7.951950550E0,7.399500608E-1
2.630243267E1,9.649500251E-1,8.103000641E0,6.640500426E-1
2.632246123E1,6.010500193E-1,8.166000366E0,7.470000386E-1
2.634248952E1,8.205000311E-2,8.315999985E0,9.340500236E-1
2.636251782E1,-1.690500081E-1,8.482049942E0,9.010500312E-1
2.638254620E1,5.505000427E-2,8.789999962E0,1.135050058E0
2.640257450E1,5.700000525E-1,9.154050827E0,8.380500674E-1
2.642260304E1,8.310000300E-1,9.583050728E0,8.100000620E-1
2.644263136E1,8.119500279E-1,9.925050735E0,7.999500632E-1
2.646265979E1,8.380500674E-1,1.027995014E1,7.879500389E-1
2.648268831E1,6.490500569E-1,1.099800014E1,6.280500293E-1
2.650271662E1,7.300500274E-1,1.165200043E1,5.610000491E-1
2.652274503E1,1.525050044E0,1.215195084E1,6.370500326E-1
2.654277333E1,2.121000051E0,1.248900032E1,8.239500523E-1
2.656280186E1,2.239050150E0,1.271895027E1,2.520000041E-1
2.658283017E1,7.660500407E-1,1.306200027E1,-3.120000064E-1
2.660285858E1,-1.456950068E0,1.366500092E1,-4.579500258E-1
2.662288687E1,-2.764050245E0,1.356900024E1,-1.155000091E0
2.664291518E1,-2.605950117E0,1.093605042E1,-2.017050028E0
2.666294370E1,-2.161050081E0,9.067950249E0,-1.780050039E0
2.668297209E1,-1.854000092E0,8.311950684E0,-2.176950216E0
2.670300039E1,-2.223000050E0,8.302050591E0,-2.331000090E0
2.672302894E1,-1.938000083E0,8.485950470E0,-1.935000062E0
2.674305723E1,-1.665000081E0,8.865000725E0,-1.180950046E0
2.676308561E1,-1.189050078E0,8.947950363E0,-7.960500121E-1
2.678311392E1,-8.800500631E-1,8.695050240E0,-2.020500153E-1
2.680314246E1,-7.630500197E-1,8.290050507E0,1.969500035E-1
2.682317080E1,-1.012050033E0,7.560000420E0,2.470500171E-1
2.684319918E1,-1.414050102E0,7.051950455E0,1.900500059E-1
2.686322774E1,-1.591050029E0,6.940050125E0,-4.395000264E-2
2.688325605E1,-1.938000083E0,7.153050423E0,-5.400000140E-2
2.690328444E1,-1.840050101E0,7.672050476E0,2.895000204E-2
2.692331275E1,-1.603050113E0,8.374050140E0,8.205000311E-2
2.694334128E1,-1.159950018E0,9.211950302E0,-7.304999977E-2
2.696336965E1,-4.950000346E-1,1.000005054E1,-2.500500083E-1
2.698339795E1,4.669500291E-1,1.050000095E1,-9.660000205E-1
2.700342628E1,5.910000205E-1,1.032300091E1,-3.529500067E-1
2.702345481E1,5.910000205E-1,9.930000305E0,5.080500245E-1
2.704348312E1,-2.719500065E-1,9.685950279E0,1.023000002E0
2.706351153E1,-1.159950018E0,1.009500027E1,1.494000077E0
2.708353983E1,-1.825950146E0,1.078995037E1,1.699950099E0
2.710356836E1,-1.972050071E0,1.147695065E1,1.851000071E0
2.712359672E1,-1.866000056E0,1.190295029E1,2.136000156E0
2.714362504E1,-1.680000067E0,1.237905025E1,2.217000008E0
2.716365352E1,-1.282050014E0,1.319805050E1,1.387050033E0
2.718368184E1,-1.609950066E0,1.376805019E1,1.063050032E0
2.720371019E1,-1.954950094E0,1.399095058E1,2.179500163E-1
2.722373848E1,-2.709000111E0,1.272405052E1,-7.690500617E-1
2.724376702E1,-2.812050104E0,1.031595039E1,-5.970000029E-1
2.726379542E1,-2.475000143E0,8.592000008E0,-3.150000274E-1
2.728382374E1,-2.757000208E0,8.062950134E0,9.600000083E-2
2.730385227E1,-2.398050070E0,8.118000031E0,4.480500221E-1
2.732388057E1,-1.593000054E0,8.335950851E0,8.410500288E-1
2.734390887E1,-7.219500542E-1,8.677950859E0,4.579500258E-1
2.736393725E1,-2.500500083E-1,8.950950623E0,3.405000269E-2
2.738396558E1,-2.740500271E-1,8.826000214E0,5.100000277E-2
2.740399410E1,-4.560000300E-1,8.434050560E0,-1.450500041E-1
2.742402243E1,-1.950000077E-1,7.900050163E0,-1.849500090E-1
2.744405082E1,-5.895000324E-2,7.392000198E0,1.060500070E-1
2.746407935E1,-4.395000264E-2,7.114950180E0,3.859500289E-1
2.748410766E1,-3.199500144E-1,7.093050480E0,6.900000572E-1
2.750413608E1,-6.360000372E-1,7.581000328E0,1.003950000E0
2.752416443E1,-5.539500117E-1,8.178000450E0,7.230000496E-1
2.754419294E1,-6.049500108E-1,8.770950317E0,9.750000238E-1
2.756422135E1,-5.140500069E-1,9.162000656E0,7.380000353E-1
2.758424964E1,-3.390000165E-1,9.358050346E0,1.047000051E0
2.760427796E1,-1.159500033E-1,9.673950195E0,1.059000015E0
2.762430650E1,1.005000062E-2,9.897000313E0,1.071000099E0
2.764433485E1,-2.410500050E-1,1.063200092E1,1.605000019E0
2.766436322E1,-2.719500065E-1,1.124895096E1,1.612050056E0
2.768439151E1,-2.790000141E-1,1.139100075E1,1.674000025E0
2.770442004E1,3.109500110E-1,1.137105083E1,1.152000070E0
2.772444842E1,6.730500460E-1,1.131405067E1,7.669500113E-1
2.774447672E1,9.270000458E-1,1.142595100E1,2.299500108E-1
2.776450522E1,9.430500269E-1,1.207005024E1,-3.940500319E-1
2.778453351E1,-1.110000089E-1,1.301100063E1,-9.040500522E-1
2.780456186E1,-2.127000093E0,1.328205109E1,-1.210050106E0
2.782459016E1,-3.382050276E0,1.126605034E1,-1.311000109E0
2.784461872E1,-2.386050224E0,9.645000458E0,-1.423050046E0
2.786464710E1,-2.476950169E0,9.694950104E0,-2.059950113E0
2.788467542E1,-2.833950043E0,1.022895050E1,-2.680050135E0
2.790470371E1,-2.776050091E0,1.049505043E1,-2.863950253E0
2.792473227E1,-1.785000086E0,9.898950577E0,-1.810950041E0
2.794476067E1,-7.510500550E-1,9.010950089E0,-4.060500264E-1
2.796478899E1,-6.360000372E-1,8.671050072E0,2.350500077E-1
2.798481757E1,-6.640500426E-1,8.146050453E0,7.020000219E-1
2.800484583E1,-9.660000205E-1,7.194000244E0,8.890500665E-1
2.802487418E1,-1.512000084E0,6.447000504E0,6.850500107E-1
2.804490252E1,-1.957050085E0,5.917050362E0,1.270500124E-1
2.806493102E1,-2.332950115E0,5.881050110E0,-2.710500062E-1
2.808495938E1,-2.247000217E0,6.298050404E0,-4.270500243E-1
2.810498775E1,-1.873950124E0,7.159950256E0,-4.750500321E-1
2.812501605E1,-1.240950108E0,8.254050255E0,-5.130000114E-1
2.814504458E1,-2.050500065E-1,9.259950638E0,-6.760500073E-1
2.816507297E1,4.189500213E-1,1.015800095E1,-6.810000539E-1
2.818510130E1,9.049500227E-1,1.089000034E1,-7.260000110E-1
2.820512982E1,1.000950098E0,1.127295017E1,-4.219500124E-1
2.822515813E1,4.570500255E-1,1.134495068E1,-9.405000508E-2
2.824518650E1,1.080000028E-1,1.158000088E1,3.379500210E-1
2.826521484E1,-1.780500114E-1,1.185000038E1,1.159050107E0
2.828524315E1,-7.770000100E-1,1.220205021E1,1.854000092E0
2.830527169E1,-1.569000125E0,1.206795025E1,2.248950005E0
2.832530008E1,-2.386050224E0,1.223595047E1,2.304000139E0
2.834532862E1,-2.685000181E0,1.272705078E1,1.839000106E0
2.836535691E1,-2.791050196E0,1.311900043E1,1.267050028E0
2.838538525E1,-3.145050049E0,1.265700054E1,5.680500269E-1
2.840541362E1,-3.577950239E0,1.038705063E1,6.300000548E-1
2.842544192E1,-3.268950224E0,9.098999977E0,3.570000231E-1
2.844547045E1,-2.986950159E0,8.629950523E0,-5.400000140E-2
2.846549873E1,-2.560950041E0,8.191950798E0,4.459500313E-1
2.848552710E1,-1.657950044E0,8.138999939E0,7.690500617E-1
2.850555541E1,-8.010000587E-1,8.710950851E0,9.340500236E-1
2.852558393E1,-2.980500162E-1,9.292950630E0,3.280500174E-1
2.854561222E1,-1.039500013E-1,9.376950264E0,-1.489500105E-1
2.856564060E1,-2.500500083E-1,8.938950539E0,-1.159500033E-1
2.858566890E1,-3.199500144E-1,8.347949982E0,1.420500129E-1
2.860569743E1,-1.999500096E-1,7.900050163E0,4.480500221E-1
2.862572584E1,-5.205000192E-2,7.443000317E0,6.400500536E-1
2.864575417E1,-2.959500253E-1,7.063950539E0,1.126049995E0
2.866578271E1,-5.380499959E-1,7.054950237E0,1.315050006E0
2.868581102E1,-8.149500489E-1,7.363050461E0,1.645050049E0
2.870583932E1,-1.038000107E0,7.846950531E0,1.414950013E0
2.872586771E1,-9.709500670E-1,8.412000656E0,1.186050057E0
2.874589624E1,-7.890000343E-1,8.886000633E0,1.087050080E0
2.876592457E1,-7.304999977E-2,9.154050827E0,1.095000029E0
2.878595294E1,4.210500121E-1,9.583050728E0,1.175999999E0
2.880598126E1,7.395000011E-2,1.017900085E1,1.332000017E0
2.882600981E1,8.400000632E-2,1.064400005E1,1.285950065E0
2.884603815E1,1.129500046E-1,1.121595097E1,1.174050093E0
2.886606655E1,4.170000255E-1,1.147905064E1,7.810500264E-1
2.888609486E1,1.044000030E0,1.200105095E1,2.059500068E-1
2.890612343E1,1.293000102E0,1.266405106E1,-3.889500201E-1
2.892615174E1,4.690500200E-1,1.339200020E1,-8.959500194E-1
2.894618014E1,-1.251000047E0,1.397895050E1,-1.246050000E0
2.896620845E1,-3.139950037E0,1.353105068E1,-1.713000059E0
2.898623699E1,-3.748050213E0,1.058100033E1,-1.183950067E0
2.900626527E1,-4.348950386E0,1.013100052E1,-1.672050118E0
2.902629364E1,-4.240950108E0,1.002300072E1,-2.770950079E0
2.904632218E1,-4.051949978E0,1.013805008E1,-3.325950146E0
2.906635046E1,-2.994000196E0,9.721950531E0,-3.394050121E0
2.908637875E1,-1.572000027E0,9.276000023E0,-2.188950062E0
2.910640716E1,-6.000000238E-1,8.782950401E0,-1.336950064E0
2.912643542E1,-3.919500113E-1,8.263950348E0,-9.780000448E-1
2.914646391E1,-8.610000610E-1,7.696050167E0,-1.469999999E-1
2.916649227E1,-1.186050057E0,6.672000408E0,-9.195000678E-2
2.918652062E1,-2.020050049E0,6.334050179E0,1.729500145E-1
2.920654896E1,-2.565000057E0,5.902950287E0,-3.460500240E-1
2.922657748E1,-2.977050066E0,5.862000465E0,1.249500066E-1
2.924660580E1,-3.360000134E0,6.067950249E0,5.370000005E-1
2.926663416E1,-3.304950237E0,6.621000290E0,5.700000525E-1
2.928666246E1,-2.793000221E0,7.537950516E0,4.030500054E-1
2.930669100E1,-2.127000093E0,8.596950531E0,-1.489500105E-1
2.932671934E1,-1.299000025E0,9.517950058E0,-3.889500201E-1
2.934674765E1,-8.779500127E-1,1.033005047E1,-7.304999977E-2
2.936677619E1,6.195000187E-2,1.125405025E1,1.630500108E-1
2.938680450E1,1.020000100E0,1.222095013E1,1.180500090E-1
2.940683282E1,1.237950087E0,1.267095089E1,6.090000272E-1
2.942686120E1,8.400000334E-1,1.315995026E1,1.131000042E0
2.944688949E1,-2.340000123E-1,1.348500061E1,1.329000115E0
2.946691801E1,-1.309050083E0,1.350705051E1,1.189950109E0
2.948694632E1,-2.629950047E0,1.387800026E1,1.686000109E0
2.950697477E1,-3.552000284E0,1.378200054E1,1.621050119E0
2.952700309E1,-4.288949966E0,1.311405087E1,1.336050034E0
2.954703161E1,-4.759050369E0,1.126395035E1,4.530000091E-1
2.956705991E1,-4.612950325E0,9.135000229E0,6.610500216E-1
2.958708831E1,-4.018949986E0,8.187000275E0,2.760000229E-1
2.960711663E1,-3.942000151E0,7.888050556E0,2.140500098E-1
2.962714519E1,-3.049050093E0,7.420950413E0,9.960000515E-1
2.964717351E1,-1.732050061E0,7.624050140E0,1.138050079E0
2.966720189E1,-6.289500594E-1,8.191950798E0,4.240500331E-1
2.968723020E1,-1.620000005E-1,8.335950851E0,3.520500064E-1
2.970725849E1,2.010000050E-1,7.999950409E0,3.090000153E-1
2.972728706E1,2.800500095E-1,7.933050156E0,-1.039500013E-1
2.974731537E1,4.995000362E-2,7.371000290E0,2.610000074E-1
2.976734376E1,-1.710000038E-1,7.069050312E0,7.210500240E-1
2.978737206E1,-4.110000134E-1,6.778950214E0,3.619500101E-1
2.980740060E1,-6.310500503E-1,6.826950550E0,1.296000004E0
2.982742890E1,-8.029500246E-1,7.384950161E0,1.489950061E0
2.984745728E1,-1.287000060E0,7.975950241E0,1.786950111E0
2.986748560E1,-6.960000396E-1,8.749950409E0,1.578000069E0
2.988751412E1,-6.120000482E-1,9.135000229E0,1.329000115E0
2.990754242E1,-6.019500494E-1,9.424950600E0,1.879950047E0
2.992757082E1,-3.580500185E-1,9.841050148E0,2.008949995E0
2.994759914E1,4.950000439E-3,1.041405010E1,1.933050036E0
2.996762766E1,-5.020500422E-1,1.111800098E1,1.681050062E0
2.998765596E1,-7.789500356E-1,1.159905052E1,1.465950012E0
3.000768426E1,-6.430500150E-1,1.191495037E1,1.339050055E0
3.002771267E1,-5.710500479E-1,1.231200027E1,1.281000018E0
3.004774119E1,7.050000131E-3,1.335105038E1,1.356000066E0
3.006776950E1,-2.569500208E-1,1.446900082E1,1.020000100E0
3.008779778E1,-2.257050037E0,1.378500080E1,4.840500355E-1
3.010782614E1,-3.669000149E0,1.234800053E1,1.800000072E-1
3.012785473E1,-3.850950241E0,1.053300095E1,-2.160000056E-1
3.014788305E1,-3.988050222E0,9.457950592E0,-8.599500656E-1
3.016791144E1,-4.170000076E0,9.235950470E0,-1.396950126E0
3.018793977E1,-4.059000015E0,9.628050804E0,-2.042999983E0
3.020796830E1,-2.542050123E0,9.463050842E0,-2.404950142E0
3.022799659E1,-8.869500160E-1,8.860050201E0,-5.370000005E-1
3.024802489E1,1.560000032E-1,8.524950027E0,-1.279500127E-1
3.026805333E1,7.905000448E-2,8.467050552E0,4.669500291E-1
3.028808164E1,9.300000221E-2,7.567050457E0,7.909500599E-1
3.030811015E1,-8.389500380E-1,6.801000118E0,1.345950007E0
3.032813853E1,-1.621950030E0,6.055950165E0,1.368000031E0
3.034816680E1,-2.062950134E0,5.721000195E0,1.252950072E0
3.036819509E1,-2.695050240E0,5.581950188E0,9.889500737E-1
3.038822362E1,-2.628000021E0,6.217050076E0,7.549500465E-1
3.040825191E1,-2.326050043E0,7.026000500E0,5.820000172E-1
3.042828029E1,-1.675050020E0,7.987950325E0,2.929500043E-1
3.044830861E1,-8.029500246E-1,8.995950699E0,1.300500035E-1
3.046833712E1,2.080500126E-1,1.000395012E1,-7.800000161E-2
3.048836546E1,1.111050010E0,1.090905094E1,-4.905000329E-2
3.050839388E1,1.789050102E0,1.171395016E1,1.849500090E-1
3.052842222E1,2.085000038E0,1.201305103E1,3.760500252E-1
3.054845076E1,9.030000567E-1,1.228395081E1,7.620000243E-1
3.056847906E1,-3.495000303E-2,1.268100071E1,1.003950000E0
3.058850743E1,-9.780000448E-1,1.283400059E1,1.360050082E0
3.060853572E1,-1.267950058E0,1.289895058E1,1.393950105E0
3.062856405E1,-1.579050064E0,1.362900066E1,1.747950077E0
3.064859232E1,-2.161050081E0,1.389705086E1,2.215050220E0
3.066862088E1,-2.746950150E0,1.286100101E1,2.251049995E0
3.068864924E1,-3.889050245E0,1.092600060E1,1.614000082E0
3.070867755E1,-4.227000237E0,9.121050835E0,1.714950085E0
3.072870587E1,-4.408950329E0,8.161050797E0,1.281000018E0
3.074873438E1,-4.074000359E0,8.398050308E0,1.819500029E-1
3.076876268E1,-3.516000271E0,8.248950005E0,1.312050104E0
3.078879106E1,-1.687050104E0,8.079000473E0,1.876950145E0
3.080881937E1,-1.062000036E0,8.518050194E0,1.186050057E0
3.082884789E1,-2.239500135E-1,8.946000099E0,1.162050009E0
3.084887619E1,2.205000073E-2,8.953050613E0,4.720500112E-1
3.086890461E1,2.730000019E-1,8.391000748E0,-4.605000094E-2
3.088893292E1,5.869500041E-1,7.456950188E0,-5.595000088E-2
3.090896127E1,4.669500291E-1,6.742950439E0,3.000000119E-1
3.092898982E1,3.979500234E-1,6.516000271E0,4.360500276E-1
3.094901818E1,1.249500066E-1,6.853950500E0,7.999500632E-1
3.096904648E1,1.009500027E-1,7.453950405E0,1.150050044E0
3.098907479E1,1.630500108E-1,7.936050415E0,1.272000074E0
3.100910330E1,1.129500046E-1,8.386050224E0,1.437000036E0
3.102913157E1,7.200000435E-2,8.824049950E0,1.525950074E0
3.104915994E1,2.250000089E-1,8.977050781E0,2.038050175E0
3.106918826E1,-5.950500369E-1,9.694950104E0,2.596050024E0
3.108921678E1,-5.260500312E-1,1.050495052E1,2.707950115E0
3.110924509E1,-6.105000153E-2,1.122795010E1,2.371050119E0
3.112927349E1,7.050000131E-3,1.161600018E1,1.951950073E0
3.114930179E1,1.309950113E0,1.064595032E1,3.450000286E-1
3.116933034E1,-3.100500107E-1,1.190295029E1,3.157950163E0
3.118935869E1,1.630500108E-1,1.342095089E1,1.201950073E0
3.120938698E1,-1.590000093E-1,1.419405079E1,8.770500422E-1
3.122941534E1,-1.801950097E0,1.375095081E1,7.260000110E-1
3.124944364E1,-3.061050177E0,1.278900051E1,3.480000198E-1
3.126947217E1,-2.427000046E0,1.039500046E1,-1.369500011E-1
3.128950047E1,-2.716050148E0,9.163949966E0,-3.580500185E-1
3.130952889E1,-3.091950178E0,9.067950249E0,-1.441950083E0
3.132955719E1,-3.193050146E0,9.310050011E0,-2.254050016E0
3.134958550E1,-2.266050100E0,9.628050804E0,-2.196000099E0
3.136961405E1,-1.003950000E0,9.304950714E0,-3.220500052E-1
3.138964232E1,-2.910000086E-1,9.264000893E0,5.179499984E-1
3.140967070E1,-2.890500128E-1,9.067950249E0,1.360050082E0
3.142969901E1,-6.739500165E-1,8.287950516E0,2.056950092E0
3.144972732E1,-1.581000090E0,7.287000179E0,2.208000183E0
3.146975583E1,-1.620000124E0,6.492000103E0,1.972950101E0
3.148978417E1,-2.119950056E0,5.821950436E0,1.638000131E0
3.150981253E1,-2.008050203E0,5.668050289E0,1.183050036E0
3.152984086E1,-1.945050120E0,6.135000229E0,1.003950000E0
3.154986941E1,-1.572000027E0,6.853950500E0,5.200500488E-1
3.156989778E1,-9.450000525E-1,7.810950279E0,1.510500014E-1
3.158992613E1,-1.020000055E-1,8.785950661E0,-3.310500085E-1
3.160995449E1,7.900500298E-1,9.655050278E0,-3.619500101E-1
3.162998280E1,1.530000091E0,1.033695030E1,-2.500500083E-1
3.165001134E1,2.203050137E0,1.121100044E1,1.800000072E-1
3.167003966E1,2.392050028E0,1.175895023E1,2.419500053E-1
3.169006796E1,1.168050051E0,1.235805035E1,3.859500289E-1
3.171009636E1,4.330500066E-1,1.291095066E1,8.500500321E-1
3.173012465E1,-1.690500081E-1,1.316895103E1,1.078050017E0
3.175015316E1,-4.180500209E-1,1.342800045E1,1.462950110E0
3.177018149E1,-7.669500113E-1,1.427100086E1,1.795950055E0
3.179020990E1,-1.275000095E0,1.421100044E1,2.292000055E0
3.181023820E1,-2.175000191E0,1.328700066E1,2.188950062E0
3.183026675E1,-3.085050106E0,1.149300098E1,1.486950040E0
3.185029505E1,-3.109050035E0,9.528000832E0,1.068000078E0
3.187032336E1,-3.126000166E0,8.275950432E0,6.250500083E-1
3.189035167E1,-2.734950066E0,7.858950138E0,3.570000231E-1
3.191038007E1,-2.635050058E0,7.438050270E0,1.119000077E0
3.193040856E1,-2.395050049E0,7.143000126E0,1.417950034E0
3.195043685E1,-1.300950050E0,7.504950523E0,9.580500722E-1
3.197046524E1,-9.490500689E-1,7.600950241E0,1.114050031E0
3.199049352E1,-7.840500474E-1,7.696050167E0,6.880500317E-1
3.201052182E1,-5.299500227E-1,7.713000298E0,6.490500569E-1
3.203055033E1,-7.950000465E-3,7.798950195E0,3.840000033E-1
3.205057865E1,5.560500026E-1,7.711050510E0,2.880000174E-1
3.207060694E1,8.190000653E-1,7.633950233E0,4.480500221E-1
3.209063532E1,9.000000358E-1,7.753950596E0,6.919500232E-1
3.211066367E1,7.140000463E-1,8.209050179E0,9.510000348E-1
3.213069220E1,4.380000234E-1,8.845950127E0,9.990000725E-1
3.215072053E1,1.219500080E-1,9.187950134E0,1.186050057E0
3.217074891E1,-2.239500135E-1,9.334050179E0,1.333950043E0
3.219077722E1,-3.750000298E-1,9.312000275E0,1.645050049E0
3.221080554E1,-4.560000300E-1,9.468000412E0,1.810050130E0
3.223083408E1,-4.800000191E-1,9.808050156E0,1.980000138E0
3.225086240E1,-7.030500174E-1,1.064400005E1,2.386950016E0
3.227089077E1,-6.409500241E-1,1.139100075E1,2.641050100E0
3.229091908E1,-2.650500238E-1,1.163205051E1,2.590950012E0
3.231094738E1,1.150500029E-1,1.163205051E1,2.100000143E0
3.233097568E1,5.910000205E-1,1.172805023E1,1.729050040E0
3.235100423E1,6.390000582E-1,1.271895027E1,1.320000052E0
3.237103261E1,4.290000200E-1,1.398105049E1,7.999500632E-1
3.239106095E1,-1.206000090E0,1.386405087E1,3.210000098E-1
3.241108926E1,-2.472000122E0,1.300695038E1,-4.750500321E-1
3.243111781E1,-2.380950212E0,1.099995041E1,-9.630000591E-1
3.245114611E1,-2.094000101E0,8.935950279E0,-5.400000215E-1
3.247117439E1,-2.166000128E0,8.083950043E0,-8.100000620E-1
3.249120278E1,-2.202000141E0,8.200950623E0,-1.426050067E0
3.251123111E1,-2.163000107E0,8.371050835E0,-1.243950009E0
3.253125961E1,-1.354050040E0,8.587050438E0,-5.279999971E-1
3.255128792E1,-9.280500412E-1,8.773950577E0,6.000000238E-2
3.257131629E1,-8.080500364E-1,8.917050362E0,9.169500470E-1
3.259134451E1,-9.250500202E-1,8.518050194E0,1.770000100E0
3.261137292E1,-1.467000127E0,7.545000553E0,2.502000093E0
3.263140149E1,-2.134950161E0,6.775050163E0,2.952000141E0
3.265142980E1,-2.587050200E0,6.289050102E0,2.646000147E0
3.267145817E1,-2.803050041E0,6.187950134E0,2.016000032E0
3.269148652E1,-2.308950186E0,6.343950272E0,1.542000055E0
3.271151484E1,-2.023950100E0,6.892050266E0,1.387050033E0
3.273154315E1,-1.372950077E0,7.612050533E0,4.939500093E-1
3.275157170E1,-6.120000482E-1,8.380949974E0,-1.710000038E-1
3.277160002E1,2.899500132E-1,9.312000275E0,-4.609500170E-1
3.279162840E1,1.092000008E0,1.010505009E1,-8.530500531E-1
3.281165672E1,1.908000112E0,1.093095016E1,-7.099500299E-1
3.283168502E1,2.643000126E0,1.170900059E1,-2.400000095E-1
3.285171352E1,2.449050188E0,1.243395042E1,6.090000272E-1
3.287174186E1,8.020500541E-1,1.264995098E1,1.104000092E0
3.289177023E1,-5.230500102E-1,1.302105045E1,1.131000042E0
3.291179854E1,-1.105050087E0,1.326000023E1,1.521000028E0
3.293182682E1,-6.570000052E-1,1.367895031E1,1.485000014E0
3.295185536E1,-6.379500031E-1,1.412700081E1,1.966050148E0
3.297188365E1,-1.420950055E0,1.405995083E1,2.461950064E0
3.299191195E1,-2.527050018E0,1.282695103E1,1.906050086E0
3.301194035E1,-3.966000080E0,1.088505077E1,1.126049995E0
3.303196868E1,-4.351950169E0,9.126000404E0,1.213950038E0
3.305199716E1,-4.699050426E0,8.302050591E0,1.027950048E0
3.307202544E1,-4.917000294E0,7.624050140E0,1.368000031E0
3.309205376E1,-4.258049965E0,6.988050461E0,2.124000072E0
3.311208216E1,-3.135000229E0,7.216950417E0,1.674000025E0
3.313211045E1,-1.941000104E0,7.579050541E0,1.054050088E0
3.315213877E1,-8.269500136E-1,7.990950584E0,5.490000248E-1
3.317216730E1,2.950500250E-1,8.332950592E0,6.660000086E-1
3.319219557E1,1.080000043E0,8.320950508E0,3.720000088E-1
3.321222398E1,1.948950052E0,8.130000114E0,-2.500500083E-1
3.323225233E1,2.185950041E0,7.557000160E0,1.300500035E-1
3.325228060E1,1.389000058E0,7.117050171E0,2.520000041E-1
3.327230914E1,7.489500642E-1,7.033050537E0,4.410000145E-1
3.329233746E1,1.129500046E-1,7.390050411E0,8.170500398E-1
3.331236576E1,-4.390500188E-1,7.888050556E0,1.248000026E0
3.333239414E1,-3.960000277E-1,8.437950134E0,1.498950124E0
3.335242247E1,-1.590000093E-1,9.075000763E0,1.651950121E0
3.337245101E1,1.099500060E-1,9.801000595E0,1.296000004E0
3.339247930E1,7.210500240E-1,1.013595009E1,1.498950124E0
3.341250761E1,1.290000081E-1,1.080405045E1,1.959000111E0
3.343253594E1,-4.009500146E-1,1.129200077E1,2.074050188E0
3.345256432E1,-5.950500369E-1,1.155300045E1,1.600050092E0
3.347259264E1,-6.000000238E-1,1.143405056E1,1.681050062E0
3.349262118E1,3.660000265E-1,1.182405090E1,1.224000096E0
3.351264948E1,5.560500026E-1,1.330395031E1,6.640500426E-1
3.353267781E1,1.770000011E-1,1.429500103E1,6.300000548E-1
3.355270620E1,-1.573950052E0,1.394505024E1,1.200000048E-1
3.357273452E1,-3.736050129E0,1.311405087E1,4.770000279E-1
3.359276282E1,-2.878950119E0,1.057395077E1,-8.505000174E-2
3.361279136E1,-2.554050207E0,9.015000343E0,-7.304999977E-2
3.363281966E1,-3.387000084E0,8.518050194E0,-7.050000429E-1
3.365284803E1,-4.141050339E0,8.905050278E0,1.695000008E-2
3.367287635E1,-4.495050430E0,9.126000404E0,-5.520000458E-1
3.369290467E1,-3.954000235E0,8.845950127E0,-9.060000181E-1
3.371293299E1,-2.058000088E0,8.596950531E0,-2.505000122E-2
3.373296149E1,-1.431000113E0,8.376000404E0,6.760500073E-1
3.375298981E1,-1.165050030E0,8.110050201E0,1.320000052E0
3.377301819E1,-1.195950031E0,7.648050308E0,2.019000053E0
3.379304651E1,-1.321050048E0,7.225050449E0,2.644050121E0
3.381307483E1,-1.693950057E0,6.952050209E0,2.584050179E0
3.383310337E1,-1.786950111E0,6.805950165E0,2.028000116E0
3.385313166E1,-2.002950191E0,6.940050125E0,1.846050143E0
3.387315995E1,-1.581000090E0,7.276950359E0,9.559500217E-1
3.389318830E1,-1.215000033E0,7.564950466E0,4.530000091E-1
3.391321668E1,-5.539500117E-1,7.948050499E0,2.205000073E-2
3.393324522E1,-1.620000005E-1,8.524950027E0,-5.659500360E-1
3.395327352E1,5.295000225E-2,9.339000702E0,-3.310500085E-1
3.397330186E1,5.029500127E-1,1.021005058E1,1.319999993E-1
3.399333023E1,1.312050104E0,1.103895092E1,2.730000019E-1
3.401335853E1,1.245000005E0,1.191195011E1,6.210000515E-1
3.403338683E1,7.020000219E-1,1.281705093E1,8.890500665E-1
3.405341514E1,1.819500029E-1,1.362705040E1,1.153950095E0
3.407344364E1,-1.759500057E-1,1.382805061E1,1.798050046E0
3.409347195E1,-7.909500599E-1,1.408395100E1,2.263050079E0
3.411350025E1,-1.510050058E0,1.465095043E1,2.500050068E0
3.413352860E1,-2.083950043E0,1.420095062E1,2.715000153E0
3.415355685E1,-3.637950182E0,1.299000072E1,2.719950199E0
3.417358516E1,-5.182050228E0,1.036305046E1,2.296050072E0
3.419361371E1,-4.924050331E0,7.651050568E0,1.846050143E0
3.421364201E1,-5.067000389E0,6.628050327E0,1.963950038E0
3.423367040E1,-5.271000385E0,6.681000233E0,1.966050148E0
3.425369872E1,-3.834000111E0,6.946950436E0,1.968000054E0
3.427372701E1,-2.982000113E0,7.159950256E0,1.801050067E0
3.429375536E1,-1.756050110E0,7.738950253E0,1.171050072E0
3.431378393E1,-8.610000610E-1,8.242050171E0,3.190500140E-1
3.433381225E1,3.600000218E-2,8.437950134E0,2.539499998E-1
3.435384061E1,9.100500345E-1,8.412000656E0,1.500000060E-2
3.437386891E1,1.783950090E0,8.089050293E0,3.195000067E-2
3.439389723E1,2.017950058E0,7.510050297E0,2.659500241E-1
3.441392555E1,1.462950110E0,7.033050537E0,6.280500293E-1
3.443395405E1,7.380000353E-1,7.074000359E0,6.780000329E-1
3.445398236E1,-8.295000345E-2,7.512000561E0,1.405950069E0
3.447401063E1,-4.830000103E-1,8.029050827E0,1.291050076E0
3.449403903E1,-7.099500299E-1,8.424000740E0,1.684050083E0
3.451406731E1,-5.689499974E-1,8.809950829E0,1.918050051E0
3.453409585E1,-1.639500111E-1,9.079950333E0,2.155050039E0
3.455412415E1,2.509500086E-1,9.442049980E0,2.179050207E0
3.457415250E1,2.560500205E-1,9.931950569E0,2.272950172E0
3.459418088E1,3.795000166E-2,1.074900055E1,1.743000031E0
3.461420920E1,-3.769500256E-1,1.189305019E1,1.317000031E0
3.463423751E1,-1.759500057E-1,1.267395020E1,1.144950032E0
3.465426581E1,6.390000582E-1,1.300395107E1,7.740000486E-1
3.467429436E1,1.141950011E0,1.422300053E1,8.260500431E-1
3.469432267E1,6.730500460E-1,1.507005024E1,7.399500608E-1
3.471435097E1,-2.332950115E0,1.407705021E1,9.100500345E-1
3.473437936E1,-4.210050106E0,1.318095016E1,8.580000401E-1
3.475440766E1,-4.735050201E0,1.035405064E1,7.620000243E-1
3.477443599E1,-4.726950169E0,8.601000786E0,2.850000262E-1
3.479446455E1,-4.653000355E0,8.833950043E0,-5.299500227E-1
3.481449289E1,-4.668000221E0,9.288000107E0,-9.370500445E-1
3.483452120E1,-3.175950050E0,9.552000046E0,-1.015950084E0
3.485454960E1,-1.548000097E0,9.288000107E0,3.600000218E-2
3.487457789E1,-2.070000172E-1,8.878950119E0,7.950000167E-1
3.489460623E1,1.680000126E-1,8.296950340E0,1.719000101E0
3.491463453E1,-4.369500279E-1,7.261050224E0,2.371050119E0
3.493466301E1,-1.264950037E0,6.322050095E0,2.596050024E0
3.495469138E1,-1.603050113E0,5.818950176E0,1.971000075E0
3.497471965E1,-2.403000116E0,5.340000153E0,1.485000014E0
3.499474798E1,-2.545950174E0,5.565000057E0,1.119000077E0
3.501477630E1,-2.737950087E0,6.040050507E0,1.284000039E0
3.503480462E1,-2.130000114E0,6.942000389E0,9.220500588E-1
3.505483315E1,-1.627050042E0,7.846950531E0,8.740500212E-1
3.507486149E1,-7.549500465E-1,8.833950043E0,6.040500402E-1
3.509488982E1,-1.570500135E-1,9.990000725E0,5.580000281E-1
3.511491820E1,9.270000458E-1,1.093305016E1,2.250000089E-1
3.513494650E1,1.698000073E0,1.157295036E1,4.189500213E-1
3.515497479E1,2.410950184E0,1.194405079E1,4.600500166E-1
3.517500334E1,1.993950129E0,1.215405083E1,1.411050081E0
3.519503163E1,2.869500220E-1,1.229595089E1,1.537950039E0
3.521505996E1,-9.370500445E-1,1.226895046E1,2.014050007E0
3.523508831E1,-1.729950070E0,1.213305092E1,2.397000074E0
3.525511663E1,-1.885950089E0,1.279395103E1,2.275050163E0
3.527514493E1,-1.948050141E0,1.349295044E1,2.526000023E0
3.529517326E1,-2.281050205E0,1.336605072E1,3.039000034E0
3.531520183E1,-4.189050198E0,1.239105034E1,3.003000259E0
3.533523011E1,-5.410050392E0,1.009305000E1,2.823000193E0
3.535525843E1,-5.347950459E0,8.059950829E0,1.968000054E0
3.537528681E1,-5.158050060E0,7.917000294E0,9.919500351E-1
3.539531514E1,-4.146000385E0,7.957050323E0,1.006049991E0
3.541534341E1,-3.010950089E0,7.861050606E0,2.076000214E0
3.543537194E1,-1.996050119E0,8.311950684E0,1.738950133E0
3.545540023E1,-1.339950085E0,8.877000809E0,7.950000167E-1
3.547542852E1,-1.999500096E-1,9.264000893E0,3.019500077E-1
3.549545684E1,5.869500041E-1,9.291000366E0,-2.700000070E-2
3.551548521E1,1.161000013E0,8.745000839E0,6.000000238E-2
3.553551352E1,1.567950130E0,7.705950260E0,2.400000095E-1
3.555554182E1,7.279500365E-1,6.672000408E0,8.340000510E-1
3.557557038E1,1.290000081E-1,6.271950245E0,9.270000458E-1
3.559559868E1,-2.530499995E-1,6.432000160E0,8.910000324E-1
3.561562700E1,-5.059500337E-1,6.970950127E0,1.614000082E0
3.563565530E1,-7.320000529E-1,7.545000553E0,1.593000054E0
3.565568366E1,-8.440500498E-1,8.043000221E0,2.103000164E0
3.567571198E1,-3.820500076E-1,8.563050270E0,2.110050201E0
3.569574031E1,-1.210500076E-1,9.034950256E0,2.143050194E0
3.571576884E1,1.960500032E-1,9.918000221E0,2.196000099E0
3.573579713E1,-1.305000018E-2,1.093605042E1,2.506950140E0
3.575582544E1,-2.410500050E-1,1.199595070E1,2.364000082E0
3.577585375E1,-6.070500016E-1,1.229595089E1,2.176950216E0
3.579588214E1,1.290000081E-1,1.204200077E1,1.702950120E0
3.581591048E1,4.860000312E-1,1.227900028E1,1.602000117E0
3.583593879E1,8.400000334E-1,1.349700069E1,8.959500194E-1
3.585596730E1,-2.839500010E-1,1.411305046E1,1.116000056E0
3.587599561E1,-2.101050138E0,1.402905083E1,9.580500722E-1
3.589602394E1,-3.966000080E0,1.286295033E1,8.170500398E-1
3.591605230E1,-3.528000116E0,9.679050446E0,9.289500713E-1
3.593608060E1,-3.463050127E0,8.364000320E0,7.000500560E-1
3.595610902E1,-3.190050125E0,8.419050217E0,-8.989500403E-1
3.597613733E1,-3.102000237E0,9.087000847E0,-1.524000049E0
3.599616565E1,-2.428950071E0,9.484950066E0,-1.579050064E0
3.601619422E1,-1.536000013E0,9.370050430E0,-6.259500384E-1
3.603622251E1,-5.299500227E-1,8.890950203E0,5.490000248E-1
3.605625079E1,-4.009500146E-1,8.403000832E0,1.131000042E0
3.607627906E1,-5.110500455E-1,7.789950371E0,1.723950028E0
3.609630744E1,-9.420000315E-1,7.191000462E0,1.887000084E0
3.611633578E1,-1.354050040E0,6.739050388E0,1.642950058E0
3.613636408E1,-1.617000103E0,6.490050316E0,1.470000029E0
3.615639259E1,-1.818000078E0,6.448950291E0,1.320000052E0
3.617642087E1,-1.878000140E0,6.730950356E0,1.174050093E0
3.619644919E1,-1.821000099E0,7.117050171E0,1.018050075E0
3.621647757E1,-1.440000057E0,7.842000484E0,6.210000515E-1
3.623650590E1,-9.060000181E-1,8.733000755E0,3.160500228E-1
3.625653420E1,4.305000231E-2,9.636000633E0,3.600000218E-2
3.627656247E1,1.180050015E0,1.064595032E1,-2.209500074E-1
3.629659076E1,2.131050110E0,1.109400082E1,-2.040000111E-1
3.631661908E1,2.820000172E0,1.119405079E1,2.205000073E-2
3.633664760E1,1.621050119E0,1.123500061E1,3.910500109E-1
3.635667589E1,4.240500331E-1,1.186005020E1,5.970000029E-1
3.637670428E1,-9.709500670E-1,1.168500042E1,1.249950051E0
3.639673259E1,-1.174050093E0,1.201095104E1,1.581000090E0
3.641676092E1,-1.195950031E0,1.290795040E1,2.170050144E0
3.643678924E1,-1.585950017E0,1.395705032E1,2.545050144E0
3.645681780E1,-2.424000025E0,1.420395088E1,3.088950157E0
3.647684612E1,-4.045050144E0,1.316205025E1,3.088950157E0
3.649687446E1,-5.371050358E0,1.067205048E1,2.830050230E0
3.651690278E1,-5.223000050E0,8.082000732E0,2.131050110E0
3.653693119E1,-4.878000259E0,7.347000122E0,1.233000040E0
3.655695952E1,-4.146000385E0,7.366050243E0,1.207050085E0
3.657698780E1,-3.022950172E0,7.597950459E0,1.861050129E0
3.659701608E1,-2.137050152E0,7.990950584E0,1.441950083E0
3.661704440E1,-1.464000106E0,8.637000084E0,6.439500451E-1
3.663707294E1,-6.550500393E-1,9.262050629E0,2.250000089E-1
3.665710123E1,1.459500045E-1,9.363000870E0,5.595000088E-2
3.667712962E1,1.051050067E0,8.785950661E0,2.209500074E-1
3.669715783E1,1.216050029E0,7.905000210E0,3.049500287E-1
3.671718618E1,7.879500389E-1,7.296000481E0,3.690000176E-1
3.673721448E1,4.789500237E-1,7.015950203E0,3.600000143E-1
3.675724281E1,1.339500099E-1,7.095000267E0,6.760500073E-1
3.677727134E1,-2.740500271E-1,7.315950394E0,1.106999993E0
3.679729962E1,-5.879999995E-1,7.522050381E0,1.393950105E0
3.681732792E1,-7.320000529E-1,8.089050293E0,1.570950031E0
3.683735621E1,-5.710500479E-1,8.707050323E0,1.492050052E0
3.685738460E1,-6.739500165E-1,9.336000443E0,1.972950101E0
3.687741295E1,-2.530499995E-1,9.661950111E0,2.332050085E0
3.689744128E1,2.560500205E-1,1.031595039E1,2.620050192E0
3.691746960E1,-3.700500131E-1,1.062000084E1,2.517000198E0
3.693749814E1,-6.960000396E-1,1.097595024E1,2.002050161E0
3.695752646E1,-6.600000262E-1,1.130895042E1,1.561050057E0
3.697755484E1,-5.419500470E-1,1.183800030E1,1.516050100E0
3.699758308E1,-3.130500019E-1,1.332705021E1,1.281000018E0
3.701761137E1,-1.024049997E0,1.512105083E1,9.439500570E-1
3.703763968E1,-2.272950172E0,1.575300121E1,3.690000176E-1
3.705766798E1,-4.201050282E0,1.396695042E1,5.200500488E-1
3.707769648E1,-3.708000183E0,1.062195015E1,5.539500117E-1
3.709772479E1,-4.866000175E0,8.319000244E0,4.950000439E-3
3.711775311E1,-4.986000061E0,8.287950516E0,-4.459500313E-1
3.713778148E1,-3.787050247E0,8.500950813E0,-1.693950057E0
3.715780979E1,-2.551050186E0,8.677950859E0,-1.629000068E0
3.717783811E1,-1.306050062E0,8.625000000E0,2.700000070E-2
3.719786670E1,-4.009500146E-1,8.857050896E0,5.539500117E-1
3.721789504E1,-8.700000495E-2,8.556000710E0,1.377000093E0
3.723792336E1,-7.939500213E-1,7.813950539E0,2.656050205E0
3.725795175E1,-1.368000031E0,7.006950378E0,2.818050146E0
3.727798005E1,-1.996050119E0,6.400950432E0,1.939950109E0
3.729800838E1,-2.415000200E0,6.220950127E0,1.642950058E0
3.731803668E1,-2.611050129E0,6.214050293E0,1.216950059E0
3.733806523E1,-1.905000091E0,6.727050304E0,6.520500183E-1
3.735809362E1,-9.919500351E-1,7.324950218E0,1.009500027E-1
3.737812190E1,-9.000000358E-2,8.379000664E0,2.449500114E-1
3.739815020E1,8.170500398E-1,9.430050850E0,1.110000089E-1
3.741817850E1,1.318950057E0,1.027200031E1,2.539499998E-1
3.743820680E1,1.744950056E0,1.052100086E1,5.560500026E-1
3.745823534E1,1.137000084E0,1.053300095E1,1.377000093E0
3.747826364E1,1.440000087E-1,1.054800034E1,1.554000020E0
3.749829202E1,-7.390500307E-1,1.088805008E1,2.011950016E0
3.751832031E1,-1.024049997E0,1.141905022E1,2.161950111E0
3.753834861E1,-9.520500302E-1,1.204200077E1,1.627950072E0
3.755837714E1,-8.659500480E-1,1.245105076E1,2.055000067E0
3.757840542E1,-3.919500113E-1,1.374195099E1,2.365950108E0
3.759843374E1,-4.129500091E-1,1.433505058E1,2.869050026E0
3.761846216E1,-1.267950058E0,1.390905094E1,3.079050064E0
3.763849046E1,-2.973000050E0,1.279605103E1,2.521950006E0
3.765851898E1,-1.825950146E0,9.631050110E0,1.060500070E-1
3.767854729E1,-5.577000141E0,8.058000565E0,3.970050097E0
3.769857561E1,-5.182050228E0,6.766950130E0,1.485000014E0
3.771860392E1,-5.316000462E0,6.424950123E0,1.462950110E0
3.773863230E1,-4.447050095E0,7.015950203E0,2.890050173E0
3.775866064E1,-3.217050076E0,7.668000221E0,1.882050037E0
3.777868916E1,-2.142000198E0,8.290050507E0,1.327050090E0
3.779871746E1,-1.141050100E0,8.824049950E0,1.039950013E0
3.781874574E1,-2.620500028E-1,9.067950249E0,3.600000143E-1
3.783877413E1,4.549500346E-1,8.713950157E0,4.950000439E-3
3.785880245E1,9.480000734E-1,7.948050499E0,-1.710000038E-1
3.787883099E1,8.719500303E-1,7.198050499E0,4.050000310E-1
3.789885931E1,3.499500155E-1,7.090950489E0,1.024950027E0
3.791888773E1,2.730000019E-1,7.428000450E0,9.370500445E-1
3.793891602E1,3.600000218E-2,7.984050274E0,9.960000515E-1
3.795894433E1,-2.100000083E-1,8.292000771E0,1.468050122E0
3.797897286E1,-4.990500212E-1,8.608050346E0,1.771950126E0
3.799900119E1,-4.200000167E-1,9.171000481E0,1.681050062E0
3.801902946E1,1.150500029E-1,9.589950562E0,1.681050062E0
3.803905787E1,9.289500713E-1,1.004700089E1,1.831950068E0
3.805908616E1,1.225950003E0,1.044195080E1,1.822050095E0
3.807911468E1,4.840500355E-1,1.087305069E1,1.810050130E0
3.809914300E1,-1.780500114E-1,1.153395081E1,1.470000029E0
3.811917132E1,-3.250500262E-1,1.210200024E1,1.363050103E0
3.813919971E1,-8.779500127E-1,1.359105110E1,1.494000077E0
3.815922802E1,-8.440500498E-1,1.437600040E1,7.860000134E-1
3.817925653E1,-1.720050097E0,1.462005043E1,9.130500555E-1
3.819928483E1,-4.372950077E0,1.339005089E1,1.492050052E0
3.821931320E1,-4.165050030E0,1.090905094E1,8.430000544E-1
3.823934150E1,-4.464000225E0,9.030000687E0,-5.595000088E-2
3.825936981E1,-4.723050117E0,8.577000618E0,-9.559500217E-1
3.827939831E1,-4.653000355E0,8.877000809E0,-1.372950077E0
3.829942665E1,-4.416000366E0,9.315000534E0,-1.324950099E0
3.831945496E1,-2.791050196E0,9.487050056E0,-3.460500240E-1
3.833948335E1,-1.134000063E0,9.286050797E0,-1.540500075E-1
3.835951188E1,-8.440500498E-1,9.085050583E0,1.627950072E0
3.837954018E1,-1.189050078E0,8.485950470E0,2.344050169E0
3.839956851E1,-1.198050022E0,7.102950573E0,2.608050108E0
3.841959688E1,-2.009999990E0,6.456000328E0,3.457950115E0
3.843962519E1,-2.632950068E0,5.521950245E0,3.012000084E0
3.845965350E1,-3.061050177E0,5.584950447E0,2.206050158E0
3.847968204E1,-2.901000023E0,5.910000324E0,1.461000085E0
3.849971041E1,-2.685000181E0,6.511050224E0,1.012950063E0
3.851973880E1,-2.388000011E0,7.443000317E0,2.710500062E-1
3.853976713E1,-1.687050104E0,8.362050056E0,-3.100500107E-1
3.855979568E1,-5.950500369E-1,9.292950630E0,-3.480000198E-1
3.857982400E1,6.589500308E-1,1.002300072E1,-1.570500135E-1
3.859985242E1,1.630950093E0,1.072305012E1,-3.979500234E-1
3.861988075E1,2.230950117E0,1.128300095E1,-2.830500007E-1
3.863990926E1,3.400050163E0,1.176405048E1,-3.900000080E-2
3.865993752E1,1.128000021E0,1.170705032E1,6.640500426E-1
3.867996583E1,-4.630500078E-1,1.188600063E1,1.063050032E0
3.869999413E1,-1.423050046E0,1.215405083E1,1.131000042E0
3.872002251E1,-1.087950110E0,1.270995045E1,9.580500722E-1
3.874005082E1,-9.330000281E-1,1.368705082E1,1.719000101E0
3.876007937E1,-1.435050011E0,1.402200031E1,2.292000055E0
3.878010768E1,-2.077050209E0,1.356705093E1,3.151050091E0
3.880013606E1,-3.466050148E0,1.241805077E1,2.626950026E0
3.882016436E1,-4.617000103E0,1.031595039E1,2.068950176E0
3.884019291E1,-5.020050049E0,8.611050606E0,1.356000066E0
3.886022123E1,-5.521950245E0,7.974000454E0,6.970500350E-1
3.888024962E1,-6.217050076E0,7.840050220E0,1.126049995E0
3.890027792E1,-5.688000202E0,7.536000252E0,2.020950079E0
3.892030642E1,-3.111000061E0,7.918950558E0,1.264950037E0
3.894033470E1,-2.127000093E0,8.163000107E0,5.010000467E-1
3.896036308E1,-1.117050052E0,8.271000862E0,4.740000367E-1
3.898039138E1,-3.529500067E-1,8.194050789E0,2.350500077E-1
3.900041971E1,5.650500059E-1,7.962000370E0,-2.449500114E-1
3.902044797E1,1.279050112E0,7.510050297E0,-3.550500274E-1
3.904047650E1,1.609050035E0,7.126050472E0,-2.670000196E-1
3.906050479E1,1.197000027E0,6.952050209E0,2.700000070E-2
3.908053318E1,6.559500098E-1,7.171950340E0,3.790500164E-1
3.910056152E1,-1.605000161E-2,7.545000553E0,9.100500345E-1
3.912059007E1,-7.770000100E-1,7.869000435E0,9.720000625E-1
3.914061836E1,-9.330000281E-1,8.359050751E0,1.308000088E0
3.916064675E1,-8.419500589E-1,9.079950333E0,1.450950027E0
3.918067506E1,-1.900500059E-1,9.829950333E0,1.456050038E0
3.920070360E1,1.720500141E-1,1.038495064E1,1.540050030E0
3.922073191E1,1.440000087E-1,1.077000046E1,1.369950056E0
3.924076034E1,-1.159500033E-1,1.120905018E1,1.159050107E0
3.926078866E1,-4.200000316E-2,1.168005085E1,9.490500689E-1
3.928081694E1,4.309500158E-1,1.187895012E1,5.749500394E-1
3.930084523E1,7.210500240E-1,1.271700096E1,2.449500114E-1
3.932087379E1,5.629500151E-1,1.403100109E1,-3.405000269E-2
3.934090210E1,-8.920500278E-1,1.404600048E1,-2.280000150E-1
3.936093048E1,-3.055950165E0,1.295895100E1,-1.159500033E-1
3.938095879E1,-3.973050117E0,1.130400085E1,-1.830000132E-1
3.940098732E1,-4.438050270E0,1.014795017E1,-9.280500412E-1
3.942101560E1,-4.768050194E0,1.003305054E1,-1.255950093E0
3.944104401E1,-4.806000233E0,1.029600048E1,-1.768050075E0
3.946107234E1,-3.934950113E0,1.045200062E1,-1.971000075E0
3.948110086E1,-2.143949986E0,1.015305042E1,-1.207950115E0
3.950112920E1,-7.290000319E-1,9.382050514E0,-6.349500418E-1
3.952115760E1,5.029500127E-1,8.467050552E0,-1.330500096E-1
3.954118592E1,-3.000000119E-2,7.416000366E0,7.549500465E-1
3.956121445E1,-6.169500351E-1,6.523050308E0,1.237950087E0
3.958124277E1,-1.332000017E0,5.791050434E0,1.351050019E0
3.960127115E1,-1.687050104E0,5.403000355E0,1.261950016E0
3.962129935E1,-2.282999992E0,5.296950340E0,1.353000045E0
3.964132777E1,-2.463000059E0,5.764050484E0,1.351050019E0
3.966135605E1,-2.548950195E0,6.528000355E0,9.220500588E-1
3.968138459E1,-2.323950052E0,7.354050159E0,1.042050004E0
3.970141288E1,-1.555050015E0,8.071949959E0,5.200500488E-1
3.972144126E1,-1.066950083E0,8.785950661E0,6.540000439E-1
3.974146956E1,-9.495000541E-2,9.757950783E0,7.330500484E-1
3.976149812E1,5.940000415E-1,1.090500069E1,7.090500593E-1
3.978152642E1,1.357950091E0,1.188900089E1,6.760500073E-1
3.980155480E1,1.366950035E0,1.233405018E1,1.486950040E0
3.982158312E1,1.990500093E-1,1.279095078E1,1.978050113E0
3.984161164E1,-1.099950075E0,1.307400036E1,2.122050047E0
3.986163996E1,-1.486050129E0,1.300905037E1,2.478000164E0
3.988166835E1,-1.728000045E0,1.360800076E1,2.404050112E0
3.990169665E1,-2.034000158E0,1.385205078E1,2.392050028E0
3.992172496E1,-2.302050114E0,1.300905037E1,2.341950178E0
3.994175329E1,-3.412950277E0,1.123695087E1,1.815000057E0
3.996178181E1,-4.234050274E0,9.682950020E0,1.699950099E0
3.998181020E1,-4.471050262E0,8.689949989E0,1.075049996E0
4.000183851E1,-4.876049995E0,8.376000404E0,5.940000415E-1
4.002186682E1,-5.245050430E0,7.914000511E0,6.640500426E-1
4.004189532E1,-3.928050280E0,7.978950500E0,1.593000054E0
4.006192364E1,-2.848050117E0,8.254050255E0,1.066050053E0
4.008195204E1,-1.825950146E0,8.620050430E0,4.360500276E-1
4.010198034E1,-7.579500079E-1,8.877000809E0,3.190500140E-1
4.012200886E1,1.890000105E-1,8.841000557E0,4.605000094E-2
4.014203717E1,1.008000016E0,8.509950638E0,-4.320000112E-1
4.016206555E1,1.671000123E0,7.894950390E0,-5.250000358E-1
4.018209384E1,1.410000086E0,7.279950142E0,-2.860500216E-1
4.020212215E1,8.209500313E-1,6.913050175E0,-1.230000034E-1
4.022215067E1,3.660000265E-1,6.952050209E0,3.049500287E-1
4.024217902E1,1.560000032E-1,7.380000114E0,2.449500114E-1
4.026220732E1,-8.700000495E-2,7.966950417E0,6.730500460E-1
4.028223586E1,1.560000032E-1,8.545949936E0,8.530500531E-1
4.030226415E1,4.210500121E-1,9.001049995E0,1.008000016E0
4.032229247E1,7.639500499E-1,9.403050423E0,1.204950094E0
4.034232079E1,6.229500175E-1,9.736050606E0,1.162050009E0
4.036234918E1,4.069500268E-1,1.028895092E1,1.087050080E0
4.038237774E1,1.890000105E-1,1.084200096E1,1.054050088E0
4.040240605E1,4.605000094E-2,1.156095028E1,1.075049996E0
4.042243437E1,4.999500215E-1,1.244895077E1,1.012950063E0
4.044246277E1,1.293000102E0,1.313400078E1,7.549500465E-1
4.046249109E1,1.458000064E0,1.393305111E1,2.160000056E-1
4.048251962E1,5.770500302E-1,1.475700092E1,-5.279999971E-1
4.050254793E1,-1.596000075E0,1.473495102E1,-1.026000023E0
4.052257634E1,-3.115950108E0,1.359300041E1,-8.580000401E-1
4.054260462E1,-3.049050093E0,1.092600060E1,-7.000500560E-1
4.056263317E1,-3.198000193E0,8.977050781E0,-4.920000136E-1
4.058266146E1,-3.040050030E0,8.161050797E0,-1.108950019E0
4.060268985E1,-3.126000166E0,8.259000778E0,-1.131000042E0
4.062271808E1,-2.737950087E0,8.605950356E0,-1.471050024E0
4.064274647E1,-1.858950138E0,8.575050354E0,-6.760500073E-1
4.066277503E1,-9.949500561E-1,8.343000412E0,4.095000029E-2
4.068280333E1,-7.699500322E-1,8.107950211E0,5.940000415E-1
4.070283164E1,-7.000500560E-1,7.657950401E0,1.380000114E0
4.072286000E1,-1.138950109E0,7.158000469E0,2.083050013E0
4.074288830E1,-1.585950017E0,6.763050556E0,2.299050093E0
4.076291683E1,-1.933050036E0,6.624000549E0,2.026050091E0
4.078294516E1,-2.215950012E0,6.697950363E0,1.810050130E0
4.080297353E1,-2.343000174E0,7.047000408E0,1.545000076E0
4.082300188E1,-2.149049997E0,7.486050129E0,1.174050093E0
4.084303045E1,-1.443000078E0,8.059950829E0,9.919500351E-1
4.086305877E1,-7.390500307E-1,8.701950073E0,6.160500050E-1
4.088308715E1,-1.189500093E-1,9.319950104E0,7.620000243E-1
4.090311549E1,4.500000179E-1,9.916050911E0,8.380500674E-1
4.092314378E1,7.039500475E-1,1.054500008E1,7.879500389E-1
4.094317231E1,7.969500422E-1,1.088100052E1,1.675950050E0
4.096320070E1,1.150500029E-1,1.086900043E1,2.038050175E0
4.098322898E1,-9.490500689E-1,1.125900078E1,2.032950163E0
4.100325725E1,-1.579050064E0,1.161795044E1,2.236950159E0
4.102328577E1,-1.564950109E0,1.177095032E1,2.341950178E0
4.104331409E1,-1.657950044E0,1.250895023E1,2.514000177E0
4.106334240E1,-2.056050062E0,1.374600029E1,2.416050196E0
4.108337078E1,-2.869950056E0,1.410300064E1,2.548050165E0
4.110339911E1,-4.488000393E0,1.330095100E1,2.622000217E0
4.112342763E1,-5.707050323E0,1.077000046E1,2.971950054E0
4.114345595E1,-5.190000057E0,8.641950607E0,2.557050228E0
4.116348433E1,-4.759050369E0,8.260950089E0,1.231050014E0
4.118351262E1,-4.477950096E0,8.302050591E0,1.459050059E0
4.120354114E1,-3.435000181E0,8.569950104E0,1.875000119E0
4.122356945E1,-2.308950186E0,9.001049995E0,1.231050014E0
4.124359785E1,-1.243950009E0,9.202050209E0,9.510000348E-1
4.126362617E1,-3.870000243E-1,8.998950005E0,6.400500536E-1
4.128365471E1,-6.599999964E-2,8.403000832E0,5.460000038E-1
4.130368303E1,3.979500234E-1,7.806000233E0,2.110500038E-1
4.132371134E1,6.109500527E-1,7.306050301E0,6.000000238E-2
4.134373975E1,6.180000305E-1,6.894000530E0,1.230000034E-1
4.136376807E1,4.099500179E-1,6.822000504E0,3.690000176E-1
4.138379663E1,4.210500121E-1,7.231950283E0,2.689500153E-1
4.140382489E1,6.919500232E-1,7.645950317E0,3.910500109E-1
4.142385319E1,4.450500309E-1,7.993050575E0,9.750000238E-1
4.144388157E1,3.690000176E-1,8.331000328E0,1.210050106E0
4.146390987E1,6.180000305E-1,8.563050270E0,1.719000101E0
4.148393838E1,6.079500318E-1,9.098999977E0,1.717050076E0
4.150396669E1,9.480000734E-1,9.964050293E0,1.600050092E0
4.152399506E1,1.063050032E0,1.063905048E1,1.854000092E0
4.154402336E1,3.330000043E-1,1.074195004E1,1.801050067E0
4.156405190E1,5.220000148E-1,1.115805054E1,1.212000012E0
4.158408021E1,9.070500135E-1,1.167795086E1,8.310000300E-1
4.160410858E1,1.279050112E0,1.226400089E1,7.309500575E-1
4.162413690E1,6.820500493E-1,1.325295067E1,8.959500194E-1
4.164416523E1,-2.860500216E-1,1.371795082E1,1.387050033E0
