"Time (s)","Acceleration x (m/s^2)","Acceleration y (m/s^2)","Acceleration z (m/s^2)"
0.000000000E0,-2.992224693E0,3.641875982E0,9.676275253E0
2.151864500E-2,-4.455136776E0,3.445365429E0,9.365208626E0
4.322661400E-2,-4.433601379E0,3.601198196E0,8.697012901E0
6.493833300E-2,-3.815953970E0,4.458127499E0,8.843274117E0
8.665010400E-2,-2.041975021E0,4.067798615E0,7.344470024E0
1.083618750E-1,-2.563610315E0,4.340879440E0,5.852844238E0
1.300736450E-1,-3.327518940E0,4.360022068E0,6.302993774E0
1.513620310E-1,-3.631407499E0,4.273880482E0,7.466504097E0
1.726481770E-1,-3.346661568E0,4.307379723E0,7.612466335E0
1.939343230E-1,-3.104687452E0,4.747958183E0,7.516753197E0
2.152204160E-1,-2.855833769E0,4.692624092E0,7.464111328E0
2.365065620E-1,-3.401696444E0,4.683053017E0,7.138687134E0
2.577927080E-1,-3.296412230E0,4.273880482E0,6.511169434E0
2.790788540E-1,-3.282055378E0,4.786243439E0,6.925426960E0
3.003649480E-1,-2.872583628E0,4.881956577E0,7.478467941E0
3.216510930E-1,-2.369791746E0,4.869992256E0,6.506383896E0
3.429372390E-1,-2.606980324E0,4.980062008E0,6.269494534E0
3.642233850E-1,-2.650051117E0,4.884349346E0,6.326921940E0
3.855095310E-1,-2.132902384E0,3.598805189E0,7.820940971E0
4.067956250E-1,-4.546063900E0,2.868396044E0,9.353244781E0
4.280817700E-1,-3.167199850E0,2.913859844E0,1.144786167E1
4.493679160E-1,-4.862215519E0,4.446163654E0,1.127079296E1
4.706540620E-1,-2.800798893E0,2.511865616E0,1.063639545E1
4.919401560E-1,-1.790429592E0,2.796611547E0,1.114636612E1
5.132263020E-1,2.188535452E0,1.295115203E-1,1.034417248E1
5.345124480E-1,-1.129711390E0,-5.403292656E0,1.022692394E1
5.557985930E-1,-3.282055378E0,-1.156032443E0,9.894321442E0
5.770847390E-1,-2.733799934E0,-3.739383698E0,1.249890900E1
5.983708330E-1,-3.399303675E0,-4.331009090E-1,1.457468319E1
6.196569790E-1,1.187737346E0,2.219642162E0,1.553240967E1
6.409431250E-1,7.663911819E0,-3.275175989E-1,1.441914940E1
6.622292700E-1,1.184387398E1,-7.441678643E-1,2.661715984E0
6.835153640E-1,3.019443035E0,1.783849239E0,-2.641377211E0
7.048015100E-1,6.909574509E0,-2.964109182E-1,5.826523304E0
7.260876560E-1,1.269392395E1,-2.276471615E0,7.715656757E0
7.473738020E-1,1.036929703E1,-1.630110383E0,1.044227791E1
7.686599480E-1,1.082154083E1,-3.787240028E0,1.210379410E1
7.899460410E-1,7.771588802E0,-4.550849438E0,1.219023514E1
8.112321870E-1,5.540281773E0,-3.171985626E0,6.092425346E0
8.325183330E-1,6.543472767E0,-4.162913322E0,6.338886261E0
8.538044790E-1,7.577770233E0,-1.833500385E0,1.280309677E1
8.750906250E-1,1.138415241E1,-7.633104324E-1,7.832904816E0
8.963767700E-1,6.677470684E0,2.497508526E0,1.804487348E0
9.176629160E-1,5.580959797E0,5.092525005E0,4.160221100E0
9.389490620E-1,5.339284420E0,7.594520092E0,9.867701530E0
9.602351560E-1,6.794719219E0,7.886444569E0,5.378766060E0
9.815213020E-1,7.479365349E0,7.115656376E0,2.355135679E0
1.002807448E0,7.661519051E0,1.484148216E1,-1.097767162E1
1.024093593E0,1.471197128E1,1.222941780E1,-2.274976015E0
1.045379739E0,9.364909530E-1,7.426723480E0,2.039283037E0
1.066665885E0,-2.980260611E0,4.767100811E0,-2.524128675E0
1.087952031E0,-9.302098304E-2,8.575277925E-1,-2.526521683E0
1.109238177E0,3.498007536E0,4.776672363E0,-9.098110199E0
1.130524323E0,4.462913513E0,1.287338543E1,-9.795019150E0
1.151810468E0,6.969096065E-1,6.134000778E0,-1.031186962E1
1.173096614E0,-8.680562019E0,-2.629113793E-1,-1.371177101E1
1.194382760E0,2.901297510E-1,6.636792660E0,-1.604836273E1
1.215668906E0,6.519544601E0,6.323033810E0,-1.273250866E1
1.236955052E0,-1.002891779E0,2.535793781E0,-6.186942101E0
1.258241198E0,1.175474152E-1,5.128417015E0,-2.662912607E0
1.279527343E0,5.449354649E0,4.369593143E0,-5.404190063E0
1.300813489E0,1.845464408E-1,4.163810730E0,-6.538986206E0
1.322099635E0,-1.306780219E0,6.067001820E0,-1.155464172E1
1.343385781E0,-6.891329288E-1,5.968895912E0,-1.491595936E1
1.364671927E0,1.702493310E0,3.802195072E0,-1.156421280E1
1.385958125E0,2.461616278E0,6.165107727E0,-8.700901031E0
1.407244270E0,2.207678080E0,2.245963097E0,-7.159026146E0
1.428530416E0,2.296212435E0,3.526721478E0,-9.122037888E0
1.449816614E0,2.126322031E0,9.631709099E0,-7.582854748E0
1.471102760E0,8.862416744E-1,4.764708042E0,-8.820542336E0
1.492388906E0,2.839682341E0,3.802195072E0,-1.037198925E1
1.513675104E0,-1.153639674E0,5.793920994E0,-7.774280548E0
1.534961250E0,2.494517565E-1,6.229713917E0,-7.271489143E0
1.556247395E0,2.880360365E0,4.431806564E0,-7.338488102E0
1.577533593E0,5.123631477E0,1.226022482E0,-1.297179031E1
1.598819739E0,-2.635694027E0,7.412366390E0,-9.258728027E0
1.620105937E0,-9.741778970E-1,6.308676720E0,-4.685744762E0
1.641392083E0,1.850848317E0,6.976872444E0,-1.448016644E1
1.662678281E0,1.633101463E0,7.771588802E0,-2.491855621E1
1.683964427E0,4.663910389E0,9.303893089E0,-3.054228783E1
1.705250625E0,1.289252853E1,1.866940117E1,5.036592484E0
1.726536823E0,1.177926731E1,2.174118614E1,1.380658627E0
1.747822968E0,8.796315193E0,1.983291054E1,6.094818592E0
1.769109166E0,8.468199730E0,1.476700592E1,1.328016520E0
1.790395364E0,3.021835804E0,9.358927727E0,2.539382935E0
1.811681562E0,4.456632137E-1,4.376771927E0,3.535395384E0
1.832967708E0,-3.780061483E0,2.980858803E0,1.569990754E0
1.854253906E0,-7.275377274E0,5.542674541E0,4.179363728E0
1.875540104E0,-4.259224236E-1,2.186142683E0,-2.947658300E0
1.896826302E0,-6.963114142E-1,-3.541377485E-1,-1.008455086E1
1.918112500E0,-7.313662529E0,5.270192027E-1,-5.892624855E0
1.939398698E0,-3.928416491E0,1.625923038E0,1.567597985E0
1.960684895E0,-1.073779166E-1,3.634697676E0,-8.401499748E0
1.981971093E0,-2.781656265E0,8.808279037E0,-1.064716339E1
2.003257291E0,1.822134495E0,8.966205597E0,-6.117550373E0
2.024543437E0,3.416651726E0,4.226023674E0,-2.260619164E0
2.045829687E0,6.667899609E0,3.261118174E0,-4.657031059E0
2.067115885E0,4.623232365E0,2.933002472E0,2.807678223E0
2.088402083E0,7.568199158E0,2.535853577E1,9.178269386E0
2.109688281E0,1.332592869E1,1.007946587E1,-2.306770706E1
2.130974479E0,-3.056830883E0,4.649553299E0,-7.668996811E0
2.152260677E0,-8.196912766E0,-6.101697683E-1,5.120341301E0
2.173546927E0,-1.558325768E0,1.420439339E1,-5.514259815E0
2.194833125E0,-2.951546669E0,8.645566940E0,4.725226402E0
2.216119323E0,-8.158627510E0,7.829016685E0,1.195304680E1
2.237405520E0,-5.694918036E-1,1.147777176E1,-5.057829022E-1
2.258691770E0,5.497210979E0,7.388438225E0,-4.568496704E0
2.279977968E0,6.129215240E0,5.466104031E0,9.547362328E-1
2.301264166E0,3.787838221E0,9.378069878E0,-3.455235958E0
2.322550416E0,5.190630436E0,6.260820389E0,-5.538187981E0
2.343836614E0,-3.686442375E0,6.258427620E0,1.983949065E0
2.365122864E0,-7.452445984E0,6.014359951E0,-5.186143875E0
2.386409062E0,-7.031010151E0,6.284748554E0,-4.800899506E0
2.407695260E0,4.695914388E-1,9.164810181E0,-1.139880848E1
2.428981510E0,-4.127020836E0,5.308177948E0,-1.042941666E1
2.450267708E0,-7.198806763E0,8.772386551E0,-9.576973915E0
2.471553958E0,-1.426421404E0,8.563912392E0,-1.112363434E1
2.492840208E0,2.578864574E0,8.583054543E0,-4.736293316E0
2.514126406E0,6.797111988E0,4.867599487E0,-2.835195780E0
2.535412656E0,1.041775107E0,6.363711834E0,-8.801400185E0
2.556698854E0,-1.931516266E1,9.734601021E0,-1.228953743E1
2.577985104E0,-9.034998894E0,5.590530872E0,-1.514327717E1
2.599271354E0,5.940182209E0,5.387141228E0,-1.217468166E1
2.620557552E0,1.115683460E1,1.262213898E1,-1.128634644E1
2.641843802E0,-2.834298372E0,5.691029549E0,3.573680639E0
2.663130052E0,-6.195616245E0,7.575377464E0,6.891927242E0
2.684416302E0,2.799004316E0,1.116879845E1,1.057627559E0
2.705702500E0,9.598209381E0,9.622138023E0,-4.223930359E0
2.726988750E0,3.447758436E0,9.488140106E0,2.546561480E0
2.748275000E0,-2.077867270E0,8.123632431E0,3.611965895E0
2.769561250E0,-3.473481178E0,1.580608940E1,-4.139882088E0
2.790847500E0,1.017846942E0,8.111668587E0,-3.658924818E0
2.812133750E0,-1.517647743E0,7.453044415E0,-1.001396298E0
2.833420000E0,-4.390530586E0,1.086700439E1,-6.203691959E0
2.854706198E0,-3.461517096E0,7.553842068E0,-1.086969566E1
2.875992448E0,1.007468033E1,-4.516452923E-2,-1.036720276E1
2.897278698E0,1.125733280E1,8.547162056E0,-3.431307554E0
2.918564948E0,9.428318977E0,4.419842720E0,8.479266167E0
2.939851198E0,5.322535038E0,1.137218857E1,6.310172558E0
2.961137448E0,1.390289783E1,7.151548862E0,-3.797708750E0
2.982423698E0,6.334998131E0,1.049850941E1,-4.944468975E0
3.003709948E0,1.532602906E0,1.028046322E1,-6.124728680E0
3.024996198E0,-2.525325298E0,6.907181740E0,-4.613960266E0
3.046282448E0,-4.141377926E0,8.374878883E0,-7.118348122E0
3.067568698E0,-9.147461891E0,9.485747337E0,-8.992825508E0
3.088855000E0,-5.666502953E0,6.174678802E0,-1.408983707E1
3.110141250E0,-1.656431437E0,1.190369415E1,-1.013479996E1
3.131427500E0,-5.278566837E0,6.691827774E0,1.172483087E0
3.152713750E0,3.945764542E0,6.940680981E0,3.885046721E0
3.174000000E0,1.423550034E1,1.505922890E1,-7.474579811E-1
3.195286250E0,1.952662849E1,4.053441525E0,3.181257725E0
3.216572500E0,4.484448910E0,-1.620539188E0,9.619147182E-1
3.237858802E0,4.386343002E0,3.627519131E0,-4.008276939E0
3.259145052E0,8.449056625E0,6.727719784E0,-1.776012802E1
3.280431302E0,-7.752745152E-1,1.135783195E1,-1.660858154E1
3.301717552E0,-1.080897808E1,1.134347439E1,-9.857233047E0
3.323003802E0,-1.236760330E1,7.421937466E0,-4.520640373E0
3.344290104E0,-4.026522160E0,1.566969776E1,-1.188245773E1
3.365576354E0,1.462612897E-1,1.987538338E0,-6.330511570E0
3.386862604E0,-2.653042078E-1,9.100203514E0,-8.386843204E-1
3.408148854E0,1.230598736E1,7.896015644E0,-5.528616905E0
3.429435156E0,-1.002891779E0,8.382058144E0,5.213362575E-1
3.450721406E0,2.923431158E0,5.607280731E0,4.351946115E-1
3.472007656E0,3.184547901E0,9.289535522E0,1.354337573E0
3.493293958E0,6.541079998E0,8.063512802E0,-2.184048891E0
3.514580208E0,7.525127888E0,5.564209938E0,-3.809672832E0
3.535866458E0,4.386343002E0,8.571090698E0,-4.350749969E0
3.557152760E0,-4.658526421E0,9.981360435E0,-4.527818680E0
3.578439010E0,-6.935297489E0,8.281558990E0,-5.090431213E0
3.599725260E0,-1.831107497E0,1.168355465E1,-9.150752068E0
3.621011562E0,5.078167915E0,7.539484978E0,-7.273881912E0
3.642297812E0,6.011966705E0,6.241677761E0,-4.889433861E0
3.663584114E0,4.338486671E0,1.047218800E1,-2.358724833E0
3.684870364E0,-2.362613201E0,1.361785316E1,7.773682475E-1
3.706156666E0,-1.809572101E0,3.275475025E0,3.568894863E0
3.727442916E0,8.164310455E0,1.186062336E1,-2.906980515E0
3.748729166E0,9.708279610E0,6.555436611E0,-4.534996986E0
3.770015468E0,1.678565025E0,1.442483234E1,-2.799303293E0
3.791301718E0,1.910967946E0,9.308678627E0,-2.911766052E0
3.812588020E0,1.701895148E-1,1.138175964E1,-4.172484577E-1
3.833874270E0,9.293124676E-1,1.088883877E1,4.847559452E0
3.855160573E0,4.383950233E0,1.311506081E1,3.080460072E0
3.876446823E0,1.829312921E0,1.751306915E1,3.585644722E0
3.897733125E0,-7.250252366E-1,1.268913841E1,4.328017831E-1
3.919019375E0,-2.752942562E0,1.443679619E1,-5.584250093E-1
3.940305677E0,-5.903392792E0,6.574579239E0,1.812563092E-1
3.961591927E0,-6.980761051E0,7.541877747E0,-8.291130662E-1
3.982878229E0,-2.094617128E0,1.051047325E1,-2.772982359E0
4.004164479E0,3.174976587E0,2.411067963E0,-6.450451851E0
4.025450781E0,6.979265213E0,5.595316887E0,-5.902195930E0
4.046737031E0,1.317278767E1,5.262415409E0,-6.644270420E0
4.068023333E0,1.557877064E1,2.875574589E0,-2.083550215E0
4.089309583E0,1.884437561E1,9.792327881E0,-6.665805817E0
4.110595885E0,9.507282257E0,7.939086437E0,-2.054836512E0
4.131882187E0,2.988037348E0,9.952646255E0,5.129912853E0
4.153168437E0,-3.899702787E0,9.681958199E0,-5.273182988E-1
4.174454739E0,-2.307578325E0,9.725028992E0,-7.793423176E0
4.195740989E0,9.045168877E0,1.258385468E1,-5.382654667E0
4.217027291E0,-3.308376312E0,1.118794155E1,-4.753043175E0
4.238313593E0,-4.924428940E0,9.145667076E0,4.141078472E0
4.259599843E0,1.893919110E0,1.137697411E1,1.371087432E0
4.280886145E0,-1.630110383E0,5.779563904E0,3.418147087E0
4.302172395E0,9.854540825E0,7.204190731E0,-1.298106313E-1
4.323458698E0,6.198606968E0,5.702993870E0,-2.174477577E0
4.344745000E0,1.982752681E0,1.055832958E1,-5.047360420E0
4.366031250E0,1.032203913E0,1.134347439E1,-7.376772881E0
4.387317552E0,-4.651348114E0,6.519544601E0,-2.835195780E0
4.408603854E0,1.182233810E1,8.815457344E0,-9.902696609E0
4.429890104E0,-4.131806374E0,8.063512802E0,-1.573580027E0
4.451176406E0,3.574577808E0,9.090632439E0,-1.413260818E0
4.472462656E0,9.601201117E-2,9.859326363E0,-1.947159410E0
4.493748958E0,-1.134497046E0,1.113769245E1,-3.225524902E0
4.515035260E0,-3.152543783E0,1.038126087E1,6.290132403E-1
4.536321562E0,-3.291626692E0,1.004596710E1,4.255934238E0
4.557607812E0,-5.216353536E-1,8.161917686E0,3.075674295E0
4.578894114E0,2.442174673E0,7.278368473E0,-6.067300797E0
4.600180416E0,-8.566305041E-1,8.961420059E0,-9.414261818E0
4.621466666E0,-2.494218588E0,4.996811867E0,-1.982842445E1
4.642752968E0,-4.761717021E-1,1.216959667E1,-1.111406326E1
4.664039270E0,6.450152397E0,9.528818130E0,-1.324726391E1
4.685325520E0,-2.183151484E0,1.011535835E1,-4.052843451E-1
4.706611823E0,-4.354937077E-1,1.172662544E1,-4.058526516E0
4.727898125E0,1.941177398E-1,1.234666538E1,3.137887716E0
4.749184427E0,8.758029938E0,9.078668594E0,9.858429432E-1
4.770470677E0,5.094917774E0,5.557031631E0,8.515457511E-1
4.791756979E0,3.834498227E-1,1.030678463E1,3.293720484E0
4.813043281E0,-1.145563871E-1,1.094865894E1,-2.825624466E0
4.834329583E0,-6.238687038E0,1.041954613E1,2.453241348E0
4.855615833E0,-3.882952929E0,1.060379314E1,-4.812863827E0
4.876902135E0,-2.429612398E0,7.070192814E0,-6.179763794E0
4.898188437E0,-2.156830549E0,6.208178520E0,-4.515854359E0
4.919474687E0,4.648058116E-1,1.058943653E1,-3.656532049E0
4.940760989E0,5.497210979E0,3.792623997E0,-8.590532303E0
4.962047291E0,-6.364908218E-1,4.910670280E0,3.538386524E-1
4.983333593E0,4.082155228E0,8.769993782E0,-4.324428558E0
5.004619843E0,-3.411267757E0,9.279964447E0,1.788634956E-1
5.025906145E0,-5.503492355E-1,9.526425362E0,-7.920242786E0
5.047192448E0,-7.387840003E-2,8.748458862E0,-3.790530205E0
5.068478750E0,-4.211367965E-1,6.052644730E0,-8.880363464E0
5.089765052E0,-4.790132046E0,1.052961636E1,-2.339582443E0
5.111051302E0,-9.068797827E-1,8.753244400E0,-5.016253471E0
5.132337604E0,-1.480558962E-1,5.820241928E0,-9.426225662E0
5.153623906E0,-2.362613201E0,4.846064091E0,-9.787840843E0
5.174910208E0,1.637887120E0,4.168596268E0,-1.207418346E1
5.196196458E0,2.492722988E0,5.200201988E0,-9.275477409E0
5.217482760E0,3.924229145E0,3.900300980E0,-9.605687141E0
5.238769062E0,1.417747378E0,8.846564293E0,-6.280261993E0
5.260055364E0,2.535793781E0,4.613661289E0,-1.088913727E1
5.281341666E0,-3.251247704E-1,7.120441914E0,-6.586842537E0
5.302627968E0,-3.344268799E0,9.895218849E0,-2.038086653E0
5.323914218E0,-2.372184515E0,1.197308636E1,-2.897409201E0
5.345200520E0,-7.210771084E0,1.260060406E1,-4.527818680E0
5.366486823E0,-6.557231426E0,6.991229534E0,-6.790232658E0
5.387773125E0,-3.787240028E0,9.696315765E0,-5.176572800E0
5.409059427E0,1.623530149E0,7.534699440E0,-6.316154480E0
5.430345729E0,1.951645970E0,1.091755199E1,-1.034895778E-1
5.451631979E0,4.802993298E0,6.653542519E0,-2.627020121E0
5.472918281E0,4.934598446E0,1.045783138E1,-2.093121529E0
5.494204583E0,3.447758436E0,8.355736732E0,-2.030908108E0
5.515490885E0,5.528317451E0,6.062216282E0,-2.255833626E0
5.536777187E0,1.575673699E0,5.219344616E0,-1.487438321E0
5.558063489E0,1.714457393E0,7.139584541E0,-6.285048008E0
5.579349791E0,-3.049652576E0,1.255962658E1,-3.833600998E0
5.600636093E0,-6.053841114E-1,8.202595711E0,-8.980861664E0
5.621922343E0,-3.969094515E0,5.449354649E0,-6.768697262E0
5.643208645E0,-6.040082455E0,7.797909737E0,-1.683649778E0
5.664494948E0,-3.523730516E0,8.094919205E0,-3.122633457E0
5.685781250E0,-4.850251675E0,5.382355213E0,4.490729809E0
5.707067552E0,3.897907972E0,9.263215065E0,-8.181359291E0
5.728353854E0,2.432603359E0,5.671886921E0,-6.658627033E0
5.749640156E0,1.700100541E0,6.246463299E0,-1.123849010E1
5.770926458E0,-6.963114142E-1,9.976574898E0,-8.109575272E0
5.792212760E0,6.035895348E-1,8.664710045E0,-8.140681267E0
5.813499062E0,3.038585663E0,6.033502102E0,-4.408177376E0
5.834785364E0,1.743171334E0,9.466604233E0,-2.512164593E0
5.856071666E0,1.127916813E0,8.487341881E0,2.130210400E0
5.877357968E0,1.779063582E0,4.245166302E0,-9.713364601E0
5.898644218E0,-3.435195923E0,1.445115280E1,2.319243431E0
5.919930520E0,3.349652529E0,3.981656790E0,-9.885947227E0
5.941216823E0,-2.307578325E0,1.145145130E1,-2.928216755E-1
5.962503125E0,-1.905285001E0,6.431009769E0,-6.155835152E0
5.983789427E0,-1.251745343E0,1.480558968E1,-4.192823410E0
6.005075729E0,1.494317770E0,1.671386600E0,-9.208478928E0
6.026362031E0,2.733799815E-1,7.896015644E0,-5.732006550E0
6.047648333E0,2.712862730E0,9.631709099E0,-6.390331745E0
6.068934635E0,1.752742529E0,9.028418541E0,-7.779066563E0
6.090220937E0,1.697707653E0,9.485747337E0,-2.387438774E0
6.111507239E0,-1.318744421E0,8.997312546E0,-2.526521683E0
6.132793541E0,-6.191428751E-2,6.828218460E0,-5.746363640E0
6.154079843E0,-4.955535889E0,8.051548958E0,-1.609472275E0
6.175366145E0,3.284149170E-1,6.988836765E0,-9.778269768E0
6.196652448E0,1.295414329E0,5.592923641E0,-4.975575447E0
6.217938750E0,4.960919380E0,2.971287489E0,-1.369980717E1
6.239225052E0,3.675375462E0,9.531210899E0,-9.304191589E0
6.260511354E0,5.605186820E-1,7.185048103E0,-9.009575844E0
6.281797656E0,-7.776673436E-1,8.781958580E0,-3.371487141E0
6.303083958E0,9.987043738E-1,4.642374992E0,-8.250751495E0
6.324370260E0,3.909872293E0,1.117119122E1,-7.846065521E0
6.345656562E0,4.182952881E0,7.486543655E0,-9.059824944E0
6.366942864E0,9.843474030E-1,6.756433964E0,-5.361119270E0
6.388229166E0,-4.337888241E0,4.934598446E0,-3.881457329E0
6.409515468E0,-1.981855392E0,5.837290764E0,-5.612365723E0
6.430801770E0,-5.067998409E0,1.074975586E1,-1.345962733E-1
6.452088125E0,2.006680965E0,1.015603638E1,-7.484450340E0
6.473374427E0,2.255534410E0,6.892824650E0,-2.806481838E0
6.494660729E0,3.328117132E0,5.933003902E0,-4.558925152E0
6.515947031E0,2.490330219E0,9.071489334E0,-1.923231244E0
6.537233333E0,1.099202871E0,1.059661484E1,-4.365106583E0
6.558519635E0,-6.340979934E-1,7.130013466E0,-2.799303293E0
6.579805937E0,4.791627228E-1,6.038288116E0,-3.072384357E0
6.601092239E0,-9.861420393E-1,1.211934757E1,-3.717848063E-1
6.622378541E0,-5.431707501E-1,9.581459999E0,-1.468295813E0
6.643664843E0,4.671088696E0,4.438984871E0,-3.716352701E0
6.664951145E0,-3.612264872E0,9.327820778E0,2.867498875E0
6.686237448E0,2.720041037E0,3.586841106E0,-8.418249130E0
6.707523802E0,-2.827120066E0,5.671886921E0,-8.279465675E0
6.728810104E0,1.221236825E0,7.649554729E0,-1.135813046E1
6.750096406E0,-1.740180254E0,6.679863453E0,-8.803792953E0
6.771382708E0,-2.221436739E0,4.525126934E0,-1.306032467E1
6.792669010E0,-3.104687452E0,8.039585114E0,-8.554639816E0
6.813955312E0,-1.977069736E0,5.305785179E0,-1.064237785E1
6.835241614E0,-2.877369165E0,4.517948151E0,-6.991528511E0
6.856527968E0,2.205285072E0,5.123631477E0,-1.245942783E1
6.877814270E0,1.446461320E0,9.744172096E0,-6.033801556E0
6.899100573E0,2.284248352E0,6.270391941E0,-5.648257732E0
6.920386875E0,3.198904753E0,5.346463203E0,-6.694519520E0
6.941673177E0,4.757529736E0,6.696613312E0,2.987139940E0
6.962959479E0,5.025525570E0,4.663910389E0,-7.036992073E0
6.984245833E0,4.432703853E-1,1.063490009E1,-1.511366606E0
7.005532135E0,4.432703853E-1,7.549056530E0,-4.808077812E0
7.026818437E0,2.068894386E0,5.992824078E0,-5.346762180E0
7.048104739E0,4.935196638E-1,3.308974504E0,-8.983254433E0
7.069391041E0,1.869990945E0,4.762315273E0,-1.197817135E1
7.090677395E0,4.073780477E-1,1.056790161E1,-8.415856361E0
7.111963698E0,-1.364207983E0,6.368497372E0,-1.189442253E1
7.133250000E0,-1.146461129E0,7.352545738E0,-1.133659554E1
7.154536302E0,1.374676585E0,1.062772179E1,-1.176521015E1
7.175822656E0,2.509472847E0,5.743671417E0,-1.028794098E1
7.197108958E0,1.850848317E0,9.684351921E0,-3.577269793E0
7.218395260E0,4.271487713E0,5.384748459E0,-1.171735382E1
7.239681562E0,2.685943544E-1,9.483354568E0,-1.513759375E0
7.260967916E0,1.453639746E0,4.417449474E0,6.149853230E0
7.282254218E0,8.542376518E0,1.350748420E0,-1.531316757E1
7.303540520E0,-6.460621357E-1,1.456361580E1,2.156531334E0
7.324826823E0,4.283451557E0,7.762017727E0,-1.705394554E1
7.346113177E0,-8.469993591E0,1.340728474E1,9.480064392E0
7.367399479E0,1.068096161E0,3.871587038E0,-1.213400364E1
7.388685781E0,-2.453540564E0,1.448943806E1,3.375076294E0
7.409972135E0,3.198904753E0,7.019943237E0,-1.014676476E1
7.431258437E0,-1.887338907E-1,1.491565990E1,3.839582920E0
7.452544739E0,5.796613097E-1,8.214560509E0,-8.870791435E0
7.473831093E0,-9.597611427E0,1.348146152E1,1.463211060E1
7.495117395E0,8.602197647E0,3.308974504E0,-2.137029839E1
7.516403698E0,-5.118247509E0,1.529133320E1,-2.184048891E0
7.537690052E0,1.024696350E1,9.052347183E0,-1.328794193E1
7.558976354E0,-5.896214008E0,1.128604698E1,-3.567698479E0
7.580262656E0,-1.491326690E0,1.229880905E1,-3.996312857E0
7.601549010E0,4.911268353E-1,1.526979733E1,-8.650651932E0
7.622835312E0,7.953144312E-1,8.322237015E0,-1.660618973E1
7.644121614E0,9.245268703E-1,7.230511665E0,-4.668995380E0
7.665407968E0,6.770790577E0,7.395616531E0,-1.667797470E1
7.686694270E0,-3.676871061E0,2.023999023E1,1.163958645E1
7.707980625E0,4.901099205E0,-9.646066427E-1,-1.688854218E1
7.729266927E0,-9.030213356E0,2.281855583E1,6.772286415E0
7.750553229E0,-1.933998942E0,-3.380161047E0,-1.373091316E1
7.771839583E0,3.184547901E0,-6.557231426E0,-3.840779543E0
7.793125885E0,1.141047382E1,-4.026522160E0,-6.608377934E0
7.814412239E0,9.277571678E0,-3.861417532E0,-1.603400612E1
7.835698541E0,3.998406649E0,4.137190342E0,3.638286829E0
7.856984895E0,6.311069489E0,1.652214050E1,-5.198108196E0
7.878271198E0,7.553842068E0,-1.136441231E1,-5.842375755E0
7.899557552E0,4.043870449E0,-6.202794552E0,-1.408475280E0
7.920843854E0,-5.670989752E-1,9.277571678E0,-4.554139614E0
7.942130156E0,1.415354609E0,3.723232031E0,-7.874779224E0
7.963416510E0,-1.935195327E-1,1.292602825E1,-2.782553673E0
7.984702812E0,-2.863012314E0,6.574579239E0,-4.989932537E0
8.005989166E0,2.253141642E0,8.647959709E0,-1.235653591E1
8.027275468E0,-5.551348329E-1,5.578567028E0,-1.086251736E1
8.048561823E0,3.658625841E0,1.031426239E1,-7.802994728E0
8.069848125E0,1.439282775E0,3.287439108E0,-1.046291637E1
8.091134479E0,-5.383851051E0,8.724530220E0,8.069794655E0
8.112420833E0,5.990431309E0,5.511568069E0,-1.281865025E1
8.133707135E0,7.773981571E0,1.039322472E1,-9.761520386E0
8.154993489E0,6.315855503E0,2.751147747E0,-5.090431213E0
8.176279791E0,3.092723191E-1,1.489532113E0,-3.802494287E0
8.197566145E0,3.069692373E0,4.826921463E0,-4.853541851E0
8.218852448E0,2.078465462E0,1.102762222E1,-6.572485447E0
8.240138802E0,-1.857428551E0,5.499603748E0,-2.576770782E0
8.261425156E0,-6.456433773E0,6.548258305E0,-3.723531246E0
8.282711458E0,-3.227319419E-1,7.965407372E0,-2.444866419E0
8.303997812E0,2.781656384E-1,5.468497276E0,-1.038634586E1
8.325284114E0,-7.728816867E-1,8.990134239E0,-2.619841576E0
8.346570468E0,-1.467099428E0,1.058225822E1,-9.196515083E0
8.367856823E0,2.133500576E0,3.158226728E0,-1.413769341E1
8.389143125E0,-3.181556702E0,7.247261524E0,-2.923730135E0
8.410429479E0,1.328913927E0,9.658030510E0,-5.674578667E0
8.431715833E0,1.994716763E0,3.452543974E0,-1.442273808E1
8.453002135E0,-2.501396894E0,5.001597404E0,-6.440880299E0
8.474288489E0,-2.949153900E0,8.152346611E0,-1.060648537E1
8.495574843E0,-3.667299747E0,6.517151356E0,-7.001100063E0
8.516861145E0,-1.778465390E0,7.273582458E0,-1.076201916E1
8.538147500E0,1.966002941E0,4.314558506E0,-1.087448120E1
8.559433854E0,1.788634896E0,7.611269951E0,-5.200500965E0
8.580720156E0,2.025823355E0,1.010818005E1,-9.565009117E0
8.602006510E0,4.480560422E-1,3.682554007E0,-3.330809116E0
8.623292864E0,1.441675663E0,8.391629219E0,-5.133502007E0
8.644579166E0,1.848455548E0,7.077371120E0,-1.126241779E1
8.665865520E0,-2.836691141E0,9.952646255E0,-4.255036831E0
8.687151875E0,-3.784847260E0,7.371688366E0,-4.999503613E0
8.708438229E0,1.173380375E0,8.731708527E0,-1.251685524E1
8.729724531E0,1.115952611E0,4.587339878E0,-1.047488022E1
8.751010885E0,-5.712864175E-2,7.874480247E0,-4.278964996E0
8.772297239E0,-6.436693072E-1,7.733303547E0,-7.223632336E0
8.793583593E0,-2.089831591E0,-2.796611488E-1,-9.773484230E0
8.814869948E0,-2.532503605E0,3.139084101E0,-7.592426300E0
8.836156250E0,1.949253201E0,2.001895189E0,-1.491117382E1
8.857442604E0,-1.360917836E-1,6.567400932E0,-6.483951092E0
8.878728958E0,3.646661758E0,5.169095039E0,-1.277797222E1
8.900015312E0,9.870393202E-3,4.719244480E0,-4.599603176E0
8.921301614E0,1.652244091E0,3.004786968E0,-1.130309582E1
8.942587968E0,-3.236591816E0,3.129513025E0,-7.738388538E0
8.963874323E0,-6.016154289E0,7.699804306E0,-3.373879910E0
8.985160677E0,-4.931607246E0,3.328117132E0,-1.639292908E1
9.006447031E0,-4.787738800E0,7.769196033E0,-7.163512707E-1
9.027733385E0,2.054537296E0,2.162214279E0,-1.410180092E1
9.049019739E0,8.264211416E-1,9.021240234E0,-4.231108665E0
9.070306041E0,3.356831074E0,1.189651585E1,-6.687341213E0
9.091592395E0,3.483650684E0,1.096810102E0,-9.574581146E0
9.112878750E0,-2.254936218E0,1.165962696E1,3.329612732E0
9.134165104E0,-1.488933921E0,1.240379453E0,-1.431266880E1
9.155451458E0,-6.901797771E0,1.382154179E1,-5.368297577E0
9.176737812E0,-1.874178290E0,6.753742099E-1,-1.228235817E1
9.198024166E0,1.127916813E0,4.960919380E0,-1.430070496E1
9.219310520E0,1.719243050E0,6.914360046E0,-8.954540253E0
9.240596875E0,-8.111668825E-1,5.377569675E0,-3.333201885E0
9.261883229E0,-2.939582586E0,5.583352566E0,-1.080030441E1
9.283169583E0,-5.968297958E0,9.122636169E-2,-3.342773199E0
9.304455937E0,1.704886183E-2,5.767600060E0,-1.955085564E1
9.325742291E0,-2.676372051E0,4.371985912E0,-6.352046967E0
9.347028593E0,1.486541033E-1,5.851647854E0,-1.143948650E1
9.368315000E0,-8.901300430E-1,6.423831463E0,2.051247120E0
9.389601354E0,1.185344458E0,8.279166222E0,-1.174128151E1
9.410887656E0,1.403390527E0,5.442175865E0,-7.261917591E0
9.432174062E0,-1.121635586E-1,9.339784622E0,-1.079791164E1
9.453460416E0,-3.490231037E0,2.344068766E0,-4.302893162E0
9.474746770E0,-2.877369165E0,7.323832035E0,-9.838089943E0
9.496033125E0,-4.594219327E-1,2.023430586E0,-2.837588549E0
9.517319479E0,1.850848317E0,6.251249313E0,-9.584152222E0
9.538605833E0,1.163809061E0,4.984847546E0,-4.226323128E0
9.559892187E0,1.484746456E0,6.533901215E0,-1.810708809E1
9.581178541E0,-2.211865425E0,1.769492388E0,-3.081955671E0
9.602464895E0,-4.402793646E-1,8.535198212E0,-9.193822861E0
9.623751250E0,-2.355434895E0,3.450151205E0,-5.746363640E0
9.645037604E0,-1.735394597E0,4.000799656E0,-8.356036186E0
9.666323958E0,-1.967498422E0,3.957728624E0,-8.080861092E0
9.687610312E0,-2.365903407E-1,4.005585194E0,-7.862815380E0
9.708896666E0,1.570888042E0,6.287141323E0,-1.081705379E1
9.730183073E0,2.803789854E0,3.993621111E0,-1.072851944E1
9.751469427E0,2.358425856E0,2.464009047E0,-1.438206005E1
9.772755781E0,-2.238186598E0,6.267998695E0,-4.044169426E0
9.794042135E0,-4.388137817E0,6.440581322E0,-5.306084156E0
9.815328489E0,-2.233400822E0,3.749552965E0,-1.391755390E1
9.836614843E0,-5.326423168E0,9.478569031E0,-1.638186216E0
9.857901198E0,1.223330572E-1,4.984847546E0,-1.224885941E1
9.879187604E0,-2.367398977E0,6.835396767E0,1.208375454E0
9.900473958E0,3.093620539E0,4.276273251E0,-1.341715431E1
9.921760312E0,1.701895148E-1,8.822636604E0,-6.281159073E-2
9.943046666E0,2.997608662E0,8.188239098E0,-1.693161392E1
9.964333020E0,-3.475873947E0,6.919145584E0,-3.524627686E0
9.985619427E0,-3.780659735E-1,3.220440149E0,-1.442034531E1
1.000690578E1,-2.805584431E0,5.595316887E0,-6.340082645E0
1.002819214E1,-4.139583111E-1,8.420342445E0,-8.940183640E0
1.004947849E1,-2.446362019E0,2.111965179E0,-3.237488985E0
1.007076484E1,-2.312364101E0,4.029513359E0,-6.007480145E0
1.009205125E1,-2.326720953E0,5.753242970E0,-9.660722733E0
1.011333760E1,5.533402562E-1,5.365605831E0,-1.100160027E1
1.013462396E1,-9.119645357E-1,4.611268520E0,-8.583353996E0
1.015591036E1,-1.049850956E-1,5.755635738E0,-1.139880848E1
1.017719672E1,-3.227319419E-1,5.736493111E0,-6.974779129E0
1.019848307E1,1.331306696E0,1.138415241E1,-1.251924801E1
1.021976943E1,-1.145563871E-1,9.340981245E-1,-4.563711166E0
1.024105583E1,2.709871531E-1,6.134000778E0,-9.155537605E0
1.026234219E1,-2.558824778E0,4.960919380E0,-3.891028643E0
1.028362854E1,-9.119645357E-1,3.445365429E0,-1.350329685E1
1.030491495E1,-4.799703121E0,9.057132721E0,8.300103545E-1
1.032620130E1,1.647458434E0,2.720041037E0,-1.700818253E1
1.034748766E1,9.795617461E-1,3.883551121E0,-7.293024540E0
1.036877406E1,4.764708042E0,3.713660717E0,-1.264397430E1
1.039006042E1,-3.265305519E0,6.507580280E0,-3.919742584E0
1.041134682E1,-3.700799227E0,2.720041037E0,-1.355833149E1
1.043263318E1,-6.956832886E0,4.970490932E0,-6.215655804E0
1.045391953E1,-4.014558315E0,5.535496235E0,-9.019146919E0
1.047520594E1,-3.756731451E-1,6.629614353E0,-7.719245911E0
1.049649229E1,2.901895761E0,9.507282257E0,-1.257218933E1
1.051777864E1,4.175774574E0,3.766302824E0,-1.113320541E1
1.053906505E1,1.884347796E0,5.236093998E0,-7.747959614E0
1.056035141E1,-1.001994461E-1,2.861217737E0,-6.263512135E0
1.058163781E1,-1.024427176E0,5.863611698E0,-8.777471542E0
1.060292417E1,-1.685145378E0,1.004118156E1,-7.690532207E0
1.062421057E1,-1.206281662E0,6.009573936E0,-1.094178009E1
1.064549693E1,-1.637288928E0,7.632805347E0,-8.942576408E0
1.066678328E1,-4.167698860E0,5.305785179E0,-5.147858620E0
1.068806969E1,1.288235903E0,5.729314804E0,-1.087208843E1
1.070935604E1,-1.807179332E0,8.681459427E0,-2.143370867E0
1.073064245E1,-6.364908218E-1,4.314558506E0,-7.214061260E0
1.075192880E1,-4.893322468E0,7.702197075E0,-6.151049614E0
1.077321521E1,-3.514159203E0,4.814957142E0,-1.092024422E1
1.079450156E1,1.053739309E0,5.839683533E0,-1.104945660E1
1.081578797E1,4.193421602E-1,5.202594757E0,-4.827220440E0
1.083707438E1,1.108774185E0,7.549056530E0,-6.481558323E0
1.085836073E1,-2.085045815E0,4.491627216E0,-7.850851059E0
1.087964714E1,-2.604587555E0,5.822634697E0,-7.647460938E0
1.090093349E1,-1.378564954E0,6.313462734E0,-1.552164268E1
1.092221990E1,-4.045664787E0,9.296713829E0,-8.281858444E0
1.094350625E1,1.144666553E0,3.869194269E0,-1.293829155E1
1.096479266E1,-1.038784146E0,9.823433876E0,-3.199203968E0
1.098607901E1,2.300997972E0,3.323331594E0,-6.100800514E0
1.100736542E1,3.379862010E-1,4.053441525E0,-1.089870930E1
1.102865182E1,-2.461616248E-1,4.541876316E0,-6.531807423E0
1.104993818E1,-2.089831591E0,3.701696634E0,-6.143871307E0
1.107122458E1,-6.077769399E-1,4.460520744E0,-1.072851944E1
1.109251099E1,-4.007379532E0,5.968895912E0,-7.091727853E-1
1.111379734E1,-1.960319996E0,3.043371201E0,-7.668996811E0
1.113508375E1,-1.878963947E0,5.671886921E0,-1.240199947E1
1.115637016E1,-7.274180651E-1,7.488936901E0,-7.843672752E0
1.117765651E1,4.169493318E-1,1.381855130E0,-1.205025482E1
1.119894292E1,-1.273280740E0,5.324927807E0,-6.969993114E0
1.122022932E1,-3.573979616E0,4.209274292E0,-2.217548370E0
1.124151568E1,-2.381755829E0,2.942573547E0,-6.170192242E0
1.126280208E1,-1.476969719E0,5.020740032E0,-1.059212875E1
1.128408849E1,4.384847581E-1,8.561519623E0,-8.305786133E0
1.130537484E1,4.316951275E0,4.235595226E0,-1.401326656E1
1.132666125E1,2.348854542E0,3.524328709E0,-1.860718727E0
1.134794766E1,4.563411713E0,4.091726780E0,-1.656551170E1
1.136923406E1,2.374876440E-1,8.147561073E0,-8.090432167E0
1.139052042E1,3.236292601E-1,5.875576019E0,-1.085773182E1
1.141180682E1,-2.891726255E0,6.754041195E0,-4.434498787E0
1.143309323E1,8.883354068E-2,2.391925335E0,-1.380748367E1
1.145437964E1,-3.559622765E0,1.400818157E1,-2.691925503E-2
1.147566599E1,-4.761717021E-1,4.666303158E0,-1.287847042E1
1.149695240E1,-3.174378395E0,8.245666504E0,6.984050870E-1
1.151823880E1,-3.985844374E0,7.091728210E0,-1.843968987E0
1.153952521E1,-1.955534339E0,4.989633560E0,-4.099204063E0
1.156081161E1,2.839682341E0,7.891230106E0,-1.173171043E1
1.158209797E1,4.431806564E0,7.314260483E0,-1.594307804E1
1.160338438E1,3.155833960E0,3.694518089E0,-1.166710377E1
1.162467078E1,-7.800601721E-1,6.471687794E0,-8.169395447E0
1.164595719E1,-3.504587889E0,6.502794743E0,-4.781756878E0
1.166724359E1,-4.107878208E0,2.547757864E0,-6.653841496E0
1.168853000E1,-2.551646233E0,6.801897526E0,-8.126324654E0
1.170981635E1,-3.155534863E-1,7.187440872E0,-9.368798256E0
1.173110276E1,1.034596682E0,3.785445452E0,-1.067827034E1
1.175238917E1,1.075274706E0,6.952944279E0,-7.438986301E0
1.177367557E1,8.048857450E-1,7.223333359E0,-7.345666409E0
1.179496198E1,-3.059822023E-1,4.371985912E0,-7.668996811E0
1.181624839E1,-2.290828466E0,6.248856544E0,-8.861220360E0
1.183753479E1,-4.893322468E0,7.177869797E0,-7.592426300E0
1.185882120E1,-2.898904562E0,6.320641041E0,-3.009871721E0
1.188010760E1,-2.700898647E-1,6.222535133E0,-1.023051357E1
1.190139396E1,6.251249313E-1,5.176273346E0,-4.875077248E0
1.192268036E1,1.247557878E0,5.085346222E0,-1.342194080E1
1.194396677E1,-2.044367790E0,6.864110947E0,-9.224331379E-1
1.196525318E1,2.018645048E0,1.585245013E0,-9.778269768E0
1.198653958E1,-2.384148598E0,6.770790577E0,-4.173680782E0
1.200782599E1,-1.716252089E0,6.988836765E0,-1.077876854E1
1.202911240E1,-4.404887199E0,3.888336897E0,-8.901898384E0
1.205039880E1,-3.672085524E0,5.250451088E0,-7.645068169E0
1.207168521E1,-2.796611488E-1,8.530412674E0,-9.665508270E0
1.209297161E1,3.981656790E0,6.926324368E0,-1.322572899E1
1.211425802E1,2.277069807E0,7.058228493E0,-5.669793129E0
1.213554443E1,2.901297510E-1,4.443770885E0,-6.538986206E0
1.215683083E1,-1.821536183E0,1.009860897E1,-6.253941059E0
1.217811724E1,-2.233400822E0,4.802993298E0,-9.112466812E0
1.219940364E1,-2.472683191E0,6.533901215E0,-6.234798431E0
1.222069010E1,7.471588850E-1,5.042275429E0,-8.487641335E0
1.224197651E1,-1.134497046E0,7.907979965E0,-7.496414185E0
1.226326292E1,-3.377768278E0,8.293522835E0,1.610668778E0
1.228454932E1,-3.669692516E0,4.441378117E0,-6.227620125E0
1.230583573E1,-2.246262282E-1,5.738885880E0,-4.173680782E0
1.232712214E1,3.265903711E0,2.825325251E0,-1.541396523E1
1.234840854E1,-1.069890857E0,8.671888351E0,-7.992027760E0
1.236969495E1,-2.439183474E0,7.376473904E0,-6.488736629E0
1.239098135E1,-8.662018180E-1,5.655137062E0,-1.159771252E1
1.241226776E1,-2.781656265E0,5.444568634E0,-3.996312857E0
1.243355422E1,-1.933998942E0,7.500900745E0,-2.971586704E0
1.245484063E1,-3.517449200E-1,6.141179085E0,-1.145892811E1
1.247612703E1,-6.891329288E-1,7.252047062E0,-1.018983555E1
1.249741344E1,-2.389831543E-1,6.311069489E0,-1.019940662E1
1.251869984E1,-3.571586847E0,3.670589924E0,-8.516354561E0
1.253998625E1,-3.420839071E0,6.407081604E0,-5.818148136E0
1.256127266E1,1.092024446E0,4.403092861E0,-1.234217930E1
1.258255911E1,2.619542599E0,6.057430744E0,-9.261120796E0
1.260384552E1,2.420639277E0,6.476473808E0,-1.093460083E1
1.262513193E1,-3.609872103E0,7.527521133E0,-1.896311939E-1
1.264641833E1,-3.255734205E0,8.815457344E0,-1.008694363E1
1.266770479E1,-8.255237937E-1,1.189412308E1,-6.239583969E0
1.268899120E1,8.551349640E-1,5.212165833E0,-6.778268337E0
1.271027760E1,-3.071187973E0,6.421438694E0,3.768695518E-2
1.273156401E1,-7.130611539E-1,4.750350952E0,-6.768697262E0
1.275285042E1,-3.085544825E0,2.217249393E0,-5.883053780E0
1.277413688E1,2.607578516E0,6.031109333E0,-1.702014732E1
1.279542328E1,4.648058116E-1,7.477570791E-3,-1.337169075E1
1.281670969E1,5.485545993E-1,4.019941807E0,-4.750650406E0
1.283799614E1,2.243570328E0,5.571388245E0,-9.040681839E0
1.285928255E1,-1.591825247E0,1.008664513E1,-3.165704250E0
1.288056896E1,1.290628672E0,4.869992256E0,-1.239003563E1
1.290185542E1,-6.442076683E0,5.942574978E0,-2.014158487E0
1.292314182E1,-9.700503349E0,9.813862801E0,-9.411869049E0
1.294442823E1,-6.233901024E0,3.562613726E0,-8.368000031E0
1.296571469E1,-1.890928149E0,4.484448910E0,-6.320940018E0
1.298700109E1,2.152642965E0,5.861218929E0,-7.443772316E0
1.300828750E1,3.356831074E0,8.099704742E0,-8.269894600E0
1.302957391E1,-8.518448472E-1,6.296712875E0,-1.061216831E0
1.305086036E1,-5.407779217E-1,5.961717606E0,-8.262715340E0
1.307214677E1,-4.919643402E0,6.337390900E0,-7.874779224E0
1.309343323E1,-4.876572609E0,8.216953278E0,-4.707280159E0
1.311471964E1,-5.618646622E0,4.611268520E0,-1.060648537E1
1.313600604E1,7.447660714E-2,8.398807526E0,-7.343273640E0
1.315729250E1,2.641077995E0,7.364510059E0,-1.284257793E1
1.317857891E1,3.136691332E0,3.976871252E0,-5.810969830E0
1.319986536E1,-3.468695641E0,6.208178520E0,-5.267499924E0
1.322115177E1,-3.325126171E0,6.856932163E0,-1.361336613E1
1.324243818E1,-2.772084951E0,3.572185040E0,-1.680479431E1
1.326372464E1,-2.796013355E0,8.260024071E0,-5.294120312E0
1.328501104E1,-5.865107536E0,1.834098577E0,-1.172213936E1
1.330629750E1,-3.916452408E0,4.001995921E-1,-9.459725380E0
1.332758391E1,-1.366600871E0,1.269093275E0,-7.278667450E0
1.334887036E1,1.175773263E0,4.683053017E0,-6.198905945E0
1.337015677E1,1.331306696E0,2.614757061E0,-7.609176159E0
1.339144323E1,-1.217348501E-1,4.424628258E0,-8.066205025E0
1.341272964E1,-7.154539824E-1,6.835396767E0,-1.117627621E1
1.343401609E1,-3.605086327E0,9.833005905E0,-4.704887390E0
1.345530250E1,-1.599003673E0,7.252047062E0,-1.519831181E1
1.347658896E1,-4.632205486E0,7.450651646E0,1.483849168E0
1.349787536E1,-6.843472719E-1,6.984051228E0,-1.262722397E1
1.351916182E1,-2.628515720E0,9.327820778E0,-1.437189102E0
1.354044823E1,1.304985642E0,4.427021027E0,-1.003669453E1
1.356173469E1,-2.202294111E0,4.336093903E0,-5.832804203E0
1.358302109E1,-2.061117649E0,3.160619497E0,-6.170192242E0
1.360430755E1,3.092723191E-1,2.894717216E0,-1.328794193E1
1.362559401E1,-1.728216171E0,5.157131195E0,-3.337987661E0
1.364688042E1,2.159522474E-1,6.713363171E0,-1.149960613E1
1.366816688E1,1.465603895E-2,8.980562210E0,-6.292226315E0
1.368945328E1,-3.996013701E-1,1.664208174E0,-8.281858444E0
1.371073974E1,-4.498506486E-1,9.222537041E0,-9.368798256E0
1.373202614E1,1.365105271E0,4.958526611E0,-1.093938732E1
1.375331260E1,-1.935195327E-1,5.480461121E0,-9.917053223E0
1.377459906E1,-1.673181176E0,3.119941711E0,-9.706186295E0
1.379588547E1,-1.852642894E0,5.734100342E0,-5.720042706E0
1.381717193E1,-4.799703121E0,4.810171604E0,-8.267500877E0
1.383845839E1,-6.705586433E0,9.303893089E0,-3.297309637E0
1.385974479E1,-7.241877556E0,7.845766544E0,-9.067003250E0
1.388103125E1,-5.120640278E0,7.785945892E0,4.495515525E-1
1.390231771E1,4.620839596E0,2.372782707E0,-1.754926109E1
1.392360411E1,9.873683929E0,1.116162014E1,-1.081226826E1
1.394489057E1,1.085025406E1,1.307378531E0,-1.683829308E1
1.396617703E1,3.081656456E0,8.053941727E0,-7.091727853E-1
1.398746344E1,-1.965105653E0,5.861218929E0,-1.106381416E1
1.400874990E1,-6.521338940E0,6.452545166E0,-5.418546677E0
1.403003635E1,-9.336793900E0,7.766803265E0,-2.353939295E0
1.405132276E1,-5.637789249E0,8.022834778E0,-9.110074043E0
1.407260922E1,-2.362912335E-2,3.806980848E0,-1.397976685E1
1.409389568E1,1.645065546E0,-4.163511395E-1,-8.301000595E0
1.411518214E1,4.642374992E0,2.430210590E0,-1.174606705E1
1.413646854E1,2.815753937E0,3.646661758E0,-1.420439363E0
1.415775500E1,2.241177559E0,4.556233406E0,-1.144935703E1
1.417904146E1,1.278664589E0,-4.977070987E-1,-1.529641819E1
1.420032792E1,-3.468695641E0,3.218047380E0,-2.526521683E0
1.422161432E1,-4.333102703E0,1.122622681E1,-4.922933578E0
1.424290078E1,-4.979464054E0,5.042275429E0,-7.874779224E0
1.426418724E1,-2.221436739E0,4.699802876E0,-6.763911247E0
1.428547370E1,7.926224917E-2,7.211369038E0,-9.289834976E0
1.430676016E1,-2.786442041E0,5.978467464E0,-6.553342819E0
1.432804661E1,6.658028960E-1,8.152346611E0,-2.004886246E1
1.434933302E1,4.671986103E-1,7.443472862E0,-8.628817558E0
1.437061948E1,2.422732860E-1,1.083111191E1,-4.451248169E0
1.439190594E1,-1.663609982E0,4.173381805E0,4.112663865E-1
1.441319240E1,-5.417649746E0,4.486841679E0,2.811566554E-2
1.443447885E1,-3.554837227E0,5.698207855E0,-3.026920557E0
1.445576526E1,5.303392410E0,4.541876316E0,-2.937608528E1
1.447705172E1,1.899003863E0,-8.949156404E-1,-1.344108295E1
1.449833818E1,-6.879365072E-3,1.611566067E0,1.689631939E0
1.451962464E1,1.087238789E0,3.347259760E0,-1.375484180E1
1.454091109E1,-2.566003084E0,9.112167358E0,5.153841019E0
1.456219755E1,-6.029912829E-1,2.856431961E0,-1.702732658E1
1.458348401E1,-5.003392220E0,7.108478069E0,-1.310070395E0
1.460477047E1,2.964108944E0,4.728815556E0,-1.676172256E1
1.462605693E1,3.167798042E0,7.747660637E0,-6.325725555E0
1.464734339E1,1.649851203E0,3.230011463E0,-8.078468323E0
1.466862984E1,-4.402494431E0,1.242802143E1,-1.056431174E0
1.468991630E1,-5.343173027E0,3.768695593E0,-4.353142738E0
1.471120271E1,-1.791625917E-1,9.269196987E-1,-1.449930859E1
1.473248917E1,5.705386639E0,8.722137451E0,-1.375962734E1
1.475377563E1,5.020740032E0,2.485544443E0,-1.218903828E1
1.477506208E1,1.099202871E0,5.147559643E0,-3.666103363E0
1.479634854E1,-4.871787071E0,4.592125893E0,-1.942373753E0
1.481763500E1,-5.802894115E0,4.019941807E0,-3.594318628E0
1.483892146E1,-1.886142492E0,6.368497372E0,-1.514327717E1
1.486020792E1,2.312962294E0,5.535496235E0,-1.623500252E1
1.488149438E1,1.678565025E0,2.863610506E0,-6.100800514E0
1.490278083E1,1.144666553E0,1.987538338E0,-1.018505001E1
1.492406729E1,4.743770957E-1,7.000801086E0,-6.589235306E0
1.494535375E1,1.377069473E0,5.193023205E0,-1.281147194E1
1.496664021E1,-8.709874153E-1,3.265903711E0,-6.005087376E0
1.498792672E1,1.570888042E0,5.406283855E0,-9.476474762E0
1.500921312E1,8.072785139E-1,8.260024071E0,-7.218846798E0
1.503049964E1,2.636292458E0,5.379962444E0,-1.420230007E1
1.505178609E1,-4.110270977E0,1.023978519E1,-3.771387577E0
1.507307255E1,-1.520040631E0,4.482056141E0,-1.079551888E1
1.509435901E1,-3.741776466E0,7.091728210E0,-7.836493969E0
1.511564547E1,-1.414457321E0,7.706982613E0,-5.397011280E0
1.513693193E1,-1.201496124E0,1.065882874E1,-5.511867046E0
1.515821839E1,-5.234299600E-2,9.176774025E0,-9.419047356E0
1.517950484E1,5.099703312E0,4.891527653E0,-1.422144222E1
1.520079130E1,1.199402362E-1,8.147561073E0,-3.404986620E0
1.522207776E1,1.537388563E0,1.649851203E0,-1.512413502E1
1.524336427E1,-2.903690338E0,7.943871975E0,-3.845565081E0
1.526465073E1,-5.132604599E0,2.494517565E-1,-1.000080204E1
1.528593719E1,-5.700002670E0,5.528317451E0,-7.223632336E0
1.530722364E1,-1.645065658E-2,3.514757395E0,-8.873184204E0
1.532851010E1,5.037489891E0,3.828516245E0,-1.373330688E1
1.534979656E1,3.589233875E0,4.953741074E0,-1.449930859E1
1.537108302E1,3.378366470E0,9.679565430E0,-7.604390144E0
1.539236953E1,1.204487085E0,2.624328136E0,-1.067348480E1
1.541365599E1,-4.907679081E0,3.651447296E0,-1.274178028E-1
1.543494245E1,-7.680960894E-1,4.168596268E0,-7.364809036E0
1.545622891E1,-3.648157120E0,1.016800117E1,2.700001240E0
1.547751536E1,4.254737854E0,1.709671736E0,-1.065194893E1
1.549880188E1,3.857230186E0,1.072821999E1,-1.028794098E1
1.552008833E1,1.047218800E1,5.906682491E0,-2.861008263E1
1.554137479E1,2.291426897E0,5.911468506E0,-3.266202927E0
1.556266125E1,5.581258535E-1,7.757231712E0,-5.320441246E0
1.558394776E1,-5.656931877E0,6.871289253E0,9.738788009E-1
1.560523422E1,-6.638587475E0,7.453044415E0,9.786644578E-1
1.562652068E1,-3.317947626E0,3.814159393E0,-7.958528042E0
1.564780714E1,-1.768894196E0,6.234499454E0,-1.961516380E0
1.566909359E1,3.294617653E0,-1.166501082E-2,-2.290738869E1
1.569038010E1,1.118345499E0,6.370890141E-1,-6.115157604E0
1.571166656E1,4.154239178E0,1.463211060E0,-1.647667694E1
1.573295302E1,-4.905286431E-1,5.693422318E0,-4.032205105E0
1.575423948E1,1.848455548E0,-1.663609982E0,-7.968099594E0
1.577552599E1,-8.685946465E-1,5.159523964E0,7.797610760E-1
1.579681245E1,2.262712955E0,2.607578516E0,-1.978774643E1
1.581809891E1,-5.802894115E0,8.544769287E0,-3.780958891E0
1.583938542E1,-4.335495472E0,2.135893345E0,-9.588937759E0
1.586067188E1,-7.069295406E0,8.415556908E0,-8.817551732E-1
1.588195833E1,1.089631557E0,5.959324837E0,-1.126002502E1
1.590324484E1,1.293021560E0,4.206881523E0,-9.225228310E0
1.592453130E1,2.253141642E0,4.814957142E0,-1.058734322E1
1.594581776E1,-1.025922745E-1,3.275475025E0,-1.196620655E1
1.596710427E1,-1.512862086E0,4.510769844E0,-1.059930706E1
1.598839073E1,-3.691227913E0,7.110870838E0,-2.787339211E0
1.600967719E1,-1.218245864E0,1.118554878E1,-5.485546112E0
1.603096370E1,1.005882859E0,4.436592102E0,-9.591330528E0
1.605225016E1,-9.302098304E-2,6.150750637E0,-4.927719116E0
1.607353661E1,1.482353687E0,1.508674622E0,-1.100638580E1
1.609482312E1,2.334497690E0,2.992822886E0,-1.173649597E1
1.611610958E1,1.247557878E0,2.775076151E0,-1.242353535E1
1.613739609E1,-1.809572101E0,3.110370398E0,-5.466403484E0
1.615868255E1,-2.629113793E-1,5.442175865E0,-1.144217873E1
1.617996906E1,-2.329113722E0,3.646661758E0,-1.286142230E0
1.620125552E1,1.735992789E0,1.367498159E0,-9.687043190E0
1.622254198E1,-3.732803464E-1,8.892027855E0,-5.806184292E0
1.624382849E1,3.826123476E0,7.570591927E0,-1.495185184E1
1.626511495E1,-2.443969250E0,3.582055569E0,-2.418545485E0
1.628640146E1,-6.846762657E0,4.570590496E0,-7.860422611E0
1.630768792E1,-2.367398977E0,5.662315845E0,-1.372373486E1
1.632897443E1,-1.241276711E-1,6.773183823E0,-6.172585011E0
1.635026088E1,-9.020941257E-1,8.748458862E0,1.522134304E0
1.637154734E1,4.144668102E0,6.576972008E0,-1.817677879E1
1.639283385E1,2.490330219E0,1.063729286E1,-6.763911247E0
1.641412031E1,2.207678080E0,7.417151928E0,-7.470093250E0
1.643540682E1,-1.955534339E0,3.222832918E0,-5.049753189E0
1.645669328E1,-5.266602516E0,3.241975546E0,-7.123134136E0
1.647797979E1,-6.935297489E0,3.442972660E0,-6.048158169E0
1.649926625E1,-1.843071699E0,3.964907169E0,-1.242832088E1
1.652055276E1,-6.819544435E-1,6.476473808E0,-6.965207577E0
1.654183927E1,2.758326292E0,7.177869797E0,-9.038289070E0
1.656312573E1,3.316153049E0,2.229213476E0,-5.217250824E0
1.658441224E1,4.716851711E0,1.056790161E1,-7.518248558E0
1.660569870E1,-1.553540111E0,7.881359458E-1,-1.173649597E1
1.662698521E1,-6.743871689E0,8.041977882E0,-4.812863827E0
1.664827167E1,-3.789632797E0,7.264011383E0,-1.448973751E1
1.666955818E1,-7.447660446E0,9.488140106E0,5.357230663E0
1.669084464E1,2.133500576E0,2.614757061E0,-1.464527130E1
1.671213114E1,1.151545867E-1,1.017517948E1,-4.590032101E0
1.673341760E1,5.521139145E0,4.077369690E0,-2.002014923E1
1.675470411E1,-8.614161611E-1,7.503293514E0,-4.036991119E0
1.677599063E1,-3.432803154E0,4.214059830E0,-1.121037364E0
1.679727708E1,-1.301994562E0,3.536292791E0,-9.857233047E0
1.681856359E1,1.585245013E0,2.966501951E0,-1.378116322E1
1.683985005E1,3.110370398E0,1.846062660E0,-9.500403404E0
1.686113656E1,6.315855503E0,8.446663857E0,-1.701775551E1
1.688242307E1,-5.216353536E-1,4.513162613E0,-5.705685616E0
1.690370953E1,-1.316351533E0,7.364510059E0,-6.491129398E0
1.692499604E1,-3.712763548E0,3.964907169E0,-3.910171270E0
1.694628250E1,2.135594189E-1,5.839683533E0,-1.428156185E1
1.696756901E1,-3.296412230E0,5.817849159E0,-1.824826360E0
1.698885552E1,1.451246977E0,-2.841476910E-2,-7.764709473E0
1.701014198E1,-2.240579367E0,9.088239670E0,-9.678967595E-1
1.703142849E1,8.216354847E-1,3.320938826E0,-8.303393364E0
1.705271500E1,1.108774185E0,1.041775107E0,-1.142991543E1
1.707400146E1,-5.398207664E0,6.315855503E0,-3.120240688E0
1.709528797E1,-5.599204898E-1,3.739981890E0,-1.421187115E1
1.711657448E1,-1.563111424E0,6.890431881E0,-5.942873955E0
1.713786099E1,3.957728624E0,5.585745335E0,-1.057059288E1
1.715914745E1,1.209272742E0,5.901896954E0,-8.760722160E0
1.718043396E1,-3.650550127E0,8.449056625E0,-3.807279825E0
1.720172047E1,-4.438386917E0,3.914657831E0,-4.963611603E0
1.722300693E1,-2.563610315E0,7.022336483E0,-6.716054916E0
1.724429344E1,1.520638824E0,2.775076151E0,-9.792626381E0
1.726557995E1,9.412766099E-1,2.901895761E0,-1.130309582E1
1.728686646E1,-3.109472990E0,3.285046339E0,-8.755936623E0
1.730815292E1,2.183450572E-2,3.806980848E0,-1.068784142E1
1.732943943E1,2.145464659E0,3.859622955E0,-4.326821327E0
1.735072594E1,4.927420139E0,3.610769272E0,-1.189442253E1
1.737201245E1,-4.809274197E0,8.056334496E0,1.531914997E1
1.739329891E1,7.864908695E0,-1.792822361E0,-3.132264709E1
1.741458542E1,-3.595515013E0,2.461616278E0,-6.424130440E0
1.743587193E1,-2.037189484E0,5.351248741E0,4.912165642E0
1.745715844E1,-5.961119175E0,2.976073265E0,-1.577288914E1
1.747844490E1,-6.571588516E0,1.085264683E1,2.879462957E0
1.749973141E1,2.781656384E-1,1.120738268E0,-2.039582253E1
1.752101792E1,1.688136339E0,4.098905087E0,-4.415356159E0
1.754230443E1,1.175474152E-1,3.900300980E0,-1.394866085E1
1.756359094E1,-1.857428551E0,8.212167740E0,-4.769793034E0
1.758487740E1,-4.103092670E0,-5.089533806E0,-6.464808464E0
1.760616391E1,-4.259224236E-1,1.332114315E1,2.522633314E0
1.762745042E1,-2.595016241E0,-1.560718536E0,-7.051349163E0
1.764873693E1,-3.562015533E0,-3.466601670E-1,1.069591761E0
1.767002344E1,8.820243835E0,2.854039192E0,-2.497837639E1
1.769130995E1,4.862813950E0,4.520340919E0,-1.690289879E1
1.771259646E1,8.573483467E0,3.644268990E0,-1.601486206E1
1.773388292E1,-4.172484398E0,1.091994476E1,-3.522234917E0
1.775516943E1,-5.335994363E-1,7.266404152E0,-9.234800339E0
1.777645594E1,-1.532004714E0,4.596911430E0,-4.882255554E0
1.779774245E1,-5.216353416E0,7.101299286E0,-3.790530205E0
1.781902896E1,-6.461219311E0,5.322535038E0,-3.529413462E0
1.784031547E1,-4.792524815E0,1.123101234E1,-6.052944183E0
1.786160198E1,-1.579861164E0,4.281058788E0,-7.702496052E0
1.788288849E1,1.630708575E0,1.418525124E1,-8.760722160E0
1.790417500E1,9.819545746E-1,2.533401012E0,-1.869602013E1
1.792546146E1,2.641077995E0,5.796313763E0,-1.195663548E1
1.794674797E1,2.341675997E0,5.499603748E0,-1.358704472E1
1.796803448E1,-4.438386917E0,4.254737854E0,-2.911766052E0
1.798932099E1,-6.741478920E0,6.679863453E0,-4.001098633E0
1.801060750E1,-4.488636017E0,5.746064663E0,-4.058526516E0
1.803189401E1,-5.718846321E-1,5.236093998E0,-8.849256516E0
1.805318052E1,4.791627228E-1,2.720041037E0,-9.519545555E0
1.807446703E1,1.254736423E0,1.573280931E0,-1.261047459E1
1.809575354E1,6.897311211E-1,2.935395241E0,-9.710971832E0
1.811704005E1,2.035394669E0,7.144370079E0,-6.582056999E0
1.813832656E1,3.036192894E0,4.422235489E0,-1.160249805E1
1.815961307E1,1.989931107E0,5.252843857E0,-1.065912724E1
1.818089958E1,-1.158425212E0,6.363711834E0,-3.611068487E0
1.820218609E1,-3.978665829E0,4.474877357E0,-6.900302410E0
1.822347260E1,-5.613861084E0,3.210868835E0,-7.680960655E0
1.824475911E1,-2.609373093E0,6.428617001E0,-8.861220360E0
1.826604562E1,-1.165603757E0,5.128417015E0,-3.017050266E0
1.828733214E1,1.872383714E0,4.712066174E0,-1.090588760E1
1.830861865E1,9.293124676E-1,8.087740898E0,-8.353643417E0
1.832990516E1,1.092024446E0,3.349652529E0,-4.202394962E0
1.835119167E1,3.858426511E-1,6.856932163E0,-6.433701992E0
1.837247818E1,7.663014531E-1,6.462116718E0,-1.164556885E1
1.839376469E1,1.390828192E-1,4.941776752E0,-1.199970627E1
1.841505120E1,-7.633104324E-1,5.595316887E0,-1.323290730E1
1.843633771E1,-3.566801310E0,1.017517948E1,-6.129514217E0
1.845762422E1,-2.075474501E0,3.419044495E0,-7.080062866E0
1.847891073E1,-1.433599830E0,2.624328136E0,-6.979564667E0
1.850019724E1,-1.443171144E0,6.498009205E0,-1.406082392E0
1.852148375E1,4.289134443E-1,4.673481941E0,-4.051347733E0
1.854277026E1,-2.000998020E0,4.558626175E0,-2.744268417E0
1.856405682E1,2.966501951E0,4.663910389E0,-1.684547234E1
1.858534333E1,2.712862730E0,8.650353432E0,-1.395344639E1
1.860662984E1,5.653043389E-1,4.211667061E0,-1.200718403E1
1.862791635E1,-2.642872572E0,5.604887962E0,-2.531307220E0
1.864920286E1,1.415354609E0,1.120738268E0,-1.023529911E1
1.867048938E1,2.685943544E-1,4.572983265E0,-6.024230003E0
1.869177589E1,-2.247757673E0,1.975574136E0,-9.555438042E0
1.871306240E1,-3.526123285E0,7.096513748E0,-9.617651939E0
1.873434891E1,4.767699242E-1,2.394318104E0,-9.230013847E0
1.875563542E1,9.197412133E-1,4.144668102E0,-8.104789734E0
1.877692198E1,2.757728100E-1,6.009573936E0,-5.133502007E0
1.879820849E1,-1.972284079E0,3.194119215E0,-6.773482800E0
1.881949500E1,-2.621337175E0,3.639483213E0,-9.071788788E0
1.884078151E1,-1.773679733E0,6.179464340E0,-9.134002686E0
1.886206802E1,1.175474152E-1,4.946562767E0,-1.547857189E1
1.888335453E1,-1.409671664E0,2.858824968E0,-7.712067604E0
1.890464109E1,-1.261316657E0,4.364807606E0,-4.724328995E0
1.892592760E1,-1.493719578E0,5.858826160E0,-3.314059258E0
1.894721411E1,-2.757728100E0,7.601698399E0,-4.403391838E0
1.896850062E1,2.818146944E0,4.098905087E0,-1.305314636E1
1.898978714E1,1.587637782E0,2.478366137E0,-1.004387283E1
1.901107364E1,-1.166501082E-2,5.056632519E0,-1.131984615E1
1.903236021E1,-3.346661568E0,4.209274292E0,-1.038156033E1
1.905364672E1,-4.591527462E0,5.961717606E0,-3.821636915E0
1.907493323E1,-2.254936218E0,6.129215240E0,-2.236690998E0
1.909621974E1,2.243570328E0,4.149453640E0,-9.186644554E0
1.911750630E1,2.703291416E0,3.148655415E0,-1.213878918E1
1.913879281E1,4.265206456E-1,6.110072613E0,-6.972385883E0
1.916007932E1,-1.134497046E0,3.397509098E0,-7.793423176E0
1.918136583E1,-1.959123611E-1,8.169096947E0,-8.265108109E0
1.920265240E1,-3.420839071E0,8.358129501E0,-7.491628647E0
1.922393891E1,-4.086342812E0,9.612566948E0,-9.100502968E0
1.924522542E1,-2.508575439E0,1.034058285E1,-3.792922974E0
1.926651193E1,-1.424028635E0,6.722934246E0,-7.197311401E0
1.928779844E1,2.193320990E0,2.834896564E0,-1.456630802E1
1.930908500E1,-4.033700943E0,7.762017727E0,-1.247856975E0
1.933037151E1,-1.699502230E0,6.744469643E0,-1.588295841E1
1.935165802E1,-7.205985546E0,6.107679844E0,3.710370541E0
1.937294458E1,6.514459848E-1,7.738089561E0,-1.016351414E1
1.939423109E1,1.961217284E0,6.991229534E0,-1.329033470E1
1.941551760E1,1.482353687E0,4.470091820E0,-3.713959932E0
1.943680411E1,1.249950767E0,2.720041037E0,-8.174180984E0
1.945809068E1,1.278664589E0,1.903789520E0,-8.866005898E0
1.947937719E1,2.224427700E0,4.261916161E0,-1.078594685E1
1.950066370E1,-1.287637711E0,7.948657513E0,-7.082456112E0
1.952195026E1,6.729813665E-2,4.034298897E0,-1.338604832E1
1.954323677E1,-2.278864384E0,3.905086517E0,-5.332405090E0
1.956452328E1,-1.432702541E-1,-1.336989701E-1,-9.294620514E0
1.958580984E1,-4.862215519E0,7.409973621E0,-9.966106415E-1
1.960709635E1,-2.827120066E0,5.401497841E0,-8.169395447E0
1.962838286E1,-6.109474182E0,5.339284420E0,-7.039385319E0
1.964966943E1,-4.862215519E0,9.586245537E0,-1.555035591E1
1.967095594E1,-1.010070205E0,4.245166302E0,-5.339583874E0
1.969224245E1,4.834099770E0,8.714959145E0,-1.003908730E1
1.971352901E1,4.637589455E0,9.763613701E0,-8.088039398E0
1.973481552E1,1.046560764E0,5.121238708E0,-3.642175198E0
1.975610203E1,-3.796811342E0,7.051050186E0,-6.713662148E0
1.977738859E1,-3.193521023E0,2.899502754E0,-3.113062143E0
1.979867510E1,-3.203391433E-1,6.897311211E-1,-1.855962944E1
1.981996167E1,-3.760919094E0,4.259523392E0,-3.993920088E0
1.984124818E1,-1.435992718E0,2.205285072E0,-7.326523781E0
1.986253469E1,-7.226324677E-1,6.706184387E0,-7.228417873E0
1.988382125E1,3.783052683E0,2.782254457E0,-1.208136177E1
1.990510776E1,2.863610506E0,6.143572330E0,-9.569794655E0
1.992639427E1,4.097708762E-1,1.075274706E0,-1.429831123E1
1.994768083E1,-1.052662468E1,8.887242317E0,4.402195454E0
1.996896734E1,-8.682954788E0,4.826921463E0,-6.285048008E0
1.999025391E1,-3.784847260E0,-1.935195327E-1,-9.110074043E0
2.001154042E1,2.595614433E0,4.968098164E0,-1.130788136E1
2.003282698E1,5.674279690E0,6.474080563E0,-1.221296692E1
2.005411349E1,1.549352646E0,4.793421745E0,-5.013860703E0
2.007540000E1,2.614158690E-1,5.580959797E0,-9.067003250E0
2.009668656E1,-1.859821439E0,1.190130115E0,-1.163121223E1
2.011797307E1,-7.225128174E0,3.751945972E0,2.419741869E0
2.013925964E1,-9.789635539E-1,5.415854931E0,-1.396541023E1
2.016054614E1,-2.288435698E0,6.143572330E0,-7.163811684E0
2.018183271E1,2.794218540E0,7.331010342E0,-1.522702599E1
2.020311922E1,1.477568030E0,7.903193951E0,-4.341178417E0
2.022440578E1,1.077667475E0,4.091726780E0,-9.797411919E0
2.024569229E1,-1.388136268E0,1.090080261E1,-1.345962733E-1
2.026697885E1,1.342971772E-1,3.392723322E0,-1.445623779E1
2.028826536E1,-4.167698860E0,8.815457344E0,4.184448719E-1
2.030955193E1,2.102393866E0,-4.259224236E-1,-2.284038925E1
2.033083844E1,-2.956332445E0,9.351749420E0,-5.009075165E0
2.035212500E1,1.190130115E0,1.051525879E1,-1.430070496E1
2.037341151E1,-1.823929071E0,7.120441914E0,-2.167299032E0
2.039469807E1,1.654636860E0,6.502794743E0,-6.141478539E0
2.041598458E1,-7.465606928E-1,3.649054527E0,-7.539783955E0
2.043727114E1,-8.137092590E0,9.083454132E0,-5.104787827E0
2.045855766E1,-1.015543842E1,1.111376381E1,1.351944804E0
2.047984422E1,-3.863810301E0,5.224130154E0,-1.643599892E1
2.050113073E1,3.222832918E0,1.095823002E1,-1.006301594E1
2.052241729E1,-8.303094506E-1,2.351247311E0,-6.421737671E-1
2.054370380E1,4.743770957E-1,-7.776673436E-1,-1.713051605E1
2.056499036E1,3.917050600E0,-6.952046871E0,-1.025324464E0
2.058627688E1,1.144427204E1,-4.715954304E0,-2.923012352E1
2.060756344E1,-5.877071381E0,2.147767639E1,7.435397148E0
2.062885000E1,-3.564408541E0,-2.214258194E0,-2.689353180E1
2.065013651E1,-8.196912766E0,4.810171604E0,4.873880386E0
2.067142307E1,6.782754898E0,1.988824463E1,7.966903210E0
2.069270958E1,4.608875751E0,3.062513828E0,-3.491128206E0
2.071399615E1,1.252343535E0,1.045304585E1,-7.328916550E0
2.073528271E1,-3.813561201E0,1.039561844E1,-1.496381569E1
2.075656922E1,2.255235314E-1,-1.933998942E0,-2.383161545E1
2.077785578E1,-1.857428551E0,4.936991215E0,-1.565085506E1
2.079914229E1,-7.861917973E0,6.787540436E0,8.905488014E0
2.082042885E1,-3.787240028E0,5.988038778E-1,-1.319940758E1
2.084171542E1,-4.953143001E-1,7.216155052E0,-3.718745470E0
2.086300193E1,-1.957927108E0,3.253939629E0,-1.105184937E1
2.088428849E1,-3.444767237E0,7.943871975E0,-5.023432255E0
2.090557500E1,-1.384846121E-1,2.724826813E0,-1.221535969E1
2.092686156E1,-4.452744007E0,9.766006470E0,9.499505758E-1
2.094814813E1,2.887538671E0,1.037886810E1,-1.588056564E1
2.096943464E1,4.060619831E0,1.274178028E1,-6.847660065E0
2.099072120E1,1.862812400E0,5.260022163E0,-1.080748272E1
2.101200776E1,2.459223509E0,9.947860718E0,-5.847460628E-1
2.103329427E1,3.811766386E0,5.432604790E0,-9.663115501E0
2.105458083E1,-1.709073544E0,6.363711834E0,-5.842375755E0
2.107586740E1,-7.234699249E0,4.465306282E0,-4.180859566E0
2.109715391E1,-6.236293793E0,7.807481289E0,-6.182156563E0
2.111844047E1,-4.701597214E0,7.826623917E0,-1.394387531E1
2.113972703E1,-4.450650215E-1,4.300201416E0,-1.891885185E1
2.116101354E1,-4.883750916E0,1.549262905E1,-1.628614902E0
2.118230010E1,-5.084748268E0,1.345035553E1,-6.096014977E0
2.120358667E1,-1.874178290E0,1.037168980E1,-1.834397674E0
2.122487318E1,2.732005358E0,3.972085476E0,-1.195424271E1
2.124615974E1,1.462612897E-1,3.984049797E0,-5.621936798E0
2.126744630E1,-8.702097893E0,2.155035973E0,-7.103991508E0
2.128873281E1,-1.148883915E1,1.022782135E1,1.546062589E0
2.131001938E1,-3.798605874E-2,-2.070688963E0,-2.098744774E1
2.133130594E1,-3.768097401E0,-7.034898400E-1,3.702893019E0
2.135259250E1,5.200201988E0,6.155536175E0,-1.820788574E1
2.137387901E1,5.001597404E0,8.264211416E-1,-2.147319031E1
2.139516557E1,4.103690624E0,4.613661289E0,-3.019443035E0
2.141645214E1,4.877170563E0,4.891527653E0,-9.031110764E0
2.143773864E1,1.438684613E-1,9.423533440E0,-6.371189594E0
2.145902521E1,-5.003392220E0,6.749255180E0,-2.112264156E0
2.148031177E1,-5.554040432E0,4.168596268E0,-6.524629116E0
2.150159833E1,-6.612266064E0,1.111615658E1,4.196113586E0
2.152288484E1,-1.079462171E0,4.563411713E0,-1.740090561E1
2.154417141E1,-2.097009897E0,1.051525879E1,-5.306084156E0
2.156545797E1,5.638387680E0,1.896311998E0,-2.229691887E1
2.158674453E1,-9.717850685E-1,6.421438694E0,-6.122335911E0
2.160803104E1,1.295115203E-1,2.626721144E0,-1.120499039E1
2.162931760E1,1.944168471E-2,7.132406235E0,-8.760722160E0
2.165060417E1,-1.912463546E0,5.387141228E0,-7.068099022E0
2.167189073E1,-7.866404206E-2,5.643173218E0,-5.059324265E0
2.169317724E1,-2.053939104E0,6.234499454E0,-8.039883614E0
2.171446380E1,1.204487085E0,6.794719219E0,-3.342773199E0
2.173575036E1,1.302592874E0,7.472187042E0,-4.726722240E0
2.175703693E1,-2.118545294E0,6.167500496E0,-1.286650658E1
2.177832344E1,-3.215056419E0,7.118049145E0,-5.672185898E0
2.179961000E1,-2.443969250E0,5.506782055E0,-1.381705570E1
2.182089656E1,1.788634896E0,4.668695927E0,-6.172585011E0
2.184218313E1,8.862416744E-1,4.546662331E0,-8.061419487E0
2.186346964E1,-3.890131474E0,8.353343964E0,-7.424629688E0
2.188475620E1,-3.542873144E0,7.943871975E0,-7.194918633E0
2.190604276E1,-6.856334209E0,6.576972008E0,-8.889335990E-1
2.192732932E1,-4.211367965E-1,6.162714481E0,-7.240382195E0
2.194861583E1,1.513460279E0,1.098933697E1,-1.769791484E0
2.196990240E1,3.533900023E0,4.060619831E0,-2.512164593E0
2.199118896E1,6.394818425E-1,1.053918743E1,-8.032705307E0
2.201247552E1,-2.463111877E0,5.985645771E0,-8.799007416E0
2.203376208E1,-3.890131474E0,7.043871880E0,-8.334500313E0
2.205504859E1,-3.179463148E-1,1.147059321E0,-1.227278709E1
2.207633516E1,-3.897309780E0,1.199402362E-1,-1.130309582E1
2.209762172E1,-4.414458752E0,7.876873016E0,-6.500700951E0
2.211890828E1,1.178166032E0,7.443472862E0,-4.954040051E0
2.214019484E1,2.691327333E0,4.671986103E-1,-1.176760292E1
2.216148135E1,1.913360834E0,7.994121552E0,-9.675079346E0
2.218276792E1,-2.602194548E0,8.276773453E0,4.095614910E0
2.220405448E1,-1.955534339E0,6.165107727E0,-5.289334297E0
2.222534104E1,-2.345863581E0,5.207380295E0,-6.747161865E0
2.224662760E1,8.883354068E-2,3.507578850E0,-1.472184086E1
2.226791411E1,-2.509472668E-1,7.285546780E0,-1.049402237E1
2.228920068E1,-1.943570137E0,2.317747831E0,-5.025825024E0
2.231048724E1,-2.975475073E0,5.947360516E0,-7.518248558E0
2.233177380E1,-2.137687922E0,4.812564373E0,-1.019222832E1
2.235306036E1,-4.191627026E0,5.231308460E0,2.412563324E0
2.237434688E1,-1.551147223E0,2.696112871E0,-9.651150703E0
2.239563344E1,-1.141675472E0,5.664708614E0,-6.999006122E-2
2.241692000E1,8.429914474E0,2.653042078E0,-1.994357872E1
2.243820656E1,1.463211060E0,4.180560112E0,-6.019444466E0
2.245949312E1,4.983053207E-1,4.690231323E0,-1.207896900E1
2.248077964E1,-2.525325298E0,2.281855583E0,-1.487528133E1
2.250206620E1,-6.819544435E-1,9.535996437E0,-7.537391186E0
2.252335276E1,4.874777794E0,-1.795215130E0,-3.201686478E1
2.254463932E1,-6.729514599E0,1.333310699E1,1.447418404E1
2.256592589E1,-3.032902718E0,1.005882859E0,-5.092823982E0
2.258721245E1,-7.871489048E0,9.164810181E0,-7.546364665E-1
2.260849896E1,-6.851548672E0,8.614161491E0,-7.082456112E0
2.262978552E1,-7.692027569E0,2.057767677E1,1.963819504E1
2.265107208E1,-4.857429981E0,-4.720739841E0,-1.154746342E1
2.267235865E1,1.680957913E0,1.719721603E1,-1.550489235E1
2.269364521E1,3.067299604E0,5.629115105E-1,-3.282623672E1
2.271493177E1,2.135893345E0,1.563141346E1,-1.019462109E1
2.273621828E1,-4.091128349E0,-3.394817114E-1,-1.302921867E1
2.275750484E1,-1.119452190E1,9.021240234E0,4.078865528E0
2.277879141E1,-3.006581545E0,5.116453171E0,-2.868695259E0
2.280007797E1,-2.053939104E0,5.145166874E0,-4.048954964E0
2.282136453E1,-5.922534943E0,1.175474152E-1,2.611466885E0
2.284265109E1,1.679013824E1,-1.074676514E0,-1.916531372E1
2.286393760E1,1.352692509E1,-3.588336706E0,-3.241197968E1
2.288522417E1,-3.552444220E0,2.397727966E1,1.166351509E1
2.290651073E1,1.080060363E0,1.867598057E0,-1.767877197E1
2.292779729E1,-8.767003059E0,5.674279690E0,9.997213364E0
2.294908385E1,-2.671586514E0,1.131476116E1,-4.453640938E0
2.297037036E1,8.431708813E-1,-1.452742457E0,-2.574437904E1
2.299165693E1,-4.617848396E0,1.553091431E1,-8.425427437E0
2.301294349E1,1.556531072E0,-7.202396393E-1,-1.325683594E1
2.303423005E1,-8.826823235E0,1.587637782E0,-2.990729094E0
2.305551661E1,-9.499505997E0,1.722832298E1,1.806521225E1
2.307680318E1,1.099202871E0,-2.221436739E0,-9.924231529E0
2.309808974E1,1.987538338E0,8.973383904E0,-8.758329391E0
2.311937625E1,4.364807606E0,4.522733688E0,-1.496142292E1
2.314066281E1,1.992323995E0,8.719744682E0,-1.591645813E1
2.316194938E1,-2.015354872E0,1.362503147E1,-2.108794594E1
2.318323594E1,-3.073580742E0,4.218845367E0,-1.146132183E1
2.320452250E1,-9.990333557E0,6.289534092E0,8.450551987E0
2.322580901E1,-4.929214478E0,-1.797608018E0,-3.852743626E0
2.324709557E1,-6.612266064E0,1.530808258E1,-6.093621731E0
2.326838214E1,5.379962444E0,8.815457344E0,-1.899303055E1
2.328966870E1,2.422732860E-2,9.833005905E0,-1.332144165E1
2.331095526E1,-2.892324328E-1,3.847658873E0,-5.916553020E0
2.333224182E1,-3.952344894E0,2.724826813E0,-9.699007034E0
2.335352833E1,-4.258625984E0,5.255236626E0,5.675775528E0
2.337481490E1,-4.755735025E-2,5.765207291E0,-8.027919769E0
2.339610146E1,7.809575200E-1,5.322535038E0,-1.423819160E1
2.341738802E1,6.634100676E-1,4.917848587E0,-1.382662678E1
2.343867458E1,1.295115203E-1,4.510769844E0,-1.536820221E1
2.345996114E1,-5.082355499E0,6.682256222E0,-5.705685616E0
2.348124766E1,-1.656431437E0,5.793920994E0,-1.497009635E0
2.350253422E1,5.294119939E-2,4.699802876E0,-1.974078640E-2
2.352382078E1,3.775874138E0,3.521935940E0,-1.271815109E1
2.354510734E1,-3.492623806E0,3.476472139E0,1.351944804E0
2.356639391E1,-1.618146300E0,1.015454054E0,-1.250728416E1
2.358768042E1,2.925823927E0,-1.218245864E0,-2.061386871E1
2.360896698E1,2.595614433E0,5.214558601E0,-1.756840324E1
2.363025354E1,-2.992224693E0,3.081656456E0,-6.826124668E0
2.365154010E1,-7.612765312E0,8.980562210E0,-2.050050735E0
2.367282667E1,-6.384648800E0,9.952646255E0,-6.699305058E0
2.369411323E1,-7.992027402E-1,6.409474373E0,-5.897410393E0
2.371539979E1,-2.102692872E-1,6.986443996E0,1.055234790E0
2.373668630E1,9.867402315E-1,7.795516968E0,-7.130312443E0
2.375797286E1,-2.154437780E0,1.071386337E1,-1.301725388E1
2.377925943E1,1.965105534E-1,4.561018944E0,-1.528923893E1
2.380054599E1,-7.390232563E0,6.663113594E0,-7.226025105E0
2.382183255E1,-7.845168114E0,4.060619831E0,-1.446820259E1
2.384311906E1,-5.223531723E0,8.166703224E0,-7.546962738E0
2.386440562E1,2.470589429E-1,4.067798615E0,-1.247378445E1
2.388569219E1,-9.191430211E-1,6.189035892E0,-6.000301838E0
2.390697875E1,-1.484148264E0,4.503591537E0,-4.803292274E0
2.392826531E1,-5.192425251E-1,3.569792271E0,-1.189681530E1
2.394955188E1,-2.712264538E0,5.300999641E0,-3.843172312E0
2.397083838E1,1.276271820E0,3.378366470E0,-1.275404358E1
2.399212495E1,-3.389732361E0,4.139583111E0,-5.318048477E0
2.401341151E1,-2.252543449E0,6.334998131E0,-1.018265629E1
2.403469807E1,-4.352245331E0,7.771588802E0,-1.584467316E1
2.405598464E1,-1.026820064E0,2.892324448E0,-4.267001152E0
2.407727120E1,-1.685145378E0,9.978967667E0,-7.070491791E0
2.409855771E1,-1.479362607E0,6.294320107E0,-1.058824062E0
2.411984427E1,7.232306600E-1,3.158226728E0,-1.335494137E1
2.414113083E1,-2.626122952E0,4.458127499E0,2.219343036E-1
2.416241740E1,1.051346421E0,2.047358990E0,-1.575613880E1
2.418370396E1,-3.169592619E0,6.569793701E0,-8.181359291E0
2.420499047E1,-1.811964989E0,8.513663292E0,-1.002233791E1
2.422627703E1,-3.518944740E0,9.461818695E0,-9.948160172E0
2.424756359E1,-3.693620920E0,1.065404320E1,-4.695316315E0
2.426885016E1,-2.161616087E0,5.329713345E0,-8.755936623E0
2.429013672E1,4.528416991E-1,5.786742687E0,-9.373583794E0
2.431142328E1,7.088736892E-1,4.956133842E0,-6.682555676E0
2.433270979E1,5.025525570E0,2.629113913E0,-1.143470097E1
2.435399635E1,5.174478889E-1,1.829312921E0,-5.416752100E-1
2.437528292E1,3.656233072E0,2.155035973E0,-1.460937881E1
2.439656948E1,-2.863012314E0,9.210572243E0,-7.295417309E0
2.441785604E1,1.539781332E0,1.745564103E0,-8.767900467E0
2.443914255E1,1.211665511E0,4.915455818E0,-1.087208843E1
2.446042911E1,2.279163599E-1,5.066203594E0,-5.330012321E0
2.448171568E1,-2.508575439E0,5.250451088E0,-6.531807423E0
2.450300224E1,-1.316351533E0,2.190928221E0,-1.090349483E1
2.452428875E1,-6.152545452E0,5.466104031E0,-5.674578667E0
2.454557531E1,-6.154938221E0,5.662315845E0,-3.414557934E0
2.456686188E1,-6.061617851E0,9.794720650E0,-5.006682396E0
2.458814844E1,-8.255237937E-1,8.801100731E0,-3.914957047E0
2.460943500E1,3.797409534E0,5.492425442E0,-1.371177101E1
2.463072156E1,-2.108973980E0,1.015125084E1,-1.547258973E0
2.465200807E1,-8.949156404E-1,8.362915039E0,-1.534188175E1
2.467329464E1,-1.408774406E-1,5.988038540E0,-4.400999069E0
2.469458120E1,2.526222467E0,1.834098577E0,-1.574896049E1
2.471586776E1,-2.860619545E0,5.154737949E0,2.283350945E0
2.473715427E1,-1.697109461E0,3.222832918E0,-1.550249958E1
2.475844083E1,-3.341876030E0,6.466902256E0,-2.756232500E0
2.477972740E1,-1.512862086E0,4.369593143E0,-4.032205105E0
2.480101396E1,-1.121635586E-1,-1.645065658E-2,-1.107099247E1
2.482230052E1,-2.796013355E0,2.159821510E0,-5.703292847E0
2.484358703E1,-2.556432009E0,2.332104683E0,-1.236371422E1
2.486487359E1,-4.064807415E0,2.916252613E0,-1.295025539E1
2.488616016E1,-7.680960894E-1,4.541876316E0,-7.678567886E0
2.490744672E1,-7.250252366E-1,2.799004316E0,-8.384749413E0
2.492873328E1,-9.885348678E-1,7.283154011E0,-7.805387497E0
2.495001979E1,-2.616551638E0,6.584150791E0,-1.681257010E0
2.497130635E1,1.341177106E0,9.923933029E0,-9.466903687E0
2.499259292E1,-1.218245864E0,9.679565430E0,-4.132703781E0
2.501387948E1,-2.113759756E0,7.139584541E0,-1.142034435E1
2.503516604E1,-5.343173027E0,7.843373299E0,-1.152114201E1
2.505645255E1,-3.861417532E0,5.573781013E0,-5.303691387E0
2.507773911E1,-8.584251255E-2,5.391926765E0,-7.003492832E0
2.509902568E1,-2.108973980E0,1.312971687E1,-5.921338558E0
2.512031224E1,3.165405273E0,6.603293419E0,-1.239003563E1
2.514159880E1,2.267498493E0,6.653542519E0,-6.680162430E0
2.516288531E1,1.745564103E0,8.094919205E0,-7.838887215E0
2.518417188E1,-1.613360643E0,5.255236626E0,-3.553341627E0
2.520545844E1,3.826123476E0,9.939187169E-1,-1.220100307E1
2.522674500E1,2.478366137E0,6.560222149E0,-1.296221924E1
2.524803151E1,-2.582752943E0,7.699804306E0,-6.096014977E0
2.526931807E1,-3.174378395E0,5.561817169E0,-4.441677094E0
2.529060464E1,-1.737787485E0,4.324129581E0,-7.580461979E0
2.531189120E1,-8.063812256E-1,7.582555771E0,-3.572484255E0
2.533317771E1,-6.484549642E-1,2.703291416E0,-1.301964664E1
2.535446427E1,-5.592325687E0,3.124727249E0,-3.053241730E0
2.537575083E1,-6.801299095E0,3.964907169E0,-1.164556885E1
2.539703740E1,-4.048057556E0,7.292725086E0,-7.779066563E0
2.541832391E1,4.456632137E-1,4.027120590E0,-1.208854008E1
2.543961047E1,2.519043922E0,7.721339703E0,-5.712863922E0
2.546089703E1,4.608875751E0,5.509174824E0,-1.291914845E1
2.548218359E1,1.599601984E0,7.941479206E0,-4.025026798E0
2.550347010E1,2.495115757E0,4.731208801E0,-1.435813236E1
2.552475667E1,-7.035795689E0,8.202595711E0,8.204390407E-1
2.554604323E1,-3.789632797E0,3.509971619E0,-8.255537033E0
2.556732979E1,-4.325924397E0,3.739981890E0,-3.337987661E0
2.558861630E1,1.762313843E0,1.654038578E-1,-1.544985771E1
2.560990286E1,-1.546361685E0,6.833003998E0,-2.016551256E0
2.563118943E1,-3.924229145E-1,4.211667061E0,-8.964112282E0
2.565247599E1,1.369890928E0,1.853241086E0,-1.300289726E1
2.567376250E1,-2.307578325E0,4.151846409E0,-4.611567497E0
2.569504906E1,-3.732803464E-1,5.394319534E0,-1.017069244E1
2.571633563E1,-7.082754970E-1,6.672685146E0,-1.226800156E1
2.573762219E1,1.779063582E0,6.330212116E0,-1.013479996E1
2.575890870E1,-5.096712112E-1,2.538186550E0,-8.061419487E0
2.578019526E1,-2.185544491E0,7.362117290E0,-3.235096216E0
2.580148182E1,-2.321935177E0,8.944669724E0,-4.257429600E0
2.582276839E1,6.849454641E-1,5.432604790E0,-6.340082645E0
2.584405490E1,-4.570291340E-1,5.066203594E0,-6.924230576E0
2.586534146E1,2.303091735E-1,7.149155617E0,-2.423331022E0
2.588662802E1,1.448854089E0,2.114357948E0,-1.275165081E1
2.590791458E1,-1.666002750E0,9.915258884E-1,-9.524331093E0
2.592920109E1,-2.065903187E0,4.474877357E0,-7.829315662E0
2.595048766E1,-6.867401004E-1,5.272285461E0,-1.098485088E1
2.597177422E1,-1.230209947E0,3.474079370E0,-1.017547798E1
2.599306073E1,1.920539260E0,4.953741074E0,-9.818947792E0
2.601434729E1,1.580459356E0,6.720541477E0,-1.009651470E1
2.603563385E1,5.324927807E0,3.411865950E0,-1.369980717E1
2.605692042E1,-2.510968208E0,4.233202457E0,-6.306583405E0
2.607820693E1,2.060818523E-1,1.438684613E-1,-1.206221867E1
2.609949349E1,-7.478767395E0,5.506782055E0,6.322136402E0
2.612078005E1,4.791028976E0,3.830909014E0,-2.022832489E1
2.614206661E1,-7.840382576E0,2.866003275E0,8.421838760E0
2.616335312E1,3.869194269E0,-1.044497013E1,-7.381558895E0
2.618463969E1,6.622435570E0,-4.491028786E0,-3.929493332E1
2.620592625E1,2.681756020E0,5.700600624E0,2.185245275E0
2.622721276E1,-4.067798555E-1,4.752744198E0,-1.084337521E1
2.624849932E1,-1.179063320E1,1.169312572E1,1.000917721E1
2.626978588E1,2.672184706E0,7.929216027E-1,-1.518156242E1
2.629107240E1,6.926324368E0,2.226820469E0,-1.873430634E1
2.631235896E1,-2.927618504E0,1.487976742E1,2.506481707E-1
2.633364552E1,-5.479863167E0,-5.417649746E0,-1.089392376E1
2.635493203E1,-2.827120066E0,3.151048422E0,-5.018646240E0
2.637621859E1,-8.678169250E0,1.386640668E0,8.143971443E0
2.639750516E1,2.009073734E0,6.617650032E0,-1.178435230E1
2.641879172E1,-9.062815458E-2,2.127189445E1,-1.595115423E0
2.644007823E1,5.294120312E-1,-1.199103236E0,-1.908634949E1
2.646136479E1,-1.025922745E-1,6.584150791E0,-1.097049332E1
2.648265135E1,3.972085476E0,6.931109905E0,-9.617651939E0
2.650393786E1,9.005986452E-1,5.693422318E0,-1.045813084E1
2.652522443E1,2.901895761E0,3.081656456E0,8.081758499E0
2.654651099E1,-3.517449200E-1,-4.684847832E0,-1.214118195E1
2.656779750E1,-3.301198006E0,1.147298622E1,-1.333998680E0
2.658908406E1,3.308974504E0,1.992323995E0,-1.890210342E1
2.661037062E1,-2.032403708E0,3.337688446E0,-7.216454029E0
2.663165714E1,-2.762513638E0,8.372486115E0,-1.250728416E1
2.665294370E1,-3.059223652E0,7.240083218E0,-3.024228811E0
2.667423021E1,-2.144866467E0,8.449056625E0,5.027021408E0
2.669551677E1,4.649553299E0,3.778266907E0,-1.065194893E1
2.671680333E1,5.653043389E-1,6.105287075E0,-1.203589821E1
2.673808984E1,7.567301393E-1,6.160321712E0,-1.335733414E1
2.675937641E1,-3.624228954E0,1.084846020E0,-1.040309525E1
2.678066297E1,-2.609373093E0,6.466902256E0,-5.308476925E0
2.680194948E1,-7.274180651E-1,4.379164696E0,-8.411070824E0
2.682323604E1,-2.946761131E0,4.529912472E0,-3.021835804E0
2.684452260E1,-3.825525284E0,6.320641041E0,3.257827997E0
2.686580911E1,3.201297522E0,4.007977962E0,-1.733869171E1
2.688709568E1,3.292224884E0,6.251249313E0,-7.462914944E0
2.690838219E1,4.254737854E0,3.316153049E0,-1.595982838E1
2.692966875E1,-2.329113722E0,6.045466423E0,-6.543771744E0
2.695095531E1,-2.709871531E0,4.599304199E0,-7.015456676E0
2.697224182E1,-6.198009014E0,5.267499924E0,-2.519343138E0
2.699352838E1,-1.972284079E0,4.228416920E0,-5.648257732E0
2.701481495E1,-1.953141451E0,3.797409534E0,-2.028515339E0
2.703610146E1,3.131905794E0,2.801397085E0,-1.565803337E1
2.705738802E1,1.180558920E0,6.007181168E0,-1.129831028E1
2.707867453E1,1.704886183E-2,5.863611698E0,-1.133181000E1
2.709996109E1,-6.719943523E0,4.858027935E0,-4.796113968E0
2.712124766E1,-4.572384834E0,4.769493580E0,-9.198907852E0
2.714253417E1,-3.370589733E0,4.012763500E0,-8.887541771E0
2.716382073E1,3.212364316E-1,7.991728306E0,-1.152353477E1
2.718510724E1,-4.146163464E0,1.158305645E1,-5.277370453E0
2.720639380E1,-7.417750359E-1,5.260022163E0,-8.425427437E0
2.722768036E1,-6.029912829E-1,7.158727169E0,-2.382653236E0
2.724896688E1,4.388735771E0,3.629911900E0,-7.410272598E0
2.727025344E1,3.212364316E-1,3.756731510E0,-3.541377544E0
2.729153995E1,-7.250252366E-1,5.535496235E0,-1.375244904E1
2.731282651E1,-1.728216171E0,-3.559323773E-2,-1.064237785E1
2.733411307E1,-2.681157827E0,5.466104031E0,-1.145174980E1
2.735539958E1,-6.602694988E0,2.248355865E0,-4.558925152E0
2.737668614E1,2.470589429E-1,1.915753603E0,-7.249953270E0
2.739797266E1,-1.033998489E0,1.716850281E0,-1.508824253E1
2.741925922E1,-2.611765862E0,5.813063622E0,6.930212498E0
2.744054578E1,-1.481755376E0,9.149555564E-1,-9.218050003E0
2.746183229E1,8.982058167E-1,7.534699440E0,-2.600041008E1
2.748311885E1,-1.369382477E1,6.380461693E0,2.436641121E1
2.750440536E1,7.958229065E0,-6.061617851E0,-3.322105408E1
2.752569193E1,-5.980261803E0,9.526425362E0,-6.009873390E0
2.754697849E1,4.776672363E0,6.610471725E0,-1.609143257E1
2.756826500E1,-5.194818020E0,1.125254726E1,1.435693622E0
2.758955156E1,-5.824429512E0,9.116953850E0,1.778046608E1
2.761083807E1,1.314556956E0,2.308176517E0,-4.189503479E1
2.763212464E1,-9.332008362E0,1.683081627E1,2.645414925E1
2.765341120E1,5.683851242E0,-1.536790371E0,-3.005146027E1
2.767469771E1,-7.196413994E0,7.589734554E0,5.979962826E0
2.769598427E1,-6.508477330E-1,7.256234884E-1,-1.489920902E1
2.771727078E1,-1.352243900E0,5.291428089E0,5.835496187E-1
2.773855734E1,3.773481369E0,9.317052960E-1,-1.470509148E1
2.775984385E1,2.621935368E0,4.357629299E0,-1.075244808E1
2.778113042E1,3.979264021E0,1.779063582E0,-1.522702599E1
2.780241698E1,-3.892524242E0,2.281855583E0,-5.346762180E0
2.782370349E1,-1.457528114E0,4.130012035E0,-1.452563000E1
2.784499005E1,-1.163210869E0,2.260320187E0,-8.420641899E0
2.786627656E1,-2.740978241E0,1.784836388E1,7.118647546E-2
2.788756313E1,-1.855035782E0,-2.673979282E0,-1.163360500E1
2.790884964E1,-2.693121910E0,1.169791126E1,3.487539053E0
2.793013620E1,3.658625841E0,6.646364212E0,-1.087448120E1
2.795142276E1,3.442972660E0,5.676672459E0,-1.171256733E1
2.797270927E1,1.647458434E0,3.289832115E0,-8.616853714E0
2.799399583E1,-2.429612398E0,6.833003998E0,-8.566604614E0
2.801528234E1,4.241278172E-1,4.956133842E0,-8.619246483E0
2.803656891E1,-1.196710467E0,4.094119549E0,-7.869993687E0
2.805785542E1,-2.082653046E0,6.009573936E0,-5.801398277E0
2.807914198E1,-1.666002750E0,4.719244480E0,-8.384749413E0
2.810042854E1,-4.354937077E-1,6.998407841E0,-6.541378975E0
2.812171505E1,2.925225794E-1,4.781457901E0,-1.140359497E1
2.814300161E1,5.294120312E-1,7.043871880E0,-9.509974480E0
2.816428813E1,9.867402315E-1,6.361319065E0,-9.708579063E0
2.818557469E1,-2.485544533E-1,6.356533527E0,-1.562931919E1
2.820686120E1,-2.082653046E0,8.563912392E0,-9.080761671E-1
2.822814776E1,-1.515254974E0,3.708875179E0,-1.081944656E1
2.824943427E1,6.634100676E-1,4.237987995E0,-8.003992081E0
2.827072083E1,-4.785645306E-1,7.943871975E0,-8.217251778E0
2.829200740E1,-4.447957993E0,2.614757061E0,-1.843968987E0
2.831329391E1,3.783052683E0,1.095823002E1,-2.826761055E1
2.833458047E1,-3.375375509E0,4.872385025E0,-1.254078388E1
2.835586698E1,-3.715156317E0,1.480050564E1,1.698545074E1
2.837715354E1,-2.357827663E0,1.154237866E0,-1.508106422E1
2.839844005E1,-4.534099579E0,8.286344528E0,7.363612652E0
2.841972661E1,5.964110494E-1,-3.219841957E0,-1.467398453E1
2.844101312E1,1.288235903E0,6.548258305E0,-9.538688660E0
2.846229969E1,2.557329178E0,1.166201949E0,-1.886860275E1
2.848358620E1,1.237986565E0,3.696911097E0,-9.055039406E0
2.850487276E1,5.547460079E0,3.627519131E0,-1.947907257E1
2.852615932E1,-3.612264872E0,7.436294556E0,6.054140568E0
2.854744583E1,-3.559622765E0,7.316653252E0,-6.524629116E0
2.856873240E1,-4.081557274E0,6.821040154E0,3.765405416E0
2.859001891E1,1.886740685E0,8.602197647E0,-9.933803558E0
2.861130547E1,4.265206456E-1,-3.059822023E-1,-1.164556885E1
2.863259198E1,-1.634896040E0,5.588138103E0,-8.399106979E0
2.865387854E1,1.285843015E0,8.944669724E0,-1.362054443E1
2.867516505E1,-2.953939438E0,8.114061356E0,5.022235394E0
2.869645161E1,2.918645382E0,2.480758905E0,-1.805444527E1
2.871773812E1,-1.486541033E0,4.522733688E0,-6.847660065E0
2.873902469E1,4.374378681E0,4.408775866E-1,-1.325922871E1
2.876031120E1,1.831705689E0,1.005075264E1,-9.828518867E0
2.878159776E1,-1.273280740E0,-1.097707376E-1,-1.346740437E1
2.880288432E1,-2.312364101E0,3.768695593E0,-8.377571106E0
2.882417083E1,-2.343470573E0,7.165905476E0,-1.259821177E0
2.884545740E1,5.581258535E-1,4.884349346E0,-1.358225918E1
2.886674391E1,1.223330572E-1,6.663113594E0,-2.452044964E0
2.888803047E1,1.192523003E0,2.607578516E0,-1.188963699E1
2.890931698E1,-1.874178290E0,5.758028507E0,-5.272584915E0
2.893060354E1,1.436890006E0,1.893320978E-1,-1.263918877E1
2.895189005E1,-4.929214716E-1,7.654340744E0,-9.275477409E0
2.897317661E1,1.360319614E0,5.272285461E0,-1.496860123E1
2.899446313E1,-3.339483023E0,5.116453171E0,-7.446165085E0
2.901574969E1,-4.235295951E-1,6.055037498E0,-1.249532032E1
2.903703625E1,1.463211060E0,4.630411148E0,-5.712863922E0
2.905832276E1,1.465603828E0,6.703791618E0,-8.787042618E0
2.907960932E1,-3.847060680E0,7.996514320E0,-3.768994808E0
2.910089583E1,-7.866404206E-2,3.383152008E0,-8.549854279E0
2.912218240E1,-5.144568682E-1,6.514758587E0,-6.055336952E0
2.914346891E1,1.350748420E0,7.491329670E0,-8.423034668E0
2.916475547E1,-3.389732361E0,2.700898647E0,-5.382654667E0
2.918604198E1,-4.177269936E0,5.236093998E0,-5.729613781E0
2.920732854E1,6.251249313E-1,2.233999014E0,-1.305553913E1
2.922861505E1,1.010668516E0,3.134298563E0,-1.039352417E1
2.924990161E1,1.101595759E0,3.294617653E0,-1.347218990E1
2.927118818E1,-3.092723370E0,3.905086517E0,-5.420939922E0
2.929247469E1,-3.876372576E-1,5.873183250E0,-6.708876610E0
2.931376125E1,-4.977070987E-1,4.747958183E0,-8.741579056E0
2.933504776E1,-1.050748229E0,3.292224884E0,-7.118348122E0
2.935633432E1,-2.910868645E0,5.169095039E0,5.189434290E-1
2.937762083E1,6.346961856E-1,6.418746710E-1,-2.219402885E1
2.939890740E1,-7.417750359E-1,7.398009300E0,-5.892624855E0
2.942019391E1,-1.983051747E-1,3.651447296E0,-1.232064342E1
2.944148047E1,-2.626122952E0,5.188237667E0,-5.449653625E0
2.946276703E1,-1.576271951E-1,6.224927902E0,-7.245167732E0
2.948405354E1,-1.508076429E0,1.015842915E1,-7.092027187E0
2.950534010E1,-1.179960608E0,8.475378036E0,-1.053948689E1
2.952662661E1,-6.171687603E0,5.118845940E0,-1.901396751E0
2.954791318E1,-2.448754787E0,5.473282814E0,-6.912266254E0
2.956919969E1,-4.416851521E0,4.110869408E0,-1.525095463E1
2.959048625E1,-2.178365946E0,3.634697676E0,-1.160010529E1
2.961177276E1,-7.800601721E-1,2.973680258E0,-1.125763226E1
2.963305932E1,1.429711580E0,3.143869877E0,-6.203691959E0
2.965434583E1,4.673481941E0,7.986942768E0,-4.405784607E0
2.967563240E1,2.866003275E0,4.678267479E0,-6.905087948E0
2.969691891E1,3.595215976E-1,2.911466837E0,-1.191117191E1
2.971820547E1,-1.627717614E0,4.675874710E0,-5.538187981E0
2.973949198E1,-1.383350611E0,2.006680965E0,-1.097767162E1
2.976077854E1,-3.274876833E0,4.572983265E0,-1.088195896E1
2.978206510E1,-4.569992065E0,4.398307323E0,-1.210050392E1
2.980335161E1,-1.103390336E0,5.942574978E0,-1.062562847E1
2.982463818E1,2.298605204E0,5.774778366E0,-8.332107544E0
2.984592469E1,2.035394669E0,1.126211929E1,-1.000558758E1
2.986721125E1,-2.355434895E0,8.379665375E0,-5.916553020E0
2.988849776E1,-4.732704163E0,5.688636780E0,-3.797708750E0
2.990978432E1,-6.056832314E0,1.025653553E1,4.306482315E0
2.993107083E1,-8.279166222E-1,3.153441191E0,-9.574581146E0
2.995235740E1,2.016252279E0,7.630412102E0,-2.222334146E0
2.997364391E1,7.113263607E0,5.245665550E0,-1.554557037E1
2.999493047E1,1.786242127E0,4.173381805E0,-7.271489143E0
3.001621703E1,-1.383350611E0,5.612066269E0,-3.914957047E0
3.003750354E1,-5.652146339E0,2.064108610E0,-2.899801970E0
3.005879010E1,-2.024926186E0,4.206881523E0,-6.534200668E0
3.008007661E1,8.404789865E-2,3.567399502E0,-8.497212410E0
3.010136318E1,1.326521039E0,4.666303158E0,-1.356790257E1
3.012264969E1,-1.790429592E0,3.323331594E0,-1.162642574E1
3.014393625E1,1.677966863E-1,4.482056141E0,-1.194467163E1
3.016522276E1,-3.732803464E-1,5.324927807E0,-1.017547798E1
3.018650932E1,-1.776072621E0,3.850051641E0,-8.042277336E0
3.020779583E1,-1.675574064E0,6.203392506E0,-6.735197544E0
3.022908240E1,9.221340418E-1,9.674779892E0,-6.265905380E0
3.025036891E1,7.567301393E-1,6.368497372E0,-1.120977592E1
3.027165547E1,-1.292423368E0,5.315356255E0,-5.938088417E0
3.029294203E1,-3.227319419E-1,6.782754898E0,-9.383154869E0
3.031422854E1,-1.120140076E0,5.655137062E0,-1.084816074E1
3.033551510E1,3.571287692E-1,6.823432922E0,-1.153071308E1
3.035680161E1,-4.905286431E-1,3.139084101E0,-1.009172916E1
3.037808818E1,-3.748954773E0,9.591031075E0,4.243969917E0
3.039937469E1,-3.684946895E-1,3.471686602E0,-1.206939697E1
3.042066125E1,-1.065105200E0,8.944669724E0,-1.568794370E0
3.044194776E1,1.159023523E0,4.661517620E0,-1.006062317E1
3.046323432E1,2.324926376E0,7.206583500E0,-9.040681839E0
3.048452083E1,-5.216353536E-1,4.307379723E0,-9.483653069E0
3.050580740E1,-1.349851131E0,6.282355785E0,-1.157856941E1
3.052709396E1,-5.137390137E0,6.940680981E0,2.383849621E0
3.054838047E1,5.413761139E-1,2.877369225E-1,-2.107598114E1
3.056966703E1,-2.697907448E0,5.348855972E0,1.012163997E0
3.059095354E1,5.360819817E0,5.181059361E0,-1.675933075E1
3.061224010E1,8.144569993E-1,9.466604233E0,-2.808575630E-1
3.063352661E1,2.336890459E0,1.103719330E1,-6.897909641E0
3.065481318E1,-4.642075896E-1,3.349652529E0,-6.974779129E0
3.067609969E1,-1.922034740E0,5.289035320E0,-8.432605743E0
3.069738625E1,-6.918547630E0,6.208178520E0,-1.197607756E0
3.071867281E1,-3.652942896E0,5.286642551E0,-1.092981529E1
3.073995932E1,-1.864607096E0,4.532305241E0,-7.994420528E0
3.076124588E1,2.679363251E0,4.101297855E0,-1.036002445E1
3.078253240E1,5.348855972E0,3.730410576E0,-8.530712128E0
3.080381896E1,4.422235489E0,1.199402362E-1,-1.087208843E1
3.082510547E1,1.616351724E0,3.998406649E0,-7.175776005E0
3.084639203E1,9.029914737E-1,4.271487713E0,-1.116431236E1
3.086767854E1,1.389033556E0,4.431806564E0,-9.802198410E0
3.088896510E1,-3.394817114E-1,5.490032673E0,-4.973182678E0
3.091025161E1,-1.907677889E0,4.417449474E0,-8.434998512E0
3.093153818E1,-4.934000492E0,6.052644730E0,-3.299702406E0
3.095282469E1,1.202094316E0,4.441378117E0,-9.459725380E0
3.097411125E1,2.006680965E0,2.389532566E0,-8.061419487E0
3.099539781E1,3.359223843E0,4.134797573E0,-9.179466248E0
3.101668432E1,5.228915691E0,4.297808647E0,-1.207418346E1
3.103797089E1,-9.119645357E-1,3.127120018E0,-4.041776657E0
3.105925740E1,2.035394669E0,2.590828657E0,-9.380762100E0
3.108054396E1,9.939187169E-1,3.029014349E0,-1.608425522E1
3.110183047E1,2.992822886E0,4.814957142E0,-1.494227982E1
3.112311703E1,-4.455136776E0,6.672685146E0,-8.133502960E0
3.114440354E1,-3.176771164E0,1.049850941E1,-1.045573807E1
3.116569010E1,-6.104688644E0,6.114858150E0,-2.016551256E0
3.118697667E1,2.991028305E-4,8.041977882E0,-1.899003863E0
3.120826318E1,3.906283081E-1,7.522735119E0,1.651346684E0
3.122954974E1,4.072584152E0,5.351248741E0,-1.895474434E1
3.125083625E1,-3.279662609E0,7.352545738E0,-7.307381153E0
3.127212281E1,-9.020941257E-1,2.772683144E0,-1.238285732E1
3.129340932E1,-2.420041084E0,5.997610092E0,-6.088836193E0
3.131469589E1,1.127617657E-1,2.104786634E0,-7.161418915E0
3.133598240E1,-5.335994363E-1,7.745267868E0,-8.167002678E0
3.135726896E1,-3.203391433E-1,3.464508057E0,-9.883553505E0
3.137855547E1,-7.699205875E0,5.128417015E0,1.671506310E1
3.139984203E1,3.419044495E0,2.638685226E0,-2.977120018E1
3.142112859E1,-5.898606777E0,4.831707001E0,3.631108284E0
3.144241510E1,7.228118896E0,6.950551510E0,-2.384118843E1
3.146370167E1,1.154237866E0,8.813064575E0,-2.930908680E0
3.148498818E1,2.767897606E0,1.939681888E0,-1.388405418E1
3.150627474E1,1.677966863E-1,9.002098083E0,-3.713959932E0
3.152756130E1,-5.079962254E0,3.548256874E0,-9.227621078E0
3.154884781E1,-4.486243248E0,7.151548862E0,-1.088674450E1
3.157013438E1,-6.166902065E0,5.501996517E0,3.882653952E0
3.159142088E1,3.696911097E0,5.511568069E0,-1.692443466E1
3.161270745E1,1.659422517E0,6.742076874E0,-5.394618511E0
3.163399396E1,4.010370731E0,6.227321148E0,-1.215314579E1
3.165528052E1,2.422732860E-2,7.907979965E0,-5.339583874E0
3.167656703E1,-3.275175989E-1,3.828516245E0,-1.166471100E1
3.169785359E1,-3.904488325E0,4.814957142E0,-3.948456526E0
3.171914016E1,1.685743570E0,4.651946545E0,-1.514806271E1
3.174042667E1,-1.539183140E0,3.929014683E0,-6.069693565E0
3.176171323E1,-7.561319470E-1,1.259521961E0,-4.738686085E0
3.178299974E1,2.796611547E0,2.047358990E0,-1.500688648E1
3.180428630E1,3.141477108E0,4.891527653E0,-6.694519520E0
3.182557281E1,2.233999014E0,3.112763166E0,-1.568196106E1
3.184685938E1,-3.565305769E-1,5.023132801E0,-5.947659969E0
3.186814588E1,2.083251238E0,4.161417484E0,-8.868398666E0
3.188943245E1,8.527421951E-1,4.759922504E0,-1.031426239E1
3.191071901E1,-3.480659723E0,4.891527653E0,-4.446462631E0
3.193200552E1,-7.393822074E-1,6.636792660E0,-2.741875648E0
3.195329208E1,-1.261316657E0,6.651149750E0,-6.613163352E-1
3.197457859E1,3.876372576E0,3.495614767E0,-6.419344902E0
3.199586516E1,6.272784710E0,4.889134884E0,-1.454955769E1
3.201715167E1,-1.366600871E0,3.167798042E0,-1.539721584E1
3.203843823E1,-3.972085714E-1,4.884349346E0,-1.243549919E1
3.205972479E1,-2.558824778E0,6.193821430E0,-6.582056999E0
3.208101130E1,2.135893345E0,4.577768803E0,-1.086730289E1
3.210229786E1,-6.484549642E-1,7.596912861E0,-6.215655804E0
3.212358438E1,5.078766346E-1,5.868397713E0,-5.971588135E0
3.214487094E1,-7.824530005E-1,6.584150791E0,-9.871589661E0
3.216615745E1,-3.406482220E0,4.173381805E0,-9.191430092E0
3.218744401E1,-4.385744572E0,7.342974663E0,-8.212466240E0
3.220873057E1,-1.828714728E0,6.837790012E0,-1.056341457E1
3.223001708E1,-2.161616087E0,5.667101383E0,-6.021837234E0
3.225130364E1,-3.011965454E-1,5.880361557E0,-9.155537605E0
3.227259016E1,1.221236825E0,5.504389286E0,-4.214358807E0
3.229387672E1,3.696911097E0,3.407080412E0,-1.046052361E1
3.231516323E1,7.208378315E-1,5.281857014E0,-3.778566122E0
3.233644979E1,1.767099500E0,6.890431881E0,-1.327837086E1
3.235773635E1,-4.471886635E0,3.919443607E0,-3.943670750E0
3.237902286E1,1.819741607E0,4.431806564E0,-1.297418308E1
3.240030943E1,-4.311567307E0,3.507578850E0,8.529515266E0
3.242159594E1,1.807777524E0,3.127120018E0,-1.272533035E1
3.244288250E1,-6.771687865E-1,3.557828188E0,-1.025204849E1
3.246416901E1,3.462115288E0,3.043371201E0,-1.390559006E1
3.248545557E1,5.629115105E-1,1.654636860E0,-1.184895897E1
3.250674214E1,1.683350682E0,7.369295597E0,-1.234457207E1
3.252802864E1,-1.512862086E0,3.859622955E0,-1.148764229E1
3.254931521E1,8.551349640E-1,5.817849159E0,-7.214061260E0
3.257060172E1,-8.542376757E-1,3.438187122E0,-8.595317841E0
3.259188828E1,-5.709573746E0,9.033205032E0,2.838784933E0
3.261317479E1,-5.436792374E0,4.374378681E0,-1.082901764E1
3.263446135E1,-3.530908823E0,5.561817169E0,-6.117550373E0
3.265574786E1,-7.657032609E-1,5.719743252E0,-8.545068741E0
3.267703443E1,1.333699465E0,6.979265213E0,-8.760722160E0
3.269832094E1,1.920539260E0,5.157131195E0,-8.784649849E0
3.271960750E1,1.582254022E-1,4.257130623E0,-4.568496704E0
3.274089401E1,1.166201949E0,3.742374659E0,-9.684650421E0
3.276218057E1,1.726421595E0,2.887538671E0,-8.011170387E0
3.278346714E1,1.539781332E0,2.152642965E0,-1.175085258E1
3.280475365E1,2.991028305E-4,2.614757061E0,-9.335298538E0
3.282604021E1,1.510469317E-1,3.241975546E0,-9.562616348E0
3.284732672E1,-2.245364904E0,3.881158352E0,-1.188724422E1
3.286861328E1,-1.855035782E0,5.104488850E0,-7.271489143E0
3.288989979E1,-1.364207983E0,5.487639427E0,-8.854042053E0
3.291118635E1,-5.766702294E-1,6.366104603E0,-1.081944656E1
3.293247286E1,6.514459848E-1,5.427819252E0,-1.012283611E1
3.295375943E1,-2.916252613E-1,5.092525005E0,-9.263513565E0
3.297504594E1,3.834498227E-1,4.252345085E0,-8.918647766E0
3.299633250E1,1.036989570E0,5.365605831E0,-1.072134113E1
3.301761906E1,2.401496649E0,5.257629395E0,-9.033503532E0
3.303890557E1,1.293021560E0,6.002395630E0,-2.476272345E0
3.306019214E1,2.997010350E-1,5.547460079E0,-1.011326504E1
3.308147865E1,-3.485445261E0,6.763612270E0,-4.999503613E0
3.310276521E1,-5.735895157E0,3.952943087E0,-8.513961792E0
3.312405172E1,-9.748359680E0,5.679065228E0,-3.062813044E0
3.314533828E1,-5.134997368E0,5.705386639E0,-6.651448727E0
3.316662479E1,9.436694384E-1,3.677768469E0,-9.838089943E0
3.318791135E1,1.139880896E0,5.135595798E0,-6.151049614E0
3.320919786E1,2.636292458E0,3.416651726E0,-1.805205154E1
3.323048443E1,-3.042474031E0,8.547162056E0,3.353540897E0
3.325177094E1,3.834498227E-1,2.746362209E0,-2.015175438E1
3.327305750E1,-5.857928753E0,6.576972008E0,-6.230311990E-1
3.329434401E1,-1.733001828E0,5.375176907E0,-1.170778179E1
3.331563057E1,8.623134494E-1,4.003192425E0,-7.245167732E0
3.333691708E1,-1.336989701E-1,3.107977629E0,-2.392224550E0
3.335820364E1,8.580661774E0,2.389532566E0,-3.633830261E1
3.337949021E1,-2.877369165E0,-3.140579700E0,-8.210073471E0
3.340077672E1,-5.108676434E0,1.001964569E1,4.615156651E0
3.342206323E1,-5.491827011E0,1.965105534E-1,-1.225364494E1
3.344334979E1,-1.166501082E-2,6.431009769E0,-5.739185333E0
3.346463635E1,5.916253924E-1,3.438187122E0,-9.706186295E0
3.348592286E1,-9.062815458E-2,4.810171604E0,-1.147567844E1
3.350720943E1,3.380759239E0,3.964907169E0,-1.563649750E1
3.352849594E1,-9.791430473E0,6.361319065E0,1.749302864E1
3.354978250E1,-1.504487246E-1,5.140381336E0,-1.145653534E1
3.357106901E1,-2.403291225E0,2.152642965E0,-8.102396965E0
3.359235557E1,2.169392824E0,3.778266907E0,-1.621825218E1
3.361364208E1,1.917249113E-1,4.987240791E0,-1.651526260E1
3.363492864E1,-2.120938063E0,7.012764931E0,-6.737590313E0
3.365621516E1,3.206083298E0,-2.944368362E0,-9.761520386E0
3.367750172E1,-1.510469317E0,4.776672363E0,-7.019943595E-1
3.369878823E1,3.379862010E-2,7.989335537E0,-1.344108295E1
3.372007479E1,-5.264210105E-1,9.342177391E0,-2.516950369E0
3.374136130E1,-1.687538147E0,3.519542933E0,-1.142752266E1
3.376264786E1,1.779063582E0,9.311071396E0,-1.120738316E1
3.378393438E1,-2.092224360E0,3.569792271E0,-7.044170856E0
3.380522089E1,2.849253654E0,9.009276390E0,-3.599104404E0
3.382650745E1,8.527421951E-1,8.260024071E0,-8.135895729E0
3.384779396E1,-2.963510752E0,6.189035892E0,-7.103991508E0
3.386908052E1,-5.113461971E0,1.068514919E1,1.526919961E0
3.389036703E1,-2.769692183E0,1.467996716E0,-1.007497978E1
3.391165359E1,-2.592324257E0,1.549352646E0,-6.179763794E0
3.393294010E1,4.209274292E0,5.051846981E0,-1.904806519E1
3.395422667E1,-1.704287887E0,6.205785751E0,-8.351249695E0
3.397551318E1,-2.068295956E0,7.421937466E0,-1.308186054E1
3.399679974E1,-1.735394597E0,4.386343002E0,-7.048956394E0
3.401808625E1,-1.972284079E0,9.780363083E0,-6.433701992E0
3.403937281E1,1.563709617E0,1.115952611E0,-2.257209396E1
3.406065932E1,-6.186044693E0,1.404646683E1,1.823270988E1
3.408194588E1,-2.415255308E0,-2.470290184E0,-2.265345001E1
3.410323240E1,-1.323888969E1,1.116162014E1,1.122532940E1
3.412451896E1,-8.525029182E0,2.004287958E0,-8.751151085E0
3.414580547E1,2.217249393E0,6.210571289E0,-7.853243828E0
3.416709203E1,7.053442955E0,5.427819252E0,-1.296939754E1
3.418837854E1,-7.944171429E-1,9.421140671E0,-1.023769188E1
3.420966510E1,-1.074676514E0,1.663938904E1,-1.080359459E0
3.423095161E1,3.040978432E0,-4.222733974E0,-3.715455246E1
3.425223813E1,-5.886642933E0,1.646920013E1,1.233141136E1
3.427352469E1,1.230808139E0,-4.105485439E0,-2.610599327E1
3.429481120E1,-3.253341436E0,1.238016510E1,6.738786697E0
3.431609776E1,-4.516452923E-2,-2.123630047E-2,-1.632592964E1
3.433738427E1,6.729813814E-1,6.641578197E0,2.633002281E0
3.435867083E1,2.207678080E0,2.365604401E0,-1.215553856E1
3.437995734E1,-2.353041887E0,5.793920994E0,-7.386344433E0
3.440124391E1,1.965105534E-1,3.519542933E0,-1.367797279E1
3.442253042E1,-2.719442844E0,7.864908695E0,-4.094418526E0
3.444381693E1,-2.653042078E-1,3.560220957E0,-6.402595043E0
3.446510349E1,3.103191853E0,1.065404320E1,-1.521506214E1
3.448639000E1,-2.870190859E0,7.165905476E0,1.038485050E0
3.450767656E1,9.122636169E-2,3.952943087E0,-2.338146591E1
3.452896307E1,-8.245068550E0,1.961217284E0,8.324031830E-1
3.455024964E1,-3.449553013E0,1.031904742E-1,-1.183938694E1
3.457153614E1,-2.420041084E0,5.171487808E0,-9.811769485E0
3.459282266E1,-5.206781864E0,3.335295677E0,6.391528606E0
3.461410922E1,2.643470764E0,3.668197155E0,-2.200230408E1
3.463539573E1,3.690928817E-1,6.972086906E0,-4.101597309E0
3.465668229E1,2.516651154E0,-1.743769497E-1,-7.096812725E0
3.467796880E1,3.134298563E0,3.687339783E0,-1.092502975E1
3.469925531E1,1.226321608E-2,4.922634602E0,-3.148954630E0
3.472054188E1,-5.790630579E-1,5.535496235E0,-1.331187057E1
3.474182839E1,-5.448756218E0,7.390830994E0,-1.307228947E1
3.476311495E1,-3.732205153E0,3.198904753E0,-1.664208221E1
3.478440146E1,-3.032902718E0,6.279963017E0,-8.971290588E0
3.480568797E1,1.446461320E0,5.308177948E0,-6.055336952E0
3.482697453E1,4.127619267E0,-1.438385487E0,-9.643972397E0
3.484826104E1,-2.147259235E0,7.460222721E0,-1.513460279E-1
3.486954760E1,2.255534410E0,-1.476969719E0,-1.433420372E1
3.489083411E1,-4.435994148E0,8.319844246E0,-5.650650501E0
3.491212062E1,-4.768596649E0,4.791028976E0,-1.351526070E1
3.493340719E1,-6.340979934E-1,3.239582777E0,-1.222014523E1
3.495469370E1,-1.713859200E0,6.797111988E0,-8.648259163E0
3.497598026E1,-1.025922745E-1,3.565006733E0,-1.434138298E1
3.499726677E1,-3.734597921E0,6.227321148E0,1.342373490E0
3.501855328E1,-1.766501307E0,6.323033810E0,-6.093621731E0
3.503983984E1,-1.194317579E0,5.224130154E0,-5.083252430E0
3.506112635E1,1.175773263E0,6.038288116E0,-1.014197922E1
3.508241286E1,-1.001994461E-1,4.822135925E0,-1.105663490E1
3.510369943E1,-7.800601721E-1,5.133202553E0,-9.454939842E0
3.512498594E1,-3.530908823E0,4.027120590E0,1.885843396E0
3.514627250E1,1.664208174E0,6.222535133E0,-1.076441193E1
3.516755901E1,-1.840678811E0,4.980062008E0,-6.471987247E0
3.518884552E1,4.097708762E-1,5.209773064E0,-1.326162148E1
3.521013208E1,-2.537289381E0,5.224130154E0,-7.367201805E0
3.523141859E1,6.179464459E-1,3.474079370E0,-1.067587757E1
3.525270510E1,1.633101463E0,8.216354847E-1,-7.182954311E0
3.527399167E1,6.509973049E0,2.427817583E0,-1.927538300E1
3.529527818E1,2.023430586E0,6.157928944E0,-1.499402523E0
3.531656474E1,-2.557329237E-1,4.707280159E0,-9.505188942E0
3.533785125E1,-5.484648705E0,1.003639507E1,-2.813660383E0
3.535913776E1,-3.717848301E0,4.479662895E0,-6.096014977E0
3.538042432E1,-2.400898457E0,4.443770885E0,-1.061127090E1
3.540171083E1,-2.429612398E0,4.824528694E0,-6.594020844E0
3.542299734E1,7.710871100E-1,1.537388563E0,-1.383141232E1
3.544428391E1,-9.215358496E-1,3.960121393E0,-2.868695259E0
3.546557042E1,2.590828657E0,4.039084435E0,-1.416162205E1
3.548685693E1,-6.909275055E-2,3.335295677E0,-8.059026718E0
3.550814349E1,4.570590496E0,5.360819817E0,-1.453280830E1
3.552943000E1,1.309771299E0,2.071287155E0,-1.126720333E1
3.555071651E1,-5.742774606E-1,7.747660637E0,-8.777471542E0
3.557200307E1,-1.144068360E0,1.118345499E0,-9.823733330E0
3.559328958E1,-3.557229996E0,6.296712875E0,-8.631210327E0
3.561457609E1,-4.306781769E0,4.424628258E0,-7.597211838E0
3.563586266E1,-3.073580742E0,4.675874710E0,-8.006384850E0
3.565714917E1,-1.139282703E0,5.947360516E0,-5.176572800E0
3.567843568E1,-1.486541033E0,5.293820858E0,-7.173383236E0
3.569972224E1,9.628120065E-1,5.609673500E0,-5.918945789E0
3.572100875E1,3.689732552E0,2.377568483E0,-8.662615776E0
3.574229526E1,3.809373617E0,4.525126934E0,-9.155537605E0
3.576358182E1,7.112665176E-1,4.613661289E0,-9.533903122E0
3.578486833E1,-1.050748229E0,4.151846409E0,-9.545866966E0
3.580615484E1,-4.905286431E-1,7.151548862E0,-1.194227886E1
3.582744141E1,1.084846020E0,6.679863453E0,-1.247378445E1
3.584872792E1,7.686942816E-2,6.911967278E0,-6.862017155E0
3.587001443E1,-2.159223318E0,7.836194992E0,-1.353918839E1
3.589130094E1,-7.162914753E0,8.334200859E0,1.952842355E0
3.591258750E1,-4.862215519E0,4.249952316E0,-8.516354561E0
3.593387401E1,-4.694418907E0,6.387938976E0,-3.718745470E0
3.595516052E1,3.088835001E0,4.719244480E0,-1.231107235E1
3.597644708E1,2.736790895E0,3.940979004E0,-1.146850014E1
3.599773359E1,2.751147747E0,5.037489891E0,-7.824530125E0
3.601902010E1,2.873181820E0,3.093620539E0,-1.389123249E1
3.604030667E1,-1.874178290E0,5.973681927E0,-3.907778502E0
3.606159318E1,2.372782707E0,5.576174259E0,-1.549771404E1
3.608287969E1,1.017846942E0,3.742374659E0,-2.964408159E0
3.610416620E1,4.043870449E0,3.773481369E0,-1.344347572E1
3.612545276E1,-7.633104324E-1,5.652744293E0,-5.499902725E0
3.614673927E1,-8.709874153E-1,3.790230989E0,-9.754042625E0
3.616802578E1,-3.203391433E-1,7.417151928E0,-5.368297577E0
3.618931234E1,4.049852192E-1,4.024727821E0,-7.434200764E0
3.621059885E1,2.973082066E-1,9.085846901E0,-6.340082645E0
3.623188536E1,2.054537296E0,5.173880577E0,-5.040181637E0
3.625317188E1,-4.498506486E-1,4.281058788E0,-5.037788868E0
3.627445844E1,-1.981855392E0,5.482853889E0,-6.641877651E0
3.629574495E1,-1.435992718E0,4.049852192E-1,-1.473619843E1
3.631703146E1,-4.036093712E0,4.431806564E0,-8.411070824E0
3.633831797E1,-2.563610315E0,3.476472139E0,-1.178674507E1
3.635960448E1,-1.321137190E0,1.147059321E0,-1.012283611E1
3.638089104E1,-2.629113793E-1,3.735196114E0,-8.501997948E0
3.640217755E1,2.495115757E0,4.441378117E0,-1.148524952E1
3.642346406E1,3.852444410E0,5.195415974E0,-1.061366367E1
3.644475057E1,2.253141642E0,6.754041195E0,-9.105288506E0
3.646603714E1,-7.585247755E-1,7.326224804E0,-4.827220440E0
3.648732365E1,1.044167995E0,6.392724991E0,-6.258726597E0
3.650861016E1,-9.406784177E-1,7.577770233E0,-2.231905222E0
3.652989667E1,1.930110574E0,6.088537216E0,-7.829315662E0
3.655118318E1,-1.412064433E0,7.060621262E0,-5.454439163E0
3.657246974E1,1.302592874E0,8.710173607E0,-6.074479580E0
3.659375625E1,7.686942816E-1,3.687339783E0,-8.976076126E0
3.661504276E1,6.634100676E-1,6.217749596E0,-6.486343861E0
3.663632927E1,-2.135295153E0,3.929014683E0,-8.810971260E0
3.665761578E1,-1.349851131E0,7.575377464E0,-6.524629116E0
3.667890229E1,-2.791227579E0,9.239286423E0,-5.193322659E0
3.670018880E1,3.613162279E0,5.339284420E0,-1.759951019E1
3.672147536E1,-1.539183140E0,5.861218929E0,-1.114995575E1
3.674276188E1,-3.346960545E-1,5.837290764E0,-1.114756203E1
3.676404838E1,-3.186342478E0,8.281558990E0,-3.060420275E0
3.678533490E1,-4.943571568E0,2.844467878E0,-3.783351660E0
3.680662141E1,-1.055533886E0,3.591626883E0,-5.734399319E0
3.682790792E1,1.611566067E0,3.778266907E0,-8.458927155E0
3.684919443E1,3.203690529E0,3.672982693E0,-1.206461143E1
3.687048099E1,8.694919348E-1,4.012763500E0,-1.265833092E1
3.689176750E1,3.667000830E-1,4.767100811E0,-9.114859581E0
3.691305401E1,-5.814558864E-1,3.795016766E0,-1.024726295E1
3.693434052E1,-1.050748229E0,6.246463299E0,-4.463212490E0
3.695562703E1,-2.635694027E0,6.122036934E0,-7.111169815E0
3.697691354E1,-2.058724880E0,6.474080563E0,-9.261120796E0
3.699820005E1,1.366899908E-1,6.617650032E0,-8.897112846E0
3.701948656E1,-1.719841212E-1,6.732505798E0,-7.197311401E0
3.704077307E1,1.439282775E0,3.256332397E0,-1.150917816E1
3.706205958E1,-3.852444589E-1,5.906682491E0,-5.059324265E0
3.708334609E1,-9.646066427E-1,5.425426006E0,-5.624329567E0
3.710463260E1,-5.886343718E-1,5.006382942E0,-7.513463020E0
3.712591911E1,2.612364054E0,5.396712303E0,-1.326640701E1
3.714720563E1,-5.790630579E-1,3.897907972E0,-1.284257793E1
3.716849214E1,-2.393719912E0,6.883253574E0,-7.853243828E0
3.718977865E1,-3.126222849E0,4.884349346E0,-8.320143700E0
3.721106516E1,-1.967498422E0,5.018347263E0,-6.792625427E0
3.723235167E1,6.203392744E-1,5.830112457E0,-8.595317841E0
3.725363818E1,3.163012505E0,5.681458473E0,-9.878767967E0
3.727492469E1,1.410568953E0,6.849753857E0,-6.323332787E0
3.729621120E1,1.123131156E0,4.470091820E0,-8.930612564E0
3.731749771E1,-1.718644857E0,6.098108292E0,-3.467200041E0
3.733878422E1,-1.924427629E0,9.646066666E0,-6.270690918E0
3.736007073E1,-4.905286312E0,8.252845764E0,-5.499902725E0
3.738135724E1,-5.429613590E0,7.651947498E0,-7.070491791E0
3.740264375E1,-1.251745343E0,4.194917202E0,-1.173649597E1
3.742393026E1,1.168594718E0,7.084549427E0,-4.630710125E0
3.744521677E1,2.284248352E0,3.756731510E0,-1.350090313E1
3.746650323E1,-3.948157430E-1,6.282355785E0,-4.570889473E0
3.748778974E1,-2.592324257E0,6.186643124E0,-3.249453068E0
3.750907625E1,2.590828657E0,6.842575550E0,-6.421737671E0
3.753036276E1,9.460622668E-1,8.142775536E0,-4.355535507E0
3.755164927E1,1.549352646E0,6.502794743E0,-8.157431602E0
3.757293578E1,-5.862415433E-1,2.947359324E0,-1.170060349E1
3.759422229E1,-8.460422516E0,8.228917122E0,-4.781756878E0
3.761550875E1,-3.725026608E0,2.305783749E0,-1.532273865E1
3.763679526E1,-5.154139996E0,3.840480328E0,-5.423332691E0
3.765808177E1,3.505186081E0,5.308177948E0,-1.204786205E1
3.767936828E1,1.386640668E0,3.929014683E0,-6.115157604E0
3.770065479E1,-5.288137794E-1,3.933800459E0,-7.934599876E0
3.772194125E1,-2.240579367E0,2.140678883E0,-7.637889862E0
3.774322776E1,-7.537391186E-1,5.200201988E0,-5.373083115E0
3.776451427E1,1.755135417E0,5.068596363E0,-1.241396427E1
3.778580078E1,8.647062778E-1,5.662315845E0,-6.404987812E0
3.780708729E1,9.125627279E-1,3.737588882E0,-1.109013462E1
3.782837375E1,-1.201496124E0,5.296213627E0,-8.580961227E0
3.784966026E1,2.095215321E0,7.070192814E0,-1.438206005E1
3.787094677E1,-2.697907448E0,9.581459999E0,-5.755934715E0
3.789223323E1,-3.183949709E0,6.102894306E0,-5.770291805E0
3.791351974E1,-4.529314041E0,3.756731510E0,-4.659423828E0
3.793480625E1,-7.298108935E-1,5.068596363E0,-7.831708431E0
3.795609271E1,4.217349887E-1,3.706482172E0,-1.017787075E1
3.797737922E1,-1.639681697E0,5.344070435E0,-9.749257088E0
3.799866573E1,-9.693922997E-1,2.507079840E0,-1.335494137E1
3.801995219E1,-8.255237937E-1,4.970490932E0,-5.705685616E0
3.804123870E1,3.366402388E0,3.818944931E0,-1.177717400E1
3.806252521E1,4.630411148E0,1.582852125E0,-8.580961227E0
3.808381167E1,3.440579891E0,7.690232754E0,-1.180828094E1
3.810509818E1,-2.365903407E-1,3.960121393E0,-1.098006535E1
3.812638469E1,-4.706383228E0,6.373282909E0,-1.700399637E0
3.814767115E1,1.142273664E0,3.639483213E0,-1.522702599E1
3.816895766E1,-3.461517096E0,5.614459038E0,-1.523330688E0
3.819024411E1,1.604387641E0,4.438984871E0,-1.448495197E1
3.821153062E1,-3.765704632E0,7.364510059E0,-2.483450890E0
3.823281708E1,-2.039582253E0,4.467699051E0,-1.025444126E1
3.825410359E1,-2.432005167E0,7.778767109E0,-6.816553593E0
3.827539010E1,2.068894386E0,6.093322754E0,-1.411376572E1
3.829667656E1,-2.764906645E0,5.664708614E0,-3.577269793E0
3.831796302E1,-1.596610904E0,4.920241356E0,-7.819744587E0
3.833924953E1,-2.024926186E0,3.871587038E0,-4.144668102E0
3.836053604E1,3.390330553E0,4.623232365E0,-1.273968697E1
3.838182250E1,1.786242127E0,4.970490932E0,-1.170778179E1
3.840310901E1,-2.736192703E0,5.128417015E0,-1.063519955E1
3.842439547E1,-4.349852562E0,2.035394669E0,-2.023729801E0
3.844568193E1,1.020239711E0,2.995215654E0,-9.742077827E0
3.846696844E1,-8.685946465E-1,1.079761237E-1,-7.968099594E0
3.848825490E1,4.326522350E0,8.267202377E0,-1.801137352E1
3.850954141E1,-6.771687865E-1,5.921039581E0,-1.159322619E0
3.853082786E1,5.391926765E0,5.492425442E0,-1.573221111E1
3.855211438E1,-5.766702294E-1,5.073382378E0,-2.665305376E0
3.857340083E1,-2.525325298E0,3.375973701E0,-5.820540905E0
3.859468729E1,-8.098807335E0,6.442974091E0,3.152543783E0
3.861597380E1,-6.293123364E-1,1.031904742E-1,-1.537089443E1
3.863726026E1,-3.442673683E-1,4.091726780E0,-8.796614647E0
3.865854672E1,2.360818624E0,-2.365005970E0,-1.791566086E1
3.867983323E1,-1.069890857E0,1.024217796E1,-2.377867550E-1
3.870111969E1,-5.216353536E-1,6.940680981E0,-6.387938976E0
3.872240614E1,-4.699204445E0,4.084548473E0,-1.990230203E0
3.874369266E1,2.176571369E0,3.603590965E0,-1.346501160E1
3.876497911E1,1.575673699E0,3.897907972E0,-1.111406326E1
3.878626557E1,8.551349640E-1,3.833301783E0,-1.225843048E1
3.880755208E1,-5.017749310E0,8.216354847E-1,-8.190931320E0
3.882883854E1,-3.320340633E0,5.257629395E0,-9.086145401E0
3.885012500E1,-2.626122952E0,3.438187122E0,-8.289036751E0
3.887141151E1,-3.323032558E-1,3.952943087E0,-8.866005898E0
3.889269797E1,1.494317770E0,2.322533369E0,-8.051848412E0
3.891398443E1,3.766302824E0,4.257130623E0,-7.302595615E0
3.893527088E1,1.089631557E0,3.689732552E0,-1.508345699E1
3.895655734E1,-4.900500774E0,5.394319534E0,-6.481558323E0
3.897784385E1,-3.468695641E0,6.373282909E0,-7.590033531E0
3.899913031E1,-9.741778970E-1,5.851647854E0,-9.814162254E0
3.902041677E1,1.113559842E0,9.658030510E0,-1.505235004E1
3.904170323E1,-1.060319543E0,5.863611698E0,-1.054427242E1
3.906298969E1,-7.178468108E-1,7.898408413E0,-2.885445118E0
3.908427615E1,4.360919297E-1,3.950550079E0,-1.131984615E1
3.910556260E1,-1.100997567E0,1.063250732E1,-5.167001247E0
3.912684911E1,-9.068797827E-1,3.323331594E0,-1.250489140E1
3.914813557E1,-5.477469921E0,7.931908131E0,-1.963909149E0
3.916942203E1,-1.321137190E0,4.257130623E0,-1.086491013E1
3.919070849E1,-7.250252366E-1,7.733303547E0,1.112662554E0
3.921199495E1,6.895217419E0,5.885147095E0,-1.390559006E1
3.923328141E1,1.829312921E0,4.941776752E0,-8.901898384E0
3.925456786E1,1.281057477E0,7.580163002E0,-1.189202976E1
3.927585432E1,-2.997010469E0,5.966503143E0,-8.157431602E0
3.929714078E1,-5.479564071E-1,5.868397713E0,-9.639186859E0
3.931842724E1,3.882354796E-1,5.796313763E0,-4.997110844E0
3.933971370E1,-2.341975123E-1,2.933002472E0,-1.189681530E1
3.936100016E1,-2.793620348E0,4.992026329E0,-3.153740168E0
3.938228661E1,-9.272187948E-3,3.009572744E0,-1.044377327E1
3.940357307E1,-3.035893738E-1,4.178167343E0,-4.231108665E0
3.942485953E1,1.776670814E0,3.569792271E0,-1.148764229E1
3.944614599E1,-1.505683661E0,5.011168957E0,-8.181359291E0
3.946743245E1,-2.173580170E0,6.248856544E0,-2.725125790E0
3.948871891E1,7.136593461E-1,1.704886079E0,-1.732194138E1
3.951000536E1,-1.091426253E0,6.612864494E0,-3.816851139E0
3.953129182E1,1.965105534E-1,2.009073734E0,-1.455912971E1
3.955257828E1,-6.097510338E0,8.058727264E0,-7.884350419E-1
3.957386474E1,-2.211865425E0,4.407878399E0,-6.002694607E0
3.959515120E1,-6.317051649E-1,4.862813950E0,-6.558128834E0
3.961643766E1,-2.772084951E0,2.396710873E0,-1.148524952E1
3.963772411E1,-5.898606777E0,9.699904919E-1,-1.238764286E1
3.965901052E1,-4.304389000E0,1.908575177E0,-1.364925861E1
3.968029698E1,-3.337090254E0,4.316951275E0,-6.323332787E0
3.970158344E1,4.019941807E0,6.395117760E0,-8.530712128E0
3.972286990E1,6.093322754E0,6.514758587E0,-7.393522739E0
3.974415635E1,7.084549427E0,4.762315273E0,-1.327597809E1
3.976544281E1,2.219642162E0,6.696613312E0,-8.406285286E0
3.978672922E1,4.336991012E-1,4.846064091E0,-1.245703506E1
3.980801568E1,-5.997011662E0,8.063512802E0,-6.112764359E0
3.982930214E1,-7.272984505E0,5.274678230E0,-7.448557854E0
3.985058859E1,-5.192425251E0,8.305487633E0,-7.333702087E0
3.987187505E1,-3.150151014E0,5.681458473E0,-3.108276606E0
3.989316146E1,-2.270190418E-1,3.553042412E0,-6.778268337E0
3.991444792E1,1.031904742E-1,6.356533527E0,-5.363512039E0
3.993573438E1,2.420639277E0,2.633899450E0,-1.417358589E1
3.995702083E1,-2.032403708E0,6.253642082E0,-8.442177773E0
3.997830724E1,-2.376970291E0,1.439282775E0,-1.079551888E1
3.999959370E1,-1.524826288E0,5.614459038E0,-7.860422611E0
4.002088016E1,4.527519703E0,5.379962444E0,-1.142752266E1
4.004216656E1,4.630411148E0,5.647958755E0,-1.071655560E1
4.006345302E1,5.078766346E-1,4.345664978E0,-5.636293888E0
4.008473948E1,-3.253341436E0,5.549852848E0,-7.362416267E0
4.010602588E1,-6.336792469E0,4.702494621E0,-5.566901684E0
4.012731234E1,-3.444767237E0,1.228415370E0,-1.233021545E1
4.014859880E1,-1.091426253E0,5.425426006E0,-8.059026718E0
4.016988521E1,1.355534077E0,2.423032045E0,-1.266790199E1
4.019117167E1,-5.234299600E-2,3.325724363E0,-8.423034668E0
4.021245813E1,1.297807217E0,2.516651154E0,-8.042277336E0
4.023374453E1,4.001995921E-1,3.536292791E0,-5.945266724E0
4.025503099E1,3.435794115E0,5.468497276E0,-1.359183121E1
4.027631740E1,5.294119939E-2,2.456531525E0,-6.830910206E0
4.029760385E1,-1.239781260E0,4.388735771E0,-1.092981529E1
4.031889031E1,-1.474576950E0,4.668695927E0,-7.987242222E0
4.034017672E1,1.151545867E-1,5.525924683E0,-6.682555676E0
4.036146318E1,-1.572682738E0,4.194917202E0,-9.976874352E0
4.038274958E1,-5.680860043E0,4.745565414E0,-6.680162430E0
4.040403604E1,-3.981058598E0,3.004786968E0,-5.928517342E0
4.042532245E1,5.964110494E-1,1.719243050E0,-1.239721394E1
4.044660891E1,4.935196638E-1,3.450151205E0,-7.343273640E0
4.046789531E1,1.642672777E0,2.856431961E0,-1.287847042E1
4.048918177E1,1.249950767E0,6.701398849E0,-1.177238846E1
4.051046818E1,-2.027318954E0,6.933502674E0,-4.125525475E0
4.053175464E1,-6.053841114E-1,4.608875751E0,-9.347262383E0
4.055304104E1,-3.001796007E0,6.861718178E0,-4.439284325E0
4.057432750E1,-6.430710852E-2,5.204987526E0,-1.202393341E1
4.059561391E1,-6.909275055E-2,5.748457432E0,-7.884350777E0
4.061690036E1,1.762313843E0,2.442174673E0,-9.814162254E0
4.063818677E1,-5.398207664E0,4.217349887E-1,6.841678143E0
4.065947323E1,3.663411379E0,4.972883701E0,-1.997947121E1
4.068075964E1,-2.865405083E0,3.644268990E0,-1.130788136E1
4.070204604E1,1.390828192E-1,9.734601021E0,-8.624032021E0
4.072333250E1,-2.841476917E0,3.476472139E0,-1.180828094E1
4.074461891E1,-3.727419376E0,4.618446827E0,-8.111968040E0
4.076590536E1,-3.878167391E0,5.403890610E0,-7.503592491E0
4.078719177E1,-2.647658348E0,4.403092861E0,-8.341678619E0
4.080847823E1,1.015454054E0,5.109274387E0,-1.317308712E1
4.082976464E1,-4.115654826E-1,7.486543655E0,-6.179763794E0
4.085105104E1,9.723833203E-1,4.865206718E0,-1.262961674E1
4.087233750E1,-1.048355460E0,9.679565430E0,-1.005344391E1
4.089362391E1,-9.837492108E-1,9.380462646E0,-1.014676476E1
4.091491031E1,-6.722336292E0,4.750350952E0,-3.254238844E0
4.093619677E1,-3.664906979E0,3.569792271E0,-9.086145401E0
4.095748318E1,-9.693922997E-1,5.638387680E0,-6.017051697E0
4.097876958E1,3.311367512E0,5.789135456E0,-9.586544991E0
4.100005604E1,8.312067389E-1,4.197309971E0,-1.064955616E1
4.102134245E1,-1.055533886E0,2.210070848E0,-6.524629116E0
4.104262885E1,-1.924427629E0,4.544269085E0,-7.625925541E0
4.106391531E1,8.216354847E-1,3.940979004E0,-8.925827026E0
4.108520172E1,-3.876372576E-1,4.324129581E0,-1.019222832E1
4.110648818E1,-3.085544825E0,6.102894306E0,-6.246762753E0
4.112777458E1,-1.153639674E0,2.636292458E0,-1.458545017E1
4.114906099E1,-2.159223318E0,6.236892223E0,-3.902992725E0
4.117034745E1,-8.111668825E-1,8.245666504E0,-5.138287544E0
4.119163385E1,-2.848655462E0,2.691327333E0,-7.726424217E0
4.121292026E1,-4.455136776E0,4.132404804E0,-6.579664230E0
4.123420667E1,-3.145365477E0,1.398604870E0,-1.232782269E1
4.125549312E1,-5.680860043E0,1.999502420E0,-5.121537685E0
4.127677953E1,-8.733802438E-1,-1.217348501E-1,-1.724537277E1
4.129806594E1,7.785646915E-1,3.486043453E0,-1.080748272E1
4.131935240E1,2.009073734E0,5.185844898E0,-8.636295319E0
4.134063880E1,2.030609131E0,2.856431961E0,-1.095852947E1
4.136192521E1,-2.046760559E0,3.033800125E0,-4.197608948E0
4.138321161E1,-1.098604679E0,3.325724363E0,-1.250728416E1
4.140449807E1,-1.888535261E0,4.726422787E0,-9.380762100E0
4.142578448E1,-1.217348501E-1,5.142774105E0,-1.367318726E1
4.144707088E1,-1.103390336E0,4.055834293E0,-8.183753014E0
4.146835734E1,-2.817548752E0,5.367998600E0,-6.739983082E0
4.148964375E1,-2.810370207E0,6.064609051E0,-1.027836990E1
4.151093016E1,-4.974678040E0,7.249654293E0,-5.025825024E0
4.153221656E1,-2.388934374E0,5.801099300E0,-9.292227745E0
4.155350302E1,-1.385743380E0,5.923432350E0,-5.174180031E0
4.157478943E1,1.027418256E0,5.561817169E0,-1.229671574E1
4.159607583E1,-6.652047038E-1,7.809874058E0,-4.858327389E0
4.161736229E1,9.819545746E-1,2.084746659E-1,-1.463569927E1
4.163864870E1,-3.176771164E0,1.092712402E1,7.978867054E0
4.165993510E1,-3.559323773E-2,3.213261604E0,-1.860270119E1
4.168122151E1,-4.601099014E0,8.870492935E0,-3.649054468E-2
4.170250797E1,-8.973084688E-1,4.846064091E0,-1.411376572E1
4.172379438E1,-1.695913076E-1,7.462615490E0,-8.222037315E0
4.174508078E1,-2.175973177E0,5.760421276E0,-1.000080204E1
4.176636719E1,-2.429612398E0,4.747958183E0,-6.316154480E0
4.178765359E1,-4.283152521E-1,5.676672459E0,-4.743471622E0
4.180894005E1,1.716850281E0,1.520638824E0,-7.793423176E0
4.183022646E1,-2.800798893E0,1.417807198E1,2.120639086E0
4.185151286E1,-1.036391258E0,2.614158690E-1,-1.733151436E1
4.187279927E1,-4.543671131E0,5.861218929E0,-2.624627352E0
4.189408573E1,1.930110574E0,5.990431309E0,-1.893320847E1
4.191537214E1,-3.107080221E0,5.444568634E0,-1.743470430E0
4.193665854E1,-2.221436739E0,6.153143406E0,-5.957231045E0
4.195794495E1,-9.741778970E-1,6.143572330E0,-8.446963310E0
4.197923135E1,-2.653042078E-1,7.039085865E0,-1.358225942E0
4.200051781E1,9.819545746E-1,3.718446493E0,-1.427199078E1
4.202180422E1,-3.346661568E0,6.303891182E0,-5.394618511E0
4.204309063E1,-1.384846121E-1,-1.624128371E-1,-1.398694611E1
4.206437703E1,-1.359422326E0,7.400402069E0,-1.165992546E1
4.208566349E1,-2.573181629E0,4.029513359E0,-4.894219398E0
4.210694990E1,-3.040081263E0,5.688636780E0,-9.754042625E0
4.212823630E1,-3.712763548E0,5.674279690E0,-8.511569023E0
4.214952271E1,-8.843573570E0,6.950551510E0,4.428516388E0
4.217080911E1,-4.689932466E-1,3.883551121E0,-1.679761505E1
4.219209557E1,8.883354068E-2,6.416653156E0,-8.729615211E0
4.221338198E1,3.495614767E0,5.265107155E0,-1.600768471E1
4.223466838E1,-2.653042078E-1,6.332605362E0,-2.047657967E0
4.225595479E1,4.336991161E-2,3.038585663E0,-1.410419369E1
4.227724120E1,-4.263411522E0,5.758028507E0,-4.264608383E0
4.229852766E1,-1.000499010E0,4.743172646E0,-1.527966785E1
4.231981406E1,-3.530908823E0,6.751648426E0,-6.821339130E0
4.234110047E1,-4.186841488E0,5.082953453E0,-7.716853142E0
4.236238688E1,-2.396112680E0,5.173880577E0,-1.309382439E1
4.238367328E1,-6.473183632E0,1.261496067E1,1.102193928E1
4.240495974E1,1.489532113E0,4.185346127E0,-1.837298965E1
4.242624614E1,-3.605086327E0,1.057268715E1,-1.331605792E0
4.244753255E1,1.906182289E0,3.172583818E0,-1.518156242E1
4.246881896E1,1.917249113E-1,5.485246658E0,-2.308475733E0
4.249010536E1,1.405783296E0,4.058227062E0,-9.725328445E0
4.251139182E1,-1.239781260E0,2.944966555E0,-1.019222832E1
4.253267823E1,-3.203092098E0,4.293023109E0,-1.049880886E1
4.255396464E1,-8.824430466E0,7.836194992E0,-3.730709553E0
4.257525104E1,-3.971487284E0,2.799004316E0,-9.203693390E0
4.259653745E1,-2.293221474E0,2.825325251E0,-1.170778179E1
4.261782391E1,1.992323995E0,5.894718647E0,-1.411137199E1
4.263911031E1,-2.628515720E0,5.956932068E0,-5.758327484E0
4.266039672E1,-2.286042929E0,3.177369356E0,-1.499013615E1
4.268168312E1,-4.002593994E0,3.785445452E0,-6.416952133E0
4.270296953E1,-2.017747641E0,4.202095509E0,-1.215075302E1
4.272425594E1,-4.119842529E0,5.473282814E0,-7.611568928E0
4.274554240E1,-3.305983543E0,5.310570717E0,-6.337689877E0
4.276682880E1,-1.433599830E0,2.454138756E0,-1.276600838E1
4.278811521E1,-2.964109182E-1,5.363213062E0,-8.669795036E0
4.280940161E1,-1.416850090E0,6.083751678E0,-7.020242691E0
4.283068802E1,-3.363411427E0,3.888336897E0,-7.510771275E0
4.285197448E1,-4.569992065E0,5.063810825E0,-5.669793129E0
4.287326088E1,-1.996212244E0,4.654339314E0,-1.426002693E1
4.289454654E1,-3.844667673E0,5.092525005E0,-6.261119366E0
4.291583295E1,-6.005984545E-1,6.358926296E0,-9.316155434E0
4.293711935E1,-1.503290772E0,3.842873096E0,-1.003669453E1
4.295840576E1,-3.712763548E0,5.748457432E0,-5.957231045E0
4.297969216E1,-3.195913792E0,5.545067310E0,-7.194918633E0
4.300097862E1,-3.573979616E0,6.548258305E0,-2.856731176E0
4.302226503E1,4.073780477E-1,4.577768803E0,-1.504038620E1
4.304355144E1,-1.802393675E0,4.369593143E0,-6.570092678E0
4.306483784E1,-2.501396894E0,5.092525005E0,-7.802994728E0
4.308612425E1,-2.053939104E0,5.619245052E0,-6.864409924E0
4.310741065E1,-2.104188442E0,6.988836765E0,-5.521438122E0
4.312869711E1,1.278664589E0,5.231308460E0,-1.393191051E1
4.314998352E1,-1.859821439E0,7.237690449E0,-7.276274681E0
4.317126993E1,1.159023523E0,3.591626883E0,-1.855245209E1
4.319255633E1,-3.099901676E0,2.509472847E0,-4.721936226E0
4.321384274E1,1.797607988E-1,6.349354744E0,-5.021039009E0
4.323512920E1,-1.432702541E-1,5.204987526E0,-8.631210327E0
4.325641560E1,2.679363251E0,2.159821510E0,-1.339561939E1
4.327770201E1,-5.551348329E-1,2.913859844E0,-3.864707708E0
4.329898841E1,2.085644007E0,5.724529266E0,-6.017051697E0
4.332027482E1,-2.126621157E-1,5.659923077E0,-2.394617319E0
4.334156123E1,1.288235903E0,3.637090445E0,-2.076222229E1
4.336284763E1,-6.808477879E0,7.187440872E0,-1.968096644E-1
4.338413409E1,-2.027318954E0,1.055833027E-1,-1.363250923E1
4.340542050E1,-3.351447105E0,8.537590981E0,-2.361117840E0
4.342670690E1,4.935196638E-1,-7.776673436E-1,-1.306750393E1
4.344799331E1,-2.975475073E0,5.006382942E0,1.714816284E1
4.346927972E1,1.148973656E1,-4.244269371E0,-3.179911804E1
4.349056612E1,-3.613162339E-1,-2.093719784E-3,-1.035763168E1
4.351185258E1,-2.005783558E0,3.026621580E0,1.902593136E0
4.353313899E1,-5.633003712E0,3.084049225E0,-1.726451492E1
4.355442539E1,-3.540480137E0,2.854039192E0,1.756630898E0
4.357571180E1,-1.776072621E0,4.580161572E0,-1.256979656E1
4.359699821E1,-1.840678811E0,3.435794115E0,-6.328118801E0
4.361828461E1,-2.779263496E0,6.402296066E0,-1.210289669E1
4.363957102E1,-8.584251255E-2,4.379164696E0,-1.189681530E1
4.366085748E1,-2.259721994E0,2.760719061E0,-8.061419487E0
4.368214388E1,-1.546361685E0,2.499901533E0,-1.012762165E1
4.370343029E1,-4.103092670E0,3.103191853E0,-5.657829285E0
4.372471670E1,-1.129711390E0,2.578864574E0,-1.040548801E1
4.374600310E1,-3.305983543E0,6.404688835E0,-7.123134136E0
4.376728951E1,-3.585943937E0,2.042573214E0,-1.087208843E1
4.378857597E1,-4.969892502E0,1.199402362E-1,-7.474878788E0
4.380986237E1,-3.080759048E0,5.997610092E0,-9.208478928E0
4.383114878E1,-3.468695641E0,5.396712303E0,-7.044170856E0
4.385243519E1,-1.711466432E0,2.834896564E0,-9.557830811E0
4.387372159E1,-7.633104324E-1,5.157131195E0,-7.410272598E0
4.389500800E1,-1.706680775E0,5.240880013E0,-8.880363464E0
4.391629440E1,-3.535694599E0,5.602495193E0,-4.180859566E0
4.393758081E1,-1.383350611E0,3.258725405E0,-1.305075359E1
4.395886727E1,-3.456731319E0,5.408676624E0,-3.749852180E0
4.398015368E1,-9.358927608E-1,5.837290764E0,-1.086491013E1
4.400144008E1,-2.211865425E0,3.265903711E0,-7.812565804E0
4.402272649E1,-1.711466432E0,4.728815556E0,-7.450950623E0
4.404401289E1,-6.197410822E-1,5.449354649E0,-1.044377327E1
4.406529930E1,6.921239495E-1,5.729314804E0,-6.747161865E0
4.408658576E1,2.638685226E0,4.132404804E0,-1.266072369E1
