"Time (s)","Acceleration x (m/s^2)","Acceleration y (m/s^2)","Acceleration z (m/s^2)"
0.000000000E0,-2.241642952E0,5.099410057E0,9.267160416E0
2.199375000E-2,-1.719908357E0,5.228668690E0,1.010960293E1
4.199531200E-2,-1.368037224E0,5.029997349E0,9.722498894E0
6.199843700E-2,-1.537115812E0,4.931576729E0,9.035995483E0
8.399375000E-2,-1.807373285E0,4.710955620E0,9.996979713E0
1.039937500E-1,-1.846638203E0,4.323152542E0,1.104026794E1
1.239937500E-1,-2.142791271E0,4.191471577E0,1.055032730E1
1.440015620E-1,-2.721910477E0,4.077239037E0,9.605250359E0
1.659937500E-1,-2.716796398E0,4.091930389E0,7.839890003E0
1.859953120E-1,-3.153661728E0,3.412417412E0,8.185899734E0
2.079953120E-1,-3.225477934E0,2.726335049E0,1.086984730E1
2.279953120E-1,-2.272375345E0,1.861041784E0,1.125360012E1
2.479953120E-1,-2.435774565E0,1.495724797E0,1.020007515E1
2.679953120E-1,-2.574714899E0,1.814460039E0,8.434408188E0
2.899953120E-1,-2.954962254E0,1.896178961E0,7.038646698E0
3.099953120E-1,-2.722341299E0,2.289220810E0,7.576614380E0
3.319953120E-1,-1.956311822E0,2.136154652E0,7.988838196E0
3.520000000E-1,-1.457637906E0,2.035636425E0,6.934163570E0
3.739937500E-1,-5.687761307E-1,2.178531885E0,4.929843426E0
3.940000000E-1,-8.024023175E-1,1.773078680E0,6.726260662E0
4.159937500E-1,3.970352411E-1,1.217355847E0,7.121208191E0
4.359953120E-1,1.977428555E0,9.212696552E-1,7.192900181E0
4.559953120E-1,2.252608538E0,8.944163322E-1,7.450257778E0
4.779953120E-1,-3.279836178E0,-2.046850920E-1,9.365810394E0
4.979968750E-1,-2.839465857E0,2.665014744E0,1.002361202E1
5.199953120E-1,7.218326330E-1,1.946696639E0,9.056307793E0
5.419953120E-1,-1.820933968E-1,1.757631302E0,1.069747543E1
5.639953120E-1,1.420412898E0,1.827570796E0,7.742264271E0
5.859937500E-1,-1.341997981E-1,1.066080570E0,1.066646576E1
6.059937500E-1,1.401460290E0,2.128186703E0,1.360812473E1
6.259937500E-1,1.842960715E0,1.324663997E0,1.105526447E1
6.459937500E-1,1.543857932E0,3.781018853E-1,1.205172157E1
6.659953120E-1,1.655868173E0,1.166627407E0,1.180266666E1
6.879937500E-1,3.420777798E0,8.617210984E-1,1.535724354E1
7.079937500E-1,6.297622204E0,1.380707383E0,1.390763950E1
7.279953120E-1,6.977776527E0,6.685664654E-1,1.358608913E1
7.479953120E-1,7.215970516E0,7.955453396E-1,1.752170753E1
7.679953120E-1,5.138665676E0,-5.644091368E-1,1.719860268E1
7.899937500E-1,3.044103146E0,-1.982130885E0,1.543010330E1
8.099953120E-1,2.093020678E0,-1.650351882E0,1.056152248E1
8.319937500E-1,7.140945792E-1,-1.369856834E0,7.541342735E0
8.519937500E-1,5.256708860E-1,2.426762879E-1,8.608169556E0
8.719953120E-1,7.306528687E-1,4.655956030E-1,8.806133270E0
8.919953120E-1,1.038518548E0,-2.827073336E-1,8.307085037E0
9.139937500E-1,8.838243484E-1,-1.266130447E0,6.679851532E0
9.339937500E-1,5.200684667E-1,-1.949895382E0,6.964426041E0
9.539937500E-1,3.735433221E-1,-1.598627687E0,7.317992210E0
9.739937500E-1,-3.743573651E-2,-4.579724669E-1,6.873149872E0
9.939953120E-1,-3.706511557E-1,7.967424393E-1,6.259908676E0
1.015993750E0,2.602976002E-2,1.306468010E0,5.465799809E0
1.035995312E0,-5.866177082E-1,1.322585702E0,5.193339348E0
1.057995312E0,-1.243605852E0,8.126016259E-1,5.930562019E0
1.077995312E0,-1.092254043E0,1.592603803E0,6.576881886E0
1.097995312E0,-1.110813841E-1,2.460904121E0,5.616184235E0
1.117995312E0,2.964979410E-2,2.297648430E0,6.380260468E0
1.137995312E0,5.226829648E-1,2.878797531E0,8.518292427E0
1.157995312E0,6.594589353E-1,2.617887259E0,9.485673904E0
1.177995312E0,4.527914524E-2,1.704413056E0,9.086444855E0
1.197995312E0,-6.852779984E-1,2.460971117E0,9.529162407E0
1.217995312E0,-5.466632843E-1,3.370193005E0,1.152832985E1
1.237996875E0,1.466496438E-1,2.862086296E0,1.063965034E1
1.259993750E0,1.292399645E0,2.530297518E0,1.064090538E1
1.279998437E0,3.523920059E0,1.675088882E0,8.727870941E0
1.301995312E0,3.229586601E0,3.808380127E0,7.655967236E0
1.321995312E0,1.829313755E0,5.269829750E0,7.160693169E0
1.343993750E0,6.759023070E-1,4.166686535E0,7.928705692E0
1.363993750E0,1.873491526E0,-1.413919777E-1,7.429811001E0
1.383993750E0,6.843969226E-1,-1.201209307E0,7.418050766E0
1.403993750E0,1.035185814E0,-1.239257932E0,5.062405109E0
1.423995312E0,6.179913282E-1,-7.582628131E-1,1.051533408E-2
1.445993750E0,1.812267065E0,-2.779074430E0,-3.122067690E0
1.465993750E0,3.550763845E0,-5.134279251E0,-4.012471199E0
1.485993750E0,5.041537762E0,-7.683424473E0,-3.334433317E0
1.505993750E0,5.913266659E0,-9.995141029E0,-3.813005686E0
1.525995312E0,7.653583050E0,-1.215274811E1,-2.608990192E0
1.547995312E0,9.818247795E0,-1.333865356E1,-4.918360710E-1
1.567995312E0,1.178354263E1,-1.364368343E1,2.446682602E-1
1.587995312E0,1.353288937E1,-1.339166069E1,3.098154545E0
1.607995312E0,1.407990742E1,-1.286226463E1,5.625703812E0
1.627996875E0,1.563116837E1,-1.578436852E1,5.677284241E0
1.649995312E0,1.821432114E1,-1.946001434E1,4.452516079E0
1.669995312E0,2.722892952E1,-1.621708679E1,5.489885330E0
1.691995312E0,3.529999542E1,-9.642972946E0,9.684556007E0
1.713993750E0,3.117090607E1,-4.113410950E0,7.998242855E0
1.733993750E0,1.953896523E1,-5.875428200E0,2.241691113E0
1.753993750E0,1.208684921E1,-8.996251106E0,1.822916508E0
1.773993750E0,1.496395206E1,-7.254393101E0,7.576068401E0
1.793993750E0,1.589174271E1,-4.083952427E0,5.108575344E0
1.813993750E0,1.348291779E1,-7.015001297E0,2.500226498E0
1.833993750E0,1.283904076E1,-6.008718491E0,-7.200896740E-1
1.853995312E0,1.204750824E1,-4.984325886E0,-5.250771642E-1
1.875993750E0,1.038231277E1,-5.228639603E0,2.099647999E0
1.895995312E0,1.013276958E1,-3.053028584E0,1.355319381E0
1.917995312E0,6.687522411E0,-4.544913292E0,-7.102925777E-1
1.937995312E0,3.346960068E0,-5.998480797E0,-2.540382147E0
1.957995312E0,4.260568142E0,-4.511662483E0,4.412992299E-2
1.979993750E0,6.715218544E0,-3.449642420E0,2.597852468E0
1.999993750E0,5.497881889E0,-6.459029198E0,1.177698255E0
2.019995312E0,3.123351097E0,-1.232269764E1,-5.236885548E-1
2.041995312E0,6.118344307E0,-7.790597916E0,4.092035294E0
2.063995312E0,6.306614876E0,-6.689246178E0,-6.421938419E0
2.085995312E0,1.044054890E1,-7.342470646E0,-7.728157520E0
2.107993750E0,1.450199604E1,-2.361793756E0,1.111484289E0
2.127995312E0,1.582293415E1,-9.388813972E-1,5.725111008E0
2.147995312E0,5.102149010E0,-7.640242100E0,6.581985950E0
2.167995312E0,5.067931175E0,-8.263586998E0,4.219933510E0
2.187995312E0,6.240304470E0,-8.265655518E0,-1.275218844E0
2.207995312E0,8.412611961E0,-9.586250305E0,-5.016130447E0
2.229993750E0,4.780349255E0,-7.171495914E0,-1.671449661E0
2.249995312E0,6.053068638E0,-8.725208282E0,6.962721348E-1
2.269995312E0,6.596045017E0,-1.026468945E1,1.318496466E0
2.291993750E0,1.081811428E1,-6.687331200E0,-1.537450910E0
2.311993750E0,1.740239906E1,-2.765906334E0,2.305711985E0
2.331995312E0,1.561250305E1,-2.574849129E0,2.336740866E-2
2.353993750E0,1.237211418E1,-2.490889072E0,-3.909559011E0
2.373993750E0,1.195816612E1,-1.899262667E0,-4.104867935E0
2.393993750E0,1.274236298E1,-1.190818429E0,-5.480691433E0
2.413993750E0,1.145383167E1,-3.741083622E0,-2.499077320E0
2.433995312E0,1.063936329E1,-5.625397205E0,2.619697332E0
2.455995312E0,1.085861397E1,-4.970880032E0,3.397985220E0
2.477995312E0,5.234548569E0,-6.311575413E0,2.955057859E0
2.497996875E0,5.641218424E-1,-1.120767975E1,3.190311909E0
2.519995312E0,2.737989902E0,-9.688922882E0,5.910029411E0
2.541995312E0,5.846276760E0,-4.323104382E0,1.015143490E1
2.563993750E0,2.626841545E0,-4.680166721E0,6.295304298E0
2.583993750E0,-9.184157848E-1,-6.091385365E0,3.753160238E0
2.603993750E0,-1.393511653E0,-8.072147369E0,2.155595541E0
2.623995312E0,-1.646731943E-1,-2.948689222E0,5.208557129E0
2.645993750E0,3.312454700E0,-3.698572159E0,6.238035202E0
2.665995312E0,4.155204296E0,-5.443706036E0,9.935621262E0
2.687995312E0,6.578787804E0,-4.202360153E0,8.838081360E0
2.707995312E0,3.826920748E0,-2.840298891E0,1.028832531E1
2.727995312E0,3.123983145E0,-1.172909737E0,1.397570229E1
2.747995312E0,-1.275123000E0,-2.685432434E0,6.814319134E0
2.767995312E0,-5.323670387E0,-1.809212089E0,5.252543449E0
2.787995312E0,-5.508339882E0,-1.642460704E0,1.963915676E-1
2.809995312E0,-4.510293007E0,-3.577320576E-1,-1.009491161E-1
2.829995312E0,-2.072641373E0,-6.335632205E-1,-1.802536964E0
2.849995312E0,-1.155824810E-1,-5.624142647E0,1.916864777E1
2.869995312E0,-5.368892193E0,-1.211268711E1,7.835848808E0
2.892006250E0,-6.370281219E0,-1.446263504E1,4.595181465E0
2.913993750E0,-7.003902197E-1,-7.716751575E0,2.778537989E0
2.933993750E0,-2.251296520E0,-6.433574200E0,7.740387440E0
2.953993750E0,-1.598857403E0,-5.219187737E0,3.401413679E0
2.973993750E0,-3.551290751E0,-7.643814564E0,1.036545634E0
2.993993750E0,-8.208971024E0,-1.468507481E1,3.638372660E0
3.013993750E0,-1.238287830E1,-1.461941719E1,5.482109070E0
3.033993750E0,-7.143579483E0,-7.994114876E0,-1.000172973E0
3.053995312E0,-5.293043613E0,-6.901065826E0,-9.729269147E-1
3.073996875E0,-1.143114471E1,-9.853299141E0,3.282948494E0
3.095995312E0,-1.084922981E1,-7.760421753E0,9.420351028E0
3.117995312E0,-7.141175747E0,-4.988060474E0,4.928856850E0
3.137996875E0,-5.036739826E0,-4.947119713E0,1.759058356E0
3.159995312E0,-2.385611296E0,-3.612189531E0,1.272307515E0
3.179995312E0,-1.325985432E0,-3.198509693E0,3.634876907E-1
3.201993750E0,-2.446270704E0,-4.403166771E0,1.778882265E0
3.221993750E0,-4.353185654E0,-1.024094963E1,1.375927639E1
3.241993750E0,-1.102999091E0,-7.860892296E0,5.940818787E0
3.261995312E0,1.133213997E0,-3.030398369E0,-1.897912502E0
3.281995312E0,4.243961871E-1,-2.895863533E0,-2.010219574E0
3.303993750E0,-1.580585003E0,-1.002264595E1,-1.729638338E0
3.323993750E0,-7.271707535E0,-2.861559296E1,-1.381052136E0
3.343993750E0,-9.334944725E0,-4.135829163E1,2.848420143E0
3.363993750E0,-4.754980505E-1,-2.607210922E1,-4.922766089E-1
3.383993750E0,2.610963106E0,-1.052138710E1,-3.046315193E0
3.403993750E0,4.166552544E0,-2.514917135E0,-4.911312103E0
3.423995312E0,4.169511795E0,8.689324260E-1,-3.714900970E0
3.443995312E0,2.510425806E0,-2.230256319E0,-3.046573639E0
3.465993750E0,1.427135766E-1,-5.039669991E0,-4.382088184E0
3.485993750E0,-1.134928226E0,-7.099353790E0,-4.086471558E0
3.505993750E0,-1.587786794E0,-8.259354591E0,-2.434539318E0
3.526001562E0,-1.808110714E0,-9.133074760E0,2.017833292E-1
3.547995312E0,-6.105127811E0,-1.102125740E1,9.714157104E0
3.567995312E0,-4.399460316E0,-1.085056019E1,4.384932518E0
3.587995312E0,-4.449652672E0,-1.192226315E1,7.618043423E0
3.607995312E0,-1.375794411E0,-1.400335026E1,7.831069946E0
3.627995312E0,2.491703033E0,-1.347528553E1,3.255616188E0
3.647995312E0,6.688479900E0,-1.243108749E1,2.238425255E0
3.667995312E0,3.071339369E0,-1.187898540E1,1.491463184E0
3.687995312E0,1.781697869E0,-1.237268829E1,1.075034857E0
3.707995312E0,1.293472290E0,-1.195152950E1,-2.234613657E0
3.727995312E0,-1.239123940E0,-1.376681328E1,-6.846574306E0
3.749993750E0,-3.443005562E0,-1.073647213E1,-7.456540108E0
3.769993750E0,-5.859550476E0,-8.202314377E0,-7.082881927E0
3.789993750E0,-1.084665298E1,-9.763698578E0,-6.608351231E0
3.809995312E0,-1.089522648E1,-1.041592693E1,-4.280449867E0
3.831995312E0,-4.757317066E0,-5.402353287E0,-1.014758423E-1
3.853995312E0,-4.223266602E0,-4.537806988E0,2.481015444E0
3.875993750E0,-4.538611412E0,-1.065240669E1,1.098896503E1
3.895995312E0,-3.287047446E-1,-1.247469139E1,5.638785839E0
3.918006250E0,-1.817955732E0,-1.128731060E1,-2.368564606E0
3.939995312E0,-2.722599983E0,-7.152514458E0,-3.618002653E0
3.961993750E0,-3.331656218E0,-5.301796913E0,-2.378993750E0
3.981998437E0,-5.302323818E0,-5.898240089E0,-1.999828696E0
4.003993750E0,-6.604817390E0,-7.135420322E0,-2.704681873E0
4.023993750E0,-6.095455647E0,-7.970890999E0,-2.857364655E0
4.043993750E0,-4.991652012E0,-8.445642471E0,-1.907106161E0
4.063993750E0,-4.325316906E0,-9.053318977E0,-4.494874179E-1
4.083993750E0,-3.782177925E0,-1.042772579E1,1.519839186E-2
4.103993750E0,-3.358748913E0,-1.314536381E1,-1.722743034E0
4.123993750E0,-1.924248695E0,-1.553343678E1,-7.741938591E0
4.143995312E0,1.307397008E0,-1.491935253E1,-1.106038857E1
4.163995312E0,3.051419735E0,-1.277562332E1,-1.070723438E1
4.183995312E0,4.894016743E0,-1.494165707E1,-1.136353207E1
4.205993750E0,2.735442400E0,-1.889403534E1,8.524545670E0
4.225993750E0,-1.318216801E1,-1.510251808E1,4.098839951E1
4.245993750E0,-1.519259834E1,-1.174331093E1,2.233885002E1
4.265993750E0,-1.640044594E1,-1.395558071E1,4.003105164E0
4.285996875E0,-1.381992531E1,-1.265447617E1,5.149841785E0
4.307995312E0,-2.763301611E0,-7.803747177E0,2.986527085E-1
4.329993750E0,6.672199726E0,-4.414467335E0,-4.582300663E0
4.349995312E0,1.373451042E1,-1.016194969E-1,-9.327608109E0
4.369995312E0,1.066095924E1,4.547268867E0,-4.679783344E0
4.391993750E0,5.033512115E0,6.645633221E0,-1.457273960E0
4.411995312E0,2.909347773E0,2.549652338E0,-1.383206964E0
4.433993750E0,-5.231033802E0,-1.629579782E0,1.346998882E1
4.453993750E0,-6.297660351E0,-9.063604355E0,1.015582085E0
4.473993750E0,-6.515398502E0,-1.401323318E1,-7.869290829E0
4.493995312E0,-6.418787479E0,-1.769537354E1,-3.226167679E0
4.515993750E0,-4.358634949E0,-1.639185333E1,6.349920750E0
4.535995312E0,-1.584262490E0,-1.305323505E1,9.091262817E-1
4.555995312E0,-3.150798082E0,-1.460267639E1,9.155427106E-3
4.577995312E0,-4.175392151E0,-1.628757286E1,6.626288295E-1
4.597995312E0,-7.899869442E0,-1.438059044E1,5.579160452E-1
4.617995312E0,-1.039612198E1,-1.391046524E1,8.488124847E0
4.637995312E0,-9.415236473E0,-2.053805733E1,2.869150925E1
4.657995312E0,-5.598122478E-1,-1.514649582E1,1.332072544E1
4.677995312E0,4.159590244E0,-7.862338066E0,1.920360446E0
4.697995312E0,-2.584224701E0,-6.088646412E0,-8.854265213E0
4.717995312E0,-6.082287788E0,-5.283026218E0,-1.280593395E1
4.737995312E0,-1.121639442E1,-3.929066896E0,-1.357533360E1
4.759993750E0,-2.744094086E1,-6.969712377E-1,2.453801918E1
4.779993750E0,-2.763436508E1,-9.889086723E0,-9.577334404E0
4.799995312E0,-1.240353489E1,-1.040713501E1,3.755238295E0
4.821993750E0,-4.303596497E0,-9.178306580E0,-3.656328917E-1
4.841993750E0,-7.139796615E-1,-9.662012100E0,-3.780913830E0
4.861993750E0,4.305368423E0,-9.930497169E0,2.400512695E0
4.881993750E0,4.834467769E-1,-1.425470352E1,-4.900805950E0
4.901995312E0,-8.857589215E-2,-1.557890701E1,-1.722197175E0
4.923995312E0,8.313913345E-1,-1.426580238E1,3.997320890E0
4.945993750E0,1.371446609E0,-8.956938744E0,1.215497971E0
4.965995312E0,8.897715211E-1,-8.541391373E0,9.580733180E-1
4.987995312E0,1.171473265E0,-1.168620396E1,4.877467826E-2
5.007995312E0,2.366572618E0,-1.386281013E1,-2.076088905E0
5.027995312E0,3.909769773E0,-1.386642075E1,-6.103787422E0
5.047995312E0,2.628029108E0,-1.018731880E1,-8.656437874E0
5.067995312E0,-2.591368914E0,-6.313117027E0,-2.770282924E-1
5.087995312E0,-7.090122223E0,-4.104102135E0,1.114048862E1
5.109993750E0,-1.206456470E1,2.011273146E0,2.173690033E1
5.129993750E0,-9.243141174E0,-1.631983638E0,8.540136337E0
5.149993750E0,-7.157130718E0,-4.649798393E0,-5.452277184E0
5.169995312E0,1.096084714E0,-5.436830044E0,-6.598678112E0
5.191995312E0,2.645363092E0,-1.120003700E1,4.261305809E0
5.213995312E0,-1.936621815E-1,-1.085709190E1,8.403035164E0
5.235993750E0,-4.274138451E0,-5.343264580E0,4.899398327E0
5.255995312E0,-4.026041985E0,-5.488831997E0,1.559401035E0
5.277995312E0,-1.566200614E0,-8.459691048E0,7.310359478E-1
5.297995312E0,-4.042915821E0,-1.456412983E1,1.527222872E0
5.317995312E0,-5.676039696E0,-2.035620117E1,6.239002347E-1
5.337995312E0,-2.309782267E0,-1.454422951E1,-4.373555183E0
5.357995312E0,6.538085639E-2,-1.018599701E1,-1.783766508E0
5.377995312E0,-2.798228025E0,-9.966610909E0,-1.035904050E0
5.397995312E0,-4.374302387E0,-6.316976547E0,-2.566517115E0
5.417995312E0,-8.810757637E0,-3.393656492E0,-2.108506441E0
5.437995312E0,-2.288386536E1,-2.303049564E0,2.551239204E1
5.457995312E0,-2.834262657E1,-1.617103195E1,3.204753876E0
5.477995312E0,-1.427897072E1,-2.381449127E1,9.998847008E0
5.497995312E0,-5.509556293E0,-1.536598587E1,-1.052629852E1
5.517995312E0,-1.478500938E1,-2.810972786E1,1.190292645E1
5.537995312E0,-9.380405426E0,-2.571011543E1,-2.899694443E0
5.557995312E0,-6.384397507E0,-1.770076370E1,-5.668799400E0
5.577995312E0,-1.887607813E0,-9.376009941E0,-4.928617001E0
5.597995312E0,6.340324879E-1,-2.778959513E0,-5.257695675E0
5.617995312E0,1.947041392E0,9.794870615E-1,-3.906829596E0
5.637995312E0,1.095749497E0,1.481101036E0,5.777687579E-2
5.657995312E0,-5.802185059E0,3.744292021E0,1.913934326E1
5.677995312E0,-2.676621675E-1,3.615866899E0,4.663771152E0
5.697995312E0,1.883863330E0,5.542203426E0,-1.304945350E0
5.717995312E0,2.130944729E0,3.481236219E0,-3.625463247E0
5.737995312E0,2.045893222E-1,1.573660851E0,-8.372982979E0
5.757995312E0,-3.580480516E-1,-1.652995110E0,-7.089604378E0
5.777995312E0,9.035525322E-1,-9.919282913E0,-4.358318329E0
5.797995312E0,-3.641711044E1,-6.654080963E1,1.592551136E1
5.817995312E0,-1.800379372E1,-3.552003098E1,-3.037762940E-1
5.837995312E0,-4.978703976E0,-1.156264400E1,-2.316016674E0
5.857995312E0,-3.807901144E0,-4.967700005E0,-4.126425743E0
5.877995312E0,-5.740558147E0,-6.730732918E0,-6.273009777E0
5.899993750E0,-2.521420002E0,-5.944879532E0,-6.884603500E0
5.919993750E0,-8.625351191E-1,-3.139602900E0,-7.043157101E0
5.939995312E0,-9.539361596E-1,-1.796091795E0,-9.057888031E0
5.960003125E0,-9.593278766E-1,-4.819336534E-1,-1.112447643E1
5.981993750E0,3.068916559E0,8.635119796E-1,-5.877276897E0
6.001993750E0,3.507955551E0,-1.509965539E0,-4.256402493E0
6.021993750E0,5.759376526E0,-3.461057901E0,-4.509181976E0
6.041995312E0,-8.651141167E0,-1.427641392E1,2.706941843E0
6.063993750E0,-6.045484066E0,-3.310112000E1,4.887599945E1
6.083995312E0,-1.066371727E1,-3.113448715E1,3.024368858E1
6.105995312E0,-1.019742203E1,-1.720789528E1,6.928743362E0
6.127995312E0,-1.175129795E1,-7.718561649E0,1.151859999E0
6.149993750E0,-9.082575798E0,9.412756562E-1,-8.122060776E0
6.169993750E0,-6.410829544E0,8.628463745E0,-2.277356148E1
6.189993750E0,-9.632370949E0,9.928984642E0,-5.077335238E-1
6.209993750E0,-1.011249542E1,5.730244160E0,2.018685579E0
6.229995312E0,-5.909875870E0,-2.556940317E0,2.133894444E0
6.249996875E0,-2.727599144E0,-4.862068176E0,-7.233869553E0
6.271995312E0,-1.922735453E0,-6.361853600E0,-3.416066170E0
6.291995312E0,-7.224925041E0,-6.239433289E0,-3.594079733E0
6.314000000E0,-6.408301353E0,-8.140065193E0,-1.028815365E1
6.335993750E0,-5.954800606E0,-1.115502644E1,-7.898806572E0
6.355993750E0,-6.730685234E0,-1.294393539E1,-6.290956497E0
6.375993750E0,-4.321294308E0,-1.397635365E1,-6.164361000E0
6.395993750E0,-8.514642715E-1,-1.103541183E1,-4.716769218E0
6.415995312E0,4.969884157E-1,-7.631364822E0,-4.655486584E0
6.437995312E0,2.337162256E0,-8.800443649E0,5.782476068E-2
6.457995312E0,5.278496742E0,-1.639162445E1,1.311698818E1
6.477995312E0,-4.855057895E-1,-2.121519279E1,-9.377179146E0
6.497995312E0,-8.796651840E0,-3.628339005E1,2.731276512E1
6.517995312E0,4.049093246E0,-1.881212234E1,-4.524236679E0
6.537995312E0,4.192352772E0,-7.872297764E0,-3.745182514E0
6.557995312E0,5.460532188E0,-2.291806459E0,-2.279251337E0
6.577995312E0,8.659933090E0,-2.320651770E0,-1.308383346E-1
6.597995312E0,1.408698463E1,-6.353081226E0,4.224329591E-1
6.617995312E0,1.235205078E1,-1.179846287E1,1.426551461E0
6.637995312E0,5.971570015E0,-1.318367195E1,1.769841790E0
6.660000000E0,3.384826779E-1,-1.122953415E1,4.503780901E-1
6.680003125E0,-7.548343539E-1,-9.175539017E0,-3.025217533E0
6.701995312E0,-4.167922139E-1,-9.428471565E0,-2.202809334E0
6.723993750E0,-1.728173137E0,-1.023134232E1,6.630655289E0
6.743995312E0,-4.706866741E0,-1.419388103E1,7.317149639E0
6.765993750E0,-4.981012344E0,-1.594267273E1,7.592109442E-1
6.785993750E0,-6.069779992E-1,-7.510055065E0,8.268519044E-1
6.805993750E0,-1.678871751E0,-3.546712875E0,5.345869064E-1
6.825993750E0,-7.518205166E0,-6.344538689E0,-5.398206711E0
6.845993750E0,-1.178885746E1,-1.072677994E1,-7.178668976E0
6.865993750E0,-1.826881218E1,-1.219820881E1,5.315798283E0
6.885995312E0,-1.696123505E1,-6.577657223E0,6.663341045E0
6.907995312E0,-1.202156448E1,-6.295936584E0,3.381292820E0
6.927995312E0,-8.515428543E0,-1.167283535E1,6.227730274E0
6.947995312E0,-6.530520439E0,-1.718118286E1,6.856658459E0
6.967995312E0,4.745624065E0,-3.082288551E1,1.935349083E1
6.987995312E0,2.573249817E0,-2.976640129E1,3.689196825E0
7.007995312E0,3.807748079E0,-2.181376457E1,-4.780818462E0
7.027995312E0,3.920399904E0,-1.489587116E1,-3.374464512E0
7.047995312E0,3.788805008E0,-1.429935074E1,3.350033998E0
7.067995312E0,4.193396568E0,-1.246035480E1,1.154163265E1
7.087995312E0,4.550094128E0,-9.758689880E0,9.511837959E0
7.107995312E0,5.398570538E0,-6.566672802E0,1.516621470E0
7.127995312E0,4.220115662E0,-3.817956686E0,-6.335172653E0
7.147995312E0,1.582806706E0,-2.324587822E0,-7.362572193E0
7.167995312E0,-1.825530827E-1,-1.230830312E0,-6.222482204E0
7.187995312E0,-8.132624626E-1,-7.298005223E-1,-4.368585110E0
7.207995312E0,-1.990050912E0,-3.183043301E-1,1.542766094E0
7.227995312E0,-2.923569441E0,-1.150883198E0,3.747232199E0
7.247995312E0,-1.576189160E0,-3.443168402E0,-9.146425128E-1
7.267995312E0,-2.064654350E0,-6.546551704E0,-9.382397532E-1
7.287995312E0,-7.347632885E0,-8.998195648E0,-1.204455853E0
7.307995312E0,-1.084631824E1,-1.116655636E1,-7.643077374E0
7.327995312E0,-1.881059265E1,-1.938232613E1,1.845340538E1
7.347995312E0,-1.109920311E1,-2.601139259E1,2.167605782E1
7.367995312E0,1.234949303E1,-1.841531754E1,2.354486465E0
7.387995312E0,3.204399586E0,-1.774161911E1,-1.244763660E1
7.407995312E0,6.022614479E0,-1.311352158E1,-3.476696968E0
7.429993750E0,9.094661713E0,-7.543919086E0,-4.428238869E0
7.449998437E0,7.569297314E0,-1.037280273E1,-2.960449457E0
7.471995312E0,5.449758530E0,-1.019588947E1,-2.674715996E0
7.493993750E0,7.124474049E0,-6.994928360E0,-4.024844646E0
7.513995312E0,5.910087109E0,-8.013010025E0,-3.885846853E0
7.535993750E0,3.996889830E0,-8.332041740E0,-7.206068039E-1
7.555993750E0,7.711532116E-1,-9.354184151E0,-1.951561719E-1
7.575993750E0,-2.048938751E0,-1.083124447E1,-3.473919630E0
7.595995312E0,-3.293636322E0,-9.536794662E0,-6.407266617E0
7.617995312E0,-4.799780846E0,-9.258043289E0,-5.484982014E0
7.637995312E0,-7.507479191E0,-8.326582909E0,-1.645075202E0
7.657995312E0,-1.026245785E1,-9.508590698E0,-5.792234898E0
7.677995312E0,-1.221805191E1,-9.256921768E0,2.126596928E0
7.697995312E0,-1.381210136E1,-1.026329136E1,3.119520187E0
7.717995312E0,-1.158349228E1,-1.390494919E1,8.215157509E0
7.737995312E0,-5.948049545E0,-1.610883904E1,5.264916420E0
7.757995312E0,-4.710563183E0,-1.658398438E1,2.612074018E-1
7.777995312E0,-6.571509361E0,-1.519862175E1,-3.749683857E0
7.797995312E0,-8.370407104E0,-1.121025562E1,2.364800692E0
7.817995312E0,-7.859838486E0,-1.064568329E1,5.998040676E0
7.839993750E0,-5.694312096E0,-8.835762978E0,-3.186778128E-1
7.859993750E0,-4.346462250E0,-8.879385948E0,2.050470829E0
7.879995312E0,-4.355216026E0,-1.304881191E1,-2.076893330E0
7.901995312E0,-5.846036911E0,-1.877691078E1,-4.032908440E0
7.923995312E0,-3.922755957E0,-2.446796417E1,8.679594040E0
7.943995312E0,4.385277271E0,-2.303157806E1,5.764519691E0
7.965993750E0,6.663982868E0,-2.314995766E1,3.352332592E0
7.985993750E0,8.589245796E0,-1.492288685E1,-8.925104737E-1
8.005993750E0,3.910066605E0,-6.966063976E0,-4.500639439E0
8.025995312E0,2.057308912E0,-3.248893261E0,-6.848489285E0
8.045995312E0,1.517368436E0,-1.585928798E0,-5.327519894E0
8.067995312E0,7.658572197E-1,-7.128017396E-2,-2.419771671E0
8.087995312E0,3.643209040E-1,8.913517594E-1,-4.294144213E-1
8.107995312E0,6.145149469E-1,2.306334496E0,8.858546615E-2
8.127995312E0,1.440725207E0,3.411277771E0,2.725291014E0
8.149993750E0,-1.102960780E-1,4.881010950E-1,-1.663797855E0
8.169995312E0,-1.873253059E1,-8.450554848E0,1.655547523E1
8.191995312E0,-1.160450363E1,-2.380742455E1,-5.571019650E-1
8.213995312E0,-1.115697980E0,-2.942503548E1,-5.474141121E0
8.235993750E0,4.068313599E0,-1.905272293E1,-4.225660801E0
8.255995312E0,2.581093073E0,-8.769223213E0,-1.322230434E1
8.277995312E0,3.167049959E-2,-7.161076546E0,-1.301391315E1
8.297995312E0,3.864241391E-2,-1.007945538E1,-7.329513073E0
8.317995312E0,2.309188366E0,-9.199145317E0,-2.088299274E0
8.337995312E0,1.094341636E0,-9.804456711E0,-2.523900509E0
8.357995312E0,-2.082849979E0,-1.256633091E1,-2.352245569E0
8.377995312E0,-2.486876488E0,-1.754985428E1,6.448494911E0
8.399995312E0,6.734496593E0,-9.620161057E0,1.503959942E1
8.421993750E0,4.354842186E0,-1.140272045E1,1.147038078E1
8.441995312E0,-1.839704633E0,-1.058781147E1,-4.005183220E0
8.463993750E0,-3.220708847E0,-8.115970612E0,-9.330798149E0
8.484001562E0,-3.641858339E0,-7.893702030E0,-8.985133171E0
8.505993750E0,-4.212990761E0,-6.694034576E0,-2.252187252E0
8.525995312E0,-6.768906116E0,-6.753382206E0,2.107404947E0
8.547995312E0,-9.726204872E0,-7.304718971E0,9.405794144E0
8.567995312E0,-9.943177223E0,-9.425914764E0,7.021197796E0
8.587995312E0,-7.052350998E0,-1.010977554E1,1.906627297E0
8.607995312E0,-6.545258999E0,-1.140424347E1,5.620905876E0
8.627995312E0,-6.379187584E0,-1.173340797E1,3.252350569E0
8.647995312E0,-5.468270302E0,-1.335361195E1,3.971750736E0
8.667995312E0,-1.542057544E-1,-1.520010662E1,7.349049568E0
8.687995312E0,1.943459749E0,-1.707253456E1,1.750305057E0
8.707995312E0,2.696924508E-1,-1.548272800E1,-2.761347771E0
8.727995312E0,6.281139851E-1,-1.618069458E1,3.116292953E0
8.747995312E0,2.467301607E0,-1.794724274E1,7.220193863E0
8.767995312E0,1.656691790E0,-1.398147774E1,1.374530435E0
8.787995312E0,-5.192257166E-1,-9.860365868E0,-4.344709873E0
8.808004687E0,-1.807861686E0,-7.319917679E0,-4.616413593E0
8.829993750E0,-3.004828453E0,-6.208940983E0,1.041573524E0
8.850004687E0,-3.172872782E0,-5.807528973E0,3.078560352E0
8.871995312E0,-2.271360159E0,-4.685797215E0,-1.160048246E0
8.892006250E0,-1.733229637E0,-3.167030811E0,-1.455329776E0
8.913993750E0,-7.824634314E-1,-3.010565042E0,-7.733175755E-1
8.933993750E0,1.585967064E0,-3.602756262E0,1.019824624E0
8.953993750E0,-2.292898178E0,-4.116322041E0,1.008090115E1
8.973993750E0,-7.473319054E0,-4.341463566E0,3.810697556E0
8.993993750E0,-9.977203369E0,-6.869098663E0,-7.491313457E0
9.013993750E0,-1.503448582E1,-1.159062672E1,-2.273830891E0
9.033993750E0,-8.832937241E0,-8.337375641E0,1.187893772E1
9.053993750E0,-1.770129085E0,-1.044792271E1,-1.921567082E0
9.073995312E0,6.709989905E-1,-1.364918041E1,-4.026453495E0
9.095995312E0,1.049761772E0,-1.683040428E1,-4.914328575E0
9.117995312E0,4.284089088E0,-1.545710945E1,-3.869853497E0
9.137995312E0,6.239395142E0,-1.175604820E1,-1.927485585E0
9.157995312E0,6.209869862E0,-7.901833057E0,-1.048938155E0
9.177995312E0,3.454076529E0,-7.099967003E0,-4.002913833E-1
9.197995312E0,4.421420395E-1,-7.112339973E0,-1.951571345E0
9.217995312E0,-9.417448640E-1,-7.588038921E0,-5.827544212E0
9.237995312E0,-2.111044168E0,-9.109707832E0,-5.518596649E0
9.257995312E0,-4.388609886E0,-7.637618065E0,3.271686316E0
9.277995312E0,-6.171840191E0,-1.010444164E1,-3.511814773E-2
9.297995312E0,-2.238961607E-1,-7.943434715E0,9.073123932E0
9.319993750E0,3.057673454E0,-1.135548782E1,1.048214054E1
9.339993750E0,-2.334480762E0,-1.093288326E1,-1.144428402E-1
9.359993750E0,-5.152810574E0,-7.766665936E0,-3.445265770E0
9.379995312E0,-8.616291046E0,-8.509700775E0,-3.889935970E0
9.401995312E0,-1.364198971E1,-9.839411736E0,-3.829209566E0
9.423993750E0,-2.185954094E1,-1.276137352E1,1.516496897E0
9.443993750E0,-2.342555809E1,-9.306089401E0,8.998568535E0
9.463993750E0,-2.633288765E1,-1.063060093E1,2.109918022E1
9.483995312E0,-1.720169640E1,-3.440753174E1,1.477268410E1
9.505993750E0,-6.823245049E0,-3.214767456E1,-9.064016342E0
9.525995312E0,-2.221120119E0,-3.008428383E1,6.621585846E0
9.547995312E0,-3.034028053E0,-3.669915009E1,5.575990200E0
9.567995312E0,8.139768600E0,-3.816374588E1,2.318649292E1
9.589995312E0,6.114379406E0,-1.709204292E1,-6.318748474E0
9.611995312E0,4.396721840E0,-9.772460938E0,-7.358636379E0
9.631995312E0,4.796773434E0,-5.992600441E0,-1.232015038E1
9.653993750E0,1.062947941E1,1.238692880E0,-3.008091164E1
9.674032812E0,1.523726463E1,8.500488281E0,-4.683992004E1
9.695993750E0,6.743374348E0,5.759807587E0,-2.053976059E0
9.715993750E0,-2.360136986E0,2.001399517E0,2.327070045E1
9.735993750E0,-1.241211653E0,-2.719607162E1,2.153524971E1
9.755993750E0,6.847953320E0,-2.126627541E1,2.502002144E1
9.775993750E0,1.117355728E1,-3.198461831E-1,1.214838123E1
9.795993750E0,6.893461704E0,-2.480038643E0,-3.735146224E-1
9.815993750E0,1.149226379E1,1.233425617E0,-2.271108246E1
9.835993750E0,1.187369823E1,3.449718952E0,-2.500611496E1
9.855993750E0,3.516028881E0,-8.453543186E-1,-1.281185246E1
9.875993750E0,-3.060747385E-1,-6.425980091E0,-6.634773254E0
9.895993750E0,1.564275622E-1,-9.472189903E0,1.671095371E0
9.915993750E0,-1.050130367E1,-6.513413239E1,4.589408875E1
9.935993750E0,3.817286491E0,-3.714376068E1,-1.325667572E1
9.955995312E0,2.402906895E0,-1.092220402E1,-1.682435226E1
9.977995312E0,6.576871872E-1,-1.176548004E1,3.822706938E0
9.997995312E0,-3.042522669E0,-1.087396622E1,-2.500504255E0
1.001799531E1,-8.246147156E0,-1.210829163E1,-1.316044807E0
1.003799531E1,-7.391858578E0,-8.649398804E0,1.922113061E0
1.005799531E1,-4.902904034E0,-4.746610165E0,1.614879489E0
1.007799531E1,-4.081577778E0,-3.722035646E0,4.327759147E-2
1.009799531E1,-4.917709351E0,-7.190381527E0,1.569447219E-1
1.011799531E1,-3.999810696E0,-9.508878708E0,2.613912821E0
1.013799531E1,-3.191997528E0,-8.843185425E0,5.536964893E0
1.016000313E1,-2.697700262E0,-8.100705147E0,2.340475798E0
1.018199531E1,-1.795258641E0,-8.317102432E0,-2.267787755E-1
1.020399375E1,-2.436100245E0,-9.840743065E0,-3.506930768E-1
1.022399375E1,-2.711615562E0,-1.028030968E1,3.493044376E-1
1.024399375E1,-4.409497261E0,-1.041744900E1,-1.790862828E-1
1.026399375E1,-4.804942608E0,-9.579086304E0,-1.099637747E0
1.028399531E1,-4.493303776E0,-8.256346703E0,-1.450598836E0
1.030599375E1,-4.720456123E0,-8.241684914E0,-1.836323977E0
1.032599531E1,-3.988136768E0,-8.827248573E0,-1.049627542E0
1.034799531E1,-2.596482992E0,-9.795369148E0,-1.057279408E-1
1.036799531E1,-1.427930713E0,-1.051880074E1,-1.561881453E-1
1.038999531E1,-7.119110823E-1,-9.921524048E0,-4.646570683E-1
1.041199531E1,-4.182479084E-1,-9.955339432E0,-1.609602690E0
1.043399375E1,4.966149032E-1,-1.069868183E1,-1.349640250E0
1.045399375E1,2.984994948E-1,-1.246110153E1,-1.456660986E0
1.047399531E1,-1.923377156E0,-1.459780216E1,-1.547439575E0
1.049599375E1,-4.995549679E0,-1.549747562E1,-9.824271202E-1
1.051599375E1,-6.983292580E0,-1.471977234E1,1.165104747E0
1.053599375E1,-7.604156971E0,-1.369694996E1,3.329300404E0
1.055599375E1,-6.185132980E0,-1.219693470E1,5.447699547E0
1.057599375E1,-4.746993065E0,-1.057948971E1,3.588017941E0
1.059599375E1,-3.616690636E0,-9.944756508E0,-5.877286196E-2
1.061599375E1,-1.505636811E0,-9.055531502E0,-9.539265633E-1
1.063599375E1,2.213870436E-1,-9.561167717E0,-3.595439672E0
1.065599375E1,1.112202525E0,-1.085091496E1,-4.931394577E0
1.067599375E1,7.084442973E-1,-1.119051743E1,-3.664794922E0
1.069599375E1,-9.081015587E-1,-1.212970638E1,-5.201546550E-1
1.071599375E1,-2.017344713E0,-1.286769390E1,5.910613537E-1
1.073599375E1,-1.009826422E0,-1.221131897E1,-7.644494772E-1
1.075599531E1,-9.097966831E-4,-1.049026203E1,-8.335269690E-1
1.077799531E1,1.888546348E-1,-8.534323692E0,-4.350168705E-1
1.079999531E1,1.933078468E-1,-7.851334572E0,1.262989342E-1
1.082199375E1,1.821566105E0,-6.593890190E0,7.167186141E-1
1.084199375E1,2.095366955E0,-5.908650398E0,2.686772943E-1
1.086199375E1,2.206496239E0,-5.804943562E0,-6.629544497E-1
1.088199375E1,3.155021429E0,-5.254017830E0,-5.990005732E-1
1.090199531E1,4.005892277E0,-4.852730751E0,-4.055969119E-1
1.092399375E1,5.546148777E0,-4.926136971E0,1.481024384E0
1.094399531E1,2.036383390E0,-6.954054832E0,9.211317062E0
1.096599531E1,-3.815294504E0,-1.122792435E1,9.172128677E0
1.098799531E1,-6.497576237E0,-1.447968197E1,1.776698709E0
1.100799531E1,-8.562871933E0,-1.653689384E1,-3.248567820E0
1.102999531E1,-1.400381947E1,-1.767594147E1,1.053701591E1
1.105199531E1,-1.070791435E1,-9.649639130E0,-1.045557499E0
1.107199531E1,-4.604537964E0,-5.683260441E0,-4.285400867E0
1.109399375E1,-1.734129906E0,-1.250698471E1,-1.183530569E0
1.111399375E1,6.958508015E0,-2.357224655E1,9.692350388E0
1.113399375E1,3.079067945E0,-1.144702339E1,6.814759970E-1
1.115399375E1,2.095587492E0,-5.825188637E0,-3.236999035E0
1.117399375E1,2.845547199E0,-2.797356367E0,-3.469265461E0
1.119399375E1,3.004464626E0,-2.080819845E0,-5.078523159E0
1.121399531E1,1.306563735E0,-5.654798031E0,-5.660218239E0
1.123599375E1,-3.865486383E-1,-1.051229763E1,-4.210222721E0
1.125599531E1,-2.146641165E-1,-1.269293690E1,-4.205367088E0
1.127799531E1,2.886066735E-1,-1.144698429E1,-3.393914938E0
1.129799531E1,-6.537128091E-1,-9.116851807E0,2.710265160E0
1.131799531E1,-2.537758112E0,-8.948424339E0,7.191980839E0
1.133799531E1,-4.648266315E0,-8.507096291E0,6.708438396E0
1.135799531E1,-2.211926222E0,-9.290307045E0,-4.581544548E-2
1.137799531E1,-1.027533889E0,-9.331975937E0,-2.761711597E0
1.139799531E1,-7.880562544E-1,-9.192719460E0,-3.853046179E0
1.141799531E1,-4.995070696E-1,-9.535521507E0,-4.101142883E0
1.143799531E1,-4.349115193E-1,-1.115687466E1,-2.553761005E0
1.145799531E1,-3.177297115E-1,-1.261590099E1,1.620012641E0
1.147999375E1,-1.703014731E0,-1.208808517E1,6.261497974E0
1.149999375E1,-6.398245811E0,-1.281511784E1,4.679179668E0
1.151999531E1,-8.093953133E0,-1.222941971E1,2.220842361E0
1.153999531E1,-8.150082588E0,-1.130482674E1,-4.463395596E0
1.155999531E1,-9.092852592E0,-1.132760048E1,-4.483554840E0
1.158199375E1,-1.150820065E1,-1.356639957E1,1.637279630E0
1.160199375E1,-8.888292313E0,-1.106123161E1,2.976720572E0
1.162199531E1,-4.486494541E0,-1.222179604E1,3.281646013E0
1.164399531E1,-2.036623001E0,-1.576254272E1,2.792462826E0
1.166399531E1,2.023291886E-1,-1.928443336E1,-3.252379596E-1
1.168599375E1,5.150349140E0,-1.846758842E1,-9.268624783E-1
1.170599375E1,7.447116852E0,-1.597340488E1,1.113638997E0
1.172599375E1,5.103288651E0,-9.748748779E0,2.723978996E0
1.174599531E1,1.604517341E0,-7.161392689E0,4.375643134E-1
1.176799531E1,6.100330353E-1,-5.643066406E0,-3.155711174E0
1.178799531E1,1.066569015E-1,-5.355235577E0,-3.352092981E0
1.180799531E1,-4.025706351E-1,-4.797338486E0,-1.735403538E0
1.182799531E1,-1.182735562E0,-4.668683529E0,5.308711529E-1
1.184799531E1,-1.541118860E0,-5.552546501E0,8.033599854E-1
1.186799531E1,-1.043125033E0,-6.235143185E0,-3.646943569E-1
1.188799531E1,1.657745242E-2,-6.369984150E0,-1.261753917E0
1.190999375E1,2.326129675E0,-6.223124027E0,-1.091727257E0
1.192999375E1,3.495764494E0,-6.226725101E0,-2.699701786E-1
1.194999531E1,5.486092567E0,-6.553811073E0,1.257894397E0
1.196999531E1,4.623011589E0,-7.509404182E0,5.455284119E0
1.198999531E1,-1.721622586E0,-1.070258045E1,9.161604881E0
1.201199375E1,-8.001900673E0,-1.385927773E1,6.544895172E0
1.203199375E1,-1.380528355E1,-1.840237999E1,3.265336752E0
1.205199375E1,-2.082700729E1,-1.967838478E1,6.730379105E0
1.207202188E1,-1.336408901E1,-8.567727089E0,-5.647174835E0
1.209399375E1,-3.854157209E0,-4.232029438E0,-4.107223988E0
1.211399375E1,3.219339252E-1,-8.186120987E0,-1.834197879E0
1.213399375E1,2.020964861E0,-1.555779076E1,-8.512823582E-1
1.215399531E1,7.523961067E0,-2.674928474E1,-4.561385155E0
1.217599531E1,9.216680527E0,-1.329796124E1,-5.922775865E-1
1.219799531E1,6.592309952E0,-6.355628967E0,-1.783345103E0
1.221799531E1,9.424650192E0,-1.944570690E-1,-5.841967106E0
1.223799531E1,7.812127113E0,-6.336494088E-1,3.101544678E-1
1.225999531E1,3.011905670E0,-6.795864582E0,1.237505317E0
1.228199844E1,1.730912030E-1,-1.184413433E1,4.064971209E-1
1.230399531E1,-3.890127659E0,-1.480089760E1,3.533190489E0
1.232599375E1,-4.796218395E0,-1.149420834E1,9.288161397E-1
1.234599375E1,-2.711031199E0,-7.745998859E0,-2.650658846E0
1.236599375E1,-3.093231916E0,-6.462448120E0,-4.179174900E0
1.238599531E1,-5.298004627E0,-7.366106510E0,-3.359160662E0
1.240799531E1,-6.913630962E0,-8.999564171E0,-2.636504412E0
1.242799531E1,-7.748134613E0,-9.746296883E0,5.156439543E-1
1.244799531E1,-5.937964916E0,-1.059592247E1,5.286206007E-1
1.246999375E1,-2.131816387E0,-1.085057926E1,3.596397400E0
1.248999375E1,7.620552182E-1,-1.075288677E1,4.319867611E0
1.250999375E1,1.147627115E0,-1.135770988E1,1.474742055E0
1.252999531E1,6.335440874E-1,-1.268419361E1,-3.978780210E-1
1.254999531E1,-3.293128729E0,-1.242829132E1,-4.161505699E-1
1.257199375E1,-6.165117264E0,-1.012120056E1,-9.430281520E-1
1.259199375E1,-7.596352100E0,-1.090444946E1,3.657746315E0
1.261199531E1,-8.572008133E0,-1.463154125E1,6.979768753E0
1.263399375E1,-4.248644829E0,-1.298690605E1,6.616175175E0
1.265399531E1,-1.077859998E0,-1.222428608E1,3.832034588E0
1.267599375E1,-1.410931706E0,-1.461597824E1,-3.604049206E0
1.269599375E1,-1.015064836E0,-1.639405632E1,-5.479235649E0
1.271599375E1,3.982993960E-1,-1.793048286E1,-1.066166759E0
1.273599375E1,3.461412430E0,-2.026881409E1,3.994782925E0
1.275599375E1,4.788202286E0,-1.539549255E1,5.839888573E0
1.277599375E1,4.571153164E0,-1.159227467E1,2.077898979E0
1.279599375E1,3.985780716E0,-6.221888542E0,-5.585117340E0
1.281599531E1,2.091239452E0,-3.943662167E0,-4.015420914E0
1.283799531E1,-4.706138670E-1,-3.432432890E0,1.307540536E0
1.285799531E1,-2.126558542E0,-3.895978928E0,2.707468510E0
1.287799531E1,-9.514269829E-1,-4.449815273E0,-6.742550731E-1
1.289799531E1,1.798361421E0,-3.928875446E0,-2.325631857E0
1.291799531E1,4.007769108E0,-3.056351900E0,-2.178465128E0
1.293799531E1,4.869193554E0,-3.137955666E0,-1.501317739E0
1.295799531E1,6.410369396E0,-3.286405802E0,-9.302814603E-1
1.297999375E1,5.559901237E0,-5.063631535E0,2.575270414E0
1.299999375E1,-3.274032354E0,-1.038014793E1,1.069630623E1
1.301999531E1,-7.072577000E0,-1.541703129E1,8.256595612E0
1.304000000E1,-1.067934704E1,-2.134453011E1,8.508839607E0
1.306199531E1,-1.631819916E1,-2.206022263E1,1.276768398E1
1.308399531E1,-9.667642593E0,-1.143464947E1,1.098229885E0
1.310599531E1,-3.239259124E-1,-1.190016937E1,-9.643039703E0
1.312799531E1,2.783632994E0,-1.558178997E1,-5.098509789E0
1.314999531E1,6.955079079E0,-1.671914101E1,-2.127487659E-1
1.316999531E1,5.117404938E0,-7.969732285E0,-4.498896599E-1
1.318999531E1,4.751456261E0,-2.085464716E0,-2.622723341E0
1.321199375E1,4.484244347E0,2.739828825E-1,-5.234539032E0
1.323199375E1,1.022630572E0,-3.438399076E0,-4.620541096E0
1.325199375E1,7.353072613E-2,-8.717910767E0,-2.963054419E0
1.327200938E1,6.335920095E-1,-1.176167870E1,-2.015170813E0
1.329399375E1,-4.746935666E-1,-1.416516018E1,1.970035434E0
1.331399375E1,-2.498483658E0,-1.094828224E1,3.913351297E0
1.333399375E1,-1.399008632E0,-7.451521873E0,6.700987816E-1
1.335399375E1,-7.680886388E-1,-6.874030590E0,-3.795470476E0
1.337399375E1,-1.584147453E0,-7.994469166E0,-3.943575859E0
1.339399375E1,-3.208670855E0,-9.836003304E0,-1.745191097E0
1.341399375E1,-3.592758417E0,-1.034902382E1,-5.428421497E-1
1.343401250E1,-2.341634512E0,-1.074541664E1,9.254068732E-1
1.345599531E1,8.477005959E-1,-1.034798813E1,2.538859367E0
1.347600781E1,1.821642756E0,-1.086710930E1,3.676325321E0
1.349799531E1,-1.015859842E0,-1.215548611E1,3.461441100E-1
1.351799688E1,-4.864252090E0,-1.265641117E1,-9.587341547E-1
1.353999531E1,-8.086894989E0,-1.387337399E1,-2.569735050E0
1.355999531E1,-8.108720779E0,-1.123379612E1,1.963752985E0
1.358199531E1,-7.671002865E0,-1.354592419E1,5.456749439E0
1.360399375E1,-6.255282879E0,-1.587169933E1,5.917930126E0
1.362399531E1,-3.962671757E0,-1.258795643E1,2.847855091E0
1.364399531E1,-3.392382860E0,-1.230992222E1,-7.632140517E-1
1.366399531E1,-2.036000252E0,-1.403564358E1,-2.649251223E0
1.368399531E1,-3.812048137E-1,-1.597717857E1,-3.082333565E0
1.370599375E1,2.947367668E0,-1.713762856E1,9.251769781E-1
1.372599375E1,6.120852947E0,-1.800543213E1,3.709643126E0
1.374599531E1,6.908660412E0,-1.346589088E1,4.743823051E0
1.376799531E1,5.458224773E0,-7.934863091E0,2.914212704E0
1.378799531E1,2.734877348E0,-5.963506222E0,-3.760812044E0
1.380799531E1,1.609401464E0,-5.615820408E0,-6.062137604E0
1.382999375E1,4.955422878E-1,-5.300331593E0,-3.060939074E0
1.384999531E1,-7.537521124E-1,-4.785156727E0,5.463472009E-1
1.386999531E1,-1.037072420E0,-4.823502541E0,2.086556435E0
1.388999531E1,1.078827307E-1,-4.812057972E0,4.754405916E-1
1.390999531E1,1.905114174E0,-4.639618397E0,-1.873817086E0
1.393199375E1,3.542489529E0,-4.545276642E0,-2.801876783E0
1.395199375E1,4.293426037E0,-4.725646496E0,-1.752862096E0
1.397199531E1,4.926290035E0,-5.537223816E0,1.997243017E-1
1.399199531E1,3.649721295E-2,-8.460534096E0,6.718905926E0
1.401399531E1,-1.006161308E1,-1.389240360E1,1.222692966E1
1.403599531E1,-1.038120079E1,-1.862461853E1,6.108336449E0
1.405799531E1,-1.306897068E1,-1.946752167E1,9.285307884E0
1.407799531E1,-1.254476452E1,-9.411329269E0,1.004703712E1
1.409799531E1,-3.114032745E0,-4.902146816E0,-3.011388779E0
1.411799531E1,3.585470200E0,-8.726588249E0,-6.729584217E0
1.413799531E1,5.087898731E0,-1.655034065E1,-3.490171432E0
1.415799531E1,8.518340111E0,-2.640479851E1,-7.167913914E0
1.417799531E1,6.814204693E0,-1.353343582E1,-1.566985846E0
1.419999375E1,5.924193382E0,-4.034498215E0,-4.149611473E0
1.421999375E1,4.641983509E0,-1.099082232E0,-4.142380714E0
1.423999688E1,1.722685575E0,-2.300396919E0,-2.864882469E0
1.426199531E1,-1.090223715E-1,-8.242959023E0,-1.416514993E0
1.428399375E1,-9.911707640E-1,-1.654962349E1,1.174672008E0
1.430399531E1,-2.990779400E0,-1.288195419E1,1.072858143E1
1.432399531E1,-1.018005013E0,-8.180316925E0,3.161792278E0
1.434599375E1,7.710095644E-1,-6.293159008E0,-4.313087463E0
1.436599375E1,6.675034165E-1,-7.217771053E0,-8.268164635E0
1.438599531E1,-6.107321382E-1,-8.960721970E0,-6.673167229E0
1.440799531E1,-2.030225515E0,-9.853480339E0,-2.472530603E0
1.442799531E1,-3.309571981E0,-1.018431187E1,4.334558547E-1
1.444799531E1,-3.813810110E0,-1.083335018E1,7.663552165E-1
1.446999375E1,-1.651242495E0,-1.080395985E1,2.386865854E0
1.448999531E1,1.093537211E0,-1.076285648E1,4.224166393E0
1.451199375E1,8.788061142E-1,-1.086916828E1,3.214953184E0
1.453199375E1,-3.826202393E0,-1.215904903E1,-1.211753413E-1
1.455199375E1,-7.301788807E0,-1.236420345E1,-2.275238514E0
1.457199375E1,-7.863487244E0,-1.077067089E1,-1.440859199E0
1.459199375E1,-6.226820946E0,-9.094892502E0,2.873923063E0
1.461199375E1,-5.459910393E0,-1.224996185E1,6.245294571E0
1.463199375E1,-4.060422421E0,-1.426696205E1,6.283371449E0
1.465199375E1,-2.048948288E0,-1.249168110E1,4.604260921E0
1.467199531E1,-2.821145296E0,-1.290088749E1,-3.742711842E-1
1.469199531E1,-2.828950405E0,-1.479869461E1,-3.205443382E0
1.471399531E1,-1.148364544E0,-1.599429226E1,-3.678087711E0
1.473599375E1,1.342697024E0,-1.700067902E1,-6.994900107E-2
1.475599375E1,4.250560760E0,-1.980385971E1,2.243740559E0
1.477599375E1,5.527436256E0,-1.508527184E1,3.738105536E0
1.479599375E1,4.471104622E0,-8.042965889E0,5.987257004E0
1.481599531E1,1.958255887E0,-4.923196793E0,-3.140713871E-1
1.483799531E1,1.942674398E0,-5.215893269E0,-6.904743671E0
1.485799531E1,1.274107933E0,-5.999629974E0,-4.157502651E0
1.487999531E1,3.318459392E-1,-4.937476158E0,8.815259337E-1
1.490199531E1,1.754854172E-1,-4.561978817E0,1.939782262E0
1.492399375E1,1.367031693E0,-4.725378513E0,5.978034139E-1
1.494399375E1,3.030848742E0,-4.960249424E0,-9.133879542E-1
1.496399375E1,3.964271307E0,-4.869432449E0,-1.845517755E0
1.498399375E1,4.362024784E0,-5.431428909E0,-1.149188161E0
1.500399531E1,5.053278923E0,-6.616979599E0,-1.655351073E-1
1.502399531E1,2.265192509E0,-8.561128616E0,4.146709442E0
1.504599531E1,-5.653438091E0,-1.257122517E1,9.693308830E0
1.506799531E1,-1.116104984E1,-1.638220978E1,7.558121204E0
1.508799531E1,-1.393884087E1,-2.002352333E1,6.188417435E0
1.510799531E1,-1.583570957E1,-1.712420082E1,9.356837273E0
1.512799531E1,-8.913172722E0,-1.012932110E1,-1.002691627E0
1.514799531E1,-1.032944798E0,-8.262246132E0,-1.490677834E0
1.516799531E1,3.467905283E0,-1.073531342E1,-1.448338747E0
1.518999375E1,7.302496910E0,-1.937835121E1,-3.822467566E0
1.520999375E1,8.736518860E0,-1.539734077E1,-1.402350903E0
1.522999531E1,7.621807098E0,-6.782696724E0,-1.104234457E0
1.524999531E1,6.355015755E0,-3.247945309E0,-1.933289170E0
1.526999688E1,5.475663662E0,-1.286854744E0,-2.526744604E0
1.529199375E1,3.123111486E0,-6.085619926E0,-3.229404449E0
1.531199375E1,1.435410142E0,-1.073772621E1,-3.766127110E0
1.533199531E1,-2.350148372E-2,-1.350813389E1,-3.700918674E0
1.535399375E1,-2.717370987E0,-1.385820389E1,5.329301357E-1
1.537399531E1,-4.798583508E0,-1.203106403E1,3.577770472E0
1.539599531E1,-4.494778156E0,-8.540941238E0,1.625442624E0
1.541799531E1,-4.634628296E0,-7.809033871E0,-5.811302066E-1
1.543799531E1,-4.195072174E0,-8.178956985E0,-1.676736116E0
1.545799531E1,-3.510905266E0,-8.928821564E0,-1.718356848E0
1.547799531E1,-2.228465557E0,-8.591573715E0,-8.613858819E-1
1.549799531E1,-1.757037640E0,-8.635425568E0,-7.348858714E-1
1.551799531E1,-1.806702852E0,-9.063662529E0,-1.025972843E0
1.553799531E1,-1.213898540E0,-8.712374687E0,-6.217454076E-1
1.555799531E1,-3.649433851E-1,-8.938503265E0,-1.124795973E-1
1.557799531E1,5.222902894E-1,-9.721272469E0,-3.848535419E-1
1.559799531E1,4.839926660E-1,-8.741805077E0,-1.617723703E0
1.561799531E1,-5.680195689E-1,-9.042066574E0,-1.986047745E0
1.563799531E1,-8.717001081E-1,-1.084670162E1,-1.209838033E0
1.565799531E1,-1.729178667E0,-1.234440804E1,-9.247364402E-1
1.567799531E1,-2.231788635E0,-1.138481236E1,-5.778645277E-1
1.569799531E1,-4.324139118E0,-1.204323673E1,-2.829563320E-1
1.571799531E1,-6.494042397E0,-1.375606728E1,1.064040661E0
1.573799531E1,-6.625004768E0,-1.435944557E1,3.088836193E0
1.575999531E1,-4.460484028E0,-1.370273399E1,6.025401592E0
1.578199375E1,-4.111217976E0,-1.325464535E1,5.620867252E0
1.580199375E1,-4.301777363E0,-1.304677105E1,2.454889774E0
1.582199375E1,-2.815389633E0,-1.186561584E1,1.873979926E0
1.584199531E1,-5.008670092E-1,-1.098068047E1,4.923149049E-1
1.586400156E1,1.117278218E0,-1.184992886E1,-2.637644112E-1
1.588599531E1,2.459573030E0,-1.405300617E1,-4.587386250E-1
1.590600000E1,4.933645248E0,-1.514083576E1,1.739636421E0
1.592799531E1,6.952915192E0,-1.289228821E1,2.598513126E0
1.594999531E1,6.134011745E0,-9.479602814E0,1.780979633E0
1.597200625E1,2.863513231E0,-7.002618790E0,4.324406981E-1
1.599399375E1,8.568369150E-1,-6.349422932E0,-3.098470449E0
1.601400625E1,-1.539040804E0,-6.347957611E0,-2.477606297E0
1.603599531E1,-4.248252392E0,-6.560945988E0,1.709450483E0
1.605799531E1,-4.303443432E0,-6.206306934E0,1.831401467E0
1.607799531E1,-1.585392475E0,-5.639791012E0,5.483966470E-1
1.609799531E1,7.282299995E-1,-5.690251350E0,4.359362274E-2
1.611799531E1,1.287544131E0,-5.329962254E0,1.656203389E0
1.613799531E1,3.537672460E-1,-4.990521908E0,3.957174778E0
1.615799531E1,-1.501786947E0,-5.040254593E0,5.948049545E0
1.617799531E1,-4.769804955E0,-6.074118614E0,7.884269238E0
1.619799531E1,-9.012397766E0,-7.767307758E0,9.711676598E0
1.621799531E1,-1.232240009E1,-9.415973663E0,8.739315033E0
1.623801250E1,-1.316168404E1,-1.012504959E1,5.432568550E0
1.625999375E1,-7.487559795E0,-7.420790195E0,2.275803804E0
1.628000000E1,-3.565531254E0,-6.439961910E0,1.940356851E0
1.630199375E1,9.489753246E-1,-5.013314724E0,2.796896696E0
1.632200156E1,3.734006643E0,-3.251479149E0,7.611492634E0
1.634399375E1,6.836585522E0,-2.403337955E0,8.164677620E0
1.636399375E1,6.550823212E0,-8.557211876E0,8.812415123E0
1.638399375E1,4.065546095E-1,-1.602349281E1,-8.138188362E0
1.640399375E1,4.810497284E0,-1.361573887E1,5.156267643E0
1.642399531E1,-2.119107962E0,-9.947984695E0,-2.996985197E0
1.644599375E1,-4.820552826E0,-9.567498207E0,5.875801563E0
1.646599531E1,-6.332184374E-2,-9.123756409E0,3.689666033E0
1.648599531E1,-2.437105924E-1,-8.592617035E0,-2.134287059E-1
1.650799531E1,1.433255315E0,-9.833551407E0,1.483255774E-1
1.652799531E1,2.210039854E0,-8.138734818E0,4.043490887E0
1.654999375E1,3.451844931E0,-6.706484318E0,-4.071100354E-1
1.656999375E1,2.769401789E0,-8.079463005E0,-3.370384693E0
1.658999531E1,1.274462223E0,-1.034417629E1,-5.175938606E0
1.661199375E1,1.252550632E-1,-1.275870132E1,-9.047401428E0
1.663199375E1,-3.512188435E0,-1.692448807E1,-9.463331223E0
1.665199531E1,-1.198595810E1,-2.352519608E1,1.816164851E0
1.667201875E1,-1.322351074E1,-2.508855247E1,-6.831969261E0
1.669399375E1,-1.206044674E1,-2.198051453E1,1.388742328E0
1.671399531E1,-7.102389812E0,-1.822429848E1,1.278654957E1
1.673399531E1,-6.401319981E0,-2.289036942E1,7.507881165E0
1.675599375E1,-2.238683939E0,-1.244050217E1,1.162309265E1
1.677599375E1,-6.995713711E0,-8.465897560E0,2.743218660E0
1.679599375E1,-9.133352280E0,-4.884113789E0,-4.986586094E0
1.681599531E1,-1.104890537E1,-8.095753789E-1,1.384155035E0
1.683799531E1,-9.339129448E0,1.161542058E0,-1.047606915E-1
1.685799531E1,-1.045542049E1,-1.007336378E0,5.835780144E0
1.687799531E1,-1.349975395E1,-1.286329842E1,-3.964798059E-3
1.689799531E1,-7.760785580E0,-1.704422569E1,-2.969959378E-1
1.691799688E1,-5.231167793E0,-3.272628403E1,6.426928043E0
1.693999531E1,9.004879951E0,-4.193706512E1,6.129673481E0
1.695999531E1,1.959327507E1,-3.749227905E1,1.207031965E0
1.698199531E1,6.867661953E0,-2.059114075E1,8.767758012E-1
1.700399531E1,2.251152754E0,-1.063938141E1,-1.014509439E0
1.702599375E1,1.735566378E0,-5.648381233E0,-1.850143313E0
1.704599375E1,1.556231022E0,-2.413077593E0,-2.414102316E0
1.706599375E1,8.678885698E-1,-5.820878744E-1,-3.914012194E0
1.708599375E1,7.453437448E-1,6.950079799E-1,-4.133809566E0
1.710599375E1,1.350157380E0,2.043298006E0,-3.552660227E0
1.712599375E1,1.624992609E0,2.816854954E0,-3.498225689E0
1.714599375E1,1.197608352E0,2.832120419E0,-3.929038286E0
1.716599375E1,5.048988461E-1,1.132208347E0,-4.528412342E0
1.718599531E1,3.432327509E-1,-1.198288321E0,-2.778653145E0
1.720799531E1,1.378926158E0,-2.917248487E0,-3.776230812E-1
1.722799531E1,3.110431910E0,-3.160221577E0,-4.819815457E-1
1.724799531E1,5.931337833E0,-4.248903751E0,-1.698848844E0
1.726999375E1,1.234542274E1,-1.314133263E1,-3.943623781E0
1.728999531E1,1.379136848E1,-3.323556137E1,-3.429416180E0
1.730999531E1,3.582386494E0,-3.558197403E1,-1.598699379E1
1.733199375E1,7.735474110E-1,-3.262560654E1,-6.301088810E0
1.735199531E1,-5.471239090E0,-2.846393585E1,2.567122459E1
1.737399375E1,-7.728617191E0,-2.087240982E1,1.646850586E1
1.739399375E1,-7.194853783E0,-1.641656303E1,-1.341375470E0
1.741399375E1,-5.975640297E0,-1.330774879E1,-5.681038380E0
1.743399531E1,-5.080898285E0,-7.108365536E0,2.927534282E-1
1.745599375E1,-8.962176323E0,-5.024950504E-1,1.299923229E1
1.747599375E1,-1.175191975E1,1.217116416E-1,1.084832954E1
1.749599375E1,-9.824960709E0,5.374762535E0,4.371467590E0
1.751599375E1,-1.095139408E1,3.103488684E0,2.585124969E0
1.753599531E1,-5.566288948E0,-3.520060778E0,7.704061985E0
1.755599531E1,-3.714756966E0,-7.588068008E0,3.496166468E0
1.757799531E1,-4.170019627E0,-1.410153198E1,1.845383644E0
1.759999375E1,-3.300138950E0,-2.396563339E1,-5.714192986E-1
1.761999688E1,1.364924788E0,-4.337086105E1,-2.300148010E0
1.764000000E1,1.352309322E1,-5.307417679E1,-6.470473409E-1
1.766199531E1,5.061275482E0,-2.722730255E1,8.271248817E0
1.768199688E1,4.318488598E0,-1.209024906E1,-6.306040287E-1
1.770399375E1,1.863091230E0,-5.099898338E0,-8.539341927E0
1.772399375E1,3.273927271E-1,-1.026892185E0,-5.473576069E0
1.774399375E1,-1.206677640E-3,8.461204767E-1,-2.260117054E0
1.776399375E1,-7.324054837E-1,1.154934168E0,-2.095817089E0
1.778399375E1,4.594185650E-1,2.388857841E0,2.450350523E0
1.780399375E1,1.392304897E0,1.972343326E0,2.086010456E0
1.782399531E1,4.216246605E0,3.587625027E0,9.176515579E0
1.784599375E1,-2.475279093E0,-7.360159159E-1,9.577860236E-1
1.786599375E1,-3.656213999E0,-3.864911795E0,-4.181368351E0
1.788599531E1,-2.014347315E0,-3.363882065E0,-4.222404480E0
1.790799531E1,9.141061902E-1,-3.029450417E0,-2.047789335E0
1.792799531E1,3.384433746E0,-4.026195049E0,-1.720214725E0
1.794799531E1,6.538000107E0,-7.065969467E0,-3.629925728E0
1.796799531E1,7.087804317E0,-2.273997498E1,-5.579782486E0
1.798799531E1,1.594432950E0,-3.986924362E1,-9.565754890E0
1.800799531E1,-2.025944710E0,-3.508639526E1,-1.106017780E1
1.802799531E1,-1.234402418E0,-2.320431709E1,-1.235781574E1
1.804799531E1,2.590200663E0,-2.050124168E1,1.100000668E1
1.806799531E1,-1.212768459E1,-2.486397743E1,3.235880280E1
1.808799531E1,-9.189118385E0,-1.752175331E1,-2.008495808E0
1.810799531E1,-6.345783710E0,-1.023564339E1,-7.956161976E0
1.812799531E1,-8.545758247E0,-5.757901669E0,2.036239862E0
1.814799531E1,-1.611422348E1,-3.054905415E0,1.232077217E1
1.816999531E1,-1.176919651E1,-2.175946236E-1,5.441886425E0
1.819199531E1,-7.685435772E0,4.979939461E0,-6.502652168E-1
1.821399375E1,-2.409543753E0,7.877890587E0,1.321615601E1
1.823399375E1,-2.341395378E0,-5.287144661E0,5.644685268E0
1.825399375E1,-3.339710236E0,-1.203881264E1,2.390150547E0
1.827399375E1,-3.740202665E0,-2.008470917E1,3.328706503E0
1.829399531E1,-5.145216465E0,-3.323951721E1,1.168992877E0
1.831599531E1,8.008240700E0,-4.650986862E1,1.015141487E0
1.833799531E1,3.794656515E0,-3.630809784E1,3.246825039E-1
1.835799531E1,-2.690623045E0,-1.536093903E1,-3.877658606E0
1.837799531E1,-3.224252224E0,-5.111515045E0,-2.828327894E0
1.839799531E1,-2.132582426E0,-1.985358238E0,-2.386157215E-1
1.841799531E1,-2.006149441E-1,-1.223149776E0,-8.180603981E-1
1.843799531E1,2.632664144E-2,-1.005765796E0,-3.649232626E0
1.845999531E1,6.022662520E-1,1.302388310E0,-3.796408892E0
1.848201094E1,1.196870923E0,1.979372740E0,-1.608204484E0
1.850399531E1,1.118159175E0,1.673872590E0,9.899545312E-1
1.852599375E1,-8.579190969E-1,2.183674812E0,3.738565207E0
1.854599375E1,-4.117002487E0,-2.218247175E0,-3.646666050E0
1.856599375E1,-2.656510174E-1,-2.643773079E0,-3.434262037E0
1.858599375E1,2.697125673E0,-2.003937244E0,-2.835615873E0
1.860599531E1,6.265951633E0,-6.612267971E0,-2.637136459E0
1.862799531E1,1.087602520E1,-2.364772224E1,-1.855219007E0
1.864799688E1,8.122204781E0,-3.343689346E1,-8.366930962E0
1.866999531E1,-1.005612612E0,-3.533842468E1,-9.809647560E0
1.868999688E1,-4.977497578E0,-2.956101799E1,-5.891718864E0
1.871199531E1,-1.396630764E1,-2.630018234E1,2.943161583E1
1.873399375E1,-1.205052471E1,-2.043752670E1,1.049726295E1
1.875399375E1,-7.793212891E0,-1.379956532E1,-4.636649609E0
1.877399375E1,-5.466891766E0,-1.044137192E1,-8.317418098E0
1.879399531E1,-5.517696381E0,-2.112499952E0,3.639693975E0
1.881599531E1,-1.741209984E1,-4.444021285E-1,2.079312515E1
1.883799531E1,-1.160267448E1,9.917836785E-1,1.175045371E0
1.885799531E1,-7.679085732E0,8.377465248E0,7.806821465E-1
1.887799531E1,-9.167791367E0,2.031020403E0,1.308527946E1
1.889799531E1,-7.779939651E0,-5.170661449E0,3.370882750E0
1.891800313E1,-6.789620399E0,-1.001044464E1,3.029756784E0
1.893999531E1,-5.592357159E0,-1.797522736E1,-1.032312751E0
1.895999844E1,-5.825035095E0,-3.353761292E1,-8.733186126E-1
1.898199531E1,4.767123699E0,-5.688799667E1,4.306728363E0
1.900399531E1,1.103908896E0,-3.579355621E1,9.759341240E0
1.902599844E1,4.045310497E0,-1.097021294E1,-8.169342041E0
1.904799531E1,2.410578012E0,-4.088530242E-1,-7.065471172E0
1.906800312E1,9.584085345E-1,2.468134880E0,-1.403519273E0
1.908999531E1,-1.267251015E0,1.565836668E0,1.067718148E0
1.910999531E1,-2.667906761E0,3.785903454E-1,1.101524383E-1
1.913199375E1,7.199268937E-1,1.475297451E0,1.067344785E0
1.915199375E1,1.768970370E0,3.666672111E-1,4.408203959E-1
1.917199375E1,1.628957391E0,-2.278025389E0,-1.435649514E0
1.919199531E1,8.918880671E-2,-5.282346249E0,-7.329206944E0
1.921399375E1,1.025053501E0,-5.720973492E0,-9.788243294E0
1.923399375E1,6.237431526E0,-9.883934855E-1,-1.009095669E1
1.925399375E1,8.391427994E0,-1.719659328E0,-5.270519257E0
1.927399375E1,7.628874302E0,-5.565331459E0,-2.198451906E-1
1.929399531E1,5.144430637E0,-1.261226177E1,2.817238092E0
1.931599531E1,7.685741901E0,-3.043881798E1,1.821456146E1
1.933799531E1,6.824690819E0,-2.051779175E1,-4.885723114E0
1.935799531E1,-4.328419685E0,-4.102300644E1,-1.938604355E1
1.937799531E1,-1.733795738E1,-5.771509552E1,-8.568302155E0
1.939799531E1,-2.359660912E1,-4.997479248E1,1.136176109E1
1.941799531E1,-2.683528519E1,-2.272452736E1,7.681811523E1
1.943799531E1,-1.321383858E1,-1.064283943E1,-2.127401352E1
1.945999375E1,-6.385374069E0,-5.629764080E0,-1.465511894E1
1.947999688E1,-6.938597679E0,1.016041756E0,3.665417433E0
1.950199375E1,-1.151348591E1,2.973885775E0,-3.883165359E0
1.952199375E1,-1.574948025E1,7.001957893E0,-1.890442491E0
1.954199375E1,-1.613177681E1,1.709823966E0,7.256528378E0
1.956199531E1,-8.113183975E0,-7.780360699E0,-2.009673595E0
1.958399531E1,-1.139827728E1,-3.593972778E1,3.576171160E0
1.960599531E1,-1.444806862E1,-7.366386414E1,-1.539202499E1
1.962799531E1,-1.057633758E0,-2.766693497E1,2.149923325E1
1.964799531E1,4.408922195E0,-1.057721901E1,4.491896152E0
1.966799531E1,4.176426411E0,-5.243828773E0,4.993921816E-1
1.968799531E1,2.702316523E0,-2.234881878E0,-1.814479232E0
1.970799531E1,3.903123379E0,-2.719813213E-2,-1.385007381E0
1.972799531E1,6.601762295E0,-8.269764185E-1,-1.056235552E0
1.974999531E1,1.626034546E1,2.558271408E0,-1.035643578E1
1.977199375E1,2.672328568E1,1.874506712E0,-1.314372635E1
1.979199375E1,1.569996738E1,2.859634459E-1,-9.129072189E0
1.981199375E1,1.344178581E1,4.930781841E0,-1.171015549E1
1.983199531E1,-1.452519989E1,-1.300210476E1,1.195046616E1
1.985399375E1,1.202438927E1,-9.306529999E0,4.709730148E0
1.987399844E1,1.547643566E1,-1.517501545E1,9.757913589E0
1.989599531E1,9.634851456E0,-4.760534763E0,2.542766571E0
1.991799531E1,4.260836601E0,-6.454164505E0,-4.621326447E0
1.993799531E1,-1.619811535E0,-3.310170746E1,-2.580443764E1
1.995999844E1,-2.077835655E1,-7.551627350E1,-4.559885406E1
1.998199531E1,-2.925957870E1,-6.704800415E1,3.578776169E1
2.000399375E1,1.634536743E1,5.919290066E0,7.474327087E1
2.002399531E1,-1.723274612E1,-3.239795446E0,-5.881364059E1
2.004599375E1,-6.542088985E0,-5.851218224E0,-3.365864456E-1
2.006599375E1,-7.170452118E0,2.968273878E0,3.651157618E-1
2.008599375E1,-1.083116722E1,1.912488192E-1,-2.437891006E0
2.010599531E1,-1.553658772E1,9.804734588E-2,-5.165260315E0
2.012799531E1,-1.703340340E1,-4.440449238E0,1.070660114E1
2.014999531E1,-1.329658222E1,-2.053074074E1,9.235872328E-2
2.016999531E1,-1.264918041E1,-5.025808716E1,1.310365677E0
2.019199531E1,-5.642395973E0,-6.825880432E1,-2.084027100E1
2.021399375E1,9.324074745E0,-2.424332237E1,-8.298111558E-1
2.023399531E1,1.451559448E1,-4.772869587E0,1.413917828E1
2.025599375E1,3.486379147E0,-3.697710514E0,3.925839663E0
2.027599375E1,2.499086857E0,-3.518231511E-1,-7.214208245E-1
2.029599375E1,5.957645416E0,1.302867055E0,-5.839936808E-2
2.031599531E1,1.286207294E1,1.395972729E0,-6.884277821E0
2.033799531E1,2.658610535E1,4.040550590E-1,-1.794785500E1
2.035799531E1,1.937605476E1,-3.518738985E0,-9.950110316E-1
2.037799531E1,1.342584038E1,1.065438986E0,2.358106613E0
2.039799531E1,1.207028103E1,5.772276878E0,-2.595228434E0
2.041799531E1,8.567344666E0,-3.168457747E0,-2.057260990E0
2.043799531E1,7.920756817E0,-1.134751034E1,-1.437718153E0
2.045799531E1,8.815642357E0,-2.015320396E1,-9.868516326E-1
2.047799531E1,5.759683132E0,-3.967310333E1,-1.421296787E1
2.049799531E1,-1.887486076E1,-7.402990723E1,-2.203864670E1
2.051799531E1,-2.756584167E1,-6.328201675E1,-8.543287277E0
2.053799531E1,-1.227285099E1,-1.189152145E1,4.485078049E1
2.055799844E1,-1.704839325E1,-5.816061974E0,1.116837597E1
2.057999375E1,-2.812030029E1,3.290984344E1,-7.965691090E0
2.059999531E1,-2.330910492E1,1.459762955E1,1.131062126E1
2.062199531E1,-9.477332115E0,-8.325980306E-1,6.358702660E0
2.064399375E1,-6.431591988E0,-7.851812840E0,5.932515621E0
2.066399531E1,-5.005088329E0,-1.018769264E1,6.812365651E-1
2.068399531E1,-4.425002098E0,-1.879151344E1,8.483528137E0
2.070599375E1,-1.089772701E1,-3.850951767E1,1.446586251E0
2.072599375E1,-1.735575914E0,-6.524156952E1,2.081490278E0
2.074599531E1,1.987084961E1,-4.641184616E1,2.481848717E0
2.076799531E1,1.127946663E1,-1.349645042E1,-7.864913940E0
2.078799531E1,8.346837997E0,-3.749961376E0,-5.892906189E0
2.080799531E1,9.612480164E0,5.126981735E0,4.966149032E-1
2.082799531E1,1.027903652E1,7.548783779E0,-1.227938056E0
2.084799531E1,8.689726830E0,8.700126648E0,-4.299555302E0
2.086799531E1,3.854243517E0,1.122475529E1,-3.419025421E0
2.088999531E1,4.270106554E-1,1.204327583E1,-1.396528363E0
2.091199375E1,4.301039875E-1,1.009175181E0,2.088423729E0
2.093199375E1,2.826134682E0,-4.598619461E0,4.879105568E0
2.095199375E1,1.075073147E1,-2.662566757E1,-4.736764908E0
2.097199375E1,1.249690914E1,-5.511062622E1,-1.140828514E1
2.099199375E1,4.940482974E-1,-4.180695724E1,-1.179387569E1
2.101199375E1,-2.641101360E0,-2.442732239E1,8.963220596E0
2.103199375E1,-9.431842804E0,-1.761787605E1,4.452268982E1
2.105199375E1,-1.619165993E1,-1.320729828E1,-3.265374899E0
2.107199531E1,-2.022752762E1,-4.533411026E0,5.852922916E0
2.109199531E1,-1.224831486E1,-5.456089020E0,-2.750784397E0
2.111399375E1,-1.117028236E1,-4.870696545E0,7.353742719E-1
2.113399375E1,-1.645314574E0,-8.050867081E0,7.791278362E0
2.115399375E1,8.032383919E0,-1.523899841E1,9.858748436E0
2.117399375E1,9.202545166E0,-2.338120842E1,4.528105736E0
2.119399375E1,9.469287872E0,-3.210276031E1,3.927477360E0
2.121399375E1,9.799094200E0,-3.139268494E1,1.173637748E0
2.123399375E1,1.037354851E1,-1.200417328E1,-7.668646812E0
2.125399375E1,8.408560753E0,-4.414534569E0,-2.031942749E1
2.127401094E1,3.385180950E0,-9.237979054E-1,-2.174274254E1
2.129599375E1,-6.625713706E-1,5.014397144E0,-1.201522446E1
2.131599375E1,8.270530403E-2,3.291021824E0,1.924364471E1
2.133599531E1,2.037935019E0,-1.762055755E0,7.518626690E0
2.135799531E1,2.500973701E0,1.002490520E0,4.997867107E0
2.137799531E1,9.486650467E0,-1.089842510E1,9.172090888E-1
2.139799531E1,1.170154572E1,-1.915040588E1,-4.620522022E0
2.141799531E1,8.363137841E-1,-3.000409698E1,-7.210186481E0
2.143799531E1,-1.892449760E1,-3.287514877E1,2.024776459E1
2.145799531E1,-2.639518356E1,-1.668920517E1,-4.616461277E0
2.147799531E1,-1.228698540E1,-9.266968727E0,1.381758022E1
2.149799531E1,-1.719831705E0,-1.071125603E1,-5.734065533E0
2.151799531E1,4.677427292E0,-1.086731911E1,-4.602843285E0
2.153799531E1,9.308311462E0,-1.518808746E1,3.421093941E0
2.155799531E1,1.298094082E1,-2.112248993E1,5.564440727E0
2.157799531E1,1.596920967E1,-1.470321369E1,5.343858242E0
2.159799531E1,1.516006660E1,-8.978170395E0,-5.524735451E0
2.161799531E1,1.048344326E1,-7.702405453E0,-1.032172966E1
2.163799688E1,1.994973421E0,-3.993873358E0,-1.525489521E1
2.165999531E1,-9.089012146E0,8.133198619E-1,-8.541927338E0
2.167999531E1,-1.429690838E1,8.339962006E0,1.621036339E1
2.170199531E1,-1.090333748E1,-8.857732773E0,-1.091295338E1
2.172399531E1,-7.405227661E0,-4.191624641E0,1.496114635E1
2.174599531E1,2.963533163E0,-1.254642105E1,1.448922992E0
2.176599531E1,7.086971283E0,-1.606076431E1,-2.511201620E0
2.178799531E1,-3.211898088E0,-2.469214821E1,-3.163104296E0
2.180799531E1,-1.440412140E1,-1.897130775E1,1.005936337E1
2.182999375E1,-1.371617126E1,-9.252171516E0,2.047693729E0
2.184999531E1,-4.138166904E0,-6.289902687E0,1.510033607E1
2.187200156E1,7.567688823E-1,-8.123746872E0,3.039103746E0
2.189399375E1,1.769171357E0,-1.100059128E1,-3.641772270E0
2.191399375E1,2.291365862E0,-1.233109665E1,-5.248090267E0
2.193399531E1,6.123850822E0,-1.498564339E1,-3.511384010E0
2.195599375E1,1.216771603E1,-1.625255966E1,3.414217710E0
2.197599375E1,1.089609718E1,-1.290555191E1,6.901171207E0
2.199599375E1,5.754205227E0,-1.050608253E1,5.769192696E0
2.201599375E1,2.777111053E0,-8.701478004E0,2.182717085E0
2.203599531E1,3.666001558E-2,-6.762987614E0,-1.268946052E0
2.205799375E1,-4.106314659E0,-5.754090309E0,-3.578067303E0
2.207799531E1,-9.228325844E0,-4.364284992E0,-1.618269682E0
2.209799531E1,-1.248433495E1,-5.851745129E0,1.096544340E-1
2.211799531E1,-1.299818802E1,-7.346550465E0,-9.225625038E0
2.213799531E1,-1.222397995E1,-7.894966125E0,-5.575741291E0
2.215799531E1,-5.181560040E0,-4.953747272E0,-2.244420499E-1
2.217799531E1,2.537729263E0,-5.645920277E0,4.596972466E0
2.219799531E1,4.671824932E0,-4.106333733E0,2.869211435E-1
2.221999375E1,5.250924587E0,-8.694208145E0,-2.533745289E0
2.223999531E1,9.265733719E0,-1.740271568E1,-2.639722347E0
2.226199375E1,1.166728020E1,-2.095639038E1,-4.686563492E0
2.228199844E1,9.802426338E0,-1.573250008E1,-6.883646011E0
2.230399531E1,6.847187042E0,-2.215483284E1,-9.026696205E0
2.232599375E1,1.489940405E0,-2.701511955E1,8.790723801E0
2.234599375E1,-1.437824440E1,-2.288419151E1,4.951470566E1
2.236599375E1,-6.714318275E0,-1.471261787E1,3.153652191E0
2.238599375E1,-1.076940632E1,-7.061765194E0,-5.826615334E0
2.240599531E1,-1.182987499E1,-3.958103657E0,-4.837158680E0
2.242799531E1,-1.452205944E1,-1.096400738E0,1.161080551E1
2.244799531E1,-5.645067692E0,-1.798849940E0,-1.696828246E0
2.246799531E1,-5.705861747E-2,-1.190629768E1,3.870294094E0
2.248999531E1,-1.364292741E0,-1.819248390E1,4.271907330E0
2.251199375E1,3.338407755E0,-2.383001518E1,2.131002188E0
2.253199375E1,1.479838848E1,-3.873500443E1,2.637519598E0
2.255199375E1,3.985608339E0,-2.514564896E1,3.491042852E0
2.257199375E1,-1.482030034E0,-8.811553001E0,-7.640932083E0
2.259199375E1,-5.359947681E-1,-1.048555017E0,-4.517207623E0
2.261199375E1,7.692952752E-1,2.884151220E0,-5.018687725E0
2.263199375E1,-2.459324151E-2,4.164216042E0,-7.623895168E0
2.265199531E1,-2.804855108E-1,4.510455608E0,-8.276381493E0
2.267199688E1,-1.901465416E0,3.434242964E0,-1.002278900E1
2.269399844E1,-9.823793411E0,-6.353828311E-1,-3.160058856E-1
2.271599375E1,-1.414027023E1,-6.857184887E0,-5.731335878E-1
2.273599375E1,-7.369602203E0,-2.342575073E1,6.709733582E1
2.275599375E1,-1.851388216E-1,-2.821666145E1,-2.642425728E1
2.277599375E1,1.731637955E1,-1.540436077E1,6.348848343E0
2.279599375E1,3.802097559E0,-6.155339241E0,-1.335840106E0
2.281599375E1,4.451108456E0,-5.084039569E-1,-1.978271365E0
2.283599531E1,5.826653957E0,-4.882821083E0,3.251804590E0
2.285799531E1,2.483534098E0,-1.457569885E1,-3.262626410E0
2.287799531E1,-2.663127899E0,-2.819141769E1,-3.144142389E0
2.289799531E1,-7.066696644E0,-3.417995834E1,-6.138350368E-1
2.291799531E1,-2.348213911E0,-2.231625748E1,1.809513664E1
2.293799531E1,-7.614691257E0,-1.279887581E1,1.718289852E0
2.295799531E1,-1.290748596E1,-7.520302296E0,-1.003362015E-1
2.297799531E1,-1.154520416E1,-4.820102453E-1,-2.206304789E0
2.299799531E1,-1.088669300E1,4.172691345E0,-4.169703484E0
2.301799531E1,-1.298325825E1,2.585374117E0,3.848545074E0
2.303799531E1,-1.344023418E1,-1.612552285E0,2.274079800E0
2.305999531E1,-7.157475471E0,-1.742331505E1,3.265710115E0
2.308199375E1,-5.411068439E0,-2.477450943E1,3.880253792E0
2.310199375E1,1.179230452E0,-4.003148270E1,3.529886484E0
2.312199531E1,2.021834373E1,-4.404918289E1,7.103060246E0
2.314399375E1,8.217704773E0,-1.631707764E1,-3.515760660E0
2.316399531E1,4.818158627E0,-7.375156403E0,-1.048748398E1
2.318399531E1,3.105011463E0,-1.595409751E0,-9.564375877E0
2.320599375E1,1.483313322E0,2.234709501E0,-6.575349331E0
2.322599375E1,2.012470245E0,2.532174826E0,-5.946239457E-2
2.324599531E1,2.813512802E0,5.029480457E0,1.283387899E0
2.326799375E1,7.940704823E-1,9.003184319E0,4.846553802E0
2.328799531E1,-1.375593376E1,-3.400283337E0,4.219868851E1
2.330799531E1,-2.267663240E0,-5.182909966E0,-5.822765827E0
2.332799531E1,-2.876556635E0,-1.262430954E1,-7.815631866E0
2.334799531E1,5.917403698E0,-2.524604225E1,-3.866664648E0
2.336799531E1,-3.151219368E0,-4.608628464E1,-6.699560642E0
2.338799531E1,-6.142458439E0,-3.585289383E1,-2.269511670E-1
2.340799531E1,4.423277855E0,-9.430922508E0,1.237672043E1
2.342799531E1,7.490011215E0,-3.455024660E-1,1.612102151E0
2.344799531E1,1.488235760E1,1.290206552E0,1.854347587E0
2.346799531E1,1.464049530E1,6.144383550E-1,1.513135433E-2
2.348799531E1,1.048315620E1,1.114299774E0,-3.024709940E0
2.350799531E1,-1.159282970E1,-3.326599598E0,2.736140633E1
2.352799844E1,-7.136090279E0,-6.635405064E0,-1.253840542E1
2.354999531E1,-1.417170143E1,-1.595365715E1,1.140411949E1
2.356999688E1,-6.897465229E0,-1.147373199E1,-4.839830875E0
2.359199375E1,-1.226517963E1,-2.051401711E1,7.881281376E0
2.361199375E1,-1.815979195E1,-2.529873466E1,-6.171447754E0
2.363199531E1,-3.347557449E1,-3.163714409E1,7.992142200E0
2.365399375E1,-2.168255043E1,-1.184794617E1,1.538389564E0
2.367399531E1,1.968895793E0,-1.023923397E1,4.011992455E0
2.369599375E1,7.459068298E0,-8.162791252E0,-2.437144041E0
2.371599375E1,9.574718475E0,-5.182872295E0,-8.809130192E-1
2.373599375E1,1.366374683E1,-6.555410862E0,-2.023636818E0
2.375599531E1,1.983240891E1,-3.103479147E0,-1.646137238E1
2.377800625E1,2.460938644E1,1.329464722E1,2.789340913E-1
2.379999375E1,3.590095997E0,1.436431980E1,2.199286842E1
2.381999531E1,-2.759849930E1,1.078463435E0,7.709801483E1
2.383999844E1,-8.331840515E0,-1.223031044E1,-2.967455101E1
2.386199375E1,4.637578011E0,-2.632318497E1,-1.749531174E1
2.388199375E1,1.394769001E1,-3.508793640E1,1.647153282E1
2.390199375E1,-5.506529808E0,-1.594074821E1,-4.307053566E0
2.392199375E1,-4.700201035E0,-1.050479984E1,-1.051073742E1
2.394199375E1,-7.963718414E0,-1.746135330E1,-7.250025868E-1
2.396199375E1,-9.973066330E0,-1.865250778E1,-1.972525239E0
2.398199531E1,-8.636517525E0,-1.278532410E1,-3.005422115E0
2.400399531E1,-4.940061569E0,-1.091853619E1,2.954732180E-1
2.402599375E1,-3.753294230E0,-1.360335636E1,-1.514859200E0
2.404599375E1,-3.788172960E0,-1.235637856E1,1.162873268E0
2.406599375E1,-1.305682778E0,-9.949354172E0,9.088274002E0
2.408599688E1,3.793440104E0,-8.524890900E0,7.322043419E0
2.410799375E1,9.665727615E0,-7.812873840E0,1.094653893E1
2.412799531E1,7.511357784E0,-9.008796692E0,9.846240044E0
2.414799531E1,3.994457245E0,-9.756141663E0,4.693746090E0
2.416799531E1,2.775569439E0,-1.041280460E1,-1.545552969E0
2.418799531E1,2.419771671E0,-9.839393616E0,-6.286225796E0
2.420799531E1,1.877714992E0,-9.378643990E0,-5.934412003E0
2.422999375E1,2.229040146E0,-8.046202660E0,-4.405915737E0
2.424999688E1,3.140933990E0,-5.736353874E0,-2.185599566E0
2.427000000E1,4.110777378E0,-5.435670853E0,3.445351720E-1
2.429199375E1,3.376399040E0,-7.342901707E0,3.683153868E0
2.431199375E1,3.774315119E-1,-1.179842472E1,1.453652954E1
2.433199531E1,6.621595621E-1,-9.419430733E0,-2.459706962E-1
2.435200000E1,7.694121361E0,-4.699607372E0,-6.336800575E0
2.437399531E1,1.686195183E1,-1.133970547E1,-1.170654488E1
2.439599531E1,2.494055367E1,-1.105221844E1,1.457356358E1
2.441799531E1,9.049364090E0,-1.351313305E1,9.929060936E0
2.443799531E1,-1.124508679E-1,-1.009039116E1,7.251682758E0
2.445799531E1,-2.525691092E-1,-9.746315956E0,-9.845628142E-1
2.447799531E1,2.367386669E-1,-1.097543240E1,-6.562861443E0
2.449799531E1,-1.417463183E0,-1.209456825E1,-8.276764870E0
2.451799531E1,-4.046947956E0,-1.047498608E1,-4.588085651E0
2.453799531E1,-3.854089975E0,-1.439074230E1,6.508014679E0
2.455799688E1,1.934026599E0,-1.051911736E1,1.487121010E1
2.457999375E1,-3.001275659E-1,-8.732362747E0,-1.012268543E0
2.459999375E1,-2.370527744E0,-8.932766914E0,-8.702779770E0
2.461999375E1,-5.963697910E0,-1.162688446E1,-1.098267269E1
2.464000000E1,-8.805586815E0,-1.359595299E1,-6.013247967E0
2.466199531E1,-8.971131325E0,-1.092814255E1,3.411373615E0
2.468199844E1,-7.040207386E0,-9.251156807E0,3.671297550E0
2.470399375E1,-3.961024761E0,-9.412421227E0,1.181442738E0
2.472399531E1,-2.083031893E0,-1.213192749E1,3.578852713E-1
2.474399531E1,-3.238301277E-1,-1.395624256E1,-1.786448002E0
2.476599375E1,1.623345375E0,-1.341931820E1,-2.542594194E0
2.478599375E1,3.145751238E0,-1.223969555E1,-1.537920237E0
2.480599375E1,4.866799355E0,-1.114438629E1,3.011235237E0
2.482599531E1,2.505733252E0,-1.036388683E1,8.530052185E0
2.484599531E1,-3.798736334E-1,-1.122348118E1,4.173582077E0
2.486799531E1,1.017382503E0,-1.339495468E1,4.352275729E-1
2.488799531E1,5.965507984E0,-1.546328735E1,-8.848586679E-1
2.490799531E1,1.099365711E1,-1.307024384E1,-2.643103004E-1
2.492799531E1,9.520753860E0,-9.376383781E0,2.727771521E0
2.494999531E1,5.404259205E0,-8.331716537E0,-6.174741983E-1
2.497199375E1,3.464764118E0,-7.771617413E0,-2.895547628E0
2.499199531E1,1.553769946E0,-7.337327957E0,-2.645478010E0
2.501399531E1,-4.268574119E-1,-7.129070759E0,-5.445946455E-1
2.503599531E1,-1.077716470E0,-6.768628597E0,1.471955180E0
2.505799375E1,-5.959264040E-1,-6.958833694E0,1.585727692E0
2.507799531E1,1.365030169E0,-7.068018436E0,-6.775494814E-1
2.509800938E1,2.854482174E0,-6.833291054E0,-3.951007426E-1
2.511999375E1,2.926988363E0,-7.172712326E0,2.402868748E0
2.513999844E1,3.143950701E0,-9.017157555E0,4.023446083E0
2.516199375E1,4.660802364E0,-1.279447937E1,7.541639805E0
2.518200312E1,-3.839370489E0,-1.851909256E1,2.444990349E1
2.520399375E1,1.624791503E0,-8.231553078E0,-3.455532312E0
2.522399375E1,5.836699486E0,-4.962931156E0,-9.864207268E0
2.524399375E1,5.252801895E0,-8.614567757E0,-6.895856380E0
2.526399375E1,4.863380432E0,-1.178453827E1,-7.727381706E0
2.528399375E1,6.137028217E0,-1.048736954E1,-3.116331339E0
2.530399531E1,2.720607996E0,-9.910203934E0,-1.643293858E0
2.532400625E1,1.703618169E-1,-9.467401505E0,-1.652200341E0
2.534599375E1,-3.372922659E0,-1.186135483E1,1.657343030E0
2.536599375E1,-4.634868145E0,-1.168689346E1,7.736106396E0
2.538599375E1,-2.955297232E0,-1.002303791E1,5.929977894E0
2.540599531E1,8.165185899E-2,-1.124230957E1,-5.881212950E-1
2.542799531E1,2.616804838E0,-9.577956200E0,-2.416726351E0
2.544799531E1,3.174721003E0,-8.706801414E0,-2.069433212E0
2.546799531E1,2.341892958E0,-9.731386185E0,-1.452045083E0
2.548799531E1,1.818760157E0,-1.048094368E1,-1.665655613E0
2.550799531E1,9.506991506E-1,-1.034253883E1,-1.591732264E0
2.552799531E1,-6.913304925E-1,-1.053579044E1,-1.681572437E0
2.554799531E1,-1.742452145E0,-1.032095337E1,-1.870714188E0
2.556999375E1,-1.478046060E0,-9.590118408E0,-1.422529340E0
2.558999531E1,2.011129400E-4,-9.265464783E0,-5.158163905E-1
2.560999531E1,1.899032950E0,-9.235076904E0,-6.306997538E-1
2.563199375E1,2.918809652E0,-9.572142601E0,-1.409916639E0
2.565199375E1,2.421945810E0,-9.702196121E0,-2.300023556E0
2.567199375E1,2.612131596E0,-8.704340935E0,-2.344479084E0
2.569199531E1,2.091095686E0,-8.939335823E0,-1.296086669E0
2.571399375E1,5.440009236E-1,-1.031491947E1,-6.702615619E-1
2.573399375E1,-2.850728035E-1,-1.140755653E1,-5.922967792E-1
2.575399375E1,-8.349921703E-1,-1.225311184E1,3.311276734E-1
2.577399531E1,-1.553884745E0,-1.317665195E1,1.956302285E0
2.579399531E1,-2.063514709E0,-1.321247864E1,3.723586798E0
2.581599375E1,-3.361746550E0,-1.290133762E1,5.004341125E0
2.583599375E1,-5.718254089E0,-1.402375889E1,3.546703339E0
2.585599375E1,-6.216477394E0,-1.346690559E1,1.516554475E0
2.587599375E1,-4.308145523E0,-1.108535576E1,9.056785703E-1
2.589599844E1,-3.084430933E0,-1.127079964E1,1.539557815E0
2.591799531E1,-2.701483250E0,-1.391551208E1,-3.052990139E-1
2.593799531E1,-4.903804064E-1,-1.457317924E1,-3.054877043E0
2.595799531E1,1.949847460E0,-1.392439938E1,-4.504776955E0
2.597799531E1,3.360893965E0,-1.125195312E1,-4.519400597E0
2.599799531E1,2.956369877E0,-8.957158089E0,-3.004522085E0
2.601799531E1,1.439010978E0,-8.092450142E0,-2.021414995E0
2.603799531E1,-6.189585924E-1,-8.773848534E0,-1.672531843E0
2.605999531E1,-1.508988738E0,-1.017302990E1,4.730846882E-1
2.608199531E1,1.047223806E-1,-1.170723438E1,1.361007929E0
2.610399375E1,3.049695730E0,-1.242851162E1,-1.075398803E0
2.612399375E1,4.792320251E0,-1.157302570E1,-3.348290920E0
2.614399375E1,5.718139172E0,-9.721128464E0,-2.324482679E0
2.616399375E1,6.194527626E0,-8.022376060E0,2.745095789E-1
2.618399375E1,5.270796776E0,-7.039968491E0,4.731996059E-1
2.620399375E1,4.397085667E0,-6.558302879E0,1.812027544E-1
2.622399531E1,3.927869797E0,-6.007914066E0,6.118047237E-1
2.624599375E1,3.813513279E0,-4.973810673E0,1.698494673E0
2.626599531E1,2.588381052E0,-5.182268620E0,3.220249176E0
2.628799531E1,-2.370547056E-1,-6.178218365E0,4.106477261E0
2.630799531E1,5.560198426E-1,-7.814923286E0,2.642260313E0
2.632799531E1,1.835021496E0,-1.138802052E1,4.418901443E0
2.634799531E1,6.285353899E-1,-1.525735664E1,7.853364944E0
2.636799531E1,-2.655112267E0,-1.342992973E1,8.535615921E0
2.638799531E1,-6.643325806E0,-1.069296455E1,4.834860325E0
2.640799531E1,-7.552346706E0,-9.167466164E0,-8.833933473E-1
2.642799531E1,-3.951620340E0,-1.534910297E1,-6.669652462E0
2.644799531E1,1.581485152E0,-1.882682419E1,-4.149946213E0
2.646999531E1,6.223478317E0,-2.130840492E1,-3.388484955E0
2.648999531E1,6.758467197E0,-8.259286880E0,-2.377327442E0
2.651199375E1,4.456202984E0,-3.878415346E0,-2.583717108E0
2.653199375E1,3.613329172E0,-2.872419357E0,-4.343101025E0
2.655199375E1,6.423451424E0,-4.271016598E0,-4.346644402E0
2.657199375E1,8.854341507E0,-8.710067749E0,-2.957317829E0
2.659199375E1,5.272252560E0,-1.194750690E1,-8.528721333E-1
2.661199375E1,1.401172996E0,-1.225880051E1,3.052185774E0
2.663199531E1,-9.654570222E-1,-1.037105942E1,7.131493568E0
2.665200156E1,-7.401148081E-1,-7.942898273E0,3.548714638E0
2.667202656E1,4.715715349E-1,-7.451550961E0,-3.872190118E-1
2.669399375E1,3.547345102E-1,-9.121275902E0,-3.160987854E0
2.671399375E1,1.265191883E-1,-9.029329300E0,-3.199917793E0
2.673399375E1,6.121494994E-2,-8.273086548E0,-2.717284918E0
2.675399375E1,-7.346272469E-1,-7.868409634E0,-2.459477186E0
2.677399375E1,-1.406689167E0,-8.207275391E0,-1.706721067E0
2.679399531E1,-1.068953633E0,-1.046135902E1,-4.788882136E-1
2.681599375E1,4.564306140E-2,-1.194359970E1,6.342910528E-1
2.683599375E1,3.035847843E-1,-1.190286922E1,2.865457296E0
2.685599375E1,-6.574764848E-1,-1.098287392E1,7.260138988E0
2.687599375E1,-1.987264037E0,-9.449856758E0,4.858850479E0
2.689599531E1,-7.507067323E-1,-9.682917595E0,-3.148040056E0
2.691799531E1,-9.234723449E-1,-1.106854820E1,-6.161736965E0
2.693799531E1,-2.149035454E0,-1.200368500E1,-5.993261337E0
2.695999531E1,-3.935129166E0,-1.250950336E1,-3.819671154E0
2.698199531E1,-5.426056385E0,-1.298820877E1,-9.167110920E-1
2.700399375E1,-5.736114979E0,-1.498976135E1,1.353336930E0
2.702399531E1,-2.414102316E0,-1.614316368E1,6.466642857E0
2.704599531E1,2.900920153E0,-1.342680740E1,1.726515388E1
2.706799531E1,1.586857796E0,-1.041675949E1,8.063556671E0
2.708799531E1,4.513309479E0,-1.066475105E1,1.721383214E0
2.710799531E1,8.433623314E0,-1.591686344E1,5.163765907E0
2.712799531E1,5.872890472E0,-1.778487778E1,1.327156734E1
2.714799531E1,2.462982416E0,-9.679517746E0,8.421345711E0
2.716799531E1,5.676020145E0,-2.870666981E0,-7.115778446E0
2.718999531E1,5.455858707E0,-2.043441534E0,-9.348505020E0
2.720999531E1,2.264407158E0,-5.283572197E0,-5.800959468E-1
2.723199375E1,-1.932963490E0,-7.686603546E0,1.370694828E1
2.725199375E1,-8.266986609E-1,-7.018898964E0,5.596877575E0
2.727199531E1,3.870657980E-1,-5.901870251E0,-3.467752218E0
2.729399531E1,-2.441702604E0,-6.530730724E0,1.775923073E-1
2.731599375E1,-4.346098423E0,-6.836470604E0,1.462962508E0
2.733599375E1,-5.511615276E0,-7.184778690E0,2.090578556E0
2.735599375E1,-5.946527004E0,-8.212141037E0,2.921242237E0
2.737599375E1,-6.565762997E0,-8.883944511E0,3.282067299E0
2.739599531E1,-4.142974377E0,-7.088943958E0,3.275536060E0
2.741799531E1,-2.539606333E0,-7.404289246E0,4.304497242E0
2.743799531E1,-1.295339704E0,-6.864731789E0,5.482070923E0
2.745799531E1,1.989102811E-1,-6.361250401E0,5.189183235E0
2.747799531E1,1.906828403E0,-7.245878696E0,4.190743446E0
2.749799531E1,2.523478985E0,-9.483824730E0,4.265739918E0
2.751799531E1,-2.884534188E-2,-1.089465237E1,6.267110348E0
2.753799531E1,1.052366614E0,-8.291685104E0,-4.030140400E0
2.755799844E1,1.408346057E0,-6.282423496E0,-1.084748650E1
2.757999375E1,-1.034793139E0,-8.071697235E0,-1.363618565E1
2.759999375E1,-2.271044922E1,-3.982954025E1,6.345883179E1
2.761999375E1,6.055032015E-1,-3.349403000E1,-1.027588463E1
2.763999375E1,8.126686811E-1,-6.551081657E0,-6.477656364E0
2.765999531E1,3.398780107E0,8.303474426E0,1.068658638E1
2.767999531E1,1.156782433E-1,7.319314003E0,9.839278221E0
2.770199531E1,5.543524742E0,1.098507524E0,4.209657669E0
2.772399531E1,5.617821693E0,-5.053671360E0,-2.949014902E0
2.774599375E1,4.547470093E0,-1.231058311E1,-5.050578117E0
2.776599375E1,-5.228649378E-1,-2.348863029E1,-4.627149105E0
2.778599531E1,-8.761140823E0,-1.911984634E1,1.406909585E0
2.780799531E1,-1.533256292E0,-8.656274796E0,-1.985875368E0
2.782999375E1,-2.768444061E0,-8.801028252E0,5.432702065E0
2.784999531E1,-2.816289902E0,-1.046192360E1,2.226808548E0
2.787199531E1,4.254687726E-1,-9.668102264E0,-4.393647313E-1
2.789399375E1,1.086124778E0,-1.020051575E1,-1.743630052E0
2.791399375E1,-3.560177982E-1,-1.283195400E1,-3.940923214E0
2.793399531E1,-4.284031391E0,-1.639101219E1,-6.878819466E0
2.795599375E1,-1.174839592E1,-1.957736778E1,-5.234299183E0
2.797599531E1,-1.785939407E1,-1.605818939E1,9.938244820E0
2.799799531E1,-1.515817928E1,-1.027076149E1,1.007033825E1
2.801799531E1,-1.241689587E1,-5.955385208E0,7.046844006E0
2.803799531E1,-1.072754574E1,-8.792667389E0,6.818896770E0
2.805999531E1,-4.895874500E0,-1.710541153E1,1.510796738E1
2.808199531E1,4.989889622E0,-2.421655464E1,2.071439362E1
2.810399375E1,2.087616539E1,-1.385546589E1,4.277346611E0
2.812399375E1,1.754808235E1,-1.069666100E1,-2.788794994E0
2.814399375E1,1.041909695E1,-1.831624603E1,1.122409344E1
2.816399531E1,4.011341333E-1,-1.771871185E1,2.118879128E1
2.818399531E1,7.056287289E0,-8.998607635E0,-7.533604622E0
2.820599375E1,5.737522602E0,-3.717275858E0,-3.212108850E0
2.822599375E1,4.305617332E0,-2.894043922E0,3.059368372E0
2.824599375E1,3.211936474E0,-1.947271228E0,-3.331818819E0
2.826599375E1,-1.185848117E0,-3.088826656E0,-8.889834404E0
2.828599375E1,-4.654988766E0,-4.456030846E0,-8.798528671E0
2.830599375E1,-9.617431641E0,-1.538830042E0,1.722829223E0
2.832599531E1,-1.065505028E1,-5.528977513E-1,-4.972220898E0
2.834799531E1,-1.519881344E1,-2.653216124E0,6.263605118E0
2.836999375E1,-1.035605240E1,-5.902166843E0,1.663206863E1
2.838999531E1,5.024930954E0,-1.343969822E1,1.611709595E1
2.841199531E1,2.479013920E0,-2.137847900E1,1.576269627E1
2.843399531E1,4.715897560E0,-2.344021988E1,1.375806904E1
2.845399531E1,3.959281683E0,-8.562900543E0,-2.589099407E0
2.847599375E1,2.447716713E0,-2.417166948E0,-6.970057487E0
2.849599375E1,3.662879705E0,-3.122690201E0,-8.500660896E0
2.851599375E1,5.765668392E0,-7.433422089E0,-8.691268921E0
2.853599531E1,6.111382008E0,-1.629558754E1,-7.584246635E0
2.855599531E1,-4.769786358E0,-2.832742691E1,2.775837481E-1
2.857799531E1,-7.316824436E0,-1.636264420E1,1.622386742E1
2.859799531E1,-6.324523449E0,-1.101158524E1,1.007499218E0
2.861799531E1,-8.858623505E0,-1.230773830E1,-8.174512863E0
2.863799531E1,-1.001831627E1,-1.376622009E1,-5.949897289E0
2.865799531E1,-1.215676975E1,-1.180474472E1,4.240159988E0
2.867799531E1,-1.201956272E0,-1.028426456E1,2.705105019E1
2.869799531E1,1.615390968E1,-1.999031067E1,1.201043606E1
2.871799531E1,1.413230228E1,-2.029912567E1,1.147978497E1
2.873799531E1,1.649769783E1,-1.522537041E1,1.579883862E1
2.875799531E1,1.093889618E1,-4.051956654E0,5.209687233E0
2.877799531E1,5.333658695E0,-3.587653875E0,-7.122712135E0
2.879799531E1,1.839608788E0,-4.171589851E0,-1.372977924E1
2.881799531E1,-3.882179022E0,-5.737082005E0,-1.215874195E1
2.883799531E1,-1.183576488E1,-5.882093906E0,1.008957767E1
2.885799531E1,-7.937152386E0,1.774189711E0,1.077393627E1
2.887799531E1,-6.654855728E0,4.859281063E0,-5.632599354E0
2.889799531E1,-6.791201115E0,1.167069912E1,9.099000931E0
2.891799531E1,-5.713207245E0,7.173439980E0,3.391625881E-1
2.893799531E1,-9.401886940E0,-4.473001003E0,2.411916733E1
2.895799531E1,2.763875961E0,-2.254802704E1,1.485764980E1
2.897799531E1,7.142909050E0,-2.610014153E1,-5.559183121E0
2.899799531E1,-3.172499180E0,-2.449420738E1,-5.349173546E0
2.901799531E1,-1.823424101E0,-1.158094501E1,4.409784317E0
2.903799531E1,-1.697690010E0,-1.304938602E1,2.913360298E-1
2.905999375E1,4.967633247E0,-1.634787750E1,-1.810294151E0
2.907999375E1,3.934832335E0,-1.651631355E1,-3.464256525E0
2.909999531E1,1.399142742E0,-1.666351891E1,-4.576564312E0
2.911999688E1,8.776377439E-1,-1.642154312E1,-5.196892738E0
2.914199375E1,1.071836278E-1,-1.564518833E1,-5.517887592E0
2.916199531E1,-1.356190801E0,-1.506716156E1,-6.375194550E0
2.918399375E1,-4.305215359E0,-1.254870033E1,-6.713264942E0
2.920399375E1,-7.643421650E0,-7.549358368E0,-5.784142017E0
2.922399531E1,-1.301776314E1,-5.991154671E0,2.013213348E1
2.924599375E1,-3.430881262E0,-4.091537476E0,1.394453049E1
2.926599375E1,-1.051772833E0,-7.855356216E0,1.430797958E1
2.928599375E1,-2.078971386E0,-1.096941757E1,3.367827892E0
2.930599375E1,-5.248089880E-2,-1.525538349E1,1.900325716E-1
2.932599531E1,1.401785851E0,-1.314160061E1,6.552470207E0
2.934799375E1,2.425929785E0,-5.745308399E0,6.467524052E0
2.936799531E1,3.733297825E0,-2.080417633E0,1.542584062E0
2.938799531E1,-1.053736061E-1,-4.626746774E-1,-2.343195438E0
2.941000469E1,-4.783586502E0,-9.213846177E-2,-5.880322456E0
2.943199375E1,-7.475750923E0,-6.226839870E-2,-6.455630064E-1
2.945199375E1,-1.029288387E1,1.445082664E0,2.045357895E1
2.947199375E1,-2.228848696E0,-1.391701579E0,8.021916389E0
2.949199531E1,1.557198405E0,-6.142506123E0,3.473546028E0
2.951399531E1,1.171636105E0,-9.234215736E0,6.428728580E0
2.953599375E1,-7.467993498E-1,-1.569141579E1,1.258785009E0
2.955599531E1,-1.926910996E0,-2.729312325E1,3.823817968E0
2.957799531E1,-4.690681458E0,-2.512735748E1,1.844997597E1
2.959799531E1,2.694434643E0,-1.261091137E1,-3.421802759E0
2.961799531E1,1.476437092E0,-8.656810760E0,-6.575799465E0
2.963799531E1,-1.331789017E0,-1.047654819E1,-5.661205292E0
2.965799688E1,-2.127190590E0,-1.747126579E1,-3.585642576E0
2.967999531E1,-2.788737297E0,-2.069589996E1,-4.475529194E0
2.970199531E1,-3.534531355E0,-2.014993668E1,-9.228182793E0
2.972199844E1,-3.076415062E0,-1.404052734E1,-1.313425446E1
2.974399375E1,-4.495755196E0,-8.182930946E0,-1.235001087E1
2.976399375E1,-2.723509789E0,-3.734906673E0,-4.070257664E0
2.978399375E1,2.374109507E0,3.249276400E0,3.461442184E1
2.980399531E1,1.395082116E0,-1.097070122E1,1.576840401E1
2.982599531E1,1.422443151E0,-1.196546364E1,-2.178168297E0
2.984799531E1,2.588850260E0,-1.369207478E1,1.599470377E0
2.986799531E1,6.282327652E0,-1.932441521E1,7.630885601E0
2.988799531E1,9.004784584E0,-1.374217224E1,3.136547804E0
2.990999375E1,6.641036510E0,-3.647796154E0,1.343032241E0
2.992999375E1,2.135465145E0,-2.233301640E0,-3.963888168E0
2.995000156E1,-3.235456944E0,-1.395350337E0,-1.023357391E1
2.997199375E1,-1.133998299E1,-1.192954063E0,-3.515549898E-1
2.999199375E1,-1.237435436E1,-7.042784095E-1,7.378000259E0
3.001199375E1,-9.209028244E0,2.160776615E0,2.406192780E1
3.003199375E1,3.666662455E0,-1.877418041E0,1.328079987E1
3.005199375E1,3.184623480E0,-3.825618267E0,-9.164812565E-1
3.007199531E1,4.824268341E0,-3.928042173E0,1.809604764E0
3.009399531E1,1.382503986E1,-1.919601059E1,2.957414627E1
3.011599375E1,2.107108116E0,-3.451762772E1,1.505402279E1
3.013599375E1,1.215398312E1,-2.362958336E1,-1.161896515E1
3.015599375E1,8.278373718E0,-8.053241730E0,-1.538317680E1
3.017599375E1,-1.290647149E0,-5.271112919E0,-2.047433281E1
3.019599531E1,-1.086761761E1,-8.860107422E0,-7.459058762E0
3.021800781E1,-1.874968338E1,-1.531254768E1,-1.238625884E0
3.023999688E1,-1.884788322E1,-8.856468201E0,5.891507626E0
3.026000000E1,-1.138428497E1,-3.146172523E0,-5.170709610E0
3.028199531E1,-1.665876031E0,-4.280066490E-1,-5.550908566E0
3.030200469E1,3.849713564E0,-1.213438869E0,1.164573288E1
3.032399375E1,4.661606550E-1,-2.172029257E0,1.424536610E1
3.034399375E1,-5.438103676E0,-2.810754299E0,1.864391518E1
3.036399531E1,1.856128812E0,-2.187634850E1,2.680697632E1
3.038599531E1,-1.229089260E1,-1.411969948E1,1.383268261E1
3.040799531E1,-1.022457218E1,-8.450114250E0,1.773049927E1
3.042799531E1,-8.461377144E0,-1.324629402E1,1.692739868E1
3.044799531E1,-1.447582245E0,-1.283153248E1,1.755577087E1
3.046799531E1,3.731803894E0,-8.866504669E0,1.456643867E1
3.048799531E1,8.488479614E0,-4.498695374E0,1.312811661E1
3.050799531E1,7.458215714E0,-1.629867196E0,7.326697826E0
3.052799531E1,1.825138330E0,6.139212251E-1,-1.493675470E0
3.054799531E1,-5.367215633E0,2.136250496E0,-3.656491995E0
3.056799531E1,-7.762787342E0,2.531657696E0,-1.862296224E0
3.058799531E1,-6.223315239E0,1.221109867E0,-4.130553246E0
3.060799531E1,-3.567542553E0,8.961209655E-1,-1.146678925E0
3.062799531E1,-4.672591209E0,-5.319149971E0,-4.083923817E0
3.064799531E1,-1.159960079E1,-1.338604927E1,-1.507016850E1
3.066799531E1,-1.290799427E1,-2.324598503E1,8.445919991E0
3.068799531E1,-4.066331387E0,-3.019827652E1,3.963783026E0
3.070799531E1,-2.530537128E0,-1.810742378E1,-1.642633080E0
3.072799531E1,-2.721642256E0,-6.418643951E0,-2.308834076E0
3.074799531E1,-2.073244572E0,-2.557754278E0,-2.169922352E0
3.076799531E1,8.000560403E-1,4.015181541E0,1.034944439E1
3.078802031E1,3.976079702E0,5.325662345E-2,3.339135647E0
3.080999688E1,5.730359077E0,-2.836477757E0,1.943248987E0
3.083199375E1,4.439136982E0,-6.769021034E0,-3.821050227E-1
3.085199375E1,3.244555235E0,-1.354838467E1,-2.666824818E0
3.087200156E1,-3.365730524E0,-3.185406876E1,-3.705802679E0
3.089399375E1,-1.825368118E1,-4.936666870E1,-1.984419703E0
3.091399375E1,-1.344268513E1,-2.661357307E1,1.152348399E0
3.093399375E1,-1.921309662E1,-2.307047081E1,4.120966911E0
3.095399531E1,-2.706352043E1,-2.003220940E1,1.773507881E1
3.097599375E1,-2.315923882E1,-4.307264805E0,6.873408318E0
3.099599531E1,-9.937545776E0,-3.092887163E0,3.723223209E0
3.101799531E1,-7.258578300E0,-6.260904312E0,-2.635853291E0
3.103799531E1,-6.747520924E0,-5.487107754E0,-1.516793847E0
3.105999531E1,-6.992994308E0,-1.818805122E1,1.085119247E0
3.108002969E1,-5.104246616E0,-2.845189857E1,1.101332784E0
3.110199375E1,5.426372051E0,-3.696011734E1,1.182017326E0
3.112199531E1,1.705139923E1,-3.929693222E1,2.624045126E-3
3.114399531E1,8.253033638E0,-2.470422554E1,1.327690244E0
3.116399531E1,2.787818193E0,-1.379504585E1,-5.830081940E0
3.118399531E1,6.181119919E0,-1.082231808E1,-4.739494801E0
3.120599375E1,1.018419647E1,-6.074692726E0,2.070735455E0
3.122599375E1,8.237509727E0,-5.848699570E0,5.055155754E0
3.124599375E1,-1.287122816E-2,2.184010029E0,-4.011398792E0
3.126599375E1,-1.397888184E0,2.068944693E0,-4.967968941E0
3.128599375E1,-4.467388988E-1,1.206850052E0,-3.627560377E0
3.130599375E1,2.931460552E-2,7.902302146E-1,-3.092791557E0
3.132599531E1,-4.378899336E-1,6.059820652E-1,-2.537384510E0
3.134799375E1,-1.120572686E0,-6.525731683E-1,-2.190598965E0
3.136799531E1,-1.045978904E0,-1.584013462E0,-7.438688874E-1
3.138799531E1,2.359725237E-1,-8.703114510E0,3.367842865E1
3.140799531E1,1.958255887E0,-8.530541420E0,-3.211371660E0
3.142799531E1,3.675645590E0,-1.170385361E1,-1.368667412E1
3.144999844E1,9.229302406E0,-1.662454987E1,-1.205220985E1
3.147202656E1,1.001506042E1,-1.664188385E1,-6.273191452E0
3.149399375E1,7.105693817E0,-1.629900742E1,-3.407140374E-1
3.151399531E1,3.441588402E0,-1.741306686E1,5.911284089E-1
3.153599531E1,-2.918847799E0,-1.150597763E1,-3.845806122E0
3.155599531E1,-5.527436256E0,-1.487980080E1,-7.423145771E0
3.157799531E1,-9.808862686E0,-1.832890701E1,-3.830569506E0
3.159799531E1,-1.532804298E1,-2.308188438E1,7.262494564E0
3.161799531E1,-8.775065422E0,-1.929260063E1,-2.736629963E0
3.163799531E1,-2.772571802E0,-1.200883675E1,-1.530182242E0
3.165799531E1,-3.595085382E0,-8.584734917E0,-2.567465305E0
3.167799531E1,-1.218113327E1,-1.067608070E1,-6.149152756E0
3.169799531E1,-1.843983650E1,-6.937343121E0,-1.118532658E0
3.171799531E1,-1.802360725E1,-9.576806769E-5,-2.271704912E0
3.173799531E1,-1.216318607E1,4.943011284E0,2.894647121E0
3.175799531E1,-6.413204670E0,3.508693218E0,1.014581203E1
3.177799531E1,-6.041873455E0,-7.360111237E0,1.277373672E0
3.179799531E1,-2.564381361E-1,-1.352991104E1,4.566249847E0
3.181799531E1,-3.353960514E0,-1.287655258E1,-2.838374078E-1
3.183799531E1,-4.619928360E0,-2.002233505E1,3.063888788E0
3.185799531E1,-3.369120359E-1,-2.895424080E1,3.844570875E0
3.187799531E1,5.218871117E0,-3.342823792E1,1.341614872E-1
3.189799531E1,-6.241023064E0,-2.563329124E1,3.921836376E0
3.191799531E1,-5.069712639E0,-1.365071297E1,4.243378162E0
3.193799531E1,-2.357560873E0,-9.086033821E0,4.624065161E-1
3.195799531E1,-1.689751029E0,-5.601646423E0,4.235630333E-1
3.197799531E1,-1.043680385E-1,-3.065497637E0,-4.383304417E-1
3.199799531E1,6.892140508E-1,-2.590411425E0,-1.591033220E0
3.201799531E1,9.058606029E-1,-1.719094276E0,-1.221387625E0
3.203799531E1,1.478984594E0,-6.765056252E-1,-1.359504342E0
3.205999531E1,1.627166510E0,6.363309622E-1,5.498140454E-1
3.207999531E1,-1.247781396E0,3.818751872E-1,3.308566332E0
3.209999531E1,-2.890567541E0,-4.692683220E0,-6.494597435E0
3.212199531E1,-2.174624681E0,-5.346080303E0,-5.968122482E0
3.214399375E1,3.298060596E-1,-3.449297667E0,-2.356957436E0
3.216399531E1,1.782052279E0,-7.667057514E0,2.993719578E0
3.218599375E1,3.015812874E0,-1.160532856E1,2.721469879E0
3.220599375E1,5.866455078E0,-2.654190063E1,4.746600628E0
3.222599375E1,1.020734429E0,-2.969676781E1,-1.991880059E0
3.224599375E1,2.398789167E0,-1.415562248E1,-2.899043083E0
3.226599375E1,1.190569401E0,-1.298956966E1,-5.001621723E0
3.228599375E1,-3.353979826E0,-1.876038170E1,-4.057099342E0
3.230599375E1,-7.814492226E0,-2.090557671E1,-2.825110197E0
3.232599531E1,-9.644792557E0,-1.629841232E1,6.025401592E0
3.234799531E1,-9.111699104E0,-1.133551121E1,7.674958706E0
3.236799531E1,-8.688673019E0,-9.010329247E0,2.568403721E0
3.238799531E1,-9.620994568E0,-7.287863731E0,-4.313959122E0
3.240799531E1,-1.059713840E1,-4.922823429E0,-7.504213333E0
3.242799531E1,-1.215723896E1,-4.312914908E-1,4.155251980E0
3.244799531E1,-8.620743752E0,2.758627892E0,2.957499981E0
3.246999531E1,-4.356824875E0,4.230420589E0,2.512006044E0
3.248999531E1,-1.629378796E0,-3.232153177E0,6.847311497E0
3.251199375E1,-2.946228027E0,-1.179629898E1,3.310903311E0
3.253199375E1,-6.469276905E0,-1.761105919E1,1.134660006E0
3.255199375E1,-7.910882950E0,-3.124022484E1,-2.578172386E-1
3.257199531E1,8.398954868E-1,-4.307465744E1,1.689808369E0
3.259399375E1,8.152515411E0,-3.012137413E1,1.422625065E0
3.261399375E1,1.491434455E0,-1.412942982E1,9.352996945E-1
3.263399375E1,2.477136850E-1,-7.696707249E0,-2.858313084E0
3.265399531E1,8.238065243E-1,-6.308721542E0,-6.306901574E-1
3.267399688E1,1.544691086E0,-4.368891716E0,-6.446722746E-1
3.269599375E1,2.580729246E0,-2.914452076E0,-1.243280172E0
3.271599375E1,3.861387730E0,-5.005413890E-1,5.830168724E-1
3.273599375E1,3.361248493E0,1.020791769E0,-4.039593041E-1
3.275599531E1,1.675615549E0,2.188999414E0,3.955221269E-3
3.277799531E1,-5.192784309E0,4.090953350E0,1.954259491E1
3.279799688E1,-3.442459822E0,-7.114514112E-1,-3.501156092E0
3.281999531E1,-7.036367059E-1,-2.420873165E0,-6.612353802E0
3.283999688E1,1.799003124E0,-4.417053223E0,-5.640049934E0
3.286199375E1,6.010097504E0,-9.982480049E0,-1.271522164E0
3.288199375E1,1.161141872E1,-3.399327087E1,-6.103682518E-1
3.290199375E1,1.863072067E-1,-3.826070404E1,2.373343468E0
3.292199375E1,-5.327385664E-1,-1.541537380E1,1.016932368E0
3.294199375E1,3.592164516E-1,-1.128864193E1,-3.718147516E0
3.296199375E1,-1.594538242E-2,-1.071493340E1,-3.918149471E0
3.298199531E1,-5.070056915E0,-1.746666718E1,-1.088787168E-1
3.300399375E1,-1.028473473E1,-1.909415054E1,4.802625179E0
3.302399531E1,-1.156928062E1,-1.309608173E1,9.066458702E0
3.304599531E1,-9.586766243E0,-7.535347462E0,1.865131021E0
3.306799531E1,-8.036166191E0,-3.220479012E0,-1.174643159E0
3.308799531E1,-7.663102150E0,-9.786826372E-1,-1.531494260E0
3.310999531E1,-7.787189007E0,5.171476007E-1,4.840865135E0
3.312999531E1,-5.419093609E0,-5.612583756E-1,2.893210649E0
3.314999531E1,-3.662151814E0,-6.959714413E0,3.468403339E0
3.316999531E1,-5.499471664E0,-1.619981956E1,2.489624977E0
3.318999531E1,-5.812901497E0,-2.611984062E1,-1.331903934E0
3.320999531E1,-1.182745218E0,-3.277507019E1,3.937858343E0
3.323199375E1,9.137049675E0,-2.663721657E1,4.517982960E0
3.325199375E1,8.943204880E0,-1.459273624E1,2.684809923E0
3.327199531E1,6.134710789E0,-8.527859688E0,1.581418037E0
3.329399531E1,4.967556477E0,-6.278861046E0,-3.380517066E-1
3.331399531E1,2.814987659E0,-5.087084770E0,-1.397782803E0
3.333599531E1,1.321340799E0,-3.749530554E0,-1.189286113E0
3.335799531E1,6.993942261E-1,-2.613491535E0,-1.345752120E0
3.337799531E1,-1.959606111E-1,-3.470002651E0,-1.786093593E0
3.339799531E1,-1.671851873E0,-2.098584652E0,4.499001980E0
3.341799531E1,-2.135800362E0,-3.843201399E0,4.769240379E0
3.343801563E1,-4.144535542E0,-7.427732944E0,-1.496854890E-2
3.345999531E1,-9.252670288E0,-1.295166397E1,3.971032381E0
3.348000469E1,-1.669287300E1,-1.716186714E1,1.463799572E1
3.350199375E1,-2.213037252E0,-1.028109455E1,-8.342960358E0
3.352199375E1,1.841121912E0,-1.256526852E1,-4.688076496E0
3.354199375E1,5.844131470E0,-1.877885437E1,-1.811912775E0
3.356199531E1,7.368912220E0,-2.012795639E1,-5.328133106E0
3.358399531E1,5.226599693E0,-1.023297215E1,-5.617429256E0
3.360599375E1,3.843153238E0,-7.072002411E0,-1.310997844E0
3.362599531E1,4.658637524E0,-8.029367447E0,1.298902333E-1
3.364600156E1,4.049323082E0,-1.205469990E1,-1.116435409E0
3.366799531E1,2.842607021E0,-1.342805290E1,-2.424167395E0
3.368800469E1,7.885925770E-1,-1.075363350E1,-1.372346759E0
3.370999531E1,-2.158612162E-1,-9.158319473E0,4.588727057E-1
3.373199375E1,-2.254724979E0,-9.467037201E0,1.902135730E0
3.375199375E1,-4.218708038E0,-9.947774887E0,2.836190462E0
3.377199375E1,-5.312944412E0,-9.014887810E0,4.448829174E0
3.379199375E1,-4.865008354E0,-7.789688587E0,3.957624912E0
3.381199375E1,-4.674085140E0,-8.806257248E0,1.884696364E0
3.383199375E1,-4.718990803E0,-1.047901821E1,-7.478145361E-1
3.385199375E1,-5.765630245E0,-1.019338131E1,-1.017143011E0
3.387202031E1,-6.999305248E0,-8.854821205E0,-5.184212923E-1
3.389399375E1,-9.487512589E0,-8.565113068E0,4.560418129E0
3.391399375E1,-1.121323395E1,-8.952667236E0,4.954743385E0
3.393401406E1,-1.142989063E1,-1.165656376E1,3.535737991E0
3.395599375E1,-9.275434494E0,-1.914401817E1,-3.943240643E0
3.397599531E1,-1.984534621E0,-1.663648415E1,-2.622273445E0
3.399799531E1,3.096919060E0,-1.575575256E1,5.633930206E0
3.401799531E1,4.410847187E0,-1.735453415E1,5.325183868E-1
3.403799531E1,7.049831867E0,-1.704433250E1,2.302340984E0
3.405999531E1,8.027844429E0,-1.350349903E1,2.344335318E0
3.408199531E1,3.704347134E0,-8.712691307E0,2.062241077E0
3.410399375E1,-3.492278457E-1,-6.739601135E0,2.119797468E0
3.412399375E1,-1.047760129E0,-7.058863163E0,1.393425371E-2
3.414399375E1,-8.310753107E-1,-7.108538151E0,2.109291703E-1
3.416399531E1,-6.889459491E-1,-6.191979885E0,2.005393028E0
3.418599531E1,7.987344265E-1,-3.736467838E0,2.335917234E0
3.420799531E1,2.748093605E0,-2.249065161E0,1.118685961E0
3.422799531E1,3.788910389E0,-3.635375023E0,9.029875398E-1
3.424799531E1,5.420682907E0,-6.374351501E0,1.863340139E0
3.426799531E1,5.989315987E0,-1.040006733E1,3.351365328E0
3.428799531E1,2.652095556E0,-1.351447392E1,4.649338245E0
3.431000625E1,-4.769929886E0,-1.353570461E1,4.864873886E0
3.433199375E1,-1.336476994E1,-1.709279823E1,2.296202183E0
3.435199375E1,-1.483196449E1,-1.474108124E1,-5.594387531E0
3.437200000E1,-7.344912529E0,-1.078992939E1,-7.706388950E0
3.439399375E1,-1.709306717E0,-1.490463352E1,6.093674183E0
3.441399375E1,-9.702167511E-1,-9.621549606E0,1.470566511E0
3.443399375E1,1.782492757E0,-6.277482033E0,8.818514943E-1
3.445399375E1,4.343512535E0,-6.326371670E0,7.848863602E-1
3.447399375E1,5.116533756E0,-9.461884499E0,-1.296441078E0
3.449399375E1,3.249468088E0,-1.283030701E1,-5.714212418E0
3.451399375E1,8.826847076E-1,-1.207297230E1,-6.643249035E0
3.453399375E1,3.554048836E-1,-8.721751213E0,-2.485650539E0
3.455399375E1,-8.205791116E-1,-8.824193954E0,7.955932021E-1
3.457399375E1,-1.020313025E0,-1.002921486E1,5.118037224E0
3.459399375E1,-7.071226835E-1,-9.620945930E0,6.498888016E0
3.461399375E1,-7.056191564E-1,-9.248752594E0,1.881497860E0
3.463399375E1,-9.346963763E-1,-9.290029526E0,-1.511794686E0
3.465399531E1,-2.106715679E0,-9.548976898E0,-2.483064890E0
3.467599375E1,-3.022832870E0,-9.486976624E0,-1.277900338E0
3.469599531E1,-3.529695034E0,-9.105522156E0,-1.365077943E-1
3.471799531E1,-4.555170059E0,-9.140573502E0,2.897462845E-1
3.473799531E1,-5.897263527E0,-1.001302052E1,1.121156737E-1
3.475799531E1,-7.222770214E0,-1.086653423E1,-3.048010170E-1
3.477799531E1,-7.949439049E0,-1.115931606E1,7.895311117E-1
3.479799531E1,-6.621815681E0,-1.050245285E1,2.144840717E0
3.481799531E1,-5.484828472E0,-1.196563530E1,3.059741974E0
3.483799531E1,-6.940953732E0,-1.431946182E1,1.606059194E0
3.485799531E1,-7.223632336E0,-1.371564484E1,-7.029376030E-1
3.487799531E1,-2.911560059E0,-1.069760895E1,-9.233191013E-1
3.489799531E1,2.194477320E0,-1.143696785E1,5.042294025E0
3.491799531E1,5.954542637E0,-1.317811680E1,1.011525249E1
3.493799531E1,5.850232124E0,-1.185325241E1,7.526872158E0
3.495799531E1,3.662716866E0,-8.046624184E0,4.827725410E0
3.497999531E1,2.915591717E0,-5.729209900E0,-2.325928688E0
3.500199375E1,2.202876329E0,-4.647442341E0,-4.171398640E0
3.502199375E1,1.293357253E0,-5.937121868E0,-3.540545702E-2
3.504199375E1,-4.848737121E-1,-7.371105671E0,2.058974981E0
3.506199531E1,-2.175381422E0,-8.443084717E0,1.263085127E0
3.508399531E1,-4.696638584E0,-9.272110939E0,1.031278491E0
3.510599375E1,-3.567446709E0,-8.474831581E0,2.825033426E0
3.512599375E1,-4.755938053E-1,-6.656378746E0,-3.694157302E-1
3.514599375E1,1.841505051E0,-4.847932816E0,-2.489012182E-1
3.516599531E1,2.005900621E0,-3.508099318E0,1.009361935E1
3.518599531E1,-1.612447023E0,-5.128188610E0,4.631477833E0
3.520799531E1,-3.558492422E0,-8.674699783E0,-9.152199745E0
3.522799531E1,-6.614882469E0,-2.045602226E1,-6.998270512E0
3.524999531E1,-1.838309097E1,-3.403514862E1,2.827065659E1
3.526999531E1,-3.708599329E0,-1.489233685E1,-4.798363209E0
3.528999531E1,4.544788361E0,-8.127414703E0,-3.250224590E0
3.530999531E1,7.339415550E0,-5.624918461E0,5.966446400E-1
3.532999531E1,7.563264370E0,-5.265242100E0,-8.564347029E-1
3.535199531E1,4.300627708E0,-1.041072655E1,-3.940108776E0
3.537399531E1,3.456432343E0,-1.495973873E1,-7.436773300E0
3.539399688E1,1.478122711E0,-1.109125423E1,-3.101238251E0
3.541599375E1,-3.021453857E0,-9.739755630E0,6.987171173E0
3.543599375E1,-5.277893066E0,-8.977231026E0,1.022435284E1
3.545599375E1,5.399403721E-2,-7.719088554E0,6.126762033E-1
3.547599375E1,3.296949625E0,-7.905519962E0,-1.860486269E-1
3.549599375E1,3.182698488E0,-9.250850677E0,2.619256675E-1
3.551599375E1,1.142905593E0,-9.759675980E0,-1.933059335E0
3.553599375E1,-7.328650951E-1,-1.006622982E1,-3.450581074E0
3.555599531E1,-3.420069218E-1,-9.833378792E0,-4.697270393E0
3.557799531E1,-2.012565881E-1,-1.188701057E1,-6.561453819E0
3.559799531E1,-2.096544981E0,-1.425182152E1,-7.863142490E0
3.561799531E1,-4.140417576E0,-1.069055080E1,-5.712421417E0
3.563799688E1,-5.266036987E0,-7.925870419E0,1.962153673E0
3.565999531E1,-5.544166565E0,-1.056251812E1,1.070650578E1
3.567999531E1,-2.752929688E0,-1.220180988E1,9.896374702E0
3.570199531E1,1.353135705E0,-1.324056721E1,1.457514381E1
3.572399531E1,2.888997078E0,-1.594876385E1,2.044655800E1
3.574599375E1,5.234682560E0,-1.334529018E1,8.740062714E0
3.576599531E1,4.183551311E0,-9.784662247E0,4.210050106E0
3.578799531E1,1.537450910E0,-7.005395889E0,6.889937520E-1
3.580799531E1,-1.615109205E0,-5.720954418E0,1.742279768E0
3.582799531E1,-5.409918785E0,-5.751408577E0,2.013226748E0
3.584799531E1,-8.245333672E0,-5.118554115E0,3.176243603E-1
3.586800625E1,-7.295238018E0,-2.387000084E0,-4.783969402E0
3.588999531E1,-2.994581223E0,-3.995443821E0,-8.506186485E0
3.591199531E1,4.445074797E-1,-6.054428577E0,-5.102743149E0
3.593399375E1,1.426522851E0,-6.180478573E0,-2.025887251E0
3.595399531E1,2.091823578E0,-4.895184517E0,2.114597082E0
3.597599531E1,1.987963080E0,-7.917922020E0,3.107788801E0
3.599799531E1,2.506968498E0,-1.200645256E1,-1.577041507E0
3.601799531E1,6.936528683E0,-1.316692162E1,5.365769863E0
3.603999531E1,5.177470684E0,-1.318543339E1,1.322355986E0
3.605999531E1,3.618510246E0,-2.274702263E1,8.021150589E0
3.608000156E1,-2.408883095E0,-1.495605183E1,1.215573502E1
3.610199375E1,-3.029373884E0,-8.664463043E0,1.436607122E0
3.612199375E1,-4.510465145E0,-7.347403049E0,-5.857845545E-1
3.614199531E1,-1.203495312E1,-1.728859711E1,1.046066952E1
3.616399375E1,-7.838079929E0,-1.437257481E1,-8.549502492E-1
3.618399375E1,-1.368927836E0,-9.755021095E0,-2.110172749E0
3.620399375E1,1.999541521E0,-8.063594818E0,-5.991633534E-1
3.622399531E1,3.465003729E0,-7.942486286E0,-1.876766831E-1
3.624399531E1,4.320949554E0,-8.252420425E0,5.273181200E-1
3.626599531E1,3.149993658E0,-6.818667412E0,5.868092775E-1
3.628799531E1,-5.865793824E-1,-7.546609879E0,-1.055948257E0
3.630799531E1,-4.366688251E0,-8.473797798E0,-9.500192478E-3
3.632799531E1,-8.427053452E0,-9.328269958E0,4.614364147E0
3.634799531E1,-8.787160873E0,-8.351589203E0,1.679063201E0
3.636800312E1,-5.802280903E0,-8.020077705E0,-2.337727308E0
3.638999531E1,-3.070429802E0,-9.356100082E0,-7.357668877E-1
3.640999531E1,-2.684953511E-1,-9.627640724E0,-1.320354342E0
3.643199375E1,1.033615232E0,-1.052223873E1,-2.629273891E0
3.645199375E1,9.053912759E-2,-1.132834721E1,-5.031778812E0
3.647201250E1,-1.487996340E0,-1.146948051E1,-5.585462093E0
3.649399375E1,-3.199228346E-1,-1.210161686E1,1.515280604E0
3.651399375E1,3.635547400E0,-1.025198174E1,4.743775368E0
3.653400469E1,6.763131142E0,-9.087489128E0,4.267683506E0
3.655599531E1,2.483285189E0,-1.097020340E1,5.301471233E0
3.657799531E1,-2.920542955E0,-1.208931065E1,7.581421852E0
3.659799531E1,-7.556455135E0,-1.196746445E1,1.072232723E1
3.661799531E1,-1.201339531E1,-1.036222935E1,1.054518414E1
3.663799531E1,-1.185181522E1,-9.930027962E0,6.220633984E0
3.665799688E1,-6.694953918E0,-8.589610100E0,4.261382103E0
3.668002969E1,-3.772457600E0,-5.942542553E0,1.687059760E0
3.670199531E1,-1.779303670E0,-3.723615646E0,-4.501626015E0
3.672399531E1,1.522942185E0,-3.222921133E0,-5.276935577E0
3.674599375E1,3.068274975E0,-5.967739105E0,-8.720927835E-1
3.676599531E1,4.583919525E0,-1.329398727E1,-2.313794851E0
3.678799531E1,1.641616058E1,-1.602101135E1,1.359590530E1
3.680799531E1,-2.178081751E0,-1.385210419E1,2.375486755E1
3.682799531E1,-2.425326347E0,-1.242469978E1,3.167548180E0
3.684799531E1,-2.296661854E0,-1.154765606E1,-5.259285450E0
3.686799531E1,-3.637271002E-2,-1.065231037E1,-2.668787956E0
3.688799531E1,7.721319675E0,-8.170001984E0,3.423986197E0
3.690799531E1,9.702751160E0,-6.312322140E0,7.669154644E0
3.692799531E1,6.422264099E0,-6.288907051E0,5.843709946E0
3.694999375E1,5.411757827E-1,-7.988445282E0,1.083079338E0
3.696999531E1,-3.230984926E0,-9.762663841E0,-3.514304876E0
3.699199375E1,-6.231187344E0,-1.036946964E1,-2.120132685E0
3.701199375E1,-1.008329487E1,-1.139288616E1,7.284943104E0
3.703199375E1,-1.428456306E1,-1.324267483E1,1.201406574E1
3.705199375E1,-8.643518448E0,-1.189338875E1,1.416246891E0
3.707199844E1,-2.038605452E0,-1.041094589E1,-9.081207514E-1
3.709399375E1,2.217279673E0,-8.519517899E0,-8.241704106E-1
3.711399375E1,4.509181976E0,-6.054284573E0,2.300253361E-1
3.713399531E1,8.127088547E0,-5.145733356E0,3.604346275E0
3.715399531E1,1.483366013E1,-5.205885410E0,1.300233459E1
3.717599375E1,8.322637558E0,-9.158989906E0,9.527093887E0
3.719599375E1,3.336166859E0,-1.099029636E1,2.929056883E0
3.721599375E1,1.303278923E0,-1.060806656E1,-1.623728395E0
3.723599375E1,1.069049358E0,-9.486899376E0,-1.965419292E0
3.725599531E1,3.022631884E0,-8.971620560E0,1.704432249E0
3.727799531E1,4.494663715E0,-9.389753342E0,5.207790852E0
3.729799531E1,3.548293114E0,-9.022702217E0,2.510176659E0
3.731799531E1,1.779361129E0,-8.266048431E0,-8.962071538E-1
3.733799531E1,3.958094120E-1,-8.462765694E0,-3.097666025E0
3.735799531E1,-3.434338570E-1,-9.217082977E0,-2.885549307E0
3.737799531E1,-2.019432545E0,-1.143954372E1,9.390729666E-1
3.739799531E1,-7.622687817E0,-1.724057961E1,2.630337000E0
3.741999375E1,-1.074123192E1,-1.652427292E1,-2.949761629E0
3.743999375E1,-6.030361652E0,-9.871332169E0,-5.857423782E0
3.745999531E1,-3.268880129E0,-4.486159325E0,2.573048592E0
3.748199531E1,1.798553109E0,-8.935773849E0,6.278544903E0
3.750399375E1,6.315434933E0,-8.094623566E0,4.565254211E0
3.752399375E1,6.695413589E0,-1.036944008E1,-1.797288895E0
3.754399375E1,5.581343651E0,-1.142485237E1,-5.965125084E0
3.756399375E1,2.942847490E0,-1.027686119E1,-6.966877937E0
3.758399531E1,1.043575048E0,-1.007596874E1,-5.737752438E0
3.760599375E1,1.374367476E-1,-9.991089821E0,-3.474963427E0
3.762599531E1,-2.316888094E0,-1.034018326E1,-2.041459322E0
3.764799531E1,-4.357275009E0,-1.039929199E1,-2.187629938E0
3.766999688E1,-4.762881279E0,-9.192173958E0,1.028165966E-1
3.769199375E1,-5.209304333E0,-9.845225334E0,1.518010020E0
3.771199531E1,-1.821795940E0,-9.473712921E0,1.196028233E0
3.773399375E1,2.120975405E-1,-9.618015289E0,-9.499809742E-1
3.775399375E1,1.963245450E-3,-9.981292725E0,-2.533783674E0
3.777399375E1,-1.858867764E0,-9.948080063E0,-1.648139715E0
3.779399375E1,-3.766759396E0,-9.972223282E0,4.948815107E-1
3.781399375E1,-4.079221725E0,-1.003841877E1,1.751052141E0
3.783399375E1,-3.170488119E0,-9.557145119E0,1.170209169E0
3.785399375E1,-2.876901627E0,-9.182884216E0,5.022268891E-1
3.787399688E1,-3.152847767E0,-9.316058159E0,7.503715158E-1
3.789599531E1,-3.718568802E0,-9.861075401E0,9.255983829E-1
3.791799531E1,-3.018916130E0,-1.053984070E1,7.408235073E-1
3.793799531E1,-6.883138418E-1,-1.127871132E1,2.044370413E0
3.795799531E1,1.990951061E0,-1.165116215E1,5.924480915E0
3.797799531E1,2.597383261E0,-1.399288273E1,9.930516243E0
3.799799531E1,1.670951605E0,-1.726926231E1,7.878350735E0
3.801799531E1,-5.960603952E-1,-1.577845001E1,3.687271833E0
3.803799531E1,-1.929602027E0,-1.293769169E1,2.884725630E-1
3.805999531E1,4.168305099E-1,-1.007191753E1,-8.888809085E-1
3.808199531E1,4.820782661E0,-9.262342453E0,-3.072709084E0
3.810399375E1,5.251125813E0,-1.048425674E1,1.158793643E-2
3.812399375E1,1.610129356E0,-1.051503754E1,3.507036209E0
3.814399375E1,-8.637992740E-1,-9.692772865E0,2.187495947E0
3.816399375E1,-4.517571330E-1,-8.161747932E0,-4.214369655E-1
3.818399375E1,-3.199132383E-1,-7.086492062E0,-1.264138579E0
3.820399375E1,-8.219773769E-1,-6.230402470E0,-9.289502501E-1
3.822399375E1,-1.289631963E0,-5.751619816E0,-7.111257911E-1
3.824399531E1,-1.153545499E0,-5.511231899E0,-3.935301602E-1
3.826599531E1,-3.379080594E-1,-5.380451202E0,4.680185392E-2
3.828799531E1,8.158194423E-1,-5.160069942E0,4.098969102E-1
3.830999375E1,1.804998279E0,-5.742569447E0,1.039332509E0
3.832999375E1,2.042905331E0,-6.120374680E0,2.001054764E0
3.834999531E1,1.007460952E0,-6.728463173E0,4.427137852E0
3.837199375E1,-4.309850693E0,-9.698355675E0,7.878867626E0
3.839199375E1,-1.137789726E1,-1.427046680E1,5.219359875E0
3.841199531E1,-1.505198288E1,-1.719774246E1,-3.625501156E0
3.843199531E1,-1.474883747E1,-1.328792477E1,2.446864605E0
3.845399375E1,-9.400622368E0,-8.305715561E0,3.665321827E0
3.847399531E1,-2.692174673E0,-8.746478081E0,2.270402431E0
3.849599375E1,3.912345886E0,-1.353169250E1,4.751551628E0
3.851599375E1,9.460601807E0,-2.248673439E1,4.409650326E0
3.853599375E1,3.841515779E0,-1.367571831E1,-2.136508942E0
3.855599531E1,3.768377781E0,-1.027472687E1,-4.064933300E0
3.857799531E1,3.869977951E0,-5.179079533E0,-3.280764818E0
3.859799531E1,3.637386322E0,-3.688334703E0,-4.681651115E0
3.861799531E1,3.368737459E0,-6.041404247E0,-6.069349289E0
3.863799531E1,3.243808031E0,-9.181093216E0,-1.009098530E0
3.865799531E1,1.479214430E0,-1.170209217E1,-1.912143588E0
3.867799531E1,-9.420608878E-1,-1.228760815E1,-3.316170454E0
3.869799531E1,-4.111572266E0,-1.243983078E1,1.097798944E0
3.871799531E1,-3.960277796E0,-9.891338348E0,3.593620062E0
3.873799531E1,-3.112941265E0,-6.987103939E0,2.747873306E0
3.875799531E1,-3.428515911E0,-9.363492966E0,-1.788861275E0
3.877799531E1,-3.325172663E0,-1.021407604E1,-3.402419090E0
3.879799531E1,-2.671746969E0,-1.016965961E1,-2.029382706E0
3.881799531E1,-1.224701166E0,-9.544054031E0,-3.089382052E-1
3.883799531E1,-3.699520603E-2,-8.550776482E0,-1.111963019E-1
3.885799531E1,9.361137152E-1,-8.039394379E0,-4.617649019E-1
3.887799531E1,1.047549486E0,-8.832899094E0,-1.298605442E0
3.889999531E1,1.180638313E0,-9.209804535E0,-5.680770278E-1
3.892199531E1,2.524063289E-1,-9.170558929E0,4.259572029E-1
3.894399531E1,-1.304629326E0,-1.008522987E1,-3.481360674E-1
3.896599375E1,-3.466334820E0,-1.079182625E1,-1.628976583E0
3.898599375E1,-5.157435894E0,-1.187252998E1,-1.388167739E0
3.900599375E1,-5.070172310E0,-1.178857994E1,-2.229384929E-1
3.902599375E1,-3.297284842E0,-1.060160160E1,1.401316643E0
3.904599531E1,-1.853878260E0,-1.125735474E1,3.494519234E0
3.906799531E1,-5.867900848E-1,-1.262213612E1,5.773722649E0
3.908799531E1,1.123934016E-1,-1.287346935E1,7.726318836E0
3.910999531E1,-1.331233621E0,-1.385816574E1,3.572962999E0
3.913199375E1,-2.987283707E0,-1.580151081E1,-6.864559054E-1
3.915199375E1,-1.455521345E0,-1.573632145E1,-2.116790295E0
3.917199375E1,4.031165242E-1,-1.667341232E1,-2.356957436E0
3.919199375E1,3.547862053E0,-1.784024048E1,-5.900366306E-1
3.921199531E1,4.308021069E0,-1.546699333E1,-7.866485119E-1
3.923399375E1,2.100519180E0,-9.229322433E0,-1.394478977E-1
3.925399375E1,-5.223190412E-2,-7.014771461E0,2.414715290E0
3.927399375E1,3.646848202E-1,-6.445497513E0,2.150711536E0
3.929399375E1,1.612035155E0,-6.357936382E0,2.468824148E0
3.931399375E1,2.267184496E0,-6.786297798E0,2.537260056E0
3.933399375E1,2.902586460E0,-6.442356586E0,2.647105932E0
3.935399375E1,3.486838579E0,-5.919931412E0,1.754461408E0
3.937399531E1,3.317923069E0,-5.026329517E0,4.232852757E-1
3.939599375E1,3.195598364E0,-4.452410698E0,-5.778453946E-1
3.941599531E1,2.914107323E0,-4.303711414E0,-1.697268844E0
3.943799531E1,2.538974285E0,-4.770657539E0,-2.245560169E0
3.945799531E1,1.406909585E0,-5.668579102E0,-1.190904617E0
3.947799531E1,-3.474082351E-1,-6.387625217E0,7.901727557E-1
3.949799531E1,-2.543676615E0,-7.593277931E0,3.221379042E0
3.951799531E1,-7.278420925E0,-1.071332550E1,6.529763699E0
3.953799531E1,-1.239107609E1,-1.477363205E1,1.131090832E1
3.955999375E1,-1.233420944E1,-1.873777962E1,-6.926521063E-1
3.957999375E1,-1.425294113E1,-1.785875130E1,3.426734686E0
3.959999531E1,-1.031414413E1,-1.145428181E1,3.259083331E-1
3.962000156E1,-3.570693254E0,-9.082854271E0,1.680538058E0
3.964199375E1,2.046257257E0,-1.211945915E1,3.538237572E0
3.966199531E1,1.147439384E1,-2.076979446E1,9.033169746E0
3.968201875E1,4.995942593E0,-9.506263733E0,-5.579160452E-1
3.970399375E1,4.414323807E0,-6.948490620E0,-3.635403872E0
3.972399375E1,4.616873264E0,-4.927190304E0,-4.883568287E0
3.974399531E1,3.075342417E0,-4.673175335E0,-5.577177525E0
3.976599375E1,2.167518854E0,-6.741200447E0,-6.471756935E0
3.978599375E1,1.755390406E0,-9.663285255E0,-5.305656433E0
3.980599375E1,9.850512147E-1,-1.157215309E1,-4.029335976E0
3.982599531E1,-7.922413349E-1,-1.185352039E1,-1.556508780E0
3.984799531E1,-3.780233860E0,-1.193054676E1,5.166438580E0
3.986799531E1,-3.691418409E0,-9.933830261E0,8.070020676E0
3.988799531E1,-2.193462133E0,-8.069465637E0,2.033069849E0
3.990999531E1,-1.297973394E0,-9.453601837E0,-5.014722824E0
3.993199375E1,-1.019853354E0,-9.464509010E0,-4.138856411E0
3.995199375E1,-6.020363569E-1,-8.773887634E0,-2.205960035E0
3.997199375E1,-8.295047283E-1,-9.070548058E0,-1.144648671E0
3.999199375E1,-5.142266154E-1,-9.461579323E0,-1.009108186E0
4.001199375E1,-1.857996285E-1,-9.779155731E0,-1.454477549E0
4.003199375E1,3.454450071E-1,-9.651093483E0,-9.973095059E-1
4.005199375E1,1.080206275E0,-9.370072365E0,-1.767016649E-1
4.007201406E1,1.298385143E0,-1.004998684E1,3.187257051E-1
4.009399375E1,-2.285888046E-1,-1.144913006E1,6.161717698E-2
4.011399375E1,-3.024413109E0,-1.208218575E1,-1.226176023E0
4.013399375E1,-4.981691837E0,-1.174870205E1,-1.881382823E0
4.015399531E1,-4.778184891E0,-1.072263336E1,2.125859559E-1
4.017599375E1,-3.147226095E0,-1.202760696E1,3.370221853E0
4.019599375E1,-1.561057806E0,-1.228879547E1,4.510637760E0
4.021599375E1,-7.402967811E-1,-1.355387306E1,5.884468555E0
4.023599375E1,-9.252919555E-1,-1.301465988E1,6.543860912E0
4.025599531E1,-2.372749805E0,-1.172174358E1,2.072507143E0
4.027799531E1,-2.973684788E0,-1.168295670E1,-1.856847107E-1
4.029799531E1,-2.446194172E0,-1.288463593E1,-2.493810177E0
4.031799531E1,-1.214559317E0,-1.525363159E1,-2.511689901E0
4.033799531E1,9.579967260E-1,-1.688360405E1,2.996582985E-1
4.035799531E1,5.126636982E0,-1.520538425E1,2.191068172E0
4.037799531E1,6.112597942E0,-1.106917000E1,7.497299314E-1
4.039799531E1,3.854798794E0,-9.192786217E0,1.878165007E0
4.041799531E1,1.023655295E0,-8.367419243E0,1.849003673E0
4.043799531E1,7.191606760E-1,-7.277874947E0,-7.530722022E-1
4.045799531E1,1.296144128E0,-7.102916718E0,6.587119102E-1
4.047799531E1,9.251961708E-1,-6.665428638E0,1.135407090E0
4.049799531E1,9.719501436E-2,-6.090064049E0,9.193734825E-2
4.051799531E1,-1.927619576E-1,-5.126981735E0,-6.905931234E-1
4.053799531E1,4.705468118E-1,-4.885981560E0,-8.047486544E-1
4.055799531E1,2.039400101E0,-4.121675968E0,-6.968659163E-1
4.057799531E1,3.140799999E0,-3.736812592E0,-7.101489305E-1
4.059799531E1,3.016071558E0,-4.579265118E0,-3.581342697E-1
4.061799531E1,2.136614323E0,-6.180095196E0,7.555047274E-1
4.063799531E1,-2.238358498E0,-9.385979652E0,6.226609707E0
4.065799531E1,-8.697176933E0,-1.361119938E1,1.230180073E1
4.067799531E1,-1.012089348E1,-1.820135307E1,4.074452400E0
4.069799531E1,-9.030010223E0,-1.661189079E1,-2.410606623E0
4.071799688E1,-1.182808399E1,-1.322343445E1,9.427743912E0
4.073999531E1,-5.386456013E0,-1.165052986E1,3.760208845E0
4.075999531E1,1.121290922E0,-1.326381016E1,-1.282477975E0
4.078199531E1,9.561264038E0,-1.838283348E1,6.560217857E0
4.080399531E1,3.409046412E0,-6.762423038E0,-5.546838284E0
4.082599531E1,6.587502360E-1,-5.352113247E0,-7.529113293E0
4.084799531E1,4.356680810E-1,-5.255904675E0,-5.813054562E0
4.086799531E1,7.127442360E-1,-7.227980137E0,-3.069759369E0
4.088999531E1,2.073187083E-1,-9.751305580E0,-1.572205186E0
4.091199531E1,2.864422798E-1,-1.078882790E1,-1.981326461E0
4.093399375E1,5.400457382E-1,-1.048690033E1,-1.903246760E0
4.095399375E1,1.026221871E0,-9.676653862E0,9.937947989E-1
4.097399375E1,5.351519585E-1,-9.158349037E0,4.626210213E0
4.099399375E1,-2.021606445E0,-8.955463409E0,5.257236004E0
4.101399531E1,-1.845278263E0,-8.920230865E0,-9.787305593E-1
4.103599375E1,-1.320488453E0,-9.680015564E0,-2.906197071E0
4.105599531E1,-6.251165271E-1,-9.330701828E0,-2.400264025E0
4.107799531E1,-2.983367145E-1,-9.231169701E0,-1.506968021E0
4.109999531E1,-2.282153070E-2,-9.289262772E0,-1.184449792E0
4.112199375E1,2.925810218E-1,-9.550154686E0,-1.332488179E0
4.114199531E1,3.971022964E-1,-9.988044739E0,-1.370709181E0
4.116199531E1,4.570530951E-1,-1.064640236E1,-7.330949903E-1
4.118199531E1,-1.148670912E0,-1.192028999E1,4.201345146E-2
4.120199531E1,-3.721585512E0,-1.283552647E1,1.125715375E0
4.122399375E1,-4.848756313E0,-1.234074020E1,2.634570122E0
4.124399375E1,-4.191184044E0,-1.115509415E1,3.980542183E0
4.126399375E1,-4.578517914E0,-1.301552200E1,3.504967451E0
4.128399375E1,-5.806704998E0,-1.618354797E1,2.889351368E0
4.130399531E1,-5.138062000E0,-1.397201538E1,2.340092659E0
4.132599531E1,-3.154073477E0,-1.280864334E1,1.769286394E0
4.134799531E1,6.198109314E-2,-1.367415714E1,6.420387030E-1
4.136799531E1,2.523526907E0,-1.481412315E1,3.829764947E-2
4.138799531E1,4.553589821E0,-1.562309456E1,6.736325622E-1
4.140799531E1,5.766683578E0,-1.453817654E1,-2.788861990E-1
4.142799531E1,5.170393467E0,-1.154191017E1,-1.680432796E0
4.144799531E1,2.516181469E0,-7.781787395E0,-1.443014026E0
4.146799531E1,-6.004657745E-1,-7.037382126E0,6.808534861E-1
4.148799531E1,-1.093680859E0,-6.667430401E0,1.609066367E0
4.150799531E1,2.694147229E-1,-6.110337734E0,1.256678224E0
4.152799531E1,8.976724148E-1,-5.608944416E0,7.092774510E-1
4.154799531E1,1.056704879E0,-5.807289600E0,-1.124891713E-1
4.156799531E1,1.263994932E0,-6.086405277E0,-1.055555701E0
4.158799531E1,1.602659464E0,-6.232758522E0,-1.105326295E0
4.160799531E1,2.728336334E0,-5.941345692E0,-8.514260054E-1
4.162799531E1,3.696848631E0,-5.268125057E0,-9.651218653E-1
4.164799531E1,3.831144094E0,-5.062644958E0,-5.282279253E-1
4.166799531E1,2.271302462E0,-5.999304295E0,9.254642725E-1
4.168799531E1,-3.586293936E0,-9.590147018E0,6.236052513E0
4.170999375E1,-1.103837109E1,-1.405565929E1,1.122737885E1
4.172999375E1,-1.153584766E1,-1.858992195E1,8.754302979E0
4.174999531E1,-8.236331940E0,-1.804703331E1,8.473309517E0
4.177199531E1,-2.749702454E0,-1.240602493E1,1.198295116E1
4.179399375E1,2.063112259E0,-9.851489067E0,2.314493895E0
4.181399375E1,5.597739220E0,-9.373519897E0,-2.861492395E0
4.183399375E1,6.477809429E0,-1.766906357E1,-5.917460918E0
4.185399375E1,6.414056778E0,-1.207959938E1,1.873596907E0
4.187403125E1,3.987226725E0,-6.057464123E0,-4.115441322E0
4.189599375E1,1.738650203E0,-4.133493423E0,-7.121878624E0
4.191599375E1,2.023579180E-2,-4.090407372E0,-7.037104607E0
4.193599375E1,-8.098147511E-1,-6.928810120E0,-5.272549152E0
4.195599375E1,-7.304230332E-1,-1.053713131E1,-3.221101522E0
4.197599531E1,-1.404122710E0,-1.313363266E1,-2.144773722E0
4.199799531E1,-9.667211771E-1,-1.343338680E1,1.445044398E0
4.201799531E1,1.110459447E0,-1.032898808E1,6.925755501E0
4.203799531E1,-2.080657035E-1,-9.358101845E0,1.037564659E1
4.205999531E1,-1.536244273E0,-9.190468788E0,1.053640321E-1
4.207999531E1,-1.106073260E0,-8.971811295E0,-4.183484554E0
4.209999531E1,-1.106686115E0,-8.992870331E0,-3.810046434E0
4.211999531E1,-8.713936806E-1,-9.390375137E0,-2.652986050E0
4.214199531E1,-3.654700816E-1,-9.743165016E0,-1.887808800E0
4.216199531E1,2.465165854E-1,-9.365130424E0,-1.751435161E0
4.218199531E1,5.378525853E-1,-9.095476151E0,-1.952672601E0
4.220199531E1,6.878254414E-1,-9.679010391E0,-1.365652680E0
4.222399375E1,-3.419494629E-1,-1.156205940E1,-4.103853106E-1
4.224399375E1,-1.636542201E0,-1.187646580E1,8.639811873E-1
