"Time (s)","Gyroscope x (rad/s)","Gyroscope y (rad/s)","Gyroscope z (rad/s)"
3.475312000E-3,-4.381299913E-1,-1.953896135E-1,1.837133616E-1
2.547375000E-2,-2.793399394E-1,-2.680127621E-1,2.120749503E-1
4.547843700E-2,-1.785995364E-1,-4.131543338E-1,2.205398083E-1
6.747531200E-2,-2.977880836E-1,-3.660478890E-1,2.556034625E-1
8.748000000E-2,-3.458195329E-1,-2.760587335E-1,3.127455413E-1
1.094753120E-1,-1.790184230E-1,-1.254717261E-1,3.595901728E-1
1.294753120E-1,1.239183708E-3,7.017968595E-2,4.517435730E-1
1.514753120E-1,9.840166569E-2,8.909905702E-2,5.925741792E-1
1.714753120E-1,-1.481435448E-1,6.274458766E-2,7.000340819E-1
1.934753120E-1,-6.082298160E-1,-1.494525373E-1,8.348258734E-1
2.154753120E-1,-7.885397673E-1,-3.200933933E-1,9.995325804E-1
2.374846870E-1,-5.462008119E-1,-2.717128694E-1,1.044841409E0
2.594753120E-1,-1.909215599E-1,1.107585952E-1,1.193107128E0
2.794753120E-1,-1.383173466E-1,5.442983508E-1,1.357656717E0
2.994753120E-1,-3.838153481E-1,7.364242077E-1,1.484158158E0
3.194753120E-1,-5.940751433E-1,7.242767215E-1,1.506638050E0
3.414737500E-1,-6.110921502E-1,6.345319152E-1,1.396088839E0
3.614737500E-1,-6.990916133E-1,4.858822227E-1,1.284475088E0
3.814753120E-1,-1.038977027E0,2.352703735E-2,1.098248482E0
4.014753120E-1,-1.232045412E0,4.066617228E-3,1.069398165E0
4.214753120E-1,-1.321999669E0,1.435882300E-1,9.347983599E-1
4.414753120E-1,-1.385739088E0,1.356993467E-1,5.001590252E-1
4.614878120E-1,-1.181081772E0,3.114365637E-1,4.991641734E-3
4.834753120E-1,-6.934367418E-1,1.000736833E0,3.559598923E-1
5.034784370E-1,-1.995260417E-1,8.057661653E-1,1.219618678E0
5.254737500E-1,-6.032730341E-1,-4.388281405E-1,4.462806880E-1
5.454831250E-1,-9.064192772E-1,-9.950122237E-2,8.995077610E-1
5.674737500E-1,-8.112465143E-1,-1.090621352E0,7.631976008E-1
5.874737500E-1,-1.036743045E0,-2.097519159E0,5.892929435E-1
6.074737500E-1,-5.191481709E-1,-1.900663495E0,7.288146019E-1
6.274737500E-1,-3.816685975E-1,-2.111691236E0,4.791975915E-1
6.474737500E-1,-4.068188071E-1,-2.287620544E0,6.308317780E-1
6.674753120E-1,-4.055970609E-1,-2.147941828E0,7.673339844E-1
6.894737500E-1,-5.746322274E-1,-1.187871099E0,7.874751091E-1
7.094737500E-1,-7.668278813E-1,-1.067670226E0,5.270719528E-1
7.294753120E-1,-1.250406265E0,6.853733659E-1,4.448844120E-2
7.494753120E-1,-1.239044189E0,1.748767495E0,-5.870589614E-1
7.694753120E-1,-8.590510488E-1,2.226708412E0,-1.137762666E0
7.914737500E-1,1.577428579E-1,2.365828753E0,-1.389945269E0
8.114753120E-1,5.731137395E-1,2.378761530E0,-1.367971659E0
8.334737500E-1,7.651000023E-1,1.701102614E0,-1.305314302E0
8.534737500E-1,1.064197063E0,7.624994516E-1,-1.344217658E0
8.734753120E-1,1.609594941E0,2.216393650E-1,-1.505014896E0
8.934753120E-1,1.920036674E0,-4.024205506E-1,-1.688902736E0
9.154737500E-1,1.859002590E0,-8.629955053E-1,-1.686930537E0
9.354737500E-1,1.366034269E0,-5.843536854E-1,-1.493792415E0
9.554737500E-1,8.893674016E-1,9.044296294E-2,-1.325211048E0
9.754737500E-1,7.784342766E-1,2.727077007E-1,-1.234523773E0
9.954753120E-1,8.279492855E-1,-6.101670861E-2,-1.180523276E0
1.017473750E0,8.166046739E-1,-3.544065654E-1,-1.268714786E0
1.037475312E0,7.075215578E-1,-5.037543774E-1,-1.212410450E0
1.059475312E0,5.061105490E-1,-5.076988339E-1,-7.447843552E-1
1.079475312E0,2.818008661E-1,-2.593035698E-1,-3.002489805E-1
1.099475312E0,-8.028514683E-2,-4.030488729E-1,-1.430297345E-1
1.119475312E0,-2.967408895E-1,-6.971368790E-1,-3.710569814E-2
1.139475312E0,-1.423665136E-1,-9.889908433E-1,-1.886700839E-2
1.159475312E0,1.190314516E-1,-1.048279643E0,-2.533869147E-1
1.179475312E0,6.012659147E-2,-1.003058195E0,-2.625847757E-1
1.199475312E0,-1.182111502E-1,-1.109977007E0,1.176875532E-1
1.219475312E0,-7.059856504E-2,-8.782845736E-1,1.688431501E-1
1.239476875E0,6.637486815E-2,-6.841865182E-1,3.293261826E-1
1.261473750E0,3.206344247E-1,-9.458986521E-1,4.135383070E-1
1.281478437E0,5.886471868E-1,-1.257265329E0,3.400425017E-1
1.303475312E0,6.095038652E-1,-1.506114364E0,-2.558652684E-2
1.323475312E0,2.399304062E-1,-1.407974601E0,-2.393544465E-1
1.345473750E0,7.225662936E-3,-9.826378226E-1,4.572762549E-2
1.365473750E0,-1.103222594E-1,-1.140153766E0,3.219259679E-1
1.385473750E0,3.494847417E-1,-1.504997373E0,9.058433175E-1
1.405473750E0,1.059816241E0,-2.204385757E0,1.559521437E0
1.425475312E0,1.333832979E0,-3.143739462E0,1.818772674E0
1.447473750E0,1.135825396E0,-4.611002922E0,2.382234812E0
1.467473750E0,9.003804326E-1,-6.039572239E0,2.877454519E0
1.487473750E0,8.699070215E-1,-7.218385220E0,3.389028072E0
1.507473750E0,5.810899138E-1,-7.930531979E0,4.043194771E0
1.527475312E0,1.880068630E-1,-8.278532982E0,4.764556885E0
1.549475312E0,1.965938807E-1,-8.089653015E0,5.413226128E0
1.569475312E0,4.445179105E-1,-7.581657887E0,5.694869518E0
1.589475312E0,9.055466056E-1,-6.383070469E0,5.483510494E0
1.609475312E0,1.093448758E0,-4.038081169E0,5.225201607E0
1.629476875E0,2.648886144E-1,-5.194798112E-1,5.535364151E0
1.651475312E0,-1.218554020E0,3.262037754E0,7.350471497E0
1.671475312E0,-2.456743002E0,4.873046398E0,8.273698807E0
1.693475312E0,-2.476412773E0,4.819255352E0,7.123072624E0
1.715473750E0,-5.412964225E-1,3.562199593E0,3.573142767E0
1.735473750E0,1.046918273E0,1.732291579E0,1.151672959E0
1.755473750E0,1.325455427E0,-3.868522346E-1,1.043287992E0
1.775473750E0,1.741506934E0,3.354522958E-2,1.329207897E0
1.795473750E0,1.024647951E0,3.413811684E0,1.013774514E0
1.815473750E0,1.863994241E0,2.773764610E0,8.844979405E-1
1.835473750E0,2.332719803E0,1.799888253E0,4.192106426E-1
1.855475312E0,2.556767702E0,6.376909614E-1,-2.940705121E-1
1.877473750E0,2.682518721E0,-1.488678575E0,-1.003913403E0
1.897475312E0,1.962971807E0,-1.079590917E0,-1.952761650E0
1.919475312E0,1.581669688E0,-2.350050926E0,-2.652691126E0
1.939475312E0,1.693440557E0,-5.197101593E0,-2.784306288E0
1.959475312E0,2.463968515E0,-8.049946785E0,-2.936760902E0
1.981473750E0,3.444965839E0,-1.013634872E1,-3.549336433E0
2.001473750E0,3.337907314E0,-1.001843452E1,-3.777381182E0
2.021475312E0,9.261764288E-1,-7.268371105E0,-2.593454599E0
2.043475312E0,-5.358510017E-1,-3.114225864E0,-2.531617641E0
2.065475312E0,-1.874605775E0,-7.890633345E-1,-2.716116190E0
2.087475312E0,-3.119322300E0,-1.748889685E0,-1.854447246E0
2.109473750E0,-2.095023394E0,-2.191103697E0,-9.574701786E-1
2.129475312E0,-3.825412691E-1,-2.403492928E0,-2.015017509E0
2.149475312E0,2.327396572E-1,-1.402703643E0,-1.167433262E0
2.169475312E0,-3.947934881E-2,9.771226048E-1,2.877175212E-1
2.189475312E0,-9.271014333E-1,2.800084114E0,9.021955729E-1
2.209475312E0,-1.775610685E0,2.766922712E0,9.551314116E-1
2.231473750E0,-1.819627881E0,2.587694883E0,1.161952972E0
2.251475312E0,-1.544982910E0,3.663254023E0,1.959777832E0
2.271475312E0,-9.490053058E-1,4.713575840E0,3.407563448E0
2.293473750E0,-1.442392468E0,5.516339779E0,4.696349621E0
2.313473750E0,-1.555210590E0,5.908079147E0,3.269769669E0
2.333475312E0,-6.054372787E-1,5.107095242E0,2.190772295E0
2.355473750E0,-2.704736590E-1,4.616465569E0,1.234855294E0
2.375473750E0,1.231853366E-1,3.794049025E0,6.454750896E-1
2.395473750E0,1.731541157E-1,2.547971249E0,-2.302438319E-1
2.415473750E0,-9.845402092E-2,1.637712240E0,-7.937582731E-1
2.435475312E0,-1.627344936E-1,1.851654649E0,-7.451159358E-1
2.457475312E0,-3.318045437E-1,2.695975065E0,-6.144431829E-1
2.479475312E0,-1.131654024E0,3.587768555E0,-1.225395650E-1
2.499476875E0,-4.008323252E-1,2.187263966E0,2.020916790E-1
2.521475312E0,-2.591290474E-1,1.922165990E0,1.012744784E0
2.543475312E0,5.411567688E-1,3.147579193E0,2.848377228E-1
2.565473750E0,5.373868719E-2,4.397793293E0,-7.723081708E-1
2.585473750E0,-4.987452924E-1,4.901879311E0,-8.902052045E-1
2.605473750E0,-9.977872968E-1,4.622504711E0,-6.623699069E-1
2.625475312E0,-2.933898382E-2,4.964763641E0,-2.978753448E-1
2.647473750E0,7.078008056E-1,4.697396755E0,-4.824962616E-1
2.667475312E0,5.293234587E-1,5.734506130E0,-6.789680123E-1
2.689475312E0,6.454750896E-1,6.370521545E0,-8.983035088E-1
2.709475312E0,4.027696252E-1,7.134469509E0,-1.158881187E0
2.729475312E0,2.132268697E-1,8.560560226E0,-1.324984193E0
2.749475312E0,5.581737757E-1,9.231761932E0,-1.412844062E0
2.769475312E0,6.967703700E-1,8.521604538E0,-1.368495226E0
2.789475312E0,-4.925319180E-2,8.755548477E0,-1.479323626E0
2.811475312E0,-2.368935347E-1,7.835062027E0,-1.589872718E0
2.831475312E0,-6.383890510E-1,6.163996696E0,-2.250200748E0
2.851475312E0,3.873234689E-1,6.200875759E0,-3.529963255E0
2.871475312E0,1.098091364E0,6.732293606E0,-2.977252483E0
2.893486250E0,-1.022762898E-2,6.057933331E0,-2.151345253E0
2.915473750E0,-4.765796065E-1,4.186224461E0,-2.418101311E0
2.935473750E0,6.670648456E-1,1.107969880E0,-3.225560427E0
2.955473750E0,1.401726246E0,3.569198400E-2,-3.813788652E0
2.975473750E0,1.122770309E0,-6.203074455E-1,-4.113531590E0
2.995473750E0,9.842086434E-1,-1.688798070E0,-3.553752184E0
3.015473750E0,7.312580347E-1,-1.993515044E-1,-1.448780298E0
3.035473750E0,-3.874630928E-1,1.803623199E0,8.351400495E-2
3.055475312E0,-1.856489301E0,3.216851234E0,7.963238955E-1
3.075476875E0,-2.094220638E0,6.506761909E-1,9.812764525E-1
3.097475312E0,-1.773760676E0,6.330658197E-1,2.012364566E-1
3.119475312E0,-1.395984173E0,1.576870084E0,-2.416408360E-1
3.139476875E0,-1.070619822E0,-3.409500718E-1,-2.523222566E-1
3.161475312E0,-1.029377699E0,-1.709689617E0,-3.424685001E-1
3.181475312E0,-1.159230232E0,-2.608429432E0,-5.407727957E-1
3.203473750E0,-1.355719447E0,-2.485889912E0,-1.149962544E0
3.223473750E0,-1.097113937E-1,1.705727696E0,-2.098793268E0
3.243473750E0,1.795629621E0,5.988800526E0,-2.560590029E0
3.263475312E0,2.059924841E0,5.515275478E0,-3.227218390E0
3.283475312E0,1.908587337E0,3.836722374E0,-3.434458971E0
3.305473750E0,2.188747644E0,2.455503702E0,-2.989609480E0
3.325473750E0,2.376422882E0,-2.678033113E-1,-8.982685804E-1
3.345473750E0,3.158592224E0,-2.555354118E0,3.811729193E0
3.365473750E0,4.344002247E0,-4.260296345E0,6.462500572E0
3.385473750E0,4.511257172E0,-5.061070919E0,5.860379219E0
3.405473750E0,3.729000568E0,-4.953139782E0,4.031291485E0
3.425475312E0,9.551314116E-1,-2.081636667E0,1.918047071E0
3.445475312E0,-1.382614970E0,-3.539527580E-2,8.147895336E-1
3.467473750E0,-2.309279919E0,4.506091177E-1,-1.165530905E-1
3.487473750E0,-3.101118565E0,-1.051281571E0,-3.183655143E-1
3.507473750E0,-3.792897224E0,-2.258316517E0,-7.988371700E-2
3.527481562E0,-4.861265659E0,-2.662918568E0,-9.168214351E-2
3.549475312E0,-4.394093037E0,-4.067420006E0,2.068040669E-1
3.569475312E0,-3.108152151E0,-7.302841663E0,1.168445587E0
3.589475312E0,-2.866860390E0,-7.473115921E0,1.872232080E0
3.609475312E0,-2.917824030E0,-3.524482965E0,2.008088589E0
3.629475312E0,-2.442745447E0,-2.141519040E-1,1.424380660E0
3.649475312E0,-7.694982290E-1,-7.701614499E-1,1.228886321E-1
3.669475312E0,6.217560768E-1,-2.402410746E0,-6.546729803E-2
3.689475312E0,1.139176413E-1,-1.073010921E0,1.093239307E0
3.709475312E0,-1.126575112E0,1.092820406E0,1.579662561E0
3.729475312E0,-2.068529367E0,9.899681807E-1,1.192531109E0
3.751473750E0,-2.229012251E0,-1.424921751E0,5.321508646E-1
3.771473750E0,-1.711941123E0,-3.316334963E0,-1.122037292E0
3.791473750E0,-1.680752039E0,-4.658423424E0,-1.575316668E0
3.811475312E0,-1.598494649E0,-4.838907719E0,4.245164394E-1
3.833475312E0,-1.278855085E0,-3.626131058E0,1.615459323E0
3.855475312E0,-1.074337363E0,-1.943755746E0,1.296011686E0
3.877473750E0,-9.699143767E-1,3.874037504E0,1.504665852E0
3.897475312E0,2.949780822E-1,3.074030876E0,1.114008784E0
3.919486250E0,7.719241977E-1,-9.091594815E-1,7.001388073E-1
3.941475312E0,-4.010243118E-1,-2.164836645E0,4.311835766E-1
3.963473750E0,-7.319212556E-1,-2.296626329E0,-6.564183533E-2
3.983478437E0,-7.444353104E-1,-2.539104939E0,2.850122750E-2
4.005473750E0,-5.097582936E-1,-2.633544683E0,5.229879022E-1
4.025473750E0,-3.414038420E-1,-2.797204256E0,9.317440391E-1
4.045473750E0,-9.763371944E-2,-2.581167459E0,1.264543414E0
4.065473750E0,4.653571248E-1,-1.600833416E0,1.588790655E0
4.085473750E0,1.305523753E0,1.623156248E-3,2.027601242E0
4.105473750E0,1.936669707E0,1.648969650E0,2.493447065E0
4.125473750E0,1.816416502E0,2.407175541E0,2.563103199E0
4.145475312E0,6.842388511E-1,1.774284244E0,1.918099403E0
4.165475312E0,-6.890909076E-1,9.454274178E-1,7.926587462E-1
4.185475312E0,-1.965711951E0,-6.018767953E-1,3.314903975E-1
4.207473750E0,-3.661211967E0,-6.779067993E0,-5.048015714E-1
4.227473750E0,-5.749987364E-1,-4.974240780E0,-1.289815784E0
4.247473750E0,2.924159527E0,8.562410474E-1,-1.114881396E0
4.267473750E0,2.814640045E0,1.331354618E0,-7.883652300E-2
4.287476875E0,2.337397337E0,1.563588142E0,7.010464072E-1
4.309475312E0,1.502536535E0,3.952402830E0,4.568922818E-1
4.331473750E0,7.170161605E-1,4.801627636E0,-1.631533802E-1
4.351475312E0,-8.028514683E-2,4.401546001E0,-1.578161597E0
4.371475312E0,3.140196502E-1,1.425864220E0,-2.878379583E0
4.393473750E0,2.305196047E0,-5.244592190E0,-2.831831694E0
4.413475312E0,1.402075291E0,-5.576797962E0,-3.182590485E0
4.435473750E0,-1.735712528E0,-4.219333529E-1,-3.545130253E0
4.455473750E0,-2.507409811E0,2.424820900E0,-2.465504408E0
4.475473750E0,-2.394556761E0,-6.749013662E-1,-1.259569168E0
4.495475312E0,-1.851899028E0,-4.597267151E0,-4.170813262E-1
4.517473750E0,-2.824396610E0,-1.577376246E0,-3.253468275E-1
4.537475312E0,-3.776525974E0,2.060064554E0,-1.315000892E0
4.557475312E0,-3.735615492E0,2.065283060E0,-1.481068969E0
4.579475312E0,-2.702345610E0,-1.204800755E-1,-5.277875662E-1
4.599475312E0,-1.548438668E0,-5.074021220E-1,4.204323590E-1
4.619475312E0,-9.789551497E-1,1.497352839E0,9.098750353E-1
4.639475312E0,6.128200293E-1,1.980006218E0,1.368477702E0
4.659475312E0,3.605256796E0,-1.819383621E0,1.339871764E0
4.679475312E0,3.609620094E0,4.444655478E-1,7.811395526E-1
4.699475312E0,3.014113903E0,9.819222093E-1,7.014478445E-1
4.719475312E0,1.939008474E0,-1.418411613E0,1.232342124E0
4.739475312E0,7.144680023E-1,-4.790527344E0,1.152772546E0
4.761473750E0,5.177693963E-1,2.602757215E0,1.361356825E-1
4.781473750E0,1.036900133E-1,4.016718388E0,9.451132417E-1
4.801475312E0,-1.860520989E-2,2.060431004E0,2.711683035E0
4.823473750E0,1.445132587E-2,3.299126148E0,2.723010302E0
4.843473750E0,-9.827250838E-1,2.233829498E0,2.213409185E0
4.863473750E0,-1.120920300E0,-7.476990670E-2,1.535366178E0
4.883473750E0,-1.003686547E0,-2.769034624E0,3.433935344E-1
4.903475312E0,-1.254385591E0,-4.012878418E0,2.192133516E-1
4.925475312E0,-9.656208754E-1,-2.566593885E0,3.795742095E-1
4.947473750E0,-4.580616653E-1,-8.537801504E-1,3.854210675E-1
4.967475312E0,2.291617356E-2,1.483529806E-1,2.223723978E-1
4.989475312E0,8.747066855E-1,1.779712200E0,1.237787530E-1
5.009475312E0,1.244123101E0,3.180007458E0,-2.680825815E-2
5.029475312E0,9.112887383E-1,3.318726063E0,-3.388905823E-1
5.049475312E0,-1.827708781E-1,8.390495777E-1,-6.943966746E-1
5.069475312E0,-1.126330733E0,-3.466956854E0,-5.610186458E-1
5.089475312E0,1.139403343E0,-5.487803936E0,5.971818566E-1
5.111473750E0,3.052999735E0,-4.358907223E0,1.383086205E0
5.131473750E0,1.600344777E0,2.175570250E0,1.243372560E0
5.151473750E0,1.949358284E-1,5.473439693E0,2.098775864E0
5.171475312E0,1.745329201E-1,4.800056934E0,1.660977483E0
5.193475312E0,2.349946260E0,2.578147888E0,-6.363819242E-1
5.215475312E0,4.723192692E0,-2.279941082E0,-1.920368314E0
5.237473750E0,1.240614891E0,-2.008018732E0,-2.125898361E0
5.257475312E0,-7.409446239E-1,-4.308345318E-1,-2.228314161E0
5.279475312E0,-2.078687102E-1,7.696902156E-1,-2.924299240E0
5.299475312E0,8.908160329E-1,7.397054434E-1,-3.384961367E0
5.319475312E0,1.130327582E0,3.618242145E-1,-2.946307659E0
5.339475312E0,-1.320655704E0,-2.261946723E-2,-2.508875847E0
5.359475312E0,-2.467005491E0,-1.930543542E0,-3.185749531E0
5.379475312E0,-2.647175789E0,-3.504795551E0,-3.730414391E0
5.399475312E0,-3.398627281E0,-2.779262304E0,-3.334591150E0
5.419475312E0,-4.497032642E0,-2.855044603E0,-2.563190460E0
5.439475312E0,-2.439010382E0,3.114016533E0,-1.142771721E0
5.459475312E0,3.585551977E0,3.265074730E0,3.340630054E0
5.479475312E0,2.480252504E0,5.202844143E0,2.625376701E0
5.499475312E0,5.746322274E-1,2.450529575E0,6.828426123E-1
5.519475312E0,4.331209064E-1,-1.395809650E0,1.150154471E0
5.539475312E0,1.450333714E0,-2.270027637E0,6.195046306E-1
5.559475312E0,1.413908720E0,-2.509870768E0,6.583382189E-2
5.579475312E0,4.617094100E-1,-7.836179137E-1,1.212305725E-1
5.599475312E0,-4.746772051E-1,7.021808624E-1,-4.150392860E-2
5.619475312E0,-1.146279931E0,1.228153229E0,-3.423812389E-1
5.639475312E0,-1.112926602E0,1.930526137E0,-5.688726306E-1
5.659475312E0,3.022770643E0,4.874495029E0,4.405210912E-1
5.679475312E0,4.414339066E0,4.354596615E0,1.396158695E0
5.699475312E0,1.520897388E0,4.901530266E0,1.406264186E0
5.719475312E0,4.683067501E-1,3.558377266E0,1.075018048E0
5.739475312E0,-1.401150376E-1,1.327322870E-1,5.769709349E-1
5.759475312E0,-1.686686128E-1,-3.451632977E0,3.899938166E-1
5.779475312E0,7.783470154E-1,-5.212792397E0,-2.537202597E0
5.799475312E0,-2.028578758E0,4.921357155E0,-5.234888077E0
5.819475312E0,5.863608122E-1,4.245111942E0,5.897641778E-1
5.839475312E0,2.643667698E0,-3.436727822E-1,2.153300047E0
5.859475312E0,1.789747834E0,-1.580255985E0,2.386440992E0
5.879475312E0,1.034421682E0,-3.023259401E0,3.148032904E0
5.901473750E0,1.501838326E0,-5.770198345E0,3.447932720E0
5.921473750E0,1.447069883E0,-6.475415707E0,3.000884295E0
5.941475312E0,2.024232894E-1,-5.255465508E0,2.661347866E0
5.961483125E0,-1.894327998E0,-2.735821009E0,2.666967869E0
5.983473750E0,-4.019510746E0,2.722853184E0,1.871673584E0
6.003473750E0,-3.881420374E0,5.919929981E0,1.285871267E0
6.023473750E0,-2.939064741E0,5.906508446E0,7.503694296E-1
6.043475312E0,-1.519082189E0,1.341076136E0,1.695412844E-1
6.065473750E0,-1.432461500E0,-1.750938797E1,-1.397450209E0
6.085475312E0,-1.579226255E0,1.712691635E-1,-9.248848557E-1
6.107475312E0,-7.370874286E-1,7.578708172E0,1.252099156E0
6.129475312E0,3.778986931E-1,5.351353884E-1,2.252277613E0
6.151473750E0,5.414011478E-1,-2.007180929E0,1.332838178E0
6.171473750E0,-1.618269324E0,-4.881214619E0,2.026327327E-2
6.191473750E0,-3.745668650E0,-5.191534042E0,-7.418870926E-1
6.211473750E0,-3.969157934E0,-1.508627653E0,-6.507459879E-1
6.231475312E0,-2.258560658E0,-5.734977126E-1,9.436995536E-2
6.251476875E0,-1.065122128E0,-2.815844297E0,3.132517040E-1
6.273475312E0,-1.504107237E0,-5.162998199E0,2.698977292E-1
6.293475312E0,-2.722172499E0,-3.526507616E0,7.453603148E-1
6.315480000E0,-4.002249241E0,-4.408753872E0,8.361349106E-1
6.337473750E0,-3.571624279E0,-5.515990734E0,3.719471097E-1
6.357473750E0,-2.729223728E0,-5.464625835E0,1.362927556E-1
6.377473750E0,-2.335355282E0,-5.514542103E0,-1.445830762E-1
6.397473750E0,-2.524688482E0,-4.288169384E0,-5.134758353E-1
6.417475312E0,-2.908259630E0,-3.277815580E0,-8.392066360E-1
6.439475312E0,-2.754356384E0,-2.776033401E0,-1.048646212E0
6.459475312E0,-1.553936481E0,2.826735377E-1,-1.550393462E0
6.479475312E0,-5.031086206E-1,1.478258967E0,-8.581783772E-1
6.499475312E0,-2.153334856E0,-1.898447037E0,1.034177423E0
6.519475312E0,-2.492504716E-1,-5.113675117E0,3.660478890E-1
6.539475312E0,-1.186474785E-1,-6.108024120E0,-2.200860232E-1
6.559475312E0,-4.881860316E-1,-4.891704082E0,-3.835361004E-1
6.579475312E0,-1.257247925E0,-2.832651854E0,-1.227647185E0
6.599475312E0,-1.189843297E0,-2.805372477E0,-2.280272722E0
6.619475312E0,-1.105526447E0,-3.701319695E0,-3.067171812E0
6.639475312E0,-9.898983836E-1,-2.607522011E0,-2.583837748E0
6.661480000E0,-1.017998219E0,-1.148252130E0,-1.175444365E0
6.681483125E0,-1.189023018E0,-5.787512064E-1,3.982841223E-2
6.703475312E0,-1.466268539E0,-8.229227662E-1,8.065689802E-1
6.725473750E0,-1.608286023E0,1.299257994E0,5.567600206E-2
6.745475312E0,-1.479498148E0,5.439458370E0,-1.223440886E0
6.767473750E0,-8.688423634E-1,4.688722134E0,-1.269796848E0
6.787473750E0,-3.740589619E-1,2.169828176E0,-1.089574099E0
6.807473750E0,-1.213003788E-2,1.254472852E0,-1.805176616E0
6.827473750E0,3.610039055E-1,-5.651201606E-1,-2.440982580E0
6.847473750E0,5.219930410E-1,-4.352449894E0,-2.290430546E0
6.867473750E0,-1.762259007E-1,-2.571306229E0,-1.515521765E0
6.887475312E0,5.906194076E-2,1.316676378E0,-1.534493417E-1
6.909475312E0,1.477717876E0,1.450944543E0,1.060514450E0
6.929475312E0,2.179392576E0,2.527393818E0,3.459242582E0
6.949475312E0,1.663019538E0,5.439039230E0,6.146910191E0
6.969475312E0,1.769624233E0,6.672847271E0,7.146058559E0
6.989475312E0,1.801685929E0,2.860455036E0,4.610548973E0
7.009475312E0,-6.802595258E-1,1.069014147E-1,2.558495522E0
7.029475312E0,-1.649545550E0,-2.831430197E0,1.425602436E0
7.049475312E0,-1.063638568E0,-3.987483978E0,8.957553506E-1
7.069475312E0,4.635943472E-1,-2.506973505E0,8.613898158E-1
7.089475312E0,1.415845990E0,5.278050303E-1,9.473298192E-1
7.109475312E0,1.052014709E0,2.863509417E0,6.790028811E-1
7.129475312E0,1.016479731E-1,2.679935694E0,1.094845012E-1
7.149475312E0,-7.511722445E-1,8.792095780E-1,-2.659881860E-2
7.169475312E0,-1.172424912E0,-1.151306391E0,2.576629519E-1
7.189475312E0,-1.180715203E0,-3.292895317E0,5.952445269E-1
7.209475312E0,-8.386132717E-1,-4.274520874E0,9.206611514E-1
7.229475312E0,-6.539574265E-1,-1.967858672E0,9.226159453E-1
7.249475312E0,-9.556550384E-1,-2.091428041E-1,3.988251984E-1
7.269475312E0,-1.085420251E0,-2.766172290E-1,-2.302787453E-1
7.289475312E0,-1.530217409E0,-6.986553222E-2,-4.026125371E-1
7.309475312E0,-1.815945268E0,-3.619812965E0,-1.623156220E-1
7.329475312E0,-1.261803269E0,-1.215098262E0,1.349418759E0
7.349475312E0,-3.886499107E-1,1.103610039E1,4.321295738E0
7.369475312E0,5.883504748E-1,4.439419508E-1,3.720343709E-1
7.389475312E0,1.269779444E0,-5.611059189E0,-1.214033604E0
7.409475312E0,4.946263134E-1,-5.417449474E0,-1.857903004E0
7.431473750E0,-1.165164351E0,-2.130820036E0,-2.946394920E0
7.451478437E0,-2.300605774E0,1.188848495E0,-3.073455095E0
7.473475312E0,-2.186600924E0,3.505354166E0,-1.521770000E0
7.495473750E0,-1.715780854E0,3.043382883E0,-3.894876838E-1
7.515475312E0,-1.169230938E0,-9.248499572E-2,-7.219380140E-1
7.537473750E0,-7.807730436E-1,-2.469379187E0,-1.577096939E0
7.557473750E0,-9.707346559E-1,-8.469733596E-1,-2.210738659E0
7.577473750E0,-6.110746861E-1,4.769461155E-1,-1.889004707E0
7.597475312E0,-3.948807418E-1,2.614503168E-2,-1.416334629E0
7.619475312E0,-5.192179680E-1,-5.652946830E-1,-1.266916990E0
7.639475312E0,-2.484930038E0,2.947302580E0,-1.841601610E0
7.659475312E0,-2.755595684E0,2.238803625E0,-1.421291471E0
7.679475312E0,-2.477442503E0,2.416408300E0,-8.354542255E-1
7.699475312E0,-1.912514329E0,4.655735493E0,-1.747947186E-1
7.719475312E0,-5.190783739E-1,6.217840195E0,7.344520092E-1
7.739475312E0,9.610306621E-1,7.657911301E0,1.354776978E0
7.759475312E0,1.332820654E0,7.147245407E0,1.384081006E0
7.779475312E0,1.058559656E0,4.616640091E0,1.191309333E0
7.799475312E0,9.397201538E-1,2.229012251E0,1.653175831E0
7.819475312E0,1.906615138E0,1.928658605E0,1.650156498E0
7.841473750E0,2.945539713E0,-2.794970274E-1,1.976567864E0
7.861473750E0,2.889462471E0,-7.302283049E-1,2.835863352E0
7.881475312E0,2.513326406E0,-6.611307263E-1,4.113758564E0
7.903475312E0,1.798020720E0,-3.061691523E0,5.666106701E0
7.925475312E0,8.623671532E-1,-2.042209804E-1,5.706179619E0
7.945475312E0,1.190716028E0,1.481383085E0,3.625607252E0
7.967473750E0,2.011596680E0,3.035494089E0,1.894258142E0
7.987473750E0,1.264770269E0,3.780959129E0,8.932245970E-1
8.007473750E0,8.082445264E-1,2.417368174E0,7.214493155E-1
8.027475312E0,4.190535545E-1,-1.443212777E-1,7.807905078E-1
8.047475312E0,8.005825430E-2,-2.451314926E0,7.027568221E-1
8.069475312E0,1.107062325E-1,-3.859045029E0,6.657558680E-1
8.089475312E0,2.937738299E-1,-3.921580315E0,6.393141150E-1
8.109475312E0,7.157595456E-2,-2.734127998E0,3.587873280E-1
8.129475312E0,-6.810798049E-1,-6.968750358E-1,-1.654397547E-1
8.151473750E0,-1.788735628E0,2.481334656E-1,-1.158916116E0
8.171475312E0,9.584999084E-1,-3.124610662E0,-3.300766647E-1
8.193475312E0,1.549101830E0,6.938033104E-1,1.401324868E0
8.215475312E0,1.977231145E0,-3.966452599E0,3.841993213E-1
8.237473750E0,1.173873544E0,-9.448863268E-1,-1.616942883E0
8.257475312E0,-9.070127010E-1,-5.071926862E-2,-2.647577286E0
8.279475312E0,-3.549127102E0,-1.255415320E0,-2.207492352E0
8.299475312E0,-3.583038807E0,-3.482001543E0,-8.314399719E-1
8.319475312E0,-1.864989042E0,-4.601542950E0,-6.194347739E-1
8.339475312E0,-6.282312870E-1,-4.758151531E0,-1.367343307E0
8.359475312E0,-6.178814769E-1,-4.802570343E0,-1.411395431E0
8.379475312E0,-4.527488708E0,1.348773003E0,7.314849496E-1
8.401475312E0,-4.807840824E0,6.378567696E0,-5.183627829E-2
8.423473750E0,9.689893723E-1,5.418549061E0,-2.145236492E0
8.443475312E0,1.685865879E0,2.180195570E0,-1.748366117E0
8.465473750E0,-1.209687665E-1,-4.452509582E-1,-1.615319729E0
8.485481562E0,-9.541366100E-1,-3.643479586E0,-1.581215978E0
8.507473750E0,-1.863749862E0,-4.824962616E0,-1.681275606E0
8.527475312E0,-2.974355221E0,-2.212815762E0,-1.731785536E0
8.549475312E0,-2.663494587E0,8.431162238E-1,-1.095543146E0
8.569475312E0,-2.966535985E-1,4.009666920E0,3.102322817E-1
8.589475312E0,1.918622971E0,2.313014984E0,1.625460029E0
8.609475312E0,3.241076469E0,2.554516315E0,2.503482819E0
8.629475312E0,3.328779221E0,4.097265244E0,2.941909552E0
8.649475312E0,2.531565189E0,4.999024391E0,3.171437740E0
8.669475312E0,1.734979391E0,4.737818241E0,3.445821047E0
8.689475312E0,1.783307552E0,1.081615448E0,3.413095951E0
8.709475312E0,9.248499870E-1,-2.105634928E0,3.189676523E0
8.729475312E0,7.631801367E-1,-2.646180868E0,2.534968615E0
8.749475312E0,9.413607717E-1,6.141464710E-1,1.573187470E0
8.769475312E0,1.374743462E0,3.539876699E0,6.419495344E-1
8.789475312E0,1.052765131E0,2.914664984E0,3.610213399E-1
8.809484687E0,6.183701381E-2,1.249149561E0,2.419549972E-1
8.831473750E0,-7.960272431E-1,5.590463877E-1,1.982170492E-1
8.851484687E0,-4.653745890E-1,4.728969634E-1,2.754827738E-1
8.873475312E0,-1.692969352E-1,-3.869220316E-1,2.498438805E-1
8.893486250E0,-4.411145151E-1,-1.176526427E0,9.283406287E-2
8.915473750E0,-9.668600559E-1,-8.360999823E-1,-1.234471351E-1
8.935473750E0,-1.139979243E0,-3.341781795E-1,-4.557229280E-1
8.955473750E0,-8.154178411E-2,7.864453644E-2,-6.298020482E-1
8.975473750E0,4.214795530E-1,-2.949606394E-3,-5.530424714E-1
8.995473750E0,2.172934823E-2,-1.579365849E0,-6.727545857E-1
9.015473750E0,6.618288159E-2,-3.693884611E0,4.328416660E-2
9.035473750E0,5.324999616E-2,2.202745199E0,1.967858672E-1
9.055473750E0,-1.450630426E0,3.745005369E0,-7.321656495E-2
9.075475312E0,-7.095112205E-1,9.116029143E-1,-6.567499638E-1
9.097475312E0,-2.620262802E-1,-2.605724096E0,-8.215264678E-1
9.119475312E0,-2.608743608E-1,-3.716678619E0,-1.137640476E0
9.139475312E0,-9.816429615E-1,-3.218282461E0,-1.547321677E0
9.159475312E0,-1.687768340E0,-2.086907625E0,-1.984945536E0
9.179475312E0,-1.910542130E0,-4.818505049E-1,-2.139965534E0
9.199475312E0,-1.921904206E0,8.883027434E-1,-1.579034328E0
9.219475312E0,-1.639143467E0,2.886774577E-2,-1.036289215E0
9.239475312E0,-1.283567429E0,-2.329089403E0,-1.014490128E0
9.259475312E0,-3.069493055E0,4.298047721E-1,-1.832019806E0
9.279475312E0,-4.020977020E0,2.645151138E0,-1.705326319E0
9.299475312E0,-3.190653801E0,3.041532993E0,-7.458664775E-1
9.321473750E0,3.454006612E-1,2.692292452E0,-1.006496429E0
9.341473750E0,8.439190388E-1,1.753305435E0,-6.428745985E-1
9.361473750E0,7.036992908E-1,1.397537470E0,-9.774192572E-1
9.381475312E0,6.466619372E-1,3.215070963E-1,-6.183352470E-1
9.403475312E0,3.369008899E-1,-4.775569737E-1,1.286482215E-1
9.425473750E0,2.849773467E-1,2.065876484E0,1.935971618E0
9.445473750E0,1.062591314E0,3.289613962E0,3.455891609E0
9.465473750E0,3.247586489E0,9.289200783E0,4.513194561E0
9.485475312E0,-2.473794699E0,1.594543266E1,7.462696075E0
9.507473750E0,5.029864311E-1,-5.629245281E0,7.146337986E0
9.527475312E0,1.332523942E0,-6.900438309E0,6.853593826E0
9.549475312E0,2.168658972E0,4.795815647E-1,5.666228771E0
9.569475312E0,2.179218054E0,6.360590458E0,4.855680466E0
9.591475312E0,3.126949310E0,-5.095139742E-1,4.045201778E0
9.613475312E0,3.819303989E0,-4.034642696E0,2.774200916E0
9.633475312E0,3.891002178E0,-6.759206295E0,1.338266134E0
9.655473750E0,1.648550749E0,-9.347390175E0,-6.847974062E-1
9.675512812E0,-8.509859085E0,-1.068249702E1,-4.208739281E0
9.697473750E0,-8.758498192E0,-7.382184029E0,-5.674955368E0
9.717473750E0,-5.634708405E0,-4.957887173E0,-6.479587078E0
9.737473750E0,1.701034546E1,5.027997017E0,1.995923638E0
9.757473750E0,-8.825432062E-1,-7.039349079E0,8.939052820E-1
9.777473750E0,2.422691584E-1,3.138555765E0,-1.618967414E0
9.797473750E0,3.728896081E-1,5.947593212E0,-2.193477392E0
9.817473750E0,2.434734255E-2,2.582424164E0,-1.471330047E0
9.837473750E0,-2.923234463E0,-1.756534219E0,-1.078805447E0
9.857473750E0,-3.694984198E0,-2.170910358E0,-9.590409398E-1
9.877473750E0,-2.912361145E0,-5.318315029E0,1.649336144E-2
9.897473750E0,-1.057791710E0,-5.146120548E0,6.881658435E-1
9.917473750E0,9.121614099E-1,2.157837868E0,2.635447085E-1
9.937473750E0,5.486966372E-1,1.683602142E1,2.752558887E-1
9.957475312E0,-4.363480091E0,7.987673759E0,-5.695881844E-1
9.979475312E0,1.058978558E0,-3.099792004E0,-2.245907068E0
9.999475312E0,6.685658097E-1,-5.022289753E0,-2.526695728E0
1.001947531E1,-1.086118340E0,-3.446065426E0,-2.051442623E0
1.003947531E1,-1.318316936E0,-2.305562496E0,-9.806306958E-1
1.005947531E1,-1.192600965E0,-2.757969201E-1,-8.208981752E-1
1.007947531E1,-1.254909158E0,9.665284157E-1,-1.104444385E0
1.009947531E1,-1.670472026E0,1.950859189E0,-1.381794572E0
1.011947531E1,-1.973286748E0,2.574919224E0,-1.261209846E0
1.013947531E1,-1.476513624E0,2.744530201E0,-1.218204856E0
1.016148312E1,-4.826708138E-1,8.273209929E-1,-1.012099028E0
1.018347531E1,-1.151742786E-1,-1.661483645E0,-8.690866828E-1
1.020547375E1,-1.845860183E-1,-1.959655643E0,-6.729815006E-1
1.022547375E1,-2.015855312E-1,-1.692096710E0,-7.378205061E-1
1.024547375E1,-1.336747706E-1,-1.037720442E0,-9.369974732E-1
1.026547375E1,-1.853714138E-1,-6.478313208E-1,-8.218406439E-1
1.028547531E1,-3.517711163E-1,-5.294456482E-1,-7.709642649E-1
1.030747375E1,-6.762976050E-1,-6.310761571E-1,-6.225589514E-1
1.032747531E1,-8.699418902E-1,-8.670795560E-1,-3.598868847E-1
1.034947531E1,-9.524435997E-1,-5.340358615E-1,-1.712516993E-1
1.036947531E1,-7.127401233E-1,-4.254065454E-1,-1.186474785E-1
1.039147531E1,-4.404687285E-1,-2.294409871E-1,-2.673495412E-1
1.041347531E1,-2.619390190E-1,-6.213546395E-1,-2.564237714E-1
1.043547375E1,-2.262993902E-1,-1.002831221E0,-2.839301527E-1
1.045547375E1,-7.738789916E-2,-1.296151280E0,-5.170712471E-1
1.047547531E1,2.345547974E-1,-1.739290357E0,-6.992661357E-1
1.049747375E1,2.981022298E-1,-1.815037727E0,-7.293905616E-1
1.051747375E1,7.351326942E-2,-1.107638240E0,-5.454154015E-1
1.053747375E1,1.577254087E-1,-2.237512171E-2,-2.984512970E-2
1.055747375E1,1.207872510E0,4.511850774E-1,8.579165936E-1
1.057747375E1,2.561480045E0,2.109230459E-1,1.624220848E0
1.059747375E1,3.093770504E0,-5.101946592E-1,2.289837122E0
1.061747375E1,2.721195221E0,-5.962393880E-1,2.678713799E0
1.063747375E1,1.695971370E0,-7.618536949E-1,2.805023432E0
1.065747375E1,1.066291451E0,-1.990460753E0,2.501719952E0
1.067747375E1,8.064293861E-1,-2.799944401E0,1.884676337E0
1.069747375E1,2.515892088E-1,-1.902740479E0,1.379124284E0
1.071747375E1,-1.713040620E-1,-5.206317082E-2,1.313656926E0
1.073747375E1,4.434881732E-2,7.588342428E-1,1.507283807E0
1.075747531E1,9.262461960E-2,1.379909635E0,1.693876982E0
1.077947531E1,-6.695082784E-1,2.298162222E0,1.778560281E0
1.080147531E1,-1.338091612E0,1.526133299E0,1.927628875E0
1.082347375E1,-7.190582156E-1,-1.135301709E0,1.629404426E0
1.084347375E1,3.298672289E-2,-2.328600883E0,1.065872550E0
1.086347375E1,1.181413382E-1,-2.423023224E0,6.711838245E-1
1.088347375E1,-2.163161039E-1,-1.940910816E0,4.320737123E-1
1.090347531E1,-7.333698869E-1,-1.329155445E0,2.224247605E-1
1.092547375E1,-1.305436492E0,-1.063655972E0,-3.446501791E-1
1.094547531E1,-8.382641673E-1,-1.700823307E0,-1.458309889E0
1.096747531E1,2.850122750E-1,-2.657193899E0,-2.077639818E0
1.098947531E1,-3.068637848E-1,-1.623417974E0,-1.923422694E0
1.100947531E1,-6.133959889E-1,-1.187713981E0,-1.149107337E0
1.103147531E1,-1.009131908E0,1.915795565E0,-2.190737277E-1
1.105347531E1,-1.298943877E0,4.131508350E0,4.728271365E-1
1.107347531E1,-6.070080400E-1,1.500127912E0,2.363873869E-1
1.109547375E1,-6.096434966E-2,-1.097899318E0,3.124139272E-3
1.111547375E1,-8.824733496E-1,-3.362656116E0,3.550523221E-1
1.113547375E1,2.080432512E-2,-4.296494484E0,-3.889291584E-1
1.115547375E1,5.252394080E-1,-3.457828760E0,-1.100814104E0
1.117547375E1,1.228886321E-1,-1.371811390E0,-1.457349896E0
1.119547375E1,-8.093789816E-1,1.052695394E0,-1.632354140E0
1.121547531E1,-1.242203236E0,1.417695999E0,-1.309764862E0
1.123747375E1,-6.320709586E-1,2.978229821E-1,-4.136953950E-1
1.125747531E1,1.822123677E-1,-1.228275418E0,2.343977243E-2
1.127947531E1,-4.945914149E-1,-1.578981876E0,-1.335700452E-1
1.129947531E1,-4.057803154E0,1.291665792E0,-7.230724692E-1
1.131947531E1,-3.332758665E0,1.627589345E0,-1.037563324E0
1.133947531E1,-2.136806548E-1,3.454006612E-1,-5.311909318E-1
1.135947531E1,9.095957875E-1,-2.065771669E-1,-3.301115632E-1
1.137947531E1,4.194200635E-1,-3.942873180E-1,-5.719269514E-1
1.139947531E1,3.358013555E-2,-1.159352422E0,-8.819497824E-1
1.141947531E1,-3.347716033E-1,-1.894101143E0,-9.289515018E-1
1.143947531E1,-1.341390252E0,-1.453161120E0,-8.858767748E-1
1.145947531E1,-2.155184984E0,-4.288274050E-2,-8.526107669E-1
1.148147375E1,-1.110465765E0,1.496462703E0,-1.103763700E0
1.150147375E1,7.304900885E-1,2.188642979E0,-9.307666421E-1
1.152147531E1,1.339348197E0,2.883964539E0,-4.861963689E-1
1.154147531E1,1.631114841E0,1.212864161E0,1.543394625E-1
1.156147531E1,1.867938638E0,-1.856314778E0,8.326791525E-1
1.158347375E1,1.057180882E0,-8.786685467E-1,1.375267029E0
1.160347375E1,1.269308090E0,-1.469392627E-1,1.896003485E0
1.162347531E1,2.234632254E0,-3.787539005E-1,2.742104292E0
1.164547531E1,2.819352388E0,-2.413790300E-2,3.872780800E0
1.166547531E1,2.348357916E0,5.653121471E-1,4.543615818E0
1.168747375E1,1.767669439E0,1.044579506E0,3.512021303E0
1.170747375E1,8.148244023E-1,2.231019497E0,1.775087118E0
1.172747375E1,1.149299294E-1,2.538825750E0,6.775542498E-1
1.174747531E1,4.402593076E-1,1.391132116E0,3.908315897E-1
1.176947531E1,4.158945084E-1,-6.602231264E-1,4.521275461E-1
1.178947531E1,3.157300502E-2,-1.975311279E0,4.740314186E-1
1.180947531E1,-3.183306158E-1,-2.516293526E0,6.317917109E-1
1.182947531E1,-5.888042450E-1,-2.040796041E0,8.304974437E-1
1.184947531E1,-7.625692487E-1,-1.153645158E0,9.677501321E-1
1.186947531E1,-7.641574740E-1,-9.915040731E-1,8.953364491E-1
1.188947531E1,-7.609810233E-1,-1.268889308E0,6.290690303E-1
1.191147375E1,-9.552710652E-1,-1.236949801E0,3.261147738E-1
1.193147375E1,-1.306152105E0,-5.871636868E-1,7.349581271E-2
1.195147531E1,-1.929339290E0,-4.836307466E-2,-4.316024780E-1
1.197147531E1,-2.257339001E0,-2.549751401E-1,-1.542137980E0
1.199147531E1,-1.588685989E0,-7.662519217E-1,-2.285770416E0
1.201347375E1,-1.037423730E0,-2.512052357E-1,-2.204891920E0
1.203347375E1,-2.802998722E-1,5.765869617E-1,-1.352874517E0
1.205347375E1,8.705702424E-2,2.314236879E0,3.438647687E-1
1.207350188E1,-6.202725768E-1,3.454530239E-1,7.502995729E-1
1.209547375E1,-7.577172518E-1,-2.697109699E0,3.500781357E-1
1.211547375E1,-4.653571248E-1,-2.928732395E0,1.808161102E-2
1.213547375E1,3.984935880E-1,-2.810119629E0,-3.493974507E-1
1.215547531E1,-9.010087848E-1,-2.696830273E0,-1.690351367E-1
1.217747531E1,-1.644134998E0,6.177592874E-1,-1.113450289E0
1.219947531E1,-1.480684996E0,3.526751995E0,-1.413035989E0
1.221947531E1,-1.950545073E0,-2.576105893E-1,-1.146279931E0
1.223947531E1,-1.470387578E0,-2.859390259E0,-1.165129423E0
1.226147531E1,-3.684040904E-1,-2.146877050E0,-1.082854629E0
1.228347844E1,4.854109585E-1,-1.370153308E0,-8.999266624E-1
1.230547531E1,-7.184647918E-1,3.099704683E-1,-1.101931095E0
1.232747375E1,-5.906194448E-1,2.076103926E0,-5.041732788E-1
1.234747375E1,2.830575109E-1,1.153976798E0,-2.368760854E-1
1.236747375E1,3.948283792E-1,-5.372123420E-2,-4.621631801E-1
1.238747531E1,-7.580837607E-1,8.517206460E-2,-9.595820308E-1
1.240947531E1,-1.459985375E0,-2.180963457E-1,-1.023461103E0
1.242947531E1,-1.703650832E0,1.427853853E-1,-8.159239888E-1
1.244947531E1,-1.572227478E0,4.815537930E-1,-2.084621191E-1
1.247147375E1,-1.298018813E0,1.138303757E0,3.445279896E-1
1.249147375E1,-8.437270522E-1,2.347328186E0,1.889667958E-1
1.251147375E1,1.169545129E-1,2.050866604E0,-2.450791299E-1
1.253147531E1,5.818753242E-1,6.733131409E-1,-4.077089131E-1
1.255147531E1,6.424906254E-1,7.696902007E-2,-7.067187428E-1
1.257347375E1,6.677106023E-1,-3.169692457E-1,-6.163630486E-1
1.259347375E1,8.158890605E-1,8.217009902E-2,-2.141868025E-1
1.261347531E1,1.061177611E0,2.471560717E0,4.585852623E-1
1.263547375E1,2.174383640E0,3.312809467E0,1.461468935E0
1.265547531E1,3.520974874E0,2.456760406E0,2.199568748E0
1.267747375E1,3.849271297E0,-3.272492439E-2,3.213273287E0
1.269747375E1,2.762158155E0,-2.315161705E0,3.608607769E0
1.271747375E1,1.808667302E0,-2.829615116E0,3.039543152E0
1.273747375E1,3.807435632E-1,2.223025858E-1,2.008036137E0
1.275747375E1,2.752558887E-1,3.106843233E0,1.189511657E0
1.277747375E1,1.491087079E0,3.186273098E0,1.389596224E0
1.279747375E1,1.903613210E0,-2.119876891E-1,1.355684519E0
1.281747531E1,1.323710084E0,-3.151000023E0,7.445574403E-1
1.283947531E1,7.979470491E-1,-3.166882515E0,4.460014403E-1
1.285947531E1,7.032455206E-1,-1.479934454E0,5.316621661E-1
1.287947531E1,6.507459879E-1,-6.672742963E-1,6.892828941E-1
1.289947531E1,2.318669856E-1,-4.969475865E-1,4.713959694E-1
1.291947531E1,-4.642226696E-1,2.974215448E-1,-1.027998887E-2
1.293947531E1,-1.246025443E0,1.338964224E0,-2.029119730E-1
1.295947531E1,-1.996953368E0,1.999868035E0,-4.525987804E-1
1.298147375E1,-2.345024347E0,1.245763659E0,-1.366557837E0
1.300147375E1,-1.276621103E0,-9.299986959E-1,-2.302159071E0
1.302147531E1,-1.179371357E0,-3.297729731E0,-2.595077753E0
1.304148000E1,-1.812297583E0,-9.637708068E-1,-1.798561811E0
1.306347531E1,-4.641179442E-1,4.237816334E0,5.091997981E-1
1.308547531E1,4.038342834E-1,5.320514202E0,1.337096691E0
1.310747531E1,-3.198315799E-1,2.448173314E-1,2.431243658E-1
1.312947531E1,-1.972571164E-1,-2.832547188E0,-2.429672778E-1
1.315147531E1,-1.026375771E0,-4.801959038E0,-1.688605994E-1
1.317147531E1,-8.346513510E-1,-1.646421432E0,-4.644495547E-1
1.319147531E1,-9.800198078E-1,1.006985188E0,-9.269443750E-1
1.321347375E1,-1.123660445E0,1.709253311E0,-1.471766353E0
1.323347375E1,-9.937730432E-1,8.612501621E-1,-1.300584435E0
1.325347375E1,-4.364370406E-1,-1.761560738E-1,-3.741811514E-1
1.327348938E1,9.391617030E-2,-8.556127548E-1,7.511897385E-2
1.329547375E1,-2.247582674E0,3.018546999E-1,-8.178961873E-1
1.331547375E1,-1.917209268E0,1.534563303E0,-7.427248359E-1
1.333547375E1,-4.422489703E-1,1.405688167E0,-2.965838015E-1
1.335547375E1,1.266759932E-1,1.912357211E-1,-4.316548407E-1
1.337547375E1,-3.209660351E-1,-9.709091783E-1,-7.513642311E-1
1.339547375E1,-1.097044110E0,-5.531821251E-1,-1.020860553E0
1.341547375E1,-1.369629622E0,-5.878268927E-2,-1.082889557E0
1.343549250E1,-1.482744455E0,7.637386322E-1,-7.573856115E-1
1.345747531E1,-1.408899546E0,1.710632086E0,-5.113989115E-1
1.347748781E1,-8.883376718E-1,2.586281300E0,-7.381172180E-1
1.349947531E1,2.871241271E-1,2.184174776E0,-8.291186690E-1
1.351947688E1,7.815235257E-1,1.714785933E0,-9.911375642E-1
1.354147531E1,2.476098537E-1,1.151864886E0,-6.964387298E-1
1.356147531E1,-1.823868975E-2,8.829445839E-1,-2.476622164E-1
1.358347531E1,8.167617321E-1,1.760304213E0,2.813296318E-1
1.360547375E1,1.990705132E0,2.538738489E0,1.207383871E0
1.362547531E1,3.110665321E0,1.670873523E0,1.659755707E0
1.364547531E1,3.634368896E0,-3.936764598E-1,2.434542418E0
1.366547531E1,3.180199385E0,-1.860643148E0,3.438682556E0
1.368547531E1,2.475452900E0,-2.868483543E0,3.712978601E0
1.370747375E1,1.961243868E0,-1.878305912E0,3.053209066E0
1.372747375E1,9.582206607E-1,1.678622723E0,1.895968556E0
1.374747531E1,5.199335814E-1,5.598457813E0,1.206284285E0
1.376947531E1,1.560743213E0,5.132437229E0,1.062835693E0
1.378947531E1,2.134886742E0,2.050796747E0,8.797157407E-1
1.380947531E1,1.501576543E0,-8.121889830E-1,4.139921069E-1
1.383147375E1,5.507910252E-1,-2.325162411E0,3.178768158E-1
1.385147531E1,-7.400196046E-3,-2.073032379E0,5.514542460E-1
1.387147531E1,-1.581617296E-1,-8.121365905E-1,9.146746993E-1
1.389147531E1,-1.730668545E-1,2.523571551E-1,9.689020514E-1
1.391147531E1,-3.133215010E-1,2.861816287E-1,5.610361099E-1
1.393347375E1,-8.448615074E-1,-2.455503643E-1,4.754276946E-2
1.395347375E1,-1.529135346E0,-4.116359055E-1,-5.040510893E-1
1.397347531E1,-2.076226234E0,-9.557422996E-1,-1.369350433E0
1.399347531E1,-2.108061075E0,-1.834794879E0,-2.549594402E0
1.401547531E1,-9.474170804E-1,-3.393600702E0,-2.529540539E0
1.403747531E1,-9.617811441E-1,-1.798317432E0,-1.328911185E0
1.405947531E1,-9.311331511E-1,1.804513335E0,4.398229718E-1
1.407947531E1,-6.263288260E-1,4.664130688E0,1.119855642E0
1.409947531E1,-2.782578468E-1,1.477857590E0,9.821141958E-1
1.411947531E1,-5.976007506E-2,-2.254651308E0,2.000147253E-1
1.413947531E1,3.048391938E-1,-2.747532129E0,-5.223246813E-1
1.415947531E1,-1.142614722E0,-3.584016085E0,-4.231027067E-1
1.417947531E1,-1.918692827E0,-1.040547848E0,-4.677656889E-1
1.420147375E1,-1.649650335E0,6.529625654E-1,-1.059048295E0
1.422147375E1,-1.049588680E0,1.643052995E-1,-1.657748580E0
1.424147688E1,-7.333350182E-1,-3.558202684E-1,-1.530706167E0
1.426347531E1,-3.991393447E-1,-6.154379845E-1,-4.887445569E-1
1.428547375E1,-2.146301270E0,-1.175793409E0,-2.123716623E-1
1.430547531E1,-1.738470078E0,8.773944378E-1,-7.447320223E-2
1.432547531E1,5.500056148E-1,2.076522827E0,2.813121676E-1
1.434747375E1,1.359541655E0,1.573972821E0,1.645496339E-1
1.436747375E1,6.320709586E-1,-2.796191871E-1,-3.222401440E-1
1.438747531E1,-3.697130978E-1,-1.775383830E0,-6.298718452E-1
1.440947531E1,-1.191431522E0,-1.767145872E0,-9.079203010E-1
1.442947531E1,-1.723791838E0,-6.770132482E-2,-1.261942863E0
1.444947531E1,-1.670227766E0,1.163680792E0,-1.028103590E0
1.447147375E1,-1.526150823E0,2.141588688E0,-4.477816820E-1
1.449147531E1,-1.386891007E0,3.115220785E0,-2.276083827E-1
1.451347375E1,-1.102000922E-1,2.835706234E0,-6.115459204E-1
1.453347375E1,9.127548337E-1,1.776361227E0,-8.809374571E-1
1.455347375E1,6.913772821E-1,1.037039757E0,-7.931648493E-1
1.457347375E1,3.603232205E-1,-2.001892589E-2,-2.376265824E-1
1.459347375E1,6.800850034E-1,-1.816887781E-2,1.333431527E-2
1.461347375E1,1.290339351E0,1.159736395E0,4.981693327E-1
1.463347375E1,1.958207011E0,2.536661625E0,1.057809114E0
1.465347375E1,2.819317579E0,2.298266888E0,1.435428619E0
1.467347531E1,3.724550009E0,3.253293782E-2,2.120976448E0
1.469347531E1,3.291603804E0,-1.782941103E0,3.177145004E0
1.471547531E1,2.141536474E0,-2.682414055E0,3.611382961E0
1.473747375E1,1.825073361E0,-1.542940855E0,2.822267294E0
1.475747375E1,9.942791462E-1,2.248804331E0,1.727788687E0
1.477747375E1,1.235693134E-2,6.406876564E0,1.337951899E0
1.479747375E1,4.127354622E-1,6.130661011E0,1.346032858E0
1.481747531E1,1.517319441E0,2.474632502E0,1.160033107E0
1.483947531E1,1.115771532E0,-1.743758440E0,4.045324028E-1
1.485947531E1,2.122844011E-1,-3.593720198E0,1.888620704E-1
1.488147531E1,-4.143935144E-1,-3.316474676E0,2.965489030E-1
1.490347531E1,-4.214621186E-1,-1.681502581E0,5.713684559E-1
1.492547375E1,-1.640958488E-1,-3.708999157E-1,6.064320803E-1
1.494547375E1,-1.396961510E-1,-2.242748067E-2,2.817136049E-1
1.496547375E1,-6.515313983E-1,-1.356295347E-1,-1.135860309E-1
1.498547375E1,-1.380764842E0,-1.312662065E-1,-5.311909318E-1
1.500547531E1,-1.968469620E0,-4.993561506E-1,-1.056011438E0
1.502547531E1,-2.247827053E0,-9.268571138E-1,-1.869788647E0
1.504747531E1,-1.812925816E0,-7.424630523E-1,-2.300047159E0
1.506947531E1,-1.191815495E0,-5.129522830E-2,-1.544808388E0
1.508947531E1,-6.597868204E-1,1.036201954E0,-1.470439881E-1
1.510947531E1,-2.221629620E-1,2.763589144E0,1.064581037E0
1.512947531E1,-3.987030089E-1,3.872362077E-1,1.041996479E0
1.514947531E1,-4.961796403E-1,-1.593380928E0,7.287796736E-1
1.516947531E1,-3.025179207E-1,-1.507964492E0,4.069933295E-1
1.519147375E1,-1.790707856E-1,-1.224627733E0,7.370525599E-2
1.521147375E1,-9.422509074E-1,-1.564722538E0,-3.000221029E-2
1.523147531E1,-9.990613461E-1,1.262291908E0,-5.707575679E-1
1.525147531E1,-1.045068264E0,2.957216024E0,-1.089259982E0
1.527147688E1,-6.494195461E-1,1.267545342E0,-1.152161598E0
1.529347375E1,-2.069785893E-1,-1.735904515E-1,-1.019883156E0
1.531347375E1,1.294510663E-1,-1.219409227E0,-9.463174939E-1
1.533347531E1,2.142217159E-1,-2.118550539E0,-7.769682407E-1
1.535547375E1,-1.490092278E0,-1.220002651E0,-1.053463221E0
1.537547531E1,-1.903281569E0,1.301736355E0,-6.951297522E-1
1.539747531E1,-5.929756165E-1,1.718817711E0,-1.859473735E-1
1.541947531E1,2.062106431E-1,1.354462743E0,2.384119667E-2
1.543947531E1,1.366069168E-1,1.222463489E0,-2.637192421E-2
1.545947531E1,-3.100926578E-1,1.274352193E0,-5.370378122E-2
1.547947531E1,-3.739891648E-1,9.823411107E-1,-6.326818466E-2
1.549947531E1,-3.656115830E-1,6.224367619E-1,-1.702045053E-1
1.551947531E1,-4.151789248E-1,1.480911821E-1,-2.805616856E-1
1.553947531E1,-5.079780817E-1,-1.054178849E-1,-3.419100046E-1
1.555947531E1,-6.260670424E-1,4.345869645E-2,-3.692592978E-1
1.557947531E1,-5.974436402E-1,2.164208293E-1,-4.519879222E-1
1.559947531E1,-4.177445471E-1,-1.991420612E-2,-7.596371174E-1
1.561947531E1,-3.099530339E-1,-3.263591230E-1,-7.358133793E-1
1.563947531E1,-3.700796068E-1,-1.240405515E-1,-5.928359628E-1
1.565947531E1,-3.141767085E-1,3.351730406E-1,-4.913800061E-1
1.567947531E1,-3.144036233E-1,8.651771545E-1,-4.588645101E-1
1.569947531E1,-1.934173852E-1,1.208274007E0,-5.885773897E-1
1.571947531E1,-3.190461993E-1,1.953529596E0,-5.124984980E-1
1.573947531E1,-4.095065892E-1,2.955802441E0,-1.355771720E-1
1.576147531E1,1.138827354E-1,3.490030289E0,4.594579339E-1
1.578347375E1,1.797584414E0,2.234143496E0,8.525758982E-1
1.580347375E1,3.063995361E0,2.848726511E-1,1.303830743E0
1.582347375E1,3.010029793E0,-5.832366943E-1,1.775471091E0
1.584347531E1,2.869548082E0,-1.274770975E0,2.220146179E0
1.586548156E1,2.748073339E0,-2.102842569E0,2.318530321E0
1.588747531E1,2.399583340E0,-1.941050410E0,2.027130127E0
1.590748000E1,1.794268250E0,-7.625343651E-2,1.573693514E0
1.592947531E1,1.358634114E0,2.805756330E0,1.030564547E0
1.595147531E1,1.309747458E0,4.139921188E0,8.438143134E-1
1.597348625E1,1.426300526E0,3.415836334E0,7.992211580E-1
1.599547375E1,1.174309850E0,1.630905509E0,4.313581288E-1
1.601548625E1,7.185171247E-1,-3.970100582E-1,3.665889502E-1
1.603747531E1,3.417703807E-1,-1.192443848E0,7.490429282E-1
1.605947531E1,4.245164394E-1,-9.889733791E-1,1.113921523E0
1.607947531E1,6.911329031E-1,-9.276424646E-1,9.032776952E-1
1.609947531E1,6.539050341E-1,-1.126452923E0,6.131690741E-1
1.611947531E1,4.057715833E-1,-8.365886807E-1,4.583234489E-1
1.613947531E1,3.499036133E-1,-5.155528188E-1,4.799481034E-1
1.615947531E1,4.668930173E-1,-2.188119292E-1,5.256407857E-1
1.617947531E1,5.447870493E-1,5.523967147E-1,5.805663466E-1
1.619947531E1,6.574480534E-1,1.634151816E0,7.573332787E-1
1.621947531E1,9.527927041E-1,1.572279811E0,9.653590322E-1
1.623949250E1,1.027841806E0,-2.519906461E-1,1.133940458E0
1.626147375E1,7.452206612E-1,-2.120662212E0,6.514965296E-1
1.628148000E1,4.673119187E-1,-2.834589243E0,3.234095126E-2
1.630347375E1,3.793123960E-1,-2.340730906E0,-3.771132827E-1
1.632348156E1,2.773502767E-1,-1.294336200E0,-5.549448729E-1
1.634547375E1,-3.644247353E-1,7.234739065E-1,-9.362993240E-1
1.636547375E1,-2.104326010E0,1.119314551E0,-1.236827612E0
1.638547375E1,-3.552966833E0,-2.432814389E-1,-6.972590089E-1
1.640547375E1,-2.793259859E0,1.357953429E0,-1.094443560E0
1.642547531E1,-1.651988983E0,3.740729332E0,-1.118145227E0
1.644747375E1,-1.013722181E0,4.381422043E0,-1.611287892E-1
1.646747531E1,-2.977706194E-1,4.635385036E0,-8.599062562E-1
1.648747531E1,-3.616671264E-1,1.630399346E0,-1.668377638E0
1.650947531E1,-3.855606914E-1,2.705260413E-3,-1.835440636E0
1.652947531E1,-1.083674952E-1,6.928782463E-1,-2.134729624E0
1.655147375E1,-1.356295347E-1,1.743863225E0,-2.520918608E0
1.657147375E1,-6.634868979E-1,1.911205292E0,-2.485279083E0
1.659147531E1,-1.166420937E0,1.925220370E0,-2.234719515E0
1.661347375E1,-1.202182770E0,-1.765051484E-1,-2.298912764E0
1.663347375E1,-1.262518764E0,-3.358729124E0,-2.813977003E0
1.665347531E1,-2.177752018E0,4.787787199E-1,-3.216851234E0
1.667349875E1,-2.696044922E0,-5.930628628E-2,-3.889623404E0
1.669547375E1,-3.771150351E0,5.603902936E-1,-3.209224224E0
1.671547531E1,-3.265912533E0,3.571886063E0,-2.514513254E0
1.673547531E1,-2.583820343E0,3.105761051E0,-1.690229177E0
1.675747375E1,-3.199537694E-1,-1.275294662E0,-1.526115894E0
1.677747375E1,8.976752162E-1,-6.521597505E-1,-1.345980406E0
1.679747375E1,1.175060391E0,-2.022120953E0,-7.480829954E-1
1.681747531E1,1.591775179E0,-1.391446233E0,1.483529806E-3
1.683947531E1,2.207614660E0,-1.371671677E0,7.015525699E-1
1.685947531E1,1.873279333E0,1.467996478E0,1.309258699E0
1.687947531E1,1.112315774E0,3.554153681E0,3.746262074E0
1.689947531E1,1.462620854E0,2.023971081E0,6.312803745E0
1.691947688E1,1.412023664E0,2.912587881E0,8.560892105E0
1.694147531E1,7.495840192E-1,2.324429512E0,7.847349167E0
1.696147531E1,8.343895674E-1,8.339706659E-1,3.585168123E0
1.698347531E1,8.790699840E-1,-1.249219418E0,1.095351219E0
1.700547531E1,1.549520731E0,-1.292887568E0,1.369332910E0
1.702747375E1,1.164710522E0,-4.284783304E-1,1.084058881E0
1.704747375E1,6.276901960E-1,4.366813600E-2,7.389724255E-1
1.706747375E1,6.070255116E-2,-2.663372457E-2,4.320562482E-1
1.708747375E1,-3.821049333E-1,-4.483052790E-1,1.561895162E-1
1.710747375E1,-5.112767220E-1,-1.005135059E0,-2.618168294E-1
1.712747375E1,-4.017747939E-1,-1.872668505E0,-7.405257225E-1
1.714747375E1,-3.610562682E-1,-2.838900089E0,-9.773669243E-1
1.716747375E1,-4.828628004E-1,-3.760067463E0,-6.177592874E-1
1.718747531E1,-4.443608224E-1,-4.104525566E0,1.422966868E-1
1.720947531E1,-2.349213138E-2,-2.998510599E0,7.380124927E-1
1.722947531E1,9.981537610E-2,-1.459950447E0,5.578072071E-1
1.724947531E1,-2.682047486E-1,1.826138049E-1,-2.565633953E-1
1.727147375E1,-1.385407448E0,2.284478903E0,-2.583209515E0
1.729147531E1,-1.599768758E0,5.113291264E0,-5.139139652E0
1.731147531E1,-1.304685950E0,2.504093647E0,-4.024432659E0
1.733347375E1,-3.635817528E0,-7.793226719E0,-2.620315075E0
1.735347531E1,-3.984010696E0,-8.651981354E0,-2.692816019E0
1.737547375E1,-1.065122128E0,-9.433504939E-2,-3.226083994E0
1.739547375E1,-7.997098565E-2,-1.561022550E-1,-2.771233797E0
1.741547375E1,-1.529781103E0,-2.331236303E-1,-2.199865341E0
1.743547531E1,-2.056469202E0,-1.235919952E0,-2.033884525E0
1.745747375E1,-2.223793745E0,4.021465302E0,-2.386772633E0
1.747747375E1,1.054545403E0,4.231009483E0,-1.129472375E0
1.749747375E1,2.484615803E0,3.705630779E0,3.984412253E-1
1.751747375E1,1.508313537E0,3.100402951E-1,1.454522491E0
1.753747531E1,3.272143364E0,-6.184050441E-1,2.850942850E0
1.755747531E1,4.022442818E0,-5.678254366E-1,4.064540386E0
1.757947531E1,4.139292717E0,-1.396263397E-4,5.831284523E0
1.760147375E1,3.750572920E0,-8.049458265E-2,7.730464458E0
1.762147688E1,2.576856375E0,-3.333579004E-2,7.958858490E0
1.764148000E1,-4.132939503E-2,7.841764092E-1,3.619045019E0
1.766347531E1,-1.492431015E-1,2.356124640E0,7.609810233E-1
1.768347688E1,7.415903807E-1,2.751040220E0,5.388005972E-1
1.770547375E1,-4.663519561E-2,4.540823102E-1,1.130973324E-1
1.772547375E1,-1.229828835E0,-1.747179270E0,-5.251172185E-1
1.774547375E1,-1.540445089E0,-2.583279371E0,-1.273095489E0
1.776547375E1,-1.293288946E0,-3.081501007E0,-1.713250041E0
1.778547375E1,-7.706850171E-1,-2.998632669E0,-1.765679836E0
1.780547375E1,-1.959830225E-1,-2.054636478E0,-1.795908928E0
1.782547531E1,4.920257628E-1,-3.598868847E-1,-1.774162054E0
1.784747375E1,8.966803551E-1,6.333276033E-1,-7.072597742E-1
1.786747375E1,4.423536956E-1,6.963689327E-1,9.808750153E-1
1.788747531E1,6.609562039E-2,2.772106528E-1,1.719655395E0
1.790947531E1,-2.082352340E-1,-9.721484035E-3,1.290531397E0
1.792947531E1,-1.091738343E0,1.107184529E0,7.114660144E-1
1.794947531E1,-1.403105140E0,1.991595149E0,-9.235409498E-1
1.796947531E1,-1.519012451E0,3.405713320E0,-3.228632212E0
1.798947531E1,-6.972590089E-1,2.056050301E0,-4.054539680E0
1.800947531E1,-4.102221727E-1,-1.776972055E0,-2.634748936E0
1.802947531E1,-4.408265114E0,-4.712703228E0,-1.994317889E0
1.804947531E1,-7.942085743E0,-2.906741142E0,-2.898730040E0
1.806947531E1,-3.230587006E0,6.130695820E0,-4.474744797E0
1.808947531E1,2.085773230E0,5.530250072E-1,-2.406006098E0
1.810947531E1,-1.749692559E-1,-2.944998741E0,-2.397523880E0
1.812947531E1,-1.594079018E0,-3.674005270E0,-2.505699396E0
1.814947531E1,6.625270098E-2,-3.793996572E-1,-1.421937227E0
1.817147531E1,2.852269411E0,1.425794363E0,8.367282748E-1
1.819347531E1,1.735119104E0,3.198769569E0,1.841549277E0
1.821547375E1,9.817651510E-1,1.236286521E0,2.516398191E0
1.823547375E1,3.480937004E0,8.587019891E-2,3.404543877E0
1.825547375E1,3.478353977E0,-4.862836301E-1,5.482672691E0
1.827547375E1,3.590020180E0,-2.147103995E-1,7.721598148E0
1.829547531E1,2.782089710E0,6.497162580E-1,9.686647415E0
1.831747531E1,6.175323725E-1,3.270816803E0,6.769556046E0
1.833947531E1,-8.134979606E-1,3.923186064E0,7.992036939E-1
1.835947531E1,-2.079908848E-1,1.053986907E0,4.466995597E-1
1.837947531E1,-1.047895700E-1,-2.081863642E0,1.750914305E-1
1.839947531E1,-1.657539159E-1,-2.878100395E0,-6.644468307E-1
1.841947531E1,-1.037947312E-1,-2.680197477E0,-1.424031615E0
1.843947531E1,-1.343030781E-1,-2.752069950E0,-1.653961301E0
1.846147531E1,-3.130073547E-1,-3.119793415E0,-1.702429056E0
1.848349094E1,-5.550321341E-1,-2.938314199E0,-1.681624770E0
1.850547531E1,-6.932971478E-1,-1.940230131E0,-1.361426592E0
1.852747375E1,4.476245940E-1,2.903180718E-1,-8.286299706E-1
1.854747375E1,4.272740483E-1,9.026319385E-1,8.266577721E-1
1.856747375E1,4.499982297E-1,2.371378839E-1,1.799870729E0
1.858747375E1,-7.777187228E-2,4.887096286E-1,1.609071374E0
1.860747531E1,-7.192152739E-1,8.728915453E-1,8.550542593E-1
1.862947531E1,-1.188010693E0,2.295806170E0,-1.399405003E0
1.864947688E1,-1.447907686E0,1.494508028E0,-4.217448711E0
1.867147531E1,-2.597224474E0,-3.225054264E0,-5.241136551E0
1.869147688E1,-3.769143343E0,-6.755227089E0,-4.155978203E0
1.871347531E1,-5.669457912E0,-5.965709686E-1,-3.669065952E0
1.873547375E1,-3.729594052E-1,3.048653841E0,-2.579160213E0
1.875547375E1,4.781852961E-1,-1.740965992E-1,-2.254441738E0
1.877547375E1,-1.455080986E0,-2.331759930E0,-2.371762753E0
1.879547531E1,-3.093246937E0,-2.316139221E0,-2.749434710E0
1.881747531E1,-5.674763322E-1,3.658245087E0,-2.068093061E0
1.883947531E1,3.380406141E0,2.566506624E0,7.777535915E-1
1.885947531E1,1.858653426E0,3.539684772E0,1.719777584E0
1.887947531E1,1.656177878E0,1.079363942E0,2.370663166E0
1.889947531E1,3.858504057E0,-1.803850174E0,3.804102182E0
1.891948313E1,4.680309772E0,-2.054846048E0,5.629541874E0
1.894147531E1,4.548554897E0,-2.015733004E0,7.763137341E0
1.896147844E1,2.339561462E0,-4.247956872E-1,9.149836540E0
1.898347531E1,-4.463505149E-1,2.351394892E0,6.027005672E0
1.900547531E1,4.497015476E-1,4.614371300E0,2.401189089E0
1.902747844E1,5.505466461E-1,3.045198202E0,1.570517063E0
1.904947531E1,-4.037295580E-1,-1.393889785E0,6.935938448E-2
1.906948312E1,-3.048217595E-1,-3.119531631E0,-1.645269513E0
1.909147531E1,3.788411617E-1,-3.644858360E0,-3.019890785E0
1.911147531E1,8.331503868E-1,-3.547765732E0,-2.701874495E0
1.913347375E1,1.141445279E0,-2.460355759E0,-2.049697161E0
1.915347375E1,9.669298530E-1,-9.180780649E-1,-1.580029130E0
1.917347375E1,6.880087852E-1,1.127988815E0,-9.521468878E-1
1.919347531E1,1.570796371E-1,1.513601899E0,1.396612525E-1
1.921547375E1,-6.461209059E-1,5.388529301E-1,1.201170444E0
1.923547375E1,-2.254965305E0,-8.153480291E-1,6.853907704E-1
1.925547375E1,-3.233431816E0,-1.391132116E0,-8.707447648E-1
1.927547375E1,-2.966291666E0,-7.586073279E-1,-2.037619591E0
1.929547531E1,-1.887468815E0,6.644642949E-1,-2.120767117E0
1.931747531E1,6.963514686E-1,-3.373913527E0,-3.082007170E0
1.933947531E1,1.537111402E-1,-2.621484518E0,-4.972896576E0
1.935947531E1,-3.156445503E0,-4.040506840E0,-6.611481667E0
1.937947531E1,-6.726411819E0,-7.451787949E0,-5.065818310E0
1.939947531E1,-9.702215195E0,3.911282867E-2,-3.730431795E0
1.941947531E1,4.439594150E-1,1.722207069E1,-2.232049227E0
1.943947531E1,4.713470936E0,5.581545353E0,1.308909655E0
1.946147375E1,1.292294145E0,-4.413448811E0,1.831007481E0
1.948147688E1,1.364201665E0,-5.368894577E0,2.212431669E0
1.950347375E1,2.149215937E0,-4.386221886E0,3.238004684E0
1.952347375E1,2.126613855E0,-4.565781116E0,4.827912331E0
1.954347375E1,2.560956478E0,-1.443230152E0,6.048857212E0
1.956347531E1,3.188035965E0,-1.359262466E-1,6.171937943E0
1.958547531E1,2.315388680E0,4.549130917E0,5.263215065E0
1.960747531E1,-3.696066380E0,1.007137012E1,4.557019711E0
1.962947531E1,-4.108749390E0,5.235149860E0,4.177968979E0
1.964947531E1,2.147976756E-1,-4.908982754E0,2.429027081E0
1.966947531E1,1.634518266E0,-7.046400547E0,7.406479120E-1
1.968947531E1,2.538738489E0,-7.786437511E0,-2.070484012E-1
1.970947531E1,2.383945227E0,-6.463966370E0,-6.106732488E-1
1.972947531E1,1.177521229E0,-5.930978060E-1,-5.775992870E-1
1.975147531E1,6.440439224E-1,4.497486591E0,6.712361574E-1
1.977347375E1,-1.675515994E-2,2.856370926E0,1.616872996E-1
1.979347375E1,-1.542940855E0,5.378232002E-1,-5.864480734E-1
1.981347375E1,-4.041397095E0,-4.783772826E-1,-1.614080429E0
1.983347531E1,-4.088800430E0,-2.292961121E0,-1.951522470E0
1.985547375E1,2.777063131E0,-9.630970955E0,-8.723155409E-2
1.987547844E1,-5.089380220E-2,-4.058501244E0,-3.020501614E0
1.989747531E1,-4.463836670E0,5.743616581E0,-4.979668617E0
1.991947531E1,-4.233784676E0,7.279977798E0,-6.186232090E0
1.993947531E1,-1.251697779E0,2.384416342E0,-7.904211998E0
1.996147844E1,-7.122164965E-1,-1.871692848E1,-8.727937698E0
1.998347531E1,-1.150287151E1,-5.709408283E0,7.906341553E-2
2.000547375E1,-7.054446220E0,2.917995071E1,-1.594166279E0
2.002547531E1,5.890992165E0,5.154288769E0,2.345321178E0
2.004747375E1,1.378164291E0,-8.213117599E0,3.313909054E0
2.006747375E1,2.101149559E0,-2.457877398E0,3.264970064E0
2.008747375E1,1.187766314E0,-1.651535273E0,3.238929749E0
2.010747531E1,1.239428163E0,-3.107558727E0,4.634459972E0
2.012947531E1,2.073608160E0,-1.211956620E0,6.016167164E0
2.015147531E1,3.126460552E0,2.284636050E-1,7.516086102E0
2.017147531E1,2.617138624E0,7.218908787E0,7.347277641E0
2.019347531E1,-2.090887070E0,9.878511429E0,5.434571266E0
2.021547375E1,-6.385217190E0,1.301317453E0,3.758095264E0
2.023547531E1,4.574158788E-1,-4.500523567E0,-2.235766686E-2
2.025747375E1,3.617596388E0,-5.750894547E0,-1.129629493E0
2.027747375E1,4.098469257E0,-5.595874786E0,-1.089713812E0
2.029747375E1,3.028233528E0,-1.473965406E0,-1.113293171E0
2.031747531E1,1.430367112E0,2.667665958E0,4.252145588E-1
2.033947531E1,-9.580984712E-1,-2.738404036E0,1.424014091E0
2.035947531E1,-2.719013453E0,-4.205318451E0,8.071449399E-1
2.037947531E1,-3.508827448E0,2.707005665E-2,-3.659431934E-1
2.039947531E1,-4.871231556E0,2.449290276E0,-2.464230299E0
2.041947531E1,-5.134549141E0,4.390061378E0,-3.077835798E0
2.043947531E1,-3.714043140E0,4.570004940E0,-2.903791428E0
2.045947531E1,2.412743121E-1,2.125828505E0,-3.253415823E0
2.047947531E1,6.621552467E0,-4.939909935E0,-6.843435764E0
2.049947531E1,4.666748524E0,-1.477288532E1,-9.017959595E0
2.051947531E1,-1.012924480E1,1.916423917E0,-2.948541880E0
2.053947531E1,-6.754773140E0,7.051566601E0,-2.508945704E0
2.055947844E1,-4.235041440E-1,9.526809692E0,-1.434992194E0
2.058147375E1,-7.967253327E-1,2.664297342E0,-1.740704179E0
2.060147531E1,1.280652761E0,-5.431708813E0,-9.113236666E-1
2.062347531E1,2.543782473E0,-4.892105579E0,1.305104852E0
2.064547375E1,3.089459658E0,-7.473150492E-1,3.445053101E0
2.066547531E1,3.514901161E0,1.312313080E-1,5.309675694E0
2.068547531E1,3.924372911E0,2.682850361E0,7.123578548E0
2.070747375E1,2.178240776E0,5.783741951E0,1.163181686E1
2.072747375E1,-6.467841268E-1,6.131132126E0,1.280387497E1
2.074747531E1,2.394417226E-1,8.978130341E0,5.202913761E0
2.076947531E1,-8.737990856E-1,5.691448689E0,1.054423213E0
2.078947531E1,-8.342673779E-1,1.269028932E-1,-4.645717442E-1
2.080947531E1,7.986975908E-1,-6.186284542E0,-1.595248342E0
2.082947531E1,1.135197043E0,-8.972249031E0,-2.959170818E0
2.084947531E1,-6.672917008E-1,-8.037642479E0,-3.630459309E0
2.086947531E1,-1.769344926E0,-4.749477386E0,-2.152549505E0
2.089147531E1,-2.484476089E0,-6.740286946E-1,-5.442809463E-1
2.091347375E1,-1.851759434E0,1.076362014E0,4.843288660E-1
2.093347375E1,-2.542770207E-1,3.436116934E0,7.026520967E-1
2.095347375E1,1.868200451E-1,2.532909155E0,-1.416352153E0
2.097347375E1,1.433875203E0,-3.360142708E0,-7.003674507E0
2.099347375E1,-8.357334733E-1,-9.464221954E0,-5.893418312E0
2.101347375E1,-6.833871365E0,-4.005321026E0,-6.411536694E0
2.103347375E1,-5.653452873E0,1.009810829E1,-5.543252945E0
2.105347375E1,4.777140617E-1,8.296631813E0,-2.578078270E0
2.107347531E1,2.608429432E0,-2.633544683E0,-2.251125723E-1
2.109347531E1,3.026680231E0,-3.375047922E0,1.591705322E0
2.111547375E1,1.932219148E0,-7.293556333E-1,3.131906033E0
2.113547375E1,1.649981856E0,1.593084216E0,4.250592232E0
2.115547375E1,2.946639299E0,2.274076700E0,4.482336998E0
2.117547375E1,3.835413456E0,5.320810676E-1,4.545221329E0
2.119547375E1,4.050769329E0,7.147297859E-1,4.248986721E0
2.121547375E1,3.485178232E0,3.351433516E0,4.349622250E0
2.123547375E1,2.032383442E0,5.975117207E0,3.144472361E0
2.125547375E1,1.072853878E-1,4.482930660E0,8.859116435E-1
2.127549094E1,-1.258190393E0,-3.887546360E-1,-5.704433918E-1
2.129747375E1,-3.758060455E0,-5.369278431E0,-9.507331848E-1
2.131747375E1,-3.636358500E0,-5.119050503E0,-1.361705810E-1
2.133747531E1,-1.500983164E-2,2.003986984E-1,2.728822231E-1
2.135947531E1,-2.259328663E-1,-1.578371048E0,4.062777460E-1
2.137947531E1,3.223448694E-1,1.201310158E0,-8.041778803E-1
2.139947531E1,5.650328994E-1,3.444058299E-1,-4.169591427E0
2.141947531E1,-3.853686899E-2,-2.862112999E0,-6.255329609E0
2.143947531E1,-3.246033192E0,4.076740146E-1,-5.494785309E0
2.145947531E1,-1.058123350E0,6.169040680E0,-1.356190681E0
2.147947531E1,3.861279249E0,-4.047872543E0,2.052262783E0
2.149947531E1,4.787211418E0,-4.981710911E0,3.242525101E0
2.151947531E1,3.341293097E0,-4.636344910E0,3.715072870E0
2.153947531E1,1.522921920E0,-2.627942264E-1,4.214411736E0
2.155947531E1,1.080009714E-1,4.309130669E0,4.589395523E0
2.157947531E1,-3.666587770E-1,8.541449547E0,2.965698242E0
2.159947531E1,-3.210009634E-1,7.232399940E0,-2.972295582E-1
2.161947531E1,2.727600634E-1,2.310746193E0,-2.978997707E0
2.163947688E1,-8.217009902E-2,-1.648463488E0,-4.132555485E0
2.166147531E1,-2.648851395E0,-1.056011438E0,-3.294204235E0
2.168147531E1,-5.700158119E0,5.693246365E0,-2.379337549E0
2.170347531E1,-1.482988834E0,-3.320488930E-1,2.437701374E-1
2.172547531E1,1.626646891E-2,-5.604094982E0,1.141811848E0
2.174747531E1,-4.794070423E-1,2.141658545E0,4.435928762E-1
2.176747531E1,2.404889166E-1,1.026951745E-1,-1.071230769E0
2.178947531E1,5.809328556E-1,-2.733185530E0,-2.277392864E0
2.180947531E1,-4.114439189E-1,2.248245955E0,-1.967684150E0
2.183147375E1,1.765749604E-1,3.369497776E0,-3.117507100E-1
2.185147531E1,2.818916082E0,-1.381079078E0,1.055330753E0
2.187348156E1,5.324231625E0,-3.270380497E0,1.252064347E0
2.189547375E1,4.731988907E0,-2.424942970E0,1.192600965E0
2.191547375E1,3.364209414E0,-2.185640812E0,1.950684667E0
2.193547531E1,1.645321846E0,-9.412735105E-1,2.998091698E0
2.195747375E1,-2.096838504E-1,1.962552905E0,3.275633812E0
2.197747375E1,-1.007491350E0,4.576689720E0,1.264124513E0
2.199747375E1,-9.736493826E-1,3.692505836E0,-6.288072467E-1
2.201747375E1,-1.262606025E0,2.001700640E0,-1.834899545E0
2.203747531E1,-2.312578678E0,1.792906880E0,-2.562754154E0
2.205947375E1,-3.275040627E0,2.755525827E0,-3.316509485E0
2.207947531E1,-3.487464428E0,3.698021173E0,-3.345499516E0
2.209947531E1,-2.320973635E0,3.742649078E0,-2.394137859E0
2.211947531E1,-1.020912886E0,-5.710892081E-1,-1.064458847E0
2.213947531E1,-1.493513107E0,-3.083089113E0,-7.616616786E-2
2.215947531E1,-1.139787316E0,-4.405263424E0,-7.417649031E-2
2.217947531E1,-1.518506289E0,-4.155244827E0,-5.238256454E-1
2.219947531E1,3.728197813E-1,-5.463631153E0,-8.500451446E-1
2.222147375E1,1.524719596E0,-6.589752197E0,-9.008691311E-1
2.224147531E1,6.978175640E-1,-3.867143393E0,-1.172424912E0
2.226347375E1,-1.820448160E0,1.703912616E0,-1.326153517E0
2.228347844E1,-3.452435732E0,4.648754120E0,-1.300916076E0
2.230547531E1,-6.381325245E0,-3.290120065E-1,-1.718014836E0
2.232747375E1,-4.563145638E0,-3.513836384E0,-1.408794880E0
2.234747375E1,2.249031216E-1,1.505381346E0,-1.740983367E0
2.236747375E1,4.184374332E0,4.821489334E0,-1.340884089E0
2.238747375E1,3.019419670E0,2.999487877E0,-4.634023607E-1
2.240747531E1,2.937441587E0,-3.918613195E-1,1.140206099E0
2.242947531E1,4.506998539E0,2.622165203E0,2.848447084E0
2.244947531E1,4.825556278E0,2.630874395E0,3.704845190E0
2.246947531E1,4.179504871E0,-7.414158434E-2,3.861907482E0
2.249147531E1,3.535984755E0,-4.394215345E-1,4.501186848E0
2.251347375E1,3.167283773E0,4.374144077E-1,5.132402420E0
2.253347375E1,1.506707788E0,4.427969933E0,3.710779428E0
2.255347375E1,7.831816077E-1,6.794584274E0,1.656526923E0
2.257347375E1,1.093989849E0,2.613246679E0,1.471801281E0
2.259347375E1,1.231975555E0,-7.803716063E-1,8.817403316E-1
2.261347375E1,1.236687899E0,-1.946548223E0,-2.414488494E-1
2.263347375E1,2.347991467E-1,-2.295683861E0,-1.057407737E0
2.265347531E1,-1.533795357E0,-2.284461498E0,-1.471661568E0
2.267347688E1,-3.754098415E0,-1.961069345E0,-1.760583401E0
2.269547844E1,-4.923992634E0,-1.081824899E0,-1.340325594E0
2.271747375E1,-3.269682407E0,8.649153709E-1,3.493101895E-1
2.273747375E1,2.323417187E0,7.671751976E0,1.054161429E0
2.275747375E1,-1.635722518E-1,8.610738754E0,2.075231314E0
2.277747375E1,1.249306649E-1,-4.322534561E0,-2.008612156E0
2.279747375E1,4.935267568E-1,-3.998392105E0,-2.888275623E0
2.281747375E1,-3.660653532E-1,-2.711752892E0,-3.293994904E0
2.283747531E1,-8.344942927E-1,-4.087910056E-1,-3.555200815E0
2.285947531E1,-4.172733128E-1,-1.972047538E-1,-3.791274071E0
2.287947531E1,-7.952069044E-1,-1.451939344E0,-3.755547047E0
2.289947531E1,-4.053422451E0,-6.049311161E-2,-2.984530449E0
2.291947531E1,-2.182987928E0,1.911379814E0,-1.651919246E0
2.293947531E1,7.460235357E-1,5.538191319E0,-1.585317492E0
2.295947531E1,9.912422895E-1,3.663289070E0,-2.930058837E-1
2.297947531E1,1.500005722E0,4.168317318E0,2.045525908E-1
2.299947531E1,8.777435422E-1,1.832054615E0,-2.464404851E-1
2.301947531E1,1.090830803E0,1.313482404E0,7.658853531E-1
2.303947531E1,1.820936918E0,8.241793513E-1,3.081465960E0
2.306147531E1,1.440350413E0,-6.413910389E-1,5.756444931E0
2.308347375E1,1.601950407E0,-8.873254061E-2,8.350737572E0
2.310347375E1,9.567371607E-1,1.113240838E0,9.163676262E0
2.312347531E1,-1.025555432E-1,7.300782204E0,4.709718704E0
2.314547375E1,-6.332054734E-2,5.856452465E0,5.869018435E-1
2.316547531E1,1.167101637E-1,6.610957980E-1,-1.999623775E-1
2.318547531E1,-3.866078854E-1,-2.607766151E0,-8.012282848E-1
2.320747375E1,-1.363084674E0,-5.036705971E0,-8.692786694E-1
2.322747375E1,-1.615913033E0,-6.074286938E0,-7.860090137E-1
2.324747531E1,1.092576146E0,-6.488400936E0,-1.043008804E0
2.326947375E1,4.090702832E-1,-5.343482494E0,-1.297599912E0
2.328947531E1,2.539453983E0,3.660618544E0,-2.490061224E-1
2.330947531E1,2.268229961E0,3.096179247E0,3.223099411E-1
2.332947531E1,8.432034850E-1,2.476761818E0,3.953519762E-1
2.334947531E1,5.288696885E-1,4.057890475E-1,-2.149861574E0
2.336947531E1,2.163161039E0,-1.791405916E0,-3.990416050E0
2.338947531E1,-7.622550726E-1,8.024674654E-1,1.343729049E-1
2.340947531E1,-1.053550601E0,4.380532265E0,2.023656845E0
2.342947531E1,-4.809778333E-1,5.003614426E0,2.510673523E0
2.344947531E1,2.970899343E-1,1.989780068E0,2.051058531E0
2.346947531E1,1.019883156E0,9.028588235E-2,3.827856183E-1
2.348947531E1,4.221602380E-1,-2.357939817E-2,-1.383697033E0
2.350947531E1,6.940650940E-1,-9.058607817E-1,-2.250113487E0
2.352947844E1,3.992266059E-1,-2.887647152E0,-1.402389526E0
2.355147531E1,8.820370436E-1,-2.708209991E0,5.005604401E-2
2.357147688E1,-1.577603072E-1,-7.968824506E-1,-3.208438754E-1
2.359347375E1,-1.610677123E0,5.346292257E-1,-1.800359488E0
2.361347375E1,-1.168061614E0,2.266379833E0,-2.032086849E-1
2.363347531E1,-3.058689535E-1,2.698854923E0,2.499608278E0
2.365547375E1,6.820048690E-1,5.738118887E-1,3.483467817E0
2.367547531E1,1.770671368E0,-3.459783554E0,1.975974560E0
2.369747375E1,2.023255587E0,-5.766567707E0,1.016183019E0
2.371747375E1,1.900611162E0,-3.145013571E0,-4.942947030E-1
2.373747375E1,1.293830037E0,2.398344278E0,-1.240213513E0
2.375747531E1,-2.142339230E0,2.044304162E-1,1.219985113E-1
2.377948625E1,-3.067014694E0,-8.461669922E0,-6.439915895E-1
2.380147375E1,2.766695917E-1,-1.239415932E1,-1.931922436E0
2.382147531E1,3.320035219E0,-9.967401028E-1,-1.686965466E0
2.384147844E1,-1.164344072E0,5.637989521E0,-1.044823885E0
2.386347375E1,-1.738295555E0,1.348615885E-1,-7.284480929E-1
2.388347375E1,-2.500882149E-1,-1.425445318E0,-2.262016535E0
2.390347375E1,-3.965737224E-1,5.102242947E0,-7.144330740E-1
2.392347375E1,3.864333630E-1,-3.572165251E0,-1.110378429E-1
2.394347375E1,6.969797611E-1,-3.484654665E0,-1.477368832E0
2.396347375E1,8.340230584E-1,-2.426793098E0,-1.523218632E0
2.398347531E1,1.281769872E-1,-2.686916828E0,-1.036306739E0
2.400547531E1,-5.242270827E-1,-1.875460982E0,-1.251401100E-2
2.402747375E1,-7.482226491E-1,-1.769397378E0,3.224670291E-1
2.404747375E1,-9.944362640E-1,-2.402236223E0,3.487342298E-1
2.406747375E1,-8.879886270E-1,-2.607155323E0,7.873878479E-1
2.408747688E1,-5.900260210E-1,-3.936991453E0,1.356434941E0
2.410947375E1,-1.027143717E0,-3.513225555E0,1.281211257E0
2.412947531E1,-1.167293668E0,-1.595422864E0,1.407992005E0
2.414947531E1,-5.068261623E-1,-8.970293999E-1,1.833276391E0
2.416947531E1,-1.718800217E-1,-1.019935489E0,1.759902716E0
2.418947531E1,-5.188165903E-1,-2.064235687E0,1.304336905E0
2.420947531E1,-9.521992803E-1,-2.830609798E0,9.458986521E-1
2.423147375E1,-1.695831656E0,-2.654488802E0,9.987297654E-1
2.425147688E1,-2.792160273E0,-1.850328207E0,1.095106840E0
2.427148000E1,-4.091261387E0,-9.629505277E-1,1.086205602E0
2.429347375E1,-3.797714233E0,-1.234977484E0,1.218414381E-1
2.431347375E1,-1.195463300E0,-3.452994347E0,1.191012710E-1
2.433347531E1,1.059921026E0,-3.141924143E0,7.211002111E-1
2.435348000E1,8.402364254E-1,-3.323682785E0,3.323630393E-1
2.437547531E1,-3.020955563E0,-8.660602570E0,-3.583160788E-2
2.439747531E1,-1.640749097E0,-8.149587631E0,-2.674699545E0
2.441947531E1,8.319635391E-1,-3.996542215E0,-3.659536600E0
2.443947531E1,1.023129463E0,1.630259633E0,-1.643646359E0
2.445947531E1,4.572762549E-1,4.800493240E0,-4.919385016E-1
2.447947531E1,8.539023399E-1,3.872466803E0,2.598795295E-2
2.449947531E1,6.184050441E-1,1.246863246E0,-3.505144715E-1
2.451947531E1,-1.389020324E0,-5.429719388E-2,-1.280233860E0
2.453947531E1,-2.876930952E0,1.471644163E0,-1.253320932E0
2.455947688E1,-1.292137027E0,4.652227402E0,-5.454502702E-1
2.458147375E1,1.116364956E0,3.878837109E0,-4.427900314E-1
2.460147375E1,1.084914088E0,2.232450694E-1,-6.749536991E-1
2.462147375E1,1.403244678E-2,-3.528235435E0,-1.521263838E0
2.464148000E1,-7.280117273E-1,-6.305001736E0,-1.375808120E0
2.466347531E1,-9.992009997E-1,-4.358366489E0,-1.118267298E0
2.468347844E1,1.327672005E-1,-2.562387705E0,-5.502324700E-1
2.470547375E1,1.376384139E0,-2.355042458E0,4.746248424E-1
2.472547531E1,1.742187619E0,-1.822525144E0,9.386729598E-1
2.474547531E1,1.445673704E0,-1.210368395E0,1.037284136E0
2.476747375E1,5.811248422E-1,-8.410217762E-1,9.237504005E-1
2.478747375E1,-2.277305573E-1,-1.007334232E0,9.643816948E-1
2.480747375E1,-1.211607531E-1,-1.848268747E0,1.018731236E0
2.482747531E1,1.737719655E0,-2.374241114E0,1.184886575E0
2.484747531E1,2.844938993E0,-1.487788439E0,1.500634074E0
2.486947531E1,2.518719435E0,-2.495471686E-1,2.179218054E0
2.488947531E1,1.549433470E0,2.838254273E-1,2.618569851E0
2.490947531E1,5.970596671E-1,-3.830823302E-1,2.164749384E0
2.492947531E1,8.950048089E-1,-8.952142596E-1,1.295557857E0
2.495147531E1,1.091476560E0,8.763298392E-2,8.546353579E-1
2.497347375E1,4.848349988E-1,-2.884854674E-1,4.544139206E-1
2.499347531E1,-3.142290711E-1,-7.313278317E-1,1.999972761E-1
2.501547531E1,-9.671043754E-1,-8.817054033E-1,4.846604764E-1
2.503747531E1,-1.266672730E0,-3.674441576E-1,9.003804326E-1
2.505947375E1,-1.307478547E0,-3.190461919E-2,8.186815977E-1
2.507947531E1,-1.285696745E0,-1.059188008E0,4.508185387E-1
2.509948938E1,-1.326781869E0,-2.796331644E0,1.188394651E-1
2.512147375E1,-1.229462266E0,-3.965440512E0,-2.839999795E-1
2.514147844E1,-6.948155761E-1,-4.515603065E0,-5.297772288E-1
2.516347375E1,1.283340603E-1,-4.960941315E0,-4.373969734E-1
2.518348313E1,1.367063999E0,-2.647175789E0,1.487369537E-1
2.520547375E1,1.240318179E0,2.374136448E0,5.589242578E-1
2.522547375E1,1.935919225E-1,2.077465296E0,-2.507340014E-1
2.524547375E1,-5.304753780E-1,8.795062900E-1,-9.044645429E-1
2.526547375E1,-7.584153414E-1,-8.448441029E-1,-6.042504311E-1
2.528547375E1,-1.461434007E0,-2.879898071E0,-7.905468941E-1
2.530547531E1,-8.892278075E-1,-3.137334108E0,-1.382492781E0
2.532548625E1,-5.409124494E-1,-3.448631048E0,-1.529344797E0
2.534747375E1,-1.784319878E0,-2.779402018E0,-1.325036526E0
2.536747375E1,-1.735799789E0,-9.140114784E-1,-3.968355060E-1
2.538747375E1,-2.574884295E-1,8.881806135E-1,1.500634104E-1
2.540747531E1,7.524638176E-1,2.232625186E-1,4.571540952E-1
2.542947531E1,5.582784414E-1,-9.934064746E-1,3.566405773E-1
2.544947531E1,1.165356338E-1,-1.312766790E0,-8.201301843E-2
2.546947531E1,-1.480737329E-1,-1.129140735E0,-3.503050208E-1
2.548947531E1,-2.077988982E-1,-1.025642753E0,-3.680201173E-1
2.550947531E1,-2.164208293E-1,-1.056936502E0,-5.437223911E-1
2.552947531E1,-2.335948646E-1,-1.118424416E0,-6.692639589E-1
2.554947531E1,-3.005631566E-1,-1.183036566E0,-5.878617764E-1
2.557147375E1,-4.203450978E-1,-1.287005782E0,-3.499908745E-1
2.559147531E1,-3.952647150E-1,-1.160888314E0,-1.621934474E-1
2.561147531E1,-3.025877178E-1,-9.290562272E-1,-1.454208344E-1
2.563347375E1,-1.706757396E-1,-8.585448861E-1,-3.860668242E-1
2.565347375E1,-1.554215699E-1,-8.579689264E-1,-6.176720262E-1
2.567347375E1,-2.511703372E-1,-1.038261414E0,-7.186393142E-1
2.569347531E1,-2.994461358E-1,-1.051141977E0,-8.424704075E-1
2.571547375E1,-1.393470913E-1,-7.508057356E-1,-8.762076497E-1
2.573547375E1,-1.134464052E-3,-4.713436067E-1,-7.775616050E-1
2.575547375E1,-5.337216705E-2,-1.199390292E-1,-7.197389007E-1
2.577547531E1,-6.503096968E-2,2.836683691E-1,-7.208733559E-1
2.579547531E1,4.588470608E-2,6.342700720E-1,-7.550469041E-1
2.581747375E1,3.594505489E-1,7.812093496E-1,-8.792794347E-1
2.583747375E1,1.020668507E0,3.456973732E-1,-7.869514823E-1
2.585747375E1,1.715641141E0,-6.918135881E-1,-1.974141896E-1
2.587747375E1,2.049662352E0,-1.602875471E0,5.594478250E-1
2.589747844E1,2.459186316E0,-1.814130068E0,1.114863992E0
2.591947531E1,2.822476625E0,-1.469898820E0,1.755679011E0
2.593947531E1,2.543799877E0,-1.203421950E0,2.218749762E0
2.595947531E1,1.523829460E0,-8.995601535E-1,2.093086004E0
2.597947531E1,8.912872672E-1,-1.299519777E0,1.654467463E0
2.599947531E1,9.470505714E-1,-2.139180183E0,1.376960039E0
2.601947531E1,1.195690155E0,-2.583628416E0,1.246339560E0
2.603947531E1,1.202706337E0,-2.258037090E0,1.330202699E0
2.606147531E1,9.744521976E-1,-8.649153709E-1,1.821216106E0
2.608347531E1,7.376110554E-1,1.181483150E0,2.371239185E0
2.610547375E1,2.457947135E-1,2.033867121E0,2.527742863E0
2.612547375E1,-2.026327252E-1,5.670574903E-1,2.462729454E0
2.614547375E1,-1.066221669E-1,-1.784616590E0,2.283571243E0
2.616547375E1,3.773925304E-1,-2.699500799E0,1.776239038E0
2.618547375E1,3.999945521E-1,-2.066487312E0,1.257178068E0
2.620547375E1,-7.784168422E-2,-1.219950199E0,9.144477844E-1
2.622547531E1,-6.007248759E-1,-6.859667301E-1,7.006973028E-1
2.624747375E1,-8.486139774E-1,-9.478359818E-1,3.378957510E-1
2.626747531E1,-6.490879655E-1,-1.703930020E0,-2.442239225E-1
2.628947531E1,-8.737118542E-2,-2.646268129E0,-8.131489158E-1
2.630947531E1,1.537809670E-1,-2.734337568E0,-1.184397936E0
2.632947531E1,-3.854210675E-1,-2.695207119E0,-1.255991340E0
2.634947531E1,-1.025887132E0,-1.213021278E0,-8.675682545E-1
2.636947531E1,-1.090569019E0,1.329190373E0,-4.657236636E-1
2.638947531E1,-8.281063437E-1,2.810870171E0,-8.876744658E-2
2.640947531E1,-6.325771213E-1,1.244315028E0,1.207767874E-1
2.642947531E1,-1.741838604E-1,-2.320485115E0,-1.197295859E-1
2.644947531E1,1.170016408E0,-5.014592648E0,3.238458335E-1
2.647147531E1,8.947954178E-1,-3.980170965E0,-7.131415606E-2
2.649147531E1,-8.640252352E-1,-7.042054534E-1,-5.527108908E-1
2.651347375E1,-1.790323853E0,2.402026892E0,-8.177042007E-1
2.653347375E1,-1.741402268E0,2.417263508E0,-3.352253735E-1
2.655347375E1,-1.461434007E0,9.537526369E-1,1.613382399E-1
2.657347375E1,-9.585697055E-1,-9.854652286E-1,-1.398706883E-1
2.659347375E1,-4.384267032E-1,-2.097309828E0,-7.100348473E-1
2.661347375E1,-5.291314721E-1,-2.669446230E0,-7.827103734E-1
2.663347531E1,-4.431914687E-1,-8.940100074E-1,-6.019640565E-1
2.665348156E1,6.274458766E-2,1.243512154E0,-4.293859005E-1
2.667350656E1,3.009471297E-1,2.066941023E0,-5.685235262E-1
2.669547375E1,2.480112948E-2,1.571511865E0,-8.213868737E-1
2.671547375E1,-1.903281510E-1,7.806508541E-1,-7.121466994E-1
2.673547375E1,-2.969677746E-1,4.808556736E-1,-7.140141726E-1
2.675547375E1,-5.370203853E-1,4.345171750E-1,-7.937757373E-1
2.677547375E1,-9.074839354E-1,3.683866560E-1,-6.470633745E-1
2.679547531E1,-9.962339401E-1,3.703064919E-1,-4.077961743E-1
2.681747375E1,-1.023932338E0,5.376312137E-1,-3.345796168E-1
2.683747375E1,-1.135371566E0,8.325220346E-1,-4.844510257E-1
2.685747375E1,-6.993883252E-1,1.273601651E0,-6.062052250E-1
2.687747375E1,1.094059587E0,1.756516814E0,-4.899488389E-1
2.689747531E1,2.164592266E0,9.149714112E-1,-4.543964565E-1
2.691947531E1,2.077919245E0,-6.284756064E-1,-7.840716839E-1
2.693947531E1,1.425602436E0,-1.406770229E0,-1.137658000E0
2.696147531E1,6.091024280E-1,-9.506633878E-1,-1.196545362E0
2.698347531E1,-1.381951720E-1,6.273411512E-1,-8.897688389E-1
2.700547375E1,-7.064568996E-1,2.151380062E0,5.068436265E-2
2.702547531E1,-1.012029171E0,3.014969110E0,1.369158387E0
2.704747531E1,1.416736126E0,2.758283377E0,1.993968844E0
2.706947531E1,2.817624569E0,1.658760905E0,2.306888819E0
2.708947531E1,2.541496038E0,2.087116957E0,2.353314638E0
2.710947531E1,1.490965009E0,2.348654747E0,1.970494151E0
2.712947531E1,1.273496985E0,2.097885847E0,1.101808906E0
2.714947531E1,1.111652613E0,2.756590366E0,1.512676835E0
2.716947531E1,4.398404360E-1,2.215468645E0,1.442374945E0
2.719147531E1,-1.907994002E-1,3.899240196E-1,5.411044359E-1
2.721147531E1,-3.073175848E-1,9.859364629E-1,3.070732355E-1
2.723347375E1,1.758768260E-1,2.619931221E0,6.212150455E-1
2.725347375E1,7.881906629E-2,3.115849018E0,8.947604895E-1
2.727347531E1,-9.120392799E-1,1.745276928E0,6.513918042E-1
2.729547531E1,-1.320585966E0,-4.673642516E-1,9.217432737E-1
2.731747375E1,-1.043933749E0,-3.809530139E-1,1.451153994E0
2.733747375E1,-6.704158783E-1,-1.501332223E-1,1.836836815E0
2.735747375E1,-3.545287251E-1,9.436995536E-2,1.798090577E0
2.737747375E1,-4.793372154E-1,-7.044149190E-2,1.389788270E0
2.739747531E1,-5.577548742E-1,-1.151428580E0,3.196395934E-1
2.741947531E1,-2.026327252E-1,-3.161245108E0,-6.411641240E-1
2.743947531E1,1.544965506E-1,-3.067660570E0,-6.283359528E-1
2.745947531E1,3.231477141E-1,-1.655270219E0,-5.678952336E-1
2.747947531E1,1.341983676E-1,-3.014358282E-1,-5.246285200E-1
2.749947531E1,-3.245963454E-1,8.944288492E-1,-6.687752604E-1
2.751947531E1,-2.883458436E-1,1.785820842E0,-7.607715726E-1
2.753947531E1,-5.338787436E-1,1.737894177E0,-1.125213742E0
2.755947844E1,-1.970214963E0,1.154500365E0,-1.836819410E0
2.758147375E1,-3.683622122E0,5.036321878E-1,-2.085284472E0
2.760147375E1,-1.014036298E0,6.435622215E0,-5.085365772E-1
2.762147375E1,-5.048015714E-1,7.730970860E0,7.393040061E-1
2.764147375E1,4.563337862E-1,-4.228513718E0,4.850968122E-1
2.766147531E1,1.070986390E0,-5.173313141E0,2.780134976E-1
2.768147531E1,1.260878205E0,3.954741657E-1,1.590518504E-1
2.770347531E1,5.329014063E-1,3.909153461E0,-6.953566074E-1
2.772547531E1,-2.930407785E-2,4.164181232E0,-1.744212270E0
2.774747375E1,7.576125264E-1,2.315126896E0,-2.341376543E0
2.776747375E1,1.233860493E0,-9.783966541E-1,-2.266798735E0
2.778747531E1,-4.258254170E-1,-5.656611919E-1,-9.762150049E-1
2.780947531E1,-5.576326847E-1,-2.242399007E-1,-3.774274588E-1
2.783147375E1,2.971073985E-1,5.293583870E-1,-1.563151836E0
2.785147531E1,7.557624578E-1,1.823572397E0,-2.063921690E0
2.787347531E1,9.611179233E-1,-8.497309685E-1,-2.226865530E0
2.789547375E1,9.928654432E-1,-3.089302540E0,-2.444211483E0
2.791547375E1,2.257408798E-1,-3.619184494E0,-2.569752932E0
2.793547531E1,-6.184399724E-1,-3.836914301E0,-2.705330133E0
2.795747375E1,-1.691433430E0,-2.363263130E0,-2.337013245E0
2.797747531E1,-1.525889039E0,1.431571364E0,-1.473162651E0
2.799947531E1,6.984109282E-1,7.402063370E0,2.547831535E-1
2.801947531E1,1.120902777E0,8.728199959E0,1.601287246E0
2.803947531E1,1.305994987E0,1.601549029E0,2.826281548E0
2.806147531E1,2.436654121E-1,-4.821489334E0,4.398438931E0
2.808347531E1,-3.899414539E-1,4.138454914E0,5.769971371E0
2.810547375E1,1.966375232E0,3.699522018E0,4.359797478E0
2.812547375E1,1.946513295E0,-1.025887132E0,1.752397776E0
2.814547375E1,8.288568258E-2,-2.515909672E0,1.113328099E0
2.816547531E1,-2.700896859E-1,5.640607357E0,1.428778887E0
2.818547531E1,-1.041263416E-1,7.066000462E0,1.196213722E0
2.820747375E1,-1.277912617E0,2.599056959E0,1.504124701E-1
2.822747375E1,-1.444609046E0,2.041406870E0,-3.616671264E-1
2.824747375E1,-1.708223581E0,1.570726514E0,-1.021261930E0
2.826747375E1,-2.465312481E0,-3.649832606E-1,-1.501960516E0
2.828747375E1,-2.505332947E0,-1.965694547E0,-1.316222548E0
2.830747375E1,-1.943895340E0,3.360282481E-1,-8.122064471E-1
2.832747531E1,-1.821617603E0,2.228314161E0,3.469714522E-2
2.834947531E1,-2.124432325E0,3.361364603E0,1.283951402E0
2.837147375E1,-1.669494748E0,8.865051270E0,1.293603182E0
2.839147531E1,4.475373328E-1,-2.721299887E0,-6.238155961E-1
2.841347531E1,5.405372143E0,-8.826514244E0,-2.104308605E0
2.843547531E1,2.862130642E0,-2.021894217E0,-1.283131123E0
2.845547531E1,3.252752781E0,6.763499975E-1,-8.289964795E-1
2.847747375E1,2.217947006E0,1.996499538E0,-6.437821388E-1
2.849747375E1,1.939898491E0,7.079055160E-2,-5.134758353E-1
2.851747375E1,2.683827639E0,-2.941316128E0,-1.174519300E0
2.853747531E1,2.108619452E0,-4.154075623E0,-2.398606062E0
2.855747531E1,-3.210777521E0,-1.651029110E0,-3.407353878E0
2.857947531E1,-7.525685430E-1,5.828875899E-1,-2.712643147E0
2.859947531E1,2.309367180E0,4.158770442E-1,-2.170055151E0
2.861947531E1,1.994911313E0,-1.517511368E0,-9.377828836E-1
2.863947531E1,1.834864616E-1,-2.187019825E0,2.351831198E-1
2.865947531E1,-1.253076553E0,4.436627030E-1,1.236391187E0
2.867947531E1,-1.294475794E0,9.762446404E0,2.418973923E0
2.869947531E1,7.559544444E-1,5.741086006E0,3.457148075E0
2.871947531E1,8.223991394E-1,-2.272558212E0,2.685660362E0
2.873947531E1,1.003913358E-1,3.995023727E0,1.706705093E0
2.875947531E1,-9.112014771E-1,8.847493172E0,6.197140813E-1
2.877947531E1,-4.806636870E-1,8.097681999E0,-2.571393549E-1
2.879947531E1,-1.220805407E0,4.520507336E0,-4.979249835E-1
2.881947531E1,-3.801362038E0,-1.837482601E-1,3.938335478E-1
2.883947531E1,-4.645892143E0,1.319713235E0,2.212012768E0
2.885947531E1,-2.418537617E0,3.795323133E0,3.470953703E0
2.887947531E1,-9.651321769E-1,-9.983632565E-1,3.431160212E0
2.889947531E1,-4.277452826E-1,-5.158216000E0,2.343662977E0
2.891947531E1,-8.088554144E-1,-3.176830769E0,1.275818229E0
2.893947531E1,1.253268600E0,2.489014149E0,8.881631494E-1
2.895947531E1,9.371370673E-1,3.823230982E0,5.382595211E-2
2.897947531E1,2.100084782E0,-4.523020685E-1,-4.046231747E0
2.899947531E1,2.690686941E0,-5.117828846E0,-4.695755959E0
2.901947531E1,2.365409851E0,-4.813408852E0,-2.676427603E0
2.903947531E1,2.012748480E0,-2.084586382E0,-5.636366010E-1
2.906147375E1,1.773481369E0,6.855478883E-1,-7.108551264E-1
2.908147375E1,1.998855829E0,1.888132095E0,-2.076994181E0
2.910147531E1,2.374782324E0,1.468904018E0,-2.179776669E0
2.912147688E1,2.491858959E0,4.629485905E-1,-1.861219049E0
2.914347375E1,2.263342857E0,-2.435257882E-1,-1.930526137E0
2.916347531E1,1.975119352E0,-9.163501859E-1,-2.278160810E0
2.918547375E1,6.686356068E-1,-1.259167790E0,-2.763850927E0
2.920547375E1,-1.628287435E0,-1.377902508E0,-2.739346504E0
2.922547531E1,-2.247146368E0,7.827627063E-1,-1.673107505E0
2.924747375E1,6.467142701E-1,2.277602196E0,-2.482556254E-1
2.926747375E1,3.266034722E-1,2.633911371E0,1.041263461E0
2.928747375E1,-1.161376953E0,4.186102390E0,2.206166029E0
2.930747375E1,-2.216917276E0,4.230206966E0,2.320973635E0
2.932747531E1,-2.170107365E0,4.709805965E0,1.514736295E0
2.934947375E1,-1.935256004E0,6.404869556E0,6.845006943E-1
2.936947531E1,-2.080537081E0,4.913136959E0,-1.722116321E-1
2.938947531E1,-2.359370947E0,7.519925833E-1,-1.240702152E0
2.941148469E1,-2.396005392E0,-3.199450254E0,-1.683265328E0
2.943347375E1,-2.574570179E0,-4.656468391E0,-1.354061365E0
2.945347375E1,-8.384561539E-1,-1.844202161E0,-6.684262156E-1
2.947347375E1,2.786592543E-1,4.024903774E-1,-8.079478145E-1
2.949347531E1,-9.630727023E-2,-3.879814625E0,-9.579239488E-1
2.951547531E1,1.363800287E0,-2.558443308E0,-3.266209066E-1
2.953747375E1,2.527568340E0,-2.888816595E0,3.852116168E-1
2.955747531E1,-9.599310579E-4,9.976302087E-2,1.670105577E0
2.957947531E1,3.046123087E-1,4.818504810E0,1.023443580E0
2.959947531E1,1.967631817E0,5.251975060E0,9.141685367E-1
2.961947531E1,2.920092821E0,-1.406857491E0,-2.658660114E-1
2.963947531E1,3.388626575E0,-4.415560722E0,-1.492640495E0
2.965947688E1,2.626266718E0,-5.484261036E0,-1.476862669E0
2.968147531E1,2.017408609E0,-4.048989296E0,-1.382806897E0
2.970347531E1,1.650173903E0,-2.802422762E0,-1.661448717E0
2.972347844E1,5.034053326E-1,-2.508107901E0,-1.898359656E0
2.974547375E1,-8.675333261E-1,-4.033822536E0,-1.402319670E0
2.976547375E1,-1.731558561E0,-4.134248734E0,-4.801575243E-1
2.978547375E1,-3.299213409E0,8.496786356E-1,8.813912421E-2
2.980547531E1,2.647804022E0,4.590617180E0,2.507863641E-1
2.982747531E1,-1.330063105E0,8.345640898E-1,2.065736771E0
2.984947531E1,-2.962417126E0,2.501370907E0,2.775213242E0
2.986947531E1,-1.904538155E0,3.661316872E0,2.732539892E0
2.988947531E1,-9.835802913E-1,4.057977676E0,1.809347868E0
2.991147375E1,-1.519885063E0,3.134768486E0,3.344748914E-1
2.993147375E1,-2.347764492E0,2.238908291E0,-7.046068907E-1
2.995148156E1,-3.304327250E0,-4.648509920E-1,-7.925190926E-1
2.997347375E1,-4.078520298E0,-2.010671616E0,3.294832408E-1
2.999347375E1,-3.166009903E0,-6.165550351E-1,1.670699000E0
3.001347375E1,-1.129367590E0,2.994985104E0,1.840362430E0
3.003347375E1,7.795687318E-1,4.921828397E-3,1.539205909E-1
3.005347375E1,1.267161369E0,-5.718065262E0,-5.750859901E-2
3.007347531E1,1.557287455E0,-5.475481987E0,2.223025858E-1
3.009547531E1,1.435533285E0,-3.317329884E0,1.887922585E-1
3.011747375E1,3.646184683E0,1.154299641E1,2.614695311E0
3.013747375E1,4.241569042E0,4.995219707E0,1.525086164E0
3.015747375E1,5.907415867E0,-1.798439622E0,6.930702180E-2
3.017747375E1,4.787176132E0,-6.234211445E0,-1.166595578E0
3.019747531E1,5.360255241E-1,-5.956511974E0,-9.994453192E-1
3.021948781E1,-9.151808619E-1,-2.308197975E0,7.002784610E-1
3.024147688E1,1.472167730E0,2.100730658E0,1.772608757E0
3.026148000E1,2.325529099E0,3.751026630E0,2.138604403E0
3.028347531E1,1.484577060E-1,4.186137199E0,1.655689120E0
3.030348469E1,-8.948128223E-1,1.941137791E0,2.024913549E0
3.032547375E1,-4.883256555E-1,-3.335551023E0,2.776696682E0
3.034547375E1,-1.776954651E0,5.111894608E-1,2.773834229E0
3.036547531E1,-2.811289072E0,1.262693405E0,2.863945723E0
3.038747531E1,-5.558350086E-1,-4.132939503E-2,1.713110447E0
3.040947531E1,-1.449146867E-1,1.947927117E0,1.043724298E0
3.042947531E1,3.088883758E-1,-1.126295924E0,5.115734339E-1
3.044947531E1,9.208357334E-1,-1.131182790E0,5.229006410E-1
3.046947531E1,9.163851142E-1,-6.099053025E-1,1.086886287E0
3.048947531E1,6.424731612E-1,1.235448718E0,8.227831125E-1
3.050947531E1,2.696708143E-1,3.806929588E0,-1.275137514E-1
3.052947531E1,1.052957103E-1,4.095153332E0,-1.428272724E0
3.054947531E1,3.408627957E-2,2.537481785E0,-2.156808138E0
3.056947531E1,-2.158623189E-1,2.065317869E0,-2.874661922E0
3.058947531E1,-3.991742432E-1,1.830780506E0,-3.925262928E0
3.060947531E1,-1.174240112E0,1.917680502E0,-4.689682007E0
3.062947531E1,-2.296556473E0,2.275961637E0,-4.221549988E0
3.064947531E1,-2.802963972E0,-6.450562477E-1,-3.170757055E0
3.066947531E1,-2.575844049E0,-1.460735917E0,-1.871027827E0
3.068947531E1,-1.427923679E0,5.122384071E0,-1.063673496E0
3.070947531E1,-2.553626060E0,3.949837208E0,-9.476963282E-1
3.072947531E1,-7.643843889E-1,-7.264060378E-1,-8.568868637E-1
3.074947531E1,-4.851666093E-1,-3.309685230E0,-5.024453998E-1
3.076947531E1,-2.310990393E-1,-2.242399007E-1,-7.924492955E-1
3.078950031E1,-4.148298502E-1,1.488905430E0,-1.354445338E0
3.081147688E1,-1.748994440E-1,1.514736295E0,-2.242172241E0
3.083347375E1,-4.382521659E-2,1.020738363E0,-3.265196800E0
3.085347375E1,-2.703515068E-2,-3.203551769E-1,-4.702946663E0
3.087348156E1,-3.039141893E-1,-1.946111917E0,-6.128810883E0
3.089547375E1,-2.341952562E0,-1.845703125E0,-5.164237022E0
3.091547375E1,-2.966954947E0,3.122219443E-1,-3.803822994E0
3.093547375E1,-3.808413029E0,2.836997747E0,-3.039438486E0
3.095547531E1,-1.110395908E0,5.337443829E0,-8.947779536E-1
3.097747375E1,7.303679585E-1,1.158165574E0,7.367907166E-1
3.099747531E1,3.655801535E0,-3.319982767E0,1.947787404E0
3.101947531E1,4.902123928E0,-5.445427418E0,3.402135372E0
3.103947531E1,5.567670345E0,-5.096291542E0,4.549252987E0
3.106147531E1,5.277770996E0,-2.213513851E0,6.148219109E0
3.108150969E1,4.528204441E0,4.323180616E-1,8.424320221E0
3.110347375E1,2.690390110E0,3.731531382E0,8.340422630E0
3.112347531E1,3.566405773E-1,4.556112289E0,4.833514690E0
3.114547531E1,1.507353544E0,2.783643007E0,2.244632959E0
3.116547531E1,2.229640722E0,-7.998843789E-1,2.957617521E0
3.118547531E1,2.535055876E0,-3.585883617E0,2.797657967E0
3.120747375E1,2.529016972E0,-3.501182795E0,2.659393072E0
3.122747375E1,1.942481637E0,-2.975088358E-1,1.674957514E0
3.124747375E1,9.827948809E-1,3.403741121E-1,-1.438465476E0
3.126747375E1,-1.211258471E-1,-3.698352724E-2,-2.731283188E0
3.128747375E1,-7.362496853E-1,-2.150245607E-1,-2.961771488E0
3.130747375E1,-1.381044149E0,1.492605507E-1,-2.844066381E0
3.132747531E1,-2.104500532E0,1.030529618E0,-2.467965364E0
3.134947375E1,-2.791793823E0,2.239711285E0,-1.787775636E0
3.136947531E1,-2.857610226E0,2.728752375E0,-1.061264873E0
3.138947531E1,-1.621986866E0,6.196913719E0,-3.440567553E-1
3.140947531E1,-2.258281559E-1,7.802616596E0,7.117452621E-1
3.142947531E1,2.408554405E-1,3.407109499E0,1.287267566E0
3.145147844E1,-2.562841475E-1,1.628392190E-2,2.555336654E-1
3.147350656E1,-1.140782118E0,-1.519134641E-1,-1.620223999E0
3.149547375E1,-7.291985750E-1,8.753873110E-1,-2.704178333E0
3.151547531E1,-3.180688024E-1,2.067290068E0,-3.023294210E0
3.153747531E1,-2.381327152E0,3.175731182E0,-2.999086618E0
3.155747531E1,-2.366020679E0,9.594947696E-1,-2.300274134E0
3.157947531E1,-4.931951463E-1,-2.923583508E0,-2.021388054E0
3.159947531E1,-3.427652121E-1,5.214956284E0,-2.193128347E0
3.161947531E1,-3.306526244E-1,5.213734627E0,-1.629753590E0
3.163947531E1,-3.458718956E-1,4.261622906E0,-1.341494918E0
3.165947531E1,7.097904682E-1,2.150088549E0,-1.692253828E0
3.167947531E1,1.413664341E0,-6.328912973E-1,-1.303726077E0
3.169947531E1,8.529249430E-1,-1.217192635E-1,-5.780530348E-2
3.171947531E1,7.410667837E-2,1.106154799E0,8.637634516E-1
3.173947531E1,9.501572698E-2,9.100320935E-1,1.421797514E0
3.175947531E1,1.284457564E0,4.987226009E0,1.413629413E0
3.177947531E1,1.094164371E0,4.984608173E0,3.315026045E0
3.179947531E1,3.249628544E-1,1.872511387E0,5.067092419E0
3.181947531E1,1.500127912E0,-1.058088422E0,5.634219646E0
3.183947531E1,1.686179996E0,-1.094443560E0,6.553100586E0
3.185947531E1,4.364021122E-1,3.045250416E0,6.302523613E0
3.187947531E1,-8.244935274E-1,4.769635677E0,2.596962690E0
3.189947531E1,-1.199896455E0,2.364868879E0,1.030075908E0
3.191947531E1,6.513045430E-1,-7.064220309E-1,1.271297812E0
3.193947531E1,8.102865815E-1,-2.196147680E0,1.164658219E-1
3.195947531E1,4.897568524E-1,-2.441698074E0,-7.586422563E-1
3.197947531E1,4.734554589E-1,-2.461298227E0,-1.524806857E0
3.199947531E1,7.462853193E-1,-2.721020699E0,-1.987301707E0
3.201947531E1,6.949377656E-1,-2.492068291E0,-2.072054863E0
3.203947531E1,2.238035649E-1,-1.658586383E0,-2.219343185E0
3.206147531E1,-1.055836916E0,4.284608662E-1,-2.197404385E0
3.208147531E1,-2.127067566E0,3.617386818E0,-1.740128160E0
3.210147531E1,-1.171412587E0,2.152444839E0,-1.200611949E0
3.212347531E1,1.998925656E-1,-2.318058968E0,-5.156750083E-1
3.214547375E1,4.586027265E-1,-3.909781933E0,-3.193254471E-1
3.216547531E1,-5.456073880E-1,-2.565093040E0,-5.883504823E-2
3.218747375E1,-1.548333883E0,7.381172180E-1,-7.122688740E-2
3.220747375E1,3.848451078E-1,2.358201504E0,-1.445726037E0
3.222747375E1,-9.901776314E-1,4.714797497E0,-2.071601152E0
3.224747375E1,-1.074058175E0,3.245317459E0,-2.295963287E0
3.226747375E1,1.033566475E0,-1.002709150E0,-3.225787401E0
3.228747375E1,5.976356268E-1,-3.516088009E0,-3.536438465E0
3.230747375E1,-1.401691318E0,-3.010117054E0,-3.174719095E0
3.232747531E1,-2.138080597E0,-1.042624831E0,-2.720916033E0
3.234947531E1,-9.689020514E-1,3.322408676E0,-2.448208332E0
3.236947531E1,7.517482042E-1,3.520800352E0,-1.697018504E0
3.238947531E1,9.750630856E-1,2.615934372E0,-8.177042007E-1
3.240947531E1,6.253165603E-1,-7.822914720E-1,2.265611887E-1
3.242947531E1,3.971845806E-1,5.602506921E-2,1.131060600E0
3.244947531E1,8.765741587E-1,1.454749346E0,1.680211067E0
3.247147531E1,1.490511179E0,1.663595438E0,2.194646835E0
3.249147531E1,1.307984591E0,1.695726991E0,2.941211462E0
3.251347375E1,1.504386544E0,9.092467427E-1,4.029895306E0
3.253347375E1,2.092562437E0,-6.180734634E-1,5.391129971E0
3.255347375E1,1.033130169E0,-7.468962073E-1,7.216081142E0
3.257347531E1,-2.014633566E-1,1.756010652E0,6.189775467E0
3.259547375E1,-1.405880213E0,4.609379768E0,1.968312502E0
3.261547375E1,-9.998118877E-1,2.715714931E0,2.262644768E-1
3.263547375E1,-3.028146178E-2,-1.941312313E0,-3.107907772E-1
3.265547531E1,-7.424630970E-2,-4.028464317E0,-7.620282173E-1
3.267547688E1,-4.716228545E-1,-3.927776098E0,-1.037371397E0
3.269747375E1,-6.033777595E-1,-4.037871361E0,-1.348790407E0
3.271747375E1,-7.010987401E-1,-3.798918486E0,-1.873872757E0
3.273747375E1,-1.190576315E0,-2.467371941E0,-2.061286211E0
3.275747531E1,-1.691555619E0,-7.439989448E-1,-1.884414554E0
3.277947531E1,-8.059756160E-1,2.895501137E0,-9.213418365E-1
3.279947688E1,1.007962584E0,5.468413353E0,7.192502022E-1
3.282147531E1,1.054650068E0,1.893856764E0,1.489167213E0
3.284147688E1,-4.196993113E-1,-1.428866148E0,1.253931761E0
3.286347375E1,-5.274908543E-1,-2.734564304E0,4.182157815E-1
3.288347375E1,5.793620348E-1,-2.424506664E0,-2.440511227E0
3.290347375E1,-1.110308647E0,-7.463027835E-1,-3.564677954E0
3.292347375E1,-1.373050570E0,1.103065491E0,-2.370645761E0
3.294347375E1,1.657015532E-1,-1.218431830E0,-2.221821547E0
3.296347375E1,5.317494869E-1,-3.286367655E0,-2.565738678E0
3.298347531E1,-1.528472066E0,-2.070518970E0,-2.621275187E0
3.300547375E1,-1.980983615E0,2.043082416E-1,-2.189358473E0
3.302547531E1,-1.039448261E0,4.080859184E0,-1.727666497E0
3.304747531E1,5.447521806E-1,4.556757927E0,-1.047651291E0
3.306947531E1,8.318239450E-1,2.770640373E0,-3.101100922E-1
3.308947531E1,3.919311464E-1,4.648335278E-1,2.805791199E-1
3.311147531E1,5.995554924E-1,-4.759163857E-1,1.075227499E0
3.313147531E1,1.728591561E0,-1.146768570E0,2.213828087E0
3.315147531E1,2.153893471E0,-9.282010198E-1,3.444407225E0
3.317147531E1,2.047620296E0,-4.703662172E-2,4.722023010E0
3.319147531E1,1.251627922E0,-2.084970325E-1,6.263270855E0
3.321147531E1,1.123834968E0,-1.123992056E-1,5.943875790E0
3.323347375E1,1.499935985E-1,1.522136569E0,3.804363966E0
3.325347375E1,-2.871590257E-1,3.471128225E0,1.776919723E0
3.327347531E1,8.855800331E-2,1.030058384E0,1.072085977E0
3.329547531E1,4.670326412E-1,-7.624819875E-1,2.511005104E-1
3.331547531E1,1.612160653E-1,-1.516446710E0,-7.218856215E-1
3.333747531E1,-3.978303373E-1,-2.066469908E0,-1.378129482E0
3.335947531E1,-8.973610401E-1,-2.277707100E0,-1.792837143E0
3.337947531E1,-1.179947257E0,-2.557518244E0,-2.086174488E0
3.339947531E1,-1.589628458E0,-1.566520214E0,-2.075196505E0
3.341947531E1,-1.632772923E0,-4.213224724E-2,-1.527983427E0
3.343949562E1,-8.566948771E-1,-6.938905716E-1,-9.022828341E-1
3.346147531E1,-9.993231893E-1,-2.894454002E-1,-4.808033109E-1
3.348148469E1,-6.307445168E-1,6.431817532E0,1.113450289E0
3.350347375E1,2.242224514E-1,8.322427869E-1,1.549416065E0
3.352347375E1,8.425576687E-1,-2.535526991E0,1.396472812E0
3.354347375E1,1.629579067E0,-3.271165848E0,6.490705013E-1
3.356347531E1,1.865809321E0,-2.661662102E0,-7.596719861E-1
3.358547531E1,-2.478367416E-3,-2.375445366E0,-1.396368146E0
3.360747375E1,-1.582943797E0,-1.437802196E0,-9.019512534E-1
3.362747531E1,-1.233057618E0,-8.480729461E-1,-9.966702461E-1
3.364748156E1,-4.852887988E-1,-8.652120829E-1,-1.364027143E0
3.366947531E1,-7.478736043E-1,-6.593853831E-1,-1.343746424E0
3.368948469E1,-1.605580688E0,2.634574473E-1,-1.606593013E0
3.371147531E1,-1.732850194E0,8.745495677E-1,-1.829646111E0
3.373347375E1,-1.711085916E0,1.594881892E0,-2.127416611E0
3.375347375E1,-1.612596989E0,1.815945268E0,-1.889720321E0
3.377347375E1,-9.291609526E-1,1.439460278E0,-1.509779572E0
3.379347375E1,2.104517967E-1,6.872757673E-1,-1.137116909E0
3.381347375E1,1.000126004E0,5.198986530E-1,-9.340652823E-1
3.383347375E1,1.306885123E0,1.539205909E-1,-6.129246950E-1
3.385347375E1,9.844180346E-1,-4.991641734E-3,-4.187393785E-1
3.387350031E1,8.413534164E-1,-2.481683642E-1,-1.193456128E-1
3.389547375E1,1.208727717E0,9.991660714E-1,4.397182465E-1
3.391547375E1,1.906458020E0,2.840593100E0,1.463825107E0
3.393549406E1,2.715086460E0,4.113060474E0,2.503081322E0
3.395747375E1,1.949881792E0,2.808880568E0,3.883322716E0
3.397747531E1,-5.286602303E-2,-4.501727819E-1,4.775395393E0
3.399947531E1,1.980425119E-1,-2.933671474E0,4.432351112E0
3.401947531E1,5.170363188E-1,-2.417560339E0,3.443342686E0
3.403947531E1,-9.543460608E-2,-9.060527682E-1,2.108113289E0
3.406147531E1,-9.014974833E-1,2.615812302E0,5.058662295E-1
3.408347531E1,-1.107184529E0,2.461141109E0,2.309943289E-1
3.410547375E1,-5.384689569E-1,-9.541714936E-2,1.099033803E-1
3.412547375E1,-4.410097897E-1,-1.604550958E0,-3.144559562E-1
3.414547375E1,-7.886444926E-1,-2.351516962E0,-4.838227332E-1
3.416547531E1,-8.439888358E-1,-2.026589155E0,-4.675911665E-1
3.418747531E1,-4.985184073E-1,-1.563239098E0,-3.872711062E-1
3.420947531E1,-2.792701423E-1,-1.621585369E0,-3.079109788E-1
3.422947531E1,-4.402942061E-1,-1.463894963E0,-3.948458433E-1
3.424947531E1,-9.184446335E-1,-1.065785289E0,-4.786739945E-1
3.426947531E1,-1.430977941E0,-5.745100379E-1,-9.659175873E-1
3.428947531E1,-1.333867908E0,7.028790116E-1,-1.688483834E0
3.431148625E1,-4.643797576E-1,2.844206095E0,-2.199132204E0
3.433347375E1,4.432787299E-1,4.489213943E0,-1.137814999E0
3.435347375E1,5.429195762E-1,3.349094868E0,4.574333429E-1
3.437348000E1,-1.200262904E-1,-6.907140613E-1,-1.637118869E-2
3.439547375E1,-1.284736872E0,-2.629652739E0,3.258529678E-2
3.441547375E1,6.193649769E-1,-3.091798306E0,3.649483323E-1
3.443547375E1,1.566118836E0,-2.715994120E0,4.187044799E-1
3.445547375E1,1.159998178E0,-5.046968460E-1,1.504473835E-1
3.447547375E1,1.109488368E0,1.729725957E0,-6.923197508E-1
3.449547375E1,7.277499437E-1,2.254843235E0,-1.178603411E0
3.451547375E1,-3.978478014E-1,6.653020382E-1,-7.733553648E-1
3.453547375E1,-1.161307216E0,-7.756592035E-1,-9.194219708E-1
3.455547375E1,-1.242185712E0,-1.378426075E0,-1.087968469E0
3.457547375E1,-1.128809094E0,-8.300960660E-1,-9.308713675E-1
3.459547375E1,-2.509783395E-2,4.849571884E-1,-7.685731649E-1
3.461547375E1,7.878416181E-1,1.183891773E0,-6.362597942E-1
3.463547375E1,6.429094672E-1,1.137500882E0,-7.301585078E-1
3.465547531E1,3.394141793E-1,5.384864211E-1,-9.064890742E-1
3.467747375E1,5.345943570E-2,3.748967126E-2,-9.618858695E-1
3.469747531E1,5.068436265E-2,8.913396299E-2,-1.010301232E0
3.471947531E1,3.735528290E-1,1.162214726E-1,-9.024050236E-1
3.473947531E1,7.666009665E-1,6.438519806E-2,-5.800950527E-1
3.475947531E1,9.998991489E-1,-9.677850455E-2,-8.623671532E-2
3.477947531E1,8.885471225E-1,3.023957312E-1,4.553913176E-1
3.479947531E1,8.474795222E-1,1.283759475E0,6.789156199E-1
3.481947531E1,1.116312623E0,1.837552428E0,8.588765264E-1
3.483947531E1,1.534336448E0,1.449094534E0,1.441415071E0
3.485947531E1,1.257143259E0,1.423839629E-1,2.297568798E0
3.487947531E1,1.222603172E-1,-1.031332493E0,2.960898638E0
3.489947531E1,-4.435056150E-1,-1.236373782E0,2.610628605E0
3.491947531E1,3.986332119E-1,-1.328823924E0,1.481679797E0
3.493947531E1,6.832091212E-1,-8.527329564E-1,9.558295608E-1
3.495947531E1,4.666835964E-1,6.466444731E-1,1.062242270E0
3.498147531E1,-2.115339041E-1,1.507615447E0,1.050251842E0
3.500347375E1,-7.727445364E-1,3.870965838E-1,5.374217629E-1
3.502347375E1,-9.326865077E-1,1.506393701E-1,8.667305112E-2
3.504347375E1,-1.116993308E0,1.093204379E0,-3.126582801E-1
3.506347531E1,-1.551894426E0,1.797933459E0,-6.597693563E-1
3.508547531E1,-2.280866146E0,8.030259609E-1,-6.599090099E-1
3.510747375E1,-1.652442813E0,-9.898809195E-1,-2.517113984E-1
3.512747375E1,-7.275230289E-1,-1.999676108E0,-1.697507203E-1
3.514747375E1,-4.730191231E-1,-2.032313824E0,-2.527760267E-1
3.516747531E1,-1.279343843E0,4.227187335E-1,-1.138129234E-1
3.518747531E1,-9.915913343E-1,3.189920902E0,1.988104582E-1
3.520947531E1,-4.583758116E-1,1.225674868E0,2.937389016E-1
3.522947531E1,-9.346587062E-1,-2.584518433E0,-8.522442728E-2
3.525147531E1,-6.927909851E-1,2.161817074E0,-1.507091820E-1
3.527147531E1,2.723935366E0,-1.837535024E0,1.746934891E0
3.529147531E1,2.659654856E0,-4.647706985E0,1.735572815E0
3.531147531E1,1.991822124E0,-2.323225260E0,5.586450100E-1
3.533147531E1,1.320201993E0,8.694706559E-1,-8.559094667E-1
3.535347531E1,7.896567583E-1,2.410387039E0,-1.428010941E0
3.537547531E1,-4.066617042E-2,2.919935882E-1,-5.226911902E-1
3.539547688E1,-5.566552877E-1,-1.423734903E0,-7.585549951E-1
3.541747375E1,-7.861137390E-1,-3.686833382E-1,-9.058084488E-1
3.543747375E1,5.132315159E-1,2.709693432E0,-3.181386292E-1
3.545747375E1,1.590797782E0,1.862336159E0,1.948136538E-1
3.547747375E1,1.342262864E0,1.054178834E0,-1.561197042E-1
3.549747375E1,1.258801222E0,1.523829460E0,-4.224569499E-1
3.551747375E1,1.377012372E0,1.882302642E0,-4.138873816E-1
3.553747375E1,1.209862232E0,2.041598797E0,-2.086192071E-1
3.555747531E1,1.001626968E0,2.232555389E0,-2.946988344E-1
3.557947531E1,9.484119415E-1,1.758279562E0,-8.986002207E-1
3.559947531E1,6.192777157E-1,7.784342766E-1,-1.284405231E0
3.561947531E1,-7.373666763E-1,-2.338741161E-2,-1.253600240E0
3.563947688E1,-1.725624442E0,3.413863853E-2,-1.601147652E0
3.566147531E1,-5.071403384E-1,-1.554721832E0,-1.820675135E0
3.568147531E1,6.298893094E-1,-4.681374550E0,-2.096786261E0
3.570347531E1,7.702835798E-1,-3.198909283E0,-1.836522698E0
3.572547531E1,1.468171000E0,1.380345941E0,-6.705031395E-1
3.574747375E1,5.797809362E-1,4.493978500E0,9.723054767E-1
3.576747531E1,6.745697558E-2,5.198184013E0,7.007147670E-1
3.578947531E1,2.732312977E-1,3.888226986E0,1.808510125E-1
3.580947531E1,5.978800058E-1,3.343125820E0,-1.686860770E-1
3.582947531E1,7.116405368E-1,3.705787659E0,6.909758598E-2
3.584947531E1,6.693686843E-1,3.911666870E0,5.041906834E-1
3.586948625E1,9.616764262E-3,2.781531334E0,5.319763422E-1
3.589147531E1,-1.008346558E0,-1.356434941E0,-4.511850774E-1
3.591347531E1,-8.634492755E-1,-4.535202980E0,-7.207337022E-1
3.593547375E1,-4.594928324E-1,-5.150030136E0,-7.732332349E-1
3.595547531E1,-5.224992037E-1,-3.851854324E0,-7.544534802E-1
3.597747531E1,-1.461311817E0,-5.380151868E-1,-4.805240333E-1
3.599947531E1,-3.203185320E0,5.460611582E-1,-1.951976269E-1
3.601947531E1,-3.805341244E0,1.817411333E-1,-3.003362417E-1
3.604147531E1,-1.556030869E0,-1.836505294E0,-1.368809342E0
3.606147531E1,-1.179947257E0,-2.031772614E0,-1.000527501E0
3.608148156E1,-1.378687978E0,1.152318716E0,-4.922526479E-1
3.610347375E1,-4.463854134E-1,2.020236015E0,-1.329068244E-1
3.612347375E1,-6.784443855E-1,1.677959561E-1,5.222025141E-2
3.614347531E1,1.244245246E-1,2.545388043E-1,5.200906396E-1
3.616547375E1,1.422565460E0,-5.574406981E-1,8.500626087E-1
3.618547375E1,1.649039388E0,-2.835409641E0,6.924594045E-1
3.620547375E1,1.564705133E0,-2.996974707E0,7.286400795E-1
3.622547531E1,1.381689906E0,-2.205590010E0,3.296228945E-1
3.624547531E1,8.184023499E-1,-7.894124389E-1,-4.710643739E-2
3.626747531E1,3.147875965E-1,1.245711327E0,-4.564035833E-1
3.628947531E1,-3.172484934E-1,2.469518661E0,-7.658330202E-1
3.630947531E1,-7.216936350E-1,2.298877954E0,-6.507983804E-1
3.632947531E1,-2.917317748E-1,2.273378611E0,-3.490658477E-3
3.634947531E1,8.127474785E-1,1.457454681E0,6.787236333E-1
3.636948312E1,1.111774683E0,-4.893030524E-1,7.417125702E-1
3.639147531E1,1.149177194E0,-1.192304254E0,1.157816529E0
3.641147531E1,1.162877917E0,-6.974335909E-1,1.334862709E0
3.643347375E1,1.070375562E0,-2.461088747E-1,9.750281572E-1
3.645347375E1,5.780006647E-1,-3.001791835E-1,6.157346964E-1
3.647349250E1,-3.532371819E-1,-1.244978309E0,4.516039491E-1
3.649547375E1,-1.346067786E0,-1.191204667E0,7.972489595E-1
3.651547375E1,-1.119140029E0,-1.638689637E-1,8.663116097E-1
3.653548469E1,-8.348956704E-1,-3.697305620E-1,-8.941321820E-2
3.655747531E1,-6.375687718E-1,-1.338213801E0,-1.464627981E0
3.657947531E1,-3.457322717E-1,-1.667522430E0,-1.786100149E0
3.659947531E1,1.449146867E-1,-1.470021009E0,-1.238991737E0
3.661947531E1,6.621604562E-1,-1.018329859E0,-2.029468864E-1
3.663947531E1,5.078035593E-1,-4.470486343E-1,7.081149817E-1
3.665947688E1,-1.806939393E-1,-6.452482194E-2,1.009760261E0
3.668150969E1,-5.019741654E-1,6.913772821E-1,8.846724629E-1
3.670347531E1,-4.032932222E-1,1.822996438E-1,9.477486610E-1
3.672547531E1,-4.006577730E-1,-1.292224288E0,6.100623608E-1
3.674747375E1,-2.481509149E-1,-1.070427895E0,1.844289452E-1
3.676747531E1,-1.148915291E0,-5.805663466E-1,2.693741024E-1
3.678947531E1,-1.331633806E0,-4.962983131E0,-5.264611244E-1
3.680947531E1,1.276411653E0,-2.942991734E0,-7.646287680E-1
3.682947531E1,1.486287475E0,9.184446335E-1,-7.711562514E-1
3.684947531E1,7.010289431E-1,1.009358764E0,-4.870864749E-1
3.686947531E1,-3.085742146E-2,1.259604096E-1,1.484227926E-1
3.688947531E1,-6.517931819E-1,2.135584801E-1,3.042981625E-1
3.690947531E1,-2.709274590E-1,1.093728065E0,-5.097757578E-1
3.692947531E1,5.253266692E-1,2.209901094E0,-8.911127448E-1
3.695147375E1,8.197811246E-1,2.734232903E0,-1.470178127E0
3.697147531E1,6.108826995E-1,1.364899874E0,-1.868793845E0
3.699347375E1,1.748819947E-1,-1.019080281E0,-1.722011685E0
3.701347375E1,-2.000845522E-1,-5.530250072E-1,-1.409231186E0
3.703347375E1,5.535835028E-1,1.555227995E0,-4.697204530E-1
3.705347375E1,9.832661152E-1,-2.452885658E-1,5.119225383E-1
3.707347844E1,6.960896850E-1,-1.696634531E0,8.489281535E-1
3.709547375E1,3.216641843E-1,-1.434102178E0,1.045015931E0
3.711547375E1,-8.061675727E-2,9.260717034E-2,7.846476436E-1
3.713547531E1,-9.478883147E-1,1.158287764E0,3.202853799E-1
3.715547531E1,-4.245513380E-1,-1.378810108E-1,-7.415031195E-1
3.717747375E1,5.908114314E-1,7.504217625E-1,-1.354637265E0
3.719747375E1,7.582757473E-1,1.783551931E0,-1.269133568E0
3.721747375E1,4.219857156E-1,1.539345503E0,-1.046813607E0
3.723747375E1,-7.119198143E-2,1.081807375E0,-1.034980297E0
3.725747531E1,-5.404062867E-1,1.350396156E0,-1.177486420E0
3.727947531E1,-4.477467537E-1,2.590400219E0,-1.535907149E0
3.729947531E1,-2.398780584E-1,3.310016870E0,-1.486845970E0
3.731947531E1,-4.824788272E-1,3.672242641E0,-1.233738303E0
3.733947531E1,-1.161813378E0,3.784222841E0,-1.017334938E0
3.735947531E1,-1.907330751E0,3.662835121E0,-8.757189512E-1
3.737947531E1,-2.237913609E0,3.560105085E0,-8.575326204E-1
3.739947531E1,-2.112354517E0,3.579687834E0,-1.018783569E0
3.742147375E1,-1.159492016E0,1.520653009E0,6.963863503E-3
3.744147375E1,-6.712710857E-1,-1.181779861E0,1.051822662E0
3.746147531E1,-1.469462514E0,-2.967234254E-1,7.417823672E-1
3.748347531E1,-2.171224594E0,2.738037586E0,1.179580808E0
3.750547375E1,-8.292931914E-1,4.069060802E0,1.317496657E0
3.752547375E1,1.010720134E-1,3.733747959E0,6.799977422E-1
3.754547375E1,3.271445036E-1,2.385655642E0,-4.152138159E-2
3.756547375E1,1.535715163E-1,9.033300281E-1,-4.368908107E-1
3.758547531E1,-1.734857261E-1,2.830924094E-2,-2.825513482E-1
3.760747375E1,-2.973168492E-1,-2.609441876E-1,-3.867300451E-1
3.762747531E1,-9.349030852E-1,4.217064381E-1,-6.686356068E-1
3.764947531E1,-9.793042541E-1,4.922177494E-1,-2.025279999E-1
3.767147688E1,-5.939006209E-1,6.620382667E-1,1.074424684E-1
3.769347375E1,-5.528854132E-1,2.386929750E0,2.622008026E-1
3.771347531E1,-2.551322281E-1,3.097924471E0,6.774844527E-1
3.773547375E1,-8.084364980E-2,2.876232862E0,5.246808529E-1
3.775547375E1,-1.173559353E-1,1.696913838E0,1.428377479E-1
3.777547375E1,-3.132866025E-1,7.580662966E-1,-1.757721156E-1
3.779547375E1,-3.353475630E-1,7.878940105E-1,-1.954768747E-1
3.781547375E1,-2.081479728E-1,1.620939612E0,5.181882530E-2
3.783547375E1,-1.071806699E-1,1.827656388E0,1.640958488E-1
3.785547375E1,-2.898991853E-2,1.368739605E0,2.333330661E-1
3.787547688E1,9.735446423E-2,9.848369360E-1,2.902657092E-1
3.789747531E1,3.128153682E-1,1.079922438E0,4.584805369E-1
3.791947531E1,4.895474017E-1,1.215586901E0,7.383440733E-1
3.793947531E1,3.801501691E-1,1.448518515E0,9.044819474E-1
3.795947531E1,4.927413464E-1,1.944331646E0,8.440237641E-1
3.797947531E1,1.384150863E0,2.475383043E0,8.144928217E-1
3.799947531E1,2.469745636E0,2.449080944E0,9.987646341E-1
3.801947531E1,2.941001892E0,2.316383600E0,1.072609544E0
3.803947531E1,2.683897495E0,2.447527647E0,1.204870582E0
3.806147531E1,2.001560926E0,2.428887367E0,1.433316708E0
3.808347531E1,1.700666308E0,1.344235182E0,1.277738094E0
3.810547375E1,1.457140446E0,7.319736481E-1,6.349856853E-1
3.812547375E1,1.015013695E0,1.747807622E0,2.600366175E-1
3.814547375E1,1.035870314E0,2.200825214E0,2.863387167E-1
3.816547375E1,1.188708901E0,1.603503823E0,2.098583877E-1
3.818547375E1,9.684308171E-1,1.195899606E0,-5.911429971E-2
3.820547375E1,5.489584208E-1,1.308525681E0,-2.400176823E-1
3.822547375E1,1.297303289E-1,1.537600160E0,-3.164281845E-1
3.824547531E1,-2.590243220E-1,1.504107237E0,-3.417354524E-1
3.826747531E1,-6.239726543E-1,1.089329839E0,-4.965461791E-1
3.828947531E1,-9.061225653E-1,4.295429885E-1,-8.382118344E-1
3.831147375E1,-1.119436741E0,-2.472258806E-1,-1.220107317E0
3.833147375E1,-1.252378464E0,-4.856029451E-1,-1.491942286E0
3.835147531E1,-1.303761005E0,-2.040464431E-1,-1.740145564E0
3.837347375E1,-1.261768341E0,6.400296688E-1,-1.798928261E0
3.839347375E1,-1.128809094E0,9.574701786E-1,-1.590152025E0
3.841347531E1,-5.690471530E-1,-5.345594287E-1,-8.214915991E-1
3.843347531E1,-1.008573413E0,-1.967160553E-1,2.003463507E-1
3.845547375E1,-1.287826061E0,1.602997661E0,6.736097932E-1
3.847547531E1,-1.044981003E0,1.644309640E0,9.926036596E-1
3.849747375E1,-7.408573627E-1,7.939677238E-1,1.172739029E0
3.851747375E1,1.176002845E-1,-4.055027962E0,3.872187436E-1
3.853747375E1,1.492361188E0,-3.281864643E0,-2.644173801E-1
3.855747531E1,1.075733662E0,-1.994387656E-1,-6.921626925E-1
3.857947531E1,-2.333854288E-1,2.849878311E0,-9.911899567E-1
3.859947531E1,-1.301369786E0,4.110320091E0,-9.095434546E-1
3.861947531E1,-2.216044426E0,2.131256342E0,-1.028522551E-1
3.863947531E1,-1.197557688E0,2.248507738E-1,-2.462484986E-1
3.865947531E1,3.285233378E-1,-6.387381554E-1,-5.616644025E-1
3.867947531E1,-4.380950928E-1,-1.190716028E0,-1.062957883E0
3.869947531E1,-1.983252525E0,-2.604729235E-1,-9.108349681E-1
3.871947531E1,-1.481487870E0,8.503243923E-1,-1.673945338E-1
3.873947531E1,-1.202182770E-1,1.419860244E0,1.387536712E-2
3.875947531E1,3.685786426E-1,9.202597737E-1,1.786170006E-1
3.877947531E1,9.168214351E-2,-1.011418328E-1,2.748719156E-1
3.879947531E1,-1.525592357E-1,-7.004355192E-1,2.970550358E-1
3.881947531E1,-2.961998284E-1,-5.276653767E-1,3.274586797E-1
3.883947531E1,-3.704286814E-1,1.610938832E-2,2.042035162E-1
3.885947531E1,-4.724082649E-1,6.240773797E-1,-5.021312088E-2
3.887947531E1,-6.429269314E-1,1.171517372E0,-2.724633515E-1
3.890147531E1,-8.828049898E-1,1.526552200E0,-5.477541089E-1
3.892347531E1,-8.011934161E-1,1.875722766E0,-7.703359723E-1
3.894547531E1,-3.589269519E-1,1.913055420E0,-9.015323520E-1
3.896747375E1,-5.707226694E-3,1.512467384E0,-9.261764288E-1
3.898747375E1,-1.420174390E-1,1.283200979E0,-5.954889059E-1
3.900747375E1,-3.600090742E-1,1.415531874E0,-9.122835845E-2
3.902747375E1,-3.434807807E-2,1.535505772E0,2.029468864E-1
3.904747531E1,3.133040667E-1,2.038631916E0,3.870965838E-1
3.906947531E1,8.245633245E-1,2.719484806E0,6.716550589E-1
3.908947531E1,1.937699437E0,2.966291666E0,9.378177524E-1
3.911147531E1,3.394263983E0,2.006325722E0,1.425305724E0
3.913347375E1,3.492805243E0,3.495894372E-1,2.402916908E0
3.915347375E1,3.006940603E0,-1.303324580E0,3.118659019E0
3.917347375E1,2.830243349E0,-2.581062794E0,3.103457212E0
3.919347375E1,2.565075397E0,-1.690735340E0,2.333644867E0
3.921347531E1,1.708188653E0,1.516883135E0,1.320620775E0
3.923547375E1,8.870286942E-1,3.079371691E0,1.119611263E0
3.925547375E1,1.120274425E0,1.379176617E0,1.205097437E0
3.927547375E1,1.497125983E0,-1.172494769E0,1.041926622E0
3.929547375E1,1.226408005E0,-6.025050879E-1,7.076088190E-1
3.931547375E1,9.351299405E-1,1.229514599E0,4.693539441E-1
3.933547375E1,9.145525098E-1,2.928435564E0,5.545608997E-1
3.935547375E1,8.766963482E-1,3.879989147E0,5.655739307E-1
3.937547531E1,7.303504944E-1,3.529055834E0,2.921681106E-1
3.939747375E1,4.142364562E-1,2.587450504E0,-1.169196069E-1
3.941747531E1,-2.303834632E-2,1.826539397E0,-5.069308877E-1
3.943947531E1,-5.307022929E-1,1.005763412E0,-1.087636828E0
3.945947531E1,-8.651248217E-1,4.431914687E-1,-1.733530879E0
3.947947531E1,-1.015223145E0,-7.295475900E-2,-2.275874376E0
3.949947531E1,-9.868440628E-1,-4.954291582E-1,-2.776574373E0
3.951947531E1,-9.829170704E-1,-1.113903999E0,-3.057397842E0
3.953947531E1,-1.110360980E0,-3.052580953E-1,-2.473655224E0
3.956147375E1,-9.016370773E-1,1.076222420E0,-7.269994617E-1
3.958147375E1,-7.294603586E-1,4.028394520E-1,4.400149584E-1
3.960147531E1,-1.044038534E0,-2.110801190E-1,3.980572522E-1
3.962148156E1,-7.604050636E-1,-6.206216216E-1,3.284186125E-1
3.964347375E1,-6.508158445E-1,8.911651373E-2,7.533713579E-1
3.966347531E1,-7.903549075E-1,-2.090607643E0,6.929480433E-1
3.968349875E1,3.818082213E-1,-1.570028424E0,-2.488141358E-1
3.970547375E1,6.653369665E-1,5.690646172E-1,-8.086110353E-1
3.972547375E1,5.143485218E-2,1.943825483E0,-1.212567449E0
3.974547531E1,-6.211103201E-1,2.540780544E0,-1.151969671E0
3.976747375E1,-9.172927141E-1,1.461887717E0,-6.298718452E-1
3.978747375E1,-7.393912673E-1,-3.718249500E-1,-4.503473043E-1
3.980747375E1,-4.694063067E-1,-1.795071125E0,-6.411467195E-1
3.982747531E1,-1.579453111E0,-1.776465893E0,-1.172948480E0
3.984947531E1,-3.208473682E0,1.088736415E0,-1.102611780E0
3.986947531E1,-1.818022251E0,3.221424103E0,-2.658834457E-1
3.988947531E1,4.290542901E-1,3.059509754E0,1.380904466E-1
3.991147531E1,5.017297864E-1,7.223568559E-1,2.478367463E-2
3.993347375E1,1.743234843E-1,-1.164064765E0,-1.867327690E-1
3.995347375E1,7.541567832E-2,-1.613452196E0,-3.722263575E-1
3.997347375E1,-3.055547774E-1,-9.178512096E-1,-5.159193277E-1
3.999347375E1,-4.625646174E-1,-4.672246426E-2,-4.319515228E-1
4.001347375E1,-5.917015076E-1,5.924171209E-1,-4.063126445E-1
4.003347375E1,-9.581683278E-1,1.172704220E0,-3.258180618E-1
4.005347375E1,-1.078508735E0,1.481505275E0,-3.258005977E-1
4.007349406E1,-7.729539871E-1,1.486863494E0,-4.383569062E-1
4.009547375E1,-2.626197040E-1,1.464959502E0,-7.158642411E-1
4.011547375E1,-9.546951391E-3,1.305314302E0,-8.976228237E-1
4.013547375E1,-1.285085976E-1,8.436048627E-1,-7.116929293E-1
4.015547531E1,-1.564513147E-1,5.334249735E-1,-2.372251451E-1
4.017747375E1,7.110471278E-2,1.363084674E0,7.005751878E-2
4.019747375E1,2.715208828E-1,2.446166277E0,2.577502131E-1
4.021747375E1,9.491624236E-1,2.789908886E0,5.053251982E-1
4.023747375E1,2.013167381E0,2.770099401E0,7.626390457E-1
4.025747531E1,3.262945414E0,1.736078978E0,1.104217410E0
4.027947531E1,3.422206640E0,7.854155898E-1,1.878236055E0
4.029947531E1,2.839999676E0,-1.243197992E-1,2.799386024E0
4.031947531E1,2.383055210E0,-1.300706625E0,3.383739710E0
4.033947531E1,2.007442713E0,-1.064057469E0,3.260275126E0
4.035947531E1,1.381724834E0,1.658638716E0,2.456568480E0
4.037947531E1,6.383192539E-1,4.348540306E0,1.331686258E0
4.039947531E1,2.100678235E-1,5.328525066E0,9.323723316E-1
4.041947531E1,3.774274588E-1,3.596303225E0,1.209303737E0
4.043947531E1,7.541916966E-1,-6.981316837E-4,1.177870393E0
4.045947531E1,8.907462358E-1,-1.475326777E0,7.908086777E-1
4.047947531E1,7.900931239E-1,-8.460483551E-1,4.877671599E-1
4.049947531E1,5.784893632E-1,9.384635091E-2,4.473802447E-1
4.051947531E1,3.482978940E-1,4.592833817E-1,4.162784815E-1
4.053947531E1,3.907792270E-2,3.255737126E-1,2.777691483E-1
4.055947531E1,-3.543716371E-1,1.174606606E-1,6.908012927E-2
4.057947531E1,-7.458140850E-1,-1.633279175E-1,-5.371774435E-1
4.059947531E1,-1.135389090E0,-6.187541485E-1,-1.350326300E0
4.061947531E1,-1.565734863E0,-1.136157036E0,-2.160612822E0
4.063947531E1,-1.663333654E0,-1.652966380E0,-2.853037357E0
4.065947531E1,-9.576796293E-1,-2.107519865E0,-2.625970125E0
4.067947531E1,-5.006825924E-1,-1.003861070E0,-1.423420668E0
4.069947531E1,-5.471956134E-1,-8.652295470E-1,-3.405137360E-2
4.071947688E1,-1.521263838E0,2.086663246E0,2.493202835E-1
4.074147531E1,-7.583106756E-1,3.525390625E0,5.104389787E-1
4.076147531E1,-8.237954229E-2,1.274561644E0,6.908362508E-1
4.078347531E1,-1.101826355E-1,-3.479610443E0,5.573359728E-1
4.080547531E1,8.424530029E-1,-4.522427559E0,-8.435350657E-1
4.082747531E1,5.997824073E-1,-4.659016609E0,-1.205708385E0
4.084947531E1,-5.382595658E-1,-2.990796089E0,-1.109785080E0
4.086947531E1,-1.127430320E0,-6.517408490E-1,-9.286547899E-1
4.089147531E1,-1.012325883E0,1.164989829E0,-5.966058969E-1
4.091347531E1,-7.566525936E-1,1.702184677E0,-2.691646814E-1
4.093547375E1,-1.422181487E0,2.036554813E0,-1.152615398E-1
4.095547375E1,-3.336144447E0,2.883022070E0,-2.899515331E-1
4.097547375E1,-2.394923449E0,2.528510809E0,-5.449267030E-1
4.099547375E1,-4.299443960E-1,1.332332015E0,-5.673716068E-1
4.101547531E1,6.879564524E-1,-1.340063810E-1,-4.689350724E-1
4.103747375E1,5.349259377E-1,-1.271018624E0,-5.794492960E-1
4.105747531E1,1.233249679E-1,-1.758541346E0,-6.916914582E-1
4.107947531E1,-1.222603172E-1,-1.727300048E0,-8.214566708E-1
4.110147531E1,-3.283662498E-1,-1.272763848E0,-7.844207883E-1
4.112347375E1,-6.101845503E-1,-4.091226161E-1,-6.837502122E-1
4.114347531E1,-8.207934499E-1,3.644945621E-1,-6.274633408E-1
4.116347531E1,-9.714153409E-1,9.120741487E-1,-6.296449900E-1
4.118347531E1,-8.187513947E-1,1.252238870E0,-8.515461683E-1
4.120347531E1,-7.813664675E-1,1.730808139E0,-8.903447986E-1
4.122547375E1,-7.902152538E-1,2.373508215E0,-4.421093464E-1
4.124547375E1,2.085319310E-1,2.133106470E0,4.286528751E-2
4.126547375E1,1.516132593E0,1.408306122E0,4.120547771E-1
4.128547375E1,1.920420647E0,1.193560839E0,8.668352365E-1
4.130547531E1,2.407192945E0,5.637762547E-1,1.394954443E0
4.132747531E1,2.903110743E0,-4.475024045E-1,2.175552845E0
4.134947531E1,2.865254641E0,-1.364760160E0,3.154804707E0
4.136947531E1,2.698401213E0,-1.712586880E0,3.375379562E0
4.138947531E1,2.702013969E0,-1.043706894E0,2.719659328E0
4.140947531E1,2.136631966E0,1.261454225E0,1.752677083E0
4.142947531E1,1.093536019E0,3.137665749E0,1.169073939E0
4.144947531E1,4.703138769E-1,3.015352964E0,9.206437469E-1
4.146947531E1,4.874180853E-1,1.522328496E0,8.533438444E-1
4.148947531E1,7.660599351E-1,1.618792862E-1,1.008119583E0
4.150947531E1,8.572184443E-1,-3.735702634E-1,1.007910132E0
4.152947531E1,7.305250168E-1,-2.555336654E-1,8.497309685E-1
4.154947531E1,5.121668577E-1,-9.142034501E-2,7.083069682E-1
4.156947531E1,2.020916790E-1,-3.240378201E-1,5.987002850E-1
4.158947531E1,-2.024756521E-1,-5.861862898E-1,4.527558684E-1
4.160947531E1,-6.474124193E-1,-4.265235662E-1,2.701420486E-1
4.162947531E1,-1.074703932E0,-2.079559863E-1,-1.715484113E-1
4.164947531E1,-1.455971122E0,-3.607420921E-1,-9.455844760E-1
4.166947531E1,-1.837377906E0,-8.823512197E-1,-1.876316190E0
4.168947531E1,-1.872965217E0,-1.831932425E0,-2.684037209E0
4.171147375E1,-6.531022191E-1,-3.470360279E0,-2.155080080E0
4.173147375E1,-6.184225082E-1,-3.309667826E0,-9.275726676E-1
4.175147531E1,-1.277057409E0,-6.734352708E-1,4.085815847E-1
4.177347531E1,-6.769957542E-1,2.119807005E0,1.106224537E0
4.179547375E1,2.164208330E-2,2.247146368E0,9.914517403E-1
4.181547375E1,6.562437862E-3,1.093169570E0,3.536211550E-1
4.183547375E1,-4.740314186E-1,-4.590041339E-1,2.949606394E-3
