"Time (s)","Gyroscope x (rad/s)","Gyroscope y (rad/s)","Gyroscope z (rad/s)"
2.134893750E-1,2.374520451E-1,5.033704042E-1,-6.718645096E-1
2.354800000E-1,-2.336646765E-1,2.890265174E-2,-7.407351732E-1
2.554862500E-1,-8.522617221E-1,3.505144715E-1,-5.512797236E-1
2.774846870E-1,-1.074930787E0,9.640500546E-1,-1.456128210E-1
2.994800000E-1,-7.199657559E-1,1.040984154E0,-8.237954229E-2
3.194800000E-1,-1.157502383E-1,4.031535983E-1,-3.592760265E-1
3.394815620E-1,4.627915025E-1,-3.263241947E-1,-5.867273211E-1
3.594862500E-1,8.944987059E-1,-9.676280022E-1,-7.060031295E-1
3.795018750E-1,1.018120408E0,-1.442619324E0,-7.273834348E-1
4.014800000E-1,8.232718110E-1,-1.069851875E0,-6.055420041E-1
4.214815620E-1,4.356690943E-1,-2.691123188E-1,-5.095489025E-1
4.434800000E-1,-8.592256159E-2,8.811818361E-1,-4.658458233E-1
4.634893750E-1,-5.285904408E-1,1.398113489E0,-3.983888626E-1
4.854800000E-1,-8.062024713E-1,5.286253095E-1,-2.986607552E-1
5.054831250E-1,-7.159340382E-1,-2.340486459E-2,-8.993681520E-2
5.274800000E-1,-3.755424917E-1,-1.564687639E-1,2.998475730E-2
5.474831250E-1,-1.023461074E-1,-2.357939817E-2,-1.634849906E-1
5.694846870E-1,1.042310596E-1,2.265088260E-1,-2.161764801E-1
5.914800000E-1,2.342580855E-1,3.904126883E-1,-1.660506278E-1
6.114800000E-1,2.238210291E-1,3.209660351E-1,-1.121897623E-1
6.314800000E-1,5.834635720E-2,1.719672978E-1,-4.274311289E-2
6.514800000E-1,-8.984954655E-2,1.829105020E-1,5.590289459E-2
6.714815620E-1,-1.054004356E-1,1.709550023E-1,9.129817039E-2
6.934800000E-1,3.413863853E-2,1.497492474E-2,1.081231460E-1
7.134846870E-1,1.124166548E-1,-4.403465614E-2,2.169095129E-1
7.354800000E-1,7.853981853E-2,1.406735331E-1,3.829252422E-1
7.554800000E-1,3.932226822E-2,4.331209064E-1,5.693613291E-1
7.754800000E-1,3.611086309E-2,6.792995930E-1,7.412413359E-1
7.954800000E-1,9.162978828E-2,4.649033546E-1,8.501149416E-1
8.154800000E-1,1.157327816E-1,1.843591332E-1,9.092292786E-1
8.354800000E-1,1.432740837E-1,1.409004331E-1,1.020616174E0
8.554800000E-1,1.393121779E-1,3.941826224E-1,9.763720632E-1
8.754800000E-1,2.705260366E-2,5.193750858E-1,8.768359423E-1
8.954800000E-1,-1.597499847E-1,3.896796703E-1,7.598639727E-1
9.154815620E-1,-4.840670526E-1,-4.082325101E-2,6.792995930E-1
9.374800000E-1,-6.598915458E-1,-4.837878048E-1,6.895796061E-1
9.574800000E-1,-4.095415175E-1,-3.750363588E-1,7.413111329E-1
9.774800000E-1,1.665742248E-1,-2.569822669E-1,8.338310719E-1
9.974800000E-1,6.747268438E-1,-2.377662063E-1,9.562833309E-1
1.017480000E0,1.079590917E0,1.773254573E-2,9.980141521E-1
1.037480000E0,1.406229258E0,5.840919018E-1,1.067949533E0
1.057480000E0,1.459531546E0,1.058175683E0,1.095455885E0
1.077480000E0,1.198500156E0,1.255345464E0,9.708393812E-1
1.097480000E0,8.153305650E-1,1.298367858E0,7.903199792E-1
1.117480000E0,5.571091175E-1,1.281665087E0,6.812019944E-1
1.137480000E0,7.223743200E-1,1.404745698E0,7.916115522E-1
1.157480000E0,1.245693803E0,1.998541594E0,9.661444426E-1
1.177480000E0,1.724716902E0,2.786470413E0,1.161237359E0
1.197480000E0,1.376314282E0,3.447880507E0,1.206930041E0
1.217480000E0,7.007147670E-1,3.127036572E0,1.044108272E0
1.237480000E0,1.701172441E-1,2.868256569E0,7.440513372E-1
1.257481562E0,-9.655161202E-2,2.630368233E0,5.169490576E-1
1.277481562E0,-3.398854136E-1,2.567152500E0,4.988325536E-1
1.299480000E0,-1.125405788E0,2.608883142E0,3.118728697E-1
1.319480000E0,-1.544668794E0,2.407419920E0,9.775589406E-2
1.339480000E0,-1.799992919E0,2.192709446E0,-5.305801053E-3
1.359480000E0,-2.087832689E0,2.260986805E0,4.390375614E-1
1.379506562E0,-2.081462145E0,2.247128963E0,8.073718548E-1
1.401480000E0,-1.795559764E0,2.181190252E0,6.549348235E-1
1.421480000E0,-1.568893909E0,2.190004349E0,3.082425892E-1
1.441480000E0,-1.603468895E0,2.337711334E0,1.190663576E-1
1.461484687E0,-1.729376912E0,3.100437880E0,4.502251446E-1
1.483480000E0,-1.964437842E0,3.320785522E0,5.031784177E-1
1.503480000E0,-2.008524895E0,2.966274261E0,-1.357342601E-1
1.523480000E0,-1.959271669E0,2.189079285E0,-6.766117811E-1
1.543480000E0,-1.915847898E0,1.805420876E0,-6.094515324E-1
1.563480000E0,-1.575072408E0,1.976375937E0,-1.896998286E-1
1.583480000E0,-9.048135877E-1,2.355112314E0,-2.174680233E-1
1.603480000E0,1.675515994E-2,1.936076283E0,-4.067315161E-1
1.623480000E0,8.888787031E-1,1.072731733E0,-5.017297864E-1
1.643480000E0,1.533359051E0,8.989492655E-1,-5.311385989E-1
1.663480000E0,2.171555996E0,1.109680295E0,-3.506366313E-1
1.683480000E0,2.585565567E0,1.502937913E0,-2.429847419E-1
1.703480000E0,2.812633038E0,1.635356069E0,7.593927532E-2
1.723481562E0,2.868902445E0,1.523393154E0,5.166698098E-1
1.745480000E0,2.642480850E0,1.237508297E0,6.224192977E-1
1.765481562E0,2.159530878E0,5.384340882E-1,4.094891548E-1
1.787480000E0,1.393942118E0,-4.758989215E-1,1.571494490E-1
1.807480000E0,7.864977121E-1,-1.143871307E0,4.344124347E-2
1.827481562E0,4.388979375E-1,-1.286796331E0,3.895574808E-2
1.849480000E0,3.660478890E-1,-8.125380278E-1,2.993239649E-2
1.869480000E0,5.230228305E-1,-1.579872072E-1,2.635447076E-3
1.889480000E0,7.225837708E-1,4.416904747E-1,-1.834515631E-1
1.909480000E0,7.833212018E-1,1.142963767E0,-4.458967149E-1
1.929480000E0,8.267799020E-1,1.519012451E0,-4.909087718E-1
1.949480000E0,1.020930290E0,1.629090309E0,-5.002288222E-1
1.969484687E0,1.410732150E0,1.182233691E0,-7.870911360E-1
1.991483125E0,1.829558849E0,5.269148946E-1,-8.197637200E-1
2.013480000E0,1.554320455E0,6.193649769E-1,-7.698647380E-1
2.033486250E0,7.703359723E-1,1.251348734E0,-7.344345450E-1
2.055480000E0,-1.244943365E-1,2.302054405E0,-6.535385251E-1
2.075484687E0,-1.282188654E0,2.865341902E0,-4.422664344E-1
2.097481562E0,-2.928924322E0,1.880313039E0,-6.223145723E-1
2.117484687E0,-3.940098286E0,4.338015914E-1,-1.175653815E0
2.139480000E0,-4.076408386E0,-6.062400937E-1,-1.635879636E0
2.159487812E0,-3.511480331E0,-5.892580748E-1,-1.858112454E0
2.179506562E0,-2.608970404E0,-3.520328924E-2,-1.906632543E0
2.201480000E0,-1.378408670E0,6.897017360E-1,-1.635844707E0
2.221480000E0,-3.486295044E-1,1.064109802E0,-1.368146181E0
2.241480000E0,2.955540419E-1,1.134743214E0,-1.146436930E0
2.261480000E0,6.210230589E-1,8.849866390E-1,-1.030704141E0
2.281480000E0,7.545232773E-1,6.460685134E-1,-1.149595976E0
2.301484687E0,9.534907937E-1,7.451508641E-1,-1.075506806E0
2.323480000E0,1.150084734E0,1.279867411E0,-7.891680598E-1
2.343490937E0,1.273095489E0,1.709497690E0,-2.743133903E-1
2.365480000E0,1.171499848E0,1.696355343E0,-5.071926862E-2
2.385480000E0,9.302081466E-1,1.502047777E0,-3.651228920E-2
2.405480000E0,7.827277780E-1,1.356434941E0,-4.537856206E-2
2.425480000E0,8.654389381E-1,1.022902608E0,2.448347807E-1
2.445480000E0,1.042240858E0,9.914517403E-1,6.092595458E-1
2.465490937E0,1.025503159E0,1.236356378E0,6.887243986E-1
2.487480000E0,8.925613761E-1,8.146848083E-1,9.020385146E-1
2.507480000E0,7.473674417E-1,1.875879914E-1,9.195616245E-1
2.527481562E0,7.261093259E-1,-1.209513173E-1,8.729438782E-1
2.547481562E0,8.482300043E-1,-3.683691919E-1,8.762599826E-1
2.567481562E0,1.026009202E0,-3.599217832E-1,7.123736143E-1
2.589480000E0,1.310393214E0,-3.943396807E-1,5.220105052E-1
2.609480000E0,1.688536286E0,-7.928332686E-1,7.469310760E-1
2.629480000E0,2.007407904E0,-1.343694091E0,1.145703912E0
2.649483125E0,2.275211096E0,-1.734019518E0,1.525836587E0
2.669495625E0,2.417525291E0,-1.876490712E0,1.653332949E0
2.691480000E0,2.454369307E0,-2.015715599E0,1.421640515E0
2.711480000E0,2.509905577E0,-2.302769899E0,9.489704370E-1
2.731480000E0,2.741196632E0,-2.123367548E0,5.138424039E-1
2.751480000E0,2.964057684E0,-1.485903502E0,2.930233181E-1
2.771489375E0,3.394019604E0,-6.257005334E-1,2.625498772E-1
2.793487812E0,3.671736479E0,4.178667367E-1,2.412394136E-1
2.815483125E0,3.687950611E0,1.094181776E0,4.515166879E-1
2.835486250E0,3.535042286E0,1.558142662E0,8.843932152E-1
2.857480000E0,3.130980968E0,1.624081254E0,1.321353912E0
2.877490937E0,2.738142252E0,1.469916344E0,1.541178107E0
2.899484687E0,2.259206533E0,8.695230484E-1,1.642808557E0
2.919487812E0,1.582804203E0,6.248278543E-3,1.432845473E0
2.941480000E0,7.159165740E-1,-9.677501321E-1,7.115532756E-1
2.961484687E0,-1.396263391E-2,-1.661553383E0,-2.476447672E-1
2.983480000E0,-7.247828841E-1,-1.789468646E0,-1.103693843E0
3.003486250E0,-1.156961322E0,-9.459684491E-1,-1.376052499E0
3.025481562E0,-1.351879716E0,4.049163759E-1,-1.268505335E0
3.045484687E0,-1.369088650E0,1.146384597E0,-1.101686716E0
3.067481562E0,-1.392598152E0,1.259202719E0,-1.168096542E0
3.087481562E0,-1.580622554E0,1.260790944E0,-1.458589077E0
3.109480000E0,-1.983845949E0,1.093797803E0,-2.004772425E0
3.129480000E0,-2.422813654E0,9.583253860E-1,-2.401957035E0
3.149480000E0,-2.788617373E0,8.232543468E-1,-2.549297810E0
3.169480000E0,-2.930913925E0,6.106907129E-1,-2.512296677E0
3.189480000E0,-2.808199883E0,3.658559024E-1,-2.259485722E0
3.209480000E0,-2.485732794E0,4.408701509E-2,-1.936093688E0
3.229480000E0,-2.269050121E0,-2.710496262E-2,-1.634465933E0
3.249480000E0,-2.122582197E0,-1.074075624E-1,-1.436004519E0
3.269480000E0,-2.145079374E0,-2.323556840E-1,-1.301614165E0
3.289480000E0,-2.251754045E0,-6.203773022E-1,-9.795137048E-1
3.309480000E0,-2.356456280E0,-1.088876009E0,-7.188138366E-1
3.329490937E0,-2.463217974E0,-1.682706833E0,-7.056715488E-1
3.351481562E0,-2.190388203E0,-1.841828465E0,-6.774669886E-1
3.371487812E0,-1.869736314E0,-1.337149143E0,-7.142410874E-1
3.393480000E0,-1.718590856E0,-7.559021115E-1,-9.346063733E-1
3.413480000E0,-1.556170464E0,-2.303485572E-1,-9.661619067E-1
3.433480000E0,-1.560237050E0,2.438573986E-1,-1.054877043E0
3.453480000E0,-1.298228264E0,7.489382029E-1,-1.186666846E0
3.473480000E0,-8.572009802E-1,1.175514102E0,-1.242971182E0
3.493480000E0,-3.880215883E-1,1.254682302E0,-1.120588660E0
3.513495625E0,-4.700171575E-2,1.186649323E0,-6.730862260E-1
3.535481562E0,3.769911230E-1,1.172128201E0,8.363617957E-2
3.555487812E0,9.465094805E-1,1.372526884E0,7.848920226E-1
3.577480000E0,1.733199239E0,1.752240777E0,1.293027163E0
3.597480000E0,2.334971189E0,1.888219357E0,1.374097705E0
3.617480000E0,2.596980095E0,1.425567508E0,1.299851418E0
3.637480000E0,2.409863472E0,8.167268038E-1,1.220892668E0
3.657480000E0,2.036659718E0,2.296329737E-1,1.306989789E0
3.677480000E0,1.717857718E0,-1.272170544E-1,1.494734883E0
3.697486250E0,1.512205601E0,-2.132617831E-1,1.649597883E0
3.719483125E0,1.547129631E0,-1.784948260E-1,1.668831468E0
3.741480000E0,1.711993456E0,-1.730493903E-1,1.665078998E0
3.761480000E0,2.090887070E0,-1.989151686E-1,1.648987055E0
3.781480000E0,2.680389404E0,-2.089159191E-2,1.557619095E0
3.801480000E0,3.269804478E0,5.489584208E-1,1.269796848E0
3.821484687E0,3.447950363E0,1.175688744E0,8.239350319E-1
3.843480000E0,3.203848600E0,1.254525185E0,4.092448056E-1
3.863497187E0,2.862287521E0,8.215264678E-1,3.154158890E-1
3.885481562E0,2.490951300E0,2.010444701E-1,3.736400902E-1
3.905487812E0,2.133036613E0,-2.347642332E-1,6.288595796E-1
3.927481562E0,1.879230857E0,-4.187393785E-1,9.643467665E-1
3.947481562E0,1.582175851E0,-4.251272976E-1,1.177451491E0
3.969480000E0,1.018399596E0,-2.352354825E-1,1.328719139E0
3.989489375E0,4.375191331E-1,7.522369269E-3,1.337463260E0
4.011480000E0,-1.561022550E-1,1.881290376E-1,1.288279891E0
4.031483125E0,-6.792646646E-1,7.278022822E-3,1.140084028E0
4.053481562E0,-8.943241835E-1,-8.445648104E-2,8.909905553E-1
4.073489375E0,-8.495564461E-1,-2.048492879E-1,6.352300048E-1
4.095480000E0,-7.307868004E-1,-1.558928043E-1,3.406882584E-1
4.115483125E0,-6.460161805E-1,7.805112749E-2,1.326450240E-2
4.137480000E0,-6.454576850E-1,1.414763927E-1,-4.562639594E-1
4.157480000E0,-6.322978735E-1,-4.733332992E-2,-8.055741787E-1
4.177480000E0,-5.062676668E-1,-4.095764160E-1,-1.144412398E0
4.197481562E0,-3.518409133E-1,-6.855129600E-1,-1.493809819E0
4.217481562E0,-2.191086262E-1,-7.302632332E-1,-1.690525889E0
4.239484687E0,-6.632251292E-2,-3.900287151E-1,-1.634343743E0
4.261480000E0,-8.929104358E-2,6.571164727E-2,-1.342961073E0
4.281489375E0,-2.841396034E-1,2.787639797E-1,-1.121583462E0
4.303480000E0,-6.331530809E-1,1.546536237E-1,-1.038837433E0
4.323486250E0,-1.011802316E0,-1.540776640E-1,-1.008503556E0
4.345480000E0,-1.339348197E0,-5.059011579E-1,-1.049623609E0
4.365484687E0,-1.491383791E0,-6.534163356E-1,-1.149875283E0
4.387484687E0,-1.452253580E0,-7.943691611E-1,-1.194538236E0
4.407486250E0,-1.304022789E0,-1.005292177E0,-1.089678884E0
4.429484687E0,-1.263426423E0,-1.568806648E0,-9.131388068E-1
4.451481562E0,-1.357656717E0,-1.923789144E0,-8.174424171E-1
4.473486250E0,-1.410836935E0,-1.903962255E0,-7.773347497E-1
4.495480000E0,-1.336590648E0,-1.395879388E0,-7.667929530E-1
4.515481562E0,-1.160364747E0,-5.983861089E-1,-9.082344174E-1
4.537480000E0,-1.035102367E0,2.897421122E-1,-1.116120577E0
4.557484687E0,-9.718517065E-1,8.875173926E-1,-1.216302514E0
4.579506562E0,-8.179136515E-1,1.166857362E0,-1.362142205E0
4.601480000E0,-5.461484194E-1,1.071736932E0,-1.420017362E0
4.621480000E0,-2.386737764E-1,7.540869713E-1,-1.300078273E0
4.641489375E0,-1.298524998E-2,4.598768055E-1,-1.080079556E0
4.663480000E0,1.613382399E-1,3.668158352E-1,-7.806857824E-1
4.683486250E0,4.403989315E-1,4.632976353E-1,-4.581314623E-1
4.705481562E0,9.118646979E-1,6.908187866E-1,-2.827258706E-1
4.725481562E0,1.283113718E0,8.293106556E-1,-7.190756500E-2
4.747481562E0,1.250231743E0,8.910952806E-1,2.214124650E-1
4.767483125E0,7.930427194E-1,8.877966404E-1,5.258677006E-1
4.789480000E0,2.235243171E-1,5.902878046E-1,9.221970439E-1
4.809480000E0,-3.926990926E-2,3.771132827E-1,1.212776899E0
4.829480000E0,-5.113814771E-2,3.014707267E-1,1.381497860E0
4.849480000E0,-6.524040550E-2,4.573635161E-1,1.632301688E0
4.869480000E0,-1.978330761E-1,6.119648218E-1,1.990059257E0
4.889480000E0,-1.097637564E-1,4.261570275E-1,2.016239166E0
4.909487812E0,2.515717447E-1,2.358812541E-1,1.745346665E0
4.931480000E0,1.033426881E0,3.331484497E-1,1.382754564E0
4.951480000E0,1.623383045E0,6.064320803E-1,1.003232718E0
4.971480000E0,2.176460505E0,5.381199121E-1,8.085412383E-1
4.991481562E0,2.449517250E0,3.343876302E-1,8.116653562E-1
5.013480000E0,2.400630474E0,1.372876018E-1,1.003337383E0
5.033486250E0,2.268072844E0,8.007570356E-2,1.047162652E0
5.055480000E0,2.125828505E0,3.066368997E-1,8.302181959E-1
5.075481562E0,1.751612425E0,8.949001431E-1,5.278398991E-1
5.097481562E0,1.090324640E0,1.579906940E0,3.881786764E-1
5.117490937E0,4.155454338E-1,1.913701177E0,4.905771315E-1
5.139480000E0,-2.111150324E-1,1.793657422E0,5.940228105E-1
5.159490937E0,-5.988224745E-1,1.387781143E0,6.816383600E-1
5.179506562E0,-9.439787865E-1,9.395281672E-1,8.367981315E-1
5.201483125E0,-1.362089872E0,3.323106766E-1,9.712582827E-1
5.223481562E0,-1.759431481E0,-2.408728898E-1,7.310835123E-1
5.243484687E0,-1.981542110E0,-5.925741792E-1,1.887922585E-1
5.265480000E0,-1.630259633E0,-8.905542493E-1,-6.492973566E-1
5.285484687E0,-9.541540742E-1,-9.935286641E-1,-1.104269862E0
5.307480000E0,-2.704387605E-1,-5.367236733E-1,-1.196091533E0
5.327483125E0,3.454530239E-1,1.232726052E-1,-1.333414078E0
5.349480000E0,7.272612453E-1,4.343949854E-1,-1.411151052E0
5.369480000E0,8.103912473E-1,1.923527420E-1,-1.338475585E0
5.389480000E0,8.278270960E-1,-3.090279996E-1,-1.309677601E0
5.409480000E0,8.890183568E-1,-7.410842776E-1,-1.378408670E0
5.429480000E0,1.004698753E0,-9.679770470E-1,-1.360763431E0
5.449480000E0,1.084425449E0,-9.738064408E-1,-1.328055978E0
5.469487812E0,8.520697355E-1,-9.453924894E-1,-1.167677641E0
5.491480000E0,2.834763825E-1,-1.022064805E0,-9.512044191E-1
5.511480000E0,-5.069832206E-1,-1.634483337E0,-9.643642306E-1
5.531480000E0,-1.252570391E0,-2.063171148E0,-1.010737658E0
5.551480000E0,-1.695482612E0,-2.088478327E0,-1.042258263E0
5.571480000E0,-1.749535441E0,-1.772381902E0,-8.848295808E-1
5.591480000E0,-1.564530611E0,-1.242465019E0,-6.049660444E-1
5.611490937E0,-1.276010156E0,-5.337740183E-1,-4.110948443E-1
5.633481562E0,-7.955385447E-1,2.734756470E-1,-3.913377225E-1
5.653481562E0,-3.422765136E-1,7.586247921E-1,-4.826184511E-1
5.675481562E0,5.740387738E-2,9.798452854E-1,-5.269323587E-1
5.695486250E0,3.529579341E-1,9.804212451E-1,-4.644495547E-1
5.717480000E0,6.554583907E-1,7.126004696E-1,-2.702293396E-1
5.737480000E0,6.914645433E-1,3.598694503E-1,-1.152615398E-1
5.757480000E0,4.724431634E-1,3.902556375E-2,-9.407324716E-3
5.777484687E0,2.655344009E-1,-5.256931856E-2,6.471680850E-2
5.799480000E0,1.170592308E-1,1.977632642E-1,2.165430039E-1
5.819486250E0,-3.214896470E-2,5.176297426E-1,4.164181054E-1
5.841480000E0,-1.528210342E-1,7.452381253E-1,7.066838145E-1
5.861487812E0,-1.297826767E-1,8.721933961E-1,9.324247241E-1
5.883480000E0,3.686135262E-2,7.411366105E-1,8.886518478E-1
5.903484687E0,2.443460971E-1,5.654168725E-1,1.111861944E0
5.925480000E0,3.374245167E-1,3.972893059E-1,1.641691566E0
5.945487812E0,3.211754858E-1,2.092475295E-1,1.995487332E0
5.967481562E0,3.097610474E-1,2.699500620E-1,2.037724257E0
5.987484687E0,3.461337090E-1,6.971019506E-1,1.920961738E0
6.009480000E0,4.209385216E-1,1.021227002E0,1.738592267E0
6.029501875E0,6.602231264E-1,9.033300281E-1,1.645444036E0
6.051480000E0,9.516756535E-1,6.859318614E-1,1.466373324E0
6.071480000E0,1.379176617E0,2.754129469E-1,1.277022481E0
6.091489375E0,1.776151776E0,1.106538773E-1,1.023321390E0
6.113480000E0,1.972431540E0,1.394169033E-1,7.518180013E-1
6.133481562E0,1.933179021E0,3.127455413E-1,5.671796203E-1
6.153487812E0,1.712464690E0,7.260220647E-1,4.275183976E-1
6.175480000E0,1.278069735E0,1.109470844E0,2.732661963E-1
6.195490937E0,9.346063733E-1,1.181343555E0,2.070135027E-1
6.217480000E0,6.050183773E-1,1.078334212E0,1.759990007E-1
6.237480000E0,3.132691383E-1,8.879886270E-1,2.197194993E-1
6.257486250E0,2.042035200E-2,5.858721137E-1,2.903180718E-1
6.279506562E0,-2.691995800E-1,2.905973233E-2,3.420845270E-1
6.301480000E0,-4.756720364E-1,-4.022634923E-1,3.951599896E-1
6.321490937E0,-5.816833377E-1,-3.792774975E-1,3.020641208E-1
6.343480000E0,-6.278298497E-1,-1.251750141E-1,1.035329327E-1
6.363487812E0,-7.313627601E-1,-1.268854290E-1,-1.772730947E-1
6.385480000E0,-9.210625887E-1,-3.038443625E-1,-5.328664780E-1
6.405489375E0,-1.007212043E0,-5.250822902E-1,-9.109571576E-1
6.427481562E0,-7.309264541E-1,-5.694660544E-1,-1.383644700E0
6.449480000E0,-2.248507738E-1,-4.459839761E-1,-1.506760240E0
6.469480000E0,3.340909183E-1,-4.302062094E-1,-1.244157910E0
6.489486250E0,8.603251576E-1,-4.717275798E-1,-7.685557604E-1
6.511480000E0,9.866520762E-1,-5.612629652E-1,-3.041410744E-1
6.531480000E0,7.233865857E-1,-8.243364692E-1,-1.500983089E-1
6.551480000E0,3.349635899E-1,-1.365213990E0,-2.336821258E-1
6.571484687E0,-2.484999746E-1,-1.894118547E0,-4.592310190E-1
6.593480000E0,-7.796909213E-1,-1.878707290E0,-6.995279789E-1
6.613487812E0,-9.761452079E-1,-1.561022520E0,-7.833037376E-1
6.635480000E0,-9.054768085E-1,-9.287943840E-1,-6.736796498E-1
6.655483125E0,-6.293482780E-1,-2.845584750E-1,-4.565432370E-1
6.677480000E0,-2.669655681E-1,2.088111937E-1,-2.833367586E-1
6.697489375E0,6.419321150E-2,5.819800496E-1,-2.515892088E-1
6.719480000E0,3.551046848E-1,7.300188541E-1,-2.493028343E-1
6.739487812E0,4.488114119E-1,7.854679823E-1,-2.044304162E-1
6.761480000E0,4.957084060E-1,7.237531543E-1,-2.664245069E-1
6.781486250E0,5.883504748E-1,7.232819200E-1,-4.003610611E-1
6.803480000E0,7.821344137E-1,7.267027497E-1,-5.763601065E-1
6.823489375E0,9.809448719E-1,7.804763317E-1,-6.793519258E-1
6.845480000E0,1.231364727E0,9.725497961E-1,-6.240075827E-1
6.865484687E0,1.345369577E0,1.039919496E0,-4.538554251E-1
6.887480000E0,1.116207838E0,9.025970101E-1,-2.621484399E-1
6.907480000E0,7.342425585E-1,5.776690841E-1,-1.082802266E-1
6.927480000E0,2.782752812E-1,2.897770107E-1,-1.491209269E-1
6.947484687E0,4.968952388E-2,-6.742206961E-2,-4.982915148E-2
6.969483125E0,3.618940115E-1,6.895796210E-2,4.428423941E-1
6.991480000E0,7.511722445E-1,5.382071733E-1,9.275552034E-1
7.011480000E0,1.025887132E0,6.855653524E-1,1.337114215E0
7.031483125E0,1.448536038E0,8.373216987E-1,1.607814789E0
7.053480000E0,1.732344031E0,1.229793906E0,1.625686884E0
7.073484687E0,1.740163088E0,1.221555948E0,1.484751582E0
7.095480000E0,1.481016636E0,8.320508003E-1,1.416282296E0
7.115483125E0,1.258172989E0,2.343628109E-1,1.506882310E0
7.137481562E0,1.030704141E0,-4.196993113E-1,1.634692788E0
7.157490937E0,8.482125401E-1,-8.342848420E-1,1.663159132E0
7.179506562E0,6.912202239E-1,-1.146105409E0,1.424590111E0
7.201480000E0,5.738642812E-1,-9.982410669E-1,7.849618196E-1
7.221480000E0,7.746818662E-1,-4.168369770E-1,1.541823894E-1
7.241480000E0,1.176648617E0,4.393517375E-1,-8.836601675E-2
7.261480000E0,1.420104623E0,1.296430588E0,2.516764775E-2
7.281480000E0,1.279186726E0,1.713127971E0,1.814793348E-1
7.301480000E0,8.194495440E-1,1.582210779E0,1.700299680E-1
7.321480000E0,1.744805574E-1,1.067425966E0,1.080009714E-1
7.341490937E0,-5.738642812E-1,4.279372692E-1,1.075297371E-1
7.363480000E0,-1.244245172E0,-2.389181256E-1,1.015956178E-1
7.383490937E0,-1.621498108E0,-6.080552340E-1,1.717403904E-2
7.405480000E0,-1.760234356E0,-9.364738464E-1,-2.509259880E-1
7.425480000E0,-1.638968825E0,-9.132609963E-1,-5.564109683E-1
7.445480000E0,-1.389037728E0,-5.669527650E-1,-7.788182497E-1
7.465480000E0,-1.141672254E0,-8.801695704E-2,-8.054869175E-1
7.485480000E0,-1.045905948E0,2.234894037E-1,-8.849168420E-1
7.505480000E0,-1.003459573E0,1.199041214E-2,-1.005065322E0
7.525487812E0,-8.955633640E-1,-3.388207555E-1,-1.029046178E0
7.547481562E0,-6.075316668E-1,-4.648858905E-1,-9.372243285E-1
7.567486250E0,-1.551423222E-1,-5.034402013E-1,-8.602204323E-1
7.589480000E0,4.373446107E-1,-3.649134338E-1,-7.648207545E-1
7.609480000E0,8.297993541E-1,-1.406735331E-1,-6.415655613E-1
7.629480000E0,9.567196965E-1,-5.417501926E-2,-5.257106423E-1
7.649480000E0,8.693135977E-1,-1.199041158E-1,-5.405110121E-1
7.669480000E0,6.091198921E-1,-4.017747939E-1,-6.041457057E-1
7.689480000E0,2.700547874E-1,-4.807683825E-1,-6.261194348E-1
7.709484687E0,-7.819075137E-2,-4.140095413E-1,-5.660102963E-1
7.731480000E0,-4.435754418E-1,-2.322858721E-1,-4.515690506E-1
7.751480000E0,-6.790378094E-1,-5.420992523E-2,-2.855184078E-1
7.771480000E0,-8.461006880E-1,1.197819486E-1,-2.152165473E-1
7.791481562E0,-9.006771445E-1,3.082425892E-1,-2.447998822E-1
7.811481562E0,-8.105483651E-1,4.536459744E-1,-3.470063508E-1
7.833480000E0,-5.820323825E-1,3.705857694E-1,-4.979598820E-1
7.853480000E0,-3.079633415E-1,9.351474047E-2,-5.058138967E-1
7.873480000E0,2.661627159E-2,-3.323979676E-1,-4.495444596E-1
7.893480000E0,3.229382634E-1,-5.621880293E-1,-4.204498231E-1
7.913480000E0,4.825660884E-1,-5.393067598E-1,-4.113740921E-1
7.933480000E0,5.494296551E-1,-2.003637999E-1,-2.909987569E-1
7.953480000E0,5.088507533E-1,2.094395161E-1,-8.691739291E-3
7.973481562E0,1.457000822E-1,4.091226161E-1,3.410547972E-1
7.993483125E0,-4.160341322E-1,2.578375041E-1,5.569519997E-1
8.015480000E0,-1.061771035E0,-8.351400495E-2,6.214768291E-1
8.035489375E0,-1.469340324E0,-3.061133027E-1,5.891358852E-1
8.057480000E0,-1.258713961E0,-5.266705751E-1,6.406405568E-1
8.077481562E0,-7.330383062E-1,-4.129798114E-1,7.482924461E-1
8.097481562E0,-7.037167251E-2,-2.497042567E-1,9.179210067E-1
8.119480000E0,8.420864344E-1,-2.614503168E-2,8.895593882E-1
8.139480000E0,1.508784771E0,3.919311464E-1,6.812892556E-1
8.159489375E0,1.926162839E0,7.409620881E-1,5.241223574E-1
8.179508125E0,2.144433737E0,9.304699302E-1,4.599117041E-1
8.201490937E0,2.092702150E0,9.347634315E-1,4.882558584E-1
8.223481562E0,2.044234276E0,4.851317108E-1,5.146103501E-1
8.243487812E0,1.980302930E0,1.361531317E-1,5.563062429E-1
8.265480000E0,1.785454392E0,-1.162563786E-1,6.514616013E-1
8.285489375E0,1.493740082E0,-2.326349318E-1,6.979222298E-1
8.307480000E0,1.121024966E0,-1.794023961E-1,6.712885499E-1
8.327484687E0,7.744025588E-1,5.068436265E-2,5.720316768E-1
8.347486250E0,5.444030762E-1,3.865555227E-1,4.310614169E-1
8.367487812E0,4.104665220E-1,6.286152601E-1,2.777342498E-1
8.389480000E0,2.895326614E-1,6.931051612E-1,1.323657632E-1
8.409484687E0,1.365022063E-1,7.200006843E-1,1.396263391E-2
8.431480000E0,-9.175195545E-2,7.294254303E-1,-1.065523475E-1
8.451480000E0,-1.412145942E-1,5.737944245E-1,-3.292389214E-1
8.471480000E0,1.114392728E-1,7.096508890E-2,-7.816631794E-1
8.491480000E0,3.773750961E-1,-3.690498769E-1,-9.987472296E-1
8.511489375E0,4.959178567E-1,-5.413312912E-1,-9.103462696E-1
8.533480000E0,4.168544412E-1,-3.693989217E-1,-7.146599889E-1
8.553490937E0,2.348864079E-1,-1.266585439E-1,-5.758190155E-1
8.575481562E0,-2.655169368E-1,2.944021225E-1,-4.344648123E-1
8.595484687E0,-8.836078644E-1,4.114788175E-1,-3.542494774E-1
8.617480000E0,-1.274736166E0,-5.766567960E-2,-5.356590152E-1
8.637480000E0,-1.364219189E0,-4.972268343E-1,-6.694035530E-1
8.657480000E0,-1.261593819E0,-7.219380140E-1,-6.651973128E-1
8.677480000E0,-1.026567698E0,-7.711911798E-1,-5.212076902E-1
8.697480000E0,-8.035845160E-1,-6.931924224E-1,-2.061233819E-1
8.717480000E0,-7.769507766E-1,-6.748141050E-1,2.124938369E-1
8.737484687E0,-7.167369127E-1,-7.865326405E-1,4.394215345E-1
8.759480000E0,-5.200033784E-1,-9.319708943E-1,4.399625957E-1
8.779506562E0,-2.493551821E-1,-1.037284136E0,2.627069652E-1
8.801481562E0,-1.649161577E-1,-1.040512919E0,-7.393214852E-2
8.823480000E0,-2.679778636E-1,-8.690343499E-1,-3.712140918E-1
8.843480000E0,-4.162784815E-1,-6.159441471E-1,-4.761956334E-1
8.863480000E0,-5.500754118E-1,-2.563539743E-1,-4.401545823E-1
8.883480000E0,-5.676508546E-1,1.864186227E-1,-3.621558249E-1
8.903489375E0,-4.466646612E-1,5.396208763E-1,-3.872711062E-1
8.925481562E0,-2.342406362E-1,7.210129499E-1,-5.099852085E-1
8.945483125E0,-9.878563695E-3,6.344795227E-1,-5.892231464E-1
8.967480000E0,1.580570191E-1,3.507413566E-1,-6.140766144E-1
8.987487812E0,2.072229385E-1,4.979424179E-2,-5.804092288E-1
9.009480000E0,1.831374019E-1,-4.386012256E-2,-5.135282278E-1
9.029487812E0,1.924749166E-1,2.661627159E-2,-4.809429348E-1
9.051481562E0,1.827185154E-1,1.629788429E-1,-4.197516739E-1
9.071487812E0,1.248434037E-1,2.205223441E-1,-3.704461455E-1
9.093481562E0,-5.853834376E-2,3.006853163E-1,-3.262892962E-1
9.113483125E0,-3.014358282E-1,3.662573397E-1,-2.365444750E-1
9.135480000E0,-6.088581085E-1,3.296403289E-1,-1.074948311E-1
9.155547187E0,-6.723182797E-1,8.208283782E-2,4.886921961E-4
9.177480000E0,-3.008075058E-1,-1.496270746E-1,4.062253833E-1
9.197497187E0,4.059635848E-2,3.602359444E-2,8.298516870E-1
9.219481562E0,4.007799625E-1,1.716007739E-1,1.131357312E0
9.239489375E0,6.838025451E-1,2.325127572E-1,1.180523276E0
9.259489375E0,1.040443182E0,3.686484396E-1,9.876818061E-1
9.279503437E0,1.474262118E0,7.364766002E-1,6.673790216E-1
9.301480000E0,1.855267525E0,9.379748702E-1,4.835958183E-1
9.321484687E0,1.916528583E0,8.816181421E-1,5.234591365E-1
9.343480000E0,1.872703433E0,6.638185382E-1,6.769434214E-1
9.363481562E0,1.713983178E0,5.572138429E-1,7.966555357E-1
9.385480000E0,1.443265080E0,4.349011481E-1,8.972039223E-1
9.405489375E0,1.168061614E0,3.800454438E-1,9.089848995E-1
9.427480000E0,8.374962211E-1,3.482280970E-1,9.742602110E-1
9.447481562E0,3.916344345E-1,2.965489030E-1,1.034351945E0
9.469480000E0,-2.203652710E-1,1.576730460E-1,9.700365663E-1
9.489484687E0,-7.984183431E-1,9.475392103E-2,7.205242515E-1
9.511480000E0,-1.256654501E0,-1.106538717E-2,4.186870456E-1
9.531484687E0,-1.426265597E0,-1.068665087E-1,2.492155582E-1
9.553480000E0,-1.446738362E0,-1.414763927E-1,1.835737228E-1
9.573481562E0,-1.316135287E0,-1.243372560E-1,1.477770209E-1
9.595480000E0,-9.927432537E-1,-1.265887320E-1,3.471459821E-2
9.615480000E0,-6.820223331E-1,-4.708898440E-2,-1.479690075E-1
9.635494062E0,-4.449716806E-1,-1.170068756E-1,-4.159468710E-1
9.657480000E0,-2.466150224E-1,-1.695238352E-1,-7.279070020E-1
9.677480000E0,-1.766273230E-1,3.549999744E-2,-9.021955729E-1
9.697483125E0,-2.003463507E-1,2.314830124E-1,-9.486737251E-1
9.719486250E0,-3.421368897E-1,1.353153735E-1,-9.275552034E-1
9.741480000E0,-4.456698298E-1,-2.127032727E-1,-9.480628371E-1
9.761480000E0,-3.730815649E-1,-4.735950828E-1,-9.505411983E-1
9.781490937E0,-1.899790913E-1,-5.645965338E-1,-7.741582394E-1
9.803481562E0,3.893829510E-2,-5.158669949E-1,-4.907342196E-1
9.823484687E0,4.564036056E-2,-4.294731617E-1,-2.153561711E-1
9.845480000E0,-1.121025011E-1,-4.086164832E-1,1.438151300E-2
9.865481562E0,-3.193254471E-1,-5.719269514E-1,7.906341553E-2
9.887480000E0,-4.480783641E-1,-8.277572989E-1,5.515240598E-3
9.907483125E0,-4.527384043E-1,-9.484468102E-1,-1.089783609E-1
9.929480000E0,-4.883780181E-1,-8.963313103E-1,-2.494075447E-1
9.949481562E0,-5.879141688E-1,-7.219380140E-1,-3.111747503E-1
9.971481562E0,-7.535110116E-1,-4.787787199E-1,-3.284709752E-1
9.991486250E0,-8.118050098E-1,-2.531076372E-1,-3.223972321E-1
1.001348000E1,-6.460859776E-1,-4.399975017E-2,-4.421442449E-1
1.003348000E1,-2.997079492E-1,1.882337630E-1,-6.036570072E-1
1.005348000E1,8.038986474E-2,3.627317846E-1,-7.739662528E-1
1.007348156E1,3.534117043E-1,3.766071498E-1,-8.376184106E-1
1.009548000E1,4.841019809E-1,1.875181794E-1,-6.884102225E-1
1.011548156E1,3.826808929E-1,-1.000248194E-1,-4.234866798E-1
1.013548156E1,2.016553432E-1,-3.436902463E-1,-2.120400518E-1
1.015552375E1,9.199630469E-2,-3.400250375E-1,-1.224522963E-1
1.017748000E1,9.402088821E-2,4.000294581E-2,-6.459463388E-2
1.019748000E1,5.850343779E-2,3.971671164E-1,1.635373570E-2
1.021748156E1,-1.675341576E-1,5.090252757E-1,7.552039623E-2
1.023948000E1,-5.308942795E-1,3.404439092E-1,4.960225895E-2
1.025948313E1,-7.372270823E-1,3.286454827E-2,6.522295624E-2
1.027950188E1,-5.945289731E-1,-1.437453181E-1,3.249977529E-1
1.030148156E1,-1.230282560E-1,1.307775229E-1,5.780355930E-1
1.032148156E1,4.218809903E-1,3.324154019E-1,6.372545958E-1
1.034148156E1,9.538922310E-1,5.791875124E-1,6.591933966E-1
1.036348156E1,1.388758540E0,9.600532651E-1,6.795613766E-1
1.038348469E1,1.632301688E0,1.264072180E0,6.285105348E-1
1.040548000E1,1.708694816E0,1.443701386E0,6.348460317E-1
1.042549094E1,1.629125237E0,1.433665752E0,7.872481942E-1
1.044748000E1,1.397258282E0,1.122281671E0,1.005204916E0
1.046748938E1,1.160591602E0,7.102791667E-1,1.099365473E0
1.048948000E1,9.046565294E-1,3.018546999E-1,1.099505067E0
1.050948469E1,7.259348035E-1,2.707005665E-2,1.113642216E0
1.053148000E1,5.505641103E-1,-7.466518879E-2,1.095613003E0
1.055148625E1,3.832568526E-1,-2.104867063E-2,1.068682551E0
1.057348000E1,1.949881762E-1,1.078264415E-1,1.011610270E0
1.059348000E1,7.370525599E-2,1.639213264E-1,9.613622427E-1
1.061348000E1,8.011061698E-3,1.172686741E-1,8.675159216E-1
1.063348156E1,-5.623450875E-2,-3.665191471E-4,7.236309648E-1
1.065548000E1,-1.105666086E-1,-5.536184460E-2,5.678428411E-1
1.067548469E1,-1.915498823E-1,6.195918657E-3,4.544662833E-1
1.069748000E1,-3.649308980E-1,2.324953079E-1,3.237411082E-1
1.071748313E1,-5.750336051E-1,3.130247891E-1,1.650906950E-1
1.073948000E1,-7.523939610E-1,3.382448107E-2,-2.387610450E-2
1.075950031E1,-9.132958651E-1,-3.924372792E-1,-3.053104579E-1
1.077950344E1,-1.106172204E0,-7.085687518E-1,-5.724505186E-1
1.080148469E1,-1.180453420E0,-7.762002945E-1,-8.646709919E-1
1.082348000E1,-1.095263958E0,-6.124185920E-1,-1.106329322E0
1.084348469E1,-9.147270322E-1,-3.655592203E-1,-1.172442317E0
1.086548000E1,-8.060977459E-1,-3.611086309E-2,-1.248224616E0
1.088548625E1,-8.099374771E-1,1.694714651E-2,-1.408410907E0
1.090748156E1,-8.384561539E-1,-1.626472324E-1,-1.548316479E0
1.092748781E1,-8.467639089E-1,-3.658733666E-1,-1.505939841E0
1.094948000E1,-7.422361970E-1,-5.175075531E-1,-1.226948977E0
1.096948000E1,-6.135006547E-1,-3.979699612E-1,-8.935213089E-1
1.098949094E1,-6.181083322E-1,-1.092925146E-1,-6.521073580E-1
1.101148000E1,-6.887243986E-1,-1.162912846E-1,-6.034126878E-1
1.103148938E1,-8.662767410E-1,-2.692344785E-1,-5.508433580E-1
1.105348000E1,-1.146245003E0,-6.392443180E-1,-3.982317746E-1
1.107348000E1,-1.351164103E0,-8.804662228E-1,-1.974141896E-1
1.109348781E1,-1.369175911E0,-8.690343499E-1,2.958333120E-2
1.111548000E1,-1.146454453E0,-5.242445469E-1,1.727875918E-1
1.113548312E1,-8.414406776E-1,-1.413542181E-1,1.223301291E-1
1.115552375E1,-5.112941861E-1,1.611637026E-1,-1.727875904E-3
1.117748625E1,-2.061582953E-1,3.491880298E-1,-1.499237865E-1
1.119948000E1,8.182103187E-2,3.413514793E-1,-3.093072474E-1
1.121948312E1,2.845584750E-1,1.972571164E-1,-3.598345220E-1
1.124148000E1,3.574085236E-1,-1.136558428E-1,-2.795842886E-1
1.126148938E1,3.208438754E-1,-3.162536621E-1,-1.465029418E-1
1.128348000E1,3.889815211E-1,-4.563163221E-1,-2.511528693E-2
1.130348469E1,4.999321103E-1,-5.003684163E-1,5.414011329E-2
1.132548000E1,4.735427201E-1,-4.116708040E-1,1.388234943E-1
1.134548625E1,2.931280434E-1,-2.431243658E-1,1.758942753E-1
1.136748000E1,-9.217083454E-2,-1.328195538E-2,1.533271670E-1
1.138749094E1,-5.945813060E-1,1.466600150E-1,1.359262466E-1
1.140948000E1,-1.125667572E0,1.451939344E-1,1.151219159E-1
1.142948000E1,-1.463894963E0,8.880235255E-2,5.654866621E-2
1.144948000E1,-1.583729267E0,-4.174827412E-2,-4.223696887E-2
1.146948469E1,-1.468659639E0,-2.744006515E-1,-1.257684231E-1
1.149148000E1,-1.072277904E0,-4.797037542E-1,5.164429173E-2
1.151148313E1,-4.104316235E-1,-5.423261523E-1,3.872536421E-1
1.153348000E1,3.717027605E-1,-5.279795527E-1,6.505191326E-1
1.155348781E1,1.048681021E0,-3.708999157E-1,6.697875261E-1
1.157548000E1,1.882581949E0,5.258677155E-2,4.131892323E-1
1.159549094E1,2.498316526E0,6.620731950E-1,4.410447180E-2
1.161748000E1,2.519609690E0,1.452899337E0,-1.816538721E-1
1.163748313E1,2.124100685E0,1.608338356E0,-6.873106211E-2
1.165748312E1,1.516202450E0,1.290164828E0,8.918632567E-2
1.167952062E1,8.088204861E-1,6.744301319E-1,2.339613885E-1
1.170148000E1,1.503426582E-1,3.235840425E-2,3.838677108E-1
1.172149094E1,-1.039692611E-1,-4.610461593E-1,4.948880970E-1
1.174348000E1,-5.414011329E-2,-7.211176753E-1,4.918861389E-1
1.176348000E1,1.622981727E-1,-4.998797476E-1,4.358959794E-1
1.178348000E1,4.327718318E-1,-2.902482450E-2,4.380601943E-1
1.180348000E1,5.755397677E-1,5.200033784E-1,5.300041437E-1
1.182348000E1,4.757418334E-1,7.656410336E-1,6.519328356E-1
1.184348000E1,2.812249064E-1,7.335793376E-1,6.737843752E-1
1.186348000E1,7.991862297E-2,4.853935242E-1,7.328288555E-1
1.188348000E1,-1.873785406E-1,2.302787453E-1,8.245982528E-1
1.190348156E1,-5.223421454E-1,9.958848357E-2,8.137597442E-1
1.192348156E1,-6.155078411E-1,-1.940806210E-2,6.426127553E-1
1.194548781E1,-4.626693428E-1,-2.845061123E-1,4.910483956E-1
1.196748000E1,-4.738045335E-1,-4.582187533E-1,4.012337327E-1
1.198748000E1,-6.549871564E-1,-8.675857186E-1,1.471312493E-1
1.200748000E1,-7.865326405E-1,-1.354270816E0,-3.932052255E-1
1.202748000E1,-8.022580147E-1,-1.604777932E0,-1.009690404E0
1.204748313E1,-5.969549417E-1,-1.595143676E0,-1.314040899E0
1.206948000E1,-3.034429550E-1,-1.462498665E0,-1.132648826E0
1.208948000E1,-1.908168495E-1,-1.001766682E0,-6.594551802E-1
1.210948000E1,-3.051708043E-1,-2.931455076E-1,-2.492504716E-1
1.212948000E1,-5.505990386E-1,2.177821845E-1,-1.951976269E-1
1.214948156E1,-7.752752304E-1,3.307573497E-1,-4.295255244E-1
1.217148469E1,-9.337860346E-1,3.083996847E-2,-7.361798882E-1
1.219348000E1,-9.356535673E-1,-2.710845470E-1,-9.106429815E-1
1.221348469E1,-7.011685967E-1,-3.523994386E-1,-8.602553606E-1
1.223548000E1,-3.629761338E-1,-7.983136177E-2,-6.677629948E-1
1.225548938E1,-1.385965943E-1,2.800380886E-1,-4.926191866E-1
1.227748156E1,-6.813765317E-2,5.407727957E-1,-3.909013867E-1
1.229748781E1,-5.550147034E-3,6.575353146E-1,-4.086339474E-1
1.231948000E1,8.751080930E-2,7.544185519E-1,-4.295080602E-1
1.233948313E1,1.403244734E-1,7.609635592E-1,-3.202330172E-1
1.236148000E1,6.682865322E-2,6.038489938E-1,-1.646019965E-1
1.238148781E1,-1.052433550E-1,1.927367151E-1,-1.160818487E-1
1.240348156E1,-2.315353751E-1,-3.691371381E-1,-1.346870512E-1
1.242348625E1,-1.504822820E-1,-6.760183573E-1,-1.321737766E-1
1.244548000E1,-2.572615258E-2,-6.234839559E-1,-1.031489596E-1
1.246548469E1,1.326450263E-3,-3.766769469E-1,-2.104867063E-2
1.248748000E1,-3.368485346E-2,-1.624901593E-2,4.778711498E-2
1.250748000E1,-1.913928092E-1,1.604830176E-1,1.235867664E-1
1.252748000E1,-4.185997546E-1,9.813986719E-2,1.177573651E-1
1.254748000E1,-6.383367181E-1,-8.253662288E-2,1.047546640E-1
1.256748156E1,-7.864627838E-1,-2.868797779E-1,8.166395873E-2
1.258948938E1,-8.814087510E-1,-3.016278148E-1,2.141169906E-1
1.261148000E1,-7.431088090E-1,-2.966012657E-1,5.229704380E-1
1.263148156E1,-1.738173366E-1,-2.086541057E-1,7.410842776E-1
1.265348000E1,6.369753480E-1,6.667158008E-2,8.323300481E-1
1.267349094E1,1.296029091E0,5.294979811E-1,8.074591160E-1
1.269548000E1,1.912252545E0,1.079416275E0,5.640729666E-1
1.271549094E1,2.273186684E0,1.526604533E0,1.783726513E-1
1.273748000E1,2.350172997E0,2.022156000E0,-6.056292355E-2
1.275748781E1,2.257007360E0,2.053397417E0,-6.541494280E-2
1.277950188E1,1.868305087E0,1.656195283E0,2.752384245E-1
1.280148000E1,1.328841329E0,1.098126292E0,7.153406739E-1
1.282148156E1,7.874227166E-1,5.165302157E-1,1.005868196E0
1.284148781E1,3.049962819E-1,5.780530348E-2,1.120047569E0
1.286348156E1,-2.949606394E-3,-2.651853263E-1,1.159422159E0
1.288548000E1,-1.040739864E-1,-4.039564431E-1,1.237857342E0
1.290548000E1,1.246165112E-2,-3.833092153E-1,1.265259027E0
1.292548000E1,2.628116906E-1,-2.561445236E-1,1.143801570E0
1.294548000E1,5.592907667E-1,-6.977826357E-2,9.376955628E-1
1.296548000E1,7.914544344E-1,1.751612425E-1,7.441909313E-1
1.298548000E1,8.624370098E-1,3.512998819E-1,5.213647485E-1
1.300548000E1,7.912275791E-1,4.032583237E-1,2.133315951E-1
1.302548625E1,6.858446002E-1,3.246661425E-1,-2.046922147E-1
1.304748000E1,4.424060583E-1,1.962448210E-1,-5.565156937E-1
1.306748156E1,1.670280099E-1,3.637266159E-2,-7.241196632E-1
1.308748156E1,-6.724753231E-2,-1.423490494E-1,-7.779281735E-1
1.310748156E1,-3.185225725E-1,-2.503500283E-1,-6.507983804E-1
1.312748156E1,-6.898937225E-1,-2.822546363E-1,-4.467519224E-1
1.314948938E1,-1.096852183E0,-5.304928422E-1,-4.571540952E-1
1.317148000E1,-1.301352382E0,-7.976852655E-1,-5.967455506E-1
1.319148313E1,-1.314285278E0,-7.244861722E-1,-5.715604424E-1
1.321348000E1,-1.188307405E0,-6.229952574E-1,-4.803844094E-1
1.323348156E1,-9.973334670E-1,-5.651201606E-1,-4.108330607E-1
1.325348156E1,-7.758337855E-1,-4.322482347E-1,-3.230080903E-1
1.327348156E1,-5.951747298E-1,-2.565110326E-1,-1.988802701E-1
1.329548156E1,-4.339063168E-1,-1.575508714E-1,-1.109680310E-1
1.331748469E1,-3.334451616E-1,-1.664346009E-1,-1.241103634E-1
1.333948469E1,-3.103370070E-1,-2.497391552E-1,-1.662426144E-1
1.335948469E1,-3.067241609E-1,-3.643025756E-1,-1.558404416E-1
1.337950188E1,-2.455852777E-1,-4.655491114E-1,-1.375494003E-1
1.340148938E1,-2.561096251E-1,-4.315850139E-1,-1.230980754E-1
1.342348000E1,-3.471459746E-1,-3.758043051E-1,-1.247212291E-1
1.344348000E1,-4.665614069E-1,-4.294557273E-1,-2.453234792E-1
1.346355500E1,-5.296725035E-1,-4.078834355E-1,-3.849323690E-1
1.348548156E1,-4.937711060E-1,-2.480985522E-1,-5.404586792E-1
1.350548156E1,-3.837804496E-1,-8.028514567E-4,-6.426651478E-1
1.352548156E1,-2.566681206E-1,1.273566782E-1,-6.790901423E-1
1.354748000E1,-1.819331199E-1,7.635815442E-2,-6.684087515E-1
1.356748312E1,-1.734159142E-1,-4.024729133E-2,-6.789330840E-1
1.358948000E1,-1.189965457E-1,-1.092750654E-1,-6.598217487E-1
1.360948625E1,-1.780235791E-3,-1.116661653E-1,-6.218259335E-1
1.363148000E1,8.400269598E-2,-5.550147034E-3,-5.468465686E-1
1.365148312E1,2.548180707E-2,8.000589162E-2,-5.288172960E-1
1.367148781E1,-1.079311594E-1,1.295732409E-1,-5.009967685E-1
1.369348938E1,-2.788512409E-1,1.599594206E-1,-4.005007148E-1
1.371548000E1,-4.905422330E-1,1.696983576E-1,-2.847155631E-1
1.373548312E1,-7.004006505E-1,2.998475730E-2,-2.161590308E-1
1.375748000E1,-9.167167544E-1,-9.590584040E-2,-1.170941368E-1
1.377748625E1,-9.819571376E-1,-1.447925121E-1,-3.471459821E-2
1.379948000E1,-7.854854465E-1,-2.108183205E-1,1.564687639E-1
1.381949562E1,-2.517637312E-1,-1.220508739E-1,5.552241206E-1
1.384148000E1,3.409326077E-1,3.946189582E-2,9.148317575E-1
1.386148313E1,6.622128487E-1,1.554215699E-1,1.114305496E0
1.388348000E1,8.384212852E-1,3.082949519E-1,1.160853386E0
1.390348000E1,1.018451929E0,4.635943472E-1,1.047337174E0
1.392348000E1,1.123608112E0,8.888787031E-1,8.616690636E-1
1.394348312E1,1.053812385E0,1.063778162E0,6.663492322E-1
1.396548000E1,8.858069777E-1,8.400095105E-1,5.522396564E-1
1.398549250E1,8.105483651E-1,6.277076602E-1,4.867199659E-1
1.400748000E1,7.692015171E-1,4.340459406E-1,4.478514791E-1
1.402748625E1,7.376633883E-1,3.532022834E-1,4.107108712E-1
1.404948000E1,7.274532318E-1,3.212278485E-1,3.996978402E-1
1.406948313E1,7.271215916E-1,2.614154220E-1,4.126132727E-1
1.409148156E1,6.892305017E-1,2.540850341E-1,4.346393347E-1
1.411148156E1,6.280741692E-1,2.753431499E-1,4.758640230E-1
1.413348000E1,4.796164632E-1,3.799581826E-1,4.849571884E-1
1.415348313E1,2.943148613E-1,4.731587470E-1,4.765970707E-1
1.417548000E1,1.278453618E-1,4.056319594E-1,4.152487218E-1
1.419549094E1,4.242895544E-2,3.344574571E-1,3.735353649E-1
1.421748000E1,-4.459316283E-2,2.525666058E-1,3.685611784E-1
1.423748156E1,-1.263269335E-1,1.330638975E-1,3.670601845E-1
1.425748156E1,-2.254965454E-1,-7.086036727E-3,3.800454438E-1
1.427748156E1,-3.098133802E-1,-1.083849445E-1,4.011639357E-1
1.429948625E1,-4.644670188E-1,-4.717624933E-2,2.959031165E-1
1.432148000E1,-6.241995692E-1,-6.419321150E-2,4.105014354E-2
1.434148000E1,-7.109423876E-1,-3.036523759E-1,-1.917418689E-1
1.436148625E1,-6.504667401E-1,-7.288146019E-1,-3.335149586E-1
1.438348000E1,-5.400921106E-1,-9.521992803E-1,-3.723485470E-1
1.440348313E1,-4.587074220E-1,-8.986874819E-1,-3.170216084E-1
1.442548000E1,-3.909537494E-1,-7.091796398E-1,-3.819478452E-1
1.444548625E1,-4.416730106E-1,-5.681395531E-1,-4.113915563E-1
1.446748000E1,-5.964837074E-1,-5.145579576E-1,-3.391698301E-1
1.448748469E1,-7.600036263E-1,-4.268726408E-1,-3.451039493E-1
1.450948000E1,-7.006973028E-1,-4.701393247E-1,-5.203350186E-1
1.452948625E1,-4.370304346E-1,-5.320287347E-1,-7.060729265E-1
1.455149875E1,-1.283166111E-1,-6.234490871E-1,-8.168315291E-1
1.457348000E1,-8.063420653E-3,-7.884175777E-1,-8.177739978E-1
1.459348000E1,-9.618509561E-2,-8.127823472E-1,-7.720813155E-1
1.461348625E1,-2.437352240E-1,-6.567848325E-1,-7.137174606E-1
1.463548000E1,-4.103268981E-1,-1.931555867E-1,-6.106907129E-1
1.465548000E1,-4.559498131E-1,2.513972223E-1,-5.141216516E-1
1.467548000E1,-4.380601943E-1,4.473627806E-1,-5.281017423E-1
1.469548000E1,-3.982492387E-1,3.883183002E-1,-6.147922277E-1
1.471548000E1,-3.010518551E-1,1.562593281E-1,-6.663143635E-1
1.473548156E1,-1.294510663E-1,-1.139874533E-1,-5.933595896E-1
1.475548313E1,9.012880176E-2,-2.839301527E-1,-4.227012992E-1
1.477748156E1,2.592337430E-1,-3.357140720E-1,-1.994387656E-1
1.479748469E1,2.303834558E-1,-2.966710627E-1,-4.295255244E-2
1.481948000E1,3.607595712E-2,-3.259402514E-1,1.511455141E-2
1.483948000E1,-8.772024512E-2,-4.798782766E-1,-4.129448906E-2
1.485948000E1,6.414084882E-2,-4.081103504E-1,-8.237954229E-2
1.487950188E1,4.676435292E-1,-9.018116444E-2,-5.927138031E-2
1.490148000E1,7.832688689E-1,2.198242247E-1,-5.602506921E-3
1.492148625E1,7.482401133E-1,1.259778589E-1,-2.295107953E-2
1.494348156E1,3.212627470E-1,-2.338043004E-1,2.755525708E-1
1.496349250E1,-1.271821409E-1,-3.791029751E-1,7.177317739E-1
1.498548000E1,-5.218709111E-1,-3.419100046E-1,9.260367751E-1
1.500548781E1,-4.905596972E-1,-1.505520940E-1,8.538150787E-1
1.502748000E1,-1.707281023E-1,4.958829582E-1,6.540970206E-1
1.504748156E1,2.101027369E-1,1.083709836E0,4.872435629E-1
1.506948000E1,5.409299135E-1,1.537635088E0,3.250501156E-1
1.508948625E1,7.079927921E-1,1.417015314E0,3.281567991E-1
1.511148000E1,6.689149141E-1,8.631525636E-1,5.282762647E-1
1.513149094E1,5.335820317E-1,5.022534132E-1,8.025896549E-1
1.515348000E1,3.882135749E-1,3.183655143E-1,1.009533286E0
1.517349094E1,2.613455951E-1,2.368062735E-1,1.008730531E0
1.519548000E1,1.778315902E-1,9.866346419E-2,8.811643720E-1
1.521548000E1,1.426806599E-1,4.171337001E-3,7.878940105E-1
1.523548000E1,1.919862181E-1,-7.332128286E-2,7.167543769E-1
1.525548156E1,3.230080903E-1,-8.604472876E-2,6.622302532E-1
1.527552062E1,3.749490678E-1,-7.560766488E-2,6.186144948E-1
1.529748000E1,3.561344445E-1,-6.668902934E-2,5.520127416E-1
1.531748000E1,3.083996773E-1,-2.670353837E-2,4.988500178E-1
1.533748000E1,2.095791399E-1,-2.932153177E-3,4.703313112E-1
1.535748156E1,1.107236892E-1,2.151990868E-2,4.797910154E-1
1.537950656E1,-2.291617356E-2,4.661774263E-2,4.430867434E-1
1.540148000E1,-1.481086463E-1,2.310816012E-2,2.972644866E-1
1.542148156E1,-2.746450007E-1,-5.110324174E-2,6.147049740E-2
1.544148156E1,-4.227710962E-1,-5.241223797E-2,-2.263343036E-1
1.546348000E1,-6.849370003E-1,-4.583234712E-2,-6.688450575E-1
1.548348000E1,-1.009114504E0,-2.145009674E-2,-1.054929376E0
1.550348000E1,-1.240457892E0,-9.264207631E-2,-1.274509192E0
1.552348156E1,-1.249271750E0,-2.185152173E-1,-1.442532063E0
1.554548000E1,-9.350776076E-1,-2.265088260E-1,-1.431012869E0
1.556548156E1,-5.908463001E-1,2.709274590E-1,-1.144272804E0
1.558748156E1,-5.717175007E-1,8.313875794E-1,-1.101337671E0
1.560748781E1,-9.081122875E-1,6.913772821E-1,-1.445603848E0
1.562948000E1,-1.700509191E0,3.533593714E-1,-1.736759663E0
1.564949562E1,-2.297917843E0,1.304109991E-1,-1.788299203E0
1.567148000E1,-2.419724464E0,-5.651376024E-2,-1.786850572E0
1.569149094E1,-1.976096630E0,-2.172062248E-1,-1.819174170E0
1.571348000E1,-1.183560133E0,-4.241848290E-1,-1.650889516E0
1.573349094E1,-5.407379270E-1,-6.825284362E-1,-1.146960616E0
1.575548000E1,-7.201228291E-2,-1.062067747E0,-3.478441238E-1
1.577548469E1,2.934247553E-1,-1.372858524E0,1.218414381E-1
1.579748000E1,5.414011478E-1,-1.557601690E0,2.988701761E-1
1.581748000E1,6.014753580E-1,-1.546047568E0,2.217964381E-1
1.583748000E1,5.180835128E-1,-1.345020533E0,5.644394830E-2
1.585748313E1,2.891312540E-1,-9.898809195E-1,-1.901885271E-1
1.587951594E1,-4.590215907E-2,-6.217910051E-1,-5.010840297E-1
1.590148000E1,-2.848900855E-1,-2.355496287E-1,-7.425852418E-1
1.592148000E1,-3.167947233E-1,8.173377067E-2,-9.138194919E-1
1.594148156E1,-2.250078470E-1,2.141344398E-1,-9.810670018E-1
1.596348000E1,-6.433283538E-2,4.568922818E-1,-8.771675825E-1
1.598348625E1,1.245816052E-1,6.674662828E-1,-6.750758886E-1
1.600548156E1,3.808657527E-1,7.490255237E-1,-5.426577926E-1
1.602548156E1,5.237558484E-1,7.634593844E-1,-5.242270827E-1
1.604748000E1,5.382595658E-1,8.843583465E-1,-5.027595162E-1
1.606748625E1,4.272042513E-1,1.068490505E0,-2.949780822E-1
1.608948000E1,6.192428246E-2,1.043846488E0,2.721841037E-1
1.610949094E1,-3.227288425E-1,6.138672233E-1,8.906240463E-1
1.613148000E1,-4.604876637E-1,-1.254542619E-1,1.197575092E0
1.615148000E1,-3.477393985E-1,-2.726378739E-1,1.172582030E0
1.617148000E1,-1.633628085E-2,-1.095368639E-1,1.278191924E0
1.619148156E1,3.116808832E-1,1.792453080E-1,1.727282524E0
1.621348156E1,7.301933765E-1,2.287428528E-1,2.338950634E0
1.623348156E1,1.285836458E0,1.662077010E-1,2.658450603E0
1.625548000E1,2.087867498E0,2.386388630E-1,2.708559036E0
1.627548469E1,2.769907236E0,5.090078115E-1,2.399374008E0
1.629748000E1,3.247516632E0,9.339082241E-1,2.003917217E0
1.631748156E1,3.013729811E0,1.267684937E0,1.742938161E0
1.633748156E1,2.552456856E0,1.120780587E0,1.642948270E0
1.635748312E1,2.184436560E0,7.799353004E-1,1.532137275E0
1.637950188E1,1.702952623E0,2.563714087E-1,1.413035989E0
1.640148156E1,9.893398881E-1,-1.396787018E-1,1.241295576E0
1.642348000E1,3.301988542E-1,-2.176774591E-1,1.043218255E0
1.644348469E1,-1.713913307E-2,-3.520328924E-2,8.791572452E-1
1.646548000E1,-9.519025683E-2,9.524261951E-2,7.399846911E-1
1.648548469E1,-5.045747012E-2,2.479938269E-1,6.323502660E-1
1.650748000E1,5.749114603E-2,5.145579576E-1,3.519631028E-1
1.652748625E1,3.572514355E-1,4.800004363E-1,-1.423141509E-1
1.654948000E1,8.989318013E-1,2.719571888E-1,-5.982813835E-1
1.656948312E1,1.232970357E0,2.740516067E-1,-6.389301419E-1
1.659148156E1,8.790176511E-1,1.774650812E-1,-4.448146224E-1
1.661148156E1,-8.595746756E-2,-2.977880836E-1,-3.657337427E-1
1.663148156E1,-9.766164422E-1,-1.040984154E0,-7.660424709E-1
1.665348000E1,-1.439722061E0,-1.640452385E0,-1.267231226E0
1.667348000E1,-1.428429842E0,-1.627537012E0,-1.413681746E0
1.669348156E1,-1.147676110E0,-1.178620815E0,-1.284963727E0
1.671548000E1,-7.265805602E-1,-4.571540952E-1,-9.580810070E-1
1.673548469E1,-3.455402851E-1,3.403392062E-2,-6.801373363E-1
1.675748156E1,-1.477595717E-1,2.844886668E-2,-6.921626925E-1
1.677748312E1,-1.565211266E-1,-2.730393112E-1,-8.599760532E-1
1.679948000E1,-2.186723053E-1,-5.693787336E-1,-1.113572359E0
1.681948469E1,-1.903281510E-1,-7.120419741E-1,-1.293620586E0
1.684148000E1,-8.382816613E-2,-6.606420279E-1,-1.301055670E0
1.686148938E1,-1.965415329E-1,-4.682543874E-1,-1.259080529E0
1.688348000E1,-6.109699607E-1,-3.486469686E-1,-1.407049537E0
1.690348938E1,-1.060723901E0,-2.955366075E-1,-1.599751353E0
1.692548156E1,-1.268051505E0,-1.655619293E-1,-1.735433221E0
1.694548156E1,-1.221346498E0,7.435102481E-3,-1.808353066E0
1.696548156E1,-9.650449157E-1,4.551818594E-2,-1.919722557E0
1.698748000E1,-7.476292253E-1,-5.033529550E-2,-1.959184408E0
1.700748000E1,-7.135429382E-1,-6.230825558E-2,-1.755905986E0
1.702748000E1,-7.422536016E-1,-1.580395699E-1,-1.389002800E0
1.704748000E1,-6.532767415E-1,-4.762654305E-1,-1.052747726E0
1.706748000E1,-5.124810338E-1,-9.449910522E-1,-6.615321636E-1
1.708749094E1,-4.099603891E-1,-1.204748392E0,-2.765823305E-1
1.710948000E1,-3.826459944E-1,-1.127465248E0,1.802576035E-1
1.712949094E1,-5.108578801E-1,-9.428443313E-1,4.864930809E-1
1.715148156E1,-7.672641873E-1,-7.135429382E-1,6.687054634E-1
1.717348000E1,-8.488932252E-1,-4.037819207E-1,1.050915122E0
1.719348000E1,-4.997575879E-1,-7.850491256E-2,1.248381615E0
1.721348000E1,-7.332128286E-2,1.168148890E-1,1.344339848E0
1.723348000E1,2.635098100E-1,2.511528730E-1,1.501908183E0
1.725349250E1,6.562088728E-1,3.607595563E-1,1.554966211E0
1.727548000E1,1.104775906E0,5.797460079E-1,1.478590608E0
1.729548781E1,1.439652324E0,1.023810148E0,1.277528644E0
1.731748000E1,1.674259424E0,1.544686198E0,8.635365367E-1
1.733749094E1,1.633697987E0,1.479533076E0,6.932273507E-1
1.735948000E1,1.485222816E0,1.083099008E0,8.386656046E-1
1.737951438E1,1.361705899E0,6.795613766E-1,1.202584267E0
1.740148000E1,1.073482156E0,4.325973094E-1,1.456808925E0
1.742148625E1,7.489033341E-1,3.157126009E-1,1.598040938E0
1.744348156E1,4.348138869E-1,3.230429888E-1,1.620485902E0
1.746349094E1,2.013586313E-1,2.914699912E-1,1.521403551E0
1.748548156E1,6.913249195E-2,1.779363155E-1,1.371043444E0
1.750548938E1,-2.370157093E-2,9.456194192E-2,1.222044587E0
1.752748000E1,-6.585127115E-2,1.626646891E-2,9.949947596E-1
1.754748625E1,-8.974482864E-2,5.939355493E-2,7.298094034E-1
1.756948000E1,-1.151568219E-1,2.900911868E-1,4.192979038E-1
1.758948000E1,-1.223650351E-1,4.869817793E-1,1.394343525E-1
1.760948469E1,-1.613556892E-1,5.007175207E-1,-4.488986731E-2
1.762948938E1,-4.135732055E-1,3.201108277E-1,-1.154360771E-1
1.765148938E1,-7.585899234E-1,-2.559874356E-1,-2.389530241E-1
1.767348000E1,-1.134010196E0,-8.657356501E-1,-3.636917174E-1
1.769348000E1,-1.451450706E0,-1.047372103E0,-5.472305417E-1
1.771348781E1,-1.766465187E0,-1.119419217E0,-7.959399223E-1
1.773548000E1,-2.123908520E0,-1.378548265E0,-1.087759018E0
1.775548312E1,-2.300832748E0,-1.566869378E0,-1.388741016E0
1.777748000E1,-2.243882656E0,-1.399108291E0,-1.585893393E0
1.779748625E1,-1.883035779E0,-8.935562372E-1,-1.580744743E0
1.781948000E1,-1.100499868E0,-3.079633415E-1,-1.508627653E0
1.783948156E1,-3.682993650E-1,1.073028445E-1,-1.398776650E0
1.785950500E1,6.928957254E-2,2.642777562E-1,-1.328684211E0
1.788148938E1,1.606051922E-1,2.149023861E-1,-1.372020721E0
1.790348156E1,-5.208062381E-2,-8.934340626E-2,-1.433369040E0
1.792348625E1,-2.611885071E-1,-3.550697863E-1,-1.260703683E0
1.794548000E1,-5.472130775E-1,-2.986083925E-1,-8.779703975E-1
1.796548000E1,-7.652919888E-1,-2.018647790E-1,-5.774247050E-1
1.798548000E1,-9.233838916E-1,-1.744107455E-1,-4.352152944E-1
1.800548000E1,-9.878389239E-1,-1.992467940E-1,-4.507836401E-1
1.802548000E1,-9.082518816E-1,-2.210983038E-1,-5.676508546E-1
1.804548000E1,-6.881135106E-1,-2.051983625E-1,-6.834709048E-1
1.806548781E1,-3.482455313E-1,-1.929287016E-1,-7.178364396E-1
1.808749094E1,-1.064650831E-3,-1.259604096E-1,-6.304129362E-1
1.810948000E1,1.687907875E-1,-1.431868076E-1,-4.650778770E-1
1.812948000E1,1.588424146E-1,-2.427578419E-1,-3.330960870E-1
1.814948000E1,1.058193147E-1,-2.910860181E-1,-2.265786380E-1
1.816948000E1,1.061160211E-2,-2.490584850E-1,-8.494517207E-2
1.818948000E1,-1.052258983E-1,-6.745697558E-2,1.763306111E-1
1.820948000E1,-2.573837042E-1,1.879021525E-1,4.732460380E-1
1.822948000E1,-3.747920096E-1,2.025279999E-1,8.055217862E-1
1.824948469E1,-3.208264112E-1,2.004336119E-1,1.151620626E0
1.827148156E1,-1.800830662E-1,1.731192023E-1,1.403489113E0
1.829348156E1,4.954989627E-2,6.972590089E-2,1.590501070E0
1.831548156E1,3.411595225E-1,5.635667965E-2,1.579400778E0
1.833748000E1,5.398652554E-1,3.977605402E-1,1.360798359E0
1.835748625E1,5.790653229E-1,8.731881976E-1,1.293603182E0
1.837950188E1,5.834984779E-1,1.016916037E0,1.059537053E0
1.840148000E1,6.515139341E-1,8.864527345E-1,6.271142364E-1
1.842148000E1,7.338760495E-1,5.904274583E-1,2.197020501E-1
1.844148312E1,8.263610601E-1,3.388207555E-1,-3.897320107E-2
1.846348000E1,8.567996025E-1,1.920734793E-1,-5.860815570E-2
1.848348000E1,8.830319047E-1,1.388234943E-1,1.401499361E-1
1.850348000E1,9.015498161E-1,1.603957564E-1,3.820874691E-1
1.852348000E1,9.357408285E-1,2.436654121E-1,6.234664917E-1
1.854348000E1,9.314473271E-1,3.049613833E-1,8.323999047E-1
1.856348000E1,7.972838283E-1,2.905624211E-1,9.915040731E-1
1.858348781E1,4.906469584E-1,2.152514607E-1,1.054109097E0
1.860548156E1,1.244594306E-1,-2.977531776E-2,1.053934574E0
1.862548313E1,-1.425759494E-1,-2.787116170E-1,9.413433075E-1
1.864748000E1,-3.797487319E-1,-4.962843657E-1,7.557799220E-1
1.866748000E1,-5.767964125E-1,-5.459564328E-1,5.793445706E-1
1.868748000E1,-7.272263169E-1,-4.743281305E-1,3.120823205E-1
1.870748000E1,-8.217184544E-1,-2.992017865E-1,-1.972396523E-1
1.872748000E1,-8.883202076E-1,-9.440486133E-2,-8.133583069E-1
1.874748000E1,-8.918283582E-1,-1.205498874E-1,-1.160643935E0
1.876748625E1,-9.017243385E-1,-2.284810543E-1,-1.251593113E0
1.878948000E1,-9.787980914E-1,-3.072128594E-1,-1.253966689E0
1.880948469E1,-1.076728463E0,-3.065496385E-1,-1.281717420E0
1.882948781E1,-1.216284990E0,-2.229483575E-1,-1.390137315E0
1.885148000E1,-1.307286501E0,-2.013411820E-1,-1.500913382E0
1.887148000E1,-1.313971162E0,-3.067241609E-1,-1.420296550E0
1.889148000E1,-1.061439395E0,-5.366189480E-1,-1.196650147E0
1.891148000E1,-9.279915690E-1,-7.286226153E-1,-8.797506690E-1
1.893148000E1,-1.100691915E0,-4.531572759E-1,-5.642125607E-1
1.895148000E1,-1.267196298E0,-1.537111402E-1,-3.333579004E-1
1.897148000E1,-1.348528624E0,1.989675313E-2,-1.372177899E-1
1.899148000E1,-1.371479750E0,-1.270599663E-1,7.063347101E-2
1.901148000E1,-1.369978786E0,-5.153259039E-1,3.448770642E-1
1.903148000E1,-1.277266860E0,-9.859190583E-1,4.549026191E-1
1.905148156E1,-1.048995256E0,-1.217995524E0,3.563264310E-1
1.907348000E1,-5.944067836E-1,-1.223371029E0,2.018298805E-1
1.909349094E1,-2.202430964E-1,-1.041490316E0,7.323401421E-2
1.911548000E1,-1.642354876E-1,-5.383468270E-1,-5.133013427E-2
1.913548000E1,-2.831447721E-1,-7.524114102E-2,-2.862165570E-1
1.915552375E1,-3.514918685E-1,2.290570140E-1,-7.167019844E-1
1.917748469E1,-2.235592157E-1,3.973765671E-1,-1.050897598E0
1.919948000E1,-1.576032303E-2,4.459490776E-1,-1.146506786E0
1.921948625E1,1.606750041E-1,3.619289398E-1,-1.112211108E0
1.924148000E1,3.062878251E-1,3.352253735E-1,-9.840689898E-1
1.926148000E1,4.362275898E-1,3.929957747E-1,-8.004080057E-1
1.928148000E1,5.388703942E-1,5.272465348E-1,-5.425006747E-1
1.930148312E1,5.858721137E-1,6.507285833E-1,-2.972295582E-1
1.932348000E1,4.174827635E-1,7.498981357E-1,3.328342736E-2
1.934348313E1,9.487609565E-2,8.315097690E-1,3.186272979E-1
1.936548156E1,-2.519208193E-1,7.451334000E-1,5.516985655E-1
1.938549250E1,-4.621108174E-1,5.253615379E-1,6.220004559E-1
1.940748156E1,-4.202752709E-1,5.557128415E-2,7.639655471E-1
1.942748313E1,-1.719149351E-1,-3.628015816E-1,8.933642507E-1
1.944948000E1,1.185776666E-1,-5.238955021E-1,1.102489591E0
1.946948625E1,4.579220414E-1,-5.090776086E-1,1.365859747E0
1.949148000E1,7.681891918E-1,-2.354623675E-1,1.675009966E0
1.951148156E1,1.014315486E0,2.108008713E-1,1.701102614E0
1.953148156E1,1.315629244E0,8.465021253E-1,1.229479790E0
1.955148156E1,1.565036774E0,1.206144691E0,6.064320803E-1
1.957348156E1,1.663927078E0,1.424241066E0,2.576280534E-1
1.959549719E1,1.768158197E0,1.228135824E0,3.679328561E-1
1.961748000E1,1.621166468E0,9.098401070E-1,7.578219771E-1
1.963748000E1,1.333012700E0,4.994957745E-1,1.143888831E0
1.965748938E1,1.006007791E0,2.655169368E-1,1.337533116E0
1.967950188E1,8.187339306E-1,1.818633080E-2,1.315576792E0
1.970148000E1,6.752504110E-1,-1.805543154E-1,1.207942367E0
1.972148000E1,4.436801374E-1,-1.363102198E-1,1.153767347E0
1.974148938E1,1.796292812E-1,-9.913469665E-3,1.068525434E0
1.976348000E1,-6.970845163E-2,1.007753089E-1,8.894372582E-1
1.978348000E1,-1.227315515E-1,9.117600322E-2,6.636614203E-1
1.980348781E1,-1.019446775E-1,9.112364054E-2,4.105887115E-1
1.982548000E1,-8.758062124E-2,1.095717698E-1,1.185602173E-1
1.984548625E1,-1.275137514E-1,1.579348445E-1,-2.312386781E-1
1.986748000E1,-1.931730360E-1,2.267880887E-1,-6.804340482E-1
1.988748313E1,-2.438050359E-1,1.532748193E-1,-1.057529926E0
1.990948000E1,-2.537708580E-1,-8.307767101E-3,-1.275765896E0
1.992948000E1,-2.584657967E-1,-1.442165524E-1,-1.401569247E0
1.994948000E1,-3.178942800E-1,-1.808859259E-1,-1.524004102E0
1.996948000E1,-5.118876100E-1,-8.686503768E-2,-1.560708284E0
1.998948625E1,-7.108551264E-1,-1.363625675E-1,-1.686633825E0
2.001148156E1,-7.703883052E-1,-5.813516974E-1,-1.747336388E0
2.003348000E1,-6.996152401E-1,-7.840018868E-1,-1.530915499E0
2.005348000E1,-5.567600131E-1,-7.713308334E-1,-1.071056247E0
2.007348000E1,-2.897421122E-1,-6.797533631E-1,-7.070503235E-1
2.009348000E1,-6.333799660E-2,-4.237659276E-1,-5.578595996E-1
2.011348000E1,7.178539038E-2,-1.342681795E-1,-5.206665993E-1
2.013348000E1,9.498082101E-2,-5.955063552E-2,-4.043055177E-1
2.015348000E1,-3.612831468E-3,-3.155206144E-1,-2.230181694E-1
2.017348000E1,-2.747148275E-1,-6.444278955E-1,-7.986626774E-2
2.019348000E1,-5.458866358E-1,-8.934165835E-1,-1.860520989E-2
2.021348625E1,-6.814637780E-1,-9.295972586E-1,4.276056774E-3
2.023548000E1,-6.730512977E-1,-6.490705013E-1,-5.305801053E-3
2.025548000E1,-6.264161468E-1,-2.476098537E-1,-1.282817032E-2
2.027548156E1,-5.258851647E-1,1.024159193E-1,1.801179722E-2
2.029548156E1,-4.042007923E-1,3.130422533E-1,4.747295752E-3
2.031548156E1,-2.902831733E-1,3.980048895E-1,-1.190663576E-1
2.033748000E1,-1.378111988E-1,2.959554791E-1,-3.136880398E-1
2.035748000E1,3.202679008E-2,7.827802002E-2,-4.334525168E-1
2.037748000E1,1.595754474E-1,-1.758942753E-1,-4.162435830E-1
2.039748312E1,2.219709754E-1,-3.580892086E-1,-3.227288425E-1
2.041948000E1,2.763205171E-1,-4.222823977E-1,-2.627418637E-1
2.043948781E1,3.387858570E-1,-3.313856721E-1,-2.321113348E-1
2.046148000E1,3.896971047E-1,-8.852309734E-2,-2.069960535E-1
2.048148000E1,3.034603894E-1,1.552819461E-1,-1.102699041E-1
2.050148156E1,-1.815142459E-3,3.208962381E-1,6.351253390E-2
2.052148312E1,-3.103719056E-1,2.783625722E-1,1.486147791E-1
2.054348000E1,-5.484347939E-1,2.827782333E-1,1.699252576E-1
2.056348469E1,-5.300564766E-1,1.919164062E-1,1.343379915E-1
2.058548000E1,-2.815216035E-2,2.764601447E-2,2.828655243E-1
2.060549094E1,4.929856956E-1,3.895225823E-1,6.479185820E-1
2.062748156E1,9.287420511E-1,7.819598913E-1,1.039046884E0
2.064748938E1,1.237874746E0,9.285500646E-1,1.154727340E0
2.066948000E1,1.411465168E0,9.703856111E-1,1.137029648E0
2.068948469E1,1.421082020E0,1.088509440E0,1.053236365E0
2.071148000E1,1.332523942E0,1.068403244E0,9.396154284E-1
2.073148156E1,1.258906007E0,8.601855040E-1,8.704829812E-1
2.075348000E1,1.150660634E0,5.738118887E-1,9.506284595E-1
2.077349094E1,1.028906465E0,4.241673648E-1,1.071754336E0
2.079548000E1,8.480031490E-1,2.991668880E-1,1.195829749E0
2.081548000E1,7.684510350E-1,2.493202835E-1,1.266847253E0
2.083548000E1,7.523590922E-1,2.748893499E-1,1.276167274E0
2.085548000E1,7.356562614E-1,3.109129667E-1,1.190105081E0
2.087548000E1,6.809576750E-1,2.939658165E-1,1.043462515E0
2.089548000E1,5.542118549E-1,2.600889504E-1,8.559094667E-1
2.091548469E1,3.560995162E-1,2.056172341E-1,5.971120596E-1
2.093748000E1,1.832246631E-1,1.221730486E-1,2.972121239E-1
2.095748156E1,9.313076735E-2,1.238311082E-1,7.698646933E-2
2.097950344E1,-3.970624134E-2,2.611361742E-1,-1.591042131E-1
2.100148625E1,-2.710147202E-1,3.556457460E-1,-4.637863338E-1
2.102348156E1,-4.917814136E-1,2.673844397E-1,-6.856002212E-1
2.104548000E1,-6.352823973E-1,5.550146848E-2,-7.138396502E-1
2.106548469E1,-7.200181484E-1,-1.195550561E-1,-4.880464077E-1
2.108748000E1,-6.705031395E-1,-5.111021996E-1,-3.653672338E-1
2.110749250E1,-5.775818229E-1,-8.573057055E-1,-6.352823973E-1
2.112948000E1,-4.316897392E-1,-8.804662228E-1,-1.162336946E0
2.114948625E1,-3.260449469E-1,-5.541420579E-1,-1.525958776E0
2.117148000E1,-1.740442365E-1,-2.759016454E-1,-1.582786679E0
2.119148469E1,-7.309439033E-2,-9.054768085E-2,-1.331441879E0
2.121348156E1,-1.285958588E-1,4.096287861E-2,-9.495812654E-1
2.123348156E1,-3.910933733E-1,-5.258677155E-2,-6.959151030E-1
2.125548000E1,-8.360301852E-1,-4.035550356E-1,-4.546233714E-1
2.127548000E1,-1.233895421E0,-7.508406639E-1,-2.640159428E-1
2.129548000E1,-1.475326777E0,-1.055644989E0,-1.274264902E-1
2.131548000E1,-1.479969382E0,-1.233511448E0,-1.401324868E-1
2.133548000E1,-1.255746961E0,-1.217995524E0,-2.443286479E-1
2.135548000E1,-9.035744071E-1,-1.003773808E0,-3.488738537E-1
2.137548156E1,-5.834635496E-1,-6.538352370E-1,-4.317072034E-1
2.139748156E1,-4.746422768E-1,-2.295980603E-1,-5.364094973E-1
2.141948000E1,-5.087460279E-1,-8.702211827E-2,-6.557027698E-1
2.143948000E1,-4.249178469E-1,-1.364149302E-1,-7.254286408E-1
2.145948625E1,-4.263839424E-1,-3.445628881E-1,-7.387280464E-1
2.147950656E1,-8.117351532E-1,-4.379031062E-1,-7.232120633E-1
2.150148000E1,-1.379577994E0,-5.065992475E-1,-8.356112838E-1
2.152148000E1,-1.568405271E0,-7.079753280E-1,-8.606393337E-1
2.154148313E1,-1.373033047E0,-7.815409899E-1,-7.726398110E-1
2.156348000E1,-8.348782659E-1,-5.829923153E-1,-6.450562477E-1
2.158349250E1,-3.482455313E-1,-1.670454592E-1,-5.912302732E-1
2.160548000E1,4.003785178E-2,4.143586159E-1,-5.573709011E-1
2.162548156E1,2.116560787E-1,7.420092821E-1,-4.154058099E-1
2.164748000E1,1.803274155E-1,7.960970402E-1,-1.434835196E-1
2.166749094E1,9.548696131E-2,5.137202144E-1,1.509186178E-1
2.168948156E1,1.369734406E-1,7.155849785E-2,3.693640232E-1
2.170948781E1,4.332779944E-1,-2.480636388E-1,4.800179005E-1
2.173148156E1,8.216311932E-1,-1.752310619E-2,6.531545520E-1
2.175149094E1,1.062992811E0,3.175103068E-1,8.616341352E-1
2.177348000E1,1.282956600E0,6.206216216E-1,1.099033833E0
2.179348000E1,1.526028633E0,8.002508879E-1,1.195445776E0
2.181348000E1,1.725240469E0,9.776112437E-1,1.119995236E0
2.183348156E1,1.797898531E0,1.109104395E0,9.988519549E-1
2.185548156E1,1.778420687E0,1.255310655E0,9.157393575E-1
2.187548156E1,1.636682510E0,1.222830057E0,9.501572251E-1
2.189748156E1,1.356452465E0,1.032798529E0,1.215586901E0
2.191749094E1,1.238241315E0,7.711213827E-1,1.437365890E0
2.193948000E1,1.163296819E0,4.587423503E-1,1.456616879E0
2.195948469E1,1.057774186E0,3.425383270E-1,1.410225987E0
2.197950344E1,9.414131641E-1,3.494149148E-1,1.391428828E0
2.200148625E1,7.096508741E-1,4.827580750E-1,1.330412149E0
2.202348156E1,3.968355060E-1,5.745449066E-1,1.209251404E0
2.204348781E1,1.629264802E-1,5.557128191E-1,1.041245937E0
2.206548000E1,2.794272080E-2,5.798681974E-1,1.018905759E0
2.208548625E1,-6.352998316E-2,5.472654104E-1,1.029848933E0
2.210748000E1,-2.945068479E-1,4.306250811E-1,9.872629642E-1
2.212748312E1,-5.860815644E-1,2.442239225E-1,7.758511901E-1
2.214948000E1,-7.515213490E-1,-2.396337129E-2,2.269277126E-1
2.216948000E1,-6.827204227E-1,-2.861990929E-1,-4.040786326E-1
2.218948156E1,-6.799453497E-1,-3.471634388E-1,-7.343123555E-1
2.221148000E1,-7.716449499E-1,-2.358812541E-1,-8.345116973E-1
2.223148000E1,-8.565552235E-1,-1.263792962E-1,-1.065837622E0
2.225148000E1,-8.209679723E-1,-1.961575598E-1,-1.514474511E0
2.227148000E1,-6.188762784E-1,-5.800077915E-1,-1.854325056E0
2.229148000E1,-4.293684363E-1,-9.972811341E-1,-1.836557627E0
2.231148156E1,-2.947337627E-1,-1.258190393E0,-1.606017113E0
2.233348000E1,-2.555162013E-1,-1.185968637E0,-1.235885143E0
2.235348156E1,-2.668783069E-1,-8.880933523E-1,-8.469733596E-1
2.237348156E1,-3.772878349E-1,-5.013982058E-1,-5.806186795E-1
2.239348156E1,-6.210753918E-1,-2.388832122E-1,-4.094018936E-1
2.241548000E1,-9.875072837E-1,-2.773328125E-1,-3.363074958E-1
2.243548469E1,-1.246775985E0,-6.247580647E-1,-4.497713447E-1
2.245750188E1,-1.310497880E0,-1.051019788E0,-8.050854802E-1
2.247950656E1,-1.094775200E0,-1.163104892E0,-1.075402021E0
2.250148000E1,-6.888639927E-1,-8.697150350E-1,-1.159177899E0
2.252148000E1,-3.098832071E-1,-3.571292758E-1,-1.095019579E0
2.254148156E1,-6.003932655E-2,1.376890242E-1,-1.002133131E0
2.256148781E1,7.513642311E-2,3.987902701E-1,-9.347285032E-1
2.258348000E1,1.521228999E-1,4.955338836E-1,-9.457415342E-1
2.260349094E1,2.068913281E-1,4.881336689E-1,-9.735795856E-1
2.262548000E1,2.323731333E-1,3.521376252E-1,-9.191951156E-1
2.264548313E1,2.359336019E-1,1.200088412E-1,-7.794640660E-1
2.266748000E1,1.766622216E-1,-1.846209317E-1,-5.739864111E-1
2.268748625E1,6.058037654E-2,-2.964616120E-1,-3.325375915E-1
2.270748625E1,3.502875939E-2,-2.102947235E-1,-1.296605170E-1
2.272948312E1,9.341002256E-2,-7.461282611E-2,-1.237438433E-2
2.275148000E1,1.334304214E-1,6.501351297E-2,3.415609151E-2
2.277148000E1,6.902777404E-2,2.861990929E-1,1.668185741E-1
2.279148469E1,1.064650831E-3,4.907516837E-1,2.712416053E-1
2.281348156E1,-6.955137104E-2,6.668728590E-1,2.523222566E-1
2.283548000E1,2.424262278E-2,8.982685804E-1,1.968731433E-1
2.285548156E1,3.748269081E-1,1.011051774E0,1.527512223E-1
2.287748000E1,7.396879792E-1,1.171168327E0,4.527733028E-1
2.289748000E1,1.015397668E0,1.250685453E0,9.526355863E-1
2.291748000E1,1.273374796E0,1.207732916E0,1.297739506E0
2.293748625E1,1.337114215E0,1.217506766E0,1.510617375E0
2.295948000E1,1.360257268E0,1.068752408E0,1.558928132E0
2.297950969E1,1.381934285E0,8.771326542E-1,1.546780586E0
2.300148156E1,1.391516089E0,7.665137053E-1,1.550515652E0
2.302148781E1,1.394308686E0,6.807656884E-1,1.614028096E0
2.304348000E1,1.457524419E0,5.152211785E-1,1.612823844E0
2.306348156E1,1.512764096E0,4.383918047E-1,1.573257208E0
2.308548000E1,1.479742527E0,4.050036371E-1,1.467629910E0
2.310548938E1,1.445080280E0,4.159817696E-1,1.353206158E0
2.312748156E1,1.325909138E0,6.064844728E-1,1.183490276E0
2.314748469E1,1.151795149E0,8.171282411E-1,9.383937120E-1
2.316948000E1,9.796532989E-1,9.913295507E-1,5.584530234E-1
2.318948000E1,8.776213527E-1,1.032536745E0,1.950580031E-1
2.320948000E1,8.738688827E-1,1.072749138E0,-7.724827528E-2
2.322948000E1,9.302954078E-1,1.022797823E0,-2.109404951E-1
2.324948000E1,9.335765839E-1,8.144404292E-1,-2.745228410E-1
2.326948000E1,6.930702329E-1,4.569097459E-1,-4.016351700E-1
2.328948781E1,2.965314388E-1,3.104940802E-2,-6.343922615E-1
2.331148156E1,-9.609782696E-2,-3.905523121E-1,-8.281063437E-1
2.333348156E1,-3.799581826E-1,-6.578669548E-1,-8.999790549E-1
2.335548156E1,-5.224643350E-1,-9.283406138E-1,-1.071195841E0
2.337748000E1,-4.687256217E-1,-1.134882927E0,-1.475064993E0
2.339749094E1,-1.798910797E-1,-1.014926434E0,-1.868549466E0
2.341948000E1,2.209063172E-1,-5.326570272E-1,-1.982187867E0
2.343948781E1,4.429645538E-1,-3.726277873E-2,-1.669355035E0
2.346148000E1,4.667010307E-1,2.413964868E-1,-1.199128509E0
2.348148938E1,2.692170441E-1,1.598721594E-1,-8.584750891E-1
2.350348000E1,-1.194852367E-1,-1.475675851E-1,-6.442883015E-1
2.352348000E1,-5.058487654E-1,-5.472130775E-1,-4.752531648E-1
2.354348000E1,-7.276102901E-1,-1.012395740E0,-3.440567553E-1
2.356348000E1,-7.615918517E-1,-1.385983348E0,-3.090279996E-1
2.358348000E1,-6.579192877E-1,-1.489917755E0,-2.959903777E-1
2.360348000E1,-5.331457257E-1,-1.464470863E0,-2.260550410E-1
2.362349094E1,-3.985284865E-1,-1.430995464E0,2.207841538E-2
2.364548000E1,-2.607172728E-1,-1.373469353E0,4.093146026E-1
2.366548312E1,-2.220233381E-1,-1.156367898E0,6.409721375E-1
2.368748000E1,-2.531425655E-1,-8.491026759E-1,6.277949214E-1
2.370748000E1,-3.495196402E-1,-5.476319790E-1,4.019667804E-1
2.372748000E1,-4.113915563E-1,-2.990446985E-1,1.301143020E-1
2.374748000E1,-4.310439527E-1,-2.106088847E-1,-5.475097895E-2
2.376748000E1,-3.840596974E-1,-2.349562198E-1,-1.313883811E-1
2.378748000E1,-2.539628446E-1,-3.154333532E-1,-2.099980116E-1
2.380748469E1,-3.373721614E-2,-2.727774978E-1,-3.171961308E-1
2.382948000E1,2.800206244E-1,4.307472706E-2,-3.338640332E-1
2.384948469E1,4.615697861E-1,3.561693430E-1,-1.714087874E-1
2.387148000E1,3.666587770E-1,6.455100179E-1,1.798736304E-1
2.389148000E1,1.245292425E-1,7.638956904E-1,4.380601943E-1
2.391148000E1,-1.036725566E-2,5.124461055E-1,4.463505149E-1
2.393148000E1,3.344399929E-1,1.633104533E-1,4.825835228E-1
2.395148000E1,5.413487554E-1,4.381998181E-1,8.465545177E-1
2.397148000E1,6.355093122E-1,6.976953745E-1,1.404990077E0
2.399148625E1,7.421314716E-1,9.412037134E-1,1.705204129E0
2.401348000E1,8.668003082E-1,1.057686925E0,1.542225242E0
2.403348469E1,1.062032819E0,1.078665853E0,9.990439415E-1
2.405548156E1,1.314320207E0,8.683012724E-1,5.305801034E-1
2.407548156E1,1.353607535E0,6.859667301E-1,4.542044699E-1
2.409748000E1,1.409370780E0,4.958829582E-1,7.086560130E-1
2.411748000E1,1.457821131E0,4.697728157E-1,8.751255274E-1
2.413748000E1,1.416247368E0,4.646590054E-1,9.723752737E-1
2.415748313E1,1.325211048E0,5.841966271E-1,1.007945061E0
2.417950656E1,1.196684957E0,7.219030857E-1,9.589013457E-1
2.420148156E1,1.063743234E0,7.680495977E-1,8.495739102E-1
2.422148156E1,8.766264915E-1,7.486415505E-1,6.811147332E-1
2.424148781E1,6.487737894E-1,6.343573928E-1,4.916766882E-1
2.426348625E1,3.393792808E-1,4.014257193E-1,3.005980551E-1
2.428348938E1,5.314527452E-2,1.404990107E-1,9.606292099E-2
2.430548000E1,-1.871691048E-1,-1.088212803E-1,-1.027126238E-1
2.432548312E1,-2.670004666E-1,-2.271022350E-1,-2.015157193E-1
2.434748000E1,-3.099355698E-1,-2.650282383E-1,-3.131818771E-1
2.436748938E1,-5.014330745E-1,-3.892084360E-1,-4.669802785E-1
2.438948000E1,-6.818826795E-1,-6.558598280E-1,-5.888566375E-1
2.440948000E1,-7.179760933E-1,-8.646361232E-1,-5.807583332E-1
2.442948000E1,-8.011934161E-1,-8.800473809E-1,-3.932750523E-1
2.444948000E1,-1.172494769E0,-6.673615575E-1,-2.579596639E-1
2.446948000E1,-1.814636230E0,-6.322804093E-1,-4.367686510E-1
2.448948625E1,-2.246779680E0,-1.258172989E0,-8.118398786E-1
2.450948938E1,-2.230408669E0,-2.148395538E0,-1.142824173E0
2.453148156E1,-1.905428290E0,-2.636581659E0,-1.215150595E0
2.455148781E1,-1.533306599E0,-2.132582903E0,-1.083866954E0
2.457348000E1,-1.230038285E0,-1.039064288E0,-6.357710958E-1
2.459348000E1,-1.420226812E0,-5.492027402E-1,-2.350609452E-1
2.461348000E1,-2.164138556E0,-8.777610064E-1,3.035127558E-2
2.463348000E1,-2.881015062E0,-1.467490315E0,1.361182332E-1
2.465348000E1,-3.154508114E0,-1.441956162E0,2.234545052E-1
2.467348000E1,-2.777394772E0,-8.348782659E-1,2.940530777E-1
2.469348938E1,-1.969953060E0,-4.623377323E-2,1.916196942E-1
2.471550031E1,-1.222655535E0,5.074195862E-1,-2.012364566E-2
2.473748156E1,-8.103563786E-1,5.021312237E-1,-3.639186025E-1
2.475948625E1,-5.477890372E-1,2.633876503E-1,-7.803192735E-1
2.477950344E1,-2.556034625E-1,-4.944517836E-2,-1.087462306E0
2.480148156E1,-7.569492608E-2,-2.266484499E-1,-1.191483974E0
2.482348000E1,-2.687807083E-1,-1.251750141E-1,-9.580112100E-1
2.484348313E1,-5.762553811E-1,1.424188633E-2,-7.438418865E-1
2.486548000E1,-8.783718348E-1,-2.101201862E-1,-6.366088390E-1
2.488548156E1,-1.124341130E0,-7.117103338E-1,-5.394987464E-1
2.490548156E1,-1.148862958E0,-1.223405957E0,-5.730439425E-1
2.492548625E1,-1.022954941E0,-1.443614125E0,-6.019989848E-1
2.494748000E1,-8.642172217E-1,-1.250842571E0,-4.880464077E-1
2.496748000E1,-6.789680123E-1,-9.780999422E-1,-4.145331383E-1
2.498748000E1,-4.170987904E-1,-6.829298735E-1,-4.356167316E-1
2.500748000E1,-1.441118419E-1,-4.904898703E-1,-3.898541927E-1
2.502748781E1,6.176720187E-2,-4.677133262E-1,-1.995958537E-1
2.504948625E1,2.385865152E-1,-4.470137358E-1,4.360530674E-1
2.507148000E1,4.462981522E-1,-1.014385372E-1,1.039849758E0
2.509148156E1,5.153084397E-1,2.608045638E-1,1.373626471E0
2.511148313E1,5.481904745E-1,4.588296115E-1,1.483756781E0
2.513348000E1,5.013458133E-1,6.899809837E-1,1.479463220E0
2.515348156E1,3.628015816E-1,8.588939905E-1,1.473180056E0
2.517548000E1,2.043256909E-1,1.028278232E0,1.450106859E0
2.519548000E1,1.819156706E-1,1.027091384E0,1.370013595E0
2.521548000E1,1.380729973E-1,8.444949985E-1,1.146960616E0
2.523548000E1,7.272786647E-2,4.149694741E-1,9.993580580E-1
2.525548625E1,4.373795167E-2,-5.440191180E-2,1.035957575E0
2.527748781E1,3.616322204E-2,-2.179916203E-1,1.026655078E0
2.529948000E1,-3.406882659E-2,-2.133141458E-1,9.085660577E-1
2.531949250E1,-7.480481267E-2,-1.179144457E-1,7.407351732E-1
2.534148000E1,-1.007229537E-1,-9.335765988E-2,5.732359290E-1
2.536149094E1,-1.677610427E-1,-2.818706818E-2,5.161636472E-1
2.538348000E1,-2.733010948E-1,-1.363276690E-1,5.205793381E-1
2.540348469E1,-4.974362850E-1,-2.369808108E-1,4.948183000E-1
2.542548000E1,-8.751080632E-1,-3.491531014E-1,3.908315897E-1
2.544549094E1,-1.199756742E0,-4.312010407E-1,1.694365591E-1
2.546748000E1,-1.279204130E0,-5.446125269E-1,-2.183406949E-1
2.548748625E1,-1.093675613E0,-6.909409165E-1,-6.469761133E-1
2.550948000E1,-7.265107632E-1,-5.584355593E-1,-9.430363178E-1
2.552948781E1,-2.512401342E-1,-2.506292760E-1,-1.025101662E0
2.555148000E1,2.132792324E-1,7.862707973E-2,-9.267349243E-1
2.557148156E1,3.135833144E-1,2.441541106E-1,-7.734600902E-1
2.559348000E1,9.133307636E-2,2.549751401E-1,-7.377681136E-1
2.561348000E1,-2.364048511E-1,3.500607014E-1,-7.507010102E-1
2.563348000E1,-6.523691416E-1,5.606346726E-1,-6.248103976E-1
2.565348625E1,-1.097410679E0,6.283534169E-1,-4.423013330E-1
2.567548000E1,-1.490458846E0,2.932502329E-1,-3.776019812E-1
2.569548938E1,-1.647521019E0,-2.277654707E-1,-4.235216081E-1
2.571748000E1,-1.638864160E0,-7.835131884E-1,-5.308244228E-1
2.573749094E1,-1.552243471E0,-1.010406017E0,-5.299866796E-1
2.575948000E1,-1.431169987E0,-8.807280660E-1,-4.483052790E-1
2.577950813E1,-1.349924922E0,-7.319037914E-1,-3.037047386E-1
2.580148000E1,-1.311719656E0,-5.932548642E-1,-1.067617908E-1
2.582148938E1,-1.281804681E0,-6.783047318E-1,-1.449844986E-1
2.584348000E1,-1.115439892E0,-9.553757906E-1,-4.170813262E-1
2.586348781E1,-8.249822259E-1,-1.042101145E0,-6.636963487E-1
2.588548781E1,-4.602258801E-1,-8.959473372E-1,-8.177042007E-1
2.590748000E1,-1.529955566E-1,-6.341654062E-1,-8.059406877E-1
2.592748000E1,-1.320865154E-1,-3.289422095E-1,-7.097206712E-1
2.594748000E1,-2.850820720E-1,-8.773770183E-2,-5.918934941E-1
2.596748156E1,-4.713087082E-1,-7.155850180E-4,-4.777489603E-1
2.598948000E1,-6.246184111E-1,-9.196139872E-2,-3.907268643E-1
2.600948000E1,-7.026870251E-1,-2.476098537E-1,-3.061656654E-1
2.602948000E1,-6.913248897E-1,-3.875154555E-1,-2.169967890E-1
2.604948000E1,-5.802870393E-1,-4.405909181E-1,-1.385616958E-1
2.606948000E1,-3.804643154E-1,-3.419274390E-1,-6.780604273E-2
2.608948781E1,-1.762084365E-1,-1.607622802E-1,-1.331686229E-2
2.611148000E1,-4.312708601E-2,-3.220132366E-2,7.768460363E-2
2.613148000E1,-7.243116200E-2,4.249876738E-2,2.137679309E-1
2.615148000E1,-1.959655732E-1,1.055226028E-1,3.289771080E-1
2.617148000E1,-3.195523322E-1,1.083325893E-1,4.151963890E-1
2.619148156E1,-4.507487416E-1,8.604472876E-2,4.545361102E-1
2.621148156E1,-5.893976688E-1,-1.303760987E-2,4.501378536E-1
2.623148781E1,-6.935240030E-1,-2.057917714E-1,5.272465348E-1
2.625348000E1,-3.812148273E-1,-2.837032676E-1,6.871361136E-1
2.627348000E1,1.015781611E-1,-1.238660142E-1,7.656759620E-1
2.629348000E1,4.972442985E-1,7.627088577E-2,9.644689560E-1
2.631348000E1,8.322951794E-1,2.340486497E-1,1.183979034E0
2.633348000E1,1.088422179E0,5.347863436E-1,1.291840315E0
2.635348000E1,1.074005842E0,9.042376280E-1,1.126505256E0
2.637348938E1,8.599935174E-1,1.117796063E0,7.223393917E-1
2.639548000E1,5.163033009E-1,1.191082478E0,3.522598147E-1
2.641548000E1,2.511179745E-1,1.222795129E0,1.719672978E-1
2.643548000E1,7.010987401E-2,1.067286253E0,2.134363204E-1
2.645548156E1,-4.188790335E-4,8.132361770E-1,5.817531347E-1
2.647548156E1,6.771877408E-2,3.742334843E-1,8.984256983E-1
2.649748156E1,2.211332172E-1,-1.817062348E-1,1.073901057E0
2.651748156E1,3.066020012E-1,-4.709596336E-1,1.086624503E0
2.653948469E1,3.870965838E-1,-5.002113581E-1,1.135162115E0
2.656148000E1,4.452683926E-1,-3.650006950E-1,1.174152851E0
2.658150344E1,4.559323490E-1,-1.903107017E-1,1.147780895E0
2.660348000E1,3.247883320E-1,2.335250564E-2,9.678548574E-1
2.662348469E1,1.604481190E-1,1.421745270E-1,7.315896749E-1
2.664548000E1,-1.820029318E-1,2.209412307E-1,4.551644027E-1
2.666549094E1,-6.750933528E-1,3.087312877E-1,2.100503743E-1
2.668748000E1,-1.235326529E0,3.197617829E-1,-1.347045153E-1
2.670748938E1,-1.584357500E0,5.269148946E-2,-5.254487991E-1
2.672948000E1,-1.832962275E0,-2.920633852E-1,-8.861036301E-1
2.674948625E1,-1.900000334E0,-5.854532719E-1,-1.056308150E0
2.677148156E1,-1.907540202E0,-5.838126540E-1,-1.095036983E0
2.679149094E1,-1.882808805E0,-3.674441576E-1,-1.174641490E0
2.681348000E1,-1.806503057E0,-1.544790864E-1,-1.445219874E0
2.683348625E1,-1.712761402E0,-1.563640535E-1,-1.666143656E0
2.685548000E1,-1.570534468E0,-2.538057864E-1,-1.699636579E0
2.687548156E1,-1.418079972E0,-6.436425447E-1,-1.506254077E0
2.689548156E1,-1.258138061E0,-1.055086493E0,-1.196877003E0
2.691548156E1,-1.070008993E0,-1.093152046E0,-9.321978092E-1
2.693548156E1,-7.547850609E-1,-9.201201200E-1,-7.460235357E-1
2.695748938E1,-5.236860514E-1,-5.734279156E-1,-5.270196199E-1
2.697950344E1,-5.926091075E-1,-2.343278974E-1,-1.760339141E-1
2.700148000E1,-8.265879154E-1,-1.581093818E-1,8.557349443E-2
2.702148000E1,-1.064842820E0,-3.726103306E-1,6.757915020E-2
2.704148625E1,-1.152859807E0,-6.776415110E-1,-9.028588235E-2
2.706348156E1,-9.667204022E-1,-8.925788403E-1,-2.745053768E-1
2.708348625E1,-6.808005571E-1,-8.403934836E-1,-4.107283354E-1
2.710548156E1,-3.793647587E-1,-6.183875799E-1,-5.677555799E-1
2.712548469E1,-1.631533802E-1,-3.987728357E-1,-6.828600764E-1
2.714748000E1,5.497787148E-3,-2.345024347E-1,-7.215016484E-1
2.716748938E1,8.098327368E-2,-1.226268336E-1,-7.324797511E-1
2.718948000E1,5.354670063E-2,-3.392919898E-2,-7.644716501E-1
2.720948938E1,4.520402756E-3,-3.490658492E-5,-7.612428069E-1
2.722949719E1,-1.021017600E-2,-2.577851340E-2,-7.235960364E-1
2.725148000E1,-2.494075522E-2,-5.438445881E-2,-6.576575041E-1
2.727148000E1,2.483603545E-2,-7.820820063E-2,-5.885249972E-1
2.729148000E1,1.044928655E-1,-9.011135250E-2,-4.877147973E-1
2.731148000E1,1.344427168E-1,5.256931856E-2,-3.068114221E-1
2.733148000E1,1.084547564E-1,2.347991467E-1,-8.868017793E-2
2.735148469E1,-6.262241304E-2,3.796265721E-1,1.383871585E-1
2.737348000E1,-3.808831871E-1,3.593632877E-1,3.664667904E-1
2.739348313E1,-6.914122105E-1,2.229832709E-1,5.217661858E-1
2.741548156E1,-8.633620143E-1,-7.906341925E-3,5.091474652E-1
2.743548156E1,-7.981216311E-1,-1.337096691E-1,3.570594490E-1
2.745548156E1,-4.214446545E-1,-2.456201911E-1,1.267981678E-1
2.747748000E1,3.028146327E-1,-2.610663474E-1,2.878047898E-2
2.749748000E1,1.016252875E0,1.099906489E-1,2.372949570E-1
2.751748781E1,1.735154033E0,6.680596471E-1,5.175075531E-1
2.753948000E1,2.472154140E0,1.178167105E0,6.939778328E-1
2.755948469E1,2.875412464E0,1.502449274E0,7.300537825E-1
2.757950344E1,2.854590654E0,1.645129919E0,7.283259034E-1
2.760148312E1,2.359842300E0,1.766342998E0,7.748912573E-1
2.762348000E1,1.846767783E0,1.664450645E0,8.753699064E-1
2.764348469E1,1.527407408E0,1.418341756E0,1.047825813E0
2.766548000E1,1.230090618E0,1.075052977E0,1.142387748E0
2.768549094E1,9.045866728E-1,7.771427631E-1,1.191065073E0
2.770748000E1,5.640031695E-1,5.783672333E-1,1.213579774E0
2.772748625E1,3.541447520E-1,5.705481172E-1,1.263757944E0
2.774948000E1,2.869321406E-1,6.095038652E-1,1.279273987E0
2.776948938E1,2.568601072E-1,6.976081133E-1,1.237002134E0
2.779148000E1,1.149648353E-1,7.728143334E-1,1.122246742E0
2.781148000E1,-2.401573025E-2,6.392268538E-1,9.971589446E-1
2.783148000E1,-1.705012172E-1,3.412118554E-1,8.704305887E-1
2.785148000E1,-3.855432272E-1,1.126610041E-1,7.843335271E-1
2.787148000E1,-6.657209396E-1,-4.672246426E-2,7.944040298E-1
2.789148000E1,-9.421112537E-1,-3.175626695E-1,8.021009564E-1
2.791148469E1,-1.111163855E0,-6.240424514E-1,5.383293629E-1
2.793348156E1,-1.081528187E0,-8.124333024E-1,2.462659590E-2
2.795348469E1,-1.006566286E0,-7.108027935E-1,-3.960151970E-1
2.797548625E1,-9.345365167E-1,-5.320461392E-1,-6.117029786E-1
2.799748000E1,-8.350003958E-1,-3.461337090E-1,-7.876670957E-1
2.801748000E1,-6.556503773E-1,-3.634124696E-1,-1.056535006E0
2.803748000E1,-4.612556100E-1,-4.823741019E-1,-1.259918332E0
2.805748781E1,-2.890614271E-1,-6.210579872E-1,-1.385983348E0
2.807749094E1,-1.800132543E-1,-6.724928021E-1,-1.411220908E0
2.809948000E1,-1.296256036E-1,-6.310761571E-1,-1.220735669E0
2.811948469E1,-2.222676724E-1,-5.465498567E-1,-9.299463034E-1
2.814148000E1,-4.940503538E-1,-4.675213397E-1,-6.364168525E-1
2.816148312E1,-7.330208421E-1,-6.259448528E-1,-6.052103639E-1
2.818348000E1,-8.979893327E-1,-1.163576126E0,-8.641299605E-1
2.820348625E1,-1.334129691E0,-2.057237148E0,-1.217925668E0
2.822548156E1,-1.993358016E0,-2.701350689E0,-1.372247696E0
2.824548781E1,-2.335372686E0,-2.438608885E0,-1.103606582E0
2.826748000E1,-1.997965693E0,-1.302940607E0,-6.204121709E-1
2.828748156E1,-1.299676895E0,-2.100503743E-1,-2.576280534E-1
2.830948000E1,-7.348534465E-1,7.023903131E-1,-1.156280637E-1
2.832948156E1,-6.359630823E-1,1.255275726E0,-1.955117881E-1
2.835148000E1,-6.506761909E-1,1.298315525E0,-4.679053128E-1
2.837148000E1,-6.922324896E-1,9.405230284E-1,-7.173128724E-1
2.839148156E1,-6.670997739E-1,3.530277610E-1,-8.342673779E-1
2.841148625E1,-6.014578938E-1,-2.237337530E-1,-7.499679923E-1
2.843348000E1,-5.795714855E-1,-5.356590152E-1,-5.504070520E-1
2.845348000E1,-5.567251444E-1,-4.897917509E-1,-4.169242382E-1
2.847348000E1,-4.776791632E-1,-3.606199324E-1,-3.132342398E-1
2.849348000E1,-4.297349751E-1,-2.531076372E-1,-1.412494928E-1
2.851348000E1,-4.750960767E-1,-2.167175263E-1,1.029220670E-1
2.853348000E1,-5.621356368E-1,-2.856405973E-1,3.228859007E-1
2.855348000E1,-6.138672233E-1,-3.524168730E-1,4.359483421E-1
2.857348000E1,-5.657484531E-1,-3.523296118E-1,4.761258066E-1
2.859349875E1,-2.938959897E-1,-3.151366413E-1,4.717450440E-1
2.861548000E1,2.231752574E-1,-2.650457025E-1,5.774073005E-1
2.863548156E1,6.824761033E-1,-7.387978584E-2,8.022231460E-1
2.865548156E1,1.089818478E0,2.521651685E-1,9.572781920E-1
2.867548156E1,1.412617087E0,7.923096418E-1,8.813563585E-1
2.869548156E1,1.698938370E0,1.185584664E0,7.089178562E-1
2.871748781E1,1.634972095E0,1.569731712E0,5.172108412E-1
2.873948000E1,1.205341816E0,1.806887031E0,3.703239560E-1
2.875948781E1,8.787034750E-1,1.720056891E0,1.886700988E-1
2.877951438E1,7.417125702E-1,1.420837641E0,8.251916617E-2
2.880148156E1,8.296597004E-1,8.312653899E-1,1.426283121E-1
2.882148625E1,8.905193210E-1,1.785297245E-1,3.755599558E-1
2.884348000E1,7.951719761E-1,-2.617295682E-1,7.649603486E-1
2.886348313E1,6.161535978E-1,-4.691444933E-1,1.027981520E0
2.888548000E1,4.903153479E-1,-5.060582161E-1,1.171779156E0
2.890548781E1,4.962145686E-1,-3.899763525E-1,1.201135635E0
2.892748156E1,5.443682075E-1,-2.209237814E-1,1.127761960E0
2.894748469E1,5.209807754E-1,-1.023286507E-1,9.972287416E-1
2.896948000E1,4.488114119E-1,-6.176720187E-2,8.182801604E-1
2.898948781E1,3.808657527E-1,-5.017821491E-2,5.800077915E-1
2.901148000E1,2.558129132E-1,-6.187192351E-2,2.565284967E-1
2.903148781E1,1.097812131E-1,-5.756095797E-2,-1.020843089E-1
2.905348313E1,-1.237263903E-1,-4.227187485E-2,-5.364792943E-1
2.907348781E1,-4.475722313E-1,2.541199327E-2,-7.935837507E-1
2.909548156E1,-8.474620581E-1,1.769763790E-2,-8.305149078E-1
2.911748000E1,-1.171238065E0,-2.602809370E-1,-7.448541522E-1
2.913748000E1,-1.467420459E0,-4.768937528E-1,-6.407452822E-1
2.915748000E1,-1.827429533E0,-5.196717978E-1,-6.325596571E-1
2.917748000E1,-2.079699516E0,-4.900535345E-1,-7.546977997E-1
2.919748938E1,-2.071758270E0,-5.469163656E-1,-9.472948909E-1
2.921948000E1,-1.855703831E0,-6.596646309E-1,-9.481850266E-1
2.923948156E1,-1.551754832E0,-8.058010340E-1,-8.004080057E-1
2.925951281E1,-1.246828318E0,-7.796560526E-1,-5.913699269E-1
2.928148938E1,-9.774891138E-1,-5.715080500E-1,-4.145680666E-1
2.930348000E1,-7.007671595E-1,-3.758915663E-1,-2.341359109E-1
2.932348156E1,-4.771904647E-1,-2.575233281E-1,-3.275983036E-2
2.934548000E1,-3.890687823E-1,-3.058514893E-1,1.458571702E-1
2.936549094E1,-5.123588443E-1,-5.427450538E-1,1.341809183E-1
2.938748156E1,-8.318064809E-1,-6.601358652E-1,-1.827534288E-1
2.940748781E1,-1.009236693E0,-5.634795427E-1,-5.708273649E-1
2.942948000E1,-8.857371211E-1,-2.350434959E-1,-7.924667597E-1
2.944948469E1,-5.763426423E-1,1.890366077E-1,-6.987425685E-1
2.947148000E1,-2.633876503E-1,5.576152205E-1,-4.715181589E-1
2.949148000E1,-8.787732571E-2,6.599264145E-1,-2.743657529E-1
2.951148000E1,4.567526653E-2,4.368035495E-1,-1.870469302E-1
2.953148000E1,1.328719109E-1,4.712388909E-4,-2.075022012E-1
2.955148000E1,1.388933063E-1,-3.331659138E-1,-3.038094640E-1
2.957148000E1,1.137431040E-1,-4.027696252E-1,-3.911457360E-1
2.959148781E1,2.076069117E-1,-3.133738637E-1,-4.684638083E-1
2.961348000E1,3.852988780E-1,-8.169886470E-2,-4.667184949E-1
2.963348469E1,4.443259239E-1,1.432915330E-1,-4.713436067E-1
2.965548000E1,3.165852726E-1,3.488738537E-1,-5.043303370E-1
2.967548000E1,2.030166984E-1,3.874630928E-1,-5.220803618E-1
2.969548000E1,1.597848982E-1,2.841396034E-1,-5.769534707E-1
2.971548000E1,1.213003788E-2,1.099731922E-1,-5.330060720E-1
2.973548000E1,-2.225818336E-1,-1.160643920E-1,-3.895225823E-1
2.975548000E1,-4.651128054E-1,-4.388979375E-1,-1.624377966E-1
2.977548000E1,-5.341056585E-1,-8.373216987E-1,1.165879965E-1
2.979548000E1,-3.402344882E-1,-1.058228016E0,4.621806443E-1
2.981548156E1,-9.005898982E-2,-1.205202222E0,7.357435226E-1
2.983548156E1,1.047372073E-1,-1.295732379E0,1.028923988E0
2.985548156E1,1.954245120E-1,-1.126068950E0,1.322191596E0
2.987548938E1,2.211681157E-1,-6.480931044E-1,1.527459741E0
2.989748000E1,2.587101460E-1,-1.126959100E-1,1.553552508E0
2.991748156E1,4.229456484E-1,3.054151535E-1,1.420314074E0
2.993948000E1,6.196966171E-1,7.824311256E-1,1.090586424E0
2.995949094E1,7.669151425E-1,9.065240026E-1,8.249822259E-1
2.997951750E1,9.050579071E-1,8.611105680E-1,5.675461888E-1
3.000148156E1,9.250419736E-1,5.457121134E-1,3.535862565E-1
3.002348156E1,8.614945412E-1,4.548502564E-1,3.055198789E-1
3.004548000E1,7.791324258E-1,4.773300886E-1,3.235840499E-1
3.006548000E1,7.140840292E-1,5.724156499E-1,3.565009534E-1
3.008548000E1,7.168765068E-1,6.791076064E-1,3.481582701E-1
3.010548000E1,7.160736918E-1,7.749959826E-1,2.676636875E-1
3.012548313E1,6.675186157E-1,8.318064809E-1,1.674294323E-1
3.014748156E1,5.664640665E-1,8.561363816E-1,9.880308807E-2
3.016748781E1,4.684289098E-1,7.926936150E-1,5.234242231E-2
3.018948000E1,3.763104379E-1,5.351528525E-1,-5.009094719E-3
3.020948313E1,2.352529317E-1,2.530552745E-1,-3.562216833E-2
3.023148000E1,-4.780456796E-2,1.602561325E-1,-1.122944802E-1
3.025148156E1,-2.036450207E-1,3.363598585E-1,-3.781779408E-1
3.027348000E1,-2.534741759E-1,5.385388136E-1,-6.308317780E-1
3.029348781E1,-3.407755494E-1,7.814013362E-1,-5.749288797E-1
3.031548156E1,-5.999220014E-1,8.230972886E-1,-3.919136822E-1
3.033548313E1,-9.602975845E-1,5.805488825E-1,-2.226691097E-1
3.035748000E1,-1.239707351E0,2.914699726E-3,-1.706408411E-1
3.037748625E1,-1.220927596E0,-5.475097895E-1,-1.964717060E-1
3.039948000E1,-9.575749040E-1,-9.449910522E-1,-1.072853878E-1
3.041948000E1,-5.829923153E-1,-1.051194310E0,1.423839629E-1
3.043948000E1,-1.657888293E-1,-9.935810566E-1,5.037893057E-1
3.045948781E1,1.764527857E-1,-8.060104847E-1,8.250345588E-1
3.047950344E1,3.812148273E-1,-6.495417356E-1,9.547823668E-1
3.050149094E1,4.380427301E-1,-6.399773359E-1,8.966280222E-1
3.052348000E1,3.371976018E-1,-8.032354116E-1,6.134308577E-1
3.054348781E1,2.049714625E-1,-1.020336986E0,2.301042080E-1
3.056548000E1,2.280098200E-1,-1.037545919E0,-2.017600536E-1
3.058548781E1,3.091676235E-1,-6.897192001E-1,-5.277526379E-1
3.060748000E1,5.025501251E-1,-2.029992491E-1,-6.585476398E-1
3.062749094E1,6.986553073E-1,3.041410744E-1,-6.155601740E-1
3.064948000E1,7.802494168E-1,5.070356131E-1,-5.355542898E-1
3.066948781E1,6.425254941E-1,4.694237411E-1,-5.501976013E-1
3.069148000E1,3.783001006E-1,3.293087184E-1,-6.337814331E-1
3.071148156E1,1.804670393E-1,1.804845035E-1,-6.656511426E-1
3.073348156E1,5.298819765E-2,6.543239206E-2,-6.245660782E-1
3.075348156E1,-3.124139272E-2,2.738421597E-2,-5.755223036E-1
3.077548156E1,-7.618362457E-2,-1.396263391E-2,-5.652946830E-1
3.079748000E1,-5.295328796E-2,1.877974346E-2,-6.020687819E-1
3.081748000E1,3.063052893E-2,1.868724078E-1,-6.230301857E-1
3.083748000E1,1.114043668E-1,3.434633315E-1,-5.746845603E-1
3.085748156E1,9.730210900E-2,3.818431199E-1,-4.423013330E-1
3.087950344E1,-6.517059356E-2,3.499559760E-1,-2.427229434E-1
3.090148156E1,-2.843490541E-1,2.666339576E-1,-9.960594028E-2
3.092148156E1,-3.531150222E-1,2.301391214E-1,-1.056622341E-1
3.094348625E1,-1.550026834E-1,-4.392993823E-2,-2.343628109E-1
3.096548000E1,3.184702396E-1,-3.563264310E-1,-2.536835968E-1
3.098548000E1,8.716349006E-1,-2.879618704E-1,-1.392772701E-2
3.100548000E1,1.483425140E0,-1.275661141E-1,1.772905439E-1
3.102548000E1,2.033413410E0,7.483971864E-2,1.962099075E-1
3.104548312E1,2.438312292E0,3.822445571E-1,2.245889604E-1
3.106748156E1,2.602425575E0,5.437223911E-1,6.043202281E-1
3.108748313E1,2.387505770E0,4.469264746E-1,1.121304274E0
3.110948000E1,1.816643357E0,1.413542181E-1,1.613591790E0
3.112948781E1,1.182094097E0,-7.651523501E-2,1.864535213E0
3.115148000E1,6.542192101E-1,-4.199262336E-2,1.883053184E0
3.117148469E1,3.539178669E-1,1.645147353E-1,1.768576980E0
3.119348000E1,1.929810494E-1,4.172733128E-1,1.629229903E0
3.121348000E1,1.522276103E-1,5.099154115E-1,1.513776422E0
3.123348156E1,2.087413818E-1,4.100301862E-1,1.306728005E0
3.125348313E1,3.099530339E-1,1.187347472E-1,1.036865234E0
3.127548000E1,4.593357444E-1,9.861109778E-3,6.804515123E-1
3.129549094E1,7.055493593E-1,1.548979729E-1,4.149171114E-1
3.131748000E1,1.005135059E0,4.207290709E-1,1.743583977E-1
3.133748625E1,1.174798608E0,5.900958180E-1,7.853981853E-2
3.135948000E1,1.127761960E0,6.262590289E-1,1.395739764E-1
3.137950500E1,7.735822797E-1,6.422637105E-1,2.979277074E-1
3.140148000E1,1.500983089E-1,3.580542803E-1,3.836408257E-1
3.142148625E1,-4.343426228E-1,1.207244247E-1,3.018895984E-1
3.144348000E1,-9.228777289E-1,4.593706504E-2,6.263986975E-2
3.146348469E1,-1.168672442E0,-9.841911495E-2,-2.429847419E-1
3.148548156E1,-1.101843834E0,-3.712838888E-1,-6.104463339E-1
3.150548938E1,-8.154701591E-1,-3.909188509E-1,-8.370599151E-1
3.152748000E1,-3.830997646E-1,-2.050936371E-1,-8.532041907E-1
3.154748313E1,2.988003753E-2,3.810053691E-2,-7.525510788E-1
3.156948000E1,3.951250911E-1,1.711818874E-1,-6.218957305E-1
3.158948469E1,5.240700245E-1,4.759512842E-2,-4.117406309E-1
3.161148000E1,5.805139542E-1,-4.607145488E-1,-3.691371530E-2
3.163148000E1,4.322482347E-1,-9.508553743E-1,1.992816925E-1
3.165148000E1,1.793849468E-1,-1.373609066E0,3.778812289E-1
3.167148625E1,-6.059783325E-2,-1.488626242E0,4.344822764E-1
3.169348156E1,-3.092025220E-1,-1.243931055E0,3.587000668E-1
3.171348938E1,-4.773126543E-1,-8.064293861E-1,2.948908210E-1
3.173548000E1,-5.686806440E-1,-2.811725438E-1,2.414139360E-1
3.175548625E1,-6.522818804E-1,8.890707046E-2,6.876597553E-2
3.177748000E1,-7.252191901E-1,3.500083387E-1,-3.229208291E-1
3.179748781E1,-6.733654737E-1,4.026998281E-1,-7.422536016E-1
3.181948156E1,-4.837703705E-1,2.621484399E-1,-1.140869379E0
3.183949094E1,-2.661103606E-1,1.104269847E-1,-1.413786530E0
3.186148000E1,-9.756390937E-3,-5.157447979E-2,-1.642267585E0
3.188149094E1,2.188817412E-1,-1.055051535E-1,-1.738121033E0
3.190348000E1,4.422664344E-1,3.221877664E-2,-1.545907974E0
3.192349094E1,5.881934166E-1,3.443534672E-1,-1.133521557E0
3.194548000E1,5.807408690E-1,6.081599593E-1,-5.867797136E-1
3.196548000E1,3.050835431E-1,5.809851885E-1,-2.050936371E-1
3.198548156E1,-1.645147353E-1,4.568050206E-1,2.029468864E-1
3.200548156E1,-4.904200733E-1,1.287354827E-1,4.148996770E-1
3.202548156E1,-6.191904545E-1,-9.140289575E-2,4.693714082E-1
3.204748000E1,-4.195247889E-1,-6.736970693E-2,5.434257388E-1
3.206748000E1,1.029918790E-1,1.884955540E-2,6.706253290E-1
3.208748000E1,6.272364259E-1,3.981619477E-1,7.385011911E-1
3.210748000E1,1.092384100E0,9.743998647E-1,7.570888996E-1
3.212748000E1,1.378775239E0,1.455761671E0,7.736346126E-1
3.214748000E1,1.516778350E0,1.720528126E0,7.243116498E-1
3.216748000E1,1.495398045E0,1.822298288E0,6.358758211E-1
3.218748000E1,1.376401544E0,1.730982661E0,6.185097694E-1
3.220748781E1,1.190506577E0,1.348162174E0,6.408325434E-1
3.222948000E1,7.837924361E-1,5.515065789E-1,8.856149912E-1
3.224949250E1,1.835039109E-1,-1.074424684E-1,9.975429177E-1
3.227148000E1,-2.803696990E-1,-5.100724697E-1,7.626216412E-1
3.229148000E1,-4.179539979E-1,-4.695110321E-1,4.906469584E-1
3.231148000E1,-2.999697328E-1,-1.990722567E-1,4.498586059E-1
3.233148000E1,1.324704941E-2,1.570621729E-1,5.952794552E-1
3.235148000E1,3.900636435E-1,4.537158012E-1,6.635392904E-1
3.237148000E1,6.772750020E-1,6.193301082E-1,5.915619135E-1
3.239149094E1,8.956854939E-1,5.846503973E-1,3.810926378E-1
3.241348156E1,1.125353336E0,3.436029553E-1,1.287529320E-1
3.243348469E1,1.270460010E0,2.514321208E-1,-6.895796210E-2
3.245548156E1,1.239899397E0,3.377561271E-1,-3.920882046E-1
3.247748000E1,9.166468978E-1,4.827580750E-1,-6.821444631E-1
3.249748000E1,4.462632239E-1,5.346641541E-1,-8.219977021E-1
3.251748000E1,-1.668534800E-2,4.670501053E-1,-8.592954278E-1
3.253748000E1,-3.993836939E-1,2.019869536E-1,-7.443479896E-1
3.255748000E1,-6.717248559E-1,-1.083849445E-1,-4.386361539E-1
3.257748000E1,-7.744200230E-1,-3.793822229E-1,-2.488664985E-1
3.259748000E1,-6.485120058E-1,-6.281963587E-1,-3.695734739E-1
3.261748312E1,-2.445380837E-1,-8.076860309E-1,-6.091548204E-1
3.263948000E1,2.710147202E-1,-9.379224777E-1,-7.371746898E-1
3.265949875E1,6.086311936E-1,-8.196240664E-1,-8.231321573E-1
3.267950500E1,7.517831326E-1,-4.008672237E-1,-8.729438782E-1
3.270148000E1,7.980517745E-1,4.759512842E-2,-7.252191901E-1
3.272148000E1,6.316521168E-1,2.577153146E-1,-4.732460380E-1
3.274148938E1,2.788163424E-1,1.628741324E-1,-2.968630493E-1
3.276348000E1,-1.721941829E-1,-3.034603894E-1,-1.956339478E-1
3.278348313E1,-4.549375176E-1,-8.280540109E-1,-2.703689635E-1
3.280548000E1,-5.501801372E-1,-1.106224537E0,-4.849397242E-1
3.282548469E1,-5.321857929E-1,-1.062678576E0,-7.279593945E-1
3.284748000E1,-4.594404697E-1,-8.981638551E-1,-9.667727947E-1
3.286748312E1,-3.695211112E-1,-7.265805602E-1,-1.141864181E0
3.288948000E1,-3.397981524E-1,-6.783745885E-1,-1.358180285E0
3.290948781E1,-4.715705216E-1,-6.914820075E-1,-1.302242517E0
3.293148156E1,-6.822143197E-1,-5.655564666E-1,-7.769682407E-1
3.295149094E1,-1.026463032E0,-4.250923991E-1,-3.023259342E-1
3.297348156E1,-1.477787733E0,-4.130670726E-1,-1.803623289E-1
3.299348313E1,-1.734961987E0,-6.500827670E-1,-3.858224750E-1
3.301548000E1,-1.847483397E0,-7.991338968E-1,-7.272263169E-1
3.303548000E1,-1.810255527E0,-5.965884328E-1,-9.637533426E-1
3.305548000E1,-1.596208334E0,-2.384468764E-1,-1.100377679E0
3.307548000E1,-1.318107605E0,1.469043642E-1,-1.054684997E0
3.309548000E1,-1.055348277E0,3.242472708E-1,-9.131038785E-1
3.311548156E1,-9.583951831E-1,3.425557613E-1,-7.160736918E-1
3.313548312E1,-9.265604019E-1,3.930132389E-1,-5.614898801E-1
3.315552219E1,-8.261516094E-1,5.220803618E-1,-4.092797041E-1
3.317748156E1,-5.315051079E-1,3.980572522E-1,-1.710422635E-1
3.319748156E1,-2.069087774E-1,-4.363323003E-2,4.203101993E-1
3.321948000E1,1.606051922E-1,-2.598446310E-1,9.411862493E-1
3.323948000E1,5.789431930E-1,-2.591813914E-2,8.716349006E-1
3.325948000E1,9.378875494E-1,6.411117911E-1,7.573158145E-1
3.327950656E1,1.318351865E0,1.283672214E0,7.981564999E-1
3.330148781E1,1.787234545E0,1.842160106E0,9.445547462E-1
3.332348156E1,2.133507967E0,2.023133278E0,1.138897181E0
3.334348156E1,2.198626041E0,1.891849637E0,1.286883593E0
3.336548000E1,1.917802691E0,1.444190145E0,1.367552757E0
3.338548781E1,1.353956580E0,8.592779636E-1,1.414798737E0
3.340748000E1,6.132214069E-1,1.351931989E-1,1.560516357E0
3.342748312E1,3.651228920E-2,-3.971845806E-1,1.727387309E0
3.344749094E1,-4.020191431E-1,-7.887142897E-1,1.872005224E0
3.346948781E1,-7.409446239E-1,-8.655785918E-1,1.897085667E0
3.349148000E1,-8.816530704E-1,-6.022782326E-1,1.784389734E0
3.351148313E1,-8.472875357E-1,-8.620180935E-2,1.513462305E0
3.353348000E1,-7.231945992E-1,4.471184313E-1,1.279308915E0
3.355348938E1,-6.180734634E-1,7.757639289E-1,1.172773957E0
3.357548156E1,-5.792922378E-1,8.762774467E-1,9.368927479E-1
3.359548312E1,-5.212425590E-1,7.494618297E-1,5.808455944E-1
3.361748000E1,-3.376688361E-1,4.728969634E-1,1.376017630E-1
3.363748000E1,-2.600016892E-1,3.328866363E-1,-6.319837272E-2
3.365748000E1,-3.916344345E-1,3.268128932E-1,-1.922829300E-1
3.367748469E1,-4.871214032E-1,3.285582364E-1,-6.164677143E-1
3.369948000E1,-3.830823302E-1,1.590518504E-1,-1.225430608E0
3.371948156E1,-2.446951568E-1,1.188569237E-2,-1.631411552E0
3.374148156E1,-1.826487035E-1,7.066838443E-2,-1.908849120E0
3.376148938E1,-7.597418129E-2,1.110203937E-1,-2.116997004E0
3.378348000E1,2.115862668E-1,-3.071779385E-3,-2.265611887E0
3.380348938E1,5.260422230E-1,-2.785196304E-1,-2.238751173E0
3.382548000E1,6.938905716E-1,-5.430243015E-1,-1.923579693E0
3.384548938E1,6.738716364E-1,-7.105235457E-1,-1.404117346E0
3.386748000E1,4.775744379E-1,-8.001287580E-1,-8.499753475E-1
3.388748312E1,1.352455616E-1,-7.309787869E-1,-3.920009434E-1
3.390948156E1,-2.876302600E-1,-8.207410574E-1,-5.667084083E-2
3.392948938E1,-4.320911467E-1,-9.680817723E-1,6.112143025E-2
3.395148000E1,-3.491531014E-1,-9.388300776E-1,-3.600614145E-2
3.397148781E1,-2.617644668E-1,-6.474822164E-1,-2.419200838E-1
3.399348000E1,-1.700474322E-1,-3.010867536E-1,-3.908490241E-1
3.401348000E1,-5.701990798E-2,-1.207069680E-1,-4.683940113E-1
3.403348000E1,1.192234382E-1,-1.492256522E-1,-5.057615042E-1
3.405348000E1,2.487792373E-1,-2.459343374E-1,-5.289394855E-1
3.407348156E1,3.139323592E-1,-3.292039931E-1,-4.322308004E-1
3.409348156E1,3.166550994E-1,-4.162610173E-1,-2.360034138E-1
3.411548000E1,2.159844935E-1,-5.304229856E-1,1.218239777E-2
3.413548000E1,2.553416602E-2,-5.913000703E-1,2.328618318E-1
3.415552219E1,-1.901536286E-1,-5.660102963E-1,3.889117241E-1
3.417748000E1,-4.399276972E-1,-3.351904750E-1,5.588718653E-1
3.419748000E1,-5.858895779E-1,-1.163611040E-1,6.952518821E-1
3.421748000E1,-5.750859976E-1,-5.632177368E-2,7.489382029E-1
3.423748938E1,-4.446226358E-1,-1.206371561E-1,7.436499000E-1
3.425948000E1,-2.347642332E-1,-3.275634050E-1,6.161710620E-1
3.427951594E1,-8.147197217E-2,-3.125710189E-1,4.011115730E-1
3.430148156E1,2.974040993E-2,-6.965608895E-2,2.796017528E-1
3.432148469E1,2.074672878E-1,-1.042485163E-1,2.866354287E-1
3.434348000E1,3.786666393E-1,-8.496262878E-2,7.094588876E-1
3.436348469E1,3.112794757E-1,6.169738993E-2,1.148060083E0
3.438548000E1,3.230080903E-1,9.353219718E-2,1.439058900E0
3.440548938E1,4.886921942E-1,6.771877408E-2,1.425043821E0
3.442748156E1,8.297120929E-1,1.288053021E-2,1.196440697E0
3.444748313E1,1.089801073E0,2.633701824E-2,9.989392161E-1
3.446948625E1,1.179493546E0,2.038195431E-1,9.204866290E-1
3.448948781E1,1.041088939E0,3.769562244E-1,9.088976383E-1
3.451148000E1,8.817054033E-1,3.963119090E-1,8.174249530E-1
3.453148000E1,7.445225716E-1,3.829426765E-1,6.398551464E-1
3.455148000E1,6.321233511E-1,2.856231332E-1,5.182754993E-1
3.457148000E1,4.907342196E-1,2.017600536E-1,4.037470222E-1
3.459148156E1,2.894454002E-1,-2.131047100E-2,3.704635799E-1
3.461148156E1,7.597418129E-2,-2.464230359E-1,4.176049232E-1
3.463148312E1,-6.103416532E-2,-3.695211112E-1,3.346145153E-1
3.465348000E1,-2.304183692E-1,-5.281715393E-1,3.583684564E-1
3.467349094E1,-4.330510795E-1,-6.069382429E-1,4.453905821E-1
3.469548000E1,-6.684960127E-1,-4.362624884E-1,5.011363626E-1
3.471548625E1,-8.890532851E-1,-6.874851882E-2,4.507661760E-1
3.473748000E1,-1.181989312E0,2.394591719E-1,2.452013046E-1
3.475748156E1,-1.624622226E0,3.287851214E-1,-3.150319308E-2
3.477748156E1,-2.119475365E0,1.806764901E-1,-2.296678722E-1
3.479748625E1,-2.322003365E0,5.984733999E-2,-3.511602581E-1
3.481948000E1,-1.962692499E0,-7.712610066E-2,-5.387482047E-1
3.483949094E1,-1.403419256E0,-2.632829249E-1,-8.942892551E-1
3.486148000E1,-9.665458798E-1,7.759733498E-2,-1.272868633E0
3.488148469E1,-8.303054571E-1,3.909013867E-1,-1.575054884E0
3.490348000E1,-7.167892456E-1,2.283239663E-1,-1.799748659E0
3.492348938E1,-6.254562140E-1,-8.714429289E-2,-1.825509667E0
3.494549094E1,-6.254038215E-1,-2.343802601E-1,-1.731104851E0
3.496748000E1,-6.252118349E-1,-1.937839091E-1,-1.587115169E0
3.498748000E1,-4.491953850E-1,-6.520549953E-2,-1.311859250E0
3.500748781E1,-1.489987522E-1,1.339016557E-1,-9.423032403E-1
3.502948000E1,1.411796808E-1,1.938362718E-1,-6.485294700E-1
3.504962531E1,2.686410844E-1,1.189965457E-1,-6.074618697E-1
3.507148000E1,2.277654707E-1,-3.876376152E-2,-5.498310924E-1
3.509148312E1,8.381070942E-2,-2.239257395E-1,-3.453134000E-1
3.511348000E1,2.012364566E-2,-3.298846781E-1,-5.506513640E-2
3.513348000E1,1.954768784E-3,-2.309419662E-1,1.686162651E-1
3.515348000E1,-4.234168679E-2,6.457717973E-4,1.803099662E-1
3.517348000E1,-7.375761122E-2,2.491108477E-1,1.180715263E-1
3.519348000E1,-7.398450375E-2,3.806737661E-1,2.359685116E-2
3.521348000E1,-8.101818711E-2,3.477742970E-1,-8.705702424E-2
3.523348000E1,-4.729842395E-2,2.797937393E-1,-1.815142483E-2
3.525348000E1,1.729621366E-2,2.125112861E-1,2.241875380E-1
3.527348000E1,9.400343150E-2,1.053131670E-1,4.500855207E-1
3.529348000E1,1.559975296E-1,3.794345632E-2,5.481206775E-1
3.531348000E1,1.064999923E-1,5.482079089E-2,6.477265954E-1
3.533348312E1,-6.435029209E-2,8.325220644E-2,7.366161942E-1
3.535548156E1,-3.877249062E-1,8.901178837E-2,8.497484326E-1
3.537548156E1,-6.380400062E-1,1.244419720E-2,8.158367276E-1
3.539748000E1,-7.358482480E-1,-1.265887320E-1,6.569942832E-1
3.541748000E1,-5.547878146E-1,-1.841671467E-1,4.173256755E-1
3.543748000E1,-6.803293526E-2,-1.807113886E-1,1.641133130E-1
3.545748000E1,5.356938839E-1,-1.922654659E-1,2.593559213E-2
3.547748000E1,1.149438977E0,1.316152811E-1,-7.260569930E-2
3.549748000E1,1.727422118E0,9.541191459E-1,-2.915223539E-1
3.551748313E1,2.167995691E0,1.939252734E0,-4.411319792E-1
3.553948000E1,2.333627462E0,2.698191643E0,-3.623303473E-1
3.555948000E1,2.239798546E0,2.749993086E0,-1.739569604E-1
3.557950344E1,1.869771242E0,2.312491417E0,2.302089334E-2
3.560148000E1,1.235885143E0,1.424520254E0,3.968529701E-1
3.562148000E1,7.076786757E-1,6.232396364E-1,8.031481504E-1
3.564148156E1,3.524866998E-1,8.325220644E-2,1.077339411E0
3.566348625E1,1.274090409E-1,-1.317374557E-1,1.293376207E0
3.568548156E1,-8.393288404E-2,-1.868374944E-1,1.472551703E0
3.570548156E1,-2.608219981E-1,-1.682148278E-1,1.543481946E0
3.572548313E1,-3.749141693E-1,-2.224247605E-1,1.437121511E0
3.574748000E1,-4.037120938E-1,-3.395363390E-1,1.173803687E0
3.576748625E1,-3.801676035E-1,-4.062777460E-1,8.218755126E-1
3.578948000E1,-3.267605305E-1,-3.055547774E-1,3.612482548E-1
3.580948781E1,-2.171713114E-1,-9.628981352E-2,-7.745771110E-2
3.583148156E1,6.691592187E-2,1.937140971E-1,-4.746597409E-1
3.585148781E1,3.196395934E-1,4.770159423E-1,-6.614449024E-1
3.587348156E1,4.055795968E-1,7.058984041E-1,-8.339357376E-1
3.589348781E1,3.632902801E-1,5.492551327E-1,-9.750630856E-1
3.591548000E1,2.727949619E-1,3.534117043E-1,-8.843059540E-1
3.593548313E1,2.477494925E-1,2.330189049E-1,-5.925567150E-1
3.595748000E1,1.805717647E-1,5.037020147E-2,-2.236639410E-1
3.597748156E1,-8.005825430E-2,-1.244070679E-1,-8.616690338E-2
3.599948000E1,-4.421093464E-1,-6.594203115E-1,-2.193355262E-1
3.601948000E1,-7.829896212E-1,-1.242918730E0,-3.836757243E-1
3.603948000E1,-9.468236566E-1,-1.443561792E0,-6.840119958E-1
3.605948000E1,-8.433430791E-1,-1.502187371E0,-1.024386048E0
3.607950188E1,-6.421764493E-1,-1.328247905E0,-1.150905013E0
3.610148156E1,-4.593357444E-1,-1.113659739E0,-1.118651271E0
3.612348000E1,-4.881685972E-1,-9.633519053E-1,-9.526181817E-1
3.614348781E1,-6.735399961E-1,-9.605942965E-1,-7.535808086E-1
3.616348938E1,-8.887565732E-1,-1.136575818E0,-6.369928122E-1
3.618548156E1,-9.348158240E-1,-1.243756533E0,-6.174975038E-1
3.620548156E1,-8.761727214E-1,-1.130711555E0,-7.118499875E-1
3.622748156E1,-7.925190926E-1,-9.794787765E-1,-8.693659306E-1
3.624948000E1,-7.965333462E-1,-8.277049661E-1,-8.316319585E-1
3.626948312E1,-8.645488620E-1,-4.821297526E-1,-7.044497728E-1
3.629148156E1,-8.999615908E-1,-8.491026610E-2,-6.740810871E-1
3.631148625E1,-8.242142797E-1,1.105840579E-1,-7.089003921E-1
3.633348000E1,-5.932374001E-1,4.024729133E-2,-6.825284362E-1
3.635348313E1,-3.417180181E-1,-7.684684545E-2,-5.312083960E-1
3.637548000E1,-2.164208330E-3,-1.350884791E-2,-3.878470659E-1
3.639548000E1,3.739368021E-1,1.981297731E-1,-2.821324766E-1
3.641548000E1,7.240324020E-1,4.105712473E-1,-1.162214726E-1
3.643548000E1,8.952841163E-1,6.332228780E-1,7.297221571E-2
3.645548000E1,8.747066855E-1,8.028514385E-1,2.175727487E-1
3.647548000E1,7.677179575E-1,8.587892652E-1,3.922801912E-1
3.649548156E1,6.745871902E-1,1.049099922E0,5.999220014E-1
3.651548156E1,7.894822359E-1,1.488591313E0,8.607439995E-1
3.653548156E1,9.256353378E-1,1.674119830E0,1.139316082E0
3.655548156E1,7.179935575E-1,1.435201645E0,1.426213264E0
3.657748000E1,1.058716699E-1,1.108964801E0,1.640958548E0
3.659748000E1,-4.489510357E-1,6.925466657E-1,1.664119124E0
3.661748000E1,-7.281687856E-1,4.181634486E-1,1.770043135E0
3.663749094E1,-8.533787131E-1,4.109726846E-1,1.983828545E0
3.665948000E1,-7.526732087E-1,3.200061023E-1,2.102144241E0
3.667950344E1,-4.724082649E-1,2.197194993E-1,2.012678862E0
3.670148156E1,-4.616395757E-2,2.028596252E-1,1.771840811E0
3.672348000E1,5.138772726E-1,3.069161475E-1,1.391777873E0
3.674348000E1,1.084111214E0,4.346219003E-1,1.052974582E0
3.676348000E1,1.492116928E0,5.966058969E-1,8.745844960E-1
3.678348000E1,1.514195323E0,6.678676605E-1,8.808676600E-1
3.680348625E1,1.143661857E0,5.816833377E-1,1.028313041E0
3.682548000E1,4.635245502E-1,7.454301417E-2,1.377570868E0
3.684548625E1,-2.319367975E-1,-6.054198146E-1,1.794355512E0
3.686750969E1,-8.968548775E-1,-1.037196755E0,2.133944273E0
3.688948000E1,-1.273147821E0,-1.153470635E0,2.102982044E0
3.690948000E1,-1.346469164E0,-1.097463012E0,1.846610665E0
3.692948156E1,-1.260790944E0,-9.245183468E-1,1.520740271E0
3.694949719E1,-1.123922229E0,-6.690195799E-1,1.273776174E0
3.697149562E1,-8.556825519E-1,-2.326523811E-1,1.039238811E0
3.699348000E1,-5.957332253E-1,-1.370083448E-2,7.983310223E-1
3.701348312E1,-5.095489025E-1,2.805616856E-1,5.538628101E-1
3.703548000E1,-5.427973866E-1,4.018096924E-1,1.369385272E-1
3.705548469E1,-6.122091413E-1,3.516663909E-1,-3.881961405E-1
3.707748000E1,-7.083767653E-1,3.426430523E-1,-1.109313846E0
3.709748000E1,-8.587892652E-1,4.143586159E-1,-1.786449194E0
3.711748000E1,-8.915839791E-1,4.695284665E-1,-2.382810831E0
3.713748000E1,-7.322877645E-1,6.140068173E-1,-2.962905884E0
3.715748000E1,-5.079780817E-1,7.819424272E-1,-3.433429241E0
3.717748000E1,-3.622081876E-1,9.112887383E-1,-3.712577105E0
3.719748938E1,-4.016700685E-1,1.038819909E0,-3.944636106E0
3.721948000E1,-5.481206775E-1,1.171482444E0,-4.155786037E0
3.723948469E1,-6.461907029E-1,8.748113513E-1,-4.042723656E0
3.726149406E1,-6.626666188E-1,-1.634675413E-1,-3.525006533E0
3.728348000E1,-3.537084162E-1,-1.371322632E0,-2.896478653E0
3.730348000E1,1.052258983E-1,-2.048772097E0,-2.472450972E0
3.732348000E1,4.569970071E-1,-2.219866753E0,-2.115373850E0
3.734348000E1,3.955090642E-1,-2.075021982E0,-1.844865322E0
3.736348469E1,1.963495463E-2,-1.788107276E0,-1.507894635E0
3.738548000E1,-4.278325438E-1,-1.325909138E0,-1.227821708E0
3.740548625E1,-8.617039323E-1,-1.107446313E0,-1.162860513E0
3.742748000E1,-1.052224040E0,-1.003424644E0,-1.121566057E0
3.744748938E1,-8.323125839E-1,-7.404733896E-1,-1.026829600E0
3.746948000E1,-4.225267470E-1,-3.201457560E-1,-1.018556714E0
3.748948938E1,1.556833647E-2,-1.703441329E-2,-1.161254764E0
3.751148156E1,5.386086106E-1,-3.614576906E-2,-1.325647354E0
3.753149250E1,9.856223464E-1,-1.072504818E-1,-1.204224825E0
3.755348156E1,1.208274007E0,-4.736300111E-1,-8.955458999E-1
3.757348469E1,1.557950735E0,-4.780980349E-1,-3.381924331E-1
3.759548000E1,1.619246602E0,-2.669655681E-1,1.647765338E-1
3.761548156E1,1.285731673E0,1.254193634E-1,4.483925402E-1
3.763748000E1,9.118821621E-1,2.987305522E-1,5.954365134E-1
3.765748000E1,6.655114889E-1,5.475795865E-1,6.252292991E-1
3.767748156E1,6.254212856E-1,1.023269057E0,6.109350324E-1
3.769748156E1,7.128622532E-1,1.545262098E0,7.073470354E-1
3.771748156E1,7.682241201E-1,1.752519965E0,9.404532313E-1
3.773948000E1,7.300013900E-1,1.680176139E0,1.264578342E0
3.775948000E1,6.717946529E-1,1.555978417E0,1.636473060E0
3.777950188E1,5.740736723E-1,1.405723095E0,1.990233898E0
3.780148000E1,3.188018501E-1,1.237281322E0,2.319036484E0
3.782148312E1,-1.324704941E-2,1.130310178E0,2.549385071E0
3.784148312E1,-2.559001744E-1,9.351299405E-1,2.664297342E0
3.786348156E1,-2.298773080E-1,4.940503538E-1,2.685363531E0
3.788548156E1,-7.923794910E-3,2.495297194E-1,2.713096857E0
3.790749094E1,1.637118906E-1,3.266558349E-1,2.797762871E0
3.792948000E1,3.225193918E-1,3.938160837E-1,2.738369226E0
3.794948312E1,4.256857932E-1,4.595277309E-1,2.540344238E0
3.797148000E1,4.302585721E-1,5.019915700E-1,2.274286270E0
3.799149094E1,3.706032038E-1,2.231577933E-1,2.083696127E0
3.801348000E1,1.647590846E-1,-3.275459409E-1,1.961767554E0
3.803348781E1,-1.559975296E-1,-9.099099636E-1,1.782173157E0
3.805548000E1,-5.127777457E-1,-1.464680314E0,1.482081294E0
3.807548313E1,-7.705279589E-1,-1.865495205E0,1.206685781E0
3.809748156E1,-9.523388743E-1,-2.066836357E0,1.106870413E0
3.811748156E1,-1.028470159E0,-1.873628378E0,1.072522283E0
3.813948000E1,-9.504016042E-1,-1.425916553E0,9.306619167E-1
3.815948312E1,-8.980242610E-1,-9.850289226E-1,7.591309547E-1
3.817950344E1,-9.017767310E-1,-5.546307564E-1,5.378581285E-1
3.820148000E1,-9.246056080E-1,9.815731645E-2,2.823244631E-1
3.822148000E1,-9.319360256E-1,7.428470254E-1,-4.262094200E-2
3.824148469E1,-9.741555452E-1,1.196283579E0,-4.935092926E-1
3.826348156E1,-9.881705046E-1,1.443841100E0,-1.054423213E0
3.828348625E1,-9.136449695E-1,1.539013863E0,-1.484838843E0
3.830548156E1,-6.955660582E-1,1.581041455E0,-1.866681933E0
3.832548313E1,-3.403566480E-1,1.453789473E0,-1.992485285E0
3.834748000E1,1.196946800E-1,1.134324431E0,-1.872616053E0
3.836748625E1,5.272639394E-1,6.134308577E-1,-1.661815286E0
3.838748781E1,6.980269551E-1,1.484577060E-1,-1.489254594E0
3.840948469E1,4.442735612E-1,-3.184527755E-1,-1.183158636E0
3.843148000E1,-1.574985087E-1,-9.631250501E-1,-9.638406038E-1
3.845148625E1,-8.797855377E-1,-1.202357292E0,-7.914195657E-1
3.847348000E1,-1.434538484E0,-1.083622575E0,-7.549945116E-1
3.849348000E1,-1.732151985E0,-6.094166040E-1,-5.347165465E-1
3.851348000E1,-1.728661299E0,-1.709026396E-1,-1.924574524E-1
3.853348000E1,-1.616174936E0,-1.311091334E-1,1.281246245E-1
3.855348000E1,-1.372631669E0,-3.524518013E-1,3.610562682E-1
3.857348000E1,-1.167712569E0,-5.136678219E-1,4.309392571E-1
3.859348938E1,-1.101267815E0,-6.216339469E-1,3.133215010E-1
3.861548156E1,-1.041647434E0,-5.524490476E-1,1.701521426E-1
3.863548469E1,-9.174323082E-1,-3.199014068E-1,9.162978828E-2
3.865748000E1,-7.905119658E-1,-1.572192609E-1,7.679449022E-2
3.867748000E1,-6.784793139E-1,4.356341809E-2,-3.630284918E-3
3.869748000E1,-6.353173256E-1,2.952747941E-1,-1.137954667E-1
3.871748000E1,-5.992413163E-1,5.661150217E-1,-2.676113248E-1
3.873748000E1,-5.455724597E-1,6.964038014E-1,-4.761781693E-1
3.875748000E1,-4.754451513E-1,7.208908200E-1,-6.300114989E-1
3.877748781E1,-3.559424579E-1,6.479709148E-1,-7.966380715E-1
3.879948000E1,-1.739220619E-1,4.579918385E-1,-9.707870483E-1
3.881948000E1,3.920009360E-2,3.324852288E-1,-1.078369141E0
3.883948000E1,2.479065657E-1,4.050385654E-1,-1.070689678E0
3.885950031E1,4.705931246E-1,5.319938064E-1,-9.994627833E-1
3.887950812E1,6.259274483E-1,6.076712608E-1,-9.146921635E-1
3.890148156E1,7.248701453E-1,6.297671795E-1,-7.352897525E-1
3.892348000E1,6.325247884E-1,6.393141150E-1,-3.650530577E-1
3.894348469E1,3.783350289E-1,4.790056050E-1,1.182809621E-1
3.896548000E1,1.500983089E-1,1.161516607E-1,5.832890272E-1
3.898548156E1,2.150071114E-1,-2.256710678E-1,8.779878616E-1
3.900748000E1,5.172981620E-1,-4.365243018E-1,9.897238612E-1
3.902748781E1,9.879261851E-1,-5.195496082E-1,1.033112764E0
3.904948000E1,1.692637801E0,-7.596196532E-1,1.054929376E0
3.906953156E1,2.196496964E0,-6.561740041E-1,9.897936583E-1
3.909148000E1,2.525665998E0,-3.040538132E-1,1.004611492E0
3.911148156E1,2.590347767E0,2.254267186E-1,9.829170704E-1
3.913348156E1,2.300274134E0,7.086036801E-1,1.050653338E0
3.915348469E1,1.790446043E0,6.424906254E-1,1.258469701E0
3.917548000E1,1.216843605E0,3.956835866E-1,1.471172929E0
3.919548000E1,6.223320365E-1,1.427853853E-1,1.604271770E0
3.921548000E1,1.422792375E-1,-1.428377479E-1,1.726270199E0
3.923548000E1,-1.834864616E-1,-4.493873715E-1,1.852754235E0
3.925548000E1,-3.372150660E-1,-8.309861422E-1,1.982310057E0
3.927548000E1,-4.370130002E-1,-1.178481221E0,2.088251591E0
3.929548938E1,-6.757915020E-1,-1.625110984E0,2.232206345E0
3.931748000E1,-1.153156519E0,-2.105425596E0,2.419113636E0
3.933748625E1,-1.577672958E0,-2.260969400E0,2.648746490E0
3.935948000E1,-1.896876216E0,-2.001421452E0,2.718245506E0
3.937950812E1,-1.981384993E0,-1.690368772E0,2.423215151E0
3.940148000E1,-1.905061722E0,-1.497509956E0,1.952063441E0
3.942148000E1,-1.803256750E0,-1.193351388E0,1.507894635E0
3.944148000E1,-1.653839111E0,-1.230474591E0,1.190768361E0
3.946148312E1,-1.357778907E0,-4.821472168E-1,8.825082779E-1
3.948348000E1,-9.494242072E-1,1.732239276E-1,3.881437778E-1
3.950348938E1,-6.240599155E-1,8.428893089E-1,-2.654994726E-1
3.952548156E1,-4.564210474E-1,1.336032033E0,-8.045095205E-1
3.954548781E1,-4.329114556E-1,1.797025919E0,-1.099976301E0
3.956748000E1,-4.777140617E-1,2.328164577E0,-1.287930846E0
3.958748156E1,-5.914047956E-1,2.591726780E0,-1.376157165E0
3.960948156E1,-9.074664712E-1,2.398937702E0,-1.382335663E0
3.962948469E1,-1.377972364E0,1.955606461E0,-1.284527421E0
3.965148156E1,-1.969987988E0,1.542696476E0,-1.148740768E0
3.967148156E1,-2.299000025E0,1.197470427E0,-1.111774683E0
3.969148156E1,-2.234440327E0,1.034718394E0,-1.054929376E0
3.971348312E1,-1.883070588E0,9.060876966E-1,-9.010262489E-1
3.973548000E1,-1.569731712E0,5.162160397E-1,-6.594377756E-1
3.975548000E1,-1.451450706E0,1.093797833E-1,-5.298994184E-1
3.977548000E1,-1.404257059E0,-2.356194519E-2,-5.373519659E-1
3.979548000E1,-1.365528107E0,9.990264475E-2,-5.910732150E-1
3.981548000E1,-1.107917547E0,4.117057025E-1,-5.937958956E-1
3.983548000E1,-8.422086239E-1,9.169960022E-1,-4.661948979E-1
3.985548156E1,-7.720638514E-1,1.138600469E0,-3.587524295E-1
3.987748000E1,-6.836803555E-1,1.222777724E0,-4.646764696E-1
3.989748469E1,-7.171906829E-1,1.362002611E0,-6.857747436E-1
3.991948000E1,-7.932521701E-1,1.509989023E0,-1.005466700E0
3.993948000E1,-6.961594820E-1,1.577882409E0,-1.318125010E0
3.995948469E1,-3.882485032E-1,1.540392637E0,-1.482290626E0
3.997950344E1,1.239183731E-2,1.448623300E0,-1.427731633E0
4.000148000E1,3.710221052E-1,1.362037539E0,-1.250476003E0
4.002148469E1,5.962568521E-1,1.110029459E0,-1.116225362E0
4.004348000E1,5.967629552E-1,7.613300681E-1,-9.068730474E-1
4.006348469E1,4.584107399E-1,1.628915817E-1,-5.485919118E-1
4.008548000E1,4.305901825E-1,-4.420919120E-1,-1.735904515E-1
4.010548938E1,6.007423401E-1,-6.790726781E-1,-2.862340072E-3
4.012748469E1,9.985901117E-1,-5.634795427E-1,1.731017530E-1
4.014748469E1,1.472761154E0,-3.861540854E-1,4.935092926E-1
4.016948000E1,2.023779154E0,-4.613079727E-1,8.271988034E-1
4.018948781E1,2.233358145E0,-7.277150154E-1,1.064528704E0
4.021148000E1,3.277553797E0,-1.109017134E0,1.292974830E0
4.023148938E1,3.636864662E0,-4.164879322E-1,1.215202928E0
4.025348000E1,4.205807209E0,-7.013779879E-1,1.349750400E0
4.027349094E1,4.612782955E0,8.115781099E-2,1.163960099E0
4.029548000E1,3.925734282E0,9.464746118E-1,1.047162652E0
4.031548000E1,2.549402475E0,1.143051028E0,1.023932338E0
4.033548000E1,1.255415320E0,8.895245194E-1,1.010353684E0
4.035548156E1,3.245963454E-1,5.508258939E-1,1.102192879E0
4.037548156E1,-1.923701912E-1,1.721941829E-1,1.367744684E0
4.039548313E1,-6.323676705E-1,-1.935395598E-1,1.612020969E0
4.041748000E1,-9.780650735E-1,-8.972912431E-1,1.773952603E0
4.043748000E1,-1.047843337E0,-1.374551535E0,1.775785208E0
4.045748312E1,-9.201026559E-1,-1.456145644E0,1.570168018E0
4.047950188E1,-6.781476736E-1,-1.237194061E0,1.282310843E0
4.050148000E1,-3.706555665E-1,-8.916887045E-1,1.091947794E0
4.052148156E1,-7.285004109E-2,-6.608514786E-1,8.953015208E-1
4.054148156E1,2.080781460E-1,-4.986754656E-1,5.245063305E-1
4.056348000E1,4.995830357E-1,-1.847256422E-1,1.431170013E-2
4.058348625E1,7.208209634E-1,1.240405515E-1,-4.256857932E-1
4.060548000E1,7.530921102E-1,2.564761341E-1,-8.334470987E-1
4.062548000E1,6.245136857E-1,2.983640432E-1,-9.950645566E-1
4.064548000E1,4.050211012E-1,4.371526241E-1,-1.086781621E0
4.066549094E1,2.069436908E-1,8.028165698E-1,-1.249655724E0
4.068748000E1,1.860171854E-1,1.137274027E0,-1.461975098E0
4.070748156E1,2.670528293E-1,1.472481966E0,-1.614534259E0
4.072948000E1,3.806563020E-1,1.991211176E0,-1.824846387E0
4.074948313E1,5.980370641E-1,2.530989170E0,-2.078809261E0
4.077148000E1,8.975704908E-1,2.865970135E0,-2.298371792E0
4.079149094E1,1.058908701E0,2.861903667E0,-2.354902983E0
4.081348000E1,8.508305550E-1,2.630647421E0,-2.070623636E0
4.083348781E1,1.255589873E-1,2.206776857E0,-1.489202142E0
4.085548000E1,-8.865574598E-1,1.263635874E0,-9.345191121E-1
4.087548000E1,-1.623924136E0,2.527760267E-1,-8.199557066E-1
4.089548000E1,-2.151118279E0,-5.799205303E-1,-9.229824543E-1
4.091548000E1,-2.324534178E0,-1.086694360E0,-1.279012203E0
4.093548000E1,-2.199359179E0,-1.238922000E0,-1.650802255E0
4.095548000E1,-1.876961946E0,-1.277406454E0,-1.962675095E0
4.097548781E1,-1.571948290E0,-1.361897826E0,-2.048841953E0
4.099748469E1,-1.312208295E0,-1.438413143E0,-1.835859418E0
4.101748938E1,-1.144970894E0,-1.271751642E0,-1.581896663E0
4.103948000E1,-6.552664042E-1,-3.600788713E-1,-1.683858752E0
4.105948469E1,-1.373923123E-1,3.455751836E-1,-1.945745349E0
4.107950344E1,4.009544849E-1,5.759761333E-1,-1.968783736E0
4.110148000E1,1.017038226E0,2.355147302E-1,-1.763725042E0
4.112148000E1,1.306920052E0,-2.889392674E-1,-1.431187391E0
4.114149250E1,1.350012183E0,-6.789680123E-1,-1.055749655E0
4.116348000E1,1.012919307E0,-7.262140512E-1,-7.163704038E-1
4.118348469E1,7.442258596E-1,-5.610186458E-1,-3.883706629E-1
4.120548156E1,4.906120598E-1,-1.669232845E-1,3.712315485E-2
4.122548469E1,2.600889504E-1,2.101376466E-2,4.365940988E-1
4.124748938E1,-4.462806880E-2,1.359436959E-1,8.218231797E-1
4.126948000E1,-2.416931987E-1,1.292939931E-1,1.052258968E0
4.128948000E1,-1.857379377E-1,3.008075058E-1,9.593725801E-1
4.130950188E1,1.176526472E-1,1.566956639E-1,7.590960264E-1
4.133148000E1,6.377084255E-1,-1.750390679E-1,8.788256645E-1
4.135148000E1,1.203264832E0,-3.857875764E-1,1.174240112E0
4.137148156E1,1.784651518E0,-2.681872845E-1,1.443317533E0
4.139148156E1,2.299663305E0,2.185501307E-1,1.668028593E0
4.141348000E1,2.738229513E0,8.581783772E-1,1.766308069E0
4.143348000E1,2.998370886E0,1.432862997E0,1.686581492E0
4.145348156E1,3.120945454E0,1.895043612E0,1.450962067E0
4.147548000E1,2.924316645E0,2.079699516E0,1.180453420E0
4.149548000E1,2.587852001E0,1.778368354E0,1.174571633E0
4.151548000E1,2.172271729E0,1.147571445E0,1.353153706E0
4.153549094E1,1.382300735E0,7.474023700E-1,1.520077109E0
4.155748000E1,3.157126009E-1,3.397108912E-1,1.633279085E0
4.157748000E1,-4.362799525E-1,2.251474652E-3,1.586888313E0
4.159748000E1,-8.824908137E-1,-1.595754474E-1,1.631708264E0
4.161748000E1,-1.032379746E0,-7.079055160E-2,1.721348405E0
4.163748000E1,-1.048436761E0,4.605923966E-2,1.701050282E0
4.165748000E1,-9.841387868E-1,1.304633617E-1,1.599611759E0
4.167748781E1,-8.568344712E-1,1.511106044E-1,1.452445507E0
4.169948156E1,-7.129321098E-1,7.108726352E-2,1.362316728E0
4.171948469E1,-6.978175640E-1,-1.066570729E-1,1.310515404E0
4.174148156E1,-7.484844327E-1,-4.868770540E-1,1.127063870E0
4.176148469E1,-7.185869813E-1,-8.483871222E-1,7.674911022E-1
4.178348000E1,-7.152010202E-1,-7.631801367E-1,5.489060655E-2
