"Time (s)","Gyroscope x (rad/s)","Gyroscope y (rad/s)","Gyroscope z (rad/s)"
4.852563000E-3,-3.696258366E-1,6.929829717E-1,-1.962448210E-1
2.485256300E-2,-4.494920969E-1,1.061439395E0,-4.515166879E-1
4.485256300E-2,-4.257905185E-1,1.148618579E0,-6.167818904E-1
6.485256300E-2,-1.986533701E-1,7.334746122E-1,-7.001214027E-1
8.485256300E-2,1.402546614E-1,8.614945412E-2,-6.509729028E-1
1.048525630E-1,1.649859697E-1,-2.168222517E-1,-4.982740581E-1
1.248525630E-1,-2.391101047E-2,1.534144394E-2,-3.682470322E-1
1.448541250E-1,4.218809903E-1,5.868844390E-1,-2.946988344E-1
1.668525630E-1,1.473616362E0,3.531324565E-1,-6.237806752E-2
1.868525630E-1,2.153404713E0,-1.588947773E-1,3.803770542E-1
2.068525630E-1,1.974403739E0,-2.830924094E-1,7.343298197E-1
2.268744380E-1,1.399247885E0,-1.721069217E-1,7.167892456E-1
2.488603750E-1,5.226039290E-1,-2.317797206E-2,3.212453127E-1
2.708510000E-1,-4.922701120E-1,8.436921835E-1,-2.834414691E-2
2.908510000E-1,-7.184123993E-1,1.342228055E0,-2.818008661E-1
3.108510000E-1,-3.798709214E-1,1.681572318E0,-3.410547972E-1
3.308510000E-1,2.684316412E-2,1.676912308E0,-1.628043056E-1
3.508510000E-1,1.611462533E-1,1.470614433E0,3.178244457E-2
3.708510000E-1,3.610737026E-1,1.084861755E0,1.555611938E-1
3.908525630E-1,4.509407282E-1,3.694512844E-1,2.366317362E-1
4.128510000E-1,3.672172725E-1,1.588249579E-3,2.950828075E-1
4.328510000E-1,2.497566193E-1,5.504768342E-2,3.582462668E-1
4.528510000E-1,2.181137949E-1,-1.649336144E-2,4.568748474E-1
4.728510000E-1,1.414065808E-1,-3.056071512E-2,5.205095410E-1
4.928510000E-1,-3.000221029E-2,-2.684316412E-2,3.851767182E-1
5.128510000E-1,-1.779188663E-1,-2.312735766E-1,1.720894575E-1
5.328510000E-1,-2.456725389E-1,-3.836233616E-1,-7.386233658E-2
5.528510000E-1,-3.769387603E-1,-2.893232405E-1,-2.621833682E-1
5.728510000E-1,-5.829574466E-1,6.129596382E-2,-2.834414840E-1
5.928525630E-1,-7.511722445E-1,7.641226053E-1,-2.386039644E-1
6.128916250E-1,-6.779731512E-1,1.673927784E0,1.034107581E-1
6.348556880E-1,-4.926366210E-1,1.576224327E0,5.537929535E-1
6.568525630E-1,-6.341304779E-1,1.125126481E0,6.825284362E-1
6.788572500E-1,-8.375136852E-1,1.179196835E0,4.407130778E-1
7.008525630E-1,-7.643145919E-1,1.801249623E0,1.178969890E-1
7.228510000E-1,-6.686356068E-1,1.886404157E0,-2.240130156E-1
7.428510000E-1,-6.088581085E-1,1.551946759E0,-3.194999695E-1
7.628525630E-1,-4.525464177E-1,1.044876218E0,-2.422516979E-2
7.848525630E-1,-2.227563709E-1,8.274431229E-1,3.721565604E-1
8.048525630E-1,-1.022239327E-1,8.727693558E-1,5.220279694E-1
8.268510000E-1,-1.815840602E-1,1.671449423E0,8.654040694E-1
8.468510000E-1,-4.124911129E-1,1.932201624E0,1.095857382E0
8.668510000E-1,-5.249950290E-1,1.894572377E0,9.094212651E-1
8.868510000E-1,-3.116285503E-1,2.709309578E0,6.306049228E-1
9.068510000E-1,-1.903456002E-1,3.094521046E0,3.059911132E-1
9.288510000E-1,-3.518234789E-1,2.935731173E0,-6.764896214E-2
9.488510000E-1,-4.568573833E-1,3.018826246E0,-2.357765287E-1
9.688510000E-1,-4.717101455E-1,3.148469210E0,-2.663547099E-1
9.888713130E-1,-6.337639689E-1,2.980481386E0,-1.016479731E-1
1.010851000E0,-7.424107194E-1,2.828986645E0,1.033409461E-1
1.030851000E0,-7.378728390E-1,2.599249125E0,4.775046408E-1
1.050851000E0,-6.266604662E-1,1.454854131E0,4.241848290E-1
1.070851000E0,-5.541420579E-1,1.003093123E0,4.366813898E-1
1.090851000E0,-5.914746523E-1,1.038837433E0,5.258851647E-1
1.110851000E0,-8.083492517E-1,1.265503287E0,4.342029989E-1
1.130851000E0,-6.951820850E-1,1.710998654E0,2.588323355E-1
1.150851000E0,-6.951820850E-1,1.903438568E0,2.267357260E-1
1.170851000E0,-7.570365667E-1,1.749273658E0,1.555088349E-2
1.190851000E0,-7.737044692E-1,1.746114612E0,4.963716492E-2
1.210851000E0,-7.241371274E-1,1.897085667E0,-7.454301417E-2
1.230851000E0,-4.083895981E-1,2.469867706E0,-8.527678996E-2
1.250851000E0,-3.604628444E-1,2.362442732E0,-5.340358615E-1
1.270851000E0,1.034980267E-1,2.413598299E0,-5.133013129E-1
1.290851000E0,7.644716501E-1,2.657979250E0,-2.196496874E-1
1.310851000E0,9.461778998E-1,2.340765715E0,-3.662224412E-1
1.330851000E0,5.436177254E-1,1.624203444E0,-7.986801267E-1
1.350851000E0,7.159340382E-2,1.463231683E0,-8.497309685E-1
1.370851000E0,5.212425590E-1,1.248713255E0,-2.592686713E-1
1.390851000E0,1.896317720E0,1.577812552E0,5.749638081E-1
1.410851000E0,3.519037485E0,1.247700930E0,1.663735151E0
1.430851000E0,3.342305422E0,1.939584464E-1,2.144992113E0
1.450852563E0,1.066535830E0,-4.573460817E-1,2.269102573E0
1.470852563E0,-1.110570431E0,-1.104933023E0,1.953250289E0
1.490852563E0,-2.577083349E0,-1.831024885E0,9.155997038E-1
1.512851000E0,-3.338762522E0,-1.562121987E0,3.159744143E-1
1.532855688E0,-2.985664845E0,-1.650191307E0,2.863387167E-1
1.554861938E0,-2.170002699E0,-1.583799005E0,-3.213151172E-2
1.576852563E0,-1.681031346E0,-1.506358743E0,-4.335048795E-1
1.598851000E0,-2.021457672E0,-1.534702897E0,-2.975437343E-1
1.618851000E0,-2.372932196E0,-2.072473764E0,3.281218931E-3
1.638852563E0,-2.387924671E0,-2.765683651E0,-4.872610271E-1
1.660851000E0,-2.669149399E0,-3.577366352E0,-8.870810270E-1
1.680851000E0,-3.321553469E0,-3.451126814E0,-4.797037542E-1
1.700851000E0,-3.564590693E0,-3.204982996E0,1.277581006E-1
1.720851000E0,-3.412328005E0,-2.669568300E0,-5.219930410E-1
1.740852563E0,-3.522318840E0,-1.926913261E0,-2.023290396E0
1.760852563E0,-3.503573895E0,-6.520200968E-1,-2.687562704E0
1.782851000E0,-2.688679695E0,7.351326942E-1,-2.326576233E0
1.802851000E0,-1.397904038E0,1.360484123E0,-2.470129490E0
1.822851000E0,-4.613777995E-1,1.003721356E0,-3.164596081E0
1.842851000E0,2.478367463E-2,9.217258096E-1,-3.638749599E0
1.862851000E0,3.910235763E-1,1.256026149E0,-3.677216768E0
1.882851000E0,8.057836294E-1,1.514142990E0,-3.582532644E0
1.902851000E0,1.306797862E0,3.251827717E0,-3.735004663E0
1.922851000E0,6.593155861E-1,3.474915504E0,-3.652991533E0
1.942851000E0,-1.862091720E-1,2.989103317E0,-2.681192160E0
1.962851000E0,-2.592861056E-1,2.324237585E0,-1.404117346E0
1.982851000E0,-3.512300551E-1,1.531962752E0,-6.443580985E-1
2.002851000E0,-6.089453697E-1,9.567720294E-1,-2.457249016E-1
2.022851000E0,-2.221804112E-1,1.321999669E0,-2.804220617E-1
2.042851000E0,1.954768784E-3,1.952552199E0,-7.765668035E-1
2.062851000E0,4.880289733E-1,2.299034834E0,-5.394114852E-1
2.082851000E0,2.806663811E-1,2.194385052E0,2.706831098E-1
2.102851000E0,-1.185706854E0,8.326267600E-1,1.184956431E0
2.122851000E0,-2.549123287E0,3.951425478E-2,1.615511656E0
2.142851000E0,-2.831604719E0,3.754203320E-1,8.980067968E-1
2.162851000E0,-1.416596532E0,2.969049454E0,-8.951619267E-1
2.182851000E0,3.195697963E-1,2.301111937E0,-1.662722826E0
2.202851000E0,1.915324330E-1,-5.103866458E-1,-9.066985250E-1
2.222852563E0,-1.256741762E0,-2.372705221E0,-7.844905853E-1
2.242852563E0,-2.707791090E0,-2.740900040E0,-3.810053766E-1
2.264852563E0,-3.146339893E0,-2.352895737E0,1.113520097E-2
2.286851000E0,-1.414484620E0,-1.712988257E0,-7.398799658E-1
2.306851000E0,-1.292067170E-1,-1.584968448E0,-4.138524830E-1
2.326852563E0,-1.124323606E0,-1.875199199E0,5.737071633E-1
2.348852563E0,-1.430244923E0,-1.729202390E0,4.462981522E-1
2.370851000E0,-9.287420511E-1,-1.515870810E0,1.522956848E0
2.390851000E0,-1.501192570E0,-3.179012537E0,2.029992342E0
2.410851000E0,-2.345705032E0,-1.293934703E0,1.443509459E0
2.430852563E0,-1.417818189E0,-1.316798568E0,1.342577100E0
2.452851000E0,-1.273985624E0,-2.039609194E0,6.231697798E-1
2.472851000E0,-1.786292076E0,-2.597172022E0,3.232349753E-1
2.492851000E0,-1.222812533E0,-2.882777691E0,4.761258066E-1
2.512851000E0,-8.971690536E-1,-2.987043619E0,1.010789990E0
2.532851000E0,-1.198273301E0,-2.859844208E0,1.968783736E0
2.552851000E0,-1.080917358E0,-2.405377865E0,1.286953449E0
2.572851000E0,-9.371545315E-1,-1.750861883E0,3.592760265E-1
2.592851000E0,-7.906516194E-1,-1.702586174E0,2.248682231E-1
2.612851000E0,-4.756895006E-1,-1.786553979E0,6.838723421E-1
2.632851000E0,-2.197893113E-1,-1.701573849E0,1.406194329E0
2.652851000E0,-2.474353313E-1,-1.722936630E0,1.759169698E0
2.672851000E0,-1.070584953E-1,-2.422953367E0,1.931468606E0
2.692851000E0,2.110103145E-2,-3.314048529E0,2.202378511E0
2.712851000E0,1.470789015E-1,-3.775792837E0,2.713236570E0
2.732851000E0,3.950378299E-1,-3.237987280E0,3.349409103E0
2.752851000E0,6.677978635E-1,-3.195505857E0,3.146479607E0
2.772851000E0,6.635916233E-1,-3.252752781E0,2.621955872E0
2.792851000E0,5.122366548E-1,-2.318268538E0,2.758929253E0
2.812851000E0,1.296971560E0,-1.630556345E0,3.118292570E0
2.832851000E0,1.546257019E0,-1.348999858E0,1.933283806E0
2.852851000E0,8.143182397E-1,-9.352172017E-1,7.932172418E-1
2.872851000E0,8.148942143E-2,-8.212122917E-1,8.552985787E-1
2.892851000E0,-2.138028294E-2,-5.199685097E-1,1.182635069E0
2.912851000E0,3.069336116E-1,4.399625957E-1,9.081820846E-1
2.932851000E0,9.749408960E-1,1.681519985E0,-8.740085363E-1
2.952851000E0,8.871159554E-1,1.886334419E0,-1.002290249E0
2.972852563E0,-3.169867098E-1,9.387428164E-1,1.024874806E0
2.992852563E0,-4.129798114E-1,-9.634217620E-2,2.489485264E0
3.014851000E0,-1.304703474E0,8.114035428E-2,6.155601740E-1
3.034852563E0,-1.557619095E0,9.943838716E-1,-3.153809905E-1
3.056851000E0,-1.251086950E0,1.202793598E0,-1.236338854E0
3.076851000E0,-7.131764293E-1,1.055173755E0,-1.861009717E0
3.096851000E0,-7.823787332E-1,1.424328327E0,-1.715466619E0
3.116851000E0,-9.305048585E-1,2.059785128E0,-2.150839090E0
3.136851000E0,-8.031306863E-1,1.697280288E0,-2.131047010E0
3.156852563E0,2.456550896E-1,6.508681774E-1,-1.166211605E0
3.176852563E0,1.073552012E0,2.656391077E-2,-1.174920797E0
3.196852563E0,6.383017898E-1,-1.027196050E0,-1.826417208E0
3.216852563E0,-3.837280869E-1,-1.477176905E0,-2.477529764E0
3.236857250E0,-1.861149311E0,-9.447641969E-1,-1.905690074E0
3.258852563E0,-2.145899773E0,-9.856572151E-1,-7.403861284E-1
3.278868188E0,-1.088020802E0,-2.543293834E-1,-9.124406576E-1
3.300852563E0,1.869771183E-1,1.390294313E0,-1.465570450E0
3.322851000E0,5.132489800E-1,2.910319090E0,-1.183437943E0
3.342851000E0,1.873960048E-1,3.220463991E0,-1.028103590E0
3.362851000E0,-2.290221006E-1,2.812301397E0,-1.152615428E0
3.382851000E0,-1.750041693E-1,1.395687461E0,-1.513305187E0
3.402852563E0,-7.852236181E-2,1.034561396E0,-1.233110070E0
3.424857250E0,3.972369432E-2,1.888865113E0,-8.374438882E-1
3.446851000E0,7.356562465E-2,3.381488085E0,-6.730862260E-1
3.466852563E0,-1.964018941E-1,3.019227505E0,-9.896191359E-1
3.488871313E0,-5.574581623E-1,1.558718681E0,-1.148775697E0
3.510851000E0,-3.307747841E-1,1.484175682E0,-1.015868902E0
3.530851000E0,-9.173450619E-2,1.953896046E0,-1.078805447E0
3.550852563E0,-1.027475297E-1,1.937821627E0,-1.179388762E0
3.572851000E0,-1.040216237E-1,1.700229883E0,-7.128448486E-1
3.592851000E0,-5.906194076E-2,1.303761005E0,-2.764077783E-1
3.612851000E0,1.245990545E-1,8.938529491E-1,-2.724458873E-1
3.632851000E0,2.634923458E-1,3.908664882E-1,-5.006477237E-1
3.652851000E0,4.377285838E-1,1.620189101E-1,-5.517160296E-1
3.672851000E0,5.252219439E-1,-1.423490494E-1,-4.661250710E-1
3.692851000E0,5.048888326E-1,-6.996501088E-1,-3.191858232E-1
3.712852563E0,3.631855547E-1,-1.359698772E0,-1.009149402E-1
3.734857250E0,5.050808191E-1,-1.697437406E0,1.392772701E-2
3.756852563E0,9.366832972E-1,-1.696320415E0,-5.232496932E-2
3.778851000E0,1.308647871E0,-1.952796578E0,2.801253460E-2
3.798851000E0,9.745569229E-1,-2.410282135E0,8.899259567E-1
3.818851000E0,2.991494350E-2,-2.370209455E0,1.793936610E0
3.838851000E0,-4.799481034E-1,-2.333173513E0,1.791126728E0
3.858857250E0,-1.736951619E-1,-2.294183016E0,8.423308134E-1
3.880851000E0,2.007128671E-3,-2.225783587E0,2.502802201E-2
3.900851000E0,1.300444752E-1,-1.984788418E0,-5.480508208E-1
3.920851000E0,3.211929500E-1,-1.731401563E0,-6.162583232E-1
3.940851000E0,6.607467532E-1,-1.441223025E0,-4.875402749E-1
3.960851000E0,6.385985017E-1,-1.419825315E0,-4.028918147E-1
3.980851000E0,2.379058301E-1,-1.184275746E0,3.504795730E-1
4.000851000E0,-2.076941775E-3,-1.160033107E0,8.851786256E-1
4.020852563E0,-2.674891651E-1,-1.020441651E0,5.437573195E-1
4.042851000E0,-9.241867661E-1,-1.088265181E0,-2.881887555E-1
4.062851000E0,-1.726095676E0,-1.142579794E0,-7.749785185E-1
4.082851000E0,-2.238349915E0,-1.246357083E0,-7.974234819E-1
4.102851000E0,-2.397803068E0,-1.448378921E0,-8.421562910E-1
4.122851000E0,-2.021894217E0,-9.873850942E-1,-8.705003858E-1
4.142851000E0,-7.929903269E-1,4.343600869E-1,-7.718194723E-1
4.162851000E0,5.453979373E-1,1.114549756E0,-5.917189717E-1
4.182851000E0,2.141990185E0,1.283270836E0,3.829601407E-1
4.202852563E0,1.769118071E0,1.818964720E0,1.203317285E0
4.224858813E0,9.158789515E-1,1.153243780E0,6.306223869E-1
4.246852563E0,1.645321846E-1,1.639771700E0,6.946410239E-2
4.268851000E0,-9.896714687E-1,2.069838285E0,-3.116285503E-1
4.288871313E0,-6.595948339E-1,-2.606300116E-1,1.970825791E-1
4.310852563E0,-5.161811113E-1,-1.061893225E0,-2.808409333E-1
4.332852563E0,-1.881464943E-2,5.061454722E-4,-5.124984980E-1
4.354866625E0,1.552295834E-1,1.725205541E0,-4.748342633E-1
4.376851000E0,2.763379812E-1,1.623383045E0,-6.830520630E-1
4.396852563E0,1.930159628E-1,1.307426095E0,-9.027715325E-1
4.418851000E0,-6.778684258E-1,9.189332724E-1,-7.865501046E-1
4.438851000E0,-1.589715719E0,6.548824310E-1,-5.885948539E-1
4.458851000E0,-2.017112017E0,8.559792638E-1,-2.709449232E-1
4.478852563E0,-1.733670473E0,1.416055441E0,-1.719672978E-1
4.500851000E0,-8.868017793E-1,1.593660116E0,-1.259953231E-1
4.520852563E0,-3.157649636E-1,1.828930497E0,-2.966535985E-1
4.542851000E0,-4.370304570E-2,2.339439392E0,-4.315326512E-1
4.562851000E0,5.708971992E-2,2.365322590E0,-3.694687486E-1
4.582851000E0,-2.029294372E-1,1.642337322E0,-4.400324225E-1
4.602851000E0,-6.928259134E-1,8.445473909E-1,-4.372224212E-1
4.622851000E0,-7.053922415E-1,5.902354717E-1,-3.925943673E-1
4.642851000E0,-1.405862719E-1,6.602755189E-1,-2.202081978E-1
4.662851000E0,3.193079829E-1,7.064045668E-1,-2.237512171E-2
4.682852563E0,4.710818231E-1,2.315353751E-1,-5.016076192E-2
4.704851000E0,4.412890375E-1,4.029965401E-2,-9.719738364E-2
4.724851000E0,6.797882915E-1,-3.393792808E-1,-7.620107383E-2
4.744854125E0,7.717322111E-1,-9.023177624E-1,2.373124212E-1
4.766851000E0,8.218755126E-1,-1.819104314E0,5.763076991E-2
4.786851000E0,4.987627268E-1,-2.578863621E0,-1.673421711E-1
4.806851000E0,3.489262164E-1,-3.046524525E0,-3.225193918E-1
4.826852563E0,7.049733996E-1,-3.298462868E0,-3.364471197E-1
4.848852563E0,1.532591105E0,-2.804063320E0,-5.206142664E-1
4.868852563E0,1.828511596E0,-1.946705341E0,-9.423381686E-1
4.888871313E0,2.605252981E0,-2.470722914E0,-9.182526469E-1
4.910851000E0,3.294727802E0,-1.845755458E0,-3.187494874E-1
4.930851000E0,1.701259732E0,-6.700144410E-1,-1.338667516E-2
4.950851000E0,1.059938431E0,-9.341874719E-1,1.719149351E-1
4.970851000E0,5.601809025E-1,-1.936634779E0,1.372352391E-1
4.990851000E0,2.292490005E-1,-2.740376472E0,9.339256585E-2
5.010851000E0,-1.031664088E-1,-3.013014317E0,8.991936594E-2
5.030851000E0,-8.193971515E-1,-2.943497658E0,-3.928736225E-2
5.050851000E0,-1.776832461E0,-2.467441797E0,-2.705783844E-1
5.070851000E0,-1.866455078E0,-1.326659679E0,-5.016425252E-1
5.090851000E0,-1.451555371E0,-5.388878584E-1,-7.715053558E-1
5.110851000E0,-1.154570222E0,-7.833910584E-1,-1.369524956E0
5.130851000E0,-1.582856536E0,-5.787162781E-1,-1.292643189E0
5.150851000E0,-1.882651806E0,2.771181345E0,-6.953391433E-2
5.170851000E0,-8.684234619E-1,1.231434464E0,2.816961333E-2
5.190851000E0,1.202933311E0,-1.020092607E0,5.933071971E-1
5.210851000E0,1.228135824E0,2.000670880E-1,6.553362012E-1
5.230852563E0,2.773851752E-1,3.530277610E-1,7.222172618E-2
5.252851000E0,-2.994635999E-1,1.503077596E-1,-2.596526444E-1
5.272851000E0,-5.898340344E-1,2.589719594E-1,-5.494994521E-1
5.292851000E0,-5.480508208E-1,6.257005036E-2,-1.092314363E0
5.312851000E0,-7.775092721E-1,-1.125580311E0,-1.329871058E0
5.332851000E0,-9.659001231E-1,-1.656020761E0,-1.105700970E0
5.352851000E0,-1.123503327E0,-8.000240326E-1,-8.332725167E-1
5.372851000E0,-1.306099653E0,1.827464461E0,-7.265107632E-1
5.392851000E0,-1.163349152E0,3.402379751E0,-1.441973567E0
5.412851000E0,-1.412006259E0,3.116128206E0,-2.195798635E0
5.432851000E0,-2.020637512E0,2.698017120E0,-2.234318256E0
5.452851000E0,-2.825670481E0,1.671658874E0,-1.720283747E0
5.472851000E0,-3.356215715E0,7.194945216E-1,-1.188569188E0
5.492851000E0,-3.005858421E0,8.493295908E-1,-7.290065885E-1
5.512851000E0,-2.160804987E0,1.273409724E0,-6.098005772E-1
5.532851000E0,-1.768699169E0,8.927184343E-1,-6.497162580E-1
5.552851000E0,-2.346246004E0,-7.779107094E-1,-8.535183668E-1
5.572851000E0,-2.294968367E0,-1.730284452E0,-1.402564049E0
5.592851000E0,-1.945885062E0,-2.689656973E0,-2.045299053E0
5.612851000E0,-1.565455556E0,-3.339286089E0,-3.103160381E0
5.632851000E0,-1.331703663E0,-2.288196564E0,-3.472751379E0
5.652851000E0,-1.662321329E0,-1.294458389E0,-1.427469850E0
5.672851000E0,-6.687752604E-1,-1.930334233E-2,3.942698836E-1
5.692851000E0,7.303853631E-1,1.849752307E0,2.568077445E-1
5.712851000E0,6.561914086E-1,2.557919741E0,3.512998819E-1
5.732851000E0,4.015129805E-1,1.788508654E0,4.020540416E-1
5.752851000E0,1.573937893E0,7.111867666E-1,-1.525417715E-2
5.772851000E0,3.319598675E0,-3.541447520E-1,-1.064825356E-1
5.792851000E0,4.399695873E0,-6.226636767E-1,-3.043854237E-1
5.812851000E0,3.688893080E0,6.038839221E-1,-3.557330072E-1
5.832851000E0,2.891207695E0,2.173982143E0,-1.823520064E-1
5.852851000E0,2.489171028E0,2.719676733E0,9.557422996E-2
5.872851000E0,1.993689656E0,1.528995633E0,3.810751736E-1
5.892851000E0,2.029294252E0,-2.016989708E0,-3.293436393E-2
5.912851000E0,2.089141607E0,-3.131539583E0,-5.377184749E-1
5.932851000E0,1.933039427E0,-2.262452841E0,-5.394638181E-1
5.952851000E0,2.148500204E0,-1.210193872E0,-2.145009674E-2
5.972851000E0,2.438242435E0,-2.491457462E-1,3.547381759E-1
5.992851000E0,2.323451996E0,-1.602945328E0,2.271022350E-1
6.012851000E0,2.117311239E0,-2.776783943E0,1.524894089E-1
6.032851000E0,2.044967413E0,-3.310243845E0,-1.192234382E-1
6.052851000E0,1.830222011E0,-3.143652201E0,-4.419871867E-1
6.072851000E0,1.074145436E0,-2.096960783E0,-5.872858167E-1
6.092852563E0,-7.710864395E-2,-8.573231697E-1,-3.231477141E-1
6.114858813E0,-1.080672979E0,-1.708502769E-1,6.085963175E-2
6.136852563E0,-1.798509479E0,6.148096919E-1,4.097684026E-1
6.156852563E0,-2.297865629E0,1.466390729E0,8.558745384E-1
6.176852563E0,-1.645566225E0,1.045242786E0,8.476017118E-1
6.198851000E0,5.922600031E-1,-8.447219133E-1,4.352501929E-1
6.218851000E0,4.619886577E-1,-1.096660137E0,5.981243253E-1
6.238858813E0,-3.056246042E-1,-1.426806599E-1,7.398974299E-1
6.260851000E0,-7.961668372E-1,-6.535909176E-1,4.043753445E-1
6.280851000E0,-1.602962732E0,6.133261323E-1,-8.400269598E-2
6.300851000E0,-1.212602377E0,2.197317123E0,-1.019621372E0
6.320851000E0,6.336767077E-1,2.142636061E0,-7.770031095E-1
6.340851000E0,-1.168253541E0,1.759030104E0,-1.407084465E-1
6.360851000E0,-3.359427214E0,1.703790426E0,1.560149789E-1
6.380851000E0,-4.711498737E0,1.867624521E0,-1.934173852E-1
6.400851000E0,-4.687884331E0,2.838847876E0,-5.416280031E-1
6.420851000E0,-2.935032845E0,4.194776535E0,-3.550174236E-1
6.440851000E0,-1.659005284E0,3.886900663E0,3.140545487E-1
6.460851000E0,-1.936146140E0,4.679053128E-1,6.530498266E-1
6.480851000E0,-2.374258757E0,-2.311112642E0,1.605877429E-1
6.500851000E0,-1.649563074E0,-2.410369396E0,-4.531572759E-1
6.520851000E0,-5.430591702E-1,-1.608984113E0,-3.639011383E-1
6.540851000E0,-3.213151097E-1,-4.937012792E-1,-7.731808722E-2
6.560851000E0,-1.142859101E0,4.198912978E-1,3.367612660E-1
6.580851000E0,-1.851270676E0,7.735822797E-1,3.662398756E-1
6.600893188E0,-1.812088132E0,7.252715826E-1,1.215621829E-1
6.622851000E0,-1.426317930E0,2.938087285E-1,-1.063254550E-1
6.642851000E0,-1.501384616E0,-1.122246683E-1,-2.176250964E-1
6.662851000E0,-1.375633597E0,-3.296926990E-2,-2.235592157E-1
6.682851000E0,-4.896346629E-1,6.765768528E-1,-1.663473248E-1
6.702851000E0,-8.604473434E-3,1.165652990E0,-9.044296294E-2
6.722851000E0,2.014109939E-1,1.550306201E0,1.918291301E-1
6.742851000E0,4.820948541E-1,1.698519468E0,4.063475430E-1
6.762851000E0,1.585299969E0,1.720091820E0,3.721216619E-1
6.782851000E0,2.973517418E0,1.109837413E0,4.478689432E-1
6.802851000E0,4.199558735E0,7.328986526E-1,3.860842884E-1
6.822851000E0,3.552652597E0,9.617462158E-1,6.170611382E-1
6.842851000E0,2.711875200E0,5.321334600E-1,8.063246608E-1
6.862851000E0,2.370157003E0,1.622108966E-1,7.500727177E-1
6.882851000E0,1.995853782E0,1.618792862E-1,5.429719090E-1
6.902851000E0,2.978962898E0,-3.853686899E-2,3.464303911E-1
6.922851000E0,3.800018072E0,-1.593677640E0,4.372398853E-1
6.942851000E0,3.470604658E0,-3.363458872E0,7.768809795E-1
6.962851000E0,3.547224522E0,-2.817694426E0,7.751356363E-1
6.982851000E0,3.301569462E0,-2.163545132E0,2.826386094E-1
7.002851000E0,2.567728281E0,-1.428743958E0,-1.221730467E-2
7.022851000E0,1.673351884E0,-1.372980714E0,-4.197516665E-2
7.042851000E0,1.093675613E0,-2.255855560E0,-1.720894575E-1
7.062851000E0,7.870736718E-1,-3.083106756E0,-4.142538905E-1
7.082851000E0,6.642025113E-1,-2.523833275E0,-5.780705214E-1
7.102852563E0,-1.331686229E-2,-4.975584745E-1,-3.208264112E-1
7.124852563E0,-1.037894964E0,5.070530772E-1,1.721069217E-1
7.144852563E0,-2.307796478E0,7.071201205E-1,5.118876100E-1
7.164855688E0,-3.233990431E0,1.003773808E0,7.781026959E-1
7.186851000E0,-1.469514847E0,8.463101834E-2,7.207860947E-1
7.206851000E0,8.361697793E-1,-1.131758690E0,3.728546798E-1
7.226851000E0,5.508258939E-2,-1.332663655E0,5.391845703E-1
7.246852563E0,-2.034530342E-1,-1.014874101E0,6.063797474E-1
7.268852563E0,-1.437330961E0,3.067241609E-1,3.076840937E-1
7.288871313E0,-2.125811100E0,1.372526884E0,-2.634399831E-1
7.310851000E0,-1.207314014E0,2.299750566E0,-1.046691418E0
7.330851000E0,1.028121114E0,2.503343105E0,-1.652914047E0
7.350851000E0,-9.796532989E-1,4.667184949E-1,-9.005375504E-1
7.370851000E0,-3.552861929E0,-4.819726646E-1,-7.424630970E-2
7.390851000E0,-4.517191410E0,7.246606946E-1,3.323805034E-1
7.410851000E0,-3.909188509E0,2.200109720E0,3.891735077E-1
7.430851000E0,-2.853107214E0,2.726850033E0,3.996454775E-1
7.450851000E0,-1.950527549E0,2.185850382E0,4.932125807E-1
7.470851000E0,-1.471068263E0,9.347110987E-1,4.751833379E-1
7.490852563E0,-1.762258887E0,-1.238695025E0,1.905899495E-1
7.510852563E0,-1.646124721E0,-1.709811807E0,1.033933014E-1
7.532851000E0,-7.846127748E-1,-6.056292653E-1,1.145808622E-1
7.552851000E0,-8.036019206E-1,1.185427606E-1,2.992366850E-1
7.572851000E0,-1.402686238E0,4.335397780E-1,3.988426328E-1
7.592851000E0,-1.576957345E0,5.460262299E-1,-3.237585723E-2
7.612851000E0,-1.615616322E0,6.152111292E-1,-3.076666296E-1
7.632851000E0,-1.533673167E0,2.729869485E-1,-3.631681204E-1
7.652851000E0,-1.543604136E0,-3.776368797E-1,-4.502774775E-1
7.672851000E0,-1.232516646E0,-5.755572319E-1,-2.914350629E-1
7.692851000E0,-2.185850292E-1,7.323052287E-1,-1.021192148E-1
7.712851000E0,3.075444698E-1,1.841671467E0,3.768165782E-2
7.732851000E0,5.807757378E-1,1.328945994E0,4.428772926E-1
7.752852563E0,1.195026994E0,6.072000265E-1,3.284186125E-1
7.774851000E0,2.331986666E0,4.763701558E-1,3.618765771E-1
7.794865063E0,3.638068914E0,3.086789250E-1,8.304625750E-1
7.814865063E0,3.822585106E0,-2.734931000E-2,9.802641869E-1
7.836851000E0,2.688714504E0,-4.664392471E-1,1.091267109E0
7.856865063E0,2.255907774E0,-3.852988780E-1,1.008538485E0
7.878852563E0,2.134677410E0,5.123413801E-1,9.458287954E-1
7.900851000E0,2.708174944E0,-1.572541706E-2,6.460510492E-1
7.920851000E0,2.646390438E0,-1.505800247E0,5.440365672E-1
7.940851000E0,2.410090208E0,-3.344382524E0,6.985331178E-1
7.960851000E0,2.903250456E0,-2.497409105E0,8.077034950E-1
7.980851000E0,3.035319567E0,-2.412743092E0,6.575179100E-1
8.000851000E0,3.012892008E0,-3.279875040E0,3.875852525E-1
8.020851000E0,3.105883121E0,-4.471149445E0,4.469613731E-1
8.040851000E0,3.076404572E0,-4.803687096E0,1.525243223E-1
8.060851000E0,1.866018772E0,-4.146675587E0,-5.828527212E-1
8.080851000E0,8.626115322E-1,-3.380824804E0,-6.454402208E-1
8.100851000E0,-2.617993741E-4,-2.460181236E0,-4.565781355E-1
8.120851000E0,-1.102472067E0,-7.248003483E-1,-3.577925032E-3
8.140851000E0,-2.565860987E0,4.183379710E-1,5.555033684E-1
8.160852563E0,-3.693692684E0,1.427050948E0,9.361945987E-1
8.182851000E0,-3.525844336E0,2.344797373E0,9.575749040E-1
8.202852563E0,2.110190392E0,4.513595998E-1,-7.555879354E-1
8.224860375E0,1.363520980E0,-1.992904186E0,-4.685859978E-1
8.246852563E0,4.025776386E-1,-8.353495002E-1,4.569970071E-1
8.268851000E0,-2.356543541E-1,-1.334845304E0,-5.820672959E-2
8.288869750E0,-1.751839280E0,5.272639543E-2,-3.796090931E-2
8.310851000E0,-1.730336905E0,2.874993563E0,-4.736998081E-1
8.330851000E0,-3.301290274E-1,4.095432758E0,-4.987278283E-1
8.350851000E0,-7.360227704E-1,1.364882350E0,-8.215090036E-1
8.370851000E0,-2.752244711E0,7.990640998E-1,-5.718396902E-1
8.390851000E0,-3.941546917E0,2.145271540E0,4.478514791E-1
8.410851000E0,-4.223016262E0,3.120421886E0,5.791351795E-1
8.430851000E0,-3.453308344E0,3.407057285E0,4.519879222E-1
8.450851000E0,-2.212396860E0,2.732557297E0,5.695183873E-1
8.470851000E0,-1.575508714E0,1.143173218E0,5.666909814E-1
8.490851000E0,-1.677401066E0,-6.302384138E-1,2.112371922E-1
8.510851000E0,-1.784407139E0,-1.736445546E0,-1.155582517E-1
8.530851000E0,-1.250859976E0,-1.685970545E0,-1.762607992E-1
8.550851000E0,-1.121059895E0,-1.297390461E0,-5.853834376E-2
8.570851000E0,-1.335840106E0,-8.002858162E-1,9.539970011E-2
8.590851000E0,-1.487439394E0,2.449395061E-1,1.324704885E-1
8.610851000E0,-1.694976449E0,9.902300239E-1,1.971000284E-1
8.632851000E0,-1.588546276E0,5.091823339E-1,-8.028514683E-3
8.652851000E0,-1.514509439E0,3.316125600E-3,-1.664694995E-1
8.672851000E0,-1.013791919E0,2.748893499E-1,-1.021192148E-1
8.692851000E0,-5.510178804E-1,4.821472168E-1,-7.773696631E-2
8.712851000E0,-1.745678335E-1,7.614697218E-1,-1.831548512E-1
8.732851000E0,3.306177258E-1,1.286464691E0,2.382374369E-2
8.752851000E0,4.301363826E-1,1.059292674E0,3.134785891E-1
8.772851000E0,1.242988586E0,7.685033679E-1,2.800555229E-1
8.792851000E0,2.572789907E0,3.935193717E-1,5.355368257E-1
8.812851000E0,4.054783821E0,-6.016673446E-1,7.095636129E-1
8.832851000E0,3.737360716E0,-9.238376617E-1,8.450011611E-1
8.852851000E0,2.806506872E0,-4.265410006E-1,1.029133439E0
8.872851000E0,2.340434074E0,6.555805802E-1,8.881980777E-1
8.892851000E0,1.948363423E0,1.680682302E0,6.751980782E-1
8.912851000E0,2.988823891E0,-1.559992790E0,-8.140215278E-2
8.932851000E0,3.579513311E0,-2.947965860E0,-3.024655581E-1
8.952851000E0,3.364837646E0,-2.342249393E0,-6.145304441E-2
8.972851000E0,2.855917215E0,-1.499831200E0,1.641133130E-1
8.992851000E0,2.633440018E0,-6.458416581E-1,5.091997981E-1
9.012851000E0,2.290465355E0,-1.585980654E0,5.052728057E-1
9.032851000E0,2.096873522E0,-3.054395914E0,2.222327739E-1
9.052852563E0,1.952115893E0,-3.812026024E0,-1.111076623E-1
9.074854125E0,1.348842859E0,-3.845274448E0,-5.554684997E-1
9.094857250E0,5.105087757E-1,-2.751773357E0,-2.140297294E-1
9.116851000E0,-7.943167686E-1,-1.310620070E0,2.508387268E-1
9.136851000E0,-1.610589862E0,-5.902528763E-1,5.176821351E-1
9.156851000E0,-2.617609978E0,3.558377326E-1,8.639030457E-1
9.176851000E0,-3.899816036E0,2.838969946E0,1.065767884E0
9.196851000E0,-2.965838015E-1,2.473271132E0,9.194394201E-2
9.216851000E0,2.159269094E0,-2.078425407E0,-8.808676600E-1
9.236851000E0,1.280373573E0,-2.627226591E0,1.747772694E-1
9.256851000E0,6.438519806E-2,-1.000457644E0,2.715906799E-1
9.276851000E0,-9.351823330E-1,-1.105369329E0,1.918640435E-1
9.296851000E0,-1.368285775E0,1.840083122E0,-2.475924045E-1
9.316851000E0,-1.113380432E0,4.011011124E0,-5.120446682E-1
9.336851000E0,-1.223405957E0,3.042458057E0,-9.573131055E-2
9.356851000E0,-1.968679070E0,1.143574595E0,4.478863776E-1
9.376851000E0,-3.216886044E0,6.352998614E-1,2.819753885E-1
9.396851000E0,-3.802025318E0,3.001355410E0,-2.176425606E-2
9.416851000E0,-3.304431915E0,4.579674244E0,-2.888519876E-2
9.436851000E0,-2.778686285E0,4.173658371E0,4.205894470E-1
9.456851000E0,-2.249554873E0,1.832717896E0,7.799876332E-1
9.476851000E0,-2.095546961E0,-7.269470692E-1,5.053775311E-1
9.496851000E0,-1.579016805E0,-6.814812422E-1,-1.069886833E-1
9.516851000E0,-9.726894498E-1,-4.880813360E-1,-7.827802002E-2
9.536851000E0,-1.179057121E0,-6.719692349E-1,-2.323033288E-2
9.556851000E0,-1.645548820E0,-2.440493852E-1,-3.190461919E-2
9.576851000E0,-1.373364687E0,9.011833072E-1,2.703515068E-2
9.596851000E0,-1.439565063E0,1.379595518E0,3.890338913E-2
9.616851000E0,-1.626856327E0,1.021576166E0,-6.410594285E-2
9.636851000E0,-1.693597674E0,4.225267470E-1,-2.860071063E-1
9.656852563E0,-1.232411861E0,4.670326412E-1,-2.330363542E-1
9.676852563E0,-5.465673208E-1,9.483770132E-1,-1.718102098E-1
9.696852563E0,-2.268753499E-1,1.193875074E0,-7.888887823E-2
9.718851000E0,9.700539708E-2,1.286360025E0,2.817136049E-1
9.738851000E0,4.596149921E-1,7.748214602E-1,4.104316235E-1
9.758851000E0,1.572681308E0,2.179043591E-1,2.182883322E-1
9.778852563E0,3.215629578E0,-2.663372457E-2,2.955366075E-1
9.800851000E0,4.313685894E0,-1.024508253E-1,4.641877711E-1
9.820851000E0,3.254689932E0,1.098161191E-1,8.199033141E-1
9.840851000E0,2.344343662E0,6.422811653E-3,1.107812881E0
9.860851000E0,2.040656328E0,6.395584345E-1,9.730210304E-1
9.880851000E0,1.669651747E0,1.030390024E0,7.410144210E-1
9.900851000E0,2.837608576E0,-1.327026129E0,1.145285070E-1
9.920851000E0,3.008197069E0,-2.035752058E0,-1.306029856E-1
9.940851000E0,2.929744482E0,-2.237599373E0,4.192280769E-2
9.960851000E0,2.774288177E0,-1.753549695E0,3.715631366E-1
9.980851000E0,2.545039177E0,-1.646316767E0,4.975235462E-1
1.000085100E1,2.400787592E0,-2.927894592E0,3.979176283E-1
1.002085100E1,2.302577972E0,-3.637615204E0,1.061160211E-2
1.004085100E1,1.906318426E0,-4.063789845E0,-4.495269954E-1
1.006085100E1,1.135266900E0,-3.570402622E0,-5.481730103E-1
1.008085100E1,2.281494439E-1,-2.371326447E0,-2.046573013E-1
1.010085100E1,-7.027917504E-1,-1.324582696E0,9.297368675E-2
1.012085256E1,-1.466879368E0,-5.396732688E-1,5.110498667E-1
1.014285100E1,-2.749015808E0,1.299310327E0,1.026358366E0
1.016285100E1,-3.636637926E0,2.926323652E0,1.226844311E0
1.018285100E1,7.542614937E-1,1.185026169E0,-6.072000414E-2
1.020285100E1,1.769798756E0,-2.636372089E0,-4.195946157E-1
1.022285100E1,5.185722113E-1,-1.590989828E0,4.442386627E-1
1.024285100E1,-3.673219979E-1,-3.523994386E-1,2.794970274E-1
1.026285100E1,-1.355509996E0,-5.866400599E-1,1.392772794E-1
1.028285100E1,-1.675027370E0,1.624744415E0,-4.362450540E-1
1.030285100E1,1.079486161E-1,3.869744062E0,-7.126353979E-1
1.032285100E1,8.056265116E-1,2.844398022E0,-2.188468277E-1
1.034285100E1,-2.098636150E0,9.470156431E-1,5.302484632E-1
1.036285100E1,-3.922924280E0,6.126280427E-1,2.201732844E-1
1.038285100E1,-4.123130798E0,2.594973087E0,-2.307499796E-1
1.040285100E1,-3.328779221E0,4.164006710E0,-5.847551227E-1
1.042285100E1,-2.520377636E0,3.658646345E0,-2.580818236E-1
1.044285100E1,-1.999082685E0,1.831094742E0,4.396833479E-1
1.046285100E1,-1.805211544E0,-7.659900784E-1,4.008148611E-1
1.048285100E1,-1.788561106E0,-1.467315793E0,-1.052433550E-1
1.050285100E1,-1.244262695E0,-8.541990519E-1,-3.640756756E-2
1.052285100E1,-1.169841886E0,-1.412844062E-1,4.202752933E-2
1.054285100E1,-1.568911314E0,2.434559762E-1,5.342452973E-2
1.056285100E1,-1.646089792E0,7.259173393E-1,-5.110324174E-2
1.058285100E1,-1.516638756E0,8.320159316E-1,-4.431391135E-2
1.060285100E1,-1.526342750E0,5.046270490E-1,-1.898918301E-2
1.062285256E1,-1.433840394E0,8.904670179E-2,-1.958259344E-1
1.064485725E1,-1.006217241E0,-2.556732893E-1,-1.702743173E-1
1.066685100E1,-6.752678752E-1,-1.430995464E-1,-7.075564563E-2
1.068685100E1,-3.403741121E-1,4.450415075E-1,-1.010371074E-1
1.070685100E1,2.698279023E-1,1.212776899E0,-2.515019476E-2
1.072685100E1,3.440742195E-1,1.349401355E0,3.553839326E-1
1.074685569E1,7.352024913E-1,1.436563015E0,4.212352037E-1
1.076885100E1,1.963530302E0,1.215115666E0,6.535210609E-1
1.078887288E1,3.687583923E0,3.294832408E-1,5.611059070E-1
1.081085256E1,3.874194622E0,-4.512199759E-1,7.037516832E-1
1.083285100E1,2.803853989E0,-4.957607687E-1,9.527927041E-1
1.085285100E1,2.276223421E0,8.080874570E-3,1.049588680E0
1.087285100E1,1.773132324E0,9.968622327E-1,7.944913507E-1
1.089285100E1,2.663075686E0,-9.812589884E-1,-1.495049000E-1
1.091285256E1,3.658227444E0,-2.008315563E0,-2.520604432E-1
1.093485100E1,2.982540846E0,-1.782085896E0,-4.750786349E-2
1.095486819E1,2.581394196E0,-5.646314621E-1,1.621061862E-1
1.097685100E1,2.215992212E0,-5.061105490E-1,2.649235129E-1
1.099685100E1,2.231054306E0,-1.945989728E0,2.748020887E-1
1.101685100E1,2.584256649E0,-3.201335192E0,1.673770696E-2
1.103685100E1,2.344238997E0,-4.107771873E0,-5.581388474E-1
1.105685100E1,1.569190621E0,-3.699713945E0,-6.953391433E-1
1.107685100E1,5.657659173E-1,-2.301076889E0,-2.210459560E-1
1.109685100E1,-4.895125031E-1,-1.043375254E0,1.780061275E-1
1.111685100E1,-1.226495266E0,-1.599594206E-1,5.189038515E-1
1.113685100E1,-2.054915667E0,5.574058294E-1,9.014450908E-1
1.115685256E1,-3.556788921E0,1.820552945E0,1.249673247E0
1.117685256E1,-2.647367716E0,1.028505087E0,8.241793513E-1
1.119685256E1,8.556127548E-1,-5.412614942E-1,-5.104215145E-1
1.121885100E1,1.553185940E0,-1.728224993E0,8.943066746E-2
1.123885100E1,3.565184176E-1,-8.231496215E-1,2.718175650E-1
1.125885100E1,-6.415132284E-1,-7.408922911E-1,1.203229949E-1
1.127885881E1,-1.630067706E0,6.909060478E-1,7.380997390E-2
1.130085100E1,-1.702306867E0,3.440654755E0,-2.698628008E-1
1.132085100E1,1.806590259E-1,4.209664345E0,-4.136779308E-1
1.134085100E1,-7.610158920E-1,6.348634958E-1,-3.891211450E-1
1.136085100E1,-3.033679008E0,9.701238275E-1,3.487865925E-1
1.138085100E1,-4.167200565E0,1.826015830E0,3.759090006E-1
1.140085100E1,-4.130024910E0,3.304903030E0,-2.188642882E-2
1.142085100E1,-3.096144199E0,4.459002018E0,-2.535439730E-1
1.144085100E1,-1.782626987E0,4.220345974E0,1.931905001E-1
1.146085100E1,-1.571424603E0,1.981472254E0,8.195891380E-1
1.148085100E1,-1.930281758E0,-2.083574086E-1,2.835461795E-1
1.150085100E1,-1.643489242E0,-1.358424664E0,4.921828583E-2
1.152085100E1,-9.967575073E-1,-1.326083660E0,8.936085738E-3
1.154085100E1,-9.104335308E-1,-9.869313240E-1,1.478293911E-2
1.156085100E1,-1.248434067E0,-1.021366641E-1,2.225294709E-2
1.158085100E1,-1.545052767E0,1.010947108E0,5.099852011E-2
1.160085256E1,-1.624343038E0,1.148601174E0,7.080800831E-2
1.162285256E1,-1.681694508E0,6.781476736E-1,-1.892285943E-1
1.164485725E1,-1.501541615E0,-2.153736353E-2,-3.849149048E-1
1.166685100E1,-1.185130954E0,-1.825963408E-1,-3.316649199E-1
1.168685256E1,-6.450911164E-1,3.982841372E-1,-1.741838604E-1
1.170885256E1,-1.022588387E-1,1.095874786E0,3.344050795E-2
1.173085100E1,2.445206344E-1,1.284108520E0,4.052829146E-1
1.175085256E1,7.468962073E-1,9.717469811E-1,4.460188746E-1
1.177285100E1,2.032366037E0,4.709247351E-1,8.562584966E-2
1.179285100E1,3.376898050E0,-7.518878579E-2,4.455825686E-2
1.181285100E1,3.961129427E0,1.119105145E-1,2.120749503E-1
1.183285100E1,2.965995073E0,5.643522143E-1,7.464947701E-1
1.185285100E1,2.360662460E0,6.340432167E-1,8.527853489E-1
1.187285100E1,2.116717815E0,7.541044354E-1,1.024473310E0
1.189285100E1,2.125496864E0,2.281145304E-1,9.905616045E-1
1.191285100E1,3.051603556E0,-1.125911951E0,5.530599356E-1
1.193285100E1,2.659427881E0,-2.779838324E0,3.620859981E-1
1.195285100E1,2.814744949E0,-2.850192547E0,4.809429348E-1
1.197285100E1,2.977793455E0,-2.439359426E0,5.705830455E-1
1.199285100E1,2.841203928E0,-2.135043859E0,3.422241509E-1
1.201285100E1,2.441035032E0,-2.473323584E0,2.731789351E-1
1.203285100E1,2.162829399E0,-3.252106905E0,9.066985548E-2
1.205285100E1,1.562715411E0,-3.931319237E0,-3.608991802E-1
1.207485100E1,9.460207820E-1,-3.770242691E0,-8.001287580E-1
1.209485100E1,2.814517915E-1,-2.772071600E0,-6.871361136E-1
1.211485412E1,-6.864554286E-1,-1.760915041E0,-3.715282381E-1
1.213485881E1,-1.754195571E0,-7.751356363E-1,9.347983450E-2
1.215485881E1,-2.752663374E0,4.389328659E-1,4.946437478E-1
1.217685256E1,-3.116180658E0,2.197927952E0,9.459161162E-1
1.219685256E1,8.826653361E-1,1.884222507E0,3.448421657E-1
1.221885100E1,1.224749923E0,-1.128931284E0,8.247902393E-1
1.223885100E1,-1.207942367E-1,-6.525262594E-1,1.073604345E0
1.225885100E1,-2.279923558E-1,-8.965581656E-1,5.556953549E-1
1.227885412E1,-1.057128429E0,-4.375540316E-1,-1.599594206E-1
1.230085100E1,-2.031790018E0,2.087535858E0,-1.080114484E0
1.232085100E1,-2.397558838E-1,4.044276714E0,-1.565699935E0
1.234085100E1,8.851262927E-1,2.027775764E0,-8.403760195E-1
1.236085100E1,-1.728766084E0,8.555080295E-1,4.389503226E-2
1.238085100E1,-3.549510956E0,1.105142474E0,3.233745992E-1
1.240085100E1,-4.357005119E0,1.504264355E0,3.230080903E-1
1.242085100E1,-3.822916746E0,2.744949102E0,-2.309070528E-2
1.244085100E1,-2.562387705E0,3.216083288E0,-1.348615885E-1
1.246085100E1,-1.526395202E0,2.365846157E0,3.983190358E-1
1.248085100E1,-9.682912230E-1,4.814665318E-1,7.523241639E-1
1.250085100E1,-1.591722846E0,-1.840536952E0,2.665641308E-1
1.252085256E1,-1.725048542E0,-2.458907127E0,6.597344764E-3
1.254285100E1,-9.580461383E-1,-1.008241773E0,1.592787504E-1
1.256285100E1,-1.129664302E0,2.552543879E-1,3.713362515E-1
1.258285100E1,-1.585806131E0,1.269028902E0,3.384717107E-1
1.260285100E1,-1.589820385E0,1.946460962E0,4.176572710E-2
1.262285100E1,-1.516987801E0,1.190593839E0,-1.322610527E-1
1.264285100E1,-1.594410658E0,-1.740616858E-1,-4.062428474E-1
1.266285100E1,-1.566991448E0,-6.311459541E-1,-4.429296553E-1
1.268285100E1,-1.334845304E0,-1.452812105E-1,-2.614677846E-1
1.270285100E1,-6.959849596E-1,6.983585954E-1,-5.014330894E-2
1.272285100E1,-1.339889318E-1,1.082383394E0,-4.742059484E-2
1.274285100E1,5.378581285E-1,1.514806151E0,8.318239450E-2
1.276285100E1,8.095884323E-1,1.300148129E0,3.636917174E-1
1.278285100E1,1.561179519E0,6.576226354E-1,2.048667520E-1
1.280285100E1,2.885029316E0,-4.483750835E-2,3.118728697E-1
1.282285100E1,4.030471325E0,-8.303753138E-1,5.167396069E-1
1.284285100E1,3.542739153E0,-8.597666621E-1,8.119620681E-1
1.286285100E1,2.617854357E0,-5.742307901E-1,1.004245043E0
1.288285100E1,2.292769194E0,1.332035214E-1,1.035468936E0
1.290285100E1,1.763550520E0,1.267562866E0,7.561988235E-1
1.292285100E1,2.275926828E0,-2.541548312E-1,2.654820383E-1
1.294285100E1,3.238947153E0,-2.744722128E0,2.624975145E-2
1.296285100E1,3.251827717E0,-3.148190022E0,8.148942143E-2
1.298285100E1,2.992175102E0,-2.027549028E0,1.490511149E-1
1.300285100E1,2.749382257E0,-1.172232985E0,3.008773029E-1
1.302285100E1,2.278213263E0,-1.268156171E0,3.300766647E-1
1.304285100E1,2.029503822E0,-2.705399990E0,2.834065557E-1
1.306285100E1,1.980460048E0,-3.618451595E0,8.133234456E-3
1.308285100E1,1.471434712E0,-3.972857952E0,-4.609065354E-1
1.310285100E1,7.383266091E-1,-3.325166464E0,-6.406056285E-1
1.312285256E1,-2.078163475E-1,-2.045944691E0,-2.619913816E-1
1.314485100E1,-1.176927924E0,-1.062696099E0,6.579891313E-3
1.316485256E1,-2.002189398E0,-4.127878249E-1,3.517885506E-1
1.318685100E1,-3.381976843E0,1.224400878E0,7.916464210E-1
1.320685100E1,-3.131818771E0,2.043763161E0,5.457469821E-1
1.322685100E1,2.292350292E0,5.371250510E-1,-5.149419308E-1
1.324685100E1,2.189253807E0,-2.279085875E0,3.806039393E-1
1.326685100E1,6.990741491E-1,-1.626524687E0,8.318762779E-1
1.328685100E1,-1.513025910E-1,-1.261925459E0,3.055897057E-1
1.330685100E1,-1.976986766E0,5.458691716E-1,-7.686430216E-2
1.332685100E1,-2.202116728E0,3.139149189E0,-3.231302500E-1
1.334685100E1,7.349232435E-1,4.823479176E0,4.586725309E-2
1.336685100E1,2.794272080E-2,1.920804620E0,2.535090744E-1
1.338685100E1,-2.596456528E0,9.054593444E-1,1.429075599E-1
1.340685100E1,-3.745494127E0,1.356661916E0,-1.989675313E-1
1.342686662E1,-3.970274925E0,2.523205042E0,-4.677133262E-1
1.344885100E1,-3.198630095E0,3.455786705E0,-4.491604865E-1
1.346885100E1,-2.496885538E0,2.947442293E0,1.185427606E-1
1.348886975E1,-1.987249374E0,1.569347739E0,6.479185820E-1
1.351085100E1,-1.606942058E0,-2.106786966E-1,4.769810438E-1
1.353085100E1,-1.577882409E0,-2.237163067E0,-5.970771238E-2
1.355085100E1,-1.104933023E0,-1.674730659E0,-1.630137563E-1
1.357085100E1,-1.021523714E0,-3.504621089E-1,1.715134978E-1
1.359085100E1,-1.261122584E0,9.244485497E-1,3.142814338E-1
1.361085100E1,-1.405705571E0,1.440298080E0,2.813645303E-1
1.363085100E1,-1.432985067E0,1.081371069E0,1.711644381E-1
1.365085100E1,-1.305314302E0,4.763177931E-1,-1.535889693E-2
1.367085256E1,-1.338353395E0,-1.898918152E-1,-2.417979091E-1
1.369285100E1,-1.526360273E0,-6.225938201E-1,-2.404191047E-1
1.371285100E1,-1.152632833E0,-6.122964025E-1,-3.171437681E-1
1.373285100E1,-4.639434218E-1,4.658283666E-2,-2.826909721E-1
1.375285100E1,-8.676031977E-2,1.257806420E0,-7.529350370E-2
1.377285100E1,2.203303576E-1,1.758489013E0,2.477320284E-1
1.379285100E1,7.416776419E-1,1.524597406E0,3.568325639E-1
1.381285100E1,1.608966708E0,1.053341150E0,3.083473146E-1
1.383285100E1,2.784637928E0,5.597096086E-1,3.980746865E-1
1.385285100E1,4.001289368E0,-4.328416660E-2,4.940677881E-1
1.387285100E1,3.494568110E0,-3.840596974E-1,8.196066022E-1
1.389285100E1,2.567169905E0,-2.686061710E-2,8.937307596E-1
1.391285100E1,2.080065966E0,4.304156601E-1,9.300684929E-1
1.393285100E1,1.646892667E0,4.414984882E-1,7.803366780E-1
1.395285100E1,2.994199514E0,-1.278977275E0,3.230080903E-1
1.397285100E1,2.983937025E0,-2.543660402E0,2.457772642E-1
1.399285100E1,2.832581997E0,-2.663320065E0,3.385415077E-1
1.401285100E1,3.088883638E0,-1.887189627E0,5.419421792E-1
1.403285256E1,2.977514267E0,-1.652861714E0,5.187641978E-1
1.405285256E1,2.722207546E0,-2.506222963E0,4.538030624E-1
1.407485100E1,2.451175213E0,-3.207182169E0,1.237612963E-1
1.409485256E1,2.017443419E0,-3.870512009E0,-4.799306393E-1
1.411485256E1,1.392196774E0,-3.334067583E0,-6.070429683E-1
1.413485412E1,6.251943707E-1,-2.217632771E0,-3.554886580E-1
1.415485725E1,-4.356690943E-1,-1.200664401E0,2.213077433E-2
1.417685256E1,-1.621742487E0,8.019787818E-2,3.920184076E-1
1.419885100E1,-2.615655184E0,1.153016806E0,7.701090574E-1
1.421885100E1,-3.111119270E0,1.801947713E0,1.085821629E0
1.423885881E1,-1.471783757E0,1.400556922E0,4.175176620E-1
1.426085100E1,1.275765896E0,-7.232120633E-1,6.719517522E-3
1.428085100E1,3.135658503E-1,-1.258120537E0,6.657034755E-1
1.430085100E1,-3.630284918E-3,-1.259289980E0,4.468741119E-1
1.432085100E1,-7.825357914E-1,-7.614522576E-1,-8.084364980E-2
1.434085100E1,-2.365549564E0,1.262466431E0,2.780832946E-1
1.436085100E1,-2.007565022E0,2.331847191E0,-3.302686512E-1
1.438085100E1,7.120769024E-1,3.671684027E0,-1.005222321E0
1.440085100E1,1.253670007E-1,8.678300381E-1,-1.136610746E0
1.442085100E1,-2.232590199E0,8.911651373E-1,-5.722934753E-2
1.444085100E1,-3.756018400E0,1.330481887E0,7.285004109E-2
1.446085100E1,-3.984237671E0,2.407140732E0,-2.793574035E-1
1.448085100E1,-3.171263218E0,3.070924282E0,-3.915297091E-1
1.450085256E1,-2.225102901E0,2.662377596E0,-7.093018293E-2
1.452085256E1,-1.674940109E0,1.347551227E0,5.073846579E-1
1.454085256E1,-1.412215710E0,-4.584980011E-2,5.215392709E-1
1.456285100E1,-1.313011169E0,-2.161572933E0,-1.176351868E-2
1.458285100E1,-8.986351490E-1,-1.681519985E0,-1.045103148E-1
1.460285256E1,-9.761452079E-1,-1.827359758E-2,1.358389705E-1
1.462485100E1,-1.398689389E0,1.607011914E0,3.769387603E-1
1.464486975E1,-1.534964681E0,2.125776052E0,3.779859543E-1
1.466685100E1,-1.548124552E0,1.300078273E0,1.411796808E-1
1.468685100E1,-1.491540909E0,-2.128603607E-1,-3.382447958E-1
1.470685100E1,-1.493094206E0,-1.299589634E0,-5.695009232E-1
1.472685100E1,-1.415287495E0,-7.614522576E-1,-3.993836939E-1
1.474685100E1,-1.003913403E0,2.798810005E-1,-1.825090796E-1
1.476685100E1,-6.170786023E-1,5.540373325E-1,-1.182111502E-1
1.478685100E1,2.005383372E-2,1.232848167E0,2.268928103E-3
1.480685100E1,1.762957126E-1,1.642511845E0,3.804468811E-1
1.482685100E1,4.774173498E-1,1.431903005E0,4.533667266E-1
1.484688538E1,1.518419027E0,7.458490133E-1,3.296752274E-1
1.486885100E1,3.171943903E0,1.935744733E-1,2.514495850E-1
1.488886975E1,3.795584917E0,1.009323895E-1,5.116956234E-1
1.491085100E1,2.707267523E0,-9.623745829E-2,1.063621044E0
1.493085100E1,2.179671764E0,-2.058266848E-1,1.081964493E0
1.495085256E1,2.159391165E0,7.377506793E-2,1.039099216E0
1.497285100E1,2.008507490E0,2.084446698E-1,6.859143972E-1
1.499285100E1,3.135100126E0,-1.647276640E0,-2.750638872E-2
1.501285100E1,3.090646505E0,-3.078010321E0,-1.526813954E-1
1.503285100E1,3.103212833E0,-2.706325054E0,1.790882349E-1
1.505285256E1,3.127106428E0,-1.830815434E0,4.184426963E-1
1.507485100E1,2.958978891E0,-1.472604156E0,3.865380585E-1
1.509485256E1,2.728473186E0,-2.271929979E0,3.692767620E-1
1.511485569E1,2.430859566E0,-2.707215071E0,1.886526346E-1
1.513687600E1,1.704715490E0,-3.468527794E0,-3.802897930E-1
1.515885100E1,8.735547662E-1,-3.232646465E0,-6.557376385E-1
1.517885100E1,9.032078832E-2,-2.423407078E0,-3.810402751E-1
1.519885100E1,-9.402786493E-1,-1.414990783E0,-2.432988957E-2
1.521885256E1,-1.939043283E0,-4.696680903E-1,3.217165470E-1
1.524085100E1,-3.193027496E0,7.419743538E-1,8.756666183E-1
1.526085100E1,-4.233470440E0,1.581023932E0,1.331441879E0
1.528085100E1,2.606998384E-1,1.206231952E0,3.396585286E-1
1.530085100E1,1.966794133E0,-9.631599188E-1,-4.112868309E-1
1.532085100E1,9.049183130E-1,-1.660087347E0,4.524416924E-1
1.534085100E1,-4.094542563E-2,-1.170470119E0,1.803099662E-1
1.536085100E1,-1.412652016E0,4.435230792E-1,3.721041977E-2
1.538085100E1,-1.496881604E0,2.545527697E0,-5.633050203E-1
1.540085100E1,8.165872097E-1,4.101000309E0,-8.625766039E-1
1.542085100E1,3.523121476E-1,2.566995382E0,-1.973618269E-1
1.544085100E1,-2.573487997E0,1.406560838E-1,5.309989452E-1
1.546085256E1,-4.125225067E0,6.875724792E-1,2.533694506E-1
1.548285256E1,-4.118244171E0,3.158086061E0,-2.040115297E-1
1.550485413E1,-2.939588308E0,3.870634079E0,-3.736051917E-1
1.552685100E1,-2.142845392E0,2.419707060E0,2.198940367E-1
1.554685256E1,-1.707001805E0,6.372720599E-1,6.580240130E-1
1.556885100E1,-1.509221077E0,-1.958678246E0,2.224771231E-1
1.558886975E1,-1.374970436E0,-2.716727257E0,-1.865756959E-1
1.561085100E1,-1.140607595E0,-9.429141283E-1,9.833184630E-2
1.563085100E1,-1.473982930E0,7.768635154E-1,3.724358082E-1
1.565085100E1,-1.759326816E0,1.632807851E0,4.398927689E-1
1.567085100E1,-1.675114632E0,1.758576274E0,2.423564196E-1
1.569085100E1,-1.657172680E0,1.248608589E0,-1.008451208E-1
1.571085100E1,-1.750617623E0,2.413964868E-1,-3.846007586E-1
1.573085100E1,-1.519099712E0,-6.543762684E-1,-5.038940310E-1
1.575085100E1,-9.324595928E-1,-4.319340885E-1,-3.979874253E-1
1.577085100E1,-4.097684026E-1,8.396080732E-1,-2.009222955E-1
1.579085100E1,6.485643238E-2,1.704436183E0,5.626941472E-2
1.581085100E1,4.671024680E-1,1.582908869E0,4.962843657E-1
1.583085100E1,1.228938699E0,8.689994216E-1,5.981592536E-1
1.585085100E1,2.361447811E0,-7.838273793E-2,3.601835966E-1
1.587085100E1,4.361944199E0,-3.603930473E-1,2.864085436E-1
1.589085100E1,4.296302319E0,4.838052765E-2,5.669527650E-1
1.591085100E1,2.950391769E0,7.079579234E-1,9.382366538E-1
1.593085100E1,2.239658833E0,1.331633806E0,1.005903006E0
1.595085100E1,1.649248838E0,2.053694010E0,6.960024238E-1
1.597085100E1,2.116962194E0,-5.773723722E-1,1.924923658E-1
1.599085100E1,2.895291805E0,-2.863038063E0,5.857324973E-2
1.601085100E1,2.861746550E0,-2.552439213E0,1.781981252E-2
1.603085256E1,2.825914860E0,-1.743112683E0,7.503170520E-2
1.605285256E1,2.794324398E0,-1.217122793E0,1.040216237E-1
1.607486350E1,2.622479439E0,-2.166320086E0,2.511528730E-1
1.609685100E1,2.452048063E0,-2.931699276E0,2.286730409E-1
1.611685256E1,1.896090746E0,-3.710604906E0,-6.639232486E-2
1.613685256E1,1.087026000E0,-3.649640560E0,-4.344299138E-1
1.615885100E1,2.458645254E-1,-2.500917196E0,-2.698453665E-1
1.617885100E1,-6.609562039E-1,-1.473110199E0,7.501424849E-2
1.619885100E1,-1.425043821E0,-9.109920263E-1,2.981196940E-1
1.621885100E1,-1.907557607E0,-4.240277410E-1,5.990144610E-1
1.623885256E1,-2.353489161E0,4.318642616E-1,1.035748243E0
1.626085256E1,-3.239505529E0,1.516184926E0,7.741931677E-1
1.628285256E1,1.135336637E0,-2.075196430E-2,-4.209908545E-1
1.630485256E1,1.648672938E0,-1.858950138E0,6.667158008E-2
1.632485881E1,8.215264678E-1,-1.951347947E0,1.421221644E-1
1.634685100E1,-5.725377798E-1,-1.437784791E0,-8.524188399E-2
1.636685100E1,-1.605528355E0,3.865555227E-1,-2.987305522E-1
1.638685100E1,-6.866998076E-1,4.202106953E0,-6.260845065E-1
1.640685100E1,8.093964458E-1,3.791361332E0,-7.770903707E-1
1.642685100E1,-1.335805178E0,8.962614536E-1,-1.196772233E-1
1.644685100E1,-3.426273346E0,7.643669248E-1,3.427477479E-1
1.646685100E1,-4.497294426E0,1.650488019E0,2.832669318E-1
1.648685100E1,-4.196871281E0,3.029158592E0,1.260127723E-1
1.650685100E1,-3.075811148E0,3.639831781E0,1.473232359E-1
1.652685100E1,-2.140576601E0,2.847696543E0,4.759687483E-1
1.654685256E1,-1.337096691E0,1.286866188E0,6.612877846E-1
1.656885256E1,-1.301875949E0,-1.948695064E0,6.274458766E-2
1.658887131E1,-1.605057120E0,-2.583558559E0,-3.037745655E-1
1.661085100E1,-1.133992791E0,-8.881980777E-1,-4.345869645E-3
1.663085100E1,-1.131270051E0,8.176344037E-1,3.581764698E-1
1.665085100E1,-1.312225819E0,1.833957076E0,4.848175645E-1
1.667085100E1,-1.482395411E0,1.641586900E0,3.716154993E-1
1.669085100E1,-1.485240340E0,7.918733358E-1,4.258603323E-3
1.671085256E1,-1.487352133E0,-1.920909435E-1,-2.604380250E-1
1.673285100E1,-1.454749346E0,-6.015800834E-1,-3.131120801E-1
1.675285100E1,-1.143766642E0,-2.987130880E-1,-2.002416253E-1
1.677285100E1,-7.052351832E-1,3.562915027E-1,-1.686162651E-1
1.679285100E1,-2.470688075E-1,1.035468936E0,-2.336472273E-1
1.681285100E1,3.455577493E-1,1.548683047E0,-8.656833321E-3
1.683285100E1,6.432236433E-1,1.304825544E0,3.733957410E-1
1.685285100E1,1.135930061E0,8.030259609E-1,3.056595027E-1
1.687285100E1,2.692379713E0,5.635842681E-1,4.018620551E-1
1.689285100E1,4.070806026E0,-6.120869517E-2,6.951995492E-1
1.691285256E1,3.618433952E0,-5.145404935E-1,1.028260708E0
1.693485256E1,2.549437284E0,-4.826184511E-1,1.119576335E0
1.695485256E1,2.151659250E0,1.718102098E-1,9.122138023E-1
1.697485256E1,1.839821339E0,6.309539676E-1,7.220078111E-1
1.699685100E1,2.933636665E0,-1.553831697E0,1.651255935E-1
1.701685100E1,2.954231501E0,-2.355461359E0,1.471138000E-1
1.703685256E1,2.901505232E0,-2.482870579E0,3.447898030E-1
1.705688381E1,2.828690052E0,-2.064305544E0,5.617341995E-1
1.707885256E1,2.734546900E0,-1.531735897E0,5.612978935E-1
1.710085100E1,2.415797472E0,-2.132355928E0,3.485946059E-1
1.712085100E1,2.082282543E0,-2.829964161E0,8.948303014E-2
1.714085100E1,1.654659390E0,-3.492909908E0,-1.328719109E-1
1.716085100E1,1.124218941E0,-3.667442799E0,-3.326073885E-1
1.718085256E1,4.572064579E-1,-2.907299757E0,-2.277654707E-1
1.720285100E1,-5.727646947E-1,-1.558893204E0,1.232551485E-1
1.722285256E1,-1.294144154E0,-7.394436598E-1,2.996730208E-1
1.724485100E1,-2.027374506E0,-1.573065221E-1,5.693961978E-1
1.726485725E1,-3.228108644E0,1.476862669E0,7.993433475E-1
1.728685256E1,-1.524178624E0,1.318840623E0,1.209164113E-1
1.730685256E1,1.942673683E0,-7.411889434E-1,-6.860365868E-1
1.732685256E1,1.578144193E0,-1.966183186E0,3.442138433E-1
1.734885100E1,2.344151735E-1,-1.037127018E0,1.975014508E-1
1.736885256E1,-1.377501130E0,-3.979699612E-1,-4.974188283E-3
1.738887131E1,-2.111534119E0,1.260302305E0,-2.077639997E-1
1.741085100E1,1.474279612E-1,3.155555248E0,-3.405486345E-1
1.743085100E1,5.720142126E-1,3.321082354E0,-1.977807134E-1
1.745085256E1,-1.723512650E0,3.090786219E0,-4.146902263E-2
1.747285100E1,-3.655661821E0,1.558194995E0,-4.642226696E-1
1.749285100E1,-4.152470112E0,1.619560838E0,-7.301759720E-1
1.751285256E1,-3.574312210E0,2.544533014E0,-4.011639357E-1
1.753485100E1,-2.742505550E0,2.313538551E0,3.103893399E-1
1.755485413E1,-1.930107236E0,1.307146907E0,7.482924461E-1
1.757485881E1,-9.666680694E-1,-2.248507738E-1,5.293757915E-1
1.759486038E1,-1.297407985E0,-2.046957016E0,1.900663599E-2
1.761685256E1,-1.436039448E0,-1.886282086E0,-1.488765888E-2
1.763885256E1,-1.353258491E0,-6.209008694E-1,3.144210577E-1
1.766085100E1,-1.777443290E0,7.748214602E-1,4.550946057E-1
1.768085100E1,-1.699531794E0,1.624133587E0,3.734830022E-1
1.770085100E1,-1.390713215E0,1.876438379E0,1.391027421E-1
1.772085100E1,-1.461940169E0,1.133800745E0,-1.555262953E-1
1.774085256E1,-1.586713672E0,-4.482703507E-1,-4.183728695E-1
1.776285100E1,-1.397397876E0,-1.573850632E0,-4.668930173E-1
1.778285256E1,-5.713160634E-1,-3.002140820E-1,-2.446253449E-1
1.780485413E1,-3.130422533E-1,1.198063850E0,1.708328277E-1
1.782685256E1,1.710422686E-3,1.360012889E0,1.733111963E-2
1.784885100E1,4.859345555E-1,1.115108252E0,1.183333248E-1
1.786885256E1,9.410815239E-1,6.528753042E-1,3.256784379E-1
1.788887131E1,1.932219148E0,3.957708478E-1,5.013109446E-1
1.791085100E1,3.862466097E0,3.467620015E-1,7.209082246E-1
1.793085100E1,3.954357624E0,-2.457772642E-1,8.630653024E-1
1.795085100E1,2.929203510E0,-1.118232459E-1,9.757437706E-1
1.797085100E1,2.292437553E0,6.281265616E-1,8.059756160E-1
1.799085100E1,1.818406224E0,1.244838595E0,6.629807949E-1
1.801085100E1,2.588777065E0,-1.618635774E0,7.471754402E-2
1.803085256E1,3.365361214E0,-3.364488602E0,-3.619638383E-1
1.805285100E1,3.415487051E0,-2.604275465E0,-2.284636050E-1
1.807285100E1,3.347174883E0,-1.638724566E0,8.014551550E-2
1.809285100E1,2.999819517E0,-8.831365705E-1,4.123863876E-1
1.811285100E1,2.542892456E0,-1.507824898E0,4.236437678E-1
1.813285100E1,2.260166407E0,-2.229885101E0,1.036201939E-1
1.815285100E1,1.923091054E0,-2.894192219E0,-1.635199040E-1
1.817285100E1,1.434433699E0,-3.265929937E0,-3.795393109E-1
1.819285100E1,7.343647480E-1,-2.729520321E0,-3.235491216E-1
1.821285256E1,-2.772280872E-1,-1.538158655E0,1.065348983E-1
1.823285256E1,-1.227490067E0,-6.036221385E-1,4.221427739E-1
1.825285256E1,-2.046206474E0,2.846806645E-1,5.531821251E-1
1.827485412E1,-2.976135492E0,1.557182789E0,8.341801167E-1
1.829685100E1,-2.465469599E0,1.235378981E0,5.879839659E-1
1.831685100E1,8.232892752E-1,2.514495850E-1,-3.805166781E-1
1.833685256E1,1.021803021E0,-1.395163894E0,2.147453129E-1
1.835885100E1,1.557182819E-1,-6.380749345E-1,8.966280222E-1
1.837885100E1,1.461887807E-1,-1.936303139E0,7.687128186E-1
1.839885100E1,-1.619543314E0,-6.842388511E-1,3.332357109E-1
1.841885100E1,-3.168313742E0,2.453304529E0,1.039169058E-1
1.843885100E1,-2.208382607E0,4.366656780E0,-3.623652458E-1
1.845885100E1,1.996656656E-1,3.699452162E0,-1.062416792E0
1.847885256E1,5.575454235E-1,-2.836927891E0,-1.001679301E0
1.850085100E1,-2.378761530E0,4.601909518E-1,-1.393994540E-1
1.852085100E1,-4.227902889E0,2.013010502E0,1.075122803E-1
1.854085256E1,-4.196801186E0,2.992785931E0,9.927432984E-2
1.856285100E1,-2.820870876E0,2.951142311E0,5.133187771E-1
1.858285100E1,-1.948869586E0,1.862179041E0,9.411339164E-1
1.860285100E1,-1.532224536E0,1.319294423E-1,5.983163118E-1
1.862285100E1,-1.399562120E0,-1.771090269E0,2.457423508E-2
1.864285100E1,-1.489254594E0,-1.711173177E0,-2.850122750E-2
1.866285100E1,-1.163227081E0,2.385865152E-1,1.808510125E-1
1.868285100E1,-1.283933997E0,1.440943837E0,4.022983909E-1
1.870285100E1,-1.551562786E0,1.599262595E0,1.905899495E-1
1.872285100E1,-1.672252297E0,1.036341548E0,-1.546012610E-1
1.874285100E1,-1.500407219E0,2.331410795E-1,-3.652625084E-1
1.876285100E1,-1.438186169E0,-3.762057126E-1,-4.192804396E-1
1.878285100E1,-1.248224616E0,1.217367128E-1,-9.807004780E-2
1.880285100E1,-3.286629617E-1,8.345291615E-1,2.601238787E-1
1.882285100E1,3.486993313E-1,7.538600564E-1,1.681101173E-1
1.884285100E1,6.812194586E-1,7.500377893E-1,2.857627571E-1
1.886285100E1,1.022396445E0,5.806536078E-1,2.956413329E-1
1.888285100E1,1.884571671E0,3.656464815E-1,1.628217697E-1
1.890285100E1,3.561396599E0,2.386388630E-1,1.827010661E-1
1.892285100E1,4.176590443E0,1.289449185E-1,4.353723824E-1
1.894285100E1,3.018424749E0,4.449542463E-1,8.908160329E-1
1.896285100E1,2.344186544E0,6.868743300E-1,9.536304474E-1
1.898285100E1,2.207876444E0,1.403471589E0,9.847496748E-1
1.900285100E1,1.591338873E0,1.326083660E0,8.177914619E-1
1.902285100E1,2.636215210E0,-1.885583878E0,3.655592203E-1
1.904285100E1,2.801916599E0,-3.257657051E0,2.716081440E-1
1.906285100E1,2.825757980E0,-2.535788774E0,3.375466764E-1
1.908285100E1,2.913041830E0,-1.667138457E0,4.225616753E-1
1.910285100E1,2.625359058E0,-1.424590111E0,3.462733328E-1
1.912285100E1,2.278370142E0,-2.691629410E0,3.899414539E-1
1.914285100E1,1.947595477E0,-3.371138334E0,1.697507203E-1
1.916285100E1,1.373783588E0,-3.656586885E0,-4.191931784E-1
1.918285100E1,6.599613428E-1,-3.280712843E0,-6.582858562E-1
1.920285100E1,-9.075712413E-2,-2.265035868E0,-3.323281407E-1
1.922285100E1,-9.892351627E-1,-1.233738303E0,-5.040510744E-2
1.924285100E1,-1.834777355E0,-4.002389014E-1,2.537708580E-1
1.926285100E1,-2.944230795E0,4.937536418E-1,5.879490376E-1
1.928285100E1,-4.126708984E0,2.323766232E0,9.000139236E-1
1.930285100E1,1.785471886E-1,2.554324150E0,1.448099613E-1
1.932285100E1,2.861467361E0,-5.956110358E-1,-3.743556738E-1
1.934285100E1,1.212811828E0,-1.878637552E0,6.586872339E-1
1.936285100E1,-1.806939393E-1,-1.050653338E0,5.476493835E-1
1.938285100E1,-1.136244297E0,-5.463927984E-1,-9.203121066E-2
1.940285100E1,-2.470897436E0,7.229677439E-1,-2.587799728E-1
1.942285100E1,-1.660802960E0,2.681070089E0,-7.306122780E-1
1.944285100E1,4.527035058E-1,4.445178986E0,-8.465195894E-1
1.946285100E1,-4.296477139E-1,2.292891502E0,-1.115439907E-1
1.948285100E1,-2.617854357E0,2.050238252E-1,2.940007150E-1
1.950285100E1,-3.754587173E0,1.236269116E0,-9.262461960E-2
1.952285100E1,-3.411246061E0,2.951299429E0,-3.267430961E-1
1.954285100E1,-2.548041105E0,3.047781229E0,-5.157447979E-2
1.956285100E1,-2.019380808E0,1.916092277E0,5.358858705E-1
1.958285100E1,-1.876455784E0,4.031012356E-1,6.870313883E-1
1.960285100E1,-1.856506705E0,-2.090258598E0,2.832320333E-1
1.962285100E1,-1.135039926E0,-1.605685472E0,-5.386086181E-2
1.964285256E1,-9.137147665E-1,2.904925942E-1,1.914277077E-1
1.966485256E1,-1.328212976E0,1.683527112E0,4.472755194E-1
1.968485412E1,-1.456843734E0,1.926860929E0,4.739965200E-1
1.970485725E1,-1.435411096E0,1.292224288E0,1.322610527E-1
1.972685100E1,-1.410609961E0,7.326892018E-2,-2.974913716E-1
1.974685100E1,-1.283462763E0,-6.318266392E-1,-5.354146361E-1
1.976685100E1,-1.276306868E0,-3.334975243E-1,-3.317870796E-1
1.978685100E1,-9.716247916E-1,8.429416418E-1,-2.750638872E-2
1.980685100E1,-7.300537825E-1,1.330097914E0,1.718276590E-1
1.982685100E1,-2.700024247E-1,1.238747478E0,1.332209855E-1
1.984685100E1,3.848276436E-1,1.192792892E0,2.457249016E-1
1.986685100E1,6.625968218E-1,6.400645971E-1,3.203900754E-1
1.988685100E1,1.206109762E0,3.871314824E-1,7.801621407E-2
1.990685256E1,2.730096340E0,8.152083755E-1,1.798736304E-1
1.992885100E1,3.819024801E0,2.199114859E-1,4.488637745E-1
1.994885100E1,3.131347656E0,-3.519107401E-1,7.486938834E-1
1.996885100E1,2.363646984E0,2.019520402E-1,9.304001331E-1
1.998886975E1,1.995295286E0,9.569465518E-1,1.033391953E0
2.001085100E1,1.580971599E0,5.288347602E-1,6.366088390E-1
2.003085256E1,2.426531315E0,-2.595531464E0,-1.235693097E-1
2.005285256E1,2.800572872E0,-2.583122253E0,-1.921607554E-2
2.007485100E1,2.537918091E0,-1.565315962E0,1.797514558E-1
2.009485100E1,2.411538839E0,-1.053568006E0,2.610663474E-1
2.011485100E1,2.320118427E0,-2.130697966E0,2.101376355E-1
2.013485100E1,2.684543371E0,-2.721107960E0,5.386086181E-2
2.015485256E1,3.001983643E0,-3.051202059E0,-1.383871585E-1
2.017485256E1,2.082072973E0,-3.631366968E0,-4.789008796E-1
2.019485725E1,5.230228305E-1,-3.164892673E0,-3.368659914E-1
2.021685100E1,-5.744053125E-1,-1.950213432E0,4.735078290E-2
2.023685256E1,-1.336468458E0,-6.286152601E-1,4.072027802E-1
2.025685256E1,-2.022330523E0,1.375494003E-1,8.037066460E-1
2.027685256E1,-2.937738180E0,1.044579506E0,1.131863475E0
2.029685256E1,-3.505162239E0,2.723045349E0,1.506009698E0
2.031885100E1,-4.793895781E-1,2.433041334E0,6.240250468E-1
2.033885100E1,2.128813028E0,-1.010964513E0,-3.492752910E-1
2.035885256E1,1.212253332E0,-1.813397050E0,4.055795968E-1
2.037885412E1,1.288402081E-1,-5.625021458E-1,2.564761341E-1
2.040085256E1,-9.790250063E-1,-3.595378250E-3,-6.976429820E-1
2.042285100E1,-3.614053130E-1,2.052768946E0,-1.406037211E0
2.044285100E1,1.003372312E0,2.930686951E0,-1.402197480E-1
2.046285100E1,-9.283580780E-1,2.424279690E0,9.506459236E-1
2.048285100E1,-3.180810213E0,1.395617604E0,5.862560868E-1
2.050285100E1,-3.986471653E0,2.372129440E0,-7.336316705E-1
2.052285100E1,-3.829793453E0,3.947934866E0,-1.479061842E0
2.054285100E1,-2.697231770E0,4.463278294E0,-7.864279151E-1
2.056285100E1,-2.176198721E0,2.637157679E0,3.070034087E-1
2.058285100E1,-2.280063152E0,-9.950820208E-1,4.854807854E-1
2.060285100E1,-2.100817919E0,-2.223130465E0,-2.836159989E-2
2.062285100E1,-1.369734406E0,-1.159963250E0,-1.123119369E-1
2.064285100E1,-8.898561001E-1,-2.970550358E-1,1.758419275E-1
2.066285100E1,-1.276970148E0,1.980948746E-1,4.376238585E-1
2.068285100E1,-1.743653774E0,7.830070853E-1,4.433485270E-1
2.070285100E1,-1.492640495E0,1.028574944E0,8.288568258E-2
2.072285100E1,-1.432217121E0,5.322381258E-1,-3.224670291E-1
2.074285100E1,-1.546553731E0,3.358013555E-2,-3.393094540E-1
2.076285100E1,-1.549206614E0,2.445729822E-1,-2.356543541E-1
2.078285100E1,-1.351321220E0,4.852539003E-1,-1.753183156E-1
2.080285100E1,-8.279842138E-1,6.074269414E-1,-1.093972400E-1
2.082285100E1,-2.709099948E-1,7.209954858E-1,8.203047328E-3
2.084285100E1,3.238632977E-1,1.017352462E0,9.128072113E-2
2.086285100E1,4.072027802E-1,7.788531780E-1,3.556457460E-1
2.088285100E1,7.912275791E-1,3.803595901E-1,2.518335581E-1
2.090285100E1,1.671187639E0,3.759788275E-1,1.897172928E-1
2.092285100E1,3.436954737E0,5.507735610E-1,2.329490930E-1
2.094285100E1,3.920917034E0,3.973940015E-1,4.019667804E-1
2.096285100E1,3.055198908E0,2.340835631E-1,6.975906491E-1
2.098285100E1,2.411887884E0,2.899166346E-1,8.643742800E-1
2.100285100E1,2.113332033E0,8.398349881E-1,8.866272569E-1
2.102285100E1,1.778455615E0,6.906791329E-1,6.862634420E-1
2.104285100E1,2.824902534E0,-1.610903978E0,1.980774105E-1
2.106285100E1,2.759068727E0,-2.107764244E0,5.078908056E-2
2.108285100E1,2.564098120E0,-2.034303427E0,8.960520476E-2
2.110285100E1,2.641032219E0,-1.797881126E0,2.768964767E-1
2.112285100E1,2.552648783E0,-1.425742030E0,3.488738537E-1
2.114285100E1,2.334325552E0,-2.601413250E0,3.425906897E-1
2.116285100E1,2.207701921E0,-3.536421061E0,1.264665574E-1
2.118285100E1,1.965677023E0,-3.838973761E0,-3.497290611E-1
2.120285256E1,1.223929644E0,-3.633688211E0,-5.768662095E-1
2.122485256E1,4.724955261E-1,-2.788006306E0,-2.137679309E-1
2.124485256E1,-4.408178031E-1,-1.767250538E0,7.450810820E-2
2.126485725E1,-1.229567051E0,-1.071806669E0,2.906322181E-1
2.128685100E1,-2.325668573E0,-1.806939393E-1,5.872334838E-1
2.130685100E1,-3.401716471E0,1.913247347E0,1.108004808E0
2.132685100E1,-1.802645802E0,1.806328535E0,5.982465148E-1
2.134685100E1,2.366177797E0,-5.068959594E-1,-7.655188441E-1
2.136685100E1,1.655444741E0,-2.372216702E0,1.880592257E-1
2.138685100E1,1.333082467E-1,-1.112682343E0,2.857278585E-1
2.140685100E1,-7.568096519E-1,-8.943241835E-1,1.221730490E-3
2.142685100E1,-1.923911333E0,-7.778932452E-1,-1.294336170E-1
2.144685100E1,-1.731663346E0,2.471473455E0,-6.964910626E-1
2.146685100E1,1.274526715E0,4.209455013E0,-7.663217187E-1
2.148685100E1,4.778711498E-2,3.178192139E0,2.522698939E-1
2.150685100E1,-2.661801577E0,1.973269224E0,5.555033684E-1
2.152685256E1,-4.025601864E0,1.317618847E0,-7.737044245E-2
2.154685256E1,-3.964253664E0,1.715571404E0,-6.600311399E-1
2.156885100E1,-2.917248011E0,2.829824448E0,-5.905147195E-1
2.158887131E1,-2.178677082E0,2.311723471E0,3.745825589E-1
2.161085100E1,-1.735031843E0,6.925989985E-1,9.406975508E-1
2.163085100E1,-1.425776958E0,-1.603521228E0,3.979176283E-1
2.165085256E1,-1.617239475E0,-2.996014833E0,-1.743583977E-1
2.167085256E1,-1.222603083E0,-1.657417059E0,-1.215447262E-1
2.169285100E1,-9.921324253E-1,4.985882044E-1,1.830152273E-1
2.171285100E1,-1.377989769E0,1.738976240E0,3.180513382E-1
2.173285100E1,-1.562907457E0,1.532800555E0,2.736152709E-1
2.175285100E1,-1.492588162E0,2.119876891E-1,3.277728334E-2
2.177285100E1,-1.667941332E0,-8.046491146E-1,-1.858950108E-1
2.179285100E1,-1.728312254E0,-6.734004021E-1,-1.509011686E-1
2.181285256E1,-1.352769732E0,-2.497391552E-1,6.190682948E-2
2.183485100E1,-7.647683620E-1,2.111848444E-2,2.380803674E-1
2.185485256E1,-4.327543974E-1,8.873952031E-1,2.634225488E-1
2.187485256E1,2.693043090E-2,2.261580229E0,9.220574051E-2
2.189685256E1,4.102571011E-1,2.912989378E0,1.289972812E-1
2.191885100E1,8.289964795E-1,2.148430586E0,5.211029649E-1
2.193885100E1,1.310113907E0,1.537338376E0,5.478239655E-1
2.195885100E1,3.078795671E0,1.106975079E0,8.572883010E-1
2.197885100E1,4.009143353E0,-3.329739273E-1,1.160347223E0
2.199885256E1,3.396270990E0,-1.797776341E0,1.398427606E0
2.202085100E1,2.768458605E0,-1.598843813E0,1.191082478E0
2.204085100E1,2.216062069E0,-6.187017560E-1,7.777361870E-1
2.206085100E1,1.548578262E0,2.841570675E-1,4.066791534E-1
2.208085100E1,3.048357248E0,-1.375336885E0,1.559277177E-1
2.210085100E1,3.474112749E0,-2.889549732E0,3.623303473E-1
2.212085100E1,2.973500013E0,-2.806018114E0,3.451912105E-1
2.214085100E1,2.822912931E0,-1.838931203E0,3.418925405E-1
2.216085256E1,2.709414244E0,-9.719913006E-1,3.185226023E-2
2.218285100E1,2.455748081E0,-1.674137235E0,-1.889318973E-1
2.220285256E1,2.126613855E0,-2.438416958E0,-4.858996570E-1
2.222486038E1,1.819715142E0,-3.145414829E0,-6.141639352E-1
2.224685100E1,1.148932815E0,-2.970149040E0,-5.050110221E-1
2.226685256E1,3.719820082E-1,-2.159042120E0,-3.005456924E-1
2.228887131E1,-5.703386664E-1,-8.649153709E-1,1.234820411E-1
2.231085256E1,-1.404588580E0,1.502553970E-1,4.307298064E-1
2.233285100E1,-2.122110844E0,8.941321969E-1,6.878517270E-1
2.235285100E1,-2.975646734E0,1.532817960E0,8.602029681E-1
2.237285100E1,-2.595810652E0,6.984807849E-1,3.962944448E-1
2.239285100E1,1.105142459E-1,-1.043549776E0,-3.767642379E-1
2.241285256E1,9.717818499E-1,-1.460840583E0,8.815658092E-2
2.243486662E1,3.614926040E-1,-4.136604965E-1,1.280548126E-1
2.245685100E1,-1.020965219E0,1.493129134E-1,-3.438298777E-2
2.247685256E1,-1.515294909E0,2.148674726E0,-9.734224677E-1
2.249885100E1,1.105980277E0,3.840893745E0,-5.448394418E-1
2.251885100E1,4.998099506E-1,1.185305476E0,7.234564424E-1
2.253885100E1,-2.469361544E0,6.182654500E-1,1.252413392E0
2.255885100E1,-4.306198597E0,1.331389546E0,7.497410774E-1
2.257885256E1,-4.277156353E0,3.136373997E0,-5.464625955E-1
2.260085100E1,-3.064833164E0,5.198934555E0,-1.146628976E0
2.262085100E1,-2.160961866E0,4.740611076E0,-4.279721975E-1
2.264085100E1,-2.084848166E0,2.261004210E0,8.158017993E-1
2.266085100E1,-2.339997768E0,-7.635815442E-2,6.015975475E-1
2.268085100E1,-2.357276678E0,-3.872100115E0,-9.995500743E-2
2.270085100E1,-1.078316808E0,-2.717076302E0,-2.299645841E-1
2.272085256E1,-5.950525403E-1,-5.728170648E-2,1.453161091E-1
2.274085256E1,-1.176491499E0,1.404030085E0,3.419798017E-1
2.276285100E1,-1.535174131E0,9.166468978E-1,1.976585388E-1
2.278285100E1,-1.165687919E0,3.998374641E-1,1.985137463E-1
2.280285100E1,-8.729089499E-1,7.839495540E-1,2.164033800E-1
2.282285100E1,-9.281835556E-1,8.927708268E-1,1.876403540E-1
2.284285100E1,-1.169859290E0,3.538655043E-1,2.507863641E-1
2.286285100E1,-1.013879180E0,2.630036771E-1,2.299994826E-1
2.288285100E1,-2.862688899E-1,1.154343367E0,1.380206347E-1
2.290285100E1,-2.379930913E-1,1.431553960E0,2.747322619E-1
2.292285100E1,-3.450690508E-1,1.379246473E0,2.075196505E-1
2.294285100E1,-1.420348883E-1,1.475850463E0,1.356295347E-1
2.296285100E1,3.007551432E-1,1.385756493E0,3.798709214E-1
2.298285256E1,1.142125964E0,9.865822792E-1,7.007147670E-1
2.300485100E1,3.006975412E0,4.341681004E-1,4.839274287E-1
2.302485256E1,4.045899868E0,-2.511703372E-1,4.095764160E-1
2.304685256E1,3.400302887E0,-5.259200335E-1,4.741186798E-1
2.306885256E1,2.376597404E0,6.735399961E-1,4.052654505E-1
2.308887131E1,1.599803686E0,1.560935259E0,2.676811516E-1
2.311085100E1,1.944890141E0,8.737118542E-2,-2.141519077E-2
2.313085100E1,3.354138851E0,-2.071217060E0,-3.440916538E-1
2.315085100E1,3.392937422E0,-2.405081272E0,-5.791351795E-1
2.317085881E1,3.423515558E0,-9.777159691E-1,-5.992762446E-1
2.319285100E1,3.267954588E0,-7.156199217E-1,-4.403989315E-1
2.321285100E1,3.209381342E0,-1.622964263E0,-3.678106964E-1
2.323285100E1,3.178052664E0,-2.682483673E0,-2.749417126E-1
2.325285100E1,2.757567883E0,-3.624577522E0,-6.136577725E-1
2.327285100E1,1.805054426E0,-3.228684664E0,-7.762526274E-1
2.329285100E1,6.635392904E-1,-1.940491915E0,-4.719893932E-1
2.331285100E1,-2.736327052E-1,-5.984210372E-1,-8.997172117E-2
2.333285100E1,-1.020354390E0,1.412145942E-1,7.515387982E-2
2.335285100E1,-1.853295326E0,5.826083422E-1,2.630560100E-1
2.337285100E1,-2.751546383E0,4.899139106E-1,5.999918580E-1
2.339285100E1,-3.733573437E0,-7.108726352E-2,7.519576550E-1
2.341285100E1,-2.883563280E0,4.331383705E-1,1.886002719E-1
2.343285100E1,-1.648987085E-1,2.777866125E-1,-1.491034776E-1
2.345285100E1,8.706575036E-1,-1.369385362E0,1.771858186E-1
2.347285100E1,4.042182490E-2,-7.840018868E-1,2.117782533E-1
2.349285100E1,-1.156699538E0,8.076161742E-1,1.715658605E-2
2.351285100E1,-1.167799830E0,2.319507599E0,-4.097858667E-1
2.353285100E1,1.662077010E-1,2.454753160E0,-2.247984111E-1
2.355285100E1,-1.468520015E-1,7.670722008E-1,-1.083849464E-2
2.357285100E1,-1.650680065E0,2.195973247E-1,3.241076320E-2
2.359285100E1,-2.709030151E0,-1.401848495E-1,-4.654793069E-2
2.361285100E1,-3.023032427E0,4.922003150E-1,-2.797239125E-1
2.363285100E1,-2.654349089E0,1.277633309E0,-1.878148764E-1
2.365285100E1,-2.205049038E0,9.892526269E-1,6.187715530E-1
2.367285100E1,-1.604533553E0,2.854835093E-1,9.972636700E-1
2.369285100E1,-1.055801988E0,-3.069859743E-1,8.494168520E-1
2.371285100E1,-1.119419217E0,-1.904974461E0,7.265630960E-1
2.373285100E1,-1.370502353E0,-2.882254124E0,4.096985757E-1
2.375285100E1,-1.304040194E0,-2.507619143E0,1.332384348E-1
2.377285100E1,-1.235448718E0,-1.278942347E0,3.784920871E-1
2.379285100E1,-1.309119105E0,1.614953130E-1,4.582187533E-1
2.381285100E1,-1.345648885E0,1.340482712E0,2.528807521E-1
2.383285100E1,-1.324443102E0,2.025943279E0,1.487369537E-1
2.385285100E1,-1.304825544E0,2.189794779E0,1.542522013E-1
2.387285100E1,-1.331721067E0,1.630102634E0,1.543045640E-1
2.389285100E1,-1.503479004E0,3.088360131E-1,3.824016452E-2
2.391285100E1,-1.605842590E0,-1.247753382E0,9.529497474E-3
2.393285100E1,-5.790653229E-1,-1.731296778E0,-2.977531776E-2
2.395285100E1,4.988325536E-1,-1.847954541E-1,-1.470090896E-1
2.397285100E1,4.950626493E-1,1.125493050E0,-6.836454570E-2
2.399285100E1,6.970496178E-1,1.454400301E0,-8.569566533E-3
2.401285100E1,1.785035491E0,1.116242766E0,7.330382615E-2
2.403285256E1,3.095603228E0,1.743583940E-2,1.698205434E-2
2.405485413E1,3.810210705E0,-2.019869536E-1,7.684684545E-2
2.407485881E1,3.014585018E0,8.685281873E-1,5.055695176E-1
2.409685100E1,2.339910507E0,1.933266282E0,5.822767615E-1
2.411685256E1,1.842736125E0,1.833642960E0,6.920754313E-1
2.413885100E1,2.536085606E0,-1.402982950E0,2.887472808E-1
2.415885256E1,2.964057684E0,-3.115988731E0,1.162214726E-1
2.418085100E1,2.823646069E0,-3.284727097E0,1.458222568E-1
2.420085100E1,2.790030956E0,-2.886949062E0,2.628814876E-1
2.422085100E1,2.792404652E0,-1.948485613E0,8.398524672E-2
2.424085256E1,2.452955484E0,-2.063363075E0,-2.171189524E-2
2.426285100E1,2.073852539E0,-2.282751083E0,3.281218931E-3
2.428285100E1,1.657207608E0,-2.784096956E0,-1.909215599E-1
2.430285100E1,1.185445070E0,-2.992419243E0,-2.528283894E-1
2.432285100E1,6.530672908E-1,-2.695067644E0,-1.030791476E-1
2.434285256E1,-3.324852139E-2,-1.844690800E0,7.553785294E-2
2.436485100E1,-9.723578095E-1,-9.525657892E-1,3.279473782E-1
2.438485725E1,-1.860835195E0,-2.700547874E-1,4.669977427E-1
2.440685100E1,-2.649846077E0,3.977605402E-1,6.447770000E-1
2.442685100E1,-2.913530588E0,9.289689660E-1,6.924244761E-1
2.444685100E1,-6.078981757E-1,8.788082004E-1,-2.330363542E-1
2.446685100E1,2.101830244E0,-5.692216754E-1,-4.597197175E-1
2.448685100E1,8.073543906E-1,-1.433037519E0,6.412165165E-1
2.450685100E1,-1.903630644E-1,-1.178882599E0,5.529028773E-1
2.452685100E1,-8.706400394E-1,-8.377754688E-1,2.542071939E-1
2.454685100E1,-1.934034228E0,1.626105785E0,4.201007634E-2
2.456685100E1,-1.199826598E0,3.515442133E0,-3.719820082E-1
2.458685100E1,1.943720818E0,1.408079267E0,-3.130946159E-1
2.460685100E1,-1.267283559E-1,5.568472743E-1,2.480636388E-1
2.462685100E1,-2.751179934E0,4.356690943E-1,3.453657627E-1
2.464685725E1,-3.383373022E0,1.027265906E0,-2.522873282E-1
2.466885100E1,-2.645919085E0,2.009275436E0,-9.069603682E-1
2.468887131E1,-1.887608528E0,1.451834679E0,-1.937664598E-1
2.471085100E1,-1.431798339E0,-3.794345632E-2,1.120710850E0
2.473085100E1,-1.108196855E0,-3.387509584E-1,8.200603724E-1
2.475085100E1,-1.123712778E0,-6.731909513E-1,4.870341122E-1
2.477085100E1,-1.794355512E0,-2.528458595E0,6.046693325E-1
2.479085100E1,-1.578528166E0,-2.144520998E0,4.094018936E-1
2.481085100E1,-1.382126212E0,-7.845255136E-1,3.244217932E-1
2.483085100E1,-1.354305625E0,5.172457695E-1,2.576105893E-1
2.485085100E1,-1.219862938E0,1.426091075E0,-6.918485463E-2
2.487085100E1,-1.248887777E0,1.843469143E0,-2.111324817E-1
2.489085100E1,-1.472970605E0,1.683788896E0,-2.193180770E-1
2.491085100E1,-1.801773190E0,6.537479758E-1,-3.342131078E-1
2.493085100E1,-1.802436471E0,-6.971368790E-1,-3.895574808E-1
2.495085100E1,-1.621672630E0,-1.493652821E0,-1.847081929E-1
2.497085100E1,-1.595876694E0,-2.907910585E0,-1.213527396E-1
2.499085100E1,4.907865822E-2,-7.413809299E-1,-1.351408362E-1
2.501085100E1,2.740865052E-1,1.748907208E0,-2.090904489E-2
2.503085256E1,-2.215870023E-1,1.782976031E0,2.313084900E-1
2.505285100E1,5.148197412E-1,7.868642211E-1,1.792802215E-1
2.507285100E1,1.744264603E0,-3.804817796E-1,2.492679209E-1
2.509285100E1,3.005422115E0,-8.031306863E-1,2.463881224E-1
2.511285100E1,3.865031719E0,-2.639810443E-1,4.796164632E-1
2.513285100E1,3.319057703E0,8.272511363E-1,7.183949947E-1
2.515285100E1,2.567117453E0,2.100817919E0,7.740709782E-1
2.517285100E1,1.812541842E0,2.780344486E0,6.430839896E-1
2.519285100E1,2.336105824E0,-6.311808825E-1,2.354100049E-1
2.521285100E1,3.207635880E0,-2.191609859E0,3.548254445E-2
2.523285100E1,3.204616547E0,-1.865442753E0,-2.454456538E-1
2.525285100E1,2.808653593E0,-1.151742816E0,-7.703883201E-2
2.527285100E1,2.512506247E0,-4.566828609E-1,1.557182819E-1
2.529285100E1,2.235278130E0,-8.381769061E-1,3.675663471E-1
2.531285100E1,2.233061552E0,-1.774005055E0,2.313957512E-1
2.533285100E1,2.191679716E0,-3.083298683E0,7.496189326E-2
2.535285100E1,1.829506516E0,-3.336580753E0,-9.951867163E-2
2.537285100E1,1.163157225E0,-3.152117014E0,-2.616772056E-1
2.539285100E1,3.269001544E-1,-2.322125673E0,-9.700539708E-2
2.541285100E1,-6.378829479E-1,-1.398218155E0,2.277131081E-1
2.543285100E1,-1.494298577E0,-6.315473914E-1,5.035274625E-1
2.545285100E1,-2.482259512E0,2.150594741E-1,8.575326204E-1
2.547285100E1,-2.843909264E0,1.545541406E0,9.403659701E-1
2.549285100E1,-6.674662828E-1,1.752293110E0,-1.086816490E-1
2.551285100E1,1.407066941E0,-1.103170276E0,-4.297873378E-1
2.553285100E1,9.439613223E-1,-1.313918710E0,7.045544982E-1
2.555285100E1,6.031857803E-2,-5.265134573E-1,8.344419003E-1
2.557285100E1,-4.660029113E-1,-1.041141272E0,4.067140818E-1
2.559285100E1,-1.103868365E0,8.356810808E-1,-5.842664242E-1
2.561285100E1,-1.140049100E-1,2.617993832E0,-7.396181822E-1
2.563285100E1,7.539124489E-1,2.390158653E0,1.188045591E-1
2.565285100E1,-1.706530571E0,1.763306111E-1,6.577622294E-1
2.567285100E1,-3.440550089E0,-1.204975322E-1,8.693484962E-2
2.569285100E1,-3.491164684E0,2.881556034E0,-6.209183335E-1
2.571285100E1,-2.862060785E0,5.015570164E0,-5.970945954E-1
2.573285100E1,-2.574814320E0,4.446680069E0,-3.131120652E-2
2.575285100E1,-2.480200052E0,2.070414305E0,7.358482480E-1
2.577285100E1,-2.094901323E0,-6.200805902E-1,5.437747836E-1
2.579285100E1,-1.523218632E0,-2.504093647E0,-5.934119597E-2
2.581285100E1,-8.489456177E-1,-2.381554127E0,-1.331162602E-1
2.583285100E1,-8.909207582E-1,-2.137382507E0,-1.373748630E-1
2.585285100E1,-1.661221862E0,-1.155355573E0,-3.576179594E-2
2.587285100E1,-1.753462434E0,7.620630860E-1,1.437802166E-1
2.589285100E1,-1.539607286E0,2.129249334E0,1.151219159E-1
2.591285100E1,-1.610345483E0,1.765889168E0,4.485496320E-3
2.593285100E1,-1.815072656E0,4.681147635E-1,-2.382025421E-1
2.595285100E1,-1.313255548E0,-3.086789250E-1,-1.377762854E-1
2.597285100E1,-4.371700585E-1,4.436277747E-1,7.510151714E-2
2.599285100E1,-3.007202223E-2,1.357586861E0,1.274963021E-1
2.601285100E1,4.172558486E-1,1.499569416E0,3.131120801E-1
2.603285256E1,9.800198078E-1,1.226512671E0,4.007450342E-1
2.605285256E1,1.507353544E0,5.234940648E-1,3.563264310E-1
2.607485256E1,3.209381342E0,-1.515643895E-1,2.009746581E-1
2.609485256E1,4.043840408E0,-7.101395726E-1,1.469218135E-1
2.611485412E1,3.319529057E0,1.257684231E-1,4.081801474E-1
2.613685100E1,2.272855043E0,1.797532082E0,5.493423939E-1
2.615685100E1,1.614010692E0,3.221214533E0,5.394638181E-1
2.617685100E1,2.666164875E0,3.847927451E-1,2.206096239E-2
2.619685100E1,3.277082443E0,-2.277165890E0,-1.826661527E-1
2.621685100E1,2.603490114E0,-2.079228163E0,-3.916344345E-1
2.623685100E1,2.427525997E0,-8.373042345E-1,-2.926568091E-1
2.625685412E1,2.239239931E0,-2.494075522E-2,-1.902408898E-1
2.627885100E1,1.881255507E0,-6.172705889E-1,3.090978041E-2
2.629885100E1,1.885932922E0,-1.379647851E0,1.434660703E-1
2.631885100E1,1.578859687E0,-2.249816656E0,2.532472648E-2
2.633885256E1,1.130187988E0,-2.831168413E0,-2.408379763E-1
2.636085100E1,5.674414635E-1,-2.525124788E0,-1.308822334E-1
2.638085100E1,-2.077988982E-1,-1.487683773E0,2.390228361E-1
2.640085100E1,-1.119768381E0,-5.444030762E-1,5.958030224E-1
2.642085100E1,-1.745521188E0,-1.202008277E-1,8.457167149E-1
2.644085100E1,-2.388622761E0,2.027897984E-1,1.177800536E0
2.646085100E1,-2.899463177E0,1.112420559E0,1.331616402E0
2.648085100E1,-1.002569437E0,1.424171209E0,7.033327818E-1
2.650085100E1,1.827342272E0,-1.127953887E0,3.995058686E-2
2.652085100E1,1.332855582E0,-2.150280476E0,3.675139844E-1
2.654085100E1,2.272942215E-1,-1.043933749E0,5.647187233E-1
2.656089475E1,-4.958305955E-1,-1.686302185E0,3.102148175E-1
2.658285100E1,-1.820605278E0,1.280373573E0,-4.273613095E-1
2.660285100E1,-1.199460030E0,4.789043903E0,-8.108450770E-1
2.662285100E1,1.015135884E0,3.259437323E0,-6.503794789E-1
2.664285100E1,-1.230142951E0,-6.831742525E-1,2.304881811E-1
2.666285100E1,-3.456380129E0,1.290234685E0,5.954714417E-1
2.668285100E1,-3.956888199E0,3.860720634E0,-6.887069345E-2
2.670285100E1,-3.429188013E0,5.789693356E0,-6.372197270E-1
2.672285100E1,-2.456865072E0,6.338774204E0,-5.633922815E-1
2.674285100E1,-2.462170839E0,4.273368835E0,5.593780056E-2
2.676285100E1,-2.717564821E0,1.193159461E0,3.533244431E-1
2.678285100E1,-2.181260109E0,-9.961292148E-1,-5.738642439E-2
2.680285100E1,-9.991137385E-1,-1.862336159E0,-4.729667604E-1
2.682285100E1,-5.191481709E-1,-1.633174419E0,-3.386985958E-1
2.684285256E1,-1.163331747E0,-5.397430658E-1,-4.682718217E-2
2.686485100E1,-1.369053721E0,1.644693613E0,1.036900133E-1
2.688485100E1,-1.295557857E0,2.188206434E0,2.271371484E-1
2.690485100E1,-1.321022272E0,1.620625496E0,-1.860520989E-2
2.692485100E1,-1.421832442E0,5.564633012E-1,-4.501553178E-1
2.694485256E1,-1.430070400E0,-4.666312337E-1,-5.582610369E-1
2.696485725E1,-1.088457108E0,-8.892626762E-1,-3.841120601E-1
2.698685256E1,-3.303210139E-1,1.054527909E-1,-2.638937831E-1
2.700885256E1,-1.156455129E-1,9.759008288E-1,1.570796361E-3
2.702885256E1,3.073524870E-2,1.009847522E0,2.661801577E-1
2.704885256E1,4.090877175E-1,5.973738432E-1,2.370157093E-1
2.707085100E1,1.278226733E0,2.219011635E-1,2.659183741E-1
2.709085100E1,2.714877129E0,4.841368794E-1,4.298047721E-1
2.711085100E1,3.735458374E0,1.832421124E-1,5.482253432E-1
2.713085100E1,3.479837418E0,-8.007570356E-2,8.763472438E-1
2.715085256E1,2.626179457E0,4.359658062E-1,1.030040979E0
2.717285100E1,1.959324121E0,1.306274176E0,9.255830050E-1
2.719285100E1,1.571983099E0,5.943195224E-1,6.284930706E-1
2.721285100E1,2.464509726E0,-2.131273985E0,5.668829381E-2
2.723285100E1,2.616423130E0,-2.059122086E0,6.686356664E-2
2.725285100E1,2.606335163E0,-1.580081463E0,2.432639897E-1
2.727285100E1,2.676218033E0,-1.372963309E0,4.767541289E-1
2.729285100E1,2.655221701E0,-1.483913779E0,5.074195862E-1
2.731285100E1,2.550728798E0,-2.505699396E0,4.799830019E-1
2.733285100E1,2.645849228E0,-3.338832378E0,5.033529550E-2
2.735285100E1,2.264407635E0,-3.519979954E0,-3.218561709E-1
2.737285100E1,1.240754604E0,-3.199013948E0,-3.291865587E-1
2.739285100E1,3.173008561E-1,-2.330485821E0,-1.010196581E-1
2.741285100E1,-7.402290106E-1,-1.147344589E0,2.936342061E-1
2.743285100E1,-1.776500821E0,-2.586927116E-1,5.260073543E-1
2.745285100E1,-2.868937254E0,4.264712036E-1,6.991265416E-1
2.747285100E1,-3.660566330E0,1.496584892E0,1.022082210E0
2.749285100E1,-3.247045517E0,2.465504408E0,7.835306525E-1
2.751285100E1,1.208343744E0,2.819963455E0,-1.604306698E-1
2.753285100E1,1.444853306E0,-1.413507223E0,-4.374667704E-1
2.755285100E1,1.690525860E-1,-5.863782763E-1,4.149171114E-1
2.757285100E1,-6.052976251E-1,-1.011069268E-1,-1.904503256E-1
2.759285100E1,-1.344165325E0,1.261349440E0,-9.745220542E-1
2.761285100E1,-6.298893094E-1,2.769436121E0,-1.048820734E0
2.763285100E1,-4.317770004E-1,2.202867270E0,6.937684119E-2
2.765285100E1,-1.578667760E0,8.610931039E-1,7.813315392E-1
2.767285100E1,-2.650264978E0,7.432833910E-1,1.288227588E-1
2.769285100E1,-2.740690470E0,3.597804308E0,-5.551193953E-1
2.771285100E1,-2.339666128E0,5.172894001E0,-3.475125134E-1
2.773285100E1,-2.088478327E0,4.633622169E0,7.906341925E-3
2.775285100E1,-2.652307034E0,2.097746134E0,3.861017227E-1
2.777285256E1,-2.798879862E0,-3.586826026E-1,1.879021525E-1
2.779485256E1,-2.005156517E0,-1.784145355E0,-3.124488294E-1
2.781486038E1,-8.344593644E-1,-2.109980822E0,-5.406680703E-1
2.783486038E1,-6.777637005E-1,-1.831094742E0,-3.131120801E-1
2.785685100E1,-9.520247579E-1,-5.008571148E-1,6.150540337E-2
2.787685100E1,-1.146175146E0,1.037633181E0,1.181238815E-1
2.789685100E1,-1.413995981E0,1.633436203E0,-1.466076588E-3
2.791685256E1,-1.496445298E0,1.207767844E0,-1.629788429E-1
2.793885100E1,-1.557025671E0,2.348689586E-1,-5.146103501E-1
2.795885100E1,-1.325455427E0,-7.892379165E-2,-6.017197371E-1
2.797885100E1,-5.211029649E-1,4.672071934E-1,-2.890090644E-1
2.799885256E1,1.072679386E-1,8.023104072E-1,1.087340154E-2
2.802085100E1,6.614797711E-1,3.472855985E-1,2.503325641E-1
2.804085100E1,1.445726037E0,-3.344050944E-1,2.307499796E-1
2.806085100E1,2.397087574E0,-7.372445464E-1,1.976061761E-1
2.808085100E1,3.773873091E0,-1.125056744E0,2.456201911E-1
2.810085256E1,4.075099468E0,-7.254111767E-1,5.309989452E-1
2.812285100E1,3.296403408E0,1.706233919E-1,9.219352603E-1
2.814285100E1,2.544410706E0,1.379577994E0,1.029203176E0
2.816285100E1,1.512624502E0,2.519016266E0,6.974509954E-1
2.818285100E1,1.836749554E0,-3.887371719E-1,9.166469425E-2
2.820285256E1,3.570873737E0,-2.402114153E0,-9.044296294E-2
2.822485100E1,3.479418516E0,-1.865966439E0,-5.278050303E-1
2.824485569E1,2.929308176E0,-1.600449443E0,-5.227261186E-1
2.826685256E1,2.075720072E0,-7.547676563E-1,1.426806599E-1
2.828887131E1,1.099522471E0,-6.961944103E-1,6.927211881E-1
2.831085100E1,5.340358615E-1,-2.363612175E0,4.624249935E-1
2.833085100E1,2.571393549E-1,-3.323089361E0,-6.169738993E-2
2.835085100E1,-2.923251987E-1,-3.110822439E0,-3.179989755E-1
2.837085100E1,-1.427592039E0,-2.271092176E0,9.302604944E-2
2.839085256E1,-2.660754442E0,-8.501673341E-1,3.358013332E-1
2.841285256E1,-2.894087553E0,7.203846574E-1,4.715879634E-2
2.843485412E1,5.459738970E-1,2.950339556E0,-3.462209702E-1
2.845485881E1,1.754143119E0,-3.022508860E0,4.813792706E-1
2.847685100E1,1.136296630E0,-1.588162303E0,6.159790754E-1
2.849685100E1,7.490953207E-1,1.153522968E0,-4.479911029E-1
2.851685100E1,5.138249323E-2,3.520364046E0,-1.531282067E0
2.853685100E1,1.814618856E-1,2.099561214E0,-7.562860847E-1
2.855689319E1,-8.462054133E-1,-1.444800973E0,-2.898991853E-2
2.857885100E1,-2.183441877E0,-5.400572419E-1,2.965314314E-2
2.859885100E1,-2.768423796E0,1.039902091E0,-2.001718134E-1
2.861885100E1,-2.569176912E0,2.129493713E0,-3.551570475E-1
2.863885881E1,-2.427840233E0,1.691381097E0,5.790129900E-1
2.866085100E1,-2.229448557E0,6.151587367E-1,9.397026896E-1
2.868085100E1,-1.917855024E0,-1.687209755E-1,5.772851110E-1
2.870085100E1,-2.015139580E0,-1.609472871E0,3.748269081E-1
2.872085100E1,-2.268142700E0,-3.836181402E0,4.576253295E-1
2.874085100E1,-1.891343474E0,-3.717010260E0,2.923775613E-1
2.876085100E1,-1.406351447E0,-1.564076781E0,1.550026834E-1
2.878085100E1,-1.428133130E0,6.644293666E-1,7.983136177E-2
2.880085100E1,-1.459461808E0,1.249935031E0,-4.625122529E-3
2.882085100E1,-1.391952395E0,7.789229751E-1,-2.796191871E-1
2.884085100E1,-1.390067458E0,9.065763950E-1,-5.239129066E-1
2.886085100E1,-1.245187640E0,4.892506897E-1,-4.340110123E-1
2.888085100E1,-1.354584932E0,-9.239423871E-1,-3.691546023E-1
2.890085100E1,-6.217735410E-1,-9.108349681E-1,-3.802548945E-1
2.892085100E1,5.108404160E-1,4.882558584E-1,-2.179392576E-1
2.894085100E1,7.522194386E-1,6.077411175E-1,1.307600737E-1
2.896085100E1,1.313936234E0,-1.559800804E-1,2.026327327E-2
2.898085100E1,2.510464191E0,-5.526584983E-1,1.011418328E-1
2.900085100E1,3.876987219E0,-9.856572151E-1,1.119628698E-1
2.902085100E1,4.184706211E0,-4.644495547E-1,2.549053431E-1
2.904085100E1,2.996730328E0,1.184903979E0,6.592981219E-1
2.906085100E1,2.273483276E0,2.306801558E0,8.796634078E-1
2.908085100E1,1.736986518E0,2.398064852E0,8.922646642E-1
2.910085256E1,2.613770247E0,-1.389578819E0,4.964938164E-1
2.912285100E1,3.085515261E0,-2.870193958E0,4.568399191E-1
2.914285256E1,2.994897604E0,-3.038810253E0,5.567949414E-1
2.916485256E1,2.944789410E0,-3.048147678E0,8.679522276E-1
2.918685256E1,2.844991446E0,-2.369755745E0,7.097032070E-1
2.920885100E1,2.532874107E0,-3.379166842E0,3.724358082E-1
2.922885256E1,2.412830353E0,-3.872065306E0,2.108008713E-1
2.924885256E1,1.857309580E0,-4.216366291E0,-1.331162602E-1
2.927085100E1,1.078526258E0,-3.557190418E0,-2.936516404E-1
2.929085100E1,3.019244969E-1,-2.278963566E0,-1.512327790E-1
2.931085100E1,-6.629981995E-1,-1.384395123E0,1.207418740E-1
2.933085256E1,-1.710335374E0,-3.689102530E-1,3.182258904E-1
2.935085256E1,-2.823576212E0,5.850169063E-1,5.660102963E-1
2.937085256E1,-3.594470739E0,1.939566970E0,6.937683821E-1
2.939085256E1,-2.625970125E0,2.731457710E0,1.359436959E-1
2.941085256E1,2.406111002E0,1.543900847E0,-9.697223902E-1
2.943085256E1,1.668238044E0,-1.186509728E0,2.166651785E-1
2.945285100E1,-1.908342987E-1,-1.037860036E0,5.270196199E-1
2.947285100E1,-1.172808886E0,-8.435874581E-1,1.982693970E-1
2.949285256E1,-1.962814689E0,8.481951356E-1,1.432217211E-1
2.951485881E1,-6.838723421E-1,3.168086767E0,-3.599567115E-1
2.953685100E1,7.358831763E-1,2.728228807E0,2.423389703E-1
2.955685256E1,-1.195882201E0,2.560136318E0,8.916363716E-1
2.957885256E1,-3.125396013E0,2.220111132E0,2.703340352E-1
2.960085256E1,-3.920952082E0,2.115391493E0,-4.270646274E-1
2.962285100E1,-3.530172825E0,3.018913507E0,-5.747194886E-1
2.964285100E1,-2.858936548E0,2.880159855E0,-4.210432172E-1
2.966285100E1,-2.525596142E0,1.765435457E0,9.803514183E-2
2.968285100E1,-2.454020262E0,1.288925707E-1,4.475373328E-1
2.970285256E1,-2.126020432E0,-7.469485402E-1,2.932327688E-1
2.972485100E1,-1.346975327E0,-2.535265386E-1,1.489114910E-1
2.974485256E1,-9.639627934E-1,4.124562144E-1,3.021164834E-1
2.976487600E1,-1.184397936E0,6.070080400E-1,3.742334843E-1
2.978685100E1,-1.357936025E0,1.302521706E0,2.487617731E-1
2.980685256E1,-1.269482732E0,1.550690174E0,2.173632979E-1
2.982685412E1,-1.282433033E0,1.012029171E0,7.286749780E-2
2.984885100E1,-1.704087138E0,-2.972819209E-1,-1.970476657E-1
2.986885100E1,-1.706390977E0,-7.684161067E-1,-1.462760419E-1
2.988887131E1,-4.911007285E-1,4.111995548E-2,2.230530791E-2
2.991085100E1,1.455779076E-1,1.134935260E0,2.205747068E-1
2.993085100E1,-4.085815698E-2,1.630818248E0,4.700695276E-1
2.995085100E1,-6.283185445E-3,1.778054118E0,5.036147833E-1
2.997085100E1,8.300786018E-1,2.010252714E0,4.241150022E-1
2.999085100E1,1.926581740E0,1.533900023E0,4.308170676E-1
3.001085100E1,3.528305292E0,-2.387610376E-1,2.453060299E-1
3.003085256E1,4.245478630E0,1.284213215E-1,2.043431550E-1
3.005285100E1,3.263940334E0,7.504915595E-1,8.921948671E-1
3.007285100E1,2.680476665E0,6.256307364E-1,1.028714538E0
3.009285100E1,2.050168514E0,2.719921172E-1,9.392663836E-1
3.011285100E1,2.026274920E0,-1.199791670E0,4.890587032E-1
3.013285100E1,3.362289429E0,-3.503329515E0,1.230282560E-1
3.015285100E1,3.325044155E0,-2.738875389E0,-1.013163626E-1
3.017285100E1,3.213395596E0,-1.936704636E0,-2.183057815E-1
3.019285100E1,3.068463326E0,-1.590501070E0,-1.068141535E-1
3.021285100E1,2.858412981E0,-1.770776153E0,2.127905488E-1
3.023285100E1,2.572720051E0,-2.447597265E0,2.819230258E-1
3.025285100E1,2.143561125E0,-2.915136099E0,-1.406560838E-1
3.027285100E1,1.306361437E0,-3.417860746E0,-6.544461250E-1
3.029285100E1,5.540547967E-1,-3.078830719E0,-8.614072204E-1
3.031285100E1,-3.344225287E-1,-1.969115376E0,-5.866749883E-1
3.033285100E1,-1.329626679E0,-1.061823368E0,-2.684665322E-1
3.035285100E1,-2.326611042E0,-3.417354524E-1,-3.787364438E-2
3.037285100E1,-3.375257254E0,4.983962178E-1,2.885378301E-1
3.039285100E1,-4.314767838E0,1.820500612E0,5.349085331E-1
3.041285100E1,-6.711140275E-1,2.394033194E0,-2.334726900E-1
3.043285100E1,2.113157272E0,7.264060527E-2,-2.144660652E-1
3.045285100E1,8.034797907E-1,-1.008922458E0,6.361026764E-1
3.047285100E1,1.351233870E-1,-1.165007234E0,2.504896522E-1
3.049285100E1,-8.785289526E-1,-2.093522400E-1,-4.408701509E-2
3.051285100E1,-1.322575569E0,1.293254018E0,-1.061509252E-1
3.053285100E1,4.380427301E-1,2.725331545E0,-7.733553648E-2
3.055289319E1,1.994562298E-1,2.319158554E0,-1.592612863E-1
3.057485100E1,-1.604533553E0,9.434900880E-1,-1.748296320E-1
3.059485100E1,-2.784463406E0,7.508929968E-1,-2.331934422E-1
3.061485100E1,-3.424510479E0,1.820430756E0,-4.067315161E-1
3.063485725E1,-3.076230049E0,2.468436718E0,-4.360007048E-1
3.065685100E1,-2.305841684E0,1.975852370E0,3.089581728E-1
3.067685100E1,-1.683143139E0,8.794190288E-1,8.803964257E-1
3.069685100E1,-1.055173755E0,-3.503573835E-1,5.552067161E-1
3.071685100E1,-1.332157493E0,-2.222275257E0,2.203303576E-1
3.073685100E1,-1.497719407E0,-2.165761709E0,3.260274976E-2
3.075685100E1,-1.413891196E0,-7.076786757E-1,2.221804112E-2
3.077685100E1,-1.625966191E0,5.113291144E-1,1.012290944E-3
3.079685100E1,-1.800097704E0,1.318858027E0,-5.672320258E-3
3.081685256E1,-1.508959293E0,1.731855273E0,9.190903604E-2
3.083685256E1,-1.216319919E0,9.948725700E-1,-2.701769583E-2
3.085885256E1,-1.421465993E0,-9.692162275E-1,-3.601835966E-1
3.087885256E1,-1.779188633E0,-1.763707519E0,-3.280346394E-1
3.090085100E1,-1.559940338E0,-9.243438244E-1,-8.349654824E-2
3.092085100E1,-5.881061554E-1,8.847074211E-2,8.307767101E-3
3.094085100E1,2.876302600E-2,7.443131208E-1,-3.822271153E-2
3.096085100E1,3.498512506E-1,1.161481738E0,1.210909411E-1
3.098085100E1,2.789210677E-1,1.189913154E0,3.395712674E-1
3.100085100E1,7.630404830E-1,1.193229198E0,3.920707703E-1
3.102085100E1,1.854482174E0,7.685906291E-1,7.374888659E-1
3.104085100E1,3.296717405E0,-6.038839370E-2,1.008556008E0
3.106085100E1,3.865782022E0,-9.039234519E-1,1.241679549E0
3.108085100E1,3.263800621E0,-6.474822164E-1,1.566485405E0
3.110085256E1,2.407384872E0,6.672044396E-1,1.599821091E0
3.112285100E1,1.184851646E0,2.279539585E0,1.289274693E0
3.114285256E1,2.062001705E0,-4.845033959E-2,8.798553944E-1
3.116485256E1,3.186011314E0,-2.115513563E0,8.326092958E-1
3.118685256E1,2.585722685E0,-3.034586430E0,5.671098232E-1
3.120885100E1,3.048392057E0,-1.804181695E0,4.215493798E-1
3.122885256E1,3.291900396E0,-1.531159878E0,-4.806636870E-1
3.125085256E1,3.175766230E0,-2.757044315E0,-1.452550292E0
3.127285100E1,3.147980452E0,-3.190339804E0,-1.928292155E0
3.129285100E1,2.622863293E0,-2.879426718E0,-1.768315196E0
3.131285100E1,1.483721852E0,-2.224684000E0,-1.248591065E0
3.133285100E1,3.111049235E-1,-1.939025879E0,-8.061501384E-1
3.135285100E1,-5.520302057E-1,-1.005484223E0,-4.636292756E-1
3.137285100E1,-1.234750628E0,-1.278453618E-1,-5.663593486E-2
3.139285100E1,-2.065283060E0,6.621081233E-1,3.237760365E-1
3.141285100E1,-3.279299021E0,9.133482575E-1,7.245385051E-1
3.143285100E1,-4.074994564E0,9.116378427E-1,9.964782596E-1
3.145285100E1,-2.811358929E0,1.133469224E0,5.673716068E-1
3.147285100E1,3.503050208E-1,5.017995834E-1,-9.500176311E-1
3.149285100E1,1.067443371E0,-8.586147428E-1,-6.184225082E-1
3.151285100E1,8.308988810E-1,-9.781697989E-1,4.730191231E-1
3.153285100E1,-3.294483423E-1,-1.078875303E0,2.836334705E-1
3.155485100E1,-1.086013675E0,-6.190508008E-1,-1.210036799E-1
3.157486975E1,-1.503426582E-1,1.744351864E0,-6.726324558E-1
3.159685100E1,1.915621042E0,2.496902943E0,-8.374089599E-1
3.161685256E1,-4.560719728E-1,1.680612445E0,-2.310990393E-1
3.163885100E1,-2.976973295E0,2.165709257E0,4.575729668E-1
3.165885256E1,-4.077228546E0,2.354780674E0,9.896016866E-2
3.167885256E1,-3.982876301E0,3.445053101E0,-3.406882584E-1
3.170085100E1,-2.835845947E0,4.667499065E0,-3.354348242E-1
3.172085100E1,-2.248106241E0,3.452435732E0,5.323777795E-1
3.174085100E1,-1.647939920E0,1.367954135E0,7.065790892E-1
3.176085100E1,-1.289117575E0,-6.251769513E-2,1.001993492E-1
3.178085100E1,-1.294318676E0,-1.415619135E0,-2.150769234E-1
3.180085100E1,-1.010999441E0,-2.133542776E0,-2.143089771E-1
3.182085100E1,-7.752228975E-1,-2.112040281E0,-2.518160939E-1
3.184085100E1,-1.255764365E0,-2.151065826E0,-2.093871534E-1
3.186085100E1,-1.572873235E0,-1.006339431E0,-2.170316875E-1
3.188085100E1,-1.255537510E0,9.092642069E-1,-1.972222002E-3
3.190085100E1,-1.159073114E0,1.792837143E0,2.334901392E-1
3.192085100E1,-1.310829520E0,1.529641509E0,1.433089823E-1
3.194085100E1,-1.446197271E0,7.200355530E-1,-1.676388681E-1
3.196085100E1,-1.550463200E0,-4.072725773E-1,-3.382098973E-1
3.198085100E1,-1.636211276E0,-1.064825416E0,-5.253440738E-1
3.200085100E1,-1.093291640E0,-7.096858025E-1,-6.701714993E-1
3.202085100E1,-5.129522681E-1,6.881833076E-2,-5.827828646E-1
3.204085256E1,-2.467720956E-1,6.772052050E-1,-2.491981089E-1
3.206285100E1,4.704011381E-1,1.050583482E0,-2.216568217E-3
3.208285100E1,1.290217161E0,7.500377893E-1,4.170289636E-1
3.210285100E1,2.450983286E0,3.145781457E-1,6.578669548E-1
3.212285100E1,3.560192347E0,-2.256885320E-1,8.328012824E-1
3.214285100E1,3.292284250E0,-1.226146102E0,1.315000892E0
3.216285100E1,2.743866920E0,-1.872459054E0,1.495712280E0
3.218285100E1,2.429498196E0,-1.105072618E0,1.254385591E0
3.220285256E1,2.138202906E0,1.103048101E-1,8.855276704E-1
3.222485256E1,2.126003027E0,8.131139874E-1,1.346957803E0
3.224485256E1,1.999728441E0,-1.287634134E0,1.979325533E0
3.226485569E1,2.585932255E0,-3.723014116E0,2.133542776E0
3.228685100E1,3.854978561E0,-4.804263115E0,1.637432933E0
3.230685100E1,4.201496124E0,-4.799079418E0,4.606971145E-1
3.232685100E1,4.213364601E0,-4.301241875E0,-2.264564633E-1
3.234685256E1,3.918665648E0,-4.194514751E0,-5.158669949E-1
3.236885256E1,2.600173950E0,-3.393914938E0,-6.669601202E-1
3.238887131E1,1.617274404E0,-2.445572853E0,-9.760579467E-1
3.241085100E1,9.115505815E-1,-1.771858215E0,-9.413782358E-1
3.243085100E1,1.976410896E-1,-1.281595230E0,-4.841717780E-1
3.245085100E1,-5.163905621E-1,-1.007927656E0,1.331686229E-1
3.247085100E1,-1.444591522E0,-4.866676033E-1,6.067462564E-1
3.249085100E1,-2.670336246E0,1.371479779E-1,9.041678309E-1
3.251085100E1,-4.006019115E0,9.266999960E-1,5.326220989E-1
3.253085256E1,-2.975489616E0,2.107467651E0,2.145009674E-2
3.255285100E1,-8.933991194E-1,6.042504311E-1,-7.830070853E-1
3.257285100E1,1.208815053E-1,-7.175921202E-1,-6.753376722E-1
3.259285100E1,-8.875173926E-1,-6.045122147E-1,-7.438593358E-2
3.261285100E1,-2.080484867E0,1.994684458E0,3.722787276E-2
3.263285100E1,-6.333974600E-1,2.827782393E0,3.826459944E-1
3.265285100E1,2.968630493E-1,1.567183495E0,3.569372892E-1
3.267285100E1,-1.047476768E0,1.764632583E0,2.770710289E-1
3.269285100E1,-2.509835720E0,2.252801180E0,2.083923109E-2
3.271285100E1,-3.515843630E0,2.065457582E0,-4.451113045E-1
3.273285100E1,-4.064836979E0,1.810936213E0,-4.618141055E-1
3.275285100E1,-3.684913635E0,2.239187717E0,-2.442064732E-1
3.277285100E1,-3.106808186E0,2.123437405E0,3.048391938E-1
3.279285100E1,-2.579858541E0,1.366488099E0,8.424355388E-1
3.281285100E1,-1.641185403E0,-1.356365204E0,5.000368357E-1
3.283285100E1,-9.747838378E-1,-1.473232388E0,-4.956734926E-2
3.285285100E1,-5.808804631E-1,-4.370304570E-2,-3.803072497E-2
3.287285100E1,-7.901803851E-1,1.048209786E0,3.432015479E-1
3.289285100E1,-1.358285069E0,1.707612634E0,5.997824073E-1
3.291285100E1,-1.669791341E0,1.863261104E0,5.087983608E-1
3.293285100E1,-1.722989082E0,1.312365413E0,1.990024447E-1
3.295285100E1,-1.626402497E0,1.844114810E-1,-1.508488059E-1
3.297285100E1,-1.416561604E0,-5.278224945E-1,-2.793050408E-1
3.299285100E1,-1.080498457E0,-5.477541089E-1,-1.333780587E-1
3.301285100E1,-4.874879122E-1,2.471560687E-1,-1.646194607E-1
3.303285256E1,-3.148573935E-1,1.043287992E0,-4.757767543E-2
3.305485100E1,7.620107383E-2,1.641307592E0,1.336922217E-2
3.307485100E1,6.857922077E-1,1.622946739E0,1.359611452E-1
3.309485100E1,1.619403720E0,1.071928859E0,3.383320868E-1
3.311485100E1,2.978229761E0,1.002342552E-1,4.203276336E-1
3.313485569E1,4.201705456E0,-5.908812284E-1,3.103893399E-1
3.315486663E1,3.704601049E0,-4.815886915E-1,6.278647184E-1
3.317685100E1,2.639094830E0,3.378608227E-1,9.134005904E-1
3.319685256E1,1.818388700E0,8.966105580E-1,7.602828741E-1
3.321885256E1,1.930822849E0,-1.032222629E0,1.172337681E-1
3.324085100E1,3.168470621E0,-3.216711521E0,-2.135933936E-1
3.326085100E1,3.050835609E0,-2.433268309E0,-3.682295680E-1
3.328085100E1,2.987008810E0,-1.334164619E0,-3.508286178E-1
3.330085100E1,2.860036135E0,-5.042430758E-1,-1.474105120E-1
3.332085100E1,2.441767931E0,-1.043305516E0,3.176499158E-3
3.334085100E1,2.259415865E0,-1.863138914E0,9.597565234E-2
3.336085100E1,2.040569067E0,-2.764374733E0,-1.129228026E-1
3.338085100E1,1.369298100E0,-3.351747751E0,-5.220105052E-1
3.340085100E1,5.521697998E-1,-2.695486546E0,-6.522818804E-1
3.342085100E1,-3.143861592E-1,-1.619037271E0,-4.218809903E-1
3.344085100E1,-1.284091115E0,-6.270793676E-1,-8.187339455E-2
3.346085100E1,-2.338898182E0,8.798204362E-2,2.651853263E-1
3.348085100E1,-3.587908268E0,1.075105309E0,7.271215916E-1
3.350085100E1,-4.154250145E0,1.895846486E0,8.289790154E-1
3.352085100E1,6.380749345E-1,2.121971369E0,-5.476843193E-2
3.354085100E1,1.685342312E0,-1.416648865E0,-3.649483323E-1
3.356085100E1,3.909013867E-1,-1.212986350E0,1.602910310E-1
3.358085100E1,-5.359557271E-1,3.254689872E-1,-2.307150662E-1
3.360085256E1,-7.595498562E-1,2.107921362E0,-8.248775005E-1
3.362285100E1,-1.663473248E-1,2.864923000E0,-6.141639352E-1
3.364285100E1,-1.072504878E0,1.193805218E0,1.834515631E-1
3.366285100E1,-2.663756371E0,7.787659019E-2,1.666614860E-1
3.368285100E1,-3.639220953E0,6.779906154E-1,-1.972396523E-1
3.370285100E1,-3.469016314E0,2.184087515E0,-4.597546160E-1
3.372285100E1,-2.584919930E0,2.793626308E0,-1.491732895E-1
3.374285100E1,-1.923963666E0,1.584601879E0,7.587469816E-1
3.376285100E1,-1.175985336E0,-7.169812173E-2,8.380023837E-1
3.378285100E1,-1.219671011E0,-2.364223003E0,3.465525806E-1
3.380285100E1,-1.460526466E0,-2.794359446E0,-2.064724453E-2
3.382285100E1,-1.235937476E0,-1.527704120E0,4.958480224E-2
3.384285100E1,-1.004576564E0,4.411494136E-1,2.204350829E-1
3.386285100E1,-1.246042967E0,1.672653794E0,3.466747403E-1
3.388285100E1,-1.454557419E0,1.458658934E0,3.643898368E-1
3.390285100E1,-1.613015890E0,8.993157744E-1,4.838052765E-2
3.392285100E1,-1.669651747E0,4.431391060E-1,-2.976309955E-1
3.394285100E1,-1.504177094E0,-3.840247989E-1,-3.715806007E-1
3.396285100E1,-1.626838803E0,-1.468066216E0,-2.928487957E-1
3.398285100E1,-1.270669460E0,-1.953163028E0,-2.804569602E-1
3.400285100E1,-1.127308160E-1,-1.458222568E-1,-3.076666296E-1
3.402285100E1,3.882659376E-1,2.072962523E0,-3.022910282E-2
3.404285100E1,4.950800836E-1,2.314463615E0,2.920110226E-1
3.406285100E1,1.043724298E0,1.197086453E0,3.257656991E-1
3.408285100E1,2.299191952E0,5.928010941E-1,3.973242044E-1
3.410285100E1,3.923936367E0,4.145331383E-1,6.100449562E-1
3.412285100E1,3.902608633E0,-1.164309159E-1,8.986525536E-1
3.414285100E1,2.727600574E0,-2.544515431E-1,1.095717669E0
3.416285100E1,2.160769939E0,1.810255498E-1,8.982337117E-1
3.418285100E1,1.752903938E0,5.562364459E-1,5.891184211E-1
3.420285256E1,2.572458267E0,-1.625599623E0,2.413092256E-1
3.422485100E1,3.206204653E0,-2.884313583E0,5.633922666E-2
3.424485100E1,2.995124578E0,-2.395394564E0,7.185520232E-2
3.426486194E1,2.758824587E0,-1.919548035E0,3.026575446E-1
3.428685100E1,2.584291458E0,-1.877555370E0,5.292536616E-1
3.430685100E1,2.288493156E0,-1.665550232E0,4.394738972E-1
3.432685100E1,1.992118835E0,-2.611850262E0,2.207666934E-1
3.434685100E1,1.810325265E0,-3.335306644E0,-1.288751066E-1
3.436685100E1,1.411343098E0,-3.530504465E0,-3.489785790E-1
3.438685100E1,8.648804426E-1,-3.010640621E0,-4.390550256E-1
3.440685100E1,5.989969894E-2,-2.154277325E0,-1.818109453E-1
3.442685100E1,-8.301134706E-1,-1.558788419E0,9.770353138E-2
3.444685100E1,-1.703162074E0,-8.785812855E-1,3.711268008E-1
3.446685100E1,-2.882271528E0,4.575904310E-1,7.547327280E-1
3.448685100E1,-3.247673750E0,1.851462722E0,1.021174669E0
3.450685100E1,1.002080798E0,2.198888063E0,-1.325403005E-1
3.452685256E1,2.543834925E0,-1.210333467E0,-1.228711754E-1
3.454885256E1,7.640528083E-1,-1.315908432E0,7.331604362E-1
3.457085100E1,-3.412293196E-1,-7.986277342E-1,3.398156166E-1
3.459085100E1,-1.317863226E0,-4.950626493E-1,1.140398160E-1
3.461085256E1,-1.697960973E0,1.862475753E0,-1.505171955E-1
3.463285256E1,9.837373495E-1,3.957813263E0,-2.574186027E-1
3.465485256E1,6.072000414E-2,2.837294579E0,2.054950595E-1
3.467485412E1,-2.688976526E0,5.104739070E-1,7.000864744E-1
3.469685256E1,-4.118261337E0,4.603829384E-1,-3.438298777E-2
3.471885256E1,-4.198022842E0,3.385135889E0,-4.674515426E-1
3.474085100E1,-3.253590345E0,4.275428295E0,-6.970321536E-1
3.476085100E1,-2.222729206E0,3.209992170E0,-1.606750041E-1
3.478085100E1,-1.317880630E0,7.138920426E-1,7.071027160E-1
3.480085100E1,-1.582158446E0,-1.707560301E0,1.223301291E-1
3.482085256E1,-1.706356049E0,-2.360784769E0,-2.135410309E-1
3.484285100E1,-1.030931115E0,-1.476688147E0,3.817034885E-2
3.486285100E1,-1.045364976E0,-9.481500983E-1,1.950230896E-1
3.488285100E1,-1.531700969E0,-4.135557711E-1,2.820626497E-1
3.490285100E1,-1.658813238E0,7.490429282E-1,1.267283559E-1
3.492285256E1,-1.643175125E0,1.409161329E0,-2.839650773E-2
3.494485256E1,-1.570325136E0,6.280218363E-1,-1.359436959E-1
3.496685100E1,-1.550620317E0,-3.667984009E-1,-2.245540619E-1
3.498685256E1,-9.975778461E-1,-1.904154196E-2,-8.000589162E-2
3.500885256E1,-2.774899006E-1,7.783470154E-1,4.729842395E-2
3.502885256E1,1.590344012E-1,1.362089872E0,-2.000147291E-2
3.505085256E1,4.706803858E-1,1.533917546E0,3.206867874E-1
3.507285100E1,6.275331378E-1,1.148723364E0,4.984311163E-1
3.509285100E1,1.562558413E0,1.188639045E0,5.398128629E-1
3.511285100E1,3.346895695E0,5.546307564E-1,8.448964357E-1
3.513285256E1,3.911143303E0,-4.893728793E-1,8.563457727E-1
3.515485881E1,2.970131397E0,-2.342929989E-1,7.486415505E-1
3.517485881E1,2.167245150E0,6.606594920E-1,6.025749445E-1
3.519685100E1,1.652093768E0,1.260127664E0,4.529129267E-1
3.521685100E1,2.735053062E0,-1.968225241E0,-2.821324766E-1
3.523685100E1,3.359863520E0,-1.701835632E0,-2.667037547E-1
3.525685100E1,2.968037128E0,-1.087148190E0,-2.795842886E-1
3.527685100E1,2.574343204E0,-5.118701458E-1,-1.058891267E-1
3.529685100E1,2.249205828E0,-9.475392103E-2,2.034704834E-1
3.531685100E1,1.939060807E0,-8.789303303E-1,4.221253395E-1
3.533685100E1,1.979133606E0,-1.827848434E0,3.145432472E-1
3.535685100E1,1.896492243E0,-2.509172678E0,2.789036185E-2
3.537685100E1,1.454697013E0,-2.865446568E0,-2.586054206E-1
3.539685100E1,8.144055605E-1,-2.459238768E0,-2.967932522E-1
3.541685100E1,-1.315280050E-1,-1.513916016E0,1.381253600E-1
3.543685100E1,-9.989740849E-1,-8.503767848E-1,4.755149484E-1
3.545686819E1,-1.576625705E0,-1.769240201E-1,7.607715726E-1
3.547885100E1,-2.395900726E0,8.213868737E-1,1.182163835E0
3.549885100E1,-2.504111052E0,1.825911045E0,9.948900342E-1
3.551885100E1,3.609864414E-1,1.077915356E-1,1.594358236E-1
3.553885100E1,1.425776958E0,-3.015422821E0,1.158724055E-1
3.555885100E1,8.958600760E-1,-1.546972632E0,4.276580215E-1
3.557885100E1,5.673890710E-1,-1.495328307E0,3.500607014E-1
3.559885100E1,-6.573782563E-1,-1.086607099E0,1.668883860E-1
3.561885100E1,-1.954821110E0,2.580992937E0,-5.133013129E-1
3.563885100E1,-2.288650274E-1,5.939774513E0,-9.958674312E-1
3.565885100E1,1.800342083E0,8.772897720E-1,-7.031407952E-1
3.567885100E1,-2.075266361E0,2.816786766E-1,7.787659019E-2
3.569885100E1,-4.304453373E0,1.642477036E0,1.926319897E-1
3.571885100E1,-4.640585899E0,4.269616604E0,-1.992991418E-1
3.573885100E1,-4.018707752E0,5.946860313E0,-4.956560433E-1
3.575885100E1,-2.726186752E0,5.846730709E0,-3.959628344E-1
3.577885100E1,-1.484280348E0,3.605797768E0,2.032959461E-1
3.579885100E1,-1.884763598E0,-6.080726907E-2,2.333679795E-1
3.581885100E1,-2.191540003E0,-1.069083929E0,-2.313783020E-1
3.583885100E1,-1.403576374E0,-3.880739510E-1,-1.687733382E-1
3.585885100E1,-9.299986959E-1,-4.114613831E-1,1.788962446E-2
3.587885881E1,-1.465552926E0,-1.104339600E0,5.468116701E-2
3.590085100E1,-1.801493883E0,-5.988748074E-1,-4.961971194E-2
3.592085100E1,-1.761194229E0,6.312681437E-1,-5.490805954E-2
3.594085100E1,-1.679774642E0,9.855524898E-1,-1.544441879E-1
3.596085100E1,-1.562785268E0,3.326597512E-1,-2.676113248E-1
3.598085100E1,-1.282171249E0,4.724606127E-2,-3.107209802E-1
3.600085100E1,-7.264060378E-1,6.325247884E-1,-8.822639287E-2
3.602085100E1,-4.944168627E-1,7.817155123E-1,1.117359772E-1
3.604085256E1,-1.247910410E-2,8.033576012E-1,8.192575723E-2
3.606285256E1,4.833863974E-1,1.006252170E0,1.377937496E-1
3.608485725E1,9.271886945E-1,1.021803021E0,2.641904950E-1
3.610685100E1,1.719463468E0,9.632472396E-1,5.601110458E-1
3.612685256E1,3.529718876E0,3.969227672E-1,4.477642179E-1
3.614885256E1,3.878261328E0,-8.374613523E-1,4.514817595E-1
3.617085100E1,3.016976118E0,-9.319883585E-1,6.028367281E-1
3.619085100E1,2.291303158E0,-1.116138026E-1,5.899736285E-1
3.621085100E1,1.719044566E0,5.599015951E-1,4.308868945E-1
3.623085100E1,2.659271002E0,-1.672252297E0,-5.270894244E-2
3.625085100E1,3.152535915E0,-2.085563660E0,-1.197470427E-1
3.627085100E1,2.961178064E0,-1.550690174E0,-1.219112501E-1
3.629085100E1,2.731126070E0,-9.409419298E-1,-4.078834504E-2
3.631085100E1,2.535579443E0,-4.666835964E-1,3.445628881E-1
3.633085100E1,2.165709257E0,-1.207261682E0,6.750758886E-1
3.635085100E1,2.247512817E0,-2.740498543E0,5.654343367E-1
3.637085100E1,2.159059525E0,-3.465106964E0,8.691739291E-2
3.639085100E1,1.600414515E0,-3.420653343E0,-3.924547434E-1
3.641085100E1,8.341277242E-1,-2.737915516E0,-3.200759292E-1
3.643085100E1,-1.800307184E-1,-1.783045769E0,5.358160660E-2
3.645085100E1,-1.095229030E0,-1.072347760E0,3.046123087E-1
3.647085100E1,-1.918832421E0,-5.768313408E-1,5.687679052E-1
3.649085100E1,-2.982785225E0,4.963890910E-1,9.847147465E-1
3.651085100E1,-3.540033817E0,1.391516089E0,9.148841500E-1
3.653085256E1,5.730090737E-1,1.166996956E0,-1.818283945E-1
3.655285100E1,2.067639112E0,-1.508784771E0,-3.059562147E-1
3.657285100E1,8.191702962E-1,-1.596330523E0,3.864158988E-1
3.659285100E1,-1.676388681E-1,-1.505678058E0,1.608669907E-1
3.661285100E1,-1.182792187E0,2.190388143E-1,-3.912329972E-1
3.663285256E1,-5.792922378E-1,3.069109201E0,-7.240847349E-1
3.665485881E1,1.002988338E0,3.825500011E0,-4.193851650E-1
3.667685100E1,-1.647294044E0,6.609910727E-1,7.546280026E-1
3.669685100E1,-3.910130978E0,-4.774697125E-1,6.797184944E-1
3.671685100E1,-4.262547970E0,2.198032856E0,2.155830711E-1
3.673685100E1,-3.620039701E0,4.795553684E0,-3.353126645E-1
3.675685100E1,-2.556994677E0,4.996284008E0,-7.495490909E-1
3.677685100E1,-1.501297355E0,2.991494417E0,-3.037571013E-1
3.679685100E1,-1.902251840E0,-1.703284264E0,4.379205704E-1
3.681685569E1,-2.257321596E0,-3.131155491E0,2.898991853E-2
3.683885100E1,-1.290339351E0,-1.487247467E0,-2.224596590E-1
3.685885100E1,-6.419844627E-1,-3.073873818E-1,1.525766850E-1
3.687885100E1,-1.078857780E0,-4.975933582E-2,3.122219443E-1
3.689885100E1,-1.689112186E0,3.701843321E-1,2.718350291E-1
3.691885100E1,-1.622615099E0,1.372160435E0,7.208209950E-3
3.693885100E1,-1.579418302E0,1.380398393E0,-1.542522013E-1
3.695885100E1,-1.554250598E0,6.066764593E-1,-2.747322619E-1
3.697885256E1,-1.700875759E0,-2.888519764E-1,-4.606272876E-1
3.700085100E1,-1.199320436E0,-1.518959999E-1,-2.119353265E-1
3.702085100E1,-2.398431450E-1,9.321454167E-1,2.375393175E-2
3.704085100E1,3.193952441E-1,1.308595538E0,7.541567832E-2
3.706085100E1,5.818927884E-1,8.485441804E-1,2.651678622E-1
3.708085100E1,1.294964433E0,5.099677444E-1,3.364820182E-1
3.710085100E1,2.320868969E0,7.421838045E-1,5.943020582E-1
3.712085100E1,3.586529493E0,1.892809570E-1,5.657659173E-1
3.714085100E1,3.736941814E0,-5.387831330E-1,5.482602715E-1
3.716085100E1,3.003868818E0,-4.801575243E-1,6.310063601E-1
3.718085100E1,2.495454311E0,1.283340603E-1,5.280318856E-1
3.720085100E1,1.878567696E0,9.066461921E-1,4.172558486E-1
3.722085100E1,1.950981379E0,1.048768312E-1,2.803347707E-1
3.724085100E1,3.094660759E0,-1.567253351E0,3.356268257E-2
3.726085100E1,2.866528749E0,-1.727579236E0,-1.776919663E-1
3.728085100E1,2.628762484E0,-1.533725500E0,-1.642529368E-1
3.730085100E1,2.497478962E0,-1.145634174E0,1.934697479E-1
3.732085100E1,2.109788895E0,-1.100656986E0,5.926091075E-1
3.734085100E1,1.855319858E0,-2.366125345E0,5.896071196E-1
3.736085100E1,1.935203671E0,-3.484183311E0,1.623330712E-1
3.738085100E1,1.637834430E0,-3.703710794E0,-3.923500180E-1
3.740085100E1,9.816429615E-1,-3.102951050E0,-4.242895544E-1
3.742085100E1,7.948229462E-2,-2.221629620E0,-3.625048697E-2
3.744085100E1,-8.521046638E-1,-1.463318944E0,2.779436707E-1
3.746085100E1,-1.611602068E0,-7.906690836E-1,5.667607784E-1
3.748085100E1,-2.645029068E0,5.037369132E-1,1.015013695E0
3.750085100E1,-3.323176622E0,1.979116082E0,1.204835653E0
3.752085100E1,8.942368627E-1,2.076453209E0,2.447475195E-1
3.754085100E1,2.148098946E0,-1.559137464E0,-4.783947393E-2
3.756085100E1,9.302430153E-1,-2.037514925E0,8.419817090E-1
3.758085100E1,2.435956001E-1,-1.538280845E0,5.269323587E-1
3.760085100E1,-9.055989981E-1,-1.371479750E0,-1.070410460E-1
3.762085100E1,-2.342772961E0,1.719166756E0,-4.872610271E-1
3.764085100E1,-7.877543569E-1,4.742146969E0,-6.515488625E-1
3.766085100E1,1.087008476E0,3.031445026E0,6.272713095E-2
3.768085100E1,-1.959725499E0,1.329015851E0,9.881181717E-1
3.770085100E1,-3.304536581E0,2.079262972E0,5.496914387E-1
3.772085256E1,-3.703780651E0,3.958302021E0,-4.313930273E-1
3.774085256E1,-3.578378677E0,5.024139881E0,-8.189783096E-1
3.776085256E1,-2.806908369E0,4.723471642E0,-9.235584140E-1
3.778285256E1,-2.278824091E0,2.792055607E0,-5.035973191E-1
3.780485256E1,-2.185414076E0,-5.353273749E-1,-4.087560996E-2
3.782485256E1,-1.542818666E0,-2.213531256E0,-2.753605843E-1
3.784685256E1,-5.722411275E-1,-1.947420955E0,-5.480682850E-1
3.786885256E1,-6.375164390E-1,-1.783604264E0,-1.857030392E-2
3.788887131E1,-1.430349708E0,-1.169841886E0,3.881263137E-1
3.791085100E1,-1.848809838E0,7.303504944E-1,2.756921947E-1
3.793085100E1,-2.157418966E0,1.924417496E0,4.740314186E-2
3.795085100E1,-1.835580230E0,1.690665483E0,-3.143337965E-1
3.797085256E1,-1.255170941E0,9.846274853E-1,-5.042605400E-1
3.799285100E1,-4.726351500E-1,8.783020377E-1,-4.349884093E-1
3.801285100E1,4.188789986E-3,5.277352333E-1,-1.414065808E-1
3.803285100E1,2.715208828E-1,-1.158898603E-2,-1.696459949E-2
3.805285100E1,8.189957738E-1,-3.638662398E-1,2.277654596E-2
3.807285100E1,1.804286480E0,-6.159790754E-1,6.801547855E-2
3.809285100E1,2.713794947E0,-2.142391652E-1,2.009397596E-1
3.811285100E1,3.535653114E0,-1.096939445E-1,7.889237404E-1
3.813285256E1,3.545514107E0,-5.346466899E-1,7.600036263E-1
3.815485100E1,3.009488583E0,-8.083667159E-1,7.714180946E-1
3.817485256E1,2.497810602E0,-5.469163656E-1,8.616865277E-1
3.819485256E1,1.766273141E0,1.482308060E-1,6.903475523E-1
3.821485569E1,1.662845016E0,-1.676388681E-1,2.192482650E-1
3.823485881E1,2.577624321E0,-1.830204606E0,-3.367787302E-1
3.825486194E1,2.948873281E0,-1.976061821E0,3.944444004E-3
3.827685100E1,2.775911331E0,-2.134153605E0,-6.108652451E-4
3.829685100E1,2.505978584E0,-1.836452842E0,-3.141592606E-4
3.831685100E1,2.276432991E0,-2.317064285E0,1.984264851E-1
3.833685100E1,2.175133944E0,-3.226904392E0,-1.535889693E-3
3.835685100E1,2.092527628E0,-4.633971214E0,-5.968851447E-1
3.837685100E1,1.688379169E0,-4.166310310E0,-8.157843351E-1
3.839685100E1,7.686604261E-1,-2.364799023E0,-2.489188612E-1
3.841685100E1,-3.002839088E-1,-6.507111192E-1,2.448173314E-1
3.843685100E1,-1.242412567E0,3.117158115E-1,3.676536083E-1
3.845685100E1,-2.114099979E0,9.849416614E-1,4.700520635E-1
3.847685100E1,-3.195436001E0,2.016047239E0,8.427671194E-1
3.849685100E1,-3.113754749E0,2.132809877E0,1.211101413E0
3.851685100E1,9.842086434E-1,8.531343937E-1,2.506641746E-1
3.853689475E1,2.645081282E0,-1.601758480E0,-1.625425071E-1
3.855885100E1,7.983484864E-1,-1.274264932E0,4.905945957E-1
3.857885100E1,-4.754276946E-2,-5.355891585E-1,7.002261281E-2
3.859885100E1,-7.722034454E-1,-1.593939424E0,-7.691665739E-2
3.861885256E1,-1.457157969E0,6.792821288E-1,-2.682571113E-2
3.863885256E1,-1.310044080E-1,2.536609173E0,6.644468755E-2
3.866085100E1,9.536478668E-2,2.994670868E0,1.280722618E-1
3.868085100E1,-1.868183017E0,3.176691294E0,-1.524719596E-1
3.870085100E1,-3.248860598E0,1.803501010E0,-1.731890142E-1
3.872085256E1,-3.891019583E0,2.103139162E0,-6.186842918E-1
3.874285100E1,-3.689085007E0,3.028599977E0,-7.886618972E-1
3.876285100E1,-2.949920654E0,3.132482052E0,-4.037470222E-1
3.878285100E1,-2.029748201E0,1.567375422E0,4.405560195E-1
3.880285100E1,-1.957945228E0,-4.309043288E-1,4.183903337E-1
3.882285100E1,-1.860957265E0,-7.057762146E-1,2.039068192E-1
3.884285100E1,-1.454051256E0,-6.111270189E-1,3.337069452E-1
3.886285100E1,-1.005100250E0,-4.743455946E-1,2.813296318E-1
3.888285100E1,-1.206930041E0,-5.582435727E-1,2.327396572E-1
3.890285100E1,-1.538647413E0,-2.046747655E-1,2.634399831E-1
3.892285100E1,-1.479986787E0,4.954116940E-1,2.525491454E-2
3.894285100E1,-1.390346766E0,5.251172185E-1,-1.876578033E-1
3.896285100E1,-1.377326608E0,3.792425990E-1,-2.223200351E-1
3.898285100E1,-1.159387350E0,4.409574270E-1,-1.433089823E-1
3.900285100E1,-6.407452822E-1,8.114385009E-1,1.658062800E-3
3.902285100E1,-3.211929500E-1,9.407324791E-1,4.108504951E-2
3.904285100E1,4.424409568E-2,1.194800019E0,2.378883772E-2
3.906285100E1,5.283460617E-1,1.402511716E0,1.983043104E-1
3.908285100E1,9.465444088E-1,1.606261373E0,3.193254471E-1
3.910285100E1,1.787775636E0,1.669773936E0,4.146378636E-1
3.912285100E1,3.502404451E0,2.897595465E-1,4.209734201E-1
3.914285100E1,4.140217781E0,-6.911678314E-1,3.473030627E-1
3.916285100E1,3.402170181E0,-4.868595898E-1,5.292885303E-1
3.918285100E1,2.509783506E0,6.089104414E-1,7.177666426E-1
3.920285100E1,1.706897140E0,1.519658208E0,7.840716839E-1
3.922285100E1,1.985346913E0,-5.518032908E-1,1.366767287E-1
3.924285100E1,2.708349466E0,-2.454561234E0,-3.661700711E-2
3.926285100E1,2.659532785E0,-2.330852270E0,2.041511685E-1
3.928285100E1,2.369965076E0,-1.446057677E0,4.035724699E-1
3.930285100E1,2.211681128E0,-1.096939445E0,5.438795090E-1
3.932285100E1,2.179654360E0,-1.977074027E0,5.690994859E-1
3.934285100E1,2.202989578E0,-2.653284311E0,5.707401037E-1
3.936285100E1,2.229047298E0,-3.619760513E0,2.255488932E-1
3.938285100E1,1.730354309E0,-3.612168312E0,-2.541199327E-1
3.940285100E1,1.014158487E0,-2.911558151E0,-2.147453129E-1
3.942285100E1,3.600265086E-1,-2.130785227E0,2.016902417E-1
3.944285100E1,-3.874805570E-1,-1.079067230E0,5.421690941E-1
3.946285100E1,-1.066099405E0,-4.447447956E-1,7.612253428E-1
3.948285100E1,-1.651448011E0,2.240479141E-1,9.882926941E-1
3.950285100E1,-2.226900578E0,1.349855065E0,1.159928322E0
3.952285100E1,-2.653598547E0,8.294328451E-1,4.223871231E-1
3.954285100E1,1.630137488E-2,-7.647160292E-1,1.167276204E-1
3.956285100E1,9.039758444E-1,-1.552575111E0,4.247956872E-1
3.958285100E1,6.675884128E-1,-1.008398890E0,2.325302213E-1
3.960285100E1,5.890486389E-2,-7.567573190E-1,-3.617892861E-1
3.962285100E1,-1.956985354E0,1.350396156E0,-1.425585002E-1
3.964285256E1,-1.975503325E0,4.140043259E0,-4.014780819E-1
3.966486662E1,1.420715451E0,3.198961496E0,-1.935744733E-1
3.968685100E1,-5.517509580E-1,1.651674867E0,3.159045875E-1
3.970685100E1,-2.993361712E0,1.109436035E0,1.997529268E-1
3.972685100E1,-4.093460083E0,1.797724009E0,-3.179640770E-1
3.974685100E1,-4.013908386E0,3.578378677E0,-6.255434752E-1
3.976685100E1,-3.003676653E0,4.764242649E0,-6.694384813E-1
3.978685100E1,-1.610956311E0,4.546984196E0,-2.103296220E-1
3.980685256E1,-1.295819640E0,1.685412049E0,4.085815847E-1
3.982885100E1,-1.981542110E0,-4.734380245E-1,-1.333431527E-2
3.984885100E1,-1.792418242E0,-8.161159754E-1,-8.957029879E-2
3.986885100E1,-9.229126573E-1,-3.720518351E-1,-1.091179848E-1
3.988887131E1,-7.604573965E-1,-4.213922918E-1,-1.288576573E-1
3.991085100E1,-1.566048980E0,-6.115808487E-1,-1.474803239E-1
3.993085100E1,-1.797811270E0,6.845006943E-1,-2.607521974E-2
3.995085100E1,-1.577969670E0,1.834882140E0,3.394665569E-2
3.997085100E1,-1.486496925E0,1.360903025E0,-1.140572652E-1
3.999085100E1,-1.483547330E0,-1.382649839E-1,-4.555309415E-1
4.001085100E1,-1.378705382E0,-1.106503844E0,-6.365739107E-1
4.003085100E1,-9.151459336E-1,-3.808308542E-1,-4.604527652E-1
4.005085100E1,-4.404163957E-1,2.618168294E-1,-1.166927144E-1
4.007085100E1,3.270747140E-2,7.130542397E-1,1.175130159E-1
4.009085100E1,4.780107737E-1,1.247334480E0,3.069336116E-1
4.011085100E1,9.538224339E-1,1.366121531E0,3.307573497E-1
4.013085100E1,1.478747606E0,1.003197789E0,3.964689970E-1
4.015085100E1,3.345935822E0,6.230651140E-1,4.621108174E-1
4.017085100E1,3.962682724E0,-1.358215213E-1,4.540474117E-1
4.019085100E1,3.214058638E0,-9.500350952E-1,7.000515461E-1
4.021085100E1,2.473829746E0,-7.801621556E-1,8.424878716E-1
4.023085100E1,1.940806150E0,-1.392772701E-2,7.909483314E-1
4.025085256E1,1.936809301E0,-2.553940415E-1,5.101248026E-1
4.027285100E1,2.721282482E0,-1.448134542E0,6.630505621E-2
4.029285100E1,2.436915874E0,-1.291229486E0,-5.263913050E-2
4.031285100E1,2.545999050E0,-1.681607246E0,2.160194069E-1
4.033285100E1,2.579683781E0,-2.002276659E0,3.368485570E-1
4.035285100E1,2.503011465E0,-1.707944274E0,3.848800063E-1
4.037285100E1,2.271528482E0,-2.373647690E0,4.505043924E-1
4.039285100E1,2.130994558E0,-3.459818602E0,3.947760165E-1
4.041285100E1,1.964437842E0,-3.894649744E0,9.492845833E-2
4.043285100E1,1.530287266E0,-3.780365705E0,-2.635272741E-1
4.045285100E1,6.751980782E-1,-2.771006823E0,-2.462310493E-1
4.047285100E1,-3.120823205E-1,-1.667452693E0,8.347909898E-2
4.049285100E1,-1.082784772E0,-1.079189420E0,2.866877913E-1
4.051285100E1,-1.978138685E0,-6.165724397E-1,3.499908745E-1
4.053289163E1,-2.933933258E0,5.526061654E-1,4.994608760E-1
4.055485725E1,-1.932585597E0,1.177207112E0,-3.504621238E-2
4.057685413E1,1.923475027E0,-4.184950590E-1,-9.621651173E-1
4.059885100E1,1.218728542E0,-1.786990285E0,3.457148075E-1
4.061885100E1,1.872912794E-1,-7.506312132E-1,6.672044396E-1
4.063885100E1,-6.186668873E-1,-9.716771245E-1,4.298920333E-1
4.065885100E1,-1.992851853E0,7.841415405E-1,3.122917712E-1
4.067885100E1,-1.666126251E0,3.061150312E0,-3.168121576E-1
4.069885100E1,8.251916766E-1,4.164338112E0,-7.431088090E-1
4.071885256E1,3.645120263E-1,8.805534840E-1,-9.042550623E-2
4.073885256E1,-1.907644868E0,-1.714611501E-1,1.494350880E-1
4.076085100E1,-3.483048916E0,-9.494591504E-3,-3.229033649E-1
4.078085100E1,-3.840771437E0,1.373242497E0,-4.043578804E-1
4.080086350E1,-3.341031313E0,2.116316319E0,5.249950290E-2
4.082285100E1,-2.667159796E0,1.468572378E0,7.694807649E-1
4.084285100E1,-1.911467195E0,5.178217292E-1,7.735473514E-1
4.086285100E1,-1.329626679E0,-5.028817058E-1,3.894876838E-1
4.088285100E1,-1.370327830E0,-2.298493862E0,3.051708043E-1
4.090285100E1,-1.173699021E0,-1.795158386E0,1.962797344E-1
4.092285100E1,-1.186370134E0,-6.240250468E-1,1.994387656E-1
4.094285100E1,-1.384936213E0,4.749040902E-1,2.688679695E-1
4.096285100E1,-1.349052191E0,8.571486473E-1,5.023057386E-2
4.098285100E1,-1.380066752E0,6.556853056E-1,-8.456119895E-2
4.100285100E1,-1.429878473E0,5.385736823E-1,-1.141096279E-1
4.102285100E1,-1.317898154E0,4.606971145E-1,6.185446680E-2
4.104285100E1,-9.628632665E-1,5.822942257E-1,2.818706632E-1
4.106285100E1,-5.360080600E-1,6.074094772E-1,2.014459074E-1
4.108285100E1,-1.120152324E-1,7.409446239E-1,-9.602801502E-2
4.110285100E1,3.387683928E-1,1.307757735E0,-5.127777159E-2
4.112285100E1,5.559746027E-1,1.313656926E0,1.312313080E-1
4.114285100E1,9.861983061E-1,1.264648080E0,2.356543541E-1
4.116285100E1,2.588515282E0,7.187091112E-1,5.072275996E-1
4.118285100E1,4.007083893E0,-3.675663471E-1,6.220353246E-1
4.120285100E1,3.632693291E0,-8.265006542E-1,8.535358310E-1
