"Time (s)","Linear Acceleration x (m/s^2)","Linear Acceleration y (m/s^2)","Linear Acceleration z (m/s^2)"
1.200000000E-2,4.590999782E-1,-1.206000000E-1,4.493999779E-1
3.200000000E-2,4.928999841E-1,-2.919999957E-1,1.452499986E0
5.200156300E-2,4.729999900E-1,-6.136999726E-1,1.892199993E0
7.200156300E-2,2.160999924E-1,-7.091000080E-1,3.552699804E0
1.020000000E-1,-2.212999910E-1,-1.585399985E0,3.052399874E0
1.220015630E-1,4.237999916E-1,-2.151099920E0,2.381399870E0
1.420015630E-1,7.135999799E-1,-2.643199921E0,3.486999989E0
1.620015630E-1,3.603999913E-1,-2.677799940E0,3.875199795E0
1.820015630E-1,1.305999905E-1,-2.007799864E0,2.243599892E0
2.020015630E-1,-1.784999967E-1,-1.580500007E0,-3.479999900E-1
2.220015630E-1,3.598999977E-1,-1.222000003E0,-9.343000054E-1
2.420312500E-1,5.551999807E-1,-1.270299911E0,-1.603799939E0
2.720000000E-1,-1.834999919E-1,-1.463299990E0,-3.087199926E0
2.920000000E-1,2.812999785E-1,-1.393700004E0,-1.364599943E0
3.120000000E-1,2.475999892E-1,-9.914999604E-1,-3.096999824E-1
3.320000000E-1,-1.270000041E-1,-5.225999951E-1,-6.108999848E-1
3.520000000E-1,2.304999977E-1,-3.296999931E-1,-1.417400002E0
3.720000000E-1,8.447999954E-1,2.719999850E-1,-7.538999915E-1
3.920000000E-1,4.775999784E-1,6.676999927E-1,-7.192999721E-1
4.120000000E-1,3.504999876E-1,5.647999644E-1,-1.771600008E0
4.320000000E-1,5.618999600E-1,3.718999922E-1,-1.591799974E0
4.520000000E-1,6.645999551E-1,6.017000079E-1,-1.040099978E0
4.720000000E-1,2.137999982E-1,5.048999786E-1,-1.363299966E0
4.920000000E-1,3.134000003E-1,3.118000031E-1,-1.339100003E0
5.120000000E-1,4.518999755E-1,4.063999951E-1,-9.506999850E-1
5.320000000E-1,1.126500010E0,-5.972999930E-1,-1.891999990E-1
5.520000000E-1,1.255999923E0,-1.003899932E0,5.397999883E-1
5.720000000E-1,1.116899967E0,-6.151999831E-1,7.044999599E-1
5.920015630E-1,5.963999629E-1,-2.470999956E-1,1.604000032E-1
6.120406250E-1,-2.766000032E-1,3.039999865E-2,1.310599923E0
6.420000000E-1,-8.526999950E-1,-9.860000014E-2,2.700399876E0
6.620000000E-1,-1.307899952E0,-2.942000031E-1,2.709899902E0
6.820000000E-1,-7.069000006E-1,-9.862999916E-1,1.928499937E0
7.020015630E-1,-6.499999762E-1,-1.118999958E0,1.448499918E0
7.320015630E-1,1.225999966E-1,-5.408999920E-1,1.179799914E0
7.620015630E-1,-4.052999914E-1,4.765999913E-1,1.321599960E0
7.920000000E-1,-8.367999792E-1,1.438999921E-1,-5.499999970E-2
8.120000000E-1,-2.120999992E-1,4.640999734E-1,-1.141700029E0
8.320000000E-1,-5.686999559E-1,1.575099945E0,-1.983999968E0
8.520000000E-1,2.955999970E-1,1.259999990E0,-1.840699911E0
8.720000000E-1,7.759999633E-1,7.763999701E-1,-1.584299922E0
8.920000000E-1,-3.959999979E-1,1.333899975E0,-1.254299998E0
9.120000000E-1,3.170999885E-1,8.291999698E-1,-1.470199943E0
9.320000000E-1,1.083500028E0,3.488999903E-1,-1.279600024E0
9.520000000E-1,-4.444999993E-1,9.712999463E-1,-1.120399952E0
9.720000000E-1,-1.346400023E0,9.536999464E-1,-8.240000010E-1
9.920000000E-1,-6.703999639E-1,1.872999966E-1,-3.231000006E-1
1.012000000E0,-1.067999959E0,7.750999928E-1,5.972999930E-1
1.032000000E0,-1.452999949E0,1.145299911E0,1.376799941E0
1.052000000E0,-5.688999891E-1,1.053499937E0,9.727999568E-1
1.081998438E0,-1.828099966E0,3.456999958E-1,9.293999672E-1
1.102000000E0,-1.456399918E0,4.537999928E-1,3.748999834E-1
1.122000000E0,-1.184000015E0,1.036999971E-1,1.492100000E0
1.142000000E0,-2.045699835E0,-6.482999921E-1,1.018899918E0
1.162000000E0,-1.248600006E0,-1.259799957E0,1.778199911E0
1.182000000E0,-1.519899964E0,-9.727999568E-1,7.822999954E-1
1.202000000E0,-7.146999836E-1,-6.164000034E-1,4.389999807E-2
1.222000000E0,-7.148000002E-1,-1.208500028E0,-9.109999985E-2
1.242000000E0,2.740700006E0,-2.405499935E0,-7.213000059E-1
1.262000000E0,9.890999794E-1,3.421999812E-1,1.013100028E0
1.282000000E0,-1.803999990E-1,-3.689000010E-1,1.067199945E0
1.302000000E0,2.056699991E0,-1.999899983E0,1.224300027E0
1.322000000E0,4.425099850E0,-1.220899940E0,3.012999892E-1
1.342000000E0,3.804499865E0,-9.111999869E-1,-7.253999710E-1
1.362000000E0,2.980799913E0,3.543999791E-1,1.234399915E0
1.382000000E0,2.425299883E0,1.481199980E0,2.448699951E0
1.402000000E0,2.959599972E0,2.789099932E0,4.424799919E0
1.422000000E0,1.438099980E0,1.194999933E0,1.439399958E0
1.442000000E0,4.088999748E0,7.315999866E-1,-2.661599874E0
1.462000000E0,3.656499863E0,-8.217999935E-1,-1.194000006E0
1.482001563E0,3.634599924E0,-3.587099791E0,-1.340999901E-1
1.512000000E0,2.803200006E0,-2.063600063E0,-3.190999925E-1
1.532004688E0,2.159499884E0,-1.848799944E0,2.961199999E0
1.562000000E0,2.539700031E0,-3.951900005E0,2.358299971E0
1.582000000E0,1.874499917E0,-3.429199934E0,1.832899928E0
1.602000000E0,1.409000009E-1,-2.804899931E0,2.325799942E0
1.622000000E0,7.703999877E-1,-1.177500010E0,3.356799841E0
1.642001563E0,1.695699930E0,-2.620299816E0,2.410199881E0
1.672000000E0,-6.363999844E-1,-3.290799856E0,9.640000015E-2
1.692001563E0,-1.866400003E0,-1.044099927E0,-3.086999953E-1
1.712001563E0,4.378999770E-1,-3.443199873E0,-1.230999976E-1
1.732001563E0,2.149099827E0,-5.276199818E0,-6.947000027E-1
1.762001563E0,-1.581299901E0,-2.141199827E0,-4.921999872E-1
1.792000000E0,-2.394199848E0,-1.135699987E0,-7.542999983E-1
1.812000000E0,-2.178299904E0,-1.639599919E0,7.570999861E-1
1.832000000E0,-2.516700029E0,-2.336999923E-1,1.318999976E-1
1.852000000E0,-3.619199991E0,8.359999657E-1,-2.611999810E-1
1.872000000E0,-4.563399792E0,2.035399914E0,-1.513499975E0
1.892000000E0,-3.433300018E0,2.789399862E0,-1.553499937E0
1.912000000E0,-3.879499912E0,9.569000006E-1,-1.596599936E0
1.932000000E0,-5.061100006E0,9.982999563E-1,-1.805799961E0
1.952000000E0,-4.675899982E0,1.147699952E0,-9.910000116E-2
1.972000000E0,-3.004799843E0,7.694999576E-1,7.195000052E-1
1.992000000E0,-2.859299898E0,9.530999660E-1,7.260999680E-1
2.012000000E0,-3.082999945E0,1.033100009E0,7.401999831E-1
2.032000000E0,-5.402899742E0,2.008000016E-1,1.914399981E0
2.052000000E0,-8.390799522E0,-1.616299987E0,1.580899954E0
2.072000000E0,-8.150300026E0,-3.363600016E0,-3.121999800E-1
2.092000000E0,-4.818299770E0,-4.410900116E0,-2.104500055E0
2.112000000E0,-3.243499994E0,-5.289000034E0,-4.133999825E0
2.132000000E0,-2.473700047E0,-6.552999973E0,-3.345899820E0
2.152000000E0,-1.925799966E0,1.219999976E-2,3.591599941E0
2.172001563E0,7.093999982E-1,4.934899807E0,1.406799984E1
2.192001563E0,7.705999851E0,-9.119999409E-2,9.336899757E0
2.222001563E0,5.526400089E0,-8.719799995E0,-2.075999975E0
2.242001563E0,-1.642799973E0,-9.215399742E0,-4.117799759E0
2.272000000E0,-2.565099955E0,-1.447099924E0,-9.229999781E-1
2.292000000E0,-2.667999864E-1,-2.297299862E0,4.300600052E0
2.312000000E0,-2.612200022E0,-2.667099953E0,5.695999861E-1
2.332000000E0,-3.016999960E-1,-8.929999918E-2,4.962999821E-1
2.352000000E0,-2.408999950E-1,4.961699963E0,3.380699873E0
2.372000000E0,-2.158400059E0,3.324499846E0,2.340199947E0
2.392000000E0,-6.849400043E0,-1.709800005E0,-1.204249954E1
2.412000000E0,1.582700014E0,2.067999840E0,-3.431499958E0
2.432001563E0,-3.203899860E0,6.964499950E0,4.957999885E-1
2.462000000E0,7.899099827E0,6.281099796E0,3.206599951E0
2.482000000E0,6.617099762E0,6.612299919E0,4.779900074E0
2.502000000E0,3.125699997E0,8.346099854E0,3.630199909E0
2.522000000E0,-3.112200022E0,9.495299339E0,-1.591099977E0
2.542000000E0,-1.236799955E0,2.820099831E0,-3.299700022E0
2.562000000E0,-1.299099922E0,-1.427299976E0,-1.880100012E0
2.582000000E0,-4.769999981E-1,-4.202999771E-1,1.630800009E0
2.602000000E0,-2.058799982E0,1.578199983E0,2.206300020E0
2.622000000E0,-3.536299944E0,2.582399845E0,7.712999582E-1
2.642000000E0,-3.104399920E0,2.893299818E0,-9.144999981E-1
2.662000000E0,2.038100004E0,2.245100021E0,-1.999000013E-1
2.682000000E0,3.717899799E0,1.619199991E0,2.622999847E-1
2.702000000E0,3.260299921E0,1.959199905E0,1.490999937E0
2.722000000E0,1.523599982E0,1.834499955E0,4.178999960E-1
2.742000000E0,1.528399944E0,6.029999852E-1,1.499899983E0
2.762000000E0,3.683999777E-1,-9.177999496E-1,2.898900032E0
2.782000000E0,-7.418699741E0,2.502300024E0,2.498600006E0
2.802000000E0,-1.154179955E1,2.832299948E0,4.216300011E0
2.822000000E0,-9.142600060E0,-8.277999759E-1,3.459599972E0
2.842000000E0,-5.814399719E0,-5.035399914E0,1.714499950E0
2.862000000E0,-3.253799915E0,-5.993599892E0,-6.832999587E-1
2.882000000E0,-1.166899920E0,-2.454699993E0,-8.985999823E-1
2.902000000E0,-1.563899994E0,6.513000131E-1,-2.207499981E0
2.922000000E0,1.427799940E0,-5.544399738E0,-1.442099929E0
2.942000000E0,6.951999664E-1,-2.468400002E0,-4.737799644E0
2.962000000E0,1.075600028E0,1.753899932E0,-6.068999767E0
2.982000000E0,1.072600007E0,1.541700006E0,-4.861700058E0
3.002000000E0,1.037589931E1,-2.735599995E0,-9.844999313E0
3.022000000E0,1.221840000E1,-7.491699696E0,-4.577300072E0
3.042000000E0,1.174779987E1,-5.804399967E0,3.182999790E-1
3.062000000E0,9.447199821E0,-3.280200005E0,3.109899998E0
3.082000000E0,1.197999939E-1,-3.251000047E-1,1.203699946E0
3.102000000E0,-7.786899567E0,-2.827699900E0,2.836499929E0
3.122000000E0,-9.004099846E0,-2.492399931E0,3.947099924E0
3.142000000E0,-6.955999851E0,3.959199905E0,1.125619984E1
3.162000000E0,-2.575099945E0,2.252199888E0,1.090849972E1
3.182000000E0,3.331999779E-1,-2.035300016E0,3.461399794E0
3.202009375E0,-1.025599957E0,-2.494599819E0,-2.702499866E0
3.232000000E0,-6.126399994E0,-2.321599960E0,-7.256499767E0
3.252000000E0,-1.550099969E0,-2.434399843E0,-2.900499821E0
3.272000000E0,2.635499954E0,-3.770200014E0,-6.316999793E-1
3.292000000E0,1.040699959E0,-4.348199844E0,-2.577899933E0
3.312000000E0,-2.367599964E0,-1.384199977E0,-4.962399960E0
3.332001563E0,-2.678999901E-1,-1.215999946E-1,-5.151999950E0
3.362000000E0,2.394899845E0,3.079999983E-2,-1.133800030E0
3.382000000E0,2.381199837E0,1.641399980E0,2.609699965E0
3.402001563E0,1.124899983E0,3.943799973E0,-7.098000050E-1
3.432000000E0,2.010099888E0,3.352900028E0,-3.697199821E0
3.452000000E0,1.780599952E0,2.153800011E0,-1.072700024E0
3.472001563E0,1.166100025E0,1.276700020E0,-1.231999993E-1
3.502000000E0,-7.365999818E-1,1.656099916E0,9.311999679E-1
3.522000000E0,-8.287000060E-1,8.217999935E-1,5.248000026E-1
3.542000000E0,-1.366400003E0,6.328999996E-1,6.414999962E-1
3.562000000E0,-2.949999809E0,1.537799954E0,1.186200023E0
3.582000000E0,-2.419999838E0,1.670300007E0,2.309799910E0
3.602000000E0,-1.831999898E0,1.312999964E0,2.678200006E0
3.622000000E0,-2.696399927E0,6.529999524E-2,3.652199984E0
3.642000000E0,-4.138899803E0,-3.741999865E-1,3.286899805E0
3.662000000E0,-4.011899948E0,1.070999950E-1,3.284899950E0
3.682000000E0,-2.830799818E0,8.070999980E-1,4.023999691E0
3.702001563E0,-3.752099991E0,9.879999757E-1,3.174999952E0
3.732000000E0,-4.216199875E0,8.959999681E-2,2.111399889E0
3.752000000E0,-5.091099739E0,1.889999956E-1,6.710999608E-1
3.772000000E0,-4.045599937E0,7.371999621E-1,7.470999956E-1
3.792000000E0,-4.252999783E0,1.370000005E0,-1.138800025E0
3.812000000E0,-2.694900036E0,6.509000063E-1,-5.432699680E0
3.832001563E0,-1.034799933E0,-1.024799943E0,-5.107899666E0
3.852001563E0,1.105399966E0,-2.685899973E0,-2.464900017E0
3.882000000E0,1.875000000E0,-2.124599934E0,-3.895999789E-1
3.902001563E0,2.436300039E0,-1.313699961E0,1.520200014E0
3.932000000E0,2.164599895E0,-2.443199873E0,2.154599905E0
3.952000000E0,2.161399841E0,-3.335999966E0,-9.107999802E-1
3.972000000E0,1.062999964E0,-7.634999752E-1,-4.701399803E0
3.992000000E0,1.425199986E0,2.182699919E0,-4.037199974E0
4.012000000E0,4.413499832E0,1.986499906E0,-3.918999910E0
4.032000000E0,6.381199837E0,1.094399929E0,-4.883299828E0
4.052000000E0,5.530600071E0,6.710999608E-1,-5.177899837E0
4.072000000E0,3.468699932E0,2.498800039E0,-3.371299982E0
4.092000000E0,2.535899878E0,2.962999821E0,-5.717999935E-1
4.112000000E0,1.456699967E0,2.644199848E0,1.629999995E0
4.132000000E0,-1.586999893E-1,7.111999989E-1,6.361899853E0
4.152000000E0,-2.564699888E0,-2.922699928E0,8.415100098E0
4.172000000E0,-6.518799782E0,-4.427299976E0,9.791500092E0
4.192001563E0,-7.156899929E0,-4.640999734E-1,2.997599840E0
4.222000000E0,-2.707099915E0,-2.639999986E-1,2.266599894E0
4.242001563E0,-1.950499892E0,-3.336299896E0,-4.071399689E0
4.262001563E0,7.069999725E-2,-3.993699789E0,-8.384599686E0
4.292001563E0,2.020799875E0,-4.069699764E0,-2.220499992E0
4.312001563E0,4.709300041E0,-5.800600052E0,-4.748999774E-1
4.332001563E0,4.779099941E0,-1.016700029E0,-9.406999946E-1
4.362000000E0,-5.719999969E-2,-6.028000116E-1,-3.111699820E0
4.382000000E0,-1.030000020E-2,-5.956999660E-1,-4.591799736E0
4.402001563E0,1.867000014E-1,1.072600007E0,-4.376999855E0
4.432000000E0,3.149199963E0,2.582999945E0,-2.796900034E0
4.452000000E0,3.482800007E0,2.277600050E0,-9.770999551E-1
4.472000000E0,3.105099916E0,7.664999962E-1,3.985999823E-1
4.492000000E0,1.296399951E0,6.103999615E-1,9.199000001E-1
4.512000000E0,2.199999988E-1,5.374000072E-1,7.983999848E-1
4.532000000E0,-7.803999782E-1,1.457399964E0,1.082399964E0
4.552000000E0,-2.027499914E0,1.773799896E0,3.143499851E0
4.572000000E0,-2.964200020E0,1.784799933E0,3.585999966E0
4.592000000E0,-2.347699881E0,2.549000025E0,2.147899866E0
4.612000000E0,-1.631099939E0,7.477999926E-1,1.978199959E0
4.632000000E0,-2.374500036E0,4.356999993E-1,2.861799955E0
4.652000000E0,-3.274799824E0,9.690000117E-2,4.429199696E0
4.672000000E0,-3.405299902E0,1.216999963E-1,4.640100002E0
4.692000000E0,-4.016699791E0,-7.939999700E-1,2.433899879E0
4.712001563E0,-2.892899990E0,-1.439000010E0,3.178599834E0
4.742000000E0,-4.396800041E0,-9.623999596E-1,2.505699873E0
4.762000000E0,-3.180799961E0,-4.395999908E-1,2.249099970E0
4.782000000E0,-2.591300011E0,5.889999866E-2,5.446999669E-1
4.802000000E0,-1.931800008E0,2.327999920E-1,-1.758999974E-1
4.822000000E0,-2.337299824E0,-2.228999883E-1,-1.696799994E0
4.842000000E0,-2.017499924E0,-1.419199944E0,-3.200599909E0
4.862001563E0,-9.691999555E-1,-2.261100054E0,-3.059199810E0
4.892000000E0,-2.648299932E0,-6.595999718E0,1.238189983E1
4.912000000E0,-3.139999807E-1,-7.735999584E0,-8.005999923E-1
4.932000000E0,1.941499949E0,-1.332599998E0,-4.017300129E0
4.952000000E0,1.993599892E0,1.324299932E0,-3.006000042E0
4.972001563E0,1.886299968E0,2.645099878E0,-4.002999783E0
5.002000000E0,2.184900045E0,3.309999943E0,-4.983599663E0
5.022000000E0,2.924399853E0,3.474900007E0,-7.054699898E0
5.042000000E0,3.968499899E0,3.045599937E0,-9.509699821E0
5.062000000E0,4.400300026E0,3.582099915E0,-8.352600098E0
5.082000000E0,3.870299816E0,3.224900007E0,-5.264999866E0
5.102000000E0,3.523399830E0,2.059900045E0,-7.629999518E-1
5.122000000E0,8.034999967E-1,2.385599852E0,4.076200008E0
5.142000000E0,-1.639799953E0,5.654000044E-1,4.251299858E0
5.162000000E0,-9.533999562E-1,-5.471999645E0,1.117519951E1
5.182000000E0,-4.905900002E0,-6.065700054E0,1.702350044E1
5.202000000E0,-4.388499737E0,-2.760200024E0,4.630499840E0
5.222000000E0,-1.177899957E0,-3.819199800E0,1.082700014E0
5.242000000E0,-3.326999843E-1,-2.565399885E0,3.502999842E-1
5.262001563E0,-9.451999664E-1,-2.806699991E0,-5.170000076E0
5.292000000E0,2.504000068E-1,-1.985999942E0,-8.173500061E0
5.312000000E0,1.451499939E0,1.339999959E-2,-4.858999729E0
5.332000000E0,2.106799841E0,1.986099958E0,-3.836199999E0
5.352000000E0,2.289299965E0,2.344599962E0,-4.524799824E0
5.372000000E0,3.057000041E-1,1.366400003E0,-5.503299713E0
5.392000000E0,-1.009199977E0,1.158299923E0,-3.873699903E0
5.412000000E0,-7.901999950E-1,3.253599882E0,-3.171499968E0
5.432000000E0,1.950000040E-2,5.419600010E0,-3.106400013E0
5.452000000E0,3.448999822E-1,4.895999908E0,-2.621799946E0
5.472000000E0,8.377999663E-1,3.875099897E0,-2.299299955E0
5.492000000E0,1.347800016E0,4.441100121E0,-3.044199944E0
5.512000000E0,1.447999954E0,4.369299889E0,-1.691599965E0
5.532000000E0,1.065999985E0,3.070600033E0,6.369000077E-1
5.552000000E0,1.814099908E0,1.925399899E0,4.926699638E0
5.572000000E0,-1.235099912E0,-5.889499664E0,4.751399994E0
5.592000000E0,-7.838000059E-1,-4.014499664E0,3.320099831E0
5.612000000E0,-2.389999852E-2,-1.304689980E1,2.243000031E0
5.632000000E0,-2.819000006E0,-1.164509964E1,1.882799983E0
5.652000000E0,-4.516999722E0,-2.080800056E0,5.135099888E0
5.672000000E0,-2.176499844E0,-9.420000017E-2,9.104499817E0
5.692000000E0,-4.852999747E-1,-4.127299786E0,4.180099964E0
5.712000000E0,-1.792099953E0,-2.739799976E0,1.837999940E0
5.732000000E0,-2.456000000E-1,-3.560999870E0,6.279099941E0
5.752000000E0,-1.736999899E-1,-3.909499884E0,1.218239975E1
5.772000000E0,-4.522999823E-1,-2.066699982E0,1.268029976E1
5.792000000E0,6.611999869E-1,-4.037499905E0,9.090999961E-1
5.812000000E0,-1.004799962E0,-5.472499847E0,-8.780099869E0
5.832000000E0,-5.051999688E-1,-7.634899616E0,-6.857100010E0
5.852000000E0,-5.311999917E-1,-6.203799725E0,-4.266399860E0
5.872000000E0,-1.885999888E-1,-4.739699841E0,-1.005999923E0
5.892000000E0,2.640699863E0,-5.546000004E0,8.130000114E0
5.912000000E0,1.193400025E0,-2.215600014E0,-1.475099921E0
5.932000000E0,-1.089599967E0,7.915999889E-1,-4.835199833E0
5.952000000E0,-1.533100009E0,1.832899928E0,-5.550499916E0
5.972000000E0,7.996000051E-1,3.226899862E0,-5.899299622E0
5.992000000E0,7.062000036E-1,4.247699738E0,-4.346099854E0
6.012000000E0,-2.430999875E-1,4.090899944E0,-6.675199986E0
6.032000000E0,-1.579100013E0,5.118999958E0,-7.245199680E0
6.052000000E0,-1.780399919E0,5.469799995E0,-8.168000221E0
6.072000000E0,-1.277599931E0,5.742899895E0,-8.663000107E0
6.092001563E0,-1.474999905E0,6.310899734E0,-7.390199661E0
6.122000000E0,-1.611599922E0,6.541899681E0,-3.053400040E0
6.142000000E0,-9.617999792E-1,4.913099766E0,8.222000003E-1
6.162000000E0,1.086699963E0,-4.165000021E-1,6.730399609E0
6.182000000E0,4.524300098E0,-9.390899658E0,1.575269985E1
6.202000000E0,3.851599932E0,-1.463439941E1,1.600919914E1
6.222000000E0,4.332999885E-1,-4.418299675E0,1.945199966E0
6.242000000E0,1.824999928E0,3.319000006E-1,-1.498000026E-1
6.262000000E0,2.366199970E0,-1.438899994E0,-3.025099993E0
6.282000000E0,3.011799812E0,-6.114199638E0,-1.381459999E1
6.302000000E0,1.961999893E0,-4.190099716E0,-3.381199837E0
6.322000000E0,4.027999938E-1,3.555399895E0,-3.880499840E0
6.342000000E0,-4.183999896E-1,5.389400005E0,-1.283169937E1
6.362000000E0,1.413999945E-1,1.074599981E0,-9.513299942E0
6.382000000E0,1.020999998E-1,-2.781399965E0,-7.582799911E0
6.402000000E0,-1.971099973E0,-2.386399984E0,-3.138399839E0
6.422001563E0,-3.504299879E0,-1.759899974E0,5.042999983E-1
6.452000000E0,-4.743400097E0,6.143000126E-1,4.656799793E0
6.472000000E0,-2.603299856E0,4.842000008E-1,2.432899952E0
6.492000000E0,-1.303200006E0,1.159999967E0,1.021700025E0
6.512000000E0,-2.346600056E0,2.577800035E0,1.479799986E0
6.532000000E0,-1.684799910E0,1.932299972E0,9.926999807E-1
6.552000000E0,-3.114999831E-1,1.289399981E0,1.667400002E0
6.572000000E0,-1.099999994E-3,7.754999995E-1,1.584100008E0
6.592000000E0,-1.601999998E-1,5.651000142E-1,1.603299975E0
6.612000000E0,-3.032000065E-1,7.482999563E-1,2.536200047E0
6.632001563E0,-5.135999918E-1,-1.334399939E0,3.071499825E0
6.662000000E0,-6.511999965E-1,-3.981899977E0,6.544799805E0
6.682000000E0,-5.613999963E-1,-4.018799782E0,8.446199417E0
6.702000000E0,-1.685999990E0,-3.024199963E0,5.995699883E0
6.722000000E0,-2.564299822E0,-3.269199848E0,3.026499987E0
6.742000000E0,-2.039200068E0,-3.009299994E0,5.052299976E0
6.762000000E0,-1.441299915E0,-4.282799721E0,9.677899361E0
6.782000000E0,-5.295999646E-1,-2.398099899E0,1.194189930E1
6.802000000E0,-6.775000095E-1,-3.224099874E0,3.408499956E0
6.822000000E0,-1.513000011E0,-5.887700081E0,-6.542899609E0
6.842000000E0,-4.407999814E-1,-1.003870010E1,-4.581900120E0
6.862000000E0,5.791999698E-1,-1.066569996E1,-5.356199741E0
6.882000000E0,1.404599905E0,-8.011400223E0,-5.870800018E0
6.902000000E0,2.066499949E0,-5.581899643E0,6.065000057E0
6.922000000E0,1.802399993E0,-3.336699963E0,2.516399860E0
6.942000000E0,4.256999791E-1,-7.066000104E-1,-2.699499846E0
6.962000000E0,2.165299892E0,2.238899946E0,-6.303899765E0
6.982000000E0,1.589699984E0,6.533199787E0,-7.450399876E0
7.002000000E0,5.599999800E-2,7.743499756E0,-8.734399796E0
7.022000000E0,-1.326099992E0,6.387399673E0,-6.966699600E0
7.042000000E0,-1.118700027E0,4.333099842E0,-6.143399715E0
7.062000000E0,-5.026999712E-1,4.866699696E0,-6.763899803E0
7.082000000E0,-1.248899937E0,5.462699890E0,-1.107429981E1
7.102001563E0,-2.484799862E0,7.249899864E0,-1.123569965E1
7.132001563E0,-2.922299862E0,6.581599712E0,-2.266000032E0
7.162000000E0,-1.253899932E0,2.723000050E-1,6.396499634E0
7.182000000E0,1.413699985E0,-7.474799633E0,1.702929878E1
7.202000000E0,2.890899897E0,-1.563779926E1,1.891740036E1
7.222000000E0,6.403999925E-1,-1.152680016E1,3.415499926E0
7.242000000E0,1.237499952E0,-1.167999983E0,1.741699934E0
7.262001563E0,1.644799948E0,1.440899968E0,-7.832299709E0
7.292000000E0,2.901799917E0,1.305999905E-1,-1.339009953E1
7.312000000E0,4.264699936E0,-1.723699927E0,-4.937599659E0
7.332000000E0,4.730999947E0,-1.793999970E-1,2.295199871E0
7.352000000E0,1.866699934E0,2.423599958E0,-6.728699684E0
7.372000000E0,-2.326799870E0,-1.106099963E0,-9.696299553E0
7.392000000E0,-3.467499971E0,-2.092799902E0,-8.484199524E0
7.412000000E0,-4.069999695E0,-1.732599974E0,-5.058700085E0
7.432000000E0,-4.316999912E0,-5.726999640E-1,-1.926099896E0
7.452000000E0,-4.034899712E0,6.887999773E-1,2.240999937E-1
7.472000000E0,-2.862699986E0,2.366600037E0,3.139899969E0
7.492000000E0,-7.206000090E-1,3.012799978E0,5.570799828E0
7.512001563E0,-2.630999982E-1,1.292899966E0,2.777499914E0
7.542000000E0,-1.138000011E0,-3.500000015E-2,1.800999939E-1
7.562000000E0,-4.778999984E-1,1.246299982E0,2.071199894E0
7.582000000E0,1.049499989E0,7.903999686E-1,3.707599878E0
7.602000000E0,-3.419999778E-2,-2.624999881E-1,1.299600005E0
7.622000000E0,-1.398800015E0,-9.794999957E-1,1.243099928E0
7.642000000E0,-1.778100014E0,-2.224999905E0,2.371399879E0
7.662000000E0,-2.687399864E0,-3.374499798E0,6.660099983E0
7.682000000E0,-2.856400013E0,-3.635699987E0,1.084019947E1
7.702000000E0,-2.754400015E0,-3.803399801E0,6.299200058E0
7.722000000E0,-3.710500002E0,-3.969999790E0,3.563999891E0
7.742000000E0,-3.268199921E0,-3.190099955E0,6.785699844E0
7.762001563E0,-3.710099936E0,-5.042500019E0,9.585700035E0
7.792000000E0,-3.488299847E0,-3.172499895E0,1.109789944E1
7.812000000E0,-1.866099954E0,-4.870100021E0,-4.223999977E-1
7.832000000E0,-1.537499905E0,-8.321299553E0,-6.451200008E0
7.852000000E0,-3.551999927E-1,-9.870800018E0,-5.959899902E0
7.872001563E0,6.148999929E-1,-8.908800125E0,-5.979300022E0
7.892001563E0,3.526499987E0,-8.145099640E0,4.171700001E0
7.922000000E0,1.677299976E0,-3.072199821E0,-3.326999843E-1
7.942000000E0,-2.330999970E-1,-1.220600009E0,-4.341300011E0
7.962000000E0,4.684999883E-1,-1.502999961E-1,-6.343999863E0
7.982000000E0,1.516499996E0,2.097300053E0,-6.919499874E0
8.002000000E0,-2.569999993E-1,4.846399784E0,-6.901199818E0
8.022000000E0,-2.136499882E0,5.710499763E0,-7.734099865E0
8.042000000E0,-3.749499798E0,5.343999863E0,-1.008230019E1
8.062000000E0,-1.492100000E0,5.809899807E0,-1.140149975E1
8.082000000E0,-4.012999833E-1,5.901400089E0,-9.906599998E0
8.102000000E0,-4.346999824E-1,6.310100079E0,-1.089229965E1
8.122000000E0,-5.602999926E-1,8.836899757E0,-1.020889950E1
8.142000000E0,-1.578400016E0,6.969799995E0,-5.727699757E0
8.162001563E0,-1.400699973E0,2.820600033E0,-2.447999865E-1
8.192000000E0,9.262499809E0,-1.635050011E1,3.626089859E1
8.212000000E0,4.628900051E0,-2.150720024E1,1.688229942E1
8.232000000E0,4.314000010E-1,-5.351999760E0,8.191999793E-1
8.252000000E0,1.538800001E0,1.693399906E0,-4.921999872E-1
8.272000000E0,1.267300010E0,4.347499847E0,-4.431299686E0
8.292000000E0,-1.944199920E0,-1.126699924E0,-1.641799927E1
8.312000000E0,-1.162599921E0,-4.772999883E-1,-1.432170010E1
8.332000000E0,-2.919999957E-1,-2.240799904E0,-8.049999923E-2
8.352000000E0,2.721299887E0,-7.937999964E-1,-1.667999983E0
8.372000000E0,-5.212000012E-1,-1.175099969E0,-9.938499451E0
8.392000000E0,-2.535399914E0,-3.281999826E0,-8.818599701E0
8.412000000E0,-2.604099989E0,-2.183899879E0,-4.791199684E0
8.432000000E0,-3.580399990E0,-1.218999997E-1,-5.166000128E-1
8.452000000E0,-3.450699806E0,1.999899983E0,2.097899914E0
8.472000000E0,-2.236000061E0,2.455099821E0,2.195400000E0
8.492000000E0,-9.929999709E-1,2.895900011E0,2.021800041E0
8.512000000E0,-6.574000120E-1,2.286399841E0,1.348799944E0
8.532000000E0,-1.062600017E0,1.452700019E0,1.001699924E0
8.552000000E0,-1.233899951E0,1.899999976E-1,6.739000082E-1
8.572000000E0,-8.416999578E-1,1.701999903E-1,3.332899809E0
8.592000000E0,-8.611999750E-1,5.633000135E-1,2.404799938E0
8.612000000E0,-2.095200062E0,-2.483000010E-1,2.257400036E0
8.632000000E0,-1.392099977E0,-1.890299916E0,3.982999802E0
8.652000000E0,-1.444100022E0,-2.194900036E0,4.807699680E0
8.672000000E0,-1.679600000E0,-2.815899849E0,6.379499912E0
8.692000000E0,-1.205099940E0,-4.260499954E0,7.573199749E0
8.712000000E0,-2.322999954E0,-5.101399899E0,7.421199799E0
8.732000000E0,-4.486299992E0,-4.920099735E0,3.558199883E0
8.752000000E0,-4.708799839E0,-3.485800028E0,5.278299809E0
8.772000000E0,-4.812500000E0,-5.554499626E0,9.298299789E0
8.792000000E0,-3.742499828E0,-2.626099825E0,1.297639942E1
8.812000000E0,-1.026899934E0,-2.841199875E0,7.770199776E0
8.832000000E0,-3.224999905E-1,-6.176599979E0,-4.729199886E0
8.852000000E0,2.312999964E-1,-8.067999840E0,-6.901000023E0
8.872000000E0,2.351699829E0,-9.173399925E0,-7.240799904E0
8.892000000E0,2.654999971E0,-7.147199631E0,-6.113399982E0
8.912000000E0,7.751399994E0,-7.434199810E0,1.329909992E1
8.932000000E0,3.942299843E0,-2.067399979E0,-2.726899862E0
8.952000000E0,2.182999998E-1,5.468999743E-1,-5.898299694E0
8.972000000E0,-1.657899976E0,2.461899996E0,-6.041100025E0
8.992000000E0,-8.445000052E-1,3.396899939E0,-6.027800083E0
9.012000000E0,-5.673999786E-1,4.405699730E0,-5.442999840E0
9.032000000E0,-1.720199943E0,4.924099922E0,-7.087100029E0
9.052001563E0,-3.098399878E0,6.098000050E0,-8.391300201E0
9.082000000E0,-2.349699974E0,7.147899628E0,-1.107969952E1
9.102000000E0,-7.868999839E-1,7.615299702E0,-1.142609978E1
9.122001563E0,-3.357000053E-1,7.810899734E0,-8.376999855E0
9.152000000E0,-2.797299862E0,4.903399944E0,-3.977899790E0
9.172000000E0,-1.542199969E0,-3.972999752E-1,3.621799946E0
9.192000000E0,9.167399406E0,-1.688500023E1,3.615579987E1
9.212000000E0,8.531099319E0,-2.159849930E1,1.818299866E1
9.232000000E0,3.385099888E0,-4.802499771E0,7.344999909E-1
9.252000000E0,9.311999679E-1,2.910399914E0,-5.284699917E0
9.272000000E0,-9.448999763E-1,1.687099934E0,-2.684299946E0
9.292000000E0,-5.315999985E-1,-3.789899826E0,-1.709980011E1
9.312000000E0,-2.764999866E-1,-2.652199984E0,-1.283710003E1
9.332000000E0,-1.159699917E0,3.136699915E0,-4.887599945E0
9.352000000E0,-1.344099998E0,5.116600037E0,-3.102200031E0
9.372000000E0,-3.616999984E-1,-2.087800026E0,-7.256999969E0
9.392000000E0,8.940000087E-2,-4.738899708E0,-9.915599823E0
9.412000000E0,-1.506399989E0,-2.341399908E0,-4.454899788E0
9.432000000E0,-3.184299946E0,5.227000117E-1,-9.450999498E-1
9.452000000E0,-3.487200022E0,2.855499983E0,4.597000122E0
9.472000000E0,-1.919600010E0,2.539000034E0,2.112299919E0
9.492000000E0,1.014999971E-1,2.737699986E0,-4.611999989E-1
9.512000000E0,-6.330999732E-1,2.643999815E0,8.366000056E-1
9.532000000E0,-2.904999852E-1,4.605999887E-1,8.169999719E-1
9.552000000E0,2.709999867E-2,-1.263000011E0,2.715299845E0
9.572000000E0,6.539999694E-2,5.536000133E-1,4.977699757E0
9.592000000E0,-1.241599917E0,1.018999934E0,3.366599798E0
9.612000000E0,-2.181900024E0,-7.249000072E-1,2.878499985E0
9.632000000E0,-2.554199934E0,-1.914499998E0,3.932399988E0
9.652000000E0,-2.736699820E0,-1.418200016E0,7.207099915E0
9.672000000E0,-2.309900045E0,-2.260900021E0,6.761999607E0
9.692000000E0,-3.116499901E0,-4.839099884E0,5.749300003E0
9.712000000E0,-4.093800068E0,-6.014800072E0,3.901999950E0
9.742000000E0,-2.652899981E0,-3.483999968E0,8.739699364E0
9.762000000E0,-2.074399948E0,-4.071599960E0,1.243889999E1
9.782000000E0,-5.503000021E-1,-3.381899834E0,1.292840004E1
9.802000000E0,-3.957999945E-1,-4.175699711E0,1.044499993E0
9.822000000E0,-1.716399908E0,-7.016299725E0,-7.317399979E0
9.842000000E0,5.969999731E-2,-9.685500145E0,-6.113999844E0
9.862000000E0,1.305799961E0,-8.991099358E0,-5.849199772E0
9.882000000E0,2.266399860E0,-6.139899731E0,-1.686100006E0
9.902000000E0,4.924599648E0,-5.564699650E0,7.141099930E0
9.922000000E0,1.511999965E0,-1.651399970E0,-2.008899927E0
9.942000000E0,-4.432999790E-1,3.409000039E-1,-4.638400078E0
9.962000000E0,-9.431999922E-1,2.721599817E0,-5.492699623E0
9.982000000E0,4.710000008E-2,5.007899761E0,-6.216700077E0
1.000200000E1,-2.576999962E-1,5.509599686E0,-6.472899914E0
1.002200000E1,-1.208500028E0,5.760799885E0,-8.467899323E0
1.004200000E1,-1.944000006E0,6.572499752E0,-9.906499863E0
1.006200000E1,-1.846599936E0,7.131999969E0,-1.115119934E1
1.008200000E1,-6.800999641E-1,6.866999626E0,-1.135149956E1
1.010200000E1,-9.641999602E-1,7.133399963E0,-8.122699738E0
1.012200156E1,-2.116899967E0,6.341799736E0,-4.391299725E0
1.015200000E1,-8.016999960E-1,2.556000054E-1,3.645200014E0
1.017200000E1,7.219099998E0,-1.199039936E1,2.623619843E1
1.019200156E1,6.967099667E0,-1.957699966E1,2.106149864E1
1.022200000E1,8.931999803E-1,-1.511600018E0,-4.542799950E0
1.024200000E1,9.386999607E-1,2.989599943E0,-3.027699947E0
1.026200000E1,-1.542000026E-1,-1.317299962E0,-6.333499908E0
1.028200000E1,1.240100026E0,-4.041999817E0,-1.475419998E1
1.030200000E1,3.527999818E-1,-3.969299793E0,1.290399909E0
1.032200000E1,8.170999885E-1,4.649699688E0,-3.466799974E0
1.034200000E1,3.023000062E-1,3.731899977E0,-1.079329967E1
1.036200000E1,7.257999778E-1,-1.518000007E0,-9.385399818E0
1.038200000E1,-6.344999671E-1,-2.573699951E0,-8.637199402E0
1.040200000E1,-1.848199964E0,-2.338799953E0,-4.380599976E0
1.042200000E1,-3.553299904E0,-3.711999953E-1,-1.421899915E0
1.044200000E1,-3.417299986E0,1.001099944E0,2.881700039E0
1.046200000E1,-1.162999988E0,1.516399980E0,4.175199986E0
1.048200000E1,-2.856000066E-1,2.236099958E0,1.328199983E0
1.050200000E1,-9.534999728E-1,2.774199963E0,1.859999895E-1
1.052200000E1,-8.312999606E-1,1.587700009E0,-9.027999640E-1
1.054200000E1,-7.633000016E-1,3.226999938E-1,1.011099935E0
1.056200000E1,-9.149999619E-1,2.224999964E-1,5.326999664E0
1.058200000E1,-2.745999813E0,-6.420999765E-1,5.288399696E0
1.060200000E1,-2.822700024E0,-1.749300003E0,3.918599844E0
1.062200156E1,-2.222599983E0,-6.020999551E-1,3.777400017E0
1.065200000E1,-9.431999922E-1,-1.288399935E0,6.479599953E0
1.067200000E1,4.900000058E-3,-3.875099897E0,5.059299946E0
1.069200000E1,-7.452999949E-1,-4.488999844E0,5.195699692E0
1.071200000E1,-3.071099997E0,-3.871899843E0,3.258800030E0
1.074200000E1,-3.762399912E0,-3.758299828E0,6.632599831E0
1.076200000E1,-3.087399960E0,-3.723799944E0,1.203699970E1
1.078200156E1,-3.165999949E-1,-3.138000011E0,1.373859978E1
1.080200156E1,-1.153999940E-1,-3.771199942E0,1.046000004E0
1.083200000E1,-5.599999800E-2,-8.539699554E0,-6.729899883E0
1.085200000E1,1.667299986E0,-1.053170013E1,-6.792500019E0
1.087200000E1,3.195899963E0,-8.120499611E0,-6.347899914E0
1.089200000E1,9.597499847E0,-6.208899975E0,1.476340008E1
1.091200156E1,5.226500034E0,-2.708999813E-1,-1.460799932E0
1.094200000E1,2.300000051E-3,2.597399950E0,-5.821599960E0
1.096200000E1,1.202999949E-1,4.063799858E0,-4.787600040E0
1.098200000E1,3.694999814E-1,4.371999741E0,-4.611999989E0
1.100200000E1,-4.277999997E-1,4.058000088E0,-5.366999626E0
1.102200000E1,-1.483999968E0,3.592799902E0,-6.643699646E0
1.104200000E1,-2.511699915E0,4.486099720E0,-8.797499657E0
1.106200000E1,-2.512399912E0,5.954899788E0,-1.034829998E1
1.108200000E1,-1.869099975E0,5.614999771E0,-1.050869942E1
1.110200000E1,-1.632499933E0,5.547999859E0,-8.075399399E0
1.112200000E1,-1.898499966E0,6.129299641E0,-4.075399876E0
1.114200000E1,-1.212399960E0,4.443900108E0,-4.495999813E-1
1.116200000E1,1.350499988E0,-8.035999537E-1,1.079930019E1
1.118200000E1,9.500800133E0,-1.306869984E1,2.114009857E1
1.120200000E1,8.222999573E0,-1.538819981E1,1.540829945E1
1.122200000E1,1.868499994E0,-2.473299980E0,1.669199944E0
1.124200000E1,7.186999917E-1,4.172599792E0,-2.591399908E0
1.126200000E1,1.347000003E0,1.824199915E0,-4.870899677E0
1.128200156E1,-5.401999950E-1,-1.747099996E0,-1.594519997E1
1.131200000E1,3.411999941E-1,-3.725299835E0,-1.173900008E0
1.133200156E1,3.157500029E0,-2.093199968E0,3.186100006E0
1.136200000E1,-1.637599945E0,4.059000015E-1,-1.183759975E1
1.138200000E1,-1.243399978E0,-1.360399961E0,-8.681099892E0
1.140200000E1,-1.611999989E0,-6.599999666E-1,-4.947599888E0
1.142200000E1,-3.217199802E0,-3.680000082E-2,-4.908999801E-1
1.144200000E1,-4.737799644E0,1.433200002E0,2.954699993E0
1.146200000E1,-1.718699932E0,1.308999956E-1,3.368599892E0
1.148200000E1,-4.612999856E-1,2.949999869E-1,2.152600050E0
1.150200000E1,-1.585500002E0,1.505100012E0,9.434999824E-1
1.152200000E1,-1.350999951E0,2.308699846E0,5.884000063E-1
1.154200000E1,-8.111999631E-1,1.433699965E0,1.450699925E0
1.156200000E1,2.052000016E-1,4.320999980E-1,2.800999880E0
1.158200000E1,-4.388999939E-1,1.104099989E0,3.246399879E0
1.160200000E1,-5.870000124E-1,-1.799999969E-3,2.868399858E0
1.162200156E1,-5.171999931E-1,-6.272999644E-1,2.500299931E0
1.165200000E1,-1.780699968E0,-1.594599962E0,5.856299877E0
1.167200000E1,-2.667799950E0,-3.608699799E0,6.594899654E0
1.169200000E1,-2.621999979E0,-4.409199715E0,6.612299919E0
1.171200000E1,-2.367300034E0,-4.056799889E0,5.554299831E0
1.173200000E1,-1.685999990E0,-2.753000021E0,5.510399818E0
1.175200000E1,-8.969999850E-2,-3.462999821E0,9.164599419E0
1.177200000E1,-2.320999950E-1,-5.009900093E0,1.075179958E1
1.179200000E1,-3.953000009E-1,-2.757699966E0,1.265899944E1
1.181200000E1,-1.515799999E0,-3.036799908E0,-8.866999745E-1
1.183200000E1,-2.891599894E0,-5.788899899E0,-7.170799732E0
1.185200000E1,-1.308599949E0,-8.889900208E0,-5.870999813E0
1.187200000E1,-1.027799964E0,-8.656499863E0,-5.710700035E0
1.189200000E1,3.743000031E-1,-8.094200134E0,2.792099953E0
1.191200000E1,2.095099926E0,-6.346399784E0,4.982199669E0
1.193200000E1,-4.949999973E-2,-3.095000029E0,-1.239099979E0
1.195200000E1,-5.480999947E-1,-2.976999879E-1,-4.185999870E0
1.197200000E1,4.805999994E-1,1.880699992E0,-6.178499699E0
1.199200000E1,1.477899909E0,4.633500099E0,-7.728099823E0
1.201200000E1,1.096000001E-1,6.190199852E0,-7.502999783E0
1.203200000E1,-5.494999886E-1,5.748199940E0,-7.233999729E0
1.205200000E1,-6.431999803E-1,5.672499657E0,-7.754999638E0
1.208200000E1,-8.747999668E-1,5.943799973E0,-1.008930016E1
1.210200000E1,-3.028999865E-1,6.667999744E0,-9.679999352E0
1.212200000E1,-5.781999826E-1,7.575500011E0,-7.280499935E0
1.214200000E1,-7.044999599E-1,4.892199993E0,-3.718400002E0
1.216200156E1,-3.526999950E-1,1.001199961E0,1.004999951E-1
1.219200156E1,6.103699684E0,-1.471939945E1,2.955229950E1
1.222200156E1,-1.954800010E0,-6.770599842E0,3.171900034E0
1.225200000E1,9.079999924E-1,4.688999653E0,7.543999553E-1
1.227200000E1,4.499499798E0,1.686399937E0,-5.410299778E0
1.229200000E1,2.848500013E0,-2.214900017E0,-1.536240005E1
1.231200000E1,3.021800041E0,-5.579899788E0,-8.759900093E0
1.233200000E1,1.993499994E0,-5.714799881E0,5.437299728E0
1.235200000E1,1.960899949E0,2.302199841E0,-8.941499710E0
1.237200000E1,-1.585999966E0,2.515699863E0,-1.029339981E1
1.239200000E1,-2.881199837E0,3.549000025E-1,-8.927700043E0
1.241200000E1,-2.605999947E0,-1.520099998E0,-6.629999638E0
1.243200000E1,-3.013399839E0,-2.117899895E0,-2.755100012E0
1.245200000E1,-4.086100101E0,-1.010900021E0,-5.700000003E-2
1.247200000E1,-3.432799816E0,9.453999996E-1,3.480299950E0
1.249200000E1,-1.099200010E0,1.603099942E0,4.513899803E0
1.251200000E1,-1.058300018E0,1.361699939E0,1.583799958E0
1.253200000E1,-5.083999634E-1,2.359899998E0,7.590000033E-1
1.255200156E1,1.127999946E-1,1.468400002E0,-1.667999923E-1
1.258200000E1,8.661999702E-1,1.202700019E0,1.199699998E0
1.260200000E1,5.870000124E-1,1.007599950E0,2.657999992E0
1.262200000E1,-5.539000034E-1,6.850000024E-1,4.019700050E0
1.264200000E1,-7.084999681E-1,-8.586999774E-1,3.374499798E0
1.266200000E1,-1.919099927E0,-2.033900023E0,4.371999741E0
1.268200000E1,-3.175999880E0,-3.101899862E0,6.646499634E0
1.270200000E1,-2.438699961E0,-4.558399677E0,8.673999786E0
1.272200000E1,-1.893299937E0,-5.265799999E0,8.937600136E0
1.274200000E1,-3.159499884E0,-4.940299988E0,5.262099743E0
1.276200000E1,-3.345099926E0,-4.123799801E0,5.670499802E0
1.278200000E1,-3.482399940E0,-5.117899895E0,9.877200127E0
1.280200000E1,-3.356699944E0,-2.329900026E0,1.240769958E1
1.282200000E1,-1.967799902E0,-2.188299894E0,5.474599838E0
1.284200000E1,-1.906699896E0,-5.956500053E0,-5.712499619E0
1.286200000E1,-6.514999866E-1,-9.448200226E0,-6.235899925E0
1.288200000E1,1.013299942E0,-1.037529945E1,-6.303799629E0
1.290200000E1,2.586899996E0,-7.946599960E0,-6.887099743E0
1.292200000E1,6.182999611E0,-5.842199802E0,1.236829948E1
1.294200000E1,3.944399834E0,-2.511899948E0,1.838299990E0
1.296200000E1,5.692999959E-1,-4.217999876E-1,-5.527199745E0
1.298200000E1,-7.184000015E-1,1.313699961E0,-6.157499790E0
1.300200000E1,-9.160000086E-2,3.070299864E0,-6.425299644E0
1.302200000E1,2.969000041E-1,4.770499706E0,-6.608999729E0
1.304200000E1,-2.327999920E-1,5.139299870E0,-6.381299973E0
1.306200000E1,-1.490700006E0,5.142099857E0,-8.256199837E0
1.308200000E1,-2.266499996E0,6.336299896E0,-8.694399834E0
1.310200000E1,-1.837199926E0,7.055099964E0,-9.988100052E0
1.312200156E1,-1.472100019E0,7.388899803E0,-1.035820007E1
1.315200000E1,-1.423200011E0,7.806299686E0,-5.828000069E0
1.317200000E1,-2.301100016E0,4.883199692E0,-2.574800014E0
1.319200156E1,2.089999914E-1,-1.470600009E0,3.976799965E0
1.322200000E1,9.629799843E0,-2.239410019E1,3.305949783E1
1.324200000E1,3.649599791E0,-1.140989971E1,9.539699554E0
1.326200000E1,1.722999960E-1,1.392599940E0,-3.403699875E0
1.328200000E1,6.920999885E-1,5.178199768E0,-1.828499913E0
1.330200000E1,-6.615999937E-1,-1.451799989E0,-1.491609955E1
1.332200000E1,-5.785999894E-1,-2.976599932E0,-1.578799915E1
1.334200000E1,-1.912799954E0,-2.972800016E0,7.565299988E0
1.336200000E1,2.800099850E0,3.347899914E0,-2.514999807E-1
1.338200000E1,3.217399836E0,1.391399980E0,-1.079739952E1
1.340200000E1,1.422199965E0,-1.569399953E0,-8.971199989E0
1.342200000E1,-6.753000021E-1,-2.366799831E0,-8.034299850E0
1.344200000E1,-2.200000048E0,-1.756999969E0,-5.015699863E0
1.346200000E1,-3.656199932E0,-4.036999941E-1,-2.104699850E0
1.348200000E1,-3.292399883E0,1.648999900E-1,3.747999966E-1
1.350200000E1,-2.011499882E0,1.830399990E0,1.827699900E0
1.352200000E1,-1.195799947E0,2.312799931E0,5.378999710E0
1.354200000E1,-1.513899922E0,1.608500004E0,2.578500032E0
1.356200000E1,-2.218899965E0,1.044399977E0,7.796999812E-1
1.358200000E1,-1.592299938E0,1.365000010E-1,9.614999890E-1
1.360200000E1,-6.703999639E-1,1.300000004E-3,4.287099838E0
1.362200156E1,-1.246500015E0,6.079999730E-2,5.191699982E0
1.365200000E1,-1.383199930E0,-9.065999985E-1,2.828199863E0
1.367200000E1,-9.488999844E-1,2.847999930E-1,1.917699933E0
1.369200000E1,-2.872999907E-1,1.902000010E-1,3.722499847E0
1.371200000E1,4.558999836E-1,-2.820400000E0,8.064499855E0
1.373200000E1,-3.190999925E-1,-5.702399731E0,7.549899578E0
1.375200000E1,-2.024499893E0,-3.708299875E0,4.584399700E0
1.377200000E1,-3.062399864E0,-2.012199879E0,5.177799702E0
1.379200000E1,-2.823999882E0,-4.322000027E0,7.324399948E0
1.381200000E1,-3.243899822E0,-6.296499729E0,8.554599762E0
1.383200000E1,-2.843699932E0,-4.036099911E0,1.215689945E1
1.385200000E1,-1.273199916E0,-4.106800079E0,5.029999733E0
1.387200000E1,-1.245999932E0,-6.214900017E0,-5.816699982E0
1.389200000E1,-6.359999627E-2,-7.410799980E0,-6.601099968E0
1.391200000E1,6.197999716E-1,-8.041199684E0,-6.229399681E0
1.393200000E1,1.590799928E0,-6.301899910E0,-4.458899975E0
1.395200000E1,3.296799898E0,-4.920499802E0,8.768599510E0
1.397200000E1,5.600999594E-1,-1.607199907E0,-1.375599980E0
1.399200000E1,-9.171999693E-1,-2.140000015E-1,-4.764699936E0
1.401200000E1,-4.259999990E-1,1.703799963E0,-5.490499973E0
1.403200156E1,6.808999777E-1,3.967399836E0,-6.247799873E0
1.405200156E1,4.639999941E-2,4.992399693E0,-6.403299809E0
1.408200000E1,-7.409999967E-1,4.496999741E0,-6.437599659E0
1.410200000E1,-7.780999541E-1,4.736399651E0,-8.878600121E0
1.412200000E1,-3.390000015E-2,4.842899799E0,-9.416899681E0
1.414200000E1,-1.694999933E-1,5.458899975E0,-9.626699448E0
1.416200000E1,-1.692000031E-1,6.543399811E0,-8.129199982E0
1.418200000E1,1.714999974E-1,6.782899857E0,-5.371099949E0
1.420200000E1,-8.768000007E-1,4.238699913E0,3.099999949E-2
1.422200000E1,2.489399910E0,-1.256399989E0,4.999899864E0
1.424200000E1,4.762499809E0,-1.220389938E1,2.532769966E1
1.426200000E1,7.202999592E-1,-1.652750015E1,1.663100052E1
1.428200000E1,-3.887699842E0,-2.615999937E0,3.073999882E0
1.430200000E1,-1.719999909E-1,2.061599970E0,2.954699993E0
1.432200000E1,6.412000060E-1,2.155299902E0,-1.027999973E1
1.434200000E1,-1.059000015E0,6.938999891E-1,-1.512479973E1
1.436200000E1,2.637300014E0,-1.481199980E0,-1.040429974E1
1.438200000E1,4.658400059E0,-6.104099751E0,8.495800018E0
1.440200000E1,4.994699955E0,8.915999532E-1,-3.791899920E0
1.442200156E1,1.468799949E0,1.974499941E0,-9.363800049E0
1.445200156E1,-1.027400017E0,-1.398800015E0,-7.534099579E0
1.447200156E1,-2.187799931E0,-5.877999663E-1,-4.201600075E0
1.449200156E1,-3.214999914E0,-1.280999929E-1,-1.735799909E0
1.452200000E1,-3.110899925E0,6.272999644E-1,9.034000039E-1
1.454200000E1,-1.212499976E0,1.535799980E0,3.446199894E0
1.456200000E1,-3.245999813E-1,1.771699905E0,4.835099697E0
1.458200000E1,-5.638999939E-1,1.683899999E0,1.856699944E0
1.460200156E1,-8.655999899E-1,4.739999771E-1,3.129999936E-1
1.463200000E1,-1.190299988E0,5.450999737E-1,1.825699925E0
1.465200000E1,-1.260699987E0,1.310599923E0,2.560099840E0
1.467200000E1,-7.039999962E-1,1.024600029E0,2.618999958E0
1.469200000E1,-3.640999794E-1,-5.414000154E-1,4.280600071E0
1.471200000E1,-9.560999870E-1,-1.305400014E0,4.925399780E0
1.473200000E1,-1.424199939E0,-1.791700006E0,4.860099792E0
1.475200000E1,-1.046100020E0,-2.983999968E0,6.171599865E0
1.477200000E1,-1.668299913E0,-3.916299820E0,7.300699711E0
1.479200000E1,-3.481400013E0,-5.719899654E0,4.265699863E0
1.481200000E1,-3.282500029E0,-4.022799969E0,4.801099777E0
1.483200313E1,-2.796099901E0,-3.781499863E0,1.013259983E1
1.486200000E1,-1.273199916E0,-2.939499855E0,1.443379974E1
1.488200000E1,-1.626500010E0,-3.219499826E0,7.314799786E0
1.490200000E1,-2.352099895E0,-6.024699688E0,-4.928999901E0
1.492200000E1,-8.799999952E-1,-9.039899826E0,-6.205699921E0
1.494200000E1,-8.649999648E-2,-9.922800064E0,-5.659999847E0
1.496200000E1,9.180999994E-1,-8.116399765E0,-5.538899899E0
1.498200000E1,4.209899902E0,-8.175600052E0,1.042280006E1
1.500200000E1,3.445999861E0,-4.173699856E0,2.692699909E0
1.502200000E1,6.347000003E-1,-2.064999938E-1,-4.234799862E0
1.504200000E1,5.779999867E-2,1.964699984E0,-5.791399956E0
1.506200000E1,1.142699957E0,3.998600006E0,-6.952199936E0
1.508200000E1,3.887999952E-1,5.043699741E0,-7.090199947E0
1.510200000E1,-1.241400003E0,5.003599644E0,-7.157699585E0
1.512200000E1,-2.054399967E0,5.750799656E0,-7.481400013E0
1.514200000E1,-1.426399946E0,5.870599747E0,-9.275499344E0
1.516200000E1,-7.502999902E-1,6.727099895E0,-9.920599937E0
1.518200000E1,-1.670899987E0,6.910099983E0,-1.064410019E1
1.520200000E1,-1.238699913E0,7.477099895E0,-8.878099442E0
1.522200000E1,-1.500999928E0,7.074599743E0,-4.637700081E0
1.524200000E1,-2.328500032E0,3.903199911E0,4.693000019E-1
1.526200000E1,3.270499945E0,-3.283200026E0,1.152120018E1
1.528200000E1,8.630800247E0,-2.028629875E1,3.102219963E1
1.530200000E1,5.164099693E0,-1.519639969E1,1.229559994E1
1.532200000E1,1.537499905E0,-9.708999991E-1,-5.209999904E-2
1.534200000E1,6.902999878E-1,4.626100063E0,-2.858500004E0
1.536200000E1,-1.255999953E-1,-2.137799978E0,-1.434529972E1
1.538200000E1,1.993499994E0,-3.760999918E0,-1.292389965E1
1.540200000E1,2.865000069E-1,-3.402999878E0,2.974200010E0
1.542200000E1,1.340999901E-1,4.553100109E0,-4.967999935E0
1.544200000E1,-6.979999542E-1,2.375799894E0,-8.756099701E0
1.546200000E1,-5.309999585E-1,-1.884299994E0,-1.180469990E1
1.548200156E1,-1.383199930E0,-2.728799820E0,-7.418699741E0
1.551200000E1,-3.183399916E0,-1.219699979E0,-1.402400017E0
1.553200000E1,-3.356099844E0,1.421999931E-1,2.474999875E-1
1.555200000E1,-1.308899999E0,2.623399973E0,5.091399670E0
1.557200000E1,4.050000012E-2,2.393499851E0,4.979199886E0
1.559200000E1,-1.128700018E0,2.674799919E0,2.567699909E0
1.561200000E1,-1.500499964E0,1.420899987E0,-2.601000071E-1
1.563200000E1,-9.681999683E-1,-4.222999811E-1,-5.516999960E-1
1.565200000E1,-2.447999865E-1,3.077999949E-1,2.406899929E0
1.567200000E1,4.707999825E-1,1.180499911E0,4.644000053E0
1.569200000E1,9.099999815E-2,1.228000000E-1,3.922399998E0
1.571200000E1,-5.898000002E-1,-5.080000162E-1,3.617699862E0
1.573200000E1,-1.747299910E0,-9.467999935E-1,7.371999741E0
1.575200000E1,-3.014799833E0,-3.005499840E0,8.265099525E0
1.577200000E1,-2.988099813E0,-4.579999924E0,5.623699665E0
1.579200000E1,-3.573499918E0,-4.809899807E0,4.544099808E0
1.581200000E1,-3.399399996E0,-4.815999985E0,5.425600052E0
1.583200000E1,-2.547699928E0,-5.309199810E0,1.008850002E1
1.585200000E1,-7.547000051E-1,-4.698800087E0,1.534989929E1
1.587200000E1,4.129999876E-1,-3.767399788E0,9.060400009E0
1.589200000E1,-3.599999845E-2,-5.769000053E0,-5.548099995E0
1.591200000E1,-4.930000007E-1,-7.923699856E0,-7.674899578E0
1.593200000E1,1.610799909E0,-9.918700218E0,-6.972799778E0
1.595200000E1,2.443899870E0,-7.687399864E0,-5.857399940E0
1.597200000E1,3.404500008E0,-4.996799946E0,1.397609997E1
1.599200000E1,1.121599913E0,-1.628799915E0,-6.566999555E-1
1.601200000E1,-4.452999830E-1,-4.849999771E-2,-6.106199741E0
1.603200000E1,-1.330000013E-1,1.192399979E0,-5.527400017E0
1.605200156E1,7.786999941E-1,2.942600012E0,-5.340600014E0
1.608200000E1,-1.930999905E-1,4.753999710E0,-6.164899826E0
1.610200000E1,-1.462099910E0,5.634699821E0,-7.417500019E0
1.612200000E1,-2.379799843E0,6.567499638E0,-8.526499748E0
1.614200000E1,-1.977499962E0,6.671299934E0,-9.854599953E0
1.616200000E1,-1.256099939E0,6.424299717E0,-1.038379955E1
1.618200000E1,-1.096499920E0,6.277199745E0,-9.616899490E0
1.620200000E1,-1.413900018E0,7.062799931E0,-6.164700031E0
1.622200000E1,-1.720899940E0,6.059700012E0,-3.138499975E0
1.624200000E1,-2.050699949E0,2.282899857E0,2.994299889E0
1.626200000E1,4.901700020E0,-1.033339977E1,2.148069954E1
1.628200156E1,8.478899956E0,-2.097550011E1,2.567519951E1
1.631200000E1,4.631499767E0,-2.222199917E0,-1.137499928E0
1.633200000E1,2.175099850E0,3.602999926E0,-6.430999756E0
1.635200000E1,1.731199980E0,1.049099922E0,-6.593499660E0
1.637200000E1,-8.089999855E-2,-3.572999954E0,-1.351249981E1
1.639200000E1,4.284999967E-1,-5.147900105E0,-2.599599838E0
1.641200000E1,2.803799868E0,-1.503999978E-1,-4.657000005E-1
1.643200000E1,-1.148899913E0,2.951099873E0,-1.216879940E1
1.645200000E1,-2.973399878E0,3.107999861E-1,-1.087209988E1
1.647200000E1,-3.284199953E0,-1.428900003E0,-8.789299965E0
1.649200000E1,-3.135200024E0,-2.718799829E0,-5.121099949E0
1.651200000E1,-3.726300001E0,-1.597899914E0,-1.462099910E0
1.653200000E1,-3.487499952E0,-6.678000093E-1,1.045499921E0
1.655200156E1,-1.631799936E0,1.827499986E0,7.719499588E0
1.658200000E1,-1.036700010E0,2.100600004E0,2.942199945E0
1.660200000E1,-1.229799986E0,1.927999973E0,1.570799947E0
1.662200000E1,-1.455099940E0,6.385999918E-1,-4.546999931E-1
1.664200000E1,-1.440699935E0,-2.060000040E-2,3.032000065E-1
1.666200000E1,-9.316999912E-1,1.027199984E0,3.242100000E0
1.668200000E1,-6.329999566E-1,6.121000051E-1,3.994399786E0
1.670200156E1,-1.023199916E0,2.319999970E-2,4.071899891E0
1.673200000E1,-1.301499963E0,-1.578999907E-1,4.427799702E0
1.675200000E1,-1.159199953E0,-1.353199959E0,5.618099689E0
1.677200000E1,-5.439999700E-1,-3.141799927E0,6.343800068E0
1.679200000E1,-1.589800000E0,-3.828499794E0,6.389299870E0
1.681200000E1,-3.459299803E0,-4.370199680E0,3.983799934E0
1.683200000E1,-3.907799959E0,-4.791299820E0,4.860199928E0
1.685200000E1,-4.477600098E0,-6.031699657E0,9.661999702E0
1.687200000E1,-4.301000118E0,-4.452199936E0,1.328979969E1
1.689200000E1,-2.578199863E0,-3.243899822E0,6.138999939E0
1.691200156E1,-7.367999554E-1,-5.246599674E0,-4.366600037E0
1.694200000E1,1.033100009E0,-7.886799812E0,-5.836299896E0
1.696200000E1,1.785399914E0,-8.149199486E0,-5.750099659E0
1.698200156E1,5.103399754E0,-7.952099800E0,7.626799583E0
1.701200000E1,2.258999825E0,-3.181200027E0,-1.706200004E0
1.703200000E1,-8.418999910E-1,-3.060999811E-1,-4.996299744E0
1.705200000E1,-1.467499971E0,1.294099927E0,-5.021500111E0
1.707200000E1,-1.309999973E-1,3.224699974E0,-5.721999645E0
1.709200000E1,6.033999920E-1,4.593199730E0,-6.530799866E0
1.711200000E1,-3.199999779E-2,4.666199684E0,-7.226899624E0
1.713200000E1,-1.419600010E0,5.246900082E0,-7.816999912E0
1.715200000E1,-1.274099946E0,6.175899982E0,-8.627599716E0
1.717200156E1,-8.270999789E-1,6.417599678E0,-9.819799423E0
1.719200156E1,-6.130999923E-1,6.800199986E0,-1.037769985E1
1.722200156E1,-4.148999751E-1,7.713799953E0,-5.763999939E0
1.725200000E1,-2.198499918E0,4.026099682E0,2.114999890E-1
1.727200000E1,1.455599904E0,-4.079400063E0,1.270379925E1
1.729200000E1,9.163199425E0,-1.997509956E1,3.087229919E1
1.731200000E1,6.068399906E0,-1.404719925E1,1.137440014E1
1.733200000E1,1.706499934E0,-1.905399919E0,-2.557499886E0
1.735200000E1,2.663899899E0,8.518999815E-1,-6.464999676E0
1.737200000E1,1.798900008E0,-2.964999914E0,-7.395099640E0
1.739200000E1,1.612999886E-1,-3.276700020E0,-1.068239975E1
1.741200156E1,-1.660899997E0,-6.087999940E-1,3.930899858E0
1.744200000E1,-4.717999995E-1,5.613699913E0,-1.232679939E1
1.746200000E1,6.103999615E-1,6.542999744E-1,-8.278200150E0
1.748200156E1,-1.686999947E-1,-3.237799883E0,-7.953099728E0
1.751200156E1,-3.019799948E0,-3.418200016E0,-5.267699718E0
1.754200156E1,-3.955199957E0,-1.071499944E0,-4.658999741E-1
1.757200000E1,-2.382099867E0,2.873499870E0,5.980400085E0
1.759200000E1,-1.406000018E0,2.436699867E0,3.182499886E0
1.761200156E1,-9.812999964E-1,2.123800039E0,1.394199967E0
1.764200000E1,-9.811999798E-1,4.360999763E-1,-2.739000022E-1
1.766200000E1,-6.582999825E-1,4.399999976E-2,8.618999720E-1
1.768200000E1,-2.085999995E-1,9.336999655E-1,3.300899982E0
1.770200000E1,-1.938000023E-1,1.163399935E0,3.215699911E0
1.772200156E1,-3.705999851E-1,2.044999897E-1,2.663100004E0
1.775200000E1,-7.641999722E-1,-2.201200008E0,6.576399803E0
1.777200156E1,-2.813400030E0,-2.219099998E0,7.293399811E0
1.780200000E1,-1.271600008E0,-2.556099892E0,3.408499956E0
1.782200000E1,-8.378999829E-1,-3.922099829E0,5.358999729E0
1.784200000E1,-2.945899963E0,-4.979899883E0,4.153399944E0
1.786200000E1,-4.169099808E0,-8.586699486E0,5.629999638E0
1.788200000E1,-4.874199867E0,-5.959199905E0,9.025199890E0
1.790200000E1,-3.438199997E0,-3.663100004E0,1.128020000E1
1.792200000E1,-1.365199924E0,-3.850799799E0,3.580499887E0
1.794200000E1,3.149999976E-1,-5.439399719E0,-6.584699631E0
1.796200000E1,1.759899974E0,-6.197599888E0,-7.092199802E0
1.798200000E1,2.344799995E0,-6.125000000E0,-6.567699909E0
1.800200000E1,5.344899654E0,-6.007899761E0,6.391099930E0
1.802200000E1,5.364399910E0,-4.293600082E0,3.526599884E0
1.804200000E1,1.947299957E0,-1.190199971E0,-5.356400013E0
1.806200000E1,-7.379999757E-1,3.923999965E-1,-5.252199650E0
1.808200000E1,-1.481899977E0,2.162099838E0,-5.691599846E0
1.810200000E1,-7.220999599E-1,3.944399834E0,-5.722300053E0
1.812200000E1,-8.403999805E-1,3.947699785E0,-6.599999905E0
1.814200000E1,-1.745599985E0,4.859200001E0,-6.685999870E0
1.816200000E1,-1.321099997E0,5.574199677E0,-7.840799809E0
1.818200000E1,-6.248999834E-1,5.686100006E0,-8.949299812E0
1.820200156E1,-6.448999643E-1,5.809899807E0,-1.003039932E1
1.822200156E1,-9.558999538E-1,6.478399754E0,-8.868000031E0
1.825200156E1,-1.208999991E0,5.998399734E0,-3.394099951E0
1.828200156E1,1.039000005E-1,-1.194199920E0,7.212599754E0
1.831200000E1,7.632699966E0,-1.700790024E1,2.282390022E1
1.833200000E1,2.987200022E0,-1.140030003E1,1.230749989E1
1.835200000E1,-1.990700006E0,9.968999624E-1,1.141399980E0
1.837200000E1,-3.222399950E0,7.613799572E0,4.365699768E0
1.839200000E1,-1.156799912E0,3.677299976E0,-9.494199753E0
1.841200000E1,-3.633999825E-1,-2.407999933E-1,-2.189189911E1
1.843200000E1,2.261199951E0,-1.923099995E0,-1.263119984E1
1.845200000E1,4.829299927E0,-5.034599781E0,-3.754199982E0
1.847200000E1,8.699099541E0,-4.821499825E0,1.144349957E1
1.849200000E1,-8.793999553E-1,2.169199944E0,-1.765509987E1
1.851200000E1,-4.793799877E0,4.831999838E-1,-1.237720013E1
1.853200000E1,-4.452899933E0,-2.170699835E0,-6.891499996E0
1.855200000E1,-4.373799801E0,-1.827099919E0,-2.045099974E0
1.857200000E1,-4.741399765E0,4.356999993E-1,1.665999889E-1
1.859200000E1,-3.032399893E0,2.039399862E0,1.166199923E0
1.861200000E1,-1.285499930E0,2.214499950E0,2.939100027E0
1.863200000E1,4.373999834E-1,2.284399986E0,3.970799923E0
1.865200000E1,4.379999936E-1,1.059800029E0,1.334999949E-1
1.867200000E1,-8.509999514E-2,5.785999894E-1,6.529999524E-2
1.869200000E1,5.913999677E-1,1.343999982E0,3.131899834E0
1.871200000E1,2.803999782E-1,1.186399937E0,3.962299824E0
1.873200000E1,-1.869300008E0,-9.185999632E-1,3.489799976E0
1.875200000E1,-3.699699879E0,-3.538499832E0,4.623099804E0
1.877200000E1,-5.424699783E0,-3.590999842E0,6.006700039E0
1.879200000E1,-4.431299686E0,-1.900699973E0,8.869299889E0
1.881200000E1,-9.358999729E-1,-4.056299686E0,8.898099899E0
1.883200000E1,-7.724999785E-1,-4.252099991E0,4.889499664E0
1.885200156E1,-4.602999985E-1,-3.905999899E0,5.407999992E0
1.888200000E1,-2.603999972E-1,-4.147900105E0,1.053240013E1
1.890200000E1,3.983999789E-1,-2.487799883E0,1.300419998E1
1.892200000E1,-6.180999875E-1,-3.054600000E0,-1.041899920E0
1.894200000E1,-2.094399929E0,-6.216099739E0,-8.433599472E0
1.896200000E1,-4.481000006E-1,-1.006299973E1,-6.700500011E0
1.898200000E1,6.635999680E-1,-1.033389950E1,-6.802199841E0
1.900200000E1,1.867999911E0,-6.725699902E0,-3.796999931E0
1.902200000E1,3.009699821E0,-4.097099781E0,9.955900192E0
1.904200000E1,4.292999804E-1,-9.195999503E-1,-2.279099941E0
1.906200000E1,-5.644999743E-1,7.552999854E-1,-6.074199677E0
1.908200000E1,4.677999914E-1,3.151399851E0,-6.564699650E0
1.910200000E1,8.612999916E-1,5.154699802E0,-6.636699677E0
1.912200000E1,-4.961999953E-1,5.389999866E0,-6.664199829E0
1.914200000E1,-1.407599926E0,5.433399677E0,-7.613499641E0
1.916200000E1,-1.529999971E0,5.605400085E0,-9.380999565E0
1.918200000E1,-1.087199926E0,5.988199711E0,-9.909099579E0
1.920200000E1,-1.877999902E-1,6.079099655E0,-1.129469967E1
1.922200000E1,6.659999490E-2,7.015799999E0,-9.549200058E0
1.924200000E1,-3.319999874E-1,7.106499672E0,-6.570899963E0
1.926200000E1,-9.400999546E-1,4.190099716E0,-3.703399897E0
1.928200000E1,1.270399928E0,-3.949399948E0,5.743799686E0
1.930200000E1,7.980700016E0,-1.986470032E1,3.729549789E1
1.932200000E1,6.282899857E0,-1.721049881E1,1.464050007E1
1.934200000E1,9.853000045E-1,-5.399000049E-1,6.468999982E-1
1.936200000E1,9.759999812E-2,5.605999947E0,-4.282700062E0
1.938200000E1,-1.584599972E0,3.792500019E0,-6.487699986E0
1.940200000E1,-2.134000063E0,-3.422699928E0,-1.454809952E1
1.942200000E1,1.109300017E0,-4.282599926E0,-1.039130020E1
1.944200000E1,1.904699922E0,-3.193899870E0,-7.792999744E-1
1.946200000E1,2.824100018E0,2.331500053E0,-3.278299809E0
1.948200000E1,2.013399839E0,6.304999590E-1,-6.898699760E0
1.950200000E1,-8.240000159E-2,-1.828699946E0,-1.024940014E1
1.952200000E1,-1.930999994E0,-1.131099939E0,-5.403399944E0
1.954200000E1,-3.602399826E0,2.175000012E-1,-1.880899906E0
1.956200000E1,-3.653699875E0,1.136999965E0,-7.889999747E-1
1.958200000E1,-2.437500000E0,1.984499931E0,9.517999887E-1
1.960200000E1,-6.740999818E-1,2.056900024E0,5.896299839E0
1.962200000E1,-2.787999809E-1,1.803900003E0,2.845599890E0
1.964200156E1,-7.608000040E-1,7.637000084E-1,4.406999946E-1
1.967200000E1,-4.727999866E-1,-1.750000007E-2,2.067699909E0
1.969200000E1,5.282999873E-1,8.673999906E-1,3.492299795E0
1.971200000E1,9.219999611E-2,1.033299923E0,3.178399801E0
1.973200000E1,-1.494199991E0,5.929999799E-2,2.612599850E0
1.975200000E1,-2.668999910E0,-6.973999739E-1,3.661000013E0
1.977200000E1,-3.002099991E0,-1.469999999E-1,4.378099918E0
1.979200000E1,-2.157999992E0,-1.584800005E0,4.337800026E0
1.981200000E1,-1.158399940E0,-4.814099789E0,5.700299740E0
1.983200000E1,-1.782199979E0,-5.761600018E0,6.783799648E0
1.985200000E1,-2.577699900E0,-5.013799667E0,5.660099983E0
1.987200000E1,-2.300699949E0,-5.429899693E0,8.266399384E0
1.989200000E1,-3.016700029E0,-4.100899696E0,1.058329964E1
1.991200000E1,-1.563300014E0,-3.088899851E0,9.775799751E0
1.993200000E1,-5.374000072E-1,-3.126799822E0,1.565599918E0
1.995200000E1,-2.430999875E-1,-4.625599861E0,-6.592299938E0
1.997200000E1,7.285000086E-1,-6.674699783E0,-6.626699924E0
1.999200000E1,1.566599965E0,-7.936199665E0,-6.145599842E0
2.001200000E1,5.591099739E0,-8.190599442E0,6.106499672E0
2.003200000E1,4.875799656E0,-2.535300016E0,7.077099800E0
2.005200156E1,8.119999766E-1,4.703999758E-1,-4.442199707E0
2.008200000E1,-1.259899974E0,2.208199978E0,-5.506999969E0
2.010200000E1,-2.847000062E-1,3.654699802E0,-5.361399651E0
2.012200000E1,-5.656999946E-1,3.210599899E0,-5.815700054E0
2.014200000E1,-1.601099968E0,3.626600027E0,-5.727699757E0
2.016200000E1,-1.651199937E0,3.910499811E0,-6.531899929E0
2.018200156E1,-1.093999982E0,5.537099838E0,-8.992499352E0
2.021200000E1,-3.923999965E-1,5.729399681E0,-1.017389965E1
2.023200000E1,-5.509999990E-1,6.054499626E0,-9.920299530E0
2.025200000E1,-7.166000009E-1,6.529599667E0,-6.552399635E0
2.027200156E1,-3.928000033E-1,5.454699993E0,-4.378200054E0
2.030200000E1,1.107100010E0,-1.803799987E0,9.519800186E0
2.032200000E1,6.348199844E0,-1.921469879E1,3.609379959E1
2.034200781E1,4.162300110E0,-1.615970039E1,1.468759918E1
2.037200000E1,3.046099901E0,2.717999816E-1,-4.101399899E0
2.039200000E1,5.053699970E0,-1.572099924E0,-7.535699844E0
2.041200000E1,3.721499920E0,-4.502699852E0,-1.252359962E1
2.043200000E1,-2.253799915E0,-3.352999985E-1,-2.408099890E0
2.045200000E1,-3.759799957E0,7.642399788E0,-1.171739960E1
2.047200000E1,-1.175300002E0,5.830800056E0,-9.430299759E0
2.049200000E1,2.118599892E0,-1.228099942E0,-8.271200180E0
2.051200000E1,8.690999746E-1,-4.224899769E0,-7.738199711E0
2.053200000E1,-1.292500019E0,-3.557099819E0,-4.377500057E0
2.055200000E1,-2.644700050E0,-2.185799837E0,-5.128999949E-1
2.057204219E1,-2.285399914E0,1.424999982E-1,5.609200001E0
2.060200000E1,-8.262999654E-1,6.890999675E-1,2.870999873E-1
2.062200000E1,-8.175999522E-1,2.465899944E0,-4.747999907E-1
2.064200000E1,-1.306299925E0,2.968400002E0,6.140000001E-2
2.066200000E1,-8.352999687E-1,2.128599882E0,-1.528999954E-1
2.068200000E1,3.876000047E-1,1.142499924E0,2.409999847E0
2.070200000E1,1.208500028E0,5.684999824E-1,5.114299774E0
2.072200000E1,-1.148699999E0,-5.561999679E-1,5.262399673E0
2.074200000E1,-2.444399834E0,-1.252099991E0,3.740499973E0
2.076200000E1,-2.594799995E0,-4.722999930E-1,3.106400013E0
2.078200000E1,-3.568599939E0,-3.428999782E-1,6.300799847E0
2.080200000E1,-2.884299994E0,-4.152999878E0,8.846699715E0
2.082200000E1,-1.488399982E0,-4.566100121E0,7.238699913E0
2.084200000E1,-1.514199972E0,-2.865999937E0,4.133399963E0
2.086200000E1,-1.423599958E0,-2.247099876E0,3.629999876E0
2.088200000E1,-4.590999782E-1,-5.759799957E0,6.834899902E0
2.090200000E1,-1.492299914E0,-5.415800095E0,1.158159924E1
2.092200000E1,-5.679999590E-1,-3.176599979E0,1.088049984E1
2.094200000E1,-9.742999673E-1,-2.937299967E0,1.508999914E-1
2.096200000E1,-1.865099907E0,-5.643599987E0,-6.038300037E0
2.098200000E1,7.539999485E-2,-7.636799812E0,-5.433199883E0
2.100200000E1,1.544600010E0,-8.237699509E0,-5.555799961E0
2.102200000E1,3.559299946E0,-6.868000031E0,1.859999895E0
2.104200000E1,4.338799953E0,-3.470899820E0,6.660799980E0
2.106200000E1,1.084599972E0,-1.114400029E0,-3.175199986E0
2.108200000E1,-8.040999770E-1,-8.509999514E-2,-5.319799900E0
2.110200000E1,-1.554299951E0,1.320400000E0,-4.000100136E0
2.112200000E1,-2.421999872E-1,2.937799931E0,-5.646199703E0
2.114200000E1,-6.608999968E-1,4.237599850E0,-5.649600029E0
2.116200000E1,-1.078599930E0,5.102699757E0,-7.348599911E0
2.118200000E1,-1.471099973E0,5.395400047E0,-8.747099876E0
2.120200156E1,-9.576999545E-1,6.441400051E0,-9.565699577E0
2.123200000E1,-7.437999845E-1,6.771100044E0,-1.025839996E1
2.125200000E1,-1.046000004E0,7.129600048E0,-8.233699799E0
2.127200000E1,-1.231999993E0,7.044799805E0,-5.002599716E0
2.129200000E1,-2.321199894E0,4.736999989E0,-1.433099985E0
2.131200000E1,1.003299952E0,-1.872499943E0,9.730400085E0
2.133200000E1,9.446999550E0,-1.773819923E1,3.079990005E1
2.135200000E1,6.459799767E0,-1.635770035E1,1.447049999E1
2.137200000E1,1.610000014E0,-2.629699945E0,-1.550300002E0
2.139200000E1,1.116599917E0,2.895900011E0,-5.633899689E0
2.141200000E1,1.377699971E0,6.542999744E-1,-2.506299973E0
2.143200000E1,7.845000029E-1,-6.163899899E0,-1.349459934E1
2.146200000E1,3.835999966E-1,-6.797899723E0,9.010199547E0
2.148200000E1,-5.733000040E-1,5.963999748E0,-9.605199814E0
2.150200000E1,-1.099499941E0,5.008899689E0,-1.219199944E1
2.152200000E1,-4.517000020E-1,5.127999783E-1,-8.426300049E0
2.154200000E1,-9.567999840E-1,-2.062399864E0,-6.293099880E0
2.156200000E1,-2.519299984E0,-2.715699911E0,-4.641999722E0
2.158200000E1,-4.467299938E0,-1.245000005E0,-1.623600006E0
2.160200000E1,-3.413899899E0,-6.219999790E-1,5.058999658E-1
2.162200156E1,-1.933799982E0,2.049799919E0,6.527199745E0
2.164200156E1,-8.653999567E-1,2.527899981E0,5.267499924E0
2.167200000E1,-5.173000097E-1,2.753799915E0,8.671000004E-1
2.169200000E1,-8.485999703E-1,1.461099982E0,-1.544199944E0
2.171200000E1,-8.603000045E-1,3.526999950E-1,-4.424999952E-1
2.173200000E1,-5.367999673E-1,8.609999716E-2,3.370699883E0
2.175200000E1,-1.108099937E0,-2.293999940E-1,4.483299732E0
2.177200000E1,-1.806199908E0,-2.576999962E-1,2.488399982E0
2.179200000E1,-1.721399903E0,-9.519999474E-2,2.396399975E0
2.181200156E1,-9.347999692E-1,-7.616999745E-1,4.379300117E0
2.184200000E1,1.950299978E0,-3.136199951E0,7.481999874E0
2.186200156E1,2.335299969E0,-3.094599962E0,6.257899761E0
2.188200156E1,-5.055999756E-1,-3.717999935E0,3.791499853E0
2.191200000E1,-4.870899677E0,-7.147299767E0,3.688499928E0
2.193200000E1,-6.159899712E0,-6.901499748E0,7.079499722E0
2.195200000E1,-7.885399818E0,-3.218299866E0,1.182209969E1
2.197200000E1,-5.235599995E0,-3.215799809E0,6.872900009E0
2.199200156E1,-1.051900029E0,-5.199500084E0,-1.329899907E0
2.202200000E1,1.998899937E0,-8.877699852E0,-6.407899857E0
2.204200000E1,3.309299946E0,-1.047449970E1,-7.103899956E0
2.206200000E1,5.978799820E0,-7.876099586E0,-5.049999803E-2
2.208200000E1,7.909299850E0,-3.821299791E0,5.517999649E0
2.210200000E1,3.209299803E0,-6.337000132E-1,-2.734899998E0
2.212200000E1,-2.543999851E-1,2.105299950E0,-6.697099686E0
2.214200000E1,5.250999928E-1,3.475799799E0,-5.776299953E0
2.216200156E1,1.921000004E0,5.651899815E0,-5.776799679E0
2.219200000E1,6.601999998E-1,4.894899845E0,-6.370699883E0
2.221200000E1,-8.781999946E-1,4.642499924E0,-6.820600033E0
2.223200000E1,-1.214900017E0,4.439199924E0,-8.006099701E0
2.225200000E1,-5.292999744E-1,4.800399780E0,-8.763599396E0
2.227200156E1,-1.129599929E0,5.299599648E0,-9.480199814E0
2.230200000E1,-1.570699930E0,6.122399807E0,-7.155299664E0
2.232200000E1,-1.381399989E0,5.861000061E0,-3.610499859E0
2.234200000E1,-1.910499930E0,3.848699808E0,9.135999680E-1
2.236200000E1,9.578999877E-1,-2.278899908E0,1.226219940E1
2.238200000E1,6.648699760E0,-1.307849979E1,2.381629944E1
2.240200000E1,5.290499687E0,-1.281190014E1,1.165359974E1
2.242200000E1,2.812999964E0,-3.929899931E0,-6.286999583E-1
2.244200000E1,2.359200001E0,-6.998999715E-1,-5.978399754E0
2.246200000E1,4.752599716E0,-4.372799873E0,-8.185500145E0
2.248200000E1,6.252799988E0,-1.032569981E1,-7.676699638E0
2.250200000E1,-1.721999943E-1,-4.294300079E0,4.241099834E0
2.252200000E1,-3.231400013E0,6.978999615E0,-1.329229927E1
2.254200000E1,-3.312099934E0,8.108099937E0,-1.413689995E1
2.256200000E1,-2.550999820E-1,1.728999972E0,-1.032030010E1
2.258200000E1,-4.265999794E-1,-1.906699896E0,-8.988299370E0
2.260200000E1,-2.088199854E0,-2.895900011E0,-5.483099937E0
2.262200000E1,-3.819199800E0,-1.652799964E0,-1.556499958E0
2.264200000E1,-1.959299922E0,-2.529000044E-1,5.511000156E-1
2.266200000E1,-4.093999863E-1,1.242399931E0,6.387799740E0
2.268200000E1,-1.444100022E0,1.701799989E0,6.216700077E0
2.270200000E1,-1.617799997E0,1.758999944E0,5.959999561E-1
2.272200625E1,-1.144299984E0,1.019500017E0,-5.054000020E-1
2.275200000E1,7.906999588E-1,-1.043499947E0,5.332399845E0
2.277200156E1,-1.074599981E0,-1.381999969E0,6.463799953E0
2.280200000E1,-1.275300026E0,-4.319999740E-2,1.776499987E0
2.282200000E1,-1.176699996E0,5.543000102E-1,2.110399961E0
2.284200000E1,8.799999952E-2,-1.531700015E0,4.763299942E0
2.286200000E1,7.494999766E-1,-1.998999953E0,4.929699898E0
2.288200000E1,-3.163999915E-1,-5.356000066E-1,3.551999807E0
2.290200000E1,-9.134999514E-1,-9.266999960E-1,2.113399982E0
2.292200000E1,-8.976999521E-1,-3.115099907E0,2.273499966E0
2.294200000E1,-2.163899899E0,-5.560400009E0,3.422399998E0
2.296200000E1,-3.016499996E0,-7.845399857E0,6.588500023E0
2.298200156E1,-2.093699932E0,-5.454799652E0,9.404600143E0
2.301200000E1,8.233999610E-1,-3.170899868E0,9.203100204E0
2.303200156E1,2.294600010E0,-3.600199938E0,1.197299957E0
2.305200156E1,1.707199931E0,-4.516099930E0,-7.127699852E0
2.308200000E1,2.931599855E0,-4.823800087E0,-7.155999660E0
2.310200000E1,4.044499874E0,-3.148499966E0,1.304999948E0
2.312200000E1,5.043600082E0,-1.834199905E0,8.636099815E0
2.314200000E1,1.962299943E0,3.689999878E-2,-2.473500013E0
2.316200000E1,-1.515000015E-1,1.067000031E0,-5.338699818E0
2.318200000E1,-9.959999919E-1,1.934999943E0,-4.823299885E0
2.320200000E1,-9.519999623E-1,1.527699947E0,-3.217199802E0
2.322200000E1,-1.814899921E0,1.682099938E0,-3.477499962E0
2.324200000E1,-1.626699924E0,2.103499889E0,-4.549399853E0
2.326200000E1,-1.703199983E0,3.104799986E0,-7.660599709E0
2.328200000E1,-1.155699968E0,4.731100082E0,-9.426599503E0
2.330200000E1,-2.867999971E-1,5.415400028E0,-9.476399422E0
2.332200000E1,-2.119999975E-1,4.925799847E0,-7.370499611E0
2.334200000E1,-6.085000038E-1,5.338699818E0,-4.988199711E0
2.336200000E1,-7.851999998E-1,6.655099869E0,-1.724599957E0
2.338200000E1,-2.487599850E0,4.666599751E0,2.823899984E0
2.340200000E1,1.894599915E0,-1.600199938E0,7.276199818E0
2.342200000E1,5.945099831E0,-9.964099884E0,1.504019928E1
2.344200000E1,5.914999962E0,-9.387299538E0,1.110190010E1
2.346200000E1,3.379400015E0,-2.142400026E0,-4.756999910E-1
2.348200000E1,1.859799981E0,-1.976999938E-1,-6.060100079E0
2.350200000E1,2.611299992E0,-3.972399950E0,-7.334499836E0
2.352200000E1,9.034999609E-1,-5.712199688E0,-1.343599916E0
2.354200000E1,-1.220600009E0,-3.414099932E0,-1.174999997E-1
2.356200000E1,-3.099699974E0,3.910799980E0,-9.736899376E0
2.358200000E1,-3.506999969E0,4.183599949E0,-8.171299934E0
2.360200000E1,-2.789799929E0,1.345799923E0,-7.633800030E0
2.362200000E1,-2.689499855E0,-2.003499985E0,-6.266900063E0
2.364200000E1,-3.504199982E0,-3.034899950E0,-3.010399818E0
2.366200000E1,-2.969300032E0,-2.398599863E0,-5.579999685E-1
2.368200000E1,-2.075099945E0,3.129000068E-1,1.097800016E0
2.370200000E1,-1.531799912E0,3.049099922E0,2.571599960E0
2.372200000E1,7.217999697E-1,2.396899939E0,3.832000017E0
2.374200000E1,1.353399992E0,5.406999588E-1,2.008899927E0
2.376200000E1,9.286999702E-1,-9.239999950E-2,1.129099965E0
2.378200000E1,1.029899955E0,4.792999923E-1,1.804299951E0
2.380200000E1,9.894999862E-1,6.254000068E-1,2.440700054E0
2.382200000E1,-3.364000022E-1,6.958000064E-1,2.119199991E0
2.384200000E1,-1.487499952E0,4.896999896E-1,1.101199985E0
2.386200000E1,-1.741999984E0,8.141999841E-1,1.029500008E0
2.388200000E1,-1.092199922E0,-1.656999886E-1,1.924699903E0
2.390200000E1,-2.290999889E-1,-2.498800039E0,4.997200012E0
2.392200000E1,-1.264999956E-1,-3.184999943E0,1.003819942E1
2.394200000E1,-1.239999980E-1,-2.991699934E0,9.010999680E0
2.396200000E1,-8.104000092E-1,-1.812799931E0,3.924399853E0
2.398200000E1,-5.939999819E-1,-3.704699993E0,3.592700005E0
2.400200000E1,-1.608799934E0,-6.139999866E0,7.073599815E0
2.402200000E1,-2.462999821E0,-4.510499954E0,1.098239994E1
2.404200000E1,-1.553200006E0,-3.341099977E0,8.433499336E0
2.406200000E1,-2.651999950E0,-3.317999840E0,-3.565099955E0
2.408200000E1,-1.005100012E0,-5.353899956E0,-8.138299942E0
2.410200000E1,-4.004999995E-1,-6.952299595E0,-6.521399975E0
2.412200156E1,1.074599981E0,-7.900499821E0,-1.378799915E0
2.415200000E1,3.515000045E-1,-3.748299837E0,2.569999933E0
2.417200781E1,-2.099799871E0,-1.558200002E0,-3.853699923E0
2.420200156E1,-2.277899981E0,6.692999601E-1,-5.186100006E0
2.423200000E1,2.094999999E-1,4.187900066E0,-6.086799622E0
2.425200000E1,-4.181999862E-1,4.396299839E0,-6.475800037E0
2.427200156E1,-6.071999669E-1,4.252999783E0,-5.739899635E0
2.430200000E1,-5.895999670E-1,4.365099907E0,-7.379899979E0
2.432200000E1,-1.134999990E-1,4.801300049E0,-8.401000023E0
2.434200156E1,-2.520999908E-1,5.311500072E0,-8.676199913E0
2.437200000E1,-5.277999640E-1,5.912699699E0,-5.806200027E0
2.439200000E1,-8.769999444E-2,5.465799809E0,-2.044499874E0
2.441200000E1,-8.823999763E-1,2.056299925E0,2.051800013E0
2.443200000E1,3.517099857E0,-4.997099876E0,7.672999859E0
2.446200000E1,4.366600037E0,-1.461399937E1,1.978949928E1
2.448200000E1,-1.260399938E0,-4.170499802E0,3.405599833E0
2.450200000E1,-1.573799968E0,9.733999968E-1,3.877999783E-1
2.452200000E1,-6.333999634E-1,-2.063999921E-1,-3.497399807E0
2.454200000E1,-4.523999989E-1,-3.401700020E0,-1.459939957E1
2.456200000E1,9.398999810E-1,-2.148499966E0,-9.805099487E0
2.458200000E1,1.532899976E0,-2.516299963E0,1.572859955E1
2.460200000E1,4.716999829E-1,5.016099930E0,-1.127439976E1
2.462200000E1,-1.735199928E0,3.773799896E0,-1.142459965E1
2.464200000E1,-1.262399912E0,6.686999798E-1,-6.773200035E0
2.466200000E1,-1.403699994E0,-2.425400019E0,-4.523699760E0
2.468200000E1,-3.549000025E0,-3.180399895E0,-1.842999935E0
2.470200000E1,-4.409399986E0,-2.460700035E0,-3.955999911E-1
2.472200000E1,-1.686299920E0,-8.540999889E-1,-1.227599978E0
2.474200000E1,-1.075099945E0,1.571699977E0,-7.135999799E-1
2.476200000E1,-1.286000013E-1,2.931699991E0,3.849499941E0
2.478200000E1,1.188300014E0,1.171499968E0,1.242699981E0
2.480200000E1,1.707499981E0,9.724999666E-1,5.426999927E-1
2.482200000E1,2.435199976E0,1.406499982E0,1.747999907E0
2.484200000E1,1.071300030E0,2.095200062E0,2.864099979E0
2.486200000E1,-1.222599983E0,9.346999526E-1,7.773000002E-1
2.488200000E1,-1.621199965E0,7.882999778E-1,-1.200999975E0
2.490200000E1,-1.500100017E0,7.475999594E-1,-7.909999788E-2
2.492200000E1,-1.530499935E0,-1.266099930E0,1.558200002E0
2.494200000E1,-1.877799988E0,-1.830500007E0,2.576699972E0
2.496200000E1,-1.828299999E0,-3.094899893E0,1.182949924E1
2.498200000E1,-1.572199941E0,-4.399899960E0,1.075710011E1
2.500200000E1,-2.846199989E0,-4.905099869E0,3.880999804E0
2.502200000E1,-3.675199986E0,-5.324399948E0,4.152999878E0
2.504200000E1,-2.482800007E0,-6.994699955E0,8.219399452E0
2.506200000E1,-1.967099905E0,-4.611999989E0,1.022039986E1
2.508200000E1,-1.737599969E0,-2.938799858E0,8.591499329E0
2.510200000E1,-2.679699898E0,-3.161700010E0,6.987799644E0
2.512200000E1,-1.068599939E0,-4.139199734E0,-1.933200002E0
2.514200156E1,1.019999981E0,-3.774199963E0,-7.424599648E0
2.517200000E1,3.217599869E0,-5.701900005E0,-5.111700058E0
2.519200000E1,6.605000019E0,-6.442399979E0,9.492300034E0
2.521200000E1,4.036900043E0,-3.819799900E0,1.053599954E0
2.523200000E1,1.545499921E0,-7.444999814E-1,-4.270899773E0
2.525200000E1,-8.159999847E-1,1.203099966E0,-5.134200096E0
2.527200000E1,-9.293999672E-1,1.361099958E0,-4.975299835E0
2.529200000E1,-2.249999940E-1,2.152699947E0,-4.551099777E0
2.531200000E1,4.386000037E-1,2.817999840E0,-4.914799690E0
2.533200000E1,-3.735999763E-1,3.826499939E0,-6.275300026E0
2.535200000E1,-7.933999896E-1,5.158899784E0,-7.559899807E0
2.537200000E1,-1.444999933E0,6.642899990E0,-8.150799751E0
2.539200000E1,-1.773999929E0,7.336999893E0,-8.240699768E0
2.541200000E1,-2.274799824E0,7.411299706E0,-6.764799595E0
2.543200000E1,-2.245499849E0,6.906499863E0,-3.396999836E0
2.545200000E1,-1.463999987E0,4.691899776E0,-7.611999512E-1
2.547200000E1,7.997999787E-1,-1.958699942E0,6.867799759E0
2.549200000E1,8.109299660E0,-1.386940002E1,2.231439972E1
2.551200000E1,4.642299652E0,-1.493239975E1,1.770079994E1
2.553200000E1,-4.966999888E-1,-2.443599939E0,1.236500025E0
2.555200000E1,-1.525000036E-1,2.064499855E0,-2.100699902E0
2.557200000E1,1.559899926E0,-7.784999609E-1,-6.074199677E0
2.559200000E1,2.183199883E0,-2.790099859E0,-1.383169937E1
2.561200000E1,-8.026999831E-1,-7.881999612E-1,-2.264899969E0
2.563200000E1,-1.451699972E0,2.632400036E0,-5.616299629E0
2.565200000E1,-6.067999601E-1,3.154799938E0,-9.302899361E0
2.567200000E1,1.827199936E0,-1.595499992E0,-9.511799812E0
2.569200000E1,9.449999928E-1,-2.474699974E0,-9.042900085E0
2.571200000E1,-1.570099950E0,-1.693099976E0,-4.855700016E0
2.573200000E1,-2.714499950E0,-7.242000103E-1,-2.045099974E0
2.575200000E1,-1.975399971E0,1.639000028E-1,1.186800003E0
2.577200000E1,-7.499999832E-3,2.379799843E0,4.039599895E0
2.579200000E1,9.982999563E-1,3.008399963E0,2.261800051E0
2.581200000E1,3.728999794E-1,2.905099869E0,2.727900028E0
2.583200000E1,4.380999804E-1,6.092999578E-1,2.025699854E0
2.585200000E1,3.700000001E-3,-1.799999923E-2,4.575999975E-1
2.587200000E1,2.267999947E-1,1.184299946E0,1.765199900E0
2.589200000E1,7.909999788E-2,9.345999956E-1,1.881399989E0
2.591200000E1,-1.550699949E0,-6.031999588E-1,2.893100023E0
2.593200000E1,-2.358099937E0,-2.160099983E0,5.034699917E0
2.595200000E1,-3.689599991E0,-3.079999924E0,8.838799477E0
2.597200000E1,-2.599799871E0,-4.330699921E0,7.051099777E0
2.599200000E1,-2.196799994E0,-3.661099911E0,6.552799702E0
2.601200000E1,-1.824299932E0,-3.877399921E0,5.791999817E0
2.603200156E1,-1.301899910E0,-6.853299618E0,5.409499645E0
2.605200156E1,-1.487499952E0,-5.981499672E0,8.424499512E0
2.608200000E1,1.348399997E0,-3.834399939E0,8.961199760E0
2.610200000E1,1.093799949E0,-3.862900019E0,-2.834399939E0
2.612200000E1,1.238199949E0,-4.354799747E0,-8.375299454E0
2.614200000E1,2.780099869E0,-6.438099861E0,-7.654299736E0
2.616200000E1,5.421799660E0,-7.428199768E0,-2.466399908E0
2.618200000E1,8.481900215E0,-3.803299904E0,1.044489956E1
2.620200000E1,2.484299898E0,-5.629999936E-2,-3.034999847E0
2.622200000E1,-1.177399993E0,2.619699955E0,-6.006700039E0
2.624200000E1,-1.921299934E0,2.893899918E0,-4.301899910E0
2.626200000E1,-1.360899925E0,2.866899967E0,-4.269799709E0
2.628200000E1,-8.691999912E-1,3.129299879E0,-4.514400005E0
2.630200000E1,-1.056100011E0,3.131599903E0,-5.023099899E0
2.632200000E1,-9.056999683E-1,4.133599758E0,-6.361299992E0
2.634200000E1,-1.309999943E0,5.861199856E0,-7.358699799E0
2.636200000E1,-1.725399971E0,6.299999714E0,-8.120399475E0
2.638200000E1,-1.697699904E0,5.692299843E0,-8.600600243E0
2.640200000E1,-1.394899964E0,5.682300091E0,-6.992499828E0
2.642200000E1,-1.080099940E0,5.392299652E0,-3.224699974E0
2.645200000E1,-1.564499974E0,1.533699989E0,3.863799810E0
2.647200000E1,2.493499994E0,-7.757299900E0,1.420079994E1
2.649200000E1,9.215600014E0,-1.823999977E1,2.606579971E1
2.651200000E1,5.652800083E0,-8.077300072E0,1.024599934E1
2.653200000E1,9.185999632E-1,2.766799927E0,-3.822299957E0
2.655200000E1,7.961999774E-1,3.666299820E0,-2.002599955E0
2.657200000E1,1.391399980E0,-1.570299983E0,-1.443109989E1
2.659200000E1,2.557600021E0,-3.159999847E0,-1.675359917E1
2.661200000E1,3.377199888E0,-3.249500036E0,6.198999882E-1
2.663200312E1,2.717700005E0,2.523499966E0,3.818799973E0
2.666200000E1,-1.030799985E0,5.175999999E-1,-1.343479919E1
2.668200000E1,-8.228999972E-1,-1.618199944E0,-8.510199547E0
2.670200000E1,-1.451099992E0,-1.053099990E0,-4.443900108E0
2.672200000E1,-2.764600039E0,-2.417999953E-1,-1.829800010E0
2.674200000E1,-3.083899975E0,-2.819999866E-2,-3.157999814E-1
2.676200000E1,-1.661499977E0,-3.890999854E-1,9.812999964E-1
2.678200000E1,-1.014500022E0,1.164899945E0,2.388499975E0
2.680200000E1,-1.698399901E0,1.905200005E0,2.187299967E0
2.682200000E1,-1.887899995E0,1.010200024E0,2.853600025E0
2.684200156E1,-7.856000066E-1,-2.669000030E-1,3.162199974E0
2.687200000E1,-1.054399967E0,3.613999784E-1,2.293999910E0
2.689200000E1,-1.213799953E0,2.369999886E-1,2.083299875E0
2.691200156E1,-1.221400023E0,-1.791999936E-1,2.423699856E0
2.693200156E1,-1.808999896E0,-6.477999687E-1,4.250400066E0
2.696200000E1,-2.281199932E0,-1.528599977E0,8.653200150E0
2.698200000E1,-2.315999985E0,-2.694700003E0,7.050899982E0
2.700200000E1,-1.881399989E0,-3.882799864E0,3.465399981E0
2.702200000E1,-1.686999917E0,-3.381799936E0,3.325399876E0
2.704200000E1,-1.052500010E0,-2.705999851E0,6.693399906E0
2.706200000E1,-1.756999969E0,-5.276000023E0,9.298699379E0
2.708200000E1,-2.173199892E0,-4.387099743E0,1.050749969E1
2.710200000E1,-1.205399990E0,-3.927699804E0,8.252900124E0
2.712200000E1,-6.527999640E-1,-5.203599930E0,-3.689999878E-2
2.714200000E1,-5.324000120E-1,-6.769700050E0,-7.194900036E0
2.716200000E1,1.472800016E0,-7.585099697E0,-6.074100018E0
2.718200000E1,2.512399912E0,-6.291499615E0,-4.351500034E0
2.720200000E1,6.385299683E0,-4.826900005E0,1.225629997E1
2.722200000E1,3.072499990E0,-9.969999790E-1,9.259999543E-2
2.724200000E1,-5.976999998E-1,5.399000049E-1,-4.307899952E0
2.726200000E1,-2.089599848E0,7.939999700E-1,-3.815099955E0
2.728200000E1,-1.127200007E0,1.568300009E0,-4.497099876E0
2.730200000E1,-4.292999804E-1,2.958799839E0,-5.000899792E0
2.732200000E1,3.509999812E-1,3.676999807E0,-5.953499794E0
2.734200000E1,-5.729999766E-2,4.531199932E0,-7.137699604E0
2.736200000E1,5.340999961E-1,5.958899975E0,-8.658299446E0
2.738200000E1,8.495999575E-1,5.952600002E0,-8.850299835E0
2.740200000E1,4.296000004E-1,5.571799755E0,-9.875000000E0
2.742200000E1,8.112999797E-1,6.121599674E0,-8.197099686E0
2.744200000E1,1.132399917E0,7.275599957E0,-5.594099998E0
2.746200000E1,-3.398000002E-1,6.358900070E0,-2.072799921E0
2.748200000E1,9.163999557E-1,7.511000037E-1,2.902099848E0
2.750200000E1,4.552599907E0,-1.152379990E1,2.104339981E1
2.752200000E1,3.576299906E0,-1.928719902E1,2.293770027E1
2.754200000E1,9.919999540E-2,-5.932899952E0,2.389299870E0
2.756200000E1,1.204499960E0,-6.664999723E-1,-2.011899948E0
2.758200000E1,3.484299898E0,-2.661599874E0,-1.167309952E1
2.760200000E1,2.779599905E0,-3.100299835E0,-1.432450008E1
2.762200000E1,-4.431999922E-1,5.629999638E-1,-7.997799873E0
2.764200000E1,-2.506299973E0,5.225999832E0,-5.875199795E0
2.766200000E1,-2.255999893E-1,3.377499819E0,-2.719399929E0
2.768200000E1,1.046800017E0,-7.652999759E-1,-5.278599739E0
2.770200156E1,-5.900000036E-2,-1.717299938E0,-5.231199741E0
2.773200000E1,-1.531399965E0,-7.243999839E-1,-9.398999810E-1
2.775200000E1,-1.746399999E0,2.439000010E-1,-4.423999786E-1
2.777200156E1,-1.298699975E0,1.752099991E0,4.661999941E-1
2.780200000E1,-1.654099941E0,2.404399872E0,4.973499775E0
2.782200000E1,-2.004499912E0,6.484999657E-1,4.671599865E0
2.784200000E1,-9.308999777E-1,-1.586999893E-1,3.495499849E0
2.786200000E1,4.741999805E-1,4.311999977E-1,2.753499985E0
2.788200000E1,7.647999525E-1,2.443999946E-1,1.852499962E0
2.790200000E1,-7.027999759E-1,-1.844999939E-1,1.947799921E0
2.792200000E1,-1.611499906E0,-1.217100024E0,2.670799971E0
2.794200000E1,-2.963399887E0,-1.807699919E0,5.260699749E0
2.796200000E1,-5.277999878E0,-1.885699987E0,9.852499962E0
2.798200000E1,-4.440899849E0,-4.668999672E0,9.628600121E0
2.800200000E1,-2.748699903E0,-5.222199917E0,7.273999691E0
2.802200000E1,-1.471300006E0,-3.614399910E0,6.980299950E0
2.804200000E1,-1.053099990E0,-3.572399855E0,7.757699966E0
2.806200156E1,-9.874999523E-1,-2.780999899E0,1.170659924E1
2.809200000E1,-6.146999598E-1,-5.082099915E0,1.632999927E-1
2.811200000E1,-1.402400017E0,-7.434700012E0,-6.589299679E0
2.813200000E1,9.113999605E-1,-8.770899773E0,-6.520299911E0
2.815200000E1,3.387399912E0,-8.075499535E0,-7.500899792E0
2.817200000E1,4.689499855E0,-5.471999645E0,-3.462800026E0
2.819200000E1,9.158100128E0,-3.537899971E0,8.133999825E0
2.821200000E1,5.665499687E0,-1.740099907E0,-4.281499863E0
2.823200000E1,1.671199918E0,4.016000032E-1,-4.859600067E0
2.825200000E1,-1.391600013E0,2.405599833E0,-5.780699730E0
2.827200000E1,-2.641000032E0,4.355899811E0,-6.900899887E0
2.829200000E1,-1.876099944E0,5.912999630E0,-5.604799747E0
2.831200000E1,-1.256999969E0,7.320499897E0,-5.654900074E0
2.833200000E1,-1.742900014E0,8.240099907E0,-7.540299892E0
2.835200000E1,-2.351599932E0,9.815699577E0,-9.219900131E0
2.837200000E1,-1.875899911E0,1.006519985E1,-1.183139992E1
2.839200000E1,-2.447099924E0,5.742499828E0,-6.025599957E0
2.841200156E1,-2.222899914E0,-4.924999774E-1,3.741099834E0
2.844200000E1,6.782899857E0,-1.523229980E1,3.226129913E1
2.846200000E1,6.771800041E0,-7.575699806E0,3.460999966E0
2.848200000E1,2.261499882E0,-1.443899989E0,-6.154099941E0
2.850200000E1,4.825900078E0,-3.986799955E0,-1.685429955E1
2.852200000E1,-4.557999969E-1,-3.365000010E0,-9.594499588E0
2.854200000E1,-4.107699871E0,1.008199930E0,9.928999543E-1
2.856200000E1,-4.427700043E0,3.724499941E0,-8.899499893E0
2.858200000E1,-3.791999817E0,1.933399916E0,-1.123419952E1
2.860200000E1,-2.039099932E0,-3.846999884E0,-9.656199455E0
2.862200000E1,-2.341199875E0,-5.410299778E0,-5.776400089E0
2.864200000E1,-2.906399965E0,-4.344399929E0,-2.519899845E0
2.866200000E1,-6.718999743E-1,-1.990199924E0,-1.179499984E0
2.868200000E1,-3.894999921E-1,2.104599953E0,5.503999591E-1
2.870200000E1,1.059999987E-1,5.419799805E0,5.879799843E0
2.872200000E1,1.613799930E0,3.339599848E0,4.476599693E0
2.874200000E1,2.681599855E0,2.343199968E0,2.748100042E0
2.876200000E1,3.103199959E0,1.663499951E0,6.631999612E-1
2.878200000E1,1.962199926E0,9.321999550E-1,2.552000046E0
2.880200000E1,9.667999744E-1,1.099999994E-2,5.997499943E0
2.882200000E1,-3.260999918E-1,-1.375100017E0,4.437500000E0
2.884200000E1,-1.397499919E0,-1.951299906E0,2.664099932E0
2.886200000E1,-2.797600031E0,-1.670699954E0,5.152599812E0
2.888200000E1,-4.390799999E0,-3.262899876E0,9.057099342E0
2.890200000E1,-4.980899811E0,-4.876299858E0,9.859999657E0
2.892200000E1,-4.812299728E0,-4.350500107E0,6.651499748E0
2.894200000E1,-3.269799948E0,-3.411000013E0,6.616399765E0
2.896200000E1,-1.762399912E0,-5.545799732E0,8.544599533E0
2.898200000E1,-1.612100005E0,-3.479300022E0,9.894000053E0
2.900200000E1,7.675999999E-1,-3.026399851E0,8.177899361E0
2.902200000E1,3.350000083E-2,-5.228399754E0,-4.329400063E0
2.904200000E1,-3.194999993E-1,-7.304999828E0,-8.091599464E0
2.906200156E1,1.152999997E-1,-8.567600250E0,-6.641799927E0
2.909200000E1,2.048599958E0,-8.957200050E0,1.125089931E1
2.911200000E1,-6.238999963E-1,-4.934099674E0,2.377300024E0
2.913200000E1,-2.047800064E0,-1.872299910E0,-4.421999931E0
2.915200000E1,-3.732199907E0,-6.157000065E-1,-4.525899887E0
2.917200000E1,-2.172800064E0,6.830000132E-2,-6.650099754E0
2.919200000E1,2.421000004E-1,2.863299847E0,-6.748999596E0
2.921200000E1,3.282999992E-1,4.691400051E0,-7.656699657E0
2.923200000E1,-1.441999972E-1,5.224299908E0,-8.907099724E0
2.925200000E1,1.213999987E-1,5.599199772E0,-9.666399956E0
2.927200000E1,5.562999845E-1,6.132999897E0,-1.024499989E1
2.929200000E1,6.807999611E-1,6.901399612E0,-1.017059994E1
2.931200156E1,-2.927999794E-1,7.533499718E0,-8.563699722E0
2.933200156E1,-1.565999985E-1,8.161199570E0,-6.582099915E0
2.935200156E1,-8.009999990E-2,5.621200085E0,-3.051899910E0
2.937200156E1,1.957699895E0,2.845999897E-1,8.069999516E-2
2.939200156E1,6.296999931E0,-9.133199692E0,1.498819923E1
2.941200156E1,6.900300026E0,-2.107439995E1,2.501350021E1
2.943200156E1,-1.269699931E0,-7.353899956E0,6.052399635E0
2.946200000E1,-5.447999835E-1,2.501399994E0,-1.017499924E0
2.948200000E1,-1.633099914E0,-1.780299902E0,-9.290200233E0
2.950200000E1,4.657000005E-1,-4.544099808E0,-1.158839989E1
2.952200000E1,2.929999866E-2,-3.619799852E0,4.864599705E0
2.954200000E1,5.173000097E-1,5.704099655E0,-9.426199913E0
2.956200156E1,2.721099854E0,3.298599958E0,-1.103349972E1
2.959200000E1,3.274299860E0,-1.752999902E0,-5.516099930E0
2.961200000E1,1.164199948E0,-1.689299941E0,-5.631999969E0
2.963200000E1,-9.616999626E-1,-8.963999748E-1,-3.088500023E0
2.965200000E1,-2.407699823E0,3.373000026E-1,-1.291899920E0
2.967200156E1,-2.659499884E0,1.291499972E0,4.687999785E-1
2.970200156E1,-1.178699970E0,2.438799858E0,8.944000006E-1
2.973200000E1,-1.083599925E0,1.026099920E0,1.228699923E0
2.975200000E1,-5.324000120E-1,-9.621999860E-1,5.188799858E0
2.977200156E1,-7.491999865E-1,-6.455000043E-1,5.037899971E0
2.980200000E1,-1.208899975E0,2.171999961E-1,1.162799954E0
2.982200000E1,-1.129299998E0,8.422999978E-1,1.872299910E0
2.984200156E1,-1.569999933E0,-5.989999697E-2,3.938399792E0
2.987200000E1,-2.470999956E0,-1.995399952E0,9.597799301E0
2.989200000E1,-9.853000045E-1,-3.034399986E0,8.526399612E0
2.991200000E1,-3.822999895E-1,-2.832299948E0,3.811499834E0
2.993200000E1,9.109999985E-2,-2.544600010E0,4.601299763E0
2.995200000E1,3.134000003E-1,-2.899999857E0,7.435599804E0
2.997200000E1,-3.971000016E-1,-5.678199768E0,7.823899746E0
2.999200000E1,-1.270599961E0,-4.570499897E0,1.205709934E1
3.001200000E1,-4.372999966E-1,-3.221400023E0,1.541519928E1
3.003200156E1,-2.136199951E0,-4.459499836E0,-2.923199892E0
3.006200000E1,-1.893700004E0,-9.572899818E0,-6.436500072E0
3.008200000E1,-1.639999896E-1,-1.039039993E1,-6.623499870E0
3.010200000E1,1.331799984E0,-8.026499748E0,-4.866799831E0
3.012200000E1,1.799499989E0,-5.545300007E0,1.218620014E1
3.014200000E1,1.352899909E0,-4.042200089E0,-2.498199940E0
3.016200000E1,1.234399915E0,-1.573099971E0,-5.422299862E0
3.018200000E1,1.382900000E0,1.793699980E0,-6.580899715E0
3.020200156E1,8.479999900E-1,3.974699974E0,-7.283899784E0
3.023200000E1,-3.447999954E-1,5.090300083E0,-7.329399586E0
3.025200000E1,-3.552999794E-1,5.264800072E0,-6.371199608E0
3.027200000E1,2.090999931E-1,6.079699993E0,-8.086699486E0
3.029200000E1,6.568999887E-1,6.924799919E0,-1.012909985E1
3.031200000E1,-6.455000043E-1,7.338899612E0,-1.062449932E1
3.033200000E1,-1.140799999E0,7.539000034E0,-9.166899681E0
3.035200000E1,-1.468299985E0,7.364599705E0,-5.714499950E0
3.037200000E1,-2.235599995E0,5.010299683E0,-1.621500015E0
3.039200000E1,2.250200033E0,-1.111899972E0,4.149499893E0
3.041200000E1,6.427499771E0,-1.647340012E1,3.439730072E1
3.043200000E1,4.408199787E0,-1.996699905E1,1.548279953E1
3.045200000E1,-2.597000003E-1,-4.996099949E0,1.765199900E0
3.047200000E1,1.737699986E0,1.923299909E0,9.756000042E-1
3.049200000E1,1.756999940E-1,1.470499992E0,-8.252699852E0
3.051200000E1,-2.430500031E0,-3.444199800E0,-9.891300201E0
3.053200000E1,-1.917899966E0,-3.154199839E0,-1.806800008E0
3.055204219E1,1.749699950E0,1.655999899E0,-5.687599659E0
3.058200000E1,1.464299917E0,3.049700022E0,-6.865599632E0
3.060200000E1,-7.060999870E-1,-5.708000064E-1,-9.416500092E0
3.062200000E1,-1.609099984E0,-2.759099960E0,-7.151399612E0
3.064200000E1,-3.047799826E0,-2.489300013E0,-3.310699940E0
3.066200000E1,-4.123399734E0,-1.570299983E0,-8.461999893E-1
3.068200000E1,-1.799799919E0,3.053999841E-1,1.794799924E0
3.070200000E1,-4.824000001E-1,2.798699856E0,4.993599892E0
3.072200000E1,2.139999904E-2,3.483500004E0,2.796099901E0
3.074200000E1,2.352999896E-1,2.285799980E0,-4.560000002E-1
3.076200000E1,-5.314999819E-1,1.258000016E0,-3.351999819E-1
3.078200000E1,-1.006899953E0,-9.649999440E-2,1.413399935E0
3.080200000E1,-1.901499987E0,6.709999591E-2,2.072000027E0
3.082200000E1,-2.149499893E0,1.211099982E0,2.535699844E0
3.084200156E1,-2.169899940E0,1.942499995E0,2.948999882E0
3.086200156E1,-1.792199969E0,4.959999919E-1,2.562700033E0
3.089200000E1,-1.060500026E0,-1.299999952E0,4.312599659E0
3.091200000E1,-5.333999991E-1,-2.854899883E0,9.120699883E0
3.093200000E1,-2.861000001E-1,-4.269599915E0,8.305600166E0
3.095200000E1,-2.525799990E0,-4.265799999E0,4.754199982E0
3.097200000E1,-3.846199989E0,-4.074599743E0,3.391099930E0
3.099200000E1,-5.080100060E0,-6.211299896E0,6.196300030E0
3.101200000E1,-6.013299942E0,-5.428099632E0,8.808400154E0
3.103200000E1,-3.690500021E0,-3.603499889E0,9.271900177E0
3.105200000E1,-3.434999883E-1,-3.414499998E0,4.517699718E0
3.107200000E1,1.430599928E0,-4.956799984E0,-3.448799849E0
3.109200000E1,2.868499994E0,-7.706599712E0,-7.439699650E0
3.111200000E1,5.110099792E0,-1.034389973E1,-8.727499962E0
3.113200156E1,9.435199738E0,-9.709199905E0,5.770999908E0
3.116200000E1,5.651499748E0,-3.161899805E0,1.067799926E0
3.118200000E1,9.206999540E-1,5.291000009E-1,-5.452600002E0
3.120200000E1,1.176100016E0,2.065299988E0,-5.321499825E0
3.122200000E1,4.841000080E0,3.405900002E0,-4.224299908E0
3.124200000E1,5.059400082E0,5.369699955E0,-4.692699909E0
3.126200000E1,2.906100035E0,5.195699692E0,-5.959300041E0
3.128200000E1,7.236999869E-1,4.742799759E0,-6.535599709E0
3.130200000E1,-9.239999950E-2,4.299900055E0,-7.466699600E0
3.132200000E1,-2.575000048E0,3.252099991E0,-7.139699936E0
3.134200312E1,-4.506000042E0,2.957099915E0,-8.569799423E0
3.137200000E1,-3.878099918E0,5.429999828E0,-7.017199993E0
3.139200000E1,-2.148399830E0,7.957199574E0,-5.090600014E0
3.141200000E1,-9.253000021E-1,8.201600075E0,-1.259199977E0
3.143200000E1,2.944000065E-1,4.216099739E0,2.550499916E0
3.145200000E1,3.514999866E0,-6.065099716E0,1.669229889E1
3.147200000E1,8.238699913E0,-2.015399933E1,2.145030022E1
3.149200000E1,4.163000107E0,-1.146969986E1,8.539400101E0
3.151200000E1,3.200399876E0,-1.398499966E0,-9.239999652E-1
3.153200000E1,1.607299924E0,3.898699999E0,-5.339200020E0
3.156200000E1,4.546999931E-1,-4.250499725E0,-8.112299919E0
3.158200000E1,-2.883000076E-1,-6.042799950E0,-8.651999831E-1
3.160200000E1,1.089499950E0,6.988999844E-1,-2.901499987E0
3.162200000E1,-2.729599953E0,6.438499928E0,-1.551989937E1
3.164200000E1,-2.545799971E0,2.057899952E0,-1.038079929E1
3.166200000E1,-1.480000019E0,-9.151999950E-1,-7.341899872E0
3.168200000E1,-2.404799938E0,-3.301999807E0,-4.614099979E0
3.170200000E1,-4.023600101E0,-4.603300095E0,-1.424999952E0
3.172200000E1,-5.058000088E0,-1.996299982E0,1.688799977E0
3.174200000E1,-4.849999845E-1,-8.169999719E-1,2.785699844E0
3.176200000E1,3.899999857E-1,1.324499965E0,2.383999825E0
3.178200000E1,-5.209000111E-1,2.771399975E0,2.335899830E0
3.180200000E1,-8.405999541E-1,2.579599857E0,1.703599930E0
3.182200000E1,-5.149999857E-1,2.360599995E0,1.393199921E0
3.184200000E1,-1.665999889E-1,1.846599936E0,2.504299879E0
3.186200000E1,-2.069200039E0,4.352999926E-1,2.617100000E0
3.188200000E1,-3.012699842E0,-7.579999566E-1,2.050099850E0
3.190200000E1,-1.925599933E0,-6.786999702E-1,8.805999756E-1
3.192200000E1,-8.962999582E-1,5.236999989E-1,3.861999810E-1
3.194200000E1,-6.843999624E-1,1.511199951E0,1.044799924E0
3.196200000E1,3.229999915E-2,-8.520999551E-1,2.836599827E0
3.198200000E1,-2.550999820E-1,-2.795300007E0,5.186500072E0
3.200200000E1,-1.435499907E0,-2.898099899E0,5.997600079E0
3.202200000E1,-3.396699905E0,-2.984599829E0,5.451600075E0
3.204200000E1,-4.425300121E0,-3.997099876E0,5.965499878E0
3.206200000E1,-4.909999847E0,-6.813899994E0,8.116600037E0
3.208200000E1,-6.182699680E0,-6.124799728E0,9.264299393E0
3.210200000E1,-5.538899899E0,-3.991699934E0,9.352999687E0
3.212200000E1,-5.611799717E0,-3.052799940E0,4.399199963E0
3.214200000E1,-5.146299839E0,-4.381999969E0,-1.894999981E0
3.216200000E1,-2.987299919E0,-7.204999924E0,-3.434299946E0
3.218200000E1,3.224999905E-1,-9.689199448E0,-2.719699860E0
3.220200156E1,3.315199852E0,-9.465000153E0,1.569499969E0
3.223200000E1,7.299999595E-1,-3.623600006E0,-7.567999959E-1
3.225200000E1,-3.138999939E-1,-2.523999929E0,-6.909999847E-1
3.227200156E1,-1.329899907E0,-2.368099928E0,-1.763199925E0
3.230200000E1,2.787299871E0,-1.812399983E0,-7.592299938E0
3.232200000E1,4.751899719E0,2.737200022E0,-1.010589981E1
3.234200156E1,4.586199760E0,4.915299892E0,-7.585499763E0
3.237200000E1,4.476999760E0,6.925899982E0,-8.529299736E0
3.239200000E1,2.553200006E0,5.555799961E0,-8.147199631E0
3.241200000E1,8.980000019E-2,4.376299858E0,-8.987699509E0
3.243200000E1,-1.950299978E0,4.632899761E0,-7.994599819E0
3.245200000E1,-2.605999947E0,6.799200058E0,-6.671299934E0
3.247200000E1,-2.582799911E0,8.835700035E0,-4.626199722E0
3.249200156E1,-4.161600113E0,5.770599842E0,-4.751999974E-1
3.252200000E1,1.676100016E0,-2.817800045E0,1.074329948E1
3.254200000E1,4.802299976E0,-1.115069962E1,1.368869972E1
3.256200156E1,5.331199646E0,-9.801300049E0,6.800899982E0
3.259200000E1,4.680500031E0,-4.580399990E0,-6.901499748E0
3.261200000E1,5.076499939E0,-6.395499706E0,-7.237199783E0
3.263200000E1,2.513299942E0,-7.786599636E0,2.657199860E0
3.265200000E1,-1.339100003E0,1.644899964E0,-2.516799927E0
3.267200000E1,-1.141700029E0,6.766399860E0,-1.162080002E1
3.269200000E1,-2.836000025E-1,2.779700041E0,-9.406000137E0
3.271200000E1,2.434999943E-1,-1.163200021E0,-7.938999653E0
3.273200000E1,-7.986999750E-1,-2.534199953E0,-6.609200001E0
3.275200000E1,-1.562399983E0,-1.965899944E0,-3.804799795E0
3.277200000E1,-3.091499805E0,-5.910999775E-1,-1.174799919E0
3.279200000E1,-2.824399948E0,1.375299931E0,4.040800095E0
3.281200000E1,-1.454599977E0,3.127799988E0,1.001840019E1
3.283200000E1,-4.405999780E-1,1.964699984E0,2.622900009E0
3.285200000E1,-7.483999729E-1,2.149000019E-1,7.380999923E-1
3.287200000E1,-1.159899950E0,-1.147899985E0,-4.766999781E-1
3.289200000E1,-9.545999765E-1,2.621999979E-1,3.486000001E-1
3.291200000E1,-5.246999860E-1,1.152499914E0,1.968599916E0
3.293200000E1,-1.197700024E0,1.186699986E0,3.555699825E0
3.295200000E1,-1.993099928E0,2.620999813E-1,5.079499722E0
3.297200000E1,-1.922499895E0,-6.042999625E-1,5.012300014E0
3.299200000E1,-6.161999702E-1,-2.290499926E0,6.914899826E0
3.301200000E1,-1.167999953E-1,-4.079499722E0,6.602299690E0
3.303200156E1,-3.798999786E-1,-4.308399677E0,5.796899796E0
3.306200000E1,-1.417099953E0,-3.087599993E0,5.341599941E0
3.308200000E1,-2.642599821E0,-4.877099991E0,6.738899708E0
3.310200000E1,-3.058300018E0,-4.750400066E0,1.105499935E1
3.312200000E1,-4.505999982E-1,-4.341599941E0,1.200279999E1
3.314200000E1,-2.725999951E-1,-5.441999912E0,1.349999942E-2
3.316200000E1,-1.519400001E0,-6.504499912E0,-8.099399567E0
3.318200000E1,4.149999917E-1,-7.474999905E0,-7.116499901E0
3.320200156E1,2.236199856E0,-7.001999855E0,-5.958199978E0
3.323200000E1,3.517199993E0,-2.839900017E0,7.985799789E0
3.325200000E1,1.801099896E0,-5.331999660E-1,-3.949399948E0
3.327200000E1,7.727999687E-1,8.989999890E-1,-5.075900078E0
3.329200000E1,5.008000135E-1,2.526900053E0,-4.850599766E0
3.331200000E1,2.268999964E-1,2.820799828E0,-5.138700008E0
3.333200000E1,-1.124300003E0,3.105999947E0,-5.295000076E0
3.335200000E1,-1.884400010E0,3.534999847E0,-5.516099930E0
3.337200000E1,-1.104099989E0,4.871900082E0,-7.060099602E0
3.339200000E1,-4.303999841E-1,6.230899811E0,-9.496399879E0
3.341200000E1,-6.761999726E-1,6.548399925E0,-1.018200016E1
3.343200000E1,-7.227999568E-1,6.614599705E0,-8.958899498E0
3.345200000E1,-5.354999900E-1,7.131799698E0,-5.552799702E0
3.347200000E1,-1.712399960E0,4.997900009E0,-1.537899971E0
3.349200000E1,1.180099964E0,-5.151999593E-1,4.031399727E0
3.351200000E1,5.830800056E0,-1.273689938E1,2.462049866E1
3.353200000E1,6.454899788E0,-1.696949959E1,1.986599922E1
3.355200000E1,2.176800013E0,-5.258800030E0,1.744599938E0
3.357200000E1,1.532199979E0,-1.435499907E0,-4.562299728E0
3.359200000E1,2.063699961E0,-2.493000031E0,-9.969599724E0
3.361200000E1,6.133999825E-1,-2.170199871E0,-1.143359947E1
3.363200313E1,-2.553999901E0,3.002300024E0,-8.713299751E0
3.366200000E1,-2.623199940E0,2.139199972E0,-8.148300171E0
3.368200000E1,-2.334699869E0,-6.250999570E-1,-8.285399437E0
3.370200000E1,-2.546299934E0,-3.035799980E0,-6.031300068E0
3.372200000E1,-3.743299961E0,-2.254299879E0,-1.970199943E0
3.374200000E1,-3.711299896E0,-1.323099971E0,1.207399964E0
3.376200000E1,-1.490799904E0,1.740299940E0,7.460700035E0
3.378200000E1,-7.999999821E-2,2.573299885E0,5.625999928E0
3.380200000E1,3.799999952E-1,2.221699953E0,2.044600010E0
3.382200000E1,-1.798999906E-1,1.772199988E0,8.601999879E-1
3.384200000E1,-3.304999769E-1,4.989999831E-1,-8.469999582E-2
3.386200000E1,-6.176999807E-1,2.504000068E-1,2.009799957E0
3.388200000E1,-5.303999782E-1,7.615999579E-1,4.816099644E0
3.390200000E1,-7.031999826E-1,6.527999640E-1,2.207399845E0
3.392200000E1,-1.292699933E0,5.449999571E-1,9.583999515E-1
3.394200000E1,-1.358299971E0,6.657999754E-1,2.025899887E0
3.396200000E1,-5.694999695E-1,-2.100199938E0,6.029999733E0
3.398200000E1,-1.959999949E-1,-4.667399883E0,1.186429977E1
3.400200000E1,-2.084999979E-1,-4.728799820E0,8.065899849E0
3.402200000E1,-2.016499996E0,-3.606899977E0,2.561800003E0
3.404200000E1,-2.967000008E0,-3.561299801E0,3.719999790E0
3.406200000E1,-3.246699810E0,-6.825299740E0,9.465299606E0
3.408200000E1,-4.906899929E0,-3.583599806E0,1.252259922E1
3.410200000E1,-3.470099926E0,-1.995399952E0,9.477099419E0
3.412200000E1,-1.942899942E0,-3.902799845E0,-2.433199883E0
3.414200000E1,-5.426999927E-1,-6.590600014E0,-6.937299728E0
3.416200000E1,1.114599943E0,-8.982199669E0,-5.963899612E0
3.418200000E1,2.367799997E0,-9.058199883E0,-4.832699776E0
3.420200156E1,4.008399963E0,-6.762699604E0,1.165209961E1
3.423200000E1,1.238699913E0,-2.728299856E0,-4.139999866E0
3.425200000E1,-8.315999508E-1,-4.553999901E-1,-5.309499741E0
3.427200000E1,-1.324800014E0,7.705000043E-1,-3.992499828E0
3.429200000E1,3.328999877E-1,2.585000038E0,-5.760499954E0
3.431200000E1,-4.019999877E-2,4.865499973E0,-6.233500004E0
3.433200000E1,-4.463999867E-1,5.862099648E0,-6.806200027E0
3.435200000E1,-1.462199926E0,5.969099998E0,-7.490499973E0
3.437200000E1,-1.205399990E0,6.774600029E0,-8.782999992E0
3.439200000E1,-1.120199919E0,7.096699715E0,-9.356399536E0
3.441200000E1,-1.104399920E0,7.166499615E0,-8.875699997E0
3.443200000E1,-1.090700030E0,7.259299755E0,-6.139299870E0
3.445200000E1,-1.401700020E0,5.625499725E0,-3.824100018E0
3.447200000E1,-8.150000125E-2,1.106999993E0,-1.500000013E-3
3.449200000E1,6.069599628E0,-9.561900139E0,1.364359951E1
3.451200000E1,1.068519974E1,-2.151919937E1,2.865119934E1
3.453200000E1,2.379999876E0,-7.883999825E0,8.857399940E0
3.455200000E1,-5.360000134E-1,2.300199986E0,-3.260900021E0
3.457200000E1,4.609999806E-2,3.553699970E0,-1.528999954E-1
3.459200000E1,-2.011600018E0,-2.030799866E0,-1.113989925E1
3.461200000E1,-8.653999567E-1,-2.768999815E0,-1.274889946E1
3.463200156E1,3.249000013E-1,-3.566399813E0,4.090699673E0
3.466200000E1,2.897500038E0,4.601099968E0,-8.551300049E0
3.468200000E1,2.722800016E0,9.343000054E-1,-5.140500069E0
3.470200156E1,-7.499999553E-2,-1.601699948E0,-1.086509991E1
3.472200156E1,-2.065599918E0,-1.506199956E0,-6.737299919E0
3.475200000E1,-4.100100040E0,-7.238999605E-1,-1.160399914E0
3.477200156E1,-5.216599941E0,4.166999757E-1,4.851399899E0
3.480200000E1,-6.915000081E-1,1.098299980E0,2.938199997E0
3.482200000E1,-6.448999643E-1,1.648399949E0,9.106999636E-1
3.484200000E1,-6.624999642E-1,1.982499957E0,4.957999885E-1
3.486200000E1,-3.346999884E-1,1.569499969E0,8.834999800E-1
3.488200000E1,6.391999722E-1,1.578799963E0,2.217000008E0
3.490200000E1,1.200500011E0,1.049999952E0,2.476300001E0
3.492200156E1,-8.452000022E-1,3.300999999E-1,2.566200018E0
3.495200000E1,-1.293900013E0,-1.647199988E0,3.952999830E0
3.497200000E1,-1.736499906E0,-2.498499870E0,5.906899929E0
3.499200156E1,-9.207999706E-1,-3.045699835E0,7.516399860E0
3.502200000E1,-1.525999904E-1,-3.675999880E0,6.271299839E0
3.504200000E1,-2.690199852E0,-4.002299786E0,3.086699963E0
3.506200156E1,-4.176499844E0,-5.563499928E0,4.003099918E0
3.509200000E1,-5.279699802E0,-4.675499916E0,1.091359997E1
3.511200000E1,-1.378600001E0,-3.064599991E0,1.190469933E1
3.513200156E1,2.313099861E0,-3.949499846E0,1.999499917E0
3.516200000E1,2.173599958E0,-6.004299641E0,-7.100399971E0
3.518200000E1,2.893699884E0,-7.749399662E0,-6.122600079E0
3.520200000E1,5.816299915E0,-7.681699753E0,5.524499893E0
3.522200000E1,7.436599731E0,-4.747699738E0,4.071700096E0
3.524200000E1,3.894099951E0,-1.222399950E0,-4.405900002E0
3.526200000E1,1.290799975E0,1.140100002E0,-5.204499722E0
3.528200000E1,2.198999971E-1,2.387099981E0,-4.077699661E0
3.530200000E1,1.644999981E-1,2.965600014E0,-4.167299747E0
3.532200000E1,-2.930999994E-1,3.548699856E0,-4.515299797E0
3.534200000E1,-1.047199965E0,4.397900105E0,-5.796000004E0
3.536200000E1,-1.726599932E0,6.348599911E0,-7.662299633E0
3.538200000E1,-1.518000007E0,6.984499931E0,-8.535900116E0
3.540200000E1,-2.255499840E0,7.464799881E0,-9.164899826E0
3.542200000E1,-1.947099924E0,7.262099743E0,-8.756899834E0
3.544200000E1,-1.613399982E0,7.193199635E0,-5.496299744E0
3.546200000E1,-2.489199877E0,6.301499844E0,-2.991899967E0
3.548200000E1,-1.762699962E0,1.742199898E0,3.758899927E0
3.550200000E1,2.920199871E0,-7.844199657E0,1.974720001E1
3.552200000E1,7.547199726E0,-1.847169876E1,2.664669991E1
3.554204219E1,3.897499800E0,-9.279899597E0,7.522999763E0
3.557200000E1,2.568699837E0,3.670300007E0,-3.272799969E0
3.559200000E1,2.159399986E0,2.246399879E0,-6.060899734E0
3.561200000E1,2.324699879E0,-3.371999979E0,-2.000839996E1
3.563200000E1,3.187199831E0,-4.064799786E0,-1.309119987E1
3.565200000E1,6.421700001E0,-2.042099953E0,1.631570053E1
3.567200000E1,1.519400001E0,4.444499969E0,-1.773419952E1
3.569200000E1,-1.500999928E0,1.137799978E0,-1.235529995E1
3.571200000E1,-2.191999912E0,-2.100399971E0,-1.066720009E1
3.573200000E1,-3.486899853E0,-2.472499847E0,-6.206399918E0
3.575200000E1,-3.437500000E0,-1.942399979E0,-1.076300025E0
3.578200000E1,-3.210999966E0,-6.725999713E-1,5.910999775E0
3.580200000E1,-6.251999736E-1,-1.644699931E0,1.345299959E0
3.582200000E1,-6.107000113E-1,1.026899934E0,-9.304999709E-1
3.584200000E1,-1.282699943E0,2.738899946E0,2.509999871E-1
3.586200000E1,-8.068999648E-1,3.055099964E0,1.337999940E0
3.588200000E1,-2.969999984E-2,1.854799986E0,1.820699930E0
3.590200000E1,-3.989999741E-2,1.187899947E0,1.523199916E0
3.592200000E1,3.229999915E-2,1.212899923E0,3.223500013E0
3.594200000E1,-1.185099959E0,-8.289999515E-2,6.401000023E0
3.596200000E1,-2.527400017E0,-2.339400053E0,6.619599819E0
3.598200000E1,-3.390100002E0,-2.194499969E0,6.537399769E0
3.600200000E1,-2.852299929E0,-2.501199961E0,6.468299866E0
3.602200000E1,-1.157099962E0,-4.267899990E0,6.603399754E0
3.604200000E1,-7.836999893E-1,-4.375499725E0,7.198899746E0
3.606200156E1,-1.980099916E0,-4.633100033E0,5.084799767E0
3.609200000E1,-4.204899788E0,-6.378200054E0,7.524299622E0
3.611200000E1,-2.563400030E0,-4.199899673E0,1.224860001E1
3.613200156E1,-3.810999990E-1,-3.540400028E0,8.498000145E0
3.616200156E1,-5.370000005E-2,-6.544499874E0,-5.291500092E0
3.619200000E1,1.838899970E0,-7.779500008E0,-6.354899883E0
3.621200000E1,2.921299934E0,-5.789499760E0,-1.838400006E0
3.623200000E1,5.241199970E0,-3.530999899E0,8.659699440E0
3.625200000E1,2.567399979E0,-1.027699947E0,-3.136600018E0
3.627200000E1,7.374999523E-1,-7.959999889E-2,-5.173500061E0
3.629200000E1,-4.265999794E-1,1.140999913E0,-3.603499889E0
3.631200000E1,-7.292000055E-1,2.140300035E0,-4.526099682E0
3.633200000E1,-8.649999499E-1,3.030799866E0,-4.959300041E0
3.635200000E1,-1.295799971E0,3.732999802E0,-5.908299923E0
3.637200000E1,-1.658299923E0,5.631999969E0,-8.380599976E0
3.639200000E1,-1.077499986E0,6.799399853E0,-9.823699951E0
3.641200000E1,-7.766000032E-1,7.231599808E0,-9.463699341E0
3.643200000E1,-4.004999995E-1,6.926199913E0,-9.172800064E0
3.645200000E1,-3.820999861E-1,7.516099930E0,-6.125999928E0
3.647200000E1,-1.565099955E0,6.873600006E0,-2.952100039E0
3.649200000E1,-6.134999990E-1,3.453199863E0,3.209999800E-1
3.651200000E1,4.935499668E0,-4.240900040E0,1.184910011E1
3.653200000E1,9.442799568E0,-1.950939941E1,2.814209938E1
3.655200000E1,5.962199688E0,-1.392219925E1,1.212360001E1
3.657200000E1,2.857599974E0,-3.244499922E0,-2.011899948E0
3.659200000E1,3.545999825E-1,1.183399916E0,-1.301199913E0
3.661200000E1,-6.995999813E-1,-2.101899862E0,-1.294810009E1
3.663200156E1,-1.103999987E-1,-3.560999930E-1,-1.100799942E1
3.666200000E1,-6.672999859E-1,3.617100000E0,-7.352699757E0
3.668200000E1,-1.480000019E-1,2.897500038E0,-7.738599777E0
3.670200000E1,-1.338899970E0,-9.109999537E-1,-8.516699791E0
3.672200000E1,-2.062999964E0,-2.140599966E0,-7.605999947E0
3.674200000E1,-1.920499921E0,-2.622699976E0,-3.167899847E0
3.676200000E1,-2.202299833E0,-1.581499934E0,3.941999972E-1
3.678200000E1,-2.900199890E0,1.061800003E0,7.678999901E0
3.680200000E1,-4.637999833E-1,1.953999996E-1,2.426399946E0
3.682200000E1,6.754999757E-1,2.004899979E0,-3.928999901E-1
3.684200000E1,-4.896999896E-1,3.685199976E0,-5.299999844E-3
3.686200000E1,-5.870000124E-1,2.136699915E0,3.867000043E-1
3.688200000E1,2.997999787E-1,2.746999860E-1,1.572399974E0
3.690200000E1,1.225299954E0,6.367999911E-1,3.891199827E0
3.692200000E1,3.375999928E-1,8.109999895E-1,3.267599821E0
3.694200000E1,-1.520099998E0,-1.642999947E-1,2.320999861E0
3.696200000E1,-1.929399967E0,-1.059399962E0,2.576599836E0
3.698200000E1,-3.463099957E0,-2.214499950E0,7.048599720E0
3.700200000E1,-3.804199934E0,-4.063300133E0,1.150209999E1
3.702200000E1,-1.853799939E0,-5.012300014E0,9.269199371E0
3.704200000E1,-1.579999924E0,-3.706300020E0,5.176799774E0
3.706200000E1,-1.604299903E0,-2.749599934E0,4.540499687E0
3.708200000E1,-2.194499969E0,-5.177799702E0,7.720899582E0
3.710200000E1,-2.705299854E0,-3.578699827E0,1.138879967E1
3.712200000E1,1.498000026E-1,-3.405999899E0,1.078649998E1
3.714200156E1,-1.989999972E-2,-5.595499992E0,-2.075000048E0
3.717200000E1,7.361999750E-1,-9.527699471E0,-6.213699818E0
3.719200000E1,1.924699903E0,-9.012399673E0,-6.489599705E0
3.721200000E1,1.976799965E0,-5.006499767E0,-4.138700008E0
3.723200000E1,3.710199833E0,-3.206300020E0,8.839399338E0
3.725200000E1,2.307499886E0,-1.734899998E0,-2.494499922E0
3.727200000E1,5.900999904E-1,-2.610000074E-1,-4.480099678E0
3.729200000E1,-4.407999814E-1,9.630999565E-1,-4.301300049E0
3.731200000E1,-7.690999508E-1,2.295799971E0,-5.489899635E0
3.733200000E1,-5.864999890E-1,4.000499725E0,-5.470900059E0
3.735200000E1,-1.424700022E0,4.756899834E0,-6.224999905E0
3.737200000E1,-1.895099998E0,6.253399849E0,-8.123000145E0
3.739200000E1,-1.555699944E0,7.351199627E0,-9.735499382E0
3.741200000E1,-1.307999969E0,7.998999596E0,-1.011009979E1
3.743200000E1,-8.032000065E-1,8.119799614E0,-8.911700249E0
3.745200000E1,-1.067000031E0,7.950500011E0,-5.787699699E0
3.747200000E1,-2.816799879E0,5.756399632E0,-2.657399893E0
3.749200000E1,-6.489999890E-1,2.125999928E-1,3.543699980E0
3.751200000E1,7.726199627E0,-1.313879967E1,2.623509979E1
3.753200000E1,8.952099800E0,-2.115460014E1,2.179459953E1
3.755200000E1,1.547699928E0,-4.431499958E0,4.340099812E0
3.757200000E1,-6.155999899E-1,4.414799690E0,-3.610299826E0
3.759200000E1,6.021999717E-1,2.809799910E0,-3.471299887E0
3.761200000E1,-5.640999675E-1,-3.192999840E0,-2.007789993E1
3.763200000E1,9.047999978E-1,-3.882499933E0,-1.445959949E1
3.765200000E1,2.213599920E0,-5.260900021E0,1.217109966E1
3.767200000E1,4.162099838E0,4.770400047E0,-8.791299820E0
3.769200000E1,4.435899734E0,2.643899918E0,-9.044099808E0
3.771200156E1,1.318899989E0,-5.776000023E-1,-7.853399754E0
3.774200000E1,-2.019199848E0,-4.898999929E-1,-4.043499947E0
3.776200000E1,-2.640799999E0,-1.536999941E-1,-7.850999832E-1
3.778200156E1,-3.803299904E0,3.368999958E-1,-4.838999808E-1
3.781200000E1,-3.734499931E0,-1.855999976E-1,4.100299835E0
3.783200000E1,-1.949699998E0,8.976999521E-1,2.526700020E0
3.785200000E1,-1.850199938E0,1.608199954E0,1.762699962E0
3.787200000E1,-9.944999814E-1,1.741999984E0,1.860299945E0
3.789200000E1,5.895999670E-1,1.034299970E0,1.627699971E0
3.791200000E1,1.171000004E0,1.026000008E-1,6.683999896E-1
3.793200000E1,5.016999841E-1,-1.664999962E0,2.832499981E0
3.795200000E1,-1.263800025E0,-1.688199997E0,6.544299603E0
3.797200000E1,-3.345299959E0,-1.084999919E0,1.067999935E1
3.799200000E1,-5.644799709E0,-4.847799778E0,9.304299355E0
3.801200000E1,-5.421299934E0,-6.220900059E0,7.232499599E0
3.803200000E1,-3.205099821E0,-2.407099962E0,7.068799973E0
3.805200000E1,-1.759299994E0,-8.452000022E-1,6.746099949E0
3.807200000E1,-9.648000002E-1,-1.845899940E0,8.215799332E0
3.809200000E1,-1.419099927E0,-3.038199902E0,7.735899925E0
3.811200000E1,-8.675000072E-1,-4.233099937E0,3.837899923E0
3.813200156E1,-6.402999759E-1,-6.761099815E0,-3.634599924E0
3.816200000E1,2.431999892E-1,-1.006069946E1,-5.229700089E0
3.818200000E1,1.667699933E0,-9.685599327E0,-6.544099808E0
3.820200000E1,2.519799948E0,-4.778100014E0,-5.458799839E0
3.822200000E1,6.120199680E0,-3.231799841E0,9.059299469E0
3.824200000E1,2.996599913E0,1.244999990E-1,-4.915999770E-1
3.826200000E1,9.774999619E-1,1.277599931E0,-3.474799871E0
3.828200000E1,1.966999918E-1,3.001999855E0,-4.335700035E0
3.830200000E1,-1.365899920E0,4.964600086E0,-4.859099865E0
3.832200000E1,-1.726699948E0,5.144299984E0,-5.087399960E0
3.834200000E1,-2.085700035E0,4.335499763E0,-5.389699936E0
3.836200000E1,-2.628199816E0,4.041500092E0,-8.264900208E0
3.838200000E1,-2.887300014E0,4.756199837E0,-1.101359940E1
3.840200000E1,-7.270000130E-2,5.343400002E0,-1.141749954E1
3.842200000E1,1.606299996E0,6.655999660E0,-8.780799866E0
3.844200000E1,9.704999924E-1,7.082599640E0,-5.117000103E0
3.846200000E1,-3.610999882E-1,5.926799774E0,-1.557199955E0
3.848200000E1,-1.276399970E0,2.166699886E0,4.027800083E0
3.850200000E1,3.453799963E0,-7.100999832E0,1.717930031E1
3.852200000E1,5.960700035E0,-1.914130020E1,2.794269943E1
3.854200000E1,2.545300007E0,-9.483599663E0,1.040089989E1
3.856200000E1,1.282299995E0,7.274999619E-1,-5.928400040E0
3.858200000E1,3.623199940E0,1.705599904E0,-6.478999853E-1
3.860200000E1,-1.446999907E-1,-1.966099977E0,-5.713299751E0
3.862200000E1,-1.274500012E0,-4.656199932E0,-1.131919956E1
3.864200000E1,-2.128900051E0,8.209999651E-2,6.316999793E-1
3.866200000E1,2.718999863E0,4.921400070E0,-1.169259930E1
3.868200000E1,3.656799793E0,3.819700003E0,-9.322099686E0
3.870200000E1,2.613699913E0,-9.781000018E-1,-4.159100056E0
3.872200000E1,5.313000083E-1,-3.135499954E0,-8.053699493E0
3.874200000E1,-1.760499954E0,-3.082299948E0,-5.532599926E0
3.876200000E1,-4.224299908E0,-1.532499909E0,-1.062399983E0
3.878200000E1,-6.129999638E0,1.157799959E0,6.665899754E0
3.880200000E1,-3.049700022E0,2.876999974E-1,3.839399815E0
3.882200000E1,-2.267699957E0,1.522599936E0,1.432600021E0
3.884200000E1,-2.230000019E0,2.197099924E0,5.904999971E-1
3.886200000E1,-9.135999680E-1,1.868099928E0,7.739999890E-1
3.888200000E1,-1.340000033E-1,1.083400011E0,1.545599937E0
3.890200000E1,1.482499957E0,6.669999957E-1,3.771600008E0
3.892200000E1,2.190299988E0,-2.382999957E-1,5.524499893E0
3.894200000E1,-4.779999703E-2,-7.155999541E-1,5.962800026E0
3.896200000E1,-1.599200010E0,-1.255699992E0,4.408499718E0
3.898200000E1,-2.483599901E0,-6.256999969E-1,5.420899868E0
3.900200000E1,-1.845499992E0,-2.090499878E0,6.206500053E0
3.902200000E1,-6.772999763E-1,-3.433099985E0,5.844099998E0
3.904200000E1,-1.158999920E0,-3.820999861E0,5.483999729E0
3.906200000E1,-2.735699892E0,-4.200299740E0,4.669399738E0
3.908200000E1,-3.759099960E0,-5.726500034E0,5.127099991E0
3.910200000E1,-3.945699930E0,-5.375599861E0,1.178989983E1
3.912200000E1,-2.442999929E-1,-4.307899952E0,1.426439953E1
3.914200000E1,1.015100002E0,-4.472199917E0,1.001500010E0
3.916200000E1,-2.793000042E-1,-5.442100048E0,-8.076399803E0
3.918200000E1,9.715999961E-1,-7.449800014E0,-8.017499924E0
3.920200000E1,1.733299971E0,-7.423499584E0,-5.946099758E0
3.922200000E1,5.514999866E0,-6.651499748E0,1.212979984E1
3.924200000E1,2.319900036E0,-1.608899951E0,1.874799967E0
3.926200000E1,-1.306699991E0,-4.438000023E-1,-5.242700100E0
3.928200000E1,-2.605900049E0,1.021499991E0,-4.951900005E0
3.930200000E1,-8.752999902E-1,2.154000044E0,-3.889899969E0
3.932200000E1,-5.830000043E-1,3.198199987E0,-3.831499815E0
3.934200000E1,-3.114999831E-1,4.492599964E0,-5.582299709E0
3.936200000E1,-5.073999763E-1,4.573899746E0,-7.387599945E0
3.938200000E1,-3.181000054E-1,4.919499874E0,-9.653900146E0
3.940200000E1,-3.497000039E-1,5.615399837E0,-9.135499954E0
3.942200000E1,1.367999911E-1,5.318199635E0,-8.979599953E0
3.944200000E1,7.213000059E-1,5.857100010E0,-8.374300003E0
3.946200000E1,3.516999781E-1,7.055099964E0,-5.259399891E0
3.948200000E1,-1.162699938E0,6.418799877E0,-1.793799996E0
3.950200000E1,-1.037299991E0,1.941899896E0,6.973499775E0
3.952200000E1,5.322599888E0,-6.052599907E0,2.023629951E1
3.954200000E1,6.665400028E0,-1.223269939E1,1.810549927E1
3.956200000E1,4.704299927E0,-6.024499893E0,6.188299656E0
3.958200000E1,2.240099907E0,-2.199999988E-1,-3.562299967E0
3.960200000E1,2.777899981E0,-6.990000010E-1,-3.112999916E0
3.962200000E1,-1.643999964E-1,-2.981299877E0,-1.404609966E1
3.964200156E1,1.515200019E0,-4.919300079E0,-9.179399490E0
3.967200000E1,4.028800011E0,1.273999929E0,-1.208500028E0
3.969200000E1,2.539599895E0,4.518799782E0,-1.199699974E1
3.971200000E1,1.069399953E0,1.798099995E0,-7.299299717E0
3.973200000E1,-7.819999754E-2,-1.149899960E0,-8.548500061E0
3.975200000E1,-1.280699968E0,-1.699199915E0,-4.875999928E0
3.977200000E1,-3.172899961E0,-1.231699944E0,-3.726999760E-1
3.979200000E1,-4.780200005E0,2.748000026E-1,3.953599930E0
3.981200000E1,-1.746899962E0,-9.657999873E-1,2.727699995E0
3.983200000E1,-2.377000004E-1,-1.307999939E-1,-2.809999883E-2
3.985200000E1,-8.511999846E-1,1.372599959E0,8.869999647E-1
3.987200000E1,-8.314999938E-1,2.233099937E0,1.051599979E0
3.989200000E1,-5.001000166E-1,2.257099867E0,2.384999990E0
3.991200000E1,-8.483999968E-1,1.348599911E0,2.590999842E0
3.993200000E1,-1.456699967E0,7.532999516E-1,2.385900021E0
3.995200000E1,-1.527999997E0,6.026999950E-1,3.925299883E0
3.997200000E1,-1.111999989E0,-3.121999800E-1,5.039999962E0
3.999200000E1,-1.735399961E0,-1.269400001E0,5.955499649E0
4.001200000E1,-2.701699972E0,-2.721599817E0,5.428199768E0
4.003200000E1,-2.761299849E0,-3.751399994E0,5.419099808E0
4.005200000E1,-1.397199988E0,-4.006099701E0,7.383800030E0
4.007200000E1,-1.023299932E0,-3.950999975E0,6.303400040E0
4.009200000E1,-1.439399958E0,-3.927299976E0,5.327499866E0
4.011200000E1,-2.339299917E0,-5.104199886E0,7.436599731E0
4.013200313E1,-3.526700020E0,-3.878399849E0,1.166879940E1
4.016200000E1,-2.277899981E0,-2.975299835E0,6.171899796E0
4.018200000E1,-2.055399895E0,-5.288099766E0,-1.546999931E0
4.020200000E1,-8.404999971E-1,-6.967499733E0,-5.445199966E0
4.022200000E1,8.729999661E-1,-7.993999958E0,-5.396999836E0
4.024200000E1,2.016399860E0,-6.151099682E0,-2.228299856E0
4.026200000E1,4.579899788E0,-5.797899723E0,7.648099899E0
4.028200000E1,2.296000004E0,-3.026599884E0,-2.572599888E0
4.030200000E1,2.105000019E-1,-6.304999590E-1,-3.202499866E0
4.032200000E1,-1.825999916E-1,3.427000046E-1,-3.578099966E0
4.034200000E1,-5.099999905E-2,1.128600001E0,-4.838200092E0
4.036200000E1,3.255999982E-1,2.853699923E0,-5.323999882E0
4.038200000E1,-1.497000009E-1,3.688399792E0,-5.662799835E0
4.040200000E1,-9.458999634E-1,5.014299870E0,-7.367499828E0
4.042200000E1,-1.006399989E0,6.067899704E0,-8.313799858E0
4.044200000E1,-6.056999564E-1,7.155599594E0,-9.844099998E0
4.046200000E1,-5.873999596E-1,8.111000061E0,-9.873499870E0
4.048200000E1,-3.190999925E-1,8.438799858E0,-7.248399734E0
4.050200000E1,-5.286999941E-1,6.991600037E0,-4.006700039E0
4.052200000E1,-1.367599964E0,4.435499668E0,-7.829999924E-2
4.054200000E1,2.767599821E0,-2.199399948E0,8.742599487E0
4.056200000E1,8.895699501E0,-1.610729980E1,2.651129913E1
4.058200000E1,5.981599808E0,-1.467910004E1,1.465599918E1
4.060200000E1,7.432999611E-1,-2.511800051E0,-1.649999917E-1
4.062200000E1,-1.434499979E0,4.296799660E0,-6.794999838E-1
4.064200000E1,-1.798299909E0,2.347199917E0,-4.624899864E0
4.066200000E1,-1.377799988E0,-1.859299898E0,-1.417369938E1
4.068200000E1,2.143199921E0,-2.881199837E0,-8.916600227E0
4.070200000E1,3.875899792E0,-2.580299854E0,6.041999817E0
4.072200156E1,3.012499809E0,1.832499981E0,-6.185400009E0
4.075200000E1,-3.200999796E-1,-1.132300019E0,-8.837900162E0
4.077200000E1,-1.865299940E0,-2.089200020E0,-8.229299545E0
4.079200000E1,-3.491799831E0,-1.332499981E0,-4.625499725E0
4.081200000E1,-4.087800026E0,-4.239999950E-1,-1.385599971E0
4.083200000E1,-2.912299871E0,2.676999867E-1,9.955999851E-1
4.085200000E1,-1.792499900E0,2.635099888E0,2.350199938E0
4.087200000E1,-5.285999775E-1,4.751800060E0,6.861099720E0
4.089200000E1,6.107000113E-1,2.258599997E0,3.008899927E0
4.091200000E1,7.696999907E-1,3.791999817E-1,1.272400022E0
4.093200000E1,1.047299981E0,-5.669999868E-2,2.023399830E0
4.095200000E1,1.513299942E0,1.141999960E-1,5.257599831E0
4.097200000E1,-1.123199940E0,-4.873999953E-1,5.403999805E0
4.099200000E1,-2.652499914E0,-2.060600042E0,4.037499905E0
4.101200000E1,-3.279699802E0,-1.362200022E0,4.504600048E0
4.103200000E1,-2.760599852E0,-2.375999987E-1,4.663199902E0
4.105200000E1,1.401000023E-1,-2.232300043E0,5.791100025E0
4.107200000E1,1.768299937E0,-5.198999882E0,6.921700001E0
4.109200000E1,-7.583999634E-1,-4.870699883E0,5.110699654E0
4.111200000E1,-3.190099955E0,-3.935299873E0,4.478199959E0
4.113200000E1,-4.913199902E0,-5.764599800E0,6.528599739E0
4.115200156E1,-5.746999741E0,-4.725299835E0,1.169749928E1
4.118200000E1,-8.552999496E-1,-2.725999832E0,7.295599937E0
4.120200000E1,-8.349999785E-2,-4.170899868E0,-4.681399822E0
4.122200156E1,8.307999969E-1,-5.377999783E0,-6.885699749E0
4.125200000E1,2.180999994E0,-7.363199711E0,-4.539599895E0
4.127200000E1,5.962699890E0,-8.560500145E0,1.109669971E1
4.129200000E1,3.181699991E0,-3.993399858E0,-7.712999582E-1
4.131200000E1,5.350000039E-2,-1.119400024E0,-3.613699913E0
4.133200000E1,-1.585299969E0,3.876000047E-1,-3.786700010E0
4.135200000E1,-1.551299930E0,1.633399963E0,-4.094500065E0
4.137200000E1,3.770999908E-1,3.268199921E0,-5.107999802E0
4.139200000E1,7.531999946E-1,3.955099821E0,-5.214799881E0
4.141200000E1,-3.039999902E-1,4.499300003E0,-6.285599709E0
4.143200000E1,-1.181699991E0,5.983799934E0,-7.550899982E0
4.145200000E1,-1.052199960E0,6.423399925E0,-9.301499367E0
4.147200000E1,-8.279999495E-1,6.848399639E0,-9.613599777E0
4.149204844E1,-8.404999971E-1,6.928599834E0,-7.467899799E0
4.152200000E1,-9.375999570E-1,6.411599636E0,-3.036700010E0
4.154200000E1,-1.052999973E0,3.291899920E0,5.292999744E-1
4.156200000E1,1.926799893E0,-3.421599865E0,9.536099434E0
4.158200000E1,7.184299946E0,-1.638069916E1,2.275289917E1
4.160200000E1,3.850899935E0,-1.269950008E1,1.323899937E1
4.162200000E1,5.133999586E-1,-2.139299870E0,-9.261999726E-1
4.164200156E1,9.734999537E-1,1.097199917E0,3.457999825E-1
4.167200000E1,2.039399862E0,-4.789499760E0,-1.347179985E1
4.169200000E1,2.553200006E0,-1.685699940E0,-1.139519978E1
4.171200156E1,2.344699860E0,4.606800079E0,1.176299930E0
4.174200000E1,2.220399857E0,3.940499783E0,-8.958000183E0
4.176200000E1,2.266999960E0,-1.270399928E0,-6.663899899E0
4.178200156E1,-3.237999976E-1,-1.972700000E0,-7.449100018E0
4.181200000E1,-2.990000010E0,-1.313300014E0,-3.331699848E0
4.183200000E1,-4.231199741E0,-7.652999759E-1,-3.789999783E-1
4.185200156E1,-3.953099966E0,-2.626999915E-1,3.538100004E0
4.188200000E1,-2.553400040E0,1.081699967E0,2.709100008E0
4.190200000E1,-2.371599913E0,1.197999954E0,8.389999866E-1
4.192200156E1,-1.649199963E0,1.751599908E0,-8.479999751E-2
4.195200000E1,1.806999892E-1,1.696200013E0,2.136999846E0
4.197200000E1,2.649999857E0,2.069000006E-1,5.592599869E0
4.199200156E1,6.958000064E-1,-1.420999914E-1,5.797800064E0
4.202200000E1,-1.466099977E0,-2.454799891E0,2.894999981E0
4.204200000E1,-2.281499863E0,-2.179100037E0,3.851499796E0
4.206200156E1,-2.882599831E0,-2.474999905E0,8.263999939E0
4.209200000E1,-2.027099848E0,-4.636399746E0,8.345799446E0
4.211200000E1,-2.972499847E0,-4.050300121E0,5.326399803E0
4.213200000E1,-2.630199909E0,-3.298199892E0,7.162899971E0
4.215200000E1,-2.670099974E0,-4.880899906E0,9.270799637E0
4.217200000E1,-2.381000042E0,-3.480999947E0,1.269149971E1
4.219200000E1,-1.665799975E0,-3.536299944E0,6.053799629E0
4.221200156E1,-2.366699934E0,-6.002699852E0,-5.301199913E0
4.224200000E1,-1.242999956E-1,-9.432799339E0,-5.776999950E0
4.226200000E1,1.245100021E0,-9.023099899E0,-5.914999962E0
4.228200000E1,3.853899956E0,-6.761799812E0,2.175999880E-1
4.230200000E1,5.768599987E0,-4.443699837E0,5.587999821E0
4.232200000E1,1.738199949E0,-7.479000092E-1,-9.404000044E-1
4.234200000E1,-2.577999830E-1,8.928999901E-1,-4.373300076E0
4.236200000E1,-5.090999603E-1,2.833199978E0,-5.365699768E0
4.238200000E1,-1.805000007E-1,5.512399673E0,-6.168200016E0
4.240200000E1,-5.056999922E-1,5.769199848E0,-6.484999657E0
4.242200156E1,-1.031099916E0,5.518899918E0,-7.197099686E0
4.245200000E1,-8.112999797E-1,5.625699997E0,-1.018629932E1
4.247200000E1,1.899999939E-2,5.880300045E0,-1.027729988E1
4.249200000E1,9.021999836E-1,6.359699726E0,-9.909199715E0
4.251200000E1,8.210999966E-1,6.989299774E0,-6.109899998E0
4.253200000E1,-6.107000113E-1,5.399199963E0,-2.472800016E0
4.255200000E1,-1.008999944E-1,6.922000051E-1,4.709700108E0
4.257200000E1,6.140100002E0,-9.452799797E0,2.198970032E1
4.259200000E1,7.000299931E0,-1.831809998E1,2.147089958E1
4.261200000E1,3.407500029E0,-5.812099934E0,4.240399837E0
4.263200000E1,1.477999985E-1,3.607699871E0,-3.088099957E0
4.265200000E1,-1.160999984E-1,4.197599888E0,-4.877099991E0
4.267200000E1,-6.503999829E-1,-1.971499920E0,-2.053769875E1
4.269200000E1,1.729799986E0,-4.110399723E0,-1.549989986E1
4.271200156E1,4.130599976E0,-6.769799709E0,1.068729973E1
4.274200000E1,1.302699924E0,2.518299818E0,-1.188259983E1
4.276200000E1,-1.724999994E-1,4.737999737E-1,-1.137829971E1
4.278200000E1,-7.382000089E-1,-8.539999723E-1,-7.403100014E0
4.280200000E1,-1.131899953E0,-6.685999632E-1,-2.708499908E0
