"Time (s)","Linear Acceleration x (m/s^2)","Linear Acceleration y (m/s^2)","Linear Acceleration z (m/s^2)"
1.400156200E-2,4.066699982E0,7.664999962E-1,6.043999791E-1
4.400000000E-2,5.380799770E0,9.529999495E-1,3.141000032E0
6.400000000E-2,4.605099678E0,1.655000001E-1,2.108500004E0
8.400156200E-2,3.799799919E0,-1.986999959E-1,1.466699958E0
1.040125000E-1,3.253499985E0,1.129999980E-1,1.238799930E0
1.340000000E-1,2.704999924E0,1.100999951E0,1.465099931E0
1.540125000E-1,2.423199892E0,1.186100006E0,1.840799928E0
1.840015620E-1,2.323299885E0,-9.599999525E-3,1.468099952E0
2.040125000E-1,2.083600044E0,-3.980000019E-1,2.036700010E0
2.340015620E-1,2.087100029E0,1.757999957E-1,1.897599936E0
2.540125000E-1,1.956399918E0,1.232999921E0,1.751999974E0
2.840015620E-1,2.569999933E0,8.540999889E-1,1.103999987E-1
3.040078120E-1,1.639400005E0,-1.058300018E0,-1.537999958E-1
3.340000000E-1,1.334699988E0,-2.269999981E0,1.192099929E0
3.540140620E-1,1.724599957E0,-2.190899849E0,3.085999787E-1
3.840000000E-1,2.039299965E0,-1.498299956E0,-7.990999818E-1
4.040031250E-1,3.195899963E0,-9.451999664E-1,-7.439000010E-1
4.340000000E-1,1.766299963E0,-1.172099948E0,-1.560199976E0
4.540062500E-1,1.965599895E0,-1.493499994E0,1.378700018E0
4.840000000E-1,3.944299936E0,3.953999877E-1,-3.092399836E0
5.040078120E-1,3.678900003E0,-1.088699937E0,-5.093699932E0
5.340015620E-1,2.524899960E0,-3.194499969E0,-5.815799713E0
5.540062500E-1,2.613499880E0,-3.131599903E0,-3.676299810E0
5.840015620E-1,-3.985599995E0,-2.187000036E0,-4.026499748E0
6.140000000E-1,-1.433599949E0,-2.665400028E0,-7.361399651E0
6.340000000E-1,-1.444700003E0,-2.393800020E0,-7.118000031E0
6.540000000E-1,-1.725099921E0,-3.295099974E0,-9.514200211E0
6.740000000E-1,-2.184599876E0,-3.790799856E0,-8.397299767E0
6.940015620E-1,-2.480299950E0,-4.875599861E0,-7.137099743E0
7.240015620E-1,-1.445000023E-1,-8.415599823E0,-5.303799629E0
7.540000000E-1,4.968599796E0,-9.467999458E0,2.595099926E0
7.740015620E-1,7.375399590E0,-6.916499615E0,9.028599739E0
7.940015620E-1,8.913700104E0,-5.664399624E0,9.590199471E0
8.240000000E-1,1.062930012E1,-4.259999752E0,1.138129997E1
8.440000000E-1,1.138239956E1,-5.057499886E0,1.242339993E1
8.640000000E-1,1.127709961E1,-4.912499905E0,1.326939964E1
8.840015620E-1,1.186100006E1,-2.373699903E0,1.010439968E1
9.140000000E-1,9.950900078E0,1.024999991E-1,4.671199799E0
9.340000000E-1,6.993999958E0,3.391000032E-1,4.641099930E0
9.540015620E-1,5.232999802E0,-6.430000067E-2,4.201399803E0
9.840000000E-1,3.527999878E0,-6.620000005E-1,8.022999763E-1
1.004000000E0,3.326999903E0,4.702000022E-1,9.726999998E-1
1.024000000E0,4.135900021E0,1.071499944E0,-3.942999840E-1
1.044000000E0,1.454100013E0,3.026999831E-1,-1.727000028E-1
1.064000000E0,2.154999971E0,1.880499959E0,6.668999791E-1
1.084001562E0,1.973399997E0,8.701999784E-1,-4.539999738E-2
1.114000000E0,4.223199844E0,3.417999983E0,2.620100021E0
1.134000000E0,3.727999926E0,3.836299896E0,5.678599834E0
1.154001562E0,-1.400299907E0,6.612699986E0,-4.152400017E0
1.184000000E0,-8.240000010E-1,6.444499969E0,-1.038499951E0
1.204000000E0,1.599999960E-3,5.382699966E0,2.113999873E-1
1.224001562E0,6.013700008E0,6.914700031E0,5.445699692E0
1.254000000E0,1.624699950E0,4.328599930E0,1.183399916E0
1.274000000E0,2.154599905E0,3.470899820E0,-1.243600011E0
1.294001562E0,7.396000028E-1,2.710500002E0,-4.541599751E0
1.324000000E0,2.415400028E0,6.994999647E-1,-1.044499993E0
1.344000000E0,1.030499935E0,-2.501600027E0,3.668999970E-1
1.364000000E0,1.165999994E-1,-4.100599766E0,-6.190999746E-1
1.384000000E0,1.832799911E0,-4.255300045E0,-4.734999835E-1
1.404000000E0,4.018099785E0,-4.933099747E0,1.395499945E0
1.424000000E0,6.870999932E-1,-7.332900047E0,1.892399907E0
1.444001562E0,-2.173599958E0,-9.422399521E0,7.282999754E-1
1.474000000E0,-1.392099977E0,-7.059399605E0,-2.908399820E0
1.494000000E0,1.703699946E0,-3.715399981E0,-1.899799943E0
1.514001562E0,-4.339999706E-2,-4.548799992E0,-6.854999661E-1
1.544000000E0,-2.098599911E0,-4.053899765E0,7.026999593E-1
1.564000000E0,1.747999936E-1,-2.290599823E0,1.393100023E0
1.584000000E0,-1.404799938E0,-1.812999964E0,2.244899988E0
1.604000000E0,-3.930399895E0,-2.918799877E0,2.043900013E0
1.624000000E0,-7.157799721E0,-5.518799782E0,5.357800007E0
1.644000000E0,-5.785399914E0,-5.536299706E0,5.267699718E0
1.664001562E0,-2.388399839E0,-4.251199722E0,4.666199684E0
1.694000000E0,8.348299980E0,5.914700031E0,-3.590999842E0
1.714000000E0,3.284899950E0,2.881799936E0,5.016799927E0
1.734000000E0,-6.915999651E-1,4.609399796E0,4.195199966E0
1.754000000E0,4.473999739E-1,2.802899837E0,-6.474699974E0
1.774000000E0,6.213399887E0,4.139100075E0,-1.181579971E1
1.794001562E0,4.035200119E0,4.617000103E0,-1.174440002E1
1.824000000E0,3.504999876E-1,7.678999901E-1,1.670050049E1
1.844000000E0,1.089499950E0,-5.688299656E0,5.181600094E0
1.864000000E0,2.966399908E0,-8.118399620E0,1.504309940E1
1.884000000E0,4.757899761E0,1.572600007E0,3.189399958E0
1.904000000E0,1.538100004E0,4.583899975E0,-8.871500015E0
1.924000000E0,1.937599897E0,8.738999963E-1,-8.939099312E0
1.944001562E0,6.220699787E0,5.397999883E-1,-1.470600009E0
1.974000000E0,2.782699823E0,-1.290799975E0,-1.011940002E1
1.994000000E0,4.605000019E-1,-4.751599789E0,-1.210540009E1
2.014001562E0,1.492900014E0,-4.700099945E0,-8.035200119E0
2.044000000E0,1.067700028E0,2.291399956E0,-5.976899624E0
2.064000000E0,-3.621000051E-1,9.533999562E-1,-5.544499874E0
2.084001562E0,-2.316000015E-1,8.454999924E-1,-2.354199886E0
2.114000000E0,-2.655599833E0,-1.286700010E0,-8.628000021E-1
2.134000000E0,-1.260200024E0,1.818300009E0,-3.619999886E-1
2.154001562E0,-4.702999890E-1,4.359999657E0,4.932399750E0
2.184000000E0,-1.359300017E0,3.919499874E0,4.350000024E-1
2.204000000E0,-1.534199953E0,4.503200054E0,-2.982699871E0
2.224001562E0,1.489999890E-1,5.177000046E0,-2.639699936E0
2.254000000E0,2.120999992E-1,4.880099773E0,1.885899901E0
2.274000000E0,8.955000043E-1,5.324299812E0,-5.602999926E-1
2.294001562E0,2.304899931E0,-2.630000003E-2,-1.121599913E0
2.324000000E0,-2.789099932E0,-1.439379978E1,-2.142299891E0
2.344000000E0,-5.678499699E0,-2.826249886E1,-1.821999997E-1
2.364000000E0,2.453699827E0,-1.265609932E1,4.254799843E0
2.384001562E0,3.463500023E0,9.922999740E-1,5.648099899E0
2.414000000E0,-7.690999508E-1,2.287400007E0,3.675299883E0
2.434000000E0,-2.414799929E0,-1.700599909E0,1.254999995E0
2.454001562E0,-1.620199919E0,-3.541199923E0,3.801399946E0
2.474001562E0,-4.860999882E-1,-3.664299965E0,5.926599979E0
2.504000000E0,7.968999743E-1,-3.150899887E0,4.344199657E0
2.524000000E0,5.238999724E-1,-4.101399899E0,1.005299926E0
2.544000000E0,1.435899973E0,-4.484499931E0,-3.601799965E0
2.564000000E0,2.116299868E0,-5.598299980E0,-4.760699749E0
2.584001562E0,4.564599991E0,-5.855899811E0,-1.904099941E0
2.614000000E0,6.781199932E0,-1.803099990E0,1.598399997E0
2.634000000E0,6.805299759E0,7.795999646E-1,3.332999945E-1
2.654001562E0,5.153899670E0,1.484399915E0,-2.668999910E0
2.684001562E0,3.378700018E0,2.096699953E0,-4.950500011E0
2.714000000E0,3.411499977E0,2.256099939E0,-3.421700001E0
2.734015625E0,3.349200010E0,1.805999994E0,-3.049399853E0
2.764000000E0,3.512899876E0,2.452699900E0,-3.974399805E0
2.784015625E0,4.366600037E0,3.684199810E0,-5.184099674E0
2.814000000E0,4.949599743E0,5.269199848E0,-5.582200050E0
2.834012500E0,4.382999897E0,5.789199829E0,-4.996999741E0
2.864000000E0,4.011600018E0,5.539000034E0,-4.220399857E0
2.884004687E0,2.701699972E0,3.690199852E0,-2.978199959E0
2.914000000E0,-7.772500038E0,-5.079999924E0,1.610729980E1
2.934004687E0,-8.930500031E0,-9.403499603E0,7.695799828E0
2.964000000E0,-8.625599861E0,-9.750599861E0,4.596799850E0
2.984009375E0,-7.487899780E0,-6.114399910E0,8.283800125E0
3.014001562E0,4.960299969E0,-2.140199900E0,-3.350299835E0
3.034015625E0,7.466099739E0,-3.868499994E0,-5.045399666E0
3.064000000E0,8.995299339E0,-2.444099903E0,-2.675299883E0
3.084007812E0,5.879199982E0,2.328699827E0,-2.724400043E0
3.114000000E0,9.629399300E0,8.229299545E0,-8.781999946E-1
3.134014062E0,5.592400074E0,4.618199825E0,-5.677999854E-1
3.164000000E0,3.983999968E0,9.150999784E-1,-3.334399939E0
3.184000000E0,3.451499939E0,-1.343599916E0,-5.424999714E0
3.204000000E0,1.090199947E0,-2.630699873E0,-4.970599651E0
3.224001562E0,-1.021199942E0,-1.740899920E0,-6.139999628E-1
3.244001562E0,-2.460999966E0,1.982000023E-1,3.380399942E0
3.264001562E0,-2.754199982E0,8.652999997E-1,-1.719999909E-1
3.284001562E0,-1.556899905E0,1.290699959E0,-3.906799793E0
3.304001562E0,-1.292400002E0,1.207199931E0,-2.431599855E0
3.334000000E0,-3.058999777E-1,-4.844999909E-1,9.068999887E-1
3.354000000E0,2.404999882E-1,4.271999896E-1,1.010900021E0
3.374001562E0,-9.208999872E-1,-5.439999700E-2,7.695999742E-1
3.404000000E0,-1.945599914E0,-1.947199941E0,3.075699806E0
3.424000000E0,-1.922999918E-1,-8.944999576E-1,4.465499878E0
3.444001562E0,1.113600016E0,-1.859000027E-1,3.807999849E0
3.474001562E0,-3.358299971E0,-1.854099989E0,1.771999896E-1
3.504000000E0,-6.347399712E0,-3.141299963E0,3.164299965E0
3.524001562E0,-3.149999857E0,-1.691599965E0,5.137899876E0
3.554000000E0,5.536000133E-1,-4.328999996E0,5.812900066E0
3.574000000E0,1.385900021E0,-5.823100090E0,7.336899757E0
3.594001562E0,8.352999687E-1,-1.701099992E0,5.500599861E0
3.624000000E0,-2.005899906E0,-1.141099930E0,-3.694999814E-1
3.644000000E0,-2.524199963E0,-4.235099792E0,-1.833899975E0
3.664001562E0,8.349999785E-2,-6.294899940E0,-3.313400030E0
3.694000000E0,5.351999760E0,-7.055199623E0,1.751699924E0
3.714000000E0,8.252599716E0,-2.253599882E0,3.658399820E0
3.734001562E0,8.308499336E0,6.886000037E-1,-1.799999923E-2
3.764000000E0,3.717099905E0,1.868199944E0,-5.595099926E0
3.784000000E0,1.804299951E0,2.414899826E0,-6.096899986E0
3.804001562E0,1.045899987E0,2.279500008E0,-4.215799809E0
3.834000000E0,1.520299911E0,1.876500010E0,-2.981899977E0
3.854000000E0,2.043999910E0,2.159600019E0,-4.011300087E0
3.874001562E0,2.502399921E0,3.036000013E0,-4.654099941E0
3.904000000E0,5.190399647E0,4.627599716E0,-4.579299927E0
3.924000000E0,6.520699978E0,5.533699989E0,-4.757999897E0
3.944001562E0,6.585799694E0,6.051099777E0,-4.956599712E0
3.974000000E0,4.135799885E0,4.714900017E0,-2.555999994E0
3.994000000E0,8.109999448E-2,7.821999788E-1,8.783999681E-1
4.014000000E0,-5.080599785E0,-4.851200104E0,9.777400017E0
4.034000000E0,-6.809999943E0,-1.141919994E1,1.109569931E1
4.054001562E0,-7.010699749E0,-1.043869972E1,4.566999912E0
4.074001562E0,-7.152999878E0,-4.438999653E0,5.834099770E0
4.104000000E0,1.525200009E0,1.413200021E0,2.159999907E-1
4.124000000E0,7.549499989E0,-1.063400030E0,-6.147699833E0
4.144001562E0,7.457799911E0,-4.350100040E0,-4.877399921E0
4.164001562E0,1.527180004E1,-9.962200165E0,-7.196499825E0
4.194000000E0,5.464600086E0,2.838399887E0,-6.768000126E-1
4.214000000E0,5.199800014E0,6.673799992E0,-1.163200021E0
4.234001562E0,4.024799824E0,6.544899940E0,-3.646099806E0
4.264000000E0,2.436699867E0,2.699899912E0,-4.604899883E0
4.284000000E0,1.096699953E0,-2.198600054E0,-2.745800018E0
4.304000000E0,-1.230199933E0,-4.432300091E0,1.087000012E0
4.324000000E0,-2.273099899E0,-1.261399984E0,5.881499767E0
4.344000000E0,-1.732999980E-1,1.127599955E0,2.643999815E0
4.364000000E0,1.321299911E0,1.956399918E0,-2.976899862E0
4.384004687E0,9.614999890E-1,1.756999969E0,-5.224299908E0
4.414000000E0,-1.069199920E0,9.927999973E-1,-7.590000033E-1
4.434000000E0,-2.480700016E0,2.208999991E-1,3.008100033E0
4.454001562E0,-2.085899830E0,2.499999944E-3,2.639799833E0
4.474001562E0,1.289999932E-1,1.296999902E-1,1.666199923E0
4.504000000E0,1.707700014E0,9.596999884E-1,1.397899985E0
4.524000000E0,-1.130999997E-1,-4.265999794E-1,3.818999827E-1
4.544000000E0,-1.304000020E0,-1.075899959E0,2.281599998E0
4.564000000E0,-2.086799860E0,-1.437600017E0,2.904700041E0
4.584001562E0,-4.143399715E0,-3.724299908E0,2.486999989E0
4.614000000E0,-5.838900089E0,-3.571799994E0,5.943899632E0
4.634000000E0,-4.731899738E0,-2.225199938E0,3.139099836E0
4.654001562E0,-4.855599880E0,-3.807999849E0,2.688999891E0
4.684000000E0,-5.394799709E0,-5.017899990E0,6.512699604E0
4.704000000E0,-2.826799870E0,-1.714299917E0,7.276999950E0
4.724001562E0,9.405999780E-1,-8.302999735E-1,9.362999797E-1
4.754000000E0,1.319100022E0,-5.516599655E0,-6.407299995E0
4.774000000E0,3.332499981E0,-7.892399788E0,-2.983999968E0
4.794000000E0,8.323100090E0,-8.423199654E0,1.442999959E0
4.814000000E0,9.390799522E0,-3.188299894E0,6.442999840E0
4.834000000E0,7.889499664E0,8.647999763E-1,2.863799810E0
4.854000000E0,5.853299618E0,2.809599876E0,-3.626199961E0
4.874001562E0,1.751099944E0,3.096599817E0,-6.870899677E0
4.904000000E0,4.419999942E-2,3.378599882E0,-6.429399967E0
4.924000000E0,2.958999872E0,3.034699917E0,-6.535899639E0
4.944001562E0,4.315899849E0,1.899099946E0,-5.202199936E0
4.974000000E0,3.921700001E0,9.745000005E-1,2.572999895E-1
4.994000000E0,4.462500095E0,1.571699977E0,-6.175999641E-1
5.014001562E0,4.789599895E0,2.763299942E0,-2.643999815E0
5.044000000E0,2.766099930E0,5.546499729E0,6.559999585E-1
5.064010937E0,-8.258000016E-1,5.541699886E0,5.652100086E0
5.094001562E0,-4.875499725E0,1.273699999E0,8.185099602E0
5.124000000E0,-3.761399984E0,-9.675999880E-1,1.517899990E0
5.144000000E0,2.005999982E-1,9.149000049E-1,-2.048099995E0
5.164000000E0,2.360800028E0,1.339399934E0,-2.171399832E0
5.184000000E0,3.480099916E0,9.553999901E-1,5.010600090E0
5.204000000E0,7.197999954E0,4.458600044E0,-8.023200035E0
5.224001562E0,1.481719971E1,5.631099701E0,-1.221159935E1
5.244001562E0,7.636899948E0,2.058599949E0,6.226500034E0
5.274001562E0,3.253499985E0,-3.148599863E0,-9.254300117E0
5.304001562E0,1.486099958E0,-1.299499989E0,-3.176399946E0
5.334000000E0,-3.989999890E-1,-6.243899822E0,-1.824000001E0
5.354000000E0,4.649999738E-1,-4.518300056E0,-9.430500031E0
5.374000000E0,-2.175799847E0,-5.161200047E0,-8.203899384E0
5.394000000E0,-6.603399754E0,-7.650599957E0,-3.179600000E0
5.414001562E0,-1.269810009E1,-8.163800240E0,7.634799957E0
5.444001562E0,-1.233150005E1,-4.689699650E0,8.713999748E0
5.474000000E0,-2.734400034E0,-2.543699980E0,1.569999933E0
5.494000000E0,1.649199963E0,-5.949000120E-1,5.778100014E0
5.514001562E0,2.112599850E0,2.748399973E0,1.055060005E1
5.544000000E0,1.684199929E0,7.013799667E0,9.416299820E0
5.564000000E0,4.138000011E-1,8.083999634E0,4.269299984E0
5.584001562E0,6.617000103E-1,2.587999821E0,6.148999691E0
5.614000000E0,2.835899830E0,-2.114599943E0,-7.139999866E-1
5.634000000E0,1.615299940E0,-3.747599840E0,-1.187600017E0
5.654001562E0,4.062099934E0,-1.090670013E1,1.578699946E0
5.674001562E0,7.535399914E0,-1.661349869E1,2.987699986E0
5.704000000E0,5.588900089E0,-5.113999844E0,-5.912299633E0
5.724001562E0,3.170300007E0,-2.689000070E-1,-1.230809975E1
5.754000000E0,-1.689599991E0,2.968600035E0,-1.227619934E1
5.774000000E0,-3.659600019E0,5.599499702E0,-5.472699642E0
5.794000000E0,-3.015599966E0,9.381499290E0,-6.164700031E0
5.814000000E0,-2.542099953E0,1.154969978E1,-9.609099388E0
5.834000000E0,-4.431799889E0,1.010260010E1,-1.010909939E1
5.854000000E0,1.828699946E0,7.892999649E0,-9.063300133E0
5.874001562E0,-3.197700024E0,-3.769999743E-2,1.034809971E1
5.904000000E0,-3.564999998E-1,-1.434569931E1,-9.700300217E0
5.924000000E0,1.220790005E1,-8.829699516E0,-3.028129959E1
5.944001562E0,3.176409912E1,-5.314389801E1,7.597000003E-1
5.964007812E0,6.371699810E0,-1.580359936E1,-1.895499945E0
5.994000000E0,8.999999762E-1,1.889999956E-2,-1.513479996E1
6.014006250E0,2.239300013E0,2.920699835E0,-1.195799923E1
6.044000000E0,3.143999815E0,1.685599923E0,-4.241600037E0
6.064007812E0,-3.076200008E0,-5.228199959E0,3.092899895E1
6.094001562E0,2.534299850E0,5.612199783E0,3.203999996E-1
6.114007812E0,-1.972000003E-1,1.197550011E1,-3.570499897E0
6.144001562E0,-7.667099953E0,1.140250015E1,-4.558099747E0
6.164007812E0,-1.034439945E1,1.008580017E1,-7.899799824E0
6.194000000E0,-2.382999897E0,1.189619923E1,-1.311889935E1
6.214006250E0,7.809000015E-1,1.199219990E1,-8.142600060E0
6.244001562E0,-4.882999957E-1,8.120599747E0,-1.757799983E0
6.264004687E0,-2.724400043E0,5.488499641E0,-2.661900043E0
6.294000000E0,-3.479699850E0,9.631999731E-1,-4.921400070E0
6.314006250E0,-5.238999724E-1,-1.055119991E1,1.102900028E0
6.344000000E0,1.412269974E1,-2.518719864E1,4.374300003E0
6.364003125E0,8.605899811E0,-1.447629929E1,-4.700999737E0
6.394000000E0,-2.847999930E-1,-1.674110031E1,-4.548999786E0
6.414009375E0,2.495399952E0,-2.537699938E0,-1.744400024E1
6.444001562E0,9.099999443E-3,6.778299809E0,-2.032269859E1
6.464007812E0,-8.003000021E-1,1.824000001E0,-1.394040012E1
6.494001562E0,-3.259599924E0,-1.960500002E0,-3.001299858E0
6.514004687E0,-1.018379974E1,-5.918399811E0,1.440329933E1
6.544000000E0,4.278999865E-1,1.762799978E0,-4.827199936E0
6.564001562E0,-6.359999627E-2,5.740699768E0,-6.662199974E0
6.584001562E0,-3.258100033E0,3.622999907E0,2.509899855E0
6.614000000E0,-1.716699958E0,-1.868600011E0,-6.031000018E-1
6.634000000E0,1.333499908E0,-6.338999748E0,5.596799850E0
6.654001562E0,6.384099960E0,4.021999836E-1,1.085639954E1
6.674001562E0,5.752999783E0,1.914899945E0,5.779399872E0
6.704000000E0,-1.117399931E0,1.561699986E0,1.739399910E0
6.724000000E0,-4.293499947E0,1.680999994E0,4.501499653E0
6.744000000E0,-4.834000111E0,3.333999872E0,2.707000017E0
6.764000000E0,-8.012700081E0,6.103499889E0,-1.250019932E1
6.784000000E0,-6.636099815E0,7.699899673E0,-2.458529854E1
6.804001562E0,-2.784600019E0,7.073999882E0,1.491899967E0
6.834000000E0,8.210000038E0,4.395599842E0,1.393999958E1
6.854000000E0,1.325529957E1,-9.775999784E-1,-1.402269936E1
6.874012500E0,1.182969952E1,-4.197400093E0,2.408599854E0
6.904000000E0,2.478600025E0,5.297999978E-1,-2.019000053E0
6.924000000E0,9.499699593E0,5.783899784E0,-4.459999874E-2
6.944000000E0,3.133499861E0,6.399999838E-3,1.417929935E1
6.964000000E0,-1.005699992E0,-5.188600063E0,9.853199959E0
6.984000000E0,7.051799774E0,2.615700006E0,5.661200047E0
7.004000000E0,1.553069973E1,8.408100128E0,4.160999775E0
7.024000000E0,1.432019997E1,8.970299721E0,1.034919930E1
7.044000000E0,7.640299797E0,4.745399952E0,8.465700150E0
7.064000000E0,5.758800030E0,5.681799889E0,2.888000011E0
7.084001562E0,2.229599953E0,9.703000069E0,-6.923599720E0
7.114000000E0,9.021299362E0,5.389800072E0,3.412210083E1
7.134000000E0,-1.764410019E1,-1.050739956E1,-5.058089828E1
7.154001562E0,-1.112499952E0,-8.545100212E0,-1.356559944E1
7.174001562E0,-2.323400021E0,-1.752289963E1,-6.741799831E0
7.204000000E0,3.985499859E0,-5.050600052E0,1.785999984E-1
7.224000000E0,2.874599934E0,-2.797499895E0,-1.061339951E1
7.244000000E0,1.108799934E0,6.559999585E-1,-6.827299595E0
7.264000000E0,-7.191999555E-1,2.696300030E0,-2.833499908E0
7.284000000E0,-2.624799967E0,-6.280999780E-1,-4.479599953E0
7.304001562E0,-5.093299866E0,-4.615499973E0,-5.570799828E0
7.334000000E0,-8.868199348E0,-5.020099640E0,-2.209899902E0
7.354000000E0,-9.703700066E0,-7.146199703E0,-4.571899891E0
7.374001562E0,-1.114879990E1,-8.895199776E0,-2.006700039E0
7.404000000E0,-1.122579956E1,-1.909359932E1,7.766399860E0
7.424000000E0,-8.396999836E-1,-1.685190010E1,1.237949944E1
7.444000000E0,6.250599861E0,-3.042299986E0,1.767739868E1
7.464000000E0,5.186699867E0,-1.569999941E-2,2.030150032E1
7.484000000E0,-6.160099983E0,-1.641699910E0,-7.418099880E0
7.504000000E0,-1.611800003E1,8.256599426E0,-2.098599911E0
7.524001562E0,-1.998609924E1,6.333699703E0,2.254299879E0
7.554000000E0,-1.305679989E1,6.739399910E0,-1.113259983E1
7.574000000E0,-1.671229935E1,-1.096899986E0,-1.465999985E1
7.594001562E0,-1.415959930E1,-1.519549942E1,-1.217059994E1
7.624000000E0,-6.414700031E0,-3.890319824E1,-1.862419891E1
7.644000000E0,7.336199760E0,-3.994129944E1,-1.635630035E1
7.664001562E0,3.518650055E1,-4.390159988E1,1.547500014E0
7.694000000E0,4.963660049E1,3.564999998E-1,6.725559998E1
7.714000000E0,2.946209908E1,8.971999884E-1,1.926630020E1
7.734001562E0,1.176410007E1,1.673799992E0,-1.855999947E0
7.764000000E0,1.683049965E1,1.557259941E1,-2.074510002E1
7.784000000E0,1.184509945E1,1.214849949E1,-2.479539871E1
7.804001562E0,-2.742999792E-1,8.429299355E0,-2.814029884E1
7.834000000E0,-3.300869751E1,-2.647319984E1,6.670410156E1
7.854000000E0,1.096249962E1,-1.477889919E1,-3.537680054E1
7.874000000E0,-4.632410049E1,-2.477470016E1,-1.915199995E0
7.894000000E0,-1.281849957E1,-3.596199989E0,2.171199989E1
7.914000000E0,3.510099888E0,-1.051800013E0,-1.788000017E-1
7.934000000E0,-1.031199932E0,4.450999796E-1,7.802199841E0
7.954000000E0,-7.876699924E0,4.000499725E0,-8.877999783E-1
7.974000000E0,-4.947000027E0,8.552899361E0,-4.382999897E0
7.994000000E0,1.811100006E0,1.137379932E1,-2.850100040E0
8.014001562E0,7.332299709E0,1.326919937E1,3.050699949E0
8.044000000E0,2.976799965E0,5.996999741E0,1.678999960E-1
8.064000000E0,4.386300087E0,5.514999628E-1,3.169399977E0
8.084001562E0,5.644499779E0,-6.148900032E0,-1.155389977E1
8.114000000E0,-1.242379951E1,-1.619280052E1,-7.511999607E-1
8.134000000E0,-1.210489941E1,-7.397599697E0,-3.414799929E0
8.154001562E0,-4.736799717E0,2.830899954E0,-8.538899422E0
8.174001562E0,-4.414299965E0,8.191900253E0,-3.276599884E0
8.204001562E0,-2.578999996E-1,8.698299408E0,-5.264800072E0
8.234001562E0,1.183599949E0,4.645800114E0,-3.996799946E0
8.264001562E0,2.167799950E0,2.316299915E0,-7.966699600E0
8.294000000E0,2.743700027E0,-2.725999951E-1,-6.944900036E0
8.314000000E0,1.727899909E0,-2.252199888E0,-5.737299919E0
8.334000000E0,9.535999894E-1,-4.663700104E0,-4.038300037E0
8.354000000E0,-1.233299971E0,-4.055699825E0,-6.258999705E-1
8.374001562E0,-7.206999779E0,-1.754099965E0,1.066569996E1
8.404000000E0,7.331999540E-1,2.921799898E0,-2.137899876E0
8.424000000E0,8.016699791E0,-1.551800013E0,9.283999801E-1
8.444001562E0,1.045129967E1,-1.950629997E1,1.622629929E1
8.474001562E0,1.239499927E0,-8.514599800E0,-8.101799965E0
8.504000000E0,1.052999943E-1,4.579999924E0,-1.564610004E1
8.524000000E0,2.600299835E0,3.353999853E0,-1.345609951E1
8.544000000E0,3.011899948E0,-2.318699837E0,-9.346899986E0
8.564000000E0,1.597800016E0,-4.189700127E0,-8.347599983E0
8.584001562E0,7.940999866E-1,-4.579299927E0,-7.356599808E0
8.614000000E0,2.485399961E0,-1.970899940E0,1.281199932E0
8.634000000E0,4.631899834E0,2.405999899E0,9.047499657E0
8.654001562E0,3.423099995E0,3.535300016E0,6.376199722E0
8.684000000E0,-7.053999901E-1,-1.401299953E0,-1.530900002E0
8.704000000E0,-2.706199884E0,-7.663999796E-1,3.369999826E-1
8.724000000E0,-3.285599947E0,2.026000023E0,1.903099895E0
8.744000000E0,-4.012899876E0,1.429399967E0,-4.918999970E-1
8.764000000E0,-6.067199707E0,-2.020599842E0,-1.725899935E0
8.784000000E0,-8.551199913E0,-3.890599966E0,-5.394999981E-1
8.804001562E0,-1.084119987E1,-2.014600039E0,8.801799774E0
8.834000000E0,-6.131899834E0,-4.446099758E0,3.740000010E0
8.854000000E0,-4.832599640E0,-5.245800018E0,-8.476300240E0
8.874001562E0,-5.257199764E0,-2.876499891E0,-9.357799530E0
8.904000000E0,-7.083999634E0,-6.943799973E0,-5.930299759E0
8.924000000E0,-4.019099712E0,-7.810499668E0,-3.809499979E0
8.944001562E0,-2.682999969E-1,-6.405999660E0,-3.482100010E0
8.974000000E0,1.245499969E0,-2.692199945E0,-9.559800148E0
8.994000000E0,-1.794699907E0,-1.985299945E0,-1.185999966E1
9.014001562E0,-2.098999977E0,-1.048499942E0,-9.474599838E0
9.044000000E0,1.788800001E0,-2.335999906E-1,-6.477200031E0
9.064000000E0,2.473899841E0,-8.042999506E-1,-7.337699890E0
9.084001562E0,2.909899950E0,-1.249099970E0,-7.893099785E0
9.114000000E0,3.223500013E0,5.349000096E-1,-7.568899632E0
9.134000000E0,2.877300024E0,1.496699929E0,-7.338399887E0
9.154001562E0,3.443699837E0,1.608099937E0,-7.742399693E0
9.184000000E0,7.097199917E0,4.590999782E-1,-8.329099655E0
9.204001562E0,1.126819992E1,1.157299995E0,-1.293099999E0
9.234001562E0,2.868999958E0,-3.920899868E0,1.528099918E1
9.264000000E0,1.643999964E-1,-9.231699944E0,1.357059956E1
9.284000000E0,-3.267999887E-1,-3.915199995E0,7.492799759E0
9.304001562E0,2.774299860E0,1.951799989E0,-1.038819981E1
9.334000000E0,1.916199923E0,-1.355099916E0,-1.016619968E1
9.354000000E0,1.906699896E0,-1.798299909E0,-1.026249981E1
9.374001562E0,2.584599972E0,-2.791000009E-1,-1.160120010E1
9.394009375E0,-4.715999961E-1,-7.777000070E-1,-7.455499649E0
9.424000000E0,-3.747399807E0,-8.978999853E-1,-2.903699875E0
9.444004687E0,-4.498600006E0,-2.737399817E0,1.218099952E0
9.474000000E0,-3.597100019E0,-2.503499985E0,2.249699831E0
9.494000000E0,-6.451999545E-1,3.269999847E-2,-9.776999950E-1
9.514001562E0,1.974099994E0,1.491099954E0,-3.144399881E0
9.534001562E0,2.928499937E0,1.249400020E0,-2.912499905E0
9.564000000E0,7.798999548E-1,7.513999939E-1,2.466999888E-1
9.584001562E0,-2.221499920E0,6.412000060E-1,2.078500032E0
9.614000000E0,-5.403999805E0,8.069999516E-2,9.077999592E-1
9.634000000E0,-6.207999706E0,-4.244000018E-1,-1.146700025E0
9.654000000E0,-6.299799919E0,-4.356999993E-1,-1.865099907E0
9.674000000E0,-5.880799770E0,-1.304899931E0,-2.289999872E-1
9.694000000E0,-5.573100090E0,-2.302399874E0,4.104000092E0
9.714000000E0,-7.531399727E0,-3.725399971E0,9.390500069E0
9.734001562E0,-9.733699799E0,-3.887199879E0,7.241499901E0
9.764000000E0,-6.661799908E0,-2.190700054E0,2.453699827E0
9.784000000E0,-4.299600124E0,-3.644199848E0,9.106000066E-1
9.804001562E0,-2.728099823E0,-3.679499865E0,-3.287000060E-1
9.834000000E0,-3.436000049E-1,-3.355199814E0,3.436000049E-1
9.854000000E0,9.681999683E-1,-5.283099651E0,-4.891999960E-1
9.874001562E0,3.247200012E0,-6.582699776E0,-2.145099878E0
9.904000000E0,4.403299809E0,-1.851199985E0,-2.911199808E0
9.924000000E0,1.614300013E0,1.611999989E0,-2.020299911E0
9.944001562E0,3.599999845E-1,1.674600005E0,-3.979899883E0
9.974000000E0,3.272999823E-1,-3.705999851E-1,-4.558899879E0
9.994000000E0,1.412500024E0,-2.752999961E-1,-4.312900066E0
1.001400156E1,1.428799987E0,3.437999785E-1,-3.396399975E0
1.004400000E1,2.137500048E0,1.435099959E0,-2.951599836E0
1.006400000E1,3.366400003E0,2.556599855E0,-3.520999908E0
1.008400156E1,4.536900043E0,4.087699890E0,-3.660799980E0
1.011400000E1,5.065799713E0,5.382199764E0,-3.421399832E0
1.013400000E1,5.002099991E0,4.841099739E0,-2.776399851E0
1.015400000E1,5.103699684E0,4.307300091E0,-1.310199976E0
1.017400000E1,4.100699902E0,2.833699942E0,1.235000014E0
1.019400000E1,2.286900043E0,1.157799959E0,5.595099926E0
1.021400156E1,-1.313799977E0,-2.182199955E0,1.012119961E1
1.023400156E1,-5.002699852E0,-6.322399616E0,7.089900017E0
1.026400000E1,-7.878499985E0,-1.317420006E1,-7.649999857E-2
1.028400000E1,-7.324999809E0,-1.720789909E1,4.193399906E0
1.030400156E1,1.424199939E0,-4.837800026E0,-9.779399872E0
1.033400000E1,7.675599575E0,2.019700050E0,-8.811299324E0
1.035400000E1,7.930599689E0,3.723599911E0,-6.998499870E0
1.037400156E1,9.624599457E0,6.388999939E0,-6.250099659E0
1.040400000E1,5.620899677E0,1.068799973E0,-2.253599882E0
1.042400000E1,2.017600060E0,-1.677500010E0,-3.620699883E0
1.044400000E1,-6.099999882E-3,-2.372900009E0,-3.118999958E0
1.046400000E1,-1.926699996E0,-1.961299896E0,6.809999794E-2
1.048400000E1,-3.119199991E0,-8.379999548E-2,3.194599867E0
1.050400000E1,-2.431999922E0,1.827699900E0,2.607300043E0
1.052400000E1,5.549999699E-2,1.622499943E0,-9.206999540E-1
1.054400000E1,5.651000142E-1,8.174999952E-1,-2.284699917E0
1.056400000E1,-1.216199994E0,-8.838999867E-1,-1.366599917E0
1.058400156E1,-2.484999895E0,-1.579399943E0,-5.885999799E-1
1.060400156E1,-1.811800003E0,-8.147000074E-1,-1.583599925E0
1.063400000E1,-6.660999656E-1,1.150900006E0,-2.827100039E0
1.065400000E1,1.201699972E0,-4.629999772E-2,-2.132900000E0
1.067400000E1,2.596799850E0,-1.705999970E0,-2.237499952E0
1.069400000E1,2.033599854E0,-1.101400018E0,-3.520299911E0
1.071400000E1,6.547999978E-1,5.869999900E-2,-4.721199989E0
1.073400156E1,8.021000028E-1,6.843000054E-1,-5.861899853E0
1.076400000E1,4.413999915E-1,-8.443999887E-1,-6.198899746E0
1.078400000E1,8.245999813E-1,-9.131000042E-1,-7.774999619E0
1.080400000E1,1.078699946E0,-1.281700015E0,-8.750299454E0
1.082400000E1,4.486999810E-1,-2.095599890E0,-9.136799812E0
1.084400000E1,-3.741999865E-1,-2.335799932E0,-1.012650013E1
1.086400000E1,-2.500399828E0,-1.555599928E0,-8.077400208E0
1.088400156E1,-5.472199917E0,1.098299980E0,-2.929199934E0
1.091400000E1,-4.870299816E0,-9.041000009E-1,6.970499992E0
1.093400000E1,5.789399624E0,-5.498899937E0,1.371869946E1
1.095400000E1,9.307600021E0,-7.226799965E0,7.890100002E0
1.097400000E1,1.232749939E1,-7.300199986E0,1.261209965E1
1.099400000E1,1.426249981E1,-2.930500031E0,1.823719978E1
1.101400156E1,7.929599762E0,-2.597000003E-1,2.071199894E0
1.104400000E1,4.349800110E0,2.205600023E0,-4.710099697E0
1.106400156E1,2.210700035E0,3.084199905E0,-4.434799671E0
1.108400156E1,-3.140300035E0,1.224499941E0,-4.353499889E0
1.111400156E1,-1.406499958E1,3.136099815E0,-9.233599663E0
1.114400156E1,-5.976099968E0,4.258500099E0,-1.734459877E1
1.116400156E1,-2.296700001E0,2.391700029E0,-1.316869926E1
1.119400000E1,-2.027299881E0,1.911499977E0,-3.962699890E0
1.121400000E1,1.210799932E0,2.323499918E0,1.276199937E0
1.123400156E1,6.896800041E0,-4.882999957E-1,3.433300018E0
1.126400000E1,8.500499725E0,-2.541999817E-1,-4.659499645E0
1.128400000E1,3.776099920E0,-1.178300023E0,-2.747599840E0
1.130400156E1,-3.560999930E-1,-4.420499802E0,-2.038100004E0
1.133400000E1,7.637000084E-1,-1.226719952E1,5.220200062E0
1.135400000E1,-4.466799736E0,-4.544899940E0,1.733499908E1
1.137400156E1,5.126999617E-1,3.610000014E-1,1.000469971E1
1.140400000E1,8.585000038E-1,1.161800027E0,2.118999958E-1
1.142400000E1,8.934999704E-1,5.708000064E-1,3.999999724E-3
1.144400156E1,2.795000076E-1,-7.981999516E-1,1.051499963E0
1.147400000E1,-2.591099977E0,-1.787199974E0,-4.588999748E-1
1.149400000E1,-3.816099882E0,-2.125299931E0,-2.206799984E0
1.151400156E1,-5.279799938E0,-1.522699952E0,-1.775599957E0
1.154400000E1,-8.027799606E0,-8.545999527E-1,2.199199915E0
1.156400000E1,-7.587699890E0,2.797999978E-1,3.630100012E0
1.158400156E1,-4.199399948E0,1.145200014E0,1.785399914E0
1.161400000E1,1.898499966E0,6.676999927E-1,-1.639199972E0
1.163400000E1,3.766899824E0,3.060999811E-1,-1.479799986E0
1.165400000E1,3.308799982E0,1.537999958E-1,1.199999941E-3
1.167400000E1,8.880999684E-1,3.728999794E-1,2.474999875E-1
1.169400000E1,-3.345099926E0,-1.132399917E0,-2.219199896E0
1.171400000E1,-6.867799759E0,-2.575399876E0,-4.922599792E0
1.173400156E1,-9.234799385E0,-2.827999830E0,-4.950399876E0
1.176400000E1,-9.835399628E0,-6.570000052E-1,-2.285799980E0
1.178400000E1,-9.046199799E0,1.261000037E-1,-2.115299940E0
1.180400156E1,-8.416099548E0,-5.094999671E-1,-2.871799946E0
1.183400000E1,-6.348000050E0,-2.212199926E0,-3.154999971E0
1.185400000E1,-4.842899799E0,-2.967399836E0,-2.656499863E0
1.187400156E1,-2.157799959E0,-1.819099903E0,-5.486999750E-1
1.190400000E1,9.661699295E0,-2.426599979E0,9.513299942E0
1.192400000E1,8.450699806E0,-5.168799877E0,8.487799644E0
1.194400156E1,4.583300114E0,-6.341300011E0,4.131799698E0
1.197400000E1,1.993499994E0,-1.105199933E0,-5.110999942E-1
1.199400000E1,-1.711999923E-1,1.722599983E0,-2.998199940E0
1.201400156E1,-2.234299898E0,1.935299993E0,-5.893499851E0
1.203400156E1,-2.445699930E0,1.954399943E0,-7.489500046E0
1.205400156E1,-1.968400002E0,2.128999949E0,-4.878399849E0
1.207400156E1,-1.418799996E0,1.970299959E0,-2.282299995E0
1.209400156E1,-3.910000026E-1,-4.456000030E-1,2.930299997E0
1.212400000E1,1.596099973E0,-8.416000009E-1,2.171700001E0
1.214400156E1,1.510999918E0,1.806999892E-1,6.367999911E-1
1.216400156E1,4.129000008E-1,1.138000011E0,-8.942999840E-1
1.219400000E1,-1.285599947E0,1.434499979E0,-3.914199829E0
1.221400000E1,-1.361299992E0,1.551299930E0,-5.585999966E0
1.223400156E1,-9.867999554E-1,1.810999990E0,-6.458099842E0
1.226400000E1,-1.961199999E0,2.432999849E0,-1.520499945E0
1.228400000E1,-2.864599943E0,2.847800016E0,9.971999526E-1
1.230400000E1,-5.329999700E-2,2.981899977E0,-8.725999594E-1
1.232400625E1,1.893099904E0,1.713299990E0,-1.391199946E0
1.235400000E1,2.385499954E0,-2.102999985E-1,1.619799972E0
1.237400156E1,1.976999998E0,-1.298799992E0,4.401000023E0
1.240400000E1,1.087000012E0,-3.157199860E0,9.129799843E0
1.242400000E1,2.632400036E0,-3.099599838E0,9.521599770E0
1.244400156E1,5.091199875E0,-2.516499996E0,3.660399914E0
1.247400156E1,6.860199928E0,-2.493099928E0,-2.645499945E0
1.250400000E1,4.962399960E0,-3.209499836E0,-3.331599951E0
1.252400156E1,6.597300053E0,-5.016699791E0,-1.502299905E0
1.255400156E1,5.529999733E-2,4.818200111E0,2.699800014E0
1.257400156E1,1.231299996E0,4.609699726E0,-1.032189941E1
1.259400156E1,-6.110000014E-1,4.541599751E0,-1.262239933E1
1.262400000E1,-3.078999996E0,-2.949000001E-1,-5.628499985E0
1.264400000E1,-4.424299717E0,-2.167500019E0,-1.299799919E0
1.266400156E1,-6.990399837E0,-4.810299873E0,1.488399982E1
1.269400000E1,-5.799999833E-1,1.231499910E0,-8.299999833E-1
1.271400000E1,1.028399944E0,2.931099892E0,-1.946000010E-1
1.273400156E1,-8.210999966E-1,1.081499934E0,4.082999825E-1
1.276400000E1,-3.205899954E0,-5.167999864E-1,-5.162000060E-1
1.278400000E1,-3.538999796E0,8.100000024E-2,-2.303999960E-1
1.280400156E1,-2.365599871E0,4.648999870E-1,1.652999967E-1
1.283400000E1,-8.899999857E-1,4.794999957E-1,2.171999961E-1
1.285400000E1,-1.537999958E-1,2.305999994E-1,1.731999964E-1
1.287400156E1,-2.935000062E-1,-2.838999927E-1,8.438999653E-1
1.290400000E1,-3.564999998E-1,-1.213999987E-1,2.132900000E0
1.292400000E1,-1.146999970E-1,-3.099999856E-3,2.582200050E0
1.294400156E1,-9.204999804E-1,-2.606099844E0,2.586299896E0
1.297400000E1,-5.242399693E0,-4.889599800E0,3.180399895E0
1.299400000E1,-7.426099777E0,-3.401199818E0,4.187500000E0
1.301400156E1,-8.600500107E0,-3.281800032E0,3.879999876E0
1.304400000E1,-8.929999352E0,-5.269000053E0,3.737099886E0
1.306400000E1,-7.318099976E0,-5.322700024E0,4.646299839E0
1.308400000E1,-4.826499939E0,-1.209699988E0,4.960299969E0
1.310400000E1,-2.707000017E0,-2.992999852E-1,1.931499958E0
1.312400000E1,-1.646299958E0,-1.327299953E0,-9.380000085E-2
1.314400156E1,-1.599599957E0,-4.824299812E0,-3.213099957E0
1.316400156E1,-4.635999799E-1,-7.035799980E0,-3.053799868E0
1.319400000E1,4.051399708E0,-6.417699814E0,-3.130000085E-2
1.321400000E1,6.972899914E0,-2.341899872E0,1.762699962E0
1.323400156E1,5.350399971E0,1.075399995E0,3.928000033E-1
1.326400000E1,1.403100014E0,2.807099819E0,-5.630199909E0
1.328400000E1,3.649999946E-2,2.522199869E0,-5.972300053E0
1.330400156E1,5.037999749E-1,2.470399857E0,-4.878900051E0
1.333400000E1,4.472999871E-1,2.101500034E0,-4.363699913E0
1.335400000E1,8.421999812E-1,1.294999957E0,-3.269699812E0
1.337400000E1,2.932600021E0,2.123899937E0,-2.878599882E0
1.339400000E1,4.406300068E0,3.921299934E0,-3.272199869E0
1.341400000E1,5.030799866E0,5.235300064E0,-3.463199854E0
1.343400000E1,6.169099808E0,5.914999962E0,-3.234799862E0
1.345400000E1,6.939099789E0,5.802199841E0,-2.189800024E0
1.347400938E1,3.421599865E0,3.326900005E0,1.602299929E0
1.350400000E1,-4.818599701E0,-5.781199932E0,9.587299347E0
1.352400156E1,-6.426899910E0,-1.122609997E1,1.112909985E1
1.355400156E1,-2.931499958E0,-3.572000027E0,5.852900028E0
1.357400156E1,1.276999950E0,-1.211199999E0,8.007499695E0
1.360400000E1,5.771199703E0,-1.735799909E0,-2.613899946E0
1.362400000E1,7.532999992E0,-8.731399536E0,-3.822299957E0
1.364400000E1,5.569599628E0,-2.435199976E0,-1.069859982E1
1.366400156E1,4.670399666E0,3.677500010E0,-9.649399757E0
1.369400000E1,-3.321000040E-1,6.230999947E0,-8.956099510E0
1.371400000E1,-2.441499949E0,4.662099838E0,-8.146399498E0
1.373400000E1,-3.163100004E0,1.215600014E0,-2.691699982E0
1.375400000E1,-4.674599648E0,-4.134200096E0,8.948499680E0
1.377400000E1,-2.378299952E0,-3.564499855E0,6.870199680E0
1.379400000E1,6.283000112E-1,1.041199923E0,5.787000060E-1
1.381400156E1,2.752099991E0,3.336699963E0,6.326000094E-1
1.384400000E1,6.056999564E-1,4.041000009E-1,-1.993999928E-1
1.386400156E1,-2.196500063E0,2.221999913E-1,-2.762399912E0
1.388400156E1,-3.687699795E0,3.299999833E-1,-2.761799812E0
1.391400000E1,-2.925999880E0,-2.184999883E-1,7.005999684E-1
1.393400000E1,-1.536700010E0,-1.544299960E0,1.801899910E0
1.395400156E1,1.119099975E0,-1.985899925E0,4.537899971E0
1.398400000E1,1.329199910E0,-1.221400023E0,7.465999603E0
1.400400000E1,-4.821700096E0,-4.119699955E0,9.679999948E-1
1.402400156E1,-1.003389931E1,-5.301799774E0,-6.814000010E-1
1.405400156E1,-1.052960014E1,-9.833999872E-1,4.534500122E0
1.407400156E1,-7.945499897E0,-1.827999949E0,4.532999992E0
1.409400156E1,-6.517999649E0,-5.970599651E0,4.430799961E0
1.412400000E1,-3.038599968E0,-2.538100004E0,4.812500000E0
1.414400156E1,-2.576599836E0,-2.371399879E0,1.843699932E0
1.416400156E1,-2.240900040E0,-2.897599936E0,-1.064199924E0
1.419400000E1,-5.356999636E-1,-6.143899918E0,-3.212100029E0
1.421400000E1,2.189699888E0,-6.205199718E0,-2.225499868E0
1.423400156E1,6.638799667E0,-5.792799950E0,-1.085999981E-1
1.426400000E1,6.259599686E0,1.342999935E0,2.019299984E0
1.428400000E1,3.341399908E0,3.334399939E0,-2.920099974E0
1.430400156E1,1.330799937E0,3.434799910E0,-7.708199978E0
1.433400312E1,2.754999995E-1,3.509299994E0,-6.753599644E0
1.436400000E1,-7.447999716E-1,2.764600039E0,-3.115199804E0
1.438400156E1,-6.391999722E-1,1.932099938E0,-2.834899902E0
1.441400000E1,2.604399920E0,2.698699951E0,-3.921799898E0
1.443400000E1,4.364500046E0,4.182699680E0,-2.967499971E0
1.445400156E1,5.243899822E0,5.290499687E0,-1.859799981E0
1.448400000E1,9.306200027E0,6.064499855E0,-4.511999786E-1
1.450400000E1,8.536999702E0,2.776099920E0,5.447999954E0
1.452400156E1,-1.635399938E0,-4.642299652E0,1.341139984E1
1.455400156E1,-8.813199997E0,-1.156579971E1,6.946599960E0
1.457400156E1,-8.120499611E0,-6.956099987E0,5.277999640E-1
1.459400156E1,-6.122399807E0,-6.402999759E-1,5.098999739E-1
1.462400000E1,1.787599921E0,4.186999798E0,-5.135299683E0
1.464400000E1,5.826299667E0,7.459999621E-2,-4.729199886E0
1.466400156E1,1.155289936E1,-1.268089962E1,-6.596299648E0
1.469400000E1,6.386899948E0,-7.777699947E0,-2.882799864E0
1.471400000E1,4.391099930E0,3.134500027E0,-6.189499855E0
1.473400156E1,3.792599916E0,7.644299984E0,-7.576499939E0
1.476400000E1,2.585000038E0,6.652799606E0,-7.358099937E0
1.478400000E1,2.576999903E0,2.131999880E-1,-3.452199936E0
1.480400156E1,2.373199940E0,-6.147899628E0,-2.871799946E0
1.483400000E1,-6.308199883E0,-5.907000065E0,2.114259911E1
1.485400000E1,-4.219399929E0,-4.217999876E-1,1.305489922E1
1.487400156E1,2.240999937E-1,2.332099915E0,-1.690899968E0
1.490400000E1,1.468099952E0,2.992799997E0,-9.338899612E0
1.492400000E1,2.857999802E-1,1.319800019E0,-8.200499535E0
1.494400156E1,-5.103999972E-1,6.855999827E-1,-5.136799812E0
1.497400000E1,-1.608599901E0,-2.085999995E-1,-1.585899949E0
1.499400000E1,-9.930999875E-1,-7.361999750E-1,1.863999963E-1
1.501400156E1,-2.749999985E-2,-3.762999773E-1,1.622799993E0
1.504400000E1,2.072399855E0,9.905999899E-1,1.853999972E0
1.506400000E1,3.624999821E-1,5.108000040E-1,3.719999790E-1
1.508400000E1,-1.668699980E0,-1.179999951E-2,-2.673099995E0
1.510400000E1,-3.339299917E0,-4.803999960E-1,-6.986399651E0
1.512400000E1,-3.913499832E0,2.304999977E-1,-6.445999622E0
1.514400156E1,-5.291199684E0,1.542899966E0,-9.006999731E-1
1.516400156E1,-5.765299797E0,1.965499997E0,2.170599937E0
1.519400000E1,-4.097199917E0,2.366600037E0,6.609999537E-1
1.521400000E1,-3.458400011E0,4.851999879E-1,-7.782999873E-1
1.523400156E1,-3.608699799E0,-1.747699976E0,-1.327600002E0
1.526400000E1,-3.884399891E0,-2.106199980E0,-7.896999717E-1
1.528400000E1,-3.194199800E0,-1.600099921E0,1.498000026E-1
1.530400156E1,-2.772099972E0,-1.684599996E0,5.324000120E-1
1.533400000E1,-5.403299809E0,-4.183899879E0,4.493999779E-1
1.535400000E1,-6.754399776E0,-4.680500031E0,2.381899834E0
1.537400156E1,-3.408099890E0,-3.784399986E0,1.135359955E1
1.540400000E1,-2.236000001E-1,-5.721199989E0,1.493029976E1
1.542400000E1,-2.000099897E0,-8.039999962E0,9.452799797E0
1.544400156E1,-4.508599758E0,-8.455499649E0,4.520400047E0
1.547400000E1,-1.248799920E0,-8.227299690E0,1.687999964E-1
1.549400000E1,7.469899654E0,-2.931699991E0,-1.114169979E1
1.551400000E1,1.042409992E1,-1.767300010E0,-1.001229954E1
1.553400000E1,1.385099983E1,7.581999898E-1,-1.958699942E0
1.555400000E1,1.625629997E1,6.090600014E0,3.016499996E0
1.557400000E1,8.642799377E0,5.807699680E0,4.355700016E0
1.559400156E1,8.553999662E-1,4.728499889E0,6.058899879E0
1.562400000E1,-1.182299972E0,5.923599720E0,4.501499653E0
1.564400000E1,8.894000053E-1,5.992699623E0,-8.467999697E-1
1.566400156E1,1.730899930E0,6.338099957E0,-7.915999889E0
1.569400000E1,1.618499994E0,6.279699802E0,-1.347709942E1
1.571400000E1,1.927299976E0,6.862699986E0,-7.790999889E0
1.573400156E1,1.234200001E0,6.407799721E0,-4.253299713E0
1.576400000E1,1.687999964E-1,1.512399912E0,8.901700020E0
1.578400000E1,-6.473899841E0,-7.806499958E0,1.526359940E1
1.580400156E1,-9.901999474E0,-1.731569862E1,1.687229919E1
1.583400000E1,4.768300056E0,-7.249300003E0,-1.249899983E0
1.585400000E1,7.909799576E0,-6.642299652E0,-5.996299744E0
1.587400156E1,1.330970001E1,-1.074109936E1,-1.165660000E1
1.590400000E1,1.045310020E1,1.394999981E0,-8.373999596E0
1.592400000E1,7.966300011E0,8.267799377E0,-5.148999691E0
1.594400156E1,6.733599663E0,1.139509964E1,-3.915399790E0
1.597400000E1,1.139470005E1,2.489099979E0,5.680799961E0
1.599400000E1,3.928399801E0,-4.689899921E0,5.422499657E0
1.601400000E1,-1.253000021E0,-4.550099850E0,3.191799879E0
1.603400156E1,-1.598799944E0,-1.087000012E0,-5.055999756E-1
1.606400000E1,-1.028499961E0,1.693399906E0,-7.561699867E0
1.608400000E1,-3.844799995E0,1.586699963E0,-9.707900047E0
1.610400000E1,-6.004199982E0,1.018199921E0,-6.541800022E0
1.612400000E1,-1.174259949E1,-9.214999676E-1,1.155119991E1
1.614400156E1,-1.016739941E1,-3.461999893E-1,3.226699829E0
1.616400156E1,-4.712699890E0,2.922299862E0,-3.139699936E0
1.619400000E1,8.208000064E-1,3.008899927E0,7.784000039E-1
1.621400000E1,2.766799927E0,1.730099916E0,-7.198999524E-1
1.623400156E1,3.660799980E0,8.750000000E-1,-4.901999950E0
1.626400000E1,5.045899868E0,6.678000093E-1,-5.574399948E0
1.628400000E1,7.972299576E0,-2.489399910E0,-4.974099636E0
1.630404219E1,8.777599335E0,-5.628900051E0,-5.909800053E0
1.633400000E1,1.363399982E0,-1.123279953E1,1.333899975E0
1.635400000E1,-3.824299812E0,-1.181890011E1,4.424299717E0
1.637400156E1,-5.004699707E0,-8.222499847E0,3.274899960E0
1.640400000E1,3.379299879E0,1.934799910E0,3.412400007E0
1.642400000E1,4.133199692E0,4.291800022E0,3.506599903E0
1.644400156E1,4.804199696E0,5.785899639E0,2.612200022E0
1.646400156E1,7.936399937E0,5.949100018E0,3.607999802E0
1.649400000E1,8.353400230E0,3.683799982E0,4.193399906E0
1.651400000E1,4.409100056E0,2.720099926E0,-3.065899849E0
1.653400156E1,1.393199921E0,2.017299891E0,-6.966399670E0
1.655400156E1,-2.129999876E0,3.279999793E-1,-7.705499649E0
1.657400156E1,-6.212399960E0,-9.005999565E-1,-6.232399940E0
1.659400156E1,-8.294599533E0,-1.194100022E0,-5.482100010E0
1.662400000E1,-5.797899723E0,-1.935099959E0,-9.090399742E0
1.664400156E1,-4.747499943E0,-9.714999795E-1,-6.702899933E0
1.667400938E1,-1.776600003E0,2.796799898E0,-4.323999882E-1
1.670400000E1,1.500899911E0,3.638700008E0,5.105599880E0
1.672400000E1,7.862199783E0,-1.032899976E0,1.277149963E1
1.674400156E1,2.203949928E1,-2.177610016E1,2.768499947E1
1.677400000E1,-1.789399981E0,-3.603899956E0,-7.244400024E0
1.679400000E1,-5.411499977E0,3.284600019E0,-1.176159954E1
1.681400000E1,-5.185100079E0,8.671799660E0,-1.531499958E1
1.683400000E1,-4.567800045E0,1.084809971E1,-1.453940010E1
1.685400000E1,-4.143199921E0,5.302399635E0,-9.261099815E0
1.687400156E1,-5.365599632E0,-2.876099825E0,-6.640199661E0
1.690400000E1,-9.982600212E0,-1.355699921E1,2.147300005E0
1.692400000E1,-5.086400032E0,-4.544199944E0,-1.329299927E0
1.694400000E1,-2.274299860E0,1.763199925E0,1.824999899E-1
1.696400000E1,5.884999633E-1,1.683099985E0,-8.506999612E-1
1.698400000E1,3.499799967E0,8.682000041E-1,2.559999935E-2
1.700400000E1,3.390899897E0,8.065999746E-1,-1.100099921E0
1.702400156E1,2.477399826E0,1.198400021E0,-1.639199972E0
1.705400156E1,3.322199821E0,2.268499851E0,2.098199844E0
1.707400156E1,4.434400082E0,7.665999532E-1,3.725299835E0
1.710400156E1,8.267999887E-1,-4.772999883E-1,-3.463000059E-1
1.713400000E1,-4.068099976E0,-6.955999732E-1,-9.685999751E-1
1.715400000E1,-5.296000004E0,-4.065999985E-1,-1.196599960E0
1.717400000E1,-5.055099964E0,-6.769999862E-2,-8.971999884E-1
1.719400000E1,-4.938799858E0,-6.198999882E-1,2.361999899E-1
1.721400000E1,-2.429199934E0,-1.899999976E-1,6.450999975E-1
1.723400156E1,-5.676000118E-1,9.329999983E-2,-2.549000084E-1
1.726400000E1,1.753699899E0,-1.544999927E-1,1.074499965E0
1.728400000E1,7.522000074E-1,-4.131999910E-1,5.981999636E-1
1.730400156E1,-5.047999620E-1,-5.241000056E-1,-1.198899984E0
1.732400156E1,-2.335199833E0,-4.179999828E-1,-2.836499929E0
1.735400000E1,-2.961699963E0,1.684999913E-1,-1.114099979E0
1.737400156E1,-2.779299974E0,-3.834999800E-1,2.351000011E-1
1.740400000E1,-1.076099992E0,-1.872900009E0,-1.219999939E-1
1.742400000E1,-5.264999866E-1,-1.058899999E0,6.319999695E-2
1.744400156E1,-8.763999939E-1,-5.611000061E-1,7.226999998E-1
1.747400000E1,-2.424700022E0,-1.165099978E0,9.603999853E-1
1.749400000E1,-3.442999840E0,-1.633099914E0,1.386699915E0
1.751400000E1,-4.042999744E0,-2.678999901E0,1.454599977E0
1.753400000E1,-3.963199854E0,-3.309899807E0,1.894499898E0
1.755400000E1,-3.151999950E0,-2.582499981E0,3.733999968E0
1.757400156E1,-1.728999972E0,-2.293599844E0,4.690000057E0
1.759400156E1,-3.215000033E-1,-1.697299957E0,3.302199841E0
1.762400000E1,-9.375000000E-1,-1.000100017E0,5.932999849E-1
1.764400000E1,-1.300199986E0,-4.795999825E-1,-8.188999891E-1
1.766401094E1,-1.258999944E0,1.211999953E-1,-3.346099854E0
1.769400000E1,-1.439999938E-1,-1.402899981E0,-2.712399960E0
1.771400000E1,4.300999939E-1,-2.846099854E0,-2.500399828E0
1.773400156E1,-2.190000005E-2,-3.450500011E0,-3.925999880E0
1.776400000E1,-3.291999996E-1,-2.396299839E0,-3.759099960E0
1.778400000E1,1.220999956E0,-1.724499941E0,-2.244899988E0
1.780400156E1,2.595599890E0,-1.286599994E0,-2.283799887E0
1.783400000E1,3.031499863E0,-1.055099964E0,-3.637899876E0
1.785400000E1,3.354699850E0,-7.069000006E-1,-4.354899883E0
1.787400156E1,3.921199799E0,1.999999881E-1,-4.419300079E0
1.790400000E1,4.863599777E0,1.569499969E0,-2.749399900E0
1.792400000E1,6.070999622E0,2.103699923E0,-1.837399960E0
1.794400156E1,7.067699909E0,2.533699989E0,-1.981799960E0
1.797400000E1,6.403800011E0,3.455299854E0,-2.262199879E0
1.799400000E1,5.074899673E0,3.420499802E0,-2.408299923E0
1.801400000E1,4.265500069E0,3.165799856E0,-2.279399872E0
1.803400156E1,3.361399889E0,2.691499949E0,-1.903899908E0
1.806400000E1,1.105799913E0,1.195999980E0,-1.233099937E0
1.808400000E1,-1.067000031E0,-3.856000006E-1,7.824999690E-1
1.810400000E1,-1.414799929E0,-2.176300049E0,5.357299805E0
1.812400000E1,-1.316100001E0,-4.753900051E0,8.308499336E0
1.814400156E1,-3.438099861E0,-6.962800026E0,4.633100033E0
1.816400156E1,-1.956699967E0,-4.529900074E0,5.366899967E0
1.819400000E1,2.361599922E0,-5.285999775E-1,3.138700008E0
1.821400156E1,6.342299938E0,-8.094999790E-1,-4.332399845E0
1.823400156E1,5.470799923E0,-2.359400034E0,-5.064799786E0
1.826400000E1,4.838399887E0,-7.470899582E0,-7.284699917E0
1.828400000E1,1.124300003E0,1.156299949E0,-4.918299675E0
1.830400156E1,3.312000036E-1,5.209599972E0,-7.491999626E0
1.833400000E1,4.460999966E-1,8.678199768E0,-6.838699818E0
1.835400000E1,-6.563999653E-1,3.172899961E0,-4.310299873E0
1.837400156E1,-1.599200010E0,-1.919399977E0,-3.593199968E0
1.840400000E1,-1.662999988E0,-8.259799957E0,-1.584299922E0
1.842400000E1,5.439000130E-1,-2.292099953E0,3.370299816E0
1.844400000E1,1.610599995E0,1.982800007E0,5.834399700E0
1.846400000E1,9.994999766E-1,1.486499906E0,1.657699943E0
1.848400000E1,6.019999832E-2,4.741999805E-1,-3.251399994E0
1.850400000E1,-4.961999953E-1,2.046999931E-1,-3.284799814E0
1.852400000E1,-5.342999697E-1,5.367000103E-1,-1.929499984E0
1.854400000E1,-1.906999946E-1,6.839999557E-1,-1.077700019E0
1.856400000E1,6.309999526E-2,4.806999862E-1,-1.126099944E0
1.858400000E1,-1.244999990E-1,2.466999888E-1,-1.414299965E0
1.860400000E1,-2.093999982E-1,9.609999508E-2,-1.226999998E0
1.862400000E1,-2.019999921E-1,1.829999872E-2,-6.690999866E-1
1.864400156E1,-3.959999979E-1,-2.340999991E-1,-4.268999994E-1
1.867400000E1,-5.284000039E-1,-8.428999782E-1,-7.599999662E-3
1.869400000E1,-1.310999990E-1,-1.142699957E0,1.065599918E0
1.871400000E1,-1.119999960E-1,-1.447099924E0,2.879799843E0
1.873400156E1,-1.269099951E0,-2.286599874E0,3.463999987E0
1.876400000E1,-3.879699945E0,-2.381500006E0,2.853999853E0
1.878400000E1,-5.193799973E0,-2.200999975E0,3.043699980E0
1.880400156E1,-7.142699718E0,-3.544099808E0,1.056900024E0
1.883400000E1,-9.104999542E0,-6.377699852E0,1.298200011E0
1.885400000E1,-8.059499741E0,-3.410199881E0,3.268499851E0
1.887400156E1,-4.915400028E0,-1.365899920E0,1.806800008E0
1.890400000E1,4.508000016E-1,-7.744999528E-1,-1.084200025E0
1.892400000E1,1.565699935E0,-1.306599975E0,-3.821999788E0
1.894400000E1,8.951999545E-1,-2.253200054E0,-4.621599674E0
1.896400000E1,9.910000116E-2,-1.930099964E0,-2.523900032E0
1.898400000E1,-1.356400013E0,-1.827699900E0,-1.589399934E0
1.900400000E1,-2.703500032E0,-2.299299955E0,-3.313699961E0
1.902400000E1,-2.555399895E0,-1.831799984E0,-4.727799892E0
1.904400000E1,-1.762699962E0,-1.266399980E0,-4.469999790E0
1.906400156E1,-2.789999843E-1,-1.087999940E0,-3.875299931E0
1.909400156E1,3.335999966E0,-9.634999633E-1,-5.548699856E0
1.912400000E1,5.122200012E0,-5.900000036E-2,-5.799499989E0
1.914400156E1,5.078799725E0,1.170499921E0,-3.814399958E0
1.916400156E1,5.200699806E0,2.226599932E0,-3.156599998E0
1.919400000E1,6.609999657E0,3.933099985E0,-3.853699923E0
1.921400156E1,7.185400009E0,4.965099812E0,-3.953999996E0
1.923401094E1,7.575099945E0,5.216000080E0,-3.400300026E0
1.926400000E1,7.933199883E0,4.214600086E0,-3.140999973E-1
1.928400000E1,4.523200035E0,2.281499863E0,3.337800026E0
1.930400156E1,1.923799992E0,-1.764799953E0,5.227200031E0
1.933400000E1,-2.753899813E0,-9.741899490E0,9.255700111E0
1.935400000E1,-5.221600056E0,-7.078399658E0,3.921399832E0
1.937400156E1,-7.871999741E0,-3.615899801E0,4.743599892E0
1.940400000E1,-5.181299686E0,3.075099945E0,-3.046799898E0
1.942400000E1,9.248999953E-1,3.957999945E0,-1.244209957E1
1.944400000E1,3.504799843E0,-2.422799826E0,-9.532699585E0
1.946400000E1,4.983999729E0,-9.573399544E0,-4.493499756E0
1.948400000E1,6.041899681E0,-8.772999763E0,-5.011099815E0
1.950400000E1,1.897799969E0,1.573099971E0,-5.365099907E0
1.952400156E1,3.091199875E0,5.517299652E0,-4.056999683E0
1.954400156E1,4.298799992E0,8.913000107E0,-4.206599712E0
1.957400000E1,3.289000034E0,8.436999917E-1,-3.162099838E0
1.959400156E1,8.615999818E-1,-2.893699884E0,8.447999954E-1
1.962400000E1,-1.730299950E0,-1.974799991E0,5.161399841E0
1.964400000E1,-5.264999866E-1,2.085999995E-1,1.811299920E0
1.966400000E1,2.141999900E-1,1.613199949E0,-2.630100012E0
1.968400000E1,1.053900003E0,1.614599943E0,-4.415199757E0
1.970400000E1,5.812999606E-1,1.536399961E0,-3.246399879E0
1.972400000E1,-9.573999643E-1,7.283999920E-1,-8.199999928E-1
1.974400000E1,-1.790499926E0,7.039999962E-2,1.034899950E0
1.976400000E1,-7.256000042E-1,3.486000001E-1,3.427999914E-1
1.978400000E1,6.600999832E-1,-2.881000042E-1,-8.312999606E-1
1.980400156E1,1.734799981E0,-9.011999965E-1,-5.059999824E-1
1.983400000E1,1.344499946E0,-7.311999798E-1,3.786599874E0
1.985400000E1,-1.390200019E0,-1.354699969E0,5.318599701E0
1.987400156E1,-4.309499741E0,-2.620499849E0,3.063299894E0
1.990400000E1,-6.909899712E0,-4.042900085E0,2.470599890E0
1.992400000E1,-6.441099644E0,-2.156299829E0,5.624799728E0
1.994400000E1,-5.409599781E0,-2.021499872E0,3.250599861E0
1.996400000E1,-5.588500023E0,-5.494800091E0,1.463499904E0
1.998400000E1,-6.131799698E0,-5.872799873E0,3.916599989E0
2.000400000E1,-4.773699760E0,-1.881500006E0,4.492199898E0
2.002400156E1,-1.389199972E0,-1.203299999E0,1.125599980E0
2.005400000E1,2.688499928E0,-3.028100014E0,-3.535499811E0
2.007400000E1,2.711099863E0,-5.647999763E0,-3.091099977E0
2.009400156E1,2.756000042E0,-5.335899830E0,-8.534999490E-1
2.012400000E1,2.201900005E0,-1.660599947E0,-9.999999747E-5
2.014400156E1,6.559999585E-1,-7.324999571E-1,-2.218099833E0
2.016400156E1,4.018999934E-1,9.759999812E-2,-5.318599701E0
2.019400000E1,1.465299964E0,9.501999617E-1,-5.928299904E0
2.021400000E1,2.510299921E0,1.618799925E0,-4.914299965E0
2.023400156E1,3.481199980E0,2.342900038E0,-5.112899780E0
2.025400156E1,3.407199860E0,2.615599871E0,-5.810800076E0
2.027400156E1,2.879299879E0,2.611500025E0,-5.685999870E0
2.030400156E1,3.743099928E0,2.897199869E0,-3.562799931E0
2.033400000E1,6.886799812E0,4.934000015E0,-3.380999804E0
2.035400000E1,7.600499630E0,5.556299686E0,-2.907599926E0
2.037400156E1,6.998199940E0,5.030999660E0,-1.563699961E0
2.040400000E1,1.990599990E0,1.559700012E0,3.420799971E0
2.042400000E1,-7.665999532E-1,-2.745499849E0,6.902899742E0
2.044400000E1,-1.876399994E0,-1.043750000E1,1.220580006E1
2.046400156E1,-5.859899998E0,-1.095940018E1,5.640100002E0
2.049400000E1,-8.099900246E0,-3.286000013E0,7.520799637E0
2.051400000E1,-2.872599840E0,2.675499916E0,4.699999932E-3
2.053400000E1,3.423499823E0,1.929899931E0,-1.091499996E1
2.055400000E1,5.871399879E0,-7.738599777E0,-9.187299728E0
2.057400000E1,7.548499584E0,-1.014099979E1,-7.097099781E0
2.059400156E1,4.650000095E0,1.594099998E0,-1.181890011E1
2.062400000E1,2.990399837E0,8.739099503E0,-5.636499882E0
2.064400156E1,2.729599953E0,7.365599632E0,-1.018999934E0
2.066400156E1,7.090899944E0,-3.389099836E0,1.085589981E1
2.069400000E1,1.842599988E0,1.259699941E0,2.461299896E0
2.071400000E1,6.446999907E-1,8.319000006E-1,-2.528599977E0
2.073400156E1,-1.145099998E0,-4.946999848E-1,-6.001499653E0
2.076400000E1,-2.918699980E0,-8.198999763E-1,-5.187200069E0
2.078400000E1,-2.624699831E0,4.594999850E-1,-1.686999917E0
2.080400156E1,-3.526499987E0,1.183599949E0,1.479900002E0
2.083400000E1,-8.423999548E-1,1.013499975E0,-3.756999969E-1
2.085400000E1,1.337799907E0,7.074999809E-1,-7.348999977E-1
2.087400156E1,2.235899925E0,-1.658999920E-1,1.693999916E-1
2.090400000E1,2.506700039E0,-1.560699940E0,2.822799921E0
2.092400000E1,1.388799906E0,-6.948999763E-1,5.656099796E0
2.094400000E1,-1.505999923E0,-5.776000023E-1,4.632299900E0
2.096400156E1,-6.053199768E0,-3.259099960E0,4.043000042E-1
2.099400000E1,-1.145449924E1,-4.549799919E0,3.420599937E0
2.101400000E1,-8.372499466E0,-1.717599988E0,6.275799751E0
2.103400156E1,-4.827899933E0,-1.995700002E0,4.741600037E0
2.105400156E1,-3.379499912E0,-6.121999741E0,3.846699953E0
2.107400469E1,-2.604899883E0,-3.845599890E0,4.856199741E0
2.110400156E1,-2.041100025E0,-2.204900026E0,1.358299971E0
2.113400000E1,-2.425999939E-1,-4.491600037E0,-3.815199852E0
2.115400000E1,1.277499914E0,-6.148999691E0,-3.655399799E0
2.117400156E1,3.376199961E0,-6.033099651E0,-2.450799942E0
2.119400156E1,6.441699982E0,-4.673799992E0,2.329999954E-2
2.121400156E1,7.141499996E0,-1.310999990E0,1.854900002E0
2.123400156E1,4.385600090E0,1.021000028E0,-4.970999956E-1
2.126400000E1,2.304600000E0,2.320699930E0,-6.878299713E0
2.128400000E1,2.325999975E0,2.615599871E0,-6.284100056E0
2.130400156E1,3.059999943E0,2.896999836E0,-5.464699745E0
2.133400000E1,2.898699999E0,2.727499962E0,-4.974800110E0
2.135400000E1,2.969799995E0,2.226999998E0,-4.947599888E0
2.137400000E1,3.583400011E0,2.598500013E0,-4.381400108E0
2.139400000E1,5.259500027E0,4.244599819E0,-4.575099945E0
2.141400000E1,6.463099957E0,5.722199917E0,-4.810599804E0
2.143400000E1,7.120699883E0,6.378499985E0,-4.086899757E0
2.145400156E1,5.502899647E0,5.128299713E0,-1.566100001E0
2.147400156E1,1.371899962E0,6.028999686E-1,3.035399914E0
2.149400469E1,-5.229099751E0,-7.016699791E0,1.213099957E1
2.152400156E1,-5.513400078E0,-1.359759998E1,1.129719925E1
2.155400156E1,-3.037600040E0,-3.156899929E0,7.166699886E0
2.158400000E1,3.217199802E0,2.182600021E0,-5.316699982E0
2.160400000E1,6.376399994E0,-1.872999907E0,-1.000850010E1
2.162400000E1,7.227200031E0,-9.131299973E0,-7.924599648E0
2.164400000E1,6.068199635E0,-2.050099850E0,-9.117199898E0
2.166400156E1,3.779699802E0,6.025399685E0,-9.216799736E0
2.169400000E1,2.342599869E0,8.585700035E0,-4.633899689E0
2.171400000E1,1.158800006E0,3.895399809E0,-9.486999512E-1
2.173400156E1,2.406999916E-1,-5.349999905E0,3.951399803E0
2.176400000E1,-1.033599973E0,-9.382999539E-1,2.030999899E0
2.178400000E1,-1.459199905E0,1.402499914E0,-6.942999959E-1
2.180400156E1,-9.314999580E-1,1.091799974E0,-2.452699900E0
2.183400000E1,-1.029299974E0,-1.375999898E-1,-2.537499905E0
2.185400000E1,-7.766999602E-1,9.731999636E-1,-2.466599941E0
2.187400000E1,-1.504199982E0,1.737399936E0,-6.617000103E-1
2.189400000E1,-8.422999978E-1,1.104200006E0,-1.621000022E-1
2.191400469E1,9.634999633E-1,2.194999903E-1,-6.266999841E-1
2.194400000E1,2.448600054E0,-1.236400008E0,-1.099999994E-3
2.196400000E1,2.952999830E0,-1.090299964E0,2.444799900E0
2.198400000E1,2.176300049E0,7.400000002E-3,6.078199863E0
2.200400000E1,-6.032999754E-1,-7.080000043E-1,4.465899944E0
2.202400156E1,-5.178999901E0,-3.435099840E0,-5.206999779E-1
2.205400156E1,-9.517799377E0,-4.246900082E0,3.779500008E0
2.207400156E1,-6.986199856E0,-1.140399933E0,5.054800034E0
2.210400000E1,-3.318899870E0,-2.471400023E0,4.288300037E0
2.212400000E1,-2.457700014E0,-4.700299740E0,6.143099785E0
2.214400156E1,-2.236599922E0,-2.221799850E0,6.539999962E0
2.216400156E1,-1.100299954E0,1.732999980E-1,2.742699862E0
2.219400000E1,-1.612199903E0,-3.010699987E0,-5.530799866E0
2.221400156E1,-1.109200001E0,-7.363299847E0,-4.392600060E0
2.223400156E1,-2.789999917E-2,-8.262100220E0,-1.345999956E0
2.225400156E1,2.180199862E0,-7.838099957E0,-2.635000050E-1
2.228400000E1,7.030799866E0,-2.020699978E0,-2.212999910E-1
2.230400156E1,6.094500065E0,1.526099920E0,-1.704499960E0
2.233400000E1,2.692499876E0,3.164399862E0,-5.633499622E0
2.235400000E1,2.416699886E0,3.205899954E0,-5.305799961E0
2.237400000E1,3.533499956E0,3.538100004E0,-5.192199707E0
2.239400000E1,3.703299999E0,3.712499857E0,-5.187399864E0
2.241400000E1,3.207799911E0,2.686300039E0,-4.868799686E0
2.243400000E1,3.527099848E0,2.078799963E0,-4.363599777E0
2.245400000E1,4.630000114E0,3.647899866E0,-4.080599785E0
2.247400000E1,5.402199745E0,5.333999634E0,-4.634699821E0
2.249400000E1,6.535099983E0,5.932299614E0,-4.678800106E0
2.251400000E1,6.922999859E0,5.386899948E0,-3.582499981E0
2.253400156E1,5.168900013E0,2.614899874E0,4.187999964E-1
2.255400156E1,-6.814999580E-1,-3.130899906E0,9.259900093E0
2.257400156E1,-6.019299984E0,-1.237829971E1,1.594239998E1
2.259400156E1,-6.346199989E0,-1.395589924E1,9.741899490E0
2.262400000E1,-4.237299919E0,-4.365699768E0,5.720299721E0
2.264400000E1,4.250999987E-1,-8.571999669E-1,-1.909599900E0
2.266400156E1,5.831500053E0,-1.007200003E0,-1.002309990E1
2.269400000E1,7.419899940E0,-4.071899891E0,-8.224499702E0
2.271400000E1,6.639799595E0,3.345099926E0,-7.676199913E0
2.273400156E1,4.467799664E0,7.954299927E0,-6.656899929E0
2.276400000E1,2.254600048E0,6.281699657E0,-2.588099957E0
2.278400000E1,1.704599977E0,9.117999673E-1,-1.552999973E0
2.280400156E1,-4.365999997E-1,-4.966899872E0,4.993999898E-1
2.283400000E1,-1.158900023E0,-9.696999788E-1,2.088399887E0
2.285400000E1,-5.181999803E-1,8.513999581E-1,3.897999823E-1
2.287400156E1,-7.490000129E-2,8.356999755E-1,-1.171299934E0
2.290400000E1,-5.194000006E-1,3.389999866E-1,-2.447199821E0
2.292400000E1,-6.301999688E-1,9.657999873E-1,-3.799099922E0
2.294400000E1,-9.474999905E-1,1.629799962E0,-1.968099952E0
2.296400000E1,-1.864399910E0,9.644999504E-1,6.583999991E-1
2.298400000E1,-7.703999877E-1,-5.079999939E-2,4.573999941E-1
2.300400000E1,3.461999893E-1,-6.793000102E-1,-2.149000019E-1
2.302400156E1,1.426399946E0,-1.245499969E0,4.860999882E-1
2.305400156E1,2.603999853E0,-2.431999892E-1,5.910399914E0
2.307400156E1,1.102999970E-1,-7.749999762E-1,5.046599865E0
2.309400156E1,-5.019499779E0,-3.632699966E0,-2.479999885E-2
2.312400000E1,-9.157499313E0,-3.228799820E0,3.541399956E0
2.314400156E1,-6.728099823E0,-6.658999920E-1,4.187799931E0
2.317400000E1,-4.144199848E0,-6.744099617E0,3.473500013E0
2.319400000E1,-2.720199823E0,-5.579400063E0,5.754399776E0
2.321400000E1,-2.821499825E0,-1.873899937E0,4.674299717E0
2.323400156E1,-1.722399950E0,-1.854699969E0,1.344599962E0
2.326400156E1,-1.550000012E-1,-2.747999907E0,-4.719500065E0
2.329400000E1,2.126100063E0,-5.041699886E0,-2.799099922E0
2.331400156E1,4.025799751E0,-4.511899948E0,-4.368999898E-1
2.334400000E1,5.329199791E0,-1.421700001E0,8.600999713E-1
2.336400000E1,3.491299868E0,-7.627999783E-1,-7.173999548E-1
2.338400000E1,2.440500021E0,7.738999724E-1,-4.186899662E0
2.340400000E1,2.196199894E0,1.912699938E0,-6.526000023E0
2.342400000E1,2.554399967E0,2.558899879E0,-6.494599819E0
2.344400000E1,3.140799999E0,2.972999811E0,-5.342799664E0
2.346400156E1,3.203799963E0,3.164799929E0,-4.117899895E0
2.349400000E1,3.889499903E0,3.482199907E0,-3.854499817E0
2.351400000E1,4.130599976E0,4.031499863E0,-4.228799820E0
2.353400156E1,4.474899769E0,5.154699802E0,-4.760699749E0
2.355400156E1,5.095999718E0,6.035799980E0,-4.976799965E0
2.357400156E1,5.304999828E0,6.009099960E0,-3.838199854E0
2.359400156E1,3.082199812E0,3.316099882E0,6.570999622E-1
2.362400000E1,-3.235399961E0,-4.766399860E0,1.172060013E1
2.364400156E1,-1.633099914E0,-1.406029987E1,1.294320011E1
2.366400156E1,-3.364499807E0,-1.044979954E1,7.823999882E0
2.369400000E1,-1.566599965E0,-6.730999947E-1,3.668499947E0
2.371400000E1,2.067999840E0,1.069999933E0,-4.718999863E0
2.373400156E1,4.782599926E0,-1.170099974E0,-7.405499935E0
2.376400000E1,5.897599697E0,-7.501399994E0,-1.197060013E1
2.378400000E1,3.713299990E0,9.253000021E-1,-9.130299568E0
2.380400156E1,1.677199960E0,5.454999924E0,-6.728799820E0
2.382400156E1,-2.260999978E-1,6.872099876E0,-4.690000057E0
2.385400000E1,-3.506999969E0,2.192100048E0,-3.264400005E0
2.387400000E1,-3.706199884E0,-5.154999733E0,3.361099958E0
2.389400000E1,-1.092899919E0,-3.582899809E0,7.951999903E-1
2.391401094E1,5.271999836E-1,1.033200026E0,-3.962000012E-1
2.394400000E1,2.305099964E0,2.274499893E0,-1.669699907E0
2.396400469E1,3.205699921E0,1.017300010E0,-1.409099936E0
2.399400000E1,3.009999990E-1,2.851999998E-1,-1.849200010E0
2.401400625E1,-1.318099976E0,2.822999954E-1,-2.474200010E0
2.404400000E1,-2.300199986E0,-5.584999919E-1,-3.341999948E-1
2.406400000E1,-1.461599946E0,-1.206900001E0,7.615000010E-1
2.408400000E1,-2.397999913E-1,-1.099200010E0,1.756999969E0
2.410400156E1,3.659999967E-1,-5.604000092E-1,3.027499914E0
2.413400000E1,-3.066399813E0,-2.460999966E0,3.316299915E0
2.415400000E1,-7.334799767E0,-4.459199905E0,1.138499975E0
2.417400000E1,-1.076149940E1,-4.030399799E0,1.675399899E0
2.419400000E1,-8.836099625E0,-1.526099920E0,4.654799938E0
2.421400156E1,-4.843899727E0,-8.382999897E-1,3.865999937E0
2.423400156E1,-4.336499691E0,-4.003099918E0,1.486599922E0
2.426400000E1,-3.763499975E0,-3.439100027E0,1.666499972E0
2.428400000E1,-2.475800037E0,-1.788999915E0,-4.389999807E-1
2.430400000E1,-8.901999593E-1,-1.488199949E0,-2.430599928E0
2.432400156E1,4.219999909E-2,-4.888499737E0,-4.022799969E0
2.435400000E1,4.337699890E0,-5.484799862E0,-2.638799906E0
2.437400000E1,6.845399857E0,-3.330299854E0,-2.414000034E0
2.439400000E1,3.934999943E0,-2.945999801E-1,-1.918199897E0
2.441400000E1,1.995999962E-1,-8.769999444E-2,-3.654899836E0
2.443400000E1,-1.489000022E-1,2.845000029E-1,-7.808899879E0
2.445400000E1,6.013000011E-1,9.598999619E-1,-7.540599823E0
2.447400156E1,1.829899907E0,1.693699956E0,-6.402899742E0
2.450400000E1,1.712399960E0,1.652300000E0,-4.597399712E0
2.452400156E1,2.302599907E0,9.231999516E-1,-3.319199800E0
2.455400156E1,4.431799889E0,3.155599833E0,-3.881799936E0
2.457400156E1,5.470499992E0,4.390100002E0,-4.149399757E0
2.459400156E1,6.472599983E0,5.222399712E0,-3.680899858E0
2.462400000E1,7.294399738E0,5.024699688E0,-1.611299992E0
2.464400000E1,5.698899746E0,2.754199982E0,2.139799833E0
2.466400156E1,3.249300003E0,-6.726999879E-1,5.164599895E0
2.469400000E1,-2.789999843E-1,-9.813899994E0,1.214619923E1
2.471400000E1,-5.131899834E0,-1.142640018E1,5.022299767E0
2.473400156E1,-9.215799332E0,-7.952499866E0,6.752599716E0
2.476400000E1,-4.394700050E0,3.418299913E0,-3.447799921E0
2.478400000E1,1.180299997E0,2.454499960E0,-1.337089920E1
2.480400000E1,3.296399832E0,-5.526999950E0,-1.182989979E1
2.482400000E1,3.724599838E0,-7.409599781E0,-9.321499825E0
2.484400000E1,2.242300034E0,2.177999914E-1,-7.798799992E0
2.486400000E1,1.817899942E0,6.147299767E0,-4.623199940E0
2.488400156E1,1.941100001E0,7.209499836E0,-2.697399855E0
2.491400000E1,6.109399796E0,-1.272699952E0,3.354399920E0
2.493400000E1,4.191999912E0,-1.343899965E0,3.069599867E0
2.495400000E1,1.188699961E0,4.092999995E-1,1.862399936E0
2.497400000E1,-1.390200019E0,6.287999749E-1,-3.059999831E-2
2.499400000E1,-2.489699841E0,6.953999996E-1,-3.745699883E0
2.501400000E1,-2.461499929E0,5.148999691E-1,-5.434199810E0
2.503400156E1,-2.285199881E0,5.329999924E-1,-2.759899855E0
2.505400156E1,-2.932399988E0,3.879999742E-2,2.169999853E-2
2.507400312E1,-1.668099999E0,2.893999815E-1,-9.519999474E-2
2.510400469E1,-1.684999913E-1,7.692999840E-1,-7.408999801E-1
2.513400000E1,1.388599992E0,5.669000149E-1,-5.254999995E-1
2.515400000E1,2.141799927E0,-2.129999995E-1,3.931999803E-1
2.517400000E1,1.325799942E0,-1.093599916E0,2.179299831E0
2.519400000E1,-1.684599996E0,-1.535899997E0,2.747599840E0
2.521400156E1,-5.460799694E0,-3.776099920E0,7.978000045E-1
2.523400156E1,-8.954500198E0,-5.980899811E0,1.133199930E0
2.526400000E1,-9.330900192E0,-3.655200005E0,4.939099789E0
2.528400000E1,-8.549499512E0,-3.840799809E0,3.424599886E0
2.530400000E1,-8.599299431E0,-6.532499790E0,1.959399939E0
2.532400000E1,-7.439299583E0,-5.001699924E0,3.534799814E0
2.534400000E1,-5.842400074E0,-2.339999914E0,2.764499903E0
2.536400000E1,-3.054899931E0,-1.634599924E0,7.303999662E-1
2.538400156E1,-2.388999909E-1,-3.364399910E0,-2.089799881E0
2.541400000E1,5.523699760E0,-6.361700058E0,-2.853999853E0
2.543400000E1,8.715499878E0,-6.241600037E0,-6.103999615E-1
2.545400156E1,1.063169956E1,-3.180699825E0,8.702999949E-1
2.547400156E1,6.990200043E0,6.743999720E-1,2.779999971E-1
2.550400000E1,2.612699986E0,2.840499878E0,-4.980599880E0
2.552400156E1,3.544999957E-1,3.367100000E0,-7.224499702E0
2.555400156E1,-1.484999955E-1,3.659299850E0,-7.011600018E0
2.557400156E1,-3.583000004E-1,2.534099817E0,-4.725500107E0
2.559400156E1,6.079999804E-1,1.354200006E0,-1.359699965E0
2.562400000E1,9.236999750E-1,1.843199968E0,-5.339999869E-2
2.564400000E1,2.469999902E-2,2.263399839E0,-2.668999910E0
2.566400156E1,2.108999938E-1,2.335899830E0,-4.170199871E0
2.569400000E1,2.275799990E0,2.737900019E0,-2.886199951E0
2.571400156E1,2.215100050E0,3.237099886E0,-1.793999970E-1
2.573400156E1,1.227299929E0,2.677399874E0,3.566099882E0
2.576400000E1,5.527999997E-1,-3.684499979E0,1.437629986E1
2.578400000E1,2.574399948E0,-5.286900043E0,6.351500034E0
2.580400000E1,1.498600006E0,-3.063699961E0,2.055299997E0
2.582400000E1,5.543999672E-1,7.249999791E-2,9.878999591E-1
2.584400000E1,2.125999928E-1,2.187799931E0,3.294099808E0
2.586400000E1,-1.985599995E0,2.147599936E0,1.641499996E0
2.588400156E1,3.155999780E-1,3.389199972E0,-1.315730000E1
2.591400000E1,4.413099766E0,-1.085099936E0,-1.617969894E1
2.593400000E1,6.841699600E0,-3.056099892E0,-7.859399796E0
2.595400000E1,5.202300072E0,-2.212899923E0,-3.277999878E0
2.597400000E1,-1.902899981E0,-1.082299948E0,1.070479965E1
2.599400000E1,1.827699900E0,2.048199892E0,4.450999796E-1
2.601400000E1,6.606999636E-1,4.044300079E0,-5.553999901E0
2.603400000E1,-1.591300011E0,4.559000015E0,-5.335399628E0
2.605400156E1,8.457999825E-1,1.259099960E0,-2.416699886E0
2.607400156E1,2.064399958E0,-4.447999895E-1,-6.480000168E-2
2.609400156E1,5.219999701E-2,-8.564999700E-1,5.526999831E-1
2.612400000E1,-3.155299902E0,-3.321999907E-1,-2.460399866E0
2.614400156E1,-5.037499905E0,-1.204299927E0,-4.706599712E0
2.616400156E1,-7.171599865E0,-4.032099724E0,-3.137799978E0
2.619400000E1,-8.667799950E0,-5.381099701E0,-1.524500012E0
2.621400000E1,-6.593699932E0,-9.891999960E-1,6.745800018E0
2.623400156E1,-5.854199886E0,-4.961199760E0,9.713299751E0
2.626400000E1,-1.410260010E1,-1.038840008E1,6.393199921E0
2.628404219E1,-1.834840012E1,-6.762799740E0,1.677260017E1
2.631400156E1,-1.024240017E1,-2.302599907E0,2.623600006E0
2.634400000E1,8.106299400E0,-9.186999321E0,3.042500019E0
2.636400000E1,1.400539970E1,-1.240499973E1,7.626399994E0
2.638400156E1,2.214399910E1,-1.769859886E1,8.231299400E0
2.641400000E1,2.234009933E1,-1.051729965E1,5.195399761E0
2.643400000E1,1.686540031E1,-6.182199955E0,-1.030999944E-1
2.645400156E1,1.114760017E1,-3.464099884E0,-4.727799892E0
2.647400781E1,3.842499971E0,-1.895499945E0,-8.342499733E0
2.650400000E1,-1.231499910E0,1.026000008E-1,-1.198649979E1
2.652400156E1,-1.866699934E0,1.606299996E0,-9.846499443E0
2.655400156E1,-2.483000040E0,6.577099800E0,-7.184499741E0
2.657400156E1,-9.742999673E-1,1.209109974E1,-9.035999298E0
2.659400312E1,1.387799978E0,1.877050018E1,-9.437500000E0
2.662400156E1,1.656999946E0,1.645699883E1,-1.328359985E1
2.664400312E1,-1.870999932E-1,1.364309978E1,-4.389499664E0
2.667400000E1,5.937599659E0,-1.046599960E1,3.942899942E0
2.669400938E1,3.033099937E1,-1.877739906E1,-3.065859985E1
2.672400000E1,1.085339928E1,-2.626299858E1,-1.846609879E1
2.674401094E1,2.292199850E0,-5.443799973E0,-1.255729961E1
2.677400000E1,-2.766999960E0,1.063099957E1,1.869569969E1
2.679400000E1,8.795599937E0,8.418999672E0,2.982100010E0
2.681400000E1,6.971600056E0,4.177000046E0,-3.369899988E0
2.683400000E1,1.090499997E0,-1.671700001E0,-5.291000009E-1
2.685400000E1,2.921999991E-1,-4.467199802E0,-4.870500088E0
2.687400000E1,3.027999997E-1,-5.990999699E0,-7.529399872E0
2.689400156E1,-1.417400002E0,-5.164599895E0,-7.598299980E0
2.692400000E1,-4.675699711E0,-8.309999704E-1,9.448399544E0
2.694400000E1,-2.961899996E0,-1.472899914E0,6.017899990E0
2.696400000E1,-2.871199846E0,-6.782199860E0,7.352099895E0
2.698400000E1,-7.573999882E0,-2.695499897E0,6.705999851E0
2.700400000E1,-1.607929993E1,-3.340499878E0,5.552399635E0
2.702400000E1,-1.857129860E1,-5.289999843E-1,6.625699997E0
2.704400000E1,-1.684910011E1,4.891999722E0,1.195889950E1
2.706400000E1,-4.686999798E0,6.013000011E-1,4.320399761E0
2.708400156E1,3.155499935E0,-7.150799751E0,2.959800005E0
2.710400156E1,5.742300034E0,-1.574239922E1,3.921499968E0
2.713400000E1,1.690629959E1,-1.740189934E1,4.966700077E0
2.715400000E1,2.229089928E1,-1.103189945E1,3.329499960E0
2.717400156E1,1.723349953E1,-3.935699940E0,-7.055999637E-1
2.720400000E1,6.703199863E0,1.149299979E0,-4.995100021E0
2.722400000E1,3.954299927E0,1.635199904E0,-8.717599869E0
2.724400156E1,2.831699848E0,2.278599977E0,-1.300629997E1
2.727400156E1,3.830000013E-2,3.740099907E0,-1.005729961E1
2.730400156E1,-2.448299885E0,8.077499390E0,-1.276410007E1
2.733400000E1,1.807599902E0,1.407669926E1,-1.351369953E1
2.735400000E1,1.865000010E0,1.788379860E1,1.047839928E1
2.737400000E1,-2.153940010E1,-3.123399973E0,6.318789673E1
2.739400000E1,1.471630001E1,-1.920820045E1,-2.070849991E1
2.741400000E1,1.554909992E1,-3.250699997E0,-5.664299965E0
2.743400000E1,1.968980026E1,-9.740099907E0,-8.451700211E0
2.745400156E1,5.887000084E0,-1.720019913E1,-3.394309998E1
2.747400156E1,-7.218999863E-1,-1.114149952E1,-3.646509933E1
2.750400000E1,3.871599913E0,-5.018799782E0,-9.811499596E0
2.752400156E1,-6.547599792E0,-5.882499695E0,4.509140015E1
2.755400000E1,4.012599945E0,-1.899199963E0,-3.063879967E1
2.757400000E1,6.029999733E0,-1.921199918E0,2.780799866E0
2.759400156E1,3.507499933E0,-4.282000065E0,-1.191999912E0
2.762400000E1,-2.091599941E0,-6.592299938E0,-3.901099920E0
2.764400000E1,-5.351999760E0,-4.504099846E0,-3.134099960E0
2.766400156E1,-6.931999683E0,-1.268000007E-1,2.065799952E0
2.769400000E1,-1.243209934E1,-3.218499899E0,5.943099976E0
2.771400000E1,-1.444309998E1,-6.919600010E0,9.242999554E-1
2.773400000E1,-1.125619984E1,-2.427099943E0,-1.548200011E0
2.775400000E1,-1.013879967E1,2.695099831E0,-3.342299938E0
2.777400000E1,-8.453299522E0,3.012699842E0,-5.574800014E0
2.779400000E1,-5.647399902E0,5.460000038E-1,-3.600999832E0
2.781400156E1,-4.624899864E0,-5.810100079E0,-4.227999687E0
2.784400000E1,-4.739999771E-1,-6.207200050E0,-5.257499695E0
2.786400000E1,8.599999361E-3,-5.529699802E0,-5.450699806E0
2.788400156E1,1.550300002E0,-4.137799740E0,-5.024499893E0
2.791400000E1,3.557199955E0,-2.903800011E0,-4.762099743E0
2.793400000E1,4.361400127E0,-1.054899931E0,-3.594599962E0
2.795400156E1,5.693099976E0,1.029699922E0,-2.923399925E0
2.798400000E1,5.717599869E0,3.547399998E0,-3.520999908E0
2.800400000E1,4.550199986E0,3.917799950E0,-4.742700100E0
2.802400156E1,4.343199730E0,4.329699993E0,-5.548199654E0
2.805400000E1,4.263899803E0,4.789400101E0,-5.517099857E0
2.807400156E1,4.407599926E0,3.567999840E0,-5.259900093E0
2.809400156E1,4.399499893E0,2.113499880E0,-4.628900051E0
2.812400000E1,3.180599928E0,2.012999952E-1,2.578500032E0
2.814400156E1,-9.734999537E-1,-2.315199852E0,1.347959995E1
2.816400156E1,-5.138299942E0,-6.619199753E0,1.409189987E1
2.819400000E1,4.070999920E-1,-8.021900177E0,1.302199960E0
2.821400156E1,3.283900023E0,-1.825699925E0,-1.090549946E1
2.823400156E1,5.207200050E0,-2.685699940E0,-1.053520012E1
2.826400000E1,3.521600008E0,-6.103899956E0,-1.045289993E1
2.828400000E1,2.845099926E0,-9.855999947E-1,-1.330509949E1
2.830400000E1,3.504899979E0,1.462499976E0,-1.315509987E1
2.832400000E1,7.184000015E-1,-1.083799958E0,-9.382399559E0
2.834400000E1,-1.630000025E-1,-2.808300018E0,-6.666199684E0
2.836400000E1,2.757000029E-1,-3.344899893E0,-4.955899715E0
2.838400156E1,4.434999824E-1,-3.370599985E0,-4.278500080E0
2.841400000E1,4.392099857E0,2.266700029E0,1.191090012E1
2.843400000E1,3.651099920E0,3.292999983E0,7.062799931E0
2.845400156E1,3.166699886E0,3.049299955E0,-6.722999811E-1
2.847400781E1,1.785200000E0,2.034999847E0,-3.733099937E0
2.850400000E1,-2.109499931E0,1.389500022E0,-4.448499680E0
2.852400156E1,-4.365799904E0,1.326799989E0,-3.187799931E0
2.855400000E1,-5.287699699E0,-1.534600019E0,5.475000143E-1
2.857400000E1,-3.437699795E0,-3.253399849E0,4.706899643E0
2.859400156E1,-2.351799965E0,-3.694299936E0,9.286899567E0
2.862400000E1,-7.673799992E0,-4.930399895E0,2.094399929E0
2.864400000E1,-1.122130013E1,-6.427199841E0,-1.271700025E0
2.866400156E1,-1.502119923E1,-6.934799671E0,7.307999730E-1
2.868400156E1,-1.581029987E1,-5.644799709E0,3.061399937E0
2.871400000E1,-1.109700012E1,-1.981799960E0,1.028499961E0
2.873400000E1,-7.423799992E0,-2.802399874E0,-2.469899893E0
2.875400000E1,-4.238899708E0,-7.342700005E0,-5.692999840E0
2.877400000E1,1.098199964E0,-7.765699863E0,-7.291800022E0
2.879400000E1,4.644999981E0,-6.067699909E0,-5.883899689E0
2.881400000E1,4.586299896E0,-6.099999905E0,-4.749799728E0
2.883400000E1,3.292399883E0,-1.560699940E0,-3.556699991E0
2.885400000E1,5.206999779E-1,8.622999787E-1,-1.242900014E0
2.887400000E1,9.013999701E-1,3.227999806E-1,-3.959199905E0
2.889400000E1,2.495800018E0,-3.463999927E-1,-6.810599804E0
2.891400000E1,2.449399948E0,4.773999751E-1,-8.312099457E0
2.893400000E1,1.777999997E0,1.972999930E0,-7.854699612E0
2.895400156E1,4.163999856E-1,2.326099873E0,-4.295799732E0
2.898400000E1,2.654500008E0,2.868700027E0,-1.124400020E0
2.900400000E1,5.503799915E0,3.903999805E0,-3.393800020E0
2.902400156E1,6.581799984E0,4.525000095E0,-3.711999893E0
2.905400000E1,1.109539986E1,4.603899956E0,-7.976999879E-1
2.907400000E1,6.132299900E0,2.779799938E0,6.104199886E0
2.909400156E1,2.355000019E0,-9.062999487E-1,5.600199699E0
2.912400000E1,-2.168799877E0,-8.105999947E0,7.637300014E0
2.914400156E1,-5.628299713E0,-5.991699696E0,2.781800032E0
2.916400156E1,-8.107399940E0,-2.243799925E0,-7.885999680E-1
2.919400000E1,-7.214699745E0,-3.674499989E0,-4.378499985E0
2.921400000E1,-3.179999813E-2,-9.819699287E0,-1.144779968E1
2.923400000E1,1.612399936E0,-1.207769966E1,-1.200360012E1
2.925400156E1,1.712799907E0,-3.134000003E-1,-9.461999893E0
2.928400000E1,2.593299866E0,8.427000046E0,-1.939199924E0
2.930400000E1,2.933599949E0,8.657699585E0,-1.762999892E-1
2.932400156E1,6.435899734E0,3.435999870E0,5.680999756E0
2.935400000E1,3.469099998E0,1.096000001E-1,-5.730999708E-1
2.937400000E1,2.498800039E0,-3.962000012E-1,-4.020199776E0
2.939400000E1,9.511999488E-1,-4.702000022E-1,-8.469699860E0
2.941400000E1,-1.152499914E0,-4.748999774E-1,-6.290699959E0
2.943400000E1,-1.010999918E0,3.590999842E-1,-2.290899992E0
2.945400156E1,-1.994499922E0,5.859999657E-1,1.778699994E0
2.948400000E1,-1.068300009E0,-6.276999712E-1,4.833499908E0
2.950400000E1,5.503999591E-1,-4.470999837E-1,3.267400026E0
2.952400156E1,-3.003000021E-1,-1.293799996E0,1.500499964E0
2.955400000E1,-5.114500046E0,-1.373199940E0,5.180099964E0
2.957400000E1,-9.943399429E0,-3.061100006E0,1.715499997E0
2.959400000E1,-1.353829956E1,-5.804999828E0,-6.395999789E-1
2.961400000E1,-1.405009937E1,-4.375199795E0,3.520599842E0
2.963400000E1,-1.069439983E1,-3.891799927E0,3.260399818E0
2.965400156E1,-8.142399788E0,-5.332200050E0,2.111700058E0
2.967400156E1,-4.903599739E0,-5.132800102E0,4.114999771E-1
2.970400000E1,-2.421999872E-1,-5.808199883E0,1.376799941E0
2.972400000E1,2.560899973E0,-7.588299751E0,-1.388399959E0
2.974400781E1,5.871099949E0,-6.615999699E0,-2.852200031E0
2.977400000E1,1.076760006E1,-1.412599921E0,-1.195699930E0
2.979400000E1,7.398799896E0,3.887499809E0,-7.269999981E-1
2.981400156E1,2.485299826E0,2.846299887E0,-2.563599825E0
2.984400000E1,-1.012599945E0,1.432399988E0,-4.770199776E0
2.986400156E1,-7.001000047E-1,1.674799919E0,-4.767600060E0
2.988400156E1,2.091999948E-1,1.809799910E0,-4.320499897E0
2.991400156E1,1.691100001E0,3.706799984E0,-5.596199989E0
2.993400156E1,1.747799993E0,5.010399818E0,-7.171199799E0
2.995400156E1,2.279099941E0,4.756000042E0,-6.903100014E0
2.998400156E1,4.644199848E0,2.733700037E0,-4.908499718E0
3.001400000E1,5.141200066E0,1.378999949E0,-1.808799982E0
3.003400156E1,2.909399986E0,8.048999906E-1,1.777899981E0
3.006400000E1,-3.304899931E0,-3.158499956E0,1.005270004E1
3.008400000E1,-7.969999790E0,-7.560199738E0,1.264519978E1
3.010400156E1,-5.734200001E0,-7.928999901E0,9.273799896E0
3.013400000E1,-1.051100016E0,-2.037299871E0,7.515399933E0
3.015400000E1,8.696999550E-1,4.262700081E0,2.327999920E-1
3.017400000E1,4.266299725E0,8.685899734E0,-6.998299599E0
3.019400000E1,5.088999748E0,4.852299690E0,-7.972099781E0
3.021400000E1,3.673399925E0,-5.017899990E0,-3.262799978E0
3.023400000E1,8.344799995E0,-1.513159943E1,-4.595499992E0
3.025400000E1,4.033699989E0,-8.462200165E0,-9.651499748E0
3.027400000E1,2.648999929E0,-2.709999867E-2,-8.395099640E0
3.029400000E1,2.638799906E0,5.863499641E0,-6.935799599E0
3.031400156E1,2.484999895E-1,6.813600063E0,-4.102900028E0
3.034400000E1,-2.319599867E0,-1.629899979E0,4.712100029E0
3.036400000E1,-3.703999817E-1,-3.330999851E0,9.389900208E0
3.038400000E1,2.224900007E0,4.705999792E-1,2.884099960E0
3.040400000E1,2.461599827E0,2.069299936E0,-2.038399935E0
3.042400000E1,6.517999768E-1,1.925699949E0,-5.901000023E0
3.044400000E1,-2.520000041E-1,1.163100004E0,-5.563399792E0
3.046400156E1,-1.481999993E0,9.716999531E-1,-3.096400023E0
3.049400000E1,-4.044499874E0,1.730000041E-2,2.949899912E0
3.051400000E1,-2.232199907E0,-3.183999956E-1,1.902999997E0
3.053400000E1,-2.109999955E-1,-7.046999931E-1,1.569399953E0
3.055400000E1,8.470999599E-1,-1.341699958E0,3.329299927E0
3.057400000E1,-5.730999708E-1,-2.398399830E0,4.603199959E0
3.059400156E1,-3.875499964E0,-2.747599840E0,3.452099800E0
3.062400000E1,-8.370399475E0,-4.400599957E0,2.310600042E0
3.064400000E1,-7.398399830E0,-3.192099810E0,4.720799923E0
3.066400000E1,-3.732599974E0,-1.098699927E0,6.807299614E0
3.068400000E1,-5.959999561E-1,-4.874999821E-1,8.173199654E0
3.070400000E1,4.721999764E-1,-6.182999611E-1,9.506999969E0
3.072400000E1,-1.519099951E0,-2.200700045E0,5.310499668E0
3.074400156E1,-5.377899647E0,-3.140199900E0,-2.570499897E0
3.077400000E1,-1.091939926E1,-7.085000038E0,-1.045749950E1
3.079400000E1,-7.614999771E0,-7.277499676E0,-1.593400002E0
3.081400000E1,-5.166599751E0,-8.838399887E0,3.182099819E0
3.083400000E1,1.192499995E0,-1.008209991E1,2.806999981E-1
3.085400000E1,9.128799438E0,-6.620599747E0,-4.170999825E-1
3.087400000E1,1.040810013E1,1.373399973E0,-1.360700011E0
3.089400000E1,5.766799927E0,4.414999962E0,-3.836299896E0
3.091400000E1,2.093600035E0,4.120100021E0,-4.739799976E0
3.093400000E1,6.718999743E-1,3.663599968E0,-3.986899853E0
3.095400156E1,1.107999921E0,2.964999914E0,-4.344799995E0
3.098400000E1,1.924799919E0,3.260000050E-1,-6.751599789E0
3.100400000E1,2.047999859E0,-5.446999669E-1,-7.797299862E0
3.102400156E1,3.769799948E0,1.027799964E0,-6.298500061E0
3.105400000E1,4.786399841E0,3.926299810E0,-3.809000015E0
3.107400000E1,5.030499935E0,4.649399757E0,-3.953999996E0
3.109400156E1,4.995199680E0,4.765299797E0,-4.142699718E0
3.112400000E1,3.741400003E0,-2.412999868E-1,7.484899998E0
3.114400156E1,1.239999942E-2,-3.348500013E0,3.187500000E1
3.117400156E1,5.839499950E0,-4.657299995E0,3.162599802E0
3.120400000E1,5.459599972E0,-1.097599983E0,-7.639099598E0
3.122400000E1,3.744400024E0,-2.701200008E0,-1.294959927E1
3.124400156E1,3.896399975E0,-3.699399948E0,-1.343269920E1
3.127404219E1,3.665699959E0,-6.021899700E0,-8.926199913E0
3.130400000E1,1.055400014E0,-2.834899902E0,-7.160099983E0
3.132400156E1,-4.815999866E-1,-1.220999956E-1,-4.482599735E0
3.135400000E1,-4.750299931E0,-1.619300008E0,5.161499977E0
3.137400000E1,-1.022899985E0,5.297999978E-1,-6.565999985E-1
3.139400000E1,2.224499941E0,9.506999850E-1,-4.779999733E0
3.141400000E1,4.201200008E0,4.352999926E-1,-3.764099836E0
3.143400000E1,2.844799995E0,6.602999568E-1,-4.196999967E-1
3.145400000E1,-4.166999757E-1,5.433999896E-1,6.840999722E-1
3.147400000E1,-1.927599907E0,8.296999931E-1,-1.360399961E0
3.149400000E1,-2.102400064E0,6.259999871E-1,-2.943300009E0
3.151400000E1,-1.405599952E0,-7.763999701E-1,-9.868999720E-1
3.153400000E1,-1.410899997E0,-1.569599986E0,7.432999611E-1
3.155400000E1,-6.707999706E-1,-1.613899946E0,3.829999864E-1
3.157400000E1,4.239999950E-1,-1.280300021E0,-1.051399946E0
3.159400156E1,1.377399921E0,-9.677000046E-1,-1.820499897E0
3.162400000E1,3.027199984E0,2.046999931E-1,-8.198999763E-1
3.164400000E1,3.606599808E0,1.139199972E0,4.930000007E-2
3.166400000E1,2.896100044E0,1.193799973E0,-5.256000161E-1
3.168400000E1,1.710599899E0,2.115999907E-1,-2.205800056E0
3.170400000E1,-1.067999974E-1,1.229999959E-2,-4.526599884E0
3.172400000E1,-1.052999973E0,-7.310000062E-1,-6.065499783E0
3.174400156E1,-1.218500018E0,-1.578799963E0,-5.301199913E0
3.177400000E1,1.109899998E0,-3.602499962E0,-1.503499985E0
3.179400000E1,3.388599873E0,-1.012699962E0,3.268100023E0
3.181400156E1,2.963599920E0,1.895299911E0,7.590799809E0
3.184400000E1,-1.910699964E0,1.864499927E0,6.904699802E0
3.186400000E1,-1.022999954E1,-3.940599918E0,9.381899834E0
3.188400156E1,-6.998499870E0,-1.281929970E1,4.251800060E0
3.191400000E1,-1.494399905E0,-2.068699837E0,-1.502099991E0
3.193400000E1,-1.151499987E0,3.721400023E0,6.190999746E-1
3.195400156E1,-1.218799949E0,5.043200016E0,4.297199726E0
3.198400000E1,-3.095999956E-1,2.187799931E0,6.092700005E0
3.200400000E1,7.527999878E-1,7.021999955E-1,2.709699869E0
3.202400156E1,1.215999961E0,1.844299912E0,-2.371700048E0
3.205400000E1,1.391399980E0,3.503000021E0,-9.226399422E0
3.207400000E1,-8.088999987E-1,2.664599895E0,-9.798600197E0
3.209400156E1,-2.765300035E0,1.452799916E0,-7.836699963E0
3.212400000E1,-3.561599970E0,-2.048099995E0,1.902999878E-1
3.214400156E1,-2.384199858E0,-3.636199951E0,3.209999800E0
3.217400156E1,-2.912499905E0,-1.418399930E0,1.187500000E0
3.220400000E1,-3.257400036E0,-4.381700039E0,-2.190099955E0
3.222400000E1,-1.783299923E0,-4.393899918E0,1.663499951E0
3.224400156E1,-4.677199841E0,-1.144699931E0,1.097939968E1
3.227400156E1,-7.878799915E0,2.079200029E0,8.569999933E-1
3.230400000E1,-5.365900040E0,3.671999931E0,-5.592000008E0
3.232400000E1,-5.844799995E0,9.131999612E-1,1.645999998E-1
3.234400000E1,-3.860699892E0,-5.412399769E0,4.350699902E0
3.236400000E1,-2.156499863E0,-7.359099865E0,6.557699680E0
3.238400156E1,-2.497299910E0,-4.377200127E0,2.895599842E0
3.241400000E1,-1.695899963E0,7.149999738E-1,-1.645599961E0
3.243400000E1,3.662999868E-1,2.601199865E0,-6.746000051E-1
3.245400156E1,2.768499851E0,3.813399792E0,7.920999527E-1
3.248400000E1,6.915000081E-1,1.407099962E0,-8.193999529E-1
3.250400000E1,-2.593899965E0,-8.676999807E-1,-3.489799976E0
3.252400156E1,-4.583499908E0,-6.956999898E-1,-4.596699715E0
3.254400156E1,-4.622099876E0,-7.918999791E-1,-4.281899929E0
3.257400000E1,-2.770999968E-1,-9.505999684E-1,-4.409199715E0
3.259400156E1,2.386299849E0,-1.441799998E0,-4.903599739E0
3.262400000E1,2.216799974E0,-2.208499908E0,-7.419799805E0
3.264400000E1,5.586999655E-1,-1.365899920E0,-8.855500221E0
3.266400000E1,1.964000016E-1,5.079999939E-2,-7.882199764E0
3.268400000E1,-3.911999762E-1,4.906999767E-1,-3.033699989E0
3.270400000E1,-5.471999645E-1,-3.409999847E0,4.302999973E0
3.272400000E1,4.073999882E0,-3.450399876E0,6.224899769E0
3.274400156E1,4.717000008E0,-5.443999767E-1,6.222399712E0
3.277400000E1,4.152999818E-1,-3.176100016E0,1.774729919E1
3.279400000E1,1.961499929E0,-1.018709946E1,8.386899948E0
3.281400000E1,5.404900074E0,-6.644999981E0,1.606299996E0
3.283400000E1,4.313499928E0,4.425999820E-1,9.351999760E-1
3.285400000E1,2.200399876E0,3.544699907E0,-2.457999885E-1
3.287400000E1,-1.334999919E0,4.711699963E0,6.830999851E-1
3.289400000E1,-6.791599751E0,4.797399998E0,2.182199955E0
3.291400000E1,-7.711799622E0,5.471600056E0,-5.505899906E0
3.293400000E1,-3.679799795E0,3.262599945E0,-1.595079994E1
3.295400156E1,1.979999989E-1,1.711199999E0,-1.305599976E1
3.298400000E1,-3.619999886E-1,2.088799953E0,-5.633699894E0
3.300400000E1,5.275999904E-1,3.784699917E0,-7.239999771E-1
3.302400156E1,3.498399973E0,3.319499969E0,4.339200020E0
3.305400000E1,4.806099892E0,6.650000066E-2,-6.484999657E-1
3.307400000E1,4.077699661E0,-6.556999683E-1,-4.906099796E0
3.309400000E1,8.799999952E-3,-3.000499964E0,-6.623600006E0
3.311400000E1,-7.105999589E-1,-2.449800014E0,-3.256299973E0
3.313400000E1,1.539699912E0,-1.692499995E0,2.263299942E0
3.315400156E1,1.626099944E0,-1.090399981E0,1.541099906E0
3.317400156E1,4.978999794E-1,-1.576200008E0,-2.354599953E0
3.319400156E1,-7.741000056E-1,-5.703700066E0,4.973999858E-1
3.322400000E1,-5.561599731E0,-4.395599842E0,6.162399769E0
3.324400156E1,-4.707900047E0,7.696999907E-1,-3.247999847E-1
3.327400000E1,-5.891499996E0,2.336199999E0,1.570999980E0
3.329400000E1,-5.113499641E0,1.031800032E0,3.860399961E0
3.331400156E1,-3.048000038E-1,1.462799907E0,1.763700008E0
3.334400000E1,6.087999940E-1,-2.554999888E-1,-2.111799955E0
3.336400000E1,-7.834999561E-1,-6.160399914E0,-2.461099863E0
3.338400156E1,-3.667899847E0,-8.323399544E0,2.454099894E0
3.341400000E1,-8.897699356E0,-3.854299784E0,6.228999615E0
3.343400000E1,-8.297699928E0,-1.258499980E0,3.191200018E0
3.345400156E1,-5.201900005E0,1.287099957E0,-1.841199994E0
3.348400000E1,-1.253999949E0,2.297099829E0,-2.227099895E0
3.350400000E1,-4.768999815E-1,2.312299967E0,-8.560000062E-1
3.352400156E1,-4.032999873E-1,8.366999626E-1,3.450999856E-1
3.355400000E1,1.205299973E0,-4.510999918E-1,1.142799973E0
3.357400000E1,1.272699952E0,-4.571999907E-1,-1.887999922E-1
3.359400000E1,5.370000005E-2,-3.304999769E-1,-1.037999988E-1
3.361400000E1,-3.356099844E0,-8.064000010E-1,1.301899910E0
3.363400000E1,-5.361399651E0,-9.871999621E-1,1.663699985E0
3.365400000E1,-4.597499847E0,-1.280499935E0,1.019199967E0
3.367400156E1,-3.403199911E0,-2.435899973E0,6.739000082E-1
3.370400000E1,-5.679000020E-1,-6.816999912E-1,9.414999485E-1
3.372400000E1,8.241999745E-1,-6.989999861E-2,1.303499937E0
3.374400156E1,2.074499846E0,9.097999930E-1,9.011999965E-1
3.377400000E1,4.933399677E0,1.796000004E0,-7.421999574E-1
3.379400000E1,5.895899773E0,1.948599935E0,2.745999992E-1
3.381400000E1,7.309899807E0,2.449699879E0,1.696299911E0
3.383400000E1,6.551300049E0,1.428799987E0,3.223999977E0
3.385400000E1,3.573400021E0,-6.541999578E-1,2.853600025E0
3.387400000E1,1.169399977E0,-1.714399934E0,-3.379999995E-1
3.389400156E1,-9.903999567E-1,-2.068899870E0,-2.478299856E0
3.392400000E1,-4.197400093E0,-2.663999796E-1,-2.848999798E-1
3.394400000E1,-5.815099716E0,1.267300010E0,5.202000141E-1
3.396400156E1,-6.141699791E0,2.302000046E0,-7.426999807E-1
3.399400000E1,-3.810799837E0,2.557399988E0,-2.563999891E0
3.401400000E1,-2.148000002E0,1.896799922E0,-3.127799988E0
3.403400156E1,-5.115999579E-1,1.187799931E0,-2.868599892E0
3.406400000E1,2.225899935E0,2.069000006E-1,-1.090999991E-1
3.408400000E1,4.665999889E0,-1.244999990E-1,3.652400017E0
3.410400000E1,5.242099762E0,8.489999920E-2,4.930599689E0
3.412400000E1,3.128199816E0,1.115700006E0,3.895399809E0
3.414400156E1,1.443899989E0,1.651399970E0,2.453999996E0
3.417400156E1,-7.626000047E-1,3.419999778E-1,3.515000045E-1
3.420400000E1,-1.030699968E0,-4.770899773E0,-1.224799991E0
3.422400000E1,-6.129899979E0,-4.630499840E0,6.421299934E0
3.424400156E1,-6.862999916E0,-8.395999670E-1,-6.037199974E0
3.427400469E1,-1.814799905E0,1.565199971E0,-6.182799816E0
3.430400000E1,1.631999910E-1,-5.814999938E-1,-3.432499886E0
3.432400000E1,1.911999881E-1,-1.770799994E0,-3.370699883E0
3.434400000E1,-2.044999897E-1,-1.199299932E0,-1.377499938E0
3.436400000E1,-8.455999494E-1,-4.999999655E-4,7.539999485E-2
3.438400156E1,1.165999994E-1,9.012999535E-1,-8.826999664E-1
3.441400000E1,1.328299999E0,-1.899999939E-2,-8.430999517E-1
3.443400000E1,6.566999555E-1,-2.536999881E-1,-5.306000113E-1
3.445400156E1,-5.989999771E-1,-5.206999779E-1,-3.506999910E-1
3.448400000E1,-1.581799984E0,2.690999806E-1,-5.989999697E-2
3.450400000E1,-1.826200008E0,3.088999987E-1,1.579999924E-1
3.452400156E1,-1.893799901E0,1.516000032E-1,-2.164999992E-1
3.455400000E1,-1.761599898E0,6.189999729E-2,1.460999995E-1
3.457400000E1,-8.737999797E-1,1.384999901E-1,1.245499969E0
3.459400000E1,1.727999896E-1,4.491999745E-1,1.291399956E0
3.461400000E1,6.399999857E-1,3.271999955E-1,1.062600017E0
3.463400000E1,-1.384000033E-1,-6.079999730E-2,7.475999594E-1
3.465400000E1,-1.607199907E0,-8.720000088E-2,4.320999980E-1
3.467400469E1,-2.269599915E0,1.219999939E-1,5.385999680E-1
3.470400000E1,-8.134999871E-1,2.599999867E-2,2.155999988E-1
3.472400000E1,-7.889999449E-2,-1.946000010E-1,-2.825999856E-1
3.474400156E1,-6.260000169E-2,-6.821999550E-1,-3.692999780E-1
3.477400000E1,-1.450999975E-1,-4.452999830E-1,2.724999785E-1
3.479400000E1,-5.706999898E-1,-1.072299957E0,1.257399917E0
3.481400156E1,-2.244199991E0,-1.459299922E0,1.119799972E0
3.484400000E1,-4.989599705E0,-2.036599874E0,7.421000004E-1
3.486400000E1,-5.511699677E0,-3.086699963E0,1.314000010E0
3.488400156E1,-5.095099926E0,-4.101500034E0,2.286399841E0
3.491400000E1,-2.933899879E0,-2.532599926E0,4.118099689E0
3.493400000E1,-1.569499969E0,-1.812399983E0,4.990600109E0
3.495400156E1,-1.075999975E0,-1.405799985E0,4.846600056E0
3.497400156E1,-1.843999982E0,-1.358799934E0,3.044199944E0
3.500400000E1,-2.355299950E0,-9.577999711E-1,3.515999913E-1
3.502400156E1,-6.579999924E-1,-1.999999955E-2,-7.917000055E-1
3.505400000E1,1.058499932E0,-1.637899995E0,-7.780999541E-1
3.507400000E1,2.370399952E0,-3.286199808E0,-1.235299945E0
3.509400000E1,3.733799934E0,-2.967399836E0,-3.133899927E0
3.511400000E1,2.508999825E0,-1.104900002E0,-2.735699892E0
3.513400000E1,2.420699835E0,-1.121299982E0,-6.437999606E-1
3.515400000E1,3.059799910E0,-7.414000034E-1,-5.442999601E-1
3.517400156E1,2.483099937E0,2.649999857E-1,-1.602699995E0
3.520400000E1,1.692399979E0,1.069100022E0,-2.102900028E0
3.522400000E1,1.842399955E0,7.364000082E-1,-2.080499887E0
3.524400156E1,2.411000013E0,6.534000039E-1,-2.073099852E0
3.527400000E1,4.176700115E0,1.811399937E0,-1.593199968E0
3.529400000E1,4.742899895E0,2.592000008E0,-1.399699926E0
3.531400156E1,4.571199894E0,3.315500021E0,-1.434999943E0
3.533400156E1,3.778699875E0,3.837999821E0,-1.474699974E0
3.536400000E1,2.776700020E0,3.794999838E0,-1.902999997E0
3.538400156E1,2.008100033E0,3.285199881E0,-2.030900002E0
3.541400000E1,1.932999939E-1,1.830599904E0,-8.161000013E-1
3.543400000E1,-1.734899998E0,5.852000117E-1,1.307999969E0
3.545400156E1,-3.745699883E0,-9.053999782E-1,3.793900013E0
3.548400000E1,-6.485199928E0,-4.658799648E0,8.103899956E0
3.550400000E1,-6.411099911E0,-5.552799702E0,3.542799950E0
3.552400156E1,-3.051800013E0,-4.051199913E0,2.745599985E0
3.555400312E1,2.333299875E0,6.388999820E-1,3.143100023E0
3.558400000E1,7.855700016E0,7.276399612E0,-1.361799955E0
3.560400156E1,8.481299400E0,5.348399639E0,-5.127099991E0
3.563400000E1,5.533999920E0,-4.359299660E0,-3.572399855E0
3.565400156E1,9.593699455E0,-1.424239922E1,-1.314159966E1
3.567400156E1,-1.250100017E0,-8.117400169E0,8.696100235E0
3.570400000E1,1.772599936E0,3.697799921E0,2.814699888E0
3.572400000E1,3.958599806E0,6.358299732E0,-6.513299942E0
3.574400000E1,3.294499874E0,6.604300022E0,-1.429579926E1
3.576400000E1,1.797000021E-1,1.284199953E0,-1.235099983E1
3.578400000E1,-1.659999974E-2,-1.750899911E0,-7.171299934E0
3.580400000E1,-3.093000054E-1,-2.832999945E0,-3.616299868E0
3.582400000E1,-2.480999947E0,-2.905900002E0,1.518599987E0
3.584400000E1,-3.328099966E0,-1.064399958E0,9.510999680E0
3.586401406E1,-1.700099945E0,4.651999772E-1,6.136299610E0
3.589400000E1,2.098999918E-1,1.050799966E0,-2.989899874E0
3.591401563E1,-1.757999957E-1,5.516999960E-1,-4.364599705E0
3.594400312E1,-8.844999671E-1,3.032000065E-1,-9.457999468E-1
3.597400000E1,-9.799999744E-2,-2.141999900E-1,1.611199975E0
3.599400000E1,5.537999868E-1,5.604999661E-1,7.519999743E-1
3.601400000E1,5.982999802E-1,8.024999499E-1,-8.215000033E-1
3.603400000E1,3.560999930E-1,2.256999910E-1,-5.855000019E-1
3.605400000E1,8.100000210E-3,-7.484999895E-1,7.924000025E-1
3.607400000E1,9.179999679E-2,-1.265699983E0,2.381899834E0
3.609400000E1,-1.012899995E0,-1.588599920E0,2.201099873E0
3.611400000E1,-3.132200003E0,-1.969599962E0,6.097999811E-1
3.613400000E1,-4.121099949E0,-1.899099946E0,1.316299915E0
3.615400000E1,-4.084000111E0,-1.141899943E0,2.589599848E0
3.617400000E1,-4.109299660E0,-1.248499990E0,1.853599906E0
3.619400000E1,-5.087599754E0,-2.231499910E0,1.027500033E0
3.621400000E1,-6.518099785E0,-3.977799892E0,2.064100027E0
3.623400000E1,-6.346899986E0,-4.124599934E0,3.685999870E0
3.625400000E1,-4.230400085E0,-1.777399898E0,6.090799809E0
3.627400781E1,-1.160899997E0,-8.352999687E-1,4.639899731E0
3.630400000E1,-7.939999700E-1,-1.516999960E0,-1.398499966E0
3.632400000E1,-1.911899924E0,-2.475899935E0,-4.315299988E0
3.634400000E1,-7.411999702E-1,-3.513799906E0,-3.498999834E0
3.636400000E1,9.052000046E-1,-4.950999737E0,-2.758699894E0
3.638400000E1,1.357499957E0,-3.291999817E0,-1.241799951E0
3.640400000E1,1.882900000E0,-1.473299980E0,-5.637999773E-1
3.642400000E1,2.828099966E0,-5.899999738E-1,-7.473999858E-1
3.644400000E1,2.681799889E0,-6.409999728E-2,-2.680699825E0
3.646400000E1,1.992199898E0,3.425000012E-1,-3.930899858E0
3.648400000E1,1.868600011E0,3.883000016E-1,-3.739099979E0
3.650400000E1,1.655999899E0,2.602999806E-1,-3.531699896E0
3.652400000E1,1.707299948E0,2.999999851E-4,-3.171599865E0
3.654400000E1,3.088699818E0,7.543999553E-1,-3.086299896E0
3.656400000E1,5.356899738E0,2.326499939E0,-2.716199875E0
3.658400000E1,6.816999912E0,3.805599928E0,-2.346600056E0
3.660400156E1,6.781399727E0,4.902199745E0,-2.846299887E0
3.663400000E1,5.085000038E0,4.949399948E0,-2.576299906E0
3.665400000E1,4.377099991E0,4.242099762E0,-2.048699856E0
3.667400156E1,3.724299908E0,3.463899851E0,-1.571799994E0
3.670400000E1,8.764999509E-1,8.337000012E-1,1.388099909E0
3.672400000E1,-2.720700026E0,-2.215499878E0,6.638299942E0
3.674400156E1,-5.252299786E0,-6.324899673E0,8.955299377E0
3.677400000E1,-6.044099808E0,-8.011499405E0,3.782199860E0
3.679400000E1,-5.747399807E0,-5.129999638E0,8.909699440E0
3.681400000E1,-1.501799941E0,-1.042500019E0,3.735299826E0
3.683400000E1,4.236099720E0,6.033999920E-1,-5.851899624E0
3.685400000E1,5.583699703E0,-2.463099957E0,-7.141299725E0
3.687400156E1,6.711899757E0,-8.215000153E0,-5.077600002E0
3.689400156E1,5.744299889E0,-6.667999625E-1,-8.321999550E0
3.692400000E1,4.748899937E0,6.815399647E0,-3.481699944E0
3.694400000E1,4.876999855E0,8.186599731E0,-2.378299952E0
3.696400000E1,4.000299931E0,3.842299938E0,-1.944199920E0
3.698400000E1,1.415199995E0,-7.152000070E-1,-2.313299894E0
3.700400000E1,-2.990999818E-1,-3.576799870E0,-4.192800045E0
3.702400000E1,-2.908299923E0,-4.490200043E0,-3.811999798E0
3.704400000E1,-4.372799873E0,-1.969199896E0,3.905599833E0
3.706400000E1,-2.666800022E0,3.722999990E-1,5.153199673E0
3.708400000E1,-1.956900001E0,4.981999993E-1,-1.289999951E-2
3.710400156E1,-1.265399933E0,6.496999860E-1,-3.522799969E0
3.713400000E1,1.314000040E-1,1.059000015E0,-1.250100017E0
3.715400156E1,2.955999970E-1,1.051200032E0,3.804999888E-1
3.717400156E1,-1.058999971E-1,3.337999880E-1,9.827999473E-1
3.720400312E1,-1.089499950E0,1.264999956E-1,-1.316999942E-1
3.723400000E1,-6.229000092E-1,-5.749999732E-2,-4.499999806E-3
3.725400156E1,-1.272999942E-1,-2.209999971E-2,-1.485999972E-1
3.728400000E1,3.843999803E-1,4.438000023E-1,1.240999997E-1
3.730400000E1,5.539999604E-1,-1.846999973E-1,1.755800009E0
3.732400000E1,-6.017999649E-1,-1.632200003E0,2.477900028E0
3.734400000E1,-2.661999941E0,-2.434900045E0,1.586899996E0
3.736400000E1,-4.272399902E0,-2.230599880E0,2.073099852E0
3.738400156E1,-4.395899773E0,-1.220199943E0,3.291999817E0
3.741400000E1,-5.218800068E0,-2.440099955E0,5.236999989E-1
3.743400000E1,-6.651999950E0,-5.335399628E0,3.698000014E-1
3.745400156E1,-6.732399940E0,-4.337500095E0,3.076099873E0
3.748400000E1,-2.552599907E0,-2.154399872E0,4.370999813E0
3.750400000E1,9.160999656E-1,-1.807899952E0,2.135499954E0
3.752400000E1,2.401900053E0,-1.264199972E0,-1.066900015E0
3.754400000E1,2.197499990E0,-1.358500004E0,-3.557600021E0
3.756400000E1,2.875399828E0,-3.498099804E0,-2.003000021E0
3.758400000E1,3.672799826E0,-3.367499828E0,4.800000042E-2
3.760400156E1,1.950099945E0,-1.320199966E0,-3.606999815E-1
3.763400000E1,-2.628000081E-1,-8.145999908E-1,-3.287299871E0
3.765400156E1,6.859999895E-2,-7.082999945E-1,-4.489799976E0
3.767400156E1,1.021600008E0,-1.076999977E-1,-4.293399811E0
3.770400000E1,2.167299986E0,6.168999672E-1,-3.529500008E0
3.772400000E1,2.073499918E0,6.115999818E-1,-3.374099970E0
3.774400156E1,1.744399905E0,8.044999838E-1,-3.316799879E0
3.777400000E1,3.706199884E0,2.374599934E0,-3.518100023E0
3.779400000E1,5.716199875E0,3.825299978E0,-3.119899988E0
3.781400156E1,6.454799652E0,4.807199955E0,-2.981599808E0
3.784400000E1,4.996200085E0,4.777299881E0,-2.580399990E0
3.786400000E1,4.110899925E0,4.098899841E0,-2.489300013E0
3.788400156E1,3.408799887E0,3.247200012E0,-2.268699884E0
3.791400000E1,1.265799999E0,9.099999666E-1,-3.649999946E-2
3.793400000E1,-1.811800003E0,-1.583400011E0,4.427299976E0
3.795400156E1,-5.846499920E0,-5.314499855E0,1.148299980E1
3.798400000E1,-5.649799824E0,-8.363999367E0,3.521499872E0
3.800400000E1,-4.954599857E0,-7.096299648E0,6.466399670E0
3.802400000E1,-1.359699965E0,-2.447399855E0,7.249799728E0
3.804400000E1,3.265599966E0,1.030300021E0,-6.439999491E-2
3.806400000E1,8.103599548E0,8.621999621E-1,-7.084199905E0
3.808400000E1,7.256999969E0,-3.418099880E0,-7.323699951E0
3.810400156E1,7.914799690E0,-3.982100010E0,-5.700399876E0
3.813400000E1,4.293699741E0,4.481100082E0,-3.801699877E0
3.815400000E1,3.365999937E0,5.373799801E0,1.725499988E0
3.817400156E1,3.365899801E0,4.409599781E0,-7.678999901E-1
3.820400000E1,1.869599938E0,-8.381999731E-1,-7.617399693E0
3.822400000E1,-5.078999996E-1,-2.706199884E0,-8.610799789E0
3.824400156E1,-1.234399915E0,-2.488600016E0,-4.781199932E0
3.827400156E1,-3.159199953E0,-8.477999568E-1,6.400300026E0
3.830400000E1,2.319999970E-2,3.429999948E-1,2.961400032E0
3.832400156E1,8.366000056E-1,4.341999888E-1,-2.538499832E0
3.835400000E1,1.973999888E-1,1.082299948E0,-2.741899967E0
3.837400000E1,-1.078199983E0,5.896999836E-1,-1.266299963E0
3.839400156E1,-1.895999908E0,-6.189999729E-2,4.202999771E-1
3.842400000E1,-1.908699989E0,1.817999929E-1,5.451999903E-1
3.844400000E1,-1.322199941E0,5.952999592E-1,-2.440999895E-1
3.846400000E1,-1.154899955E0,5.274999738E-1,-5.672999620E-1
3.848400000E1,-1.035300016E0,-4.538999796E-1,-1.429999918E-1
3.850400000E1,-3.919000030E-1,-6.437000036E-1,9.113000035E-1
3.852400000E1,9.235999584E-1,-1.588999927E-1,2.015399933E0
3.854400000E1,1.871499896E0,-1.940999925E-1,2.623199940E0
3.856400000E1,-1.673000008E-1,-1.130999923E0,1.071399927E0
3.858400000E1,-3.834100008E0,-1.717399955E0,-4.863999784E-1
3.860400156E1,-5.496699810E0,-1.150599957E0,6.338999867E-1
3.863400000E1,-3.489199877E0,-3.858000040E-1,2.290299892E0
3.865400156E1,-2.471199989E0,-1.407999992E0,1.704800010E0
3.867400156E1,-2.329799891E0,-2.960500002E0,2.640499830E0
3.870400000E1,-2.365200043E0,-2.130499840E0,5.540499687E0
3.872400000E1,-1.607499957E0,-1.708899975E0,5.701299667E0
3.874400156E1,-1.049999986E-2,-2.223299980E0,3.353699923E0
3.877400000E1,-5.370000005E-2,-1.690599918E0,-2.754999876E0
3.879400000E1,1.493999958E-1,-2.326699972E0,-3.807999849E0
3.881400000E1,1.437799931E0,-4.447299957E0,-1.954800010E0
3.883400000E1,3.322000027E0,-5.430500031E0,-7.454999685E-1
3.885400000E1,3.258899927E0,-2.566599846E0,-1.293799996E0
3.887400000E1,1.662199974E0,-5.709999800E-1,-2.082700014E0
3.889400156E1,7.398999929E-1,-1.153999940E-1,-3.685400009E0
3.892400156E1,1.298900008E0,5.076000094E-1,-4.542999744E0
3.895400000E1,1.900599957E0,1.514499903E0,-3.460899830E0
3.897400000E1,1.316200018E0,1.633999944E0,-2.748800039E0
3.899400000E1,1.538100004E0,1.804399967E0,-2.733799934E0
3.901400000E1,3.546899796E0,2.699399948E0,-3.223099947E0
3.903400156E1,5.402199745E0,3.449100018E0,-2.903599977E0
3.905400156E1,5.997699738E0,3.948099852E0,-2.129999876E0
3.907400313E1,5.732299805E0,4.235499859E0,-2.212599993E0
3.910400156E1,4.469500065E0,3.181999922E0,-2.540099859E0
3.913400156E1,3.111299992E0,1.771399975E0,-2.155900002E0
3.916400000E1,6.651999950E-1,1.418000013E-1,1.015299916E0
3.918400000E1,-2.309799910E0,-1.284099936E0,5.548899651E0
3.920400000E1,-7.109999657E0,-4.355499744E0,1.094189930E1
3.922400000E1,-8.538899422E0,-6.748899937E0,6.511299610E0
3.924400156E1,-6.167199612E0,-6.430999756E0,1.741699934E0
3.927400000E1,-1.079499960E0,-2.399399996E0,4.948199749E0
3.929400000E1,2.421099901E0,1.049899936E0,2.519799948E0
3.931400156E1,6.988699913E0,3.535599947E0,-2.362200022E0
3.934400000E1,8.066800117E0,-2.104599953E0,-6.021499634E0
3.936400000E1,6.702899933E0,-5.251100063E0,-5.030299664E0
3.938400156E1,5.000499725E0,-2.155499935E0,-7.599099636E0
3.941400000E1,1.598899961E0,4.763499737E0,4.005599976E0
3.943400000E1,4.005300045E0,5.716000080E0,1.621399999E0
3.945400000E1,3.959100008E0,3.417399883E0,-5.193399906E0
3.947400000E1,1.897300005E0,-1.169700027E0,-9.342899323E0
3.949400000E1,-3.351999819E-1,-3.273900032E0,-8.691699982E0
3.951400000E1,-1.119300008E0,-2.943599939E0,-6.389199734E0
3.953400156E1,-4.266399860E0,-1.117599964E0,5.391599655E0
3.956400000E1,-2.879899979E0,-4.195999801E-1,4.127699852E0
3.958400000E1,9.006999731E-1,4.591999948E-1,-2.782199860E0
3.960400000E1,1.445899963E0,1.020699978E0,-3.365099907E0
3.962400000E1,1.428099990E0,1.109899998E0,-1.043499947E0
3.964400000E1,8.524999619E-1,8.450999856E-1,3.617999852E-1
3.966400000E1,1.477999985E-1,4.222999811E-1,8.194999695E-1
3.968400000E1,-6.764000058E-1,-1.303000003E-1,3.091999888E-1
3.970400000E1,-1.000999928E0,-2.140000015E-1,2.265999913E-1
3.972400000E1,-1.170699954E0,-2.502000034E-1,8.758999705E-1
3.974400156E1,-1.236599922E0,-3.209999949E-2,5.268999934E-1
3.977400000E1,-9.621999860E-1,3.673999906E-1,1.017199993E0
3.979400000E1,-7.699999809E-1,1.220999956E-1,2.010699987E0
3.981400156E1,-1.148299932E0,-8.500000089E-2,1.676399946E0
3.984400000E1,-1.953299999E0,-6.305999756E-1,1.045199990E0
3.986400000E1,-1.347199917E0,-3.747999966E-1,1.645099998E0
3.988400156E1,-5.756999850E-1,7.979999483E-2,1.672500014E0
3.991400000E1,-1.758199930E0,-8.446999788E-1,4.330999851E-1
3.993401562E1,-2.816599846E0,-2.552399874E0,1.962099910E0
3.996400000E1,-1.673900008E0,-2.186300039E0,6.535799980E0
3.998400000E1,4.329999909E-2,-2.936599970E0,7.205299854E0
4.000400000E1,2.427000046E0,-5.103300095E0,4.724699974E0
4.002400000E1,3.785899878E0,-3.788899899E0,1.340799928E0
4.004400156E1,3.249099970E0,-2.228999853E0,-2.215499878E0
4.007400000E1,1.490399957E0,-3.026599884E0,-4.877999783E0
4.009400000E1,2.873999834E0,-2.855799913E0,-3.306699991E0
4.011400000E1,4.355899811E0,-1.905499935E0,-2.373699903E0
4.013400000E1,1.371099949E0,-5.020999908E-1,-1.506699920E0
4.015400156E1,-1.446499944E0,-6.384999752E-1,-2.287799835E0
4.017400156E1,-8.215000033E-1,-1.429999918E-1,-4.249099731E0
4.020400000E1,2.198400021E0,1.229499936E0,-4.096099854E0
4.022400000E1,3.606999874E0,2.111000061E0,-2.800199986E0
4.024400156E1,4.039899826E0,2.115799904E0,-1.704299927E0
4.027400156E1,4.395999908E0,2.354500055E0,-1.261600018E0
4.030400000E1,4.169099808E0,3.174299955E0,-1.605700016E0
4.032400000E1,3.735599995E0,3.519799948E0,-1.876899958E0
4.034400000E1,3.774999857E0,3.538199902E0,-2.778199911E0
4.036400000E1,3.528599977E0,3.033499956E0,-3.487499952E0
4.038400156E1,2.645400047E0,2.284399986E0,-3.367699862E0
4.041400000E1,8.310999870E-1,1.216799974E0,-2.192800045E0
4.043400000E1,-5.620999932E-1,4.648999870E-1,-1.069299936E0
4.045400000E1,-2.761499882E0,-5.288999677E-1,6.251999736E-1
4.047400156E1,-5.485399723E0,-1.732499957E0,4.364999771E0
4.050400000E1,-9.215999603E0,-4.269899845E0,7.589200020E0
4.052400000E1,-7.352900028E0,-3.910099983E0,3.405799866E0
4.054400000E1,-3.973799944E0,-4.260900021E0,3.530900002E0
4.056400000E1,1.167199969E0,-3.303999901E0,4.107100010E0
4.058400000E1,5.086299896E0,-1.501500010E0,3.806799889E0
4.060400156E1,8.530900002E0,1.973000020E-1,2.402400017E0
4.063400000E1,9.590600014E0,-3.091099977E0,-2.768299818E0
4.065400000E1,6.989899635E0,-3.329599857E0,-5.413799763E0
4.067400156E1,2.235100031E0,3.394999802E-1,-2.625499964E0
4.070400000E1,1.658299923E0,5.838900089E0,1.783199906E0
4.072400000E1,3.987399817E0,4.870100021E0,-1.130200028E0
4.074400156E1,3.319700003E0,2.799499989E0,-5.723000050E0
4.077400000E1,1.171800017E0,-2.563599825E0,-1.050259972E1
4.079400000E1,-2.872000039E-1,-4.285500050E0,-9.287300110E0
4.081400156E1,-1.252799988E0,-3.019999981E0,-6.073899746E0
4.083400156E1,-4.418600082E0,1.956999898E-1,8.201999664E0
4.086400000E1,-1.516099930E0,3.179000020E-1,3.895299911E0
4.088400156E1,3.157899857E0,1.846999973E-1,-1.276099920E0
4.091400000E1,3.301499844E0,1.218199968E0,-4.148999751E-1
4.093400000E1,1.124799967E0,9.804999828E-1,-6.471999884E-1
4.095400000E1,-1.116500020E0,6.799999624E-3,-1.781799912E0
4.097400000E1,-2.666899920E0,-5.631999969E-1,-1.437699914E0
4.099400000E1,-3.011999846E0,-6.615999937E-1,-3.632999957E-1
4.101400000E1,-1.715899944E0,-1.324999928E-1,2.991999984E-1
4.103400156E1,-5.106999874E-1,2.386999875E-1,8.181999922E-1
4.106400000E1,4.453999996E-1,6.453999877E-1,1.005100012E0
4.108400000E1,-1.500000013E-3,3.753999770E-1,1.041100025E0
4.110400156E1,-7.045999765E-1,1.042999998E-1,1.243099928E0
4.113400000E1,-1.050099969E0,2.207999974E-1,3.862999976E-1
4.115400156E1,-1.113799930E0,2.414999902E-1,5.004999638E-1
4.117400156E1,-1.492100000E0,2.994999886E-1,8.216999769E-1
4.120400000E1,-2.312099934E0,-2.761999965E-1,2.739000022E-1
4.122400000E1,-2.264699936E0,-2.863000035E-1,5.916000009E-1
4.124400156E1,-1.470799923E0,3.134999871E-1,9.848999977E-1
4.127400000E1,-1.054700017E0,3.027999997E-1,1.611000001E-1
4.129400000E1,-1.503000021E0,-1.233799934E0,1.595999897E-1
4.131400156E1,-1.602499962E0,-3.634799957E0,1.071499944E0
4.134400000E1,-4.090999961E-1,-3.137300014E0,3.531299829E0
4.136400000E1,-3.939999938E-1,-2.414599895E0,4.416699886E0
4.138400156E1,-9.591999650E-1,-2.730900049E0,4.415499687E0
4.141400156E1,-1.378199935E0,-3.088999987E0,3.509699821E0
4.144400000E1,8.676999807E-1,-1.072600007E0,1.975600004E0
4.146400156E1,1.821699977E0,-5.476999879E-1,-1.744000018E-1
4.149400000E1,2.156899929E0,-2.375999987E-1,-3.079299927E0
4.151400000E1,2.096499920E0,-1.261999965E0,-3.268699884E0
4.153400156E1,1.907799959E0,-1.580500007E0,-3.357899904E0
4.156400000E1,-1.974999905E-1,-1.469900012E0,-2.993799925E0
4.158400000E1,-4.781999886E-1,-1.129400015E0,-2.239199877E0
4.160400156E1,3.439999744E-2,-2.900999784E-1,-2.166300058E0
4.163400000E1,1.253000021E0,3.491999805E-1,-2.180799961E0
4.165400156E1,1.826900005E0,4.197999835E-1,-2.244199991E0
4.167400156E1,2.632799864E0,7.439000010E-1,-2.641700029E0
4.170400000E1,3.790299892E0,2.088999987E0,-2.081399918E0
4.172400000E1,4.033299923E0,2.851799965E0,-1.194399953E0
4.174400156E1,4.250699997E0,3.211799860E0,-1.244499922E0
4.177400000E1,3.696499825E0,3.249599934E0,-1.259199977E0
4.179400000E1,3.135299921E0,2.955999851E0,-1.039999962E0
4.181400156E1,2.267600060E0,2.408699989E0,-9.325999618E-1
4.183400156E1,1.329699993E0,1.796199918E0,-9.442999959E-1
4.186400000E1,-2.689999901E-2,1.026999950E0,-6.869999766E-1
4.188400000E1,-1.302899957E0,6.074999571E-1,1.283999979E-1
4.190400000E1,-2.399999857E0,-3.177999854E-1,2.550199986E0
4.192400000E1,-3.888700008E0,-2.713899851E0,5.982800007E0
4.194400000E1,-5.475499630E0,-5.614799976E0,6.692399979E0
4.196400156E1,-4.603399754E0,-6.315199852E0,6.803499699E0
4.199400000E1,5.794000030E-1,-2.218600035E0,3.738499880E0
4.201400000E1,3.635299921E0,1.212800026E0,2.918999910E0
4.203400156E1,7.190899849E0,3.511799812E0,1.094200015E0
4.206400000E1,8.281599998E0,6.915000081E-1,-3.311199903E0
4.208400000E1,4.955299854E0,-3.475600004E0,-5.438799858E0
4.210400156E1,3.460399866E0,-6.173999786E0,-6.670399666E0
4.213400000E1,-3.693399906E0,8.491999507E-1,6.032899857E0
4.215400156E1,5.913000107E-1,3.561499834E0,-1.965499997E0
4.217400156E1,1.582299948E0,5.891599655E0,-8.489600182E0
4.220400000E1,1.241999939E-1,9.566999674E-1,-8.390099525E0
4.222400000E1,-2.475999892E-1,-2.413499832E0,-4.459899902E0
4.224400156E1,-8.745999932E-1,-4.433399677E0,-1.676100016E0
4.226401406E1,-9.043999910E-1,-2.513999939E0,5.800899982E0
4.229400000E1,1.797899961E0,1.840199947E0,2.748899937E0
4.231400781E1,1.998099923E0,6.875000000E-1,-2.596599817E0
4.234400000E1,-2.392999977E-1,3.925999999E-1,-1.167099953E0
4.236402344E1,-1.022899985E0,1.172999963E-1,-5.195999742E-1
4.239400000E1,-9.879999757E-1,1.968999952E-1,-6.685999632E-1
4.241400000E1,-6.877999902E-1,1.882999986E-1,-5.659999698E-2
4.243400000E1,-5.814999938E-1,2.958999872E-1,2.560999990E-1
4.245400156E1,-7.789999843E-1,2.648999989E-1,4.740999937E-1
4.247400625E1,-8.230999708E-1,4.684000015E-1,2.728999853E-1
4.250400156E1,-7.827000022E-1,2.274999917E-1,2.278999984E-1
4.253400156E1,-2.635999918E-1,5.728999972E-1,7.324999571E-1
4.256400000E1,2.444999963E-1,1.996999979E-1,5.795999765E-1
4.258400000E1,-2.382999957E-1,3.373000026E-1,2.155999988E-1
4.260400156E1,-9.239999652E-1,8.029999584E-2,-3.073999882E-1
4.263400000E1,-1.134799957E0,-5.507000089E-1,-1.114999950E-1
4.265400000E1,-2.578999996E-1,-4.800999761E-1,4.221999943E-1
4.267400156E1,6.700999737E-1,-3.896999955E-1,7.445999980E-1
4.270400000E1,4.389999807E-2,-1.410599947E0,5.724999905E-1
4.272400000E1,-2.549000025E0,-2.397099972E0,-6.529999524E-2
4.274400156E1,-4.386799812E0,-2.790699959E0,1.747599959E0
4.277400000E1,-4.719399929E0,-2.663100004E0,4.455800056E0
4.279400000E1,-3.504999876E0,-3.275300026E0,4.264899731E0
4.281400156E1,-1.644699931E0,-2.552199841E0,5.222300053E0
4.284400000E1,-1.908999979E-1,-8.518999815E-1,5.760099888E0
4.286400156E1,5.799999926E-3,1.781999916E-1,4.763599873E0
4.289400156E1,-1.552799940E0,-2.246999890E-1,1.078999937E-1
4.292400000E1,-2.553099871E0,-3.210999966E0,-3.367100000E0
4.294400000E1,-1.275799990E0,-4.768599987E0,-3.208799839E0
4.296400156E1,-7.947999835E-1,-4.783400059E0,-2.894799948E0
4.299400000E1,1.091199994E0,-2.571499825E0,-2.454999983E-1
4.301400000E1,3.230499983E0,-1.954099894E0,-9.789999574E-2
4.303400000E1,3.994599819E0,-8.687999845E-1,-1.154099941E0
4.305400000E1,2.718600035E0,2.292999923E-1,-2.680999994E0
4.307400156E1,1.437699914E0,2.504000068E-1,-2.662499905E0
4.310400000E1,6.496999860E-1,9.820999503E-1,-3.166499853E0
4.312400000E1,1.697699904E0,1.371599913E0,-3.255199909E0
4.314400156E1,3.740999937E0,2.099699974E0,-2.838199854E0
4.317400156E1,5.767699718E0,3.623199940E0,-2.859200001E0
4.320400000E1,5.991499901E0,5.106100082E0,-2.431999922E0
4.322400156E1,5.143300056E0,5.354099751E0,-2.405200005E0
4.324400156E1,3.511799812E0,4.790299892E0,-2.219799995E0
4.327400156E1,1.204900026E0,3.671299934E0,-1.812699914E0
4.330400000E1,-1.811899900E0,1.165400028E0,2.060000002E-1
4.332400781E1,-4.257100105E0,-2.339299917E0,4.113199711E0
4.335400000E1,-6.639599800E0,-9.306799889E0,8.223599434E0
4.337400000E1,-5.851799965E0,-8.403900146E0,4.922499657E0
4.339400156E1,-3.098899841E0,-3.967899799E0,7.967599869E0
4.342400000E1,2.136999846E0,2.888399839E0,4.923999906E-1
4.344400000E1,7.549599648E0,3.375000000E0,-6.612599850E0
4.346400156E1,6.175899982E0,1.283499956E0,-5.500499725E0
4.349400000E1,9.047599792E0,-8.401000023E0,-5.197400093E0
4.351400000E1,6.257199764E0,-6.645199776E0,1.584800005E0
4.353400000E1,1.669899940E0,2.121999979E0,6.580199718E0
4.355400000E1,5.782999992E-1,6.146100044E0,-1.885499954E0
4.357400000E1,1.470199943E0,8.082599640E0,-1.150389957E1
4.359400000E1,-1.113499999E0,3.344199896E0,-1.079220009E1
4.361400156E1,-7.070999742E-1,-1.184499979E0,-5.288199902E0
4.364400000E1,-7.364999652E-1,-4.882899761E0,-1.224200010E0
4.366400000E1,-6.631999612E-1,-1.373299956E0,1.174160004E1
4.368400000E1,8.150000125E-2,2.276399851E0,7.100999832E0
4.370400000E1,1.568000019E-1,1.973999977E0,-2.497200012E0
4.372400000E1,-1.334299922E0,2.992999852E-1,-7.599699974E0
4.374400156E1,-2.543999910E0,-2.220999897E-1,-4.766099930E0
4.377400000E1,-4.411299706E0,-2.435999960E-1,1.111799955E0
4.379400000E1,-4.259200096E0,-3.091000021E-1,2.596400023E0
4.381400156E1,-1.944000006E0,2.277999967E-1,1.479699969E0
4.383400156E1,3.704999983E-1,6.101999879E-1,5.891000032E-1
4.386400000E1,1.929600000E0,-1.089999974E-1,3.089999855E-1
4.388400000E1,1.660899997E0,-9.088999629E-1,1.157199979E0
4.390400000E1,1.740099907E0,-1.804499984E0,2.865799904E0
4.392400000E1,6.098999977E-1,-2.165799856E0,4.423799992E0
4.394400000E1,-2.885099888E0,-3.127199888E0,2.944700003E0
4.396400156E1,-6.453700066E0,-3.627300024E0,1.960999966E0
4.399400000E1,-8.707900047E0,-1.678699970E0,2.869799852E0
4.401400000E1,-7.861299992E0,-4.039700031E0,1.504899979E0
4.403400156E1,-7.083699703E0,-6.656699657E0,2.243000031E0
4.406400000E1,-4.264499664E0,-1.972799897E0,4.157499790E0
4.408400000E1,-1.861299992E0,-1.437500000E0,2.222899914E0
4.410400156E1,4.725999832E-1,-2.317199945E0,-4.889999926E-1
4.413400000E1,9.939000010E-1,-5.480599880E0,-3.980700016E0
4.415400000E1,2.486599922E0,-5.355599880E0,-3.114099979E0
4.417400156E1,4.741199970E0,-3.585199833E0,-1.405799985E0
4.420400000E1,2.766799927E0,3.256999850E-1,-1.077299953E0
4.422400000E1,1.899999939E-2,8.606999516E-1,-2.929800034E0
4.424400156E1,-2.978000045E-1,1.256600022E0,-6.177799702E0
4.426400156E1,-1.450999975E-1,1.289099932E0,-7.300299644E0
4.429400000E1,7.978000045E-1,1.286299944E0,-6.621299744E0
4.431400156E1,5.827999711E-1,9.774999619E-1,-4.925999641E0
4.434400000E1,1.828999996E0,1.520900011E0,-2.092099905E0
4.436400000E1,4.312299728E0,3.303399801E0,-2.494299889E0
4.438400000E1,5.884199619E0,4.349400043E0,-3.357999802E0
4.440400000E1,6.902299881E0,5.184099674E0,-3.583499908E0
4.442400000E1,7.579299927E0,5.500499725E0,-3.279599905E0
4.444400000E1,7.797199726E0,5.226399899E0,-2.364199877E0
4.446400156E1,4.954799652E0,3.757499933E0,2.458999902E-1
4.449400000E1,-1.380999923E0,-1.711899996E0,5.970799923E0
4.451400000E1,-3.237099886E0,-7.802199841E0,1.180119991E1
4.453400156E1,-5.232199669E0,-1.058920002E1,6.405499935E0
4.456400000E1,-4.667900085E0,-2.372499943E0,5.203599930E0
4.458400000E1,-3.556599855E0,1.699099898E0,4.303899765E0
4.460400156E1,2.630800009E0,2.631999969E0,-6.844799995E0
4.463400000E1,5.462399960E0,-7.972099781E0,-7.401399612E0
4.465400156E1,7.872699738E0,-1.012469959E1,-4.755499840E0
4.467400156E1,4.578999996E0,8.077999949E-1,-1.015759945E1
4.470400000E1,2.333899975E0,6.241799831E0,-4.153399944E0
4.472400000E1,2.423300028E0,7.978399754E0,-2.975100040E0
4.474400156E1,2.631700039E0,3.974799871E0,-4.021999836E-1
4.477400000E1,-7.490000129E-2,-2.957399845E0,3.602199793E0
4.479400000E1,-2.360000014E-1,-7.493999600E-1,1.755999923E0
4.481400000E1,-2.027999908E-1,7.992999554E-1,-1.341499925E0
4.483400000E1,9.959999472E-2,1.643499970E0,-2.148000002E0
4.485400000E1,-3.463999927E-1,1.122300029E0,-3.096099854E0
4.487400156E1,-1.035899997E0,6.664999723E-1,-3.378299952E0
4.489400156E1,-2.087800026E0,2.069999874E-1,-1.739099979E0
4.492400000E1,-3.636600018E0,5.253999829E-1,2.621199846E0
4.494400000E1,-2.093099833E0,7.245000005E-1,8.303999901E-1
4.496400156E1,-3.152999878E-1,4.136999846E-1,-1.051399946E0
4.499400000E1,9.982999563E-1,-1.129299998E0,9.754999876E-1
4.501400000E1,1.690699935E0,-1.228399992E0,5.520699978E0
4.503400156E1,-1.238999963E-1,-1.783999920E0,6.160199642E0
4.506400000E1,-6.985399723E0,-4.307899952E0,7.051999569E-1
4.508400000E1,-9.994599342E0,-4.535200119E0,2.853099823E0
4.510400156E1,-6.830599785E0,-2.033900023E0,5.805399895E0
4.513400000E1,-2.410500050E0,-4.602999687E0,5.792599678E0
4.515400156E1,-2.488199949E0,-5.422699928E0,6.347300053E0
4.517400156E1,-3.611199856E0,-1.525299907E0,4.647399902E0
4.520400000E1,-3.931599855E0,-2.339499950E0,-3.731899977E0
4.522400156E1,-3.736899853E0,-5.972399712E0,-6.317800045E0
4.524400156E1,-1.345700026E0,-7.980399609E0,-2.497799873E0
4.526400156E1,1.504599929E0,-8.072299957E0,4.816999733E-1
4.529400000E1,7.154599667E0,-2.864899874E0,1.099499941E0
4.531400000E1,6.059799671E0,8.797000051E-1,-5.022000074E-1
4.533400156E1,3.192699909E0,3.583699942E0,-6.019399643E0
4.536400000E1,1.186599970E0,2.930599928E0,-6.796199799E0
4.538400000E1,2.556799889E0,3.255899906E0,-5.505799770E0
4.540400156E1,3.131599903E0,3.612599850E0,-5.675399780E0
4.543400000E1,2.032000065E0,1.710999966E0,-5.521499634E0
4.545400000E1,2.626099825E0,1.239799976E0,-4.426300049E0
4.547400000E1,4.610899925E0,3.406499863E0,-3.950999975E0
4.549400000E1,6.307099819E0,5.528199673E0,-3.975399971E0
4.551400000E1,8.124799728E0,6.750199795E0,-3.923699856E0
4.553400156E1,8.465000153E0,6.659299850E0,-2.300699949E0
4.556400000E1,2.449999899E-1,-1.103799939E0,8.781199455E0
4.558400000E1,-3.509500027E0,-8.433300018E0,1.132879925E1
4.560400156E1,-6.631199837E0,-1.398600006E1,1.135949993E1
4.563400000E1,-6.796000004E0,-3.533799887E0,7.901499748E0
4.565400156E1,-3.546399832E0,1.999199986E0,-3.432999849E-1
4.567400313E1,3.280699968E0,-4.305000007E-1,-9.528900146E0
4.570400000E1,7.080599785E0,-1.127999973E1,-7.536799908E0
4.572400000E1,4.607199669E0,-3.619099855E0,-1.226679993E1
4.574400156E1,3.719799995E0,5.332599640E0,-1.124930000E1
4.577400000E1,2.573699951E0,8.091199875E0,-4.082699776E0
4.579400000E1,1.714999974E-1,3.655499935E0,-8.061999679E-1
4.581400000E1,5.157999992E-1,-3.241999865E0,2.480700016E0
4.583400000E1,2.002399921E0,-3.820299864E0,7.234499931E0
4.585400000E1,1.154999971E0,1.399299979E0,3.677599907E0
4.587400000E1,-5.216000080E-1,2.655299902E0,-2.560899973E0
4.589400156E1,-4.939000010E-1,1.622200012E0,-5.111599922E0
4.592400000E1,-1.803399920E0,7.325999737E-1,-3.299599886E0
4.594400000E1,-2.384699821E0,1.121799946E0,-1.731199980E0
4.596400156E1,-2.738699913E0,1.974999905E-1,2.489999980E-1
4.599400000E1,-6.270999908E-1,-1.002699971E0,1.340299964E0
4.601400000E1,1.177099943E0,-1.367900014E0,2.104500055E0
4.603400000E1,2.716599941E0,-1.550199986E0,5.651799679E0
4.605400000E1,-1.526999921E-1,-1.944999933E0,7.584099770E0
4.607400625E1,-5.965300083E0,-4.821300030E0,2.865999937E0
4.610400156E1,-1.220129967E1,-5.277299881E0,1.842199922E0
4.613400000E1,-9.242499352E0,-2.728799820E0,4.268300056E0
4.615400156E1,-6.407099724E0,-5.432199955E0,4.189799786E0
4.617400156E1,-3.436399937E0,-4.594999790E0,4.801799774E0
4.620400000E1,-1.222800016E0,-2.534499884E0,-3.689599991E0
4.622400000E1,-1.441399932E0,-5.714799881E0,-6.575699806E0
4.624404219E1,5.636000037E-1,-7.810400009E0,-3.476899862E0
4.627400156E1,8.360599518E0,-8.791099548E0,8.346999884E-1
4.630400000E1,9.117199898E0,-4.791999757E-1,2.941799879E0
4.632400156E1,6.346099854E0,3.335500002E0,-2.886199951E0
4.635400000E1,2.149600029E0,3.746199846E0,-1.086119938E1
4.637400000E1,1.184700012E0,3.663299799E0,-9.723899841E0
4.639400156E1,1.287899971E0,4.563699722E0,-4.794099808E0
4.642400000E1,1.425599933E0,4.814799786E0,-2.361399889E0
4.644400000E1,2.564599991E0,4.722599983E0,-4.565700054E0
4.646400156E1,3.503799915E0,4.536299706E0,-6.527299881E0
4.649400000E1,5.635099888E0,5.103300095E0,-4.887899876E0
4.651400000E1,7.591199875E0,3.751499891E0,-5.056399822E0
4.653400156E1,1.121910000E1,1.319199920E0,-1.512199998E0
4.656400000E1,-1.458999991E0,-8.775499344E0,2.694869995E1
4.658400000E1,-4.306200027E0,-1.153499985E1,1.889489937E1
4.660400156E1,-6.536399841E0,-7.190799713E0,4.050499916E0
4.663400000E1,-2.104799986E0,1.011699915E0,-1.304069996E1
4.665400156E1,1.985299945E0,2.156599998E0,-1.372629929E1
4.667400156E1,3.229499817E0,-7.085999846E-1,-9.151399612E0
4.670400000E1,5.516399860E0,-6.239699841E0,-3.431299925E0
4.672400000E1,4.932699680E0,-3.734699965E0,-5.235099792E0
4.674400156E1,6.912600040E0,1.632499933E0,-3.331899881E0
