"Time (s)","Gyroscope x (rad/s)","Gyroscope y (rad/s)","Gyroscope z (rad/s)"
1.528525620E-1,9.217083454E-2,-7.748738527E-1,-1.337096691E-1
1.728525620E-1,1.813571602E-1,-5.659579039E-1,-8.361872286E-2
1.928525620E-1,2.540152073E-1,-3.647738099E-1,-9.724974632E-2
2.128525620E-1,2.429498285E-1,-3.345970809E-1,-2.754478753E-1
2.328525620E-1,3.186447620E-1,-4.742583036E-1,-3.081029654E-1
2.528525620E-1,2.939832509E-1,-3.870092928E-1,-2.806663811E-1
2.728525620E-1,1.543918252E-1,-9.053023160E-2,-3.690324128E-1
2.948510000E-1,2.921855748E-1,1.270774156E-1,-6.111619473E-1
3.148510000E-1,4.036248326E-1,2.963918149E-1,-7.346090674E-1
3.348510000E-1,3.392396569E-1,-1.751961559E-1,-4.591263235E-1
3.548525620E-1,2.974739075E-1,-4.642924964E-1,2.855358645E-2
3.768510000E-1,3.307398856E-1,-2.493726462E-1,6.899286807E-2
3.968525620E-1,4.439768493E-1,1.431169957E-1,-3.394316435E-1
4.188619370E-1,6.306572556E-1,2.348689586E-1,-5.510004163E-1
4.408525620E-1,8.271464109E-1,-3.841469809E-2,-3.559249938E-1
4.608525620E-1,9.175370336E-1,-9.494591504E-3,8.965755999E-2
4.808556870E-1,8.175296783E-1,1.873087287E-1,1.089085415E-1
5.028525620E-1,4.063475430E-1,6.650925875E-1,-4.313930273E-1
5.228525620E-1,-1.248434037E-1,9.149190187E-1,-7.788531780E-1
5.428525620E-1,-3.165678084E-1,8.471478820E-1,-3.659082651E-1
5.628541250E-1,-6.329610944E-1,9.388300776E-1,-2.266659141E-1
5.848541250E-1,-1.415671468E0,1.868793845E0,-6.754249930E-1
6.068510000E-1,-1.423455596E0,1.833032012E0,-7.530571818E-1
6.268510000E-1,-8.964011073E-1,9.347285032E-1,-1.519309133E-1
6.468525620E-1,-6.288945079E-1,5.858546495E-1,3.342654705E-1
6.668525620E-1,-6.636440158E-1,8.111941218E-1,7.306472063E-1
6.888619370E-1,-1.065663099E0,9.144129157E-1,5.119923353E-1
7.108525620E-1,-1.984736085E0,8.946732283E-1,2.650108039E-1
7.328510000E-1,-2.416548014E0,8.149989247E-1,4.845208526E-1
7.528525620E-1,-9.231046438E-1,6.252990961E-1,8.340404630E-1
7.748510000E-1,-4.266631901E-1,8.899433613E-1,6.091198921E-1
7.948525620E-1,-6.965783834E-1,1.105666041E0,4.422664270E-2
8.168510000E-1,-7.445051074E-1,3.924547434E-1,6.028890610E-1
8.368510000E-1,-4.582012892E-1,-3.464303911E-1,1.727596760E0
8.568510000E-1,-6.742032170E-1,-8.155923337E-2,1.617763162E0
8.768510000E-1,-1.474646091E0,7.910879254E-1,8.988445401E-1
8.968510000E-1,-1.654729247E0,7.794640660E-1,6.426476836E-1
9.168510000E-1,-1.650662541E0,2.863038182E-1,8.872730136E-1
9.368525620E-1,-1.739587069E0,7.499679923E-2,7.738964558E-1
9.588510000E-1,-1.415863395E0,-2.159670442E-1,4.944692254E-1
9.788525620E-1,-8.603076935E-1,-9.515185952E-1,7.204893827E-1
9.988525620E-1,-6.797533631E-1,-9.478533864E-1,1.055662394E0
1.018852562E0,-7.757290602E-1,-4.509232640E-1,8.134804964E-1
1.038852562E0,-5.138598084E-1,-1.566258520E-1,8.009839654E-1
1.058854125E0,-5.886471868E-1,4.238881171E-1,8.048934937E-1
1.080852562E0,-2.726728022E-1,1.780410409E-1,7.483797073E-1
1.100852562E0,1.989675453E-3,-3.100926578E-1,6.084218025E-1
1.120852562E0,-2.516764775E-2,-2.293188125E-1,1.114392728E-1
1.140852562E0,-2.760587335E-1,-2.577851340E-2,-2.314306647E-1
1.160854125E0,-5.065294504E-1,-3.097610474E-1,-7.423059940E-1
1.182852562E0,-6.948679090E-1,-1.395076513E0,-1.060549259E0
1.202852562E0,-8.425751328E-1,-1.821914315E0,-1.021698236E0
1.222852562E0,-6.481454968E-1,-1.415462017E0,-1.127308130E0
1.242852562E0,-6.061353683E-1,-6.098878384E-1,-9.271363616E-1
1.262852562E0,-6.607990861E-1,2.012190074E-1,-9.712582827E-1
1.284852562E0,-1.729621366E-2,1.031611800E0,-2.111167669E0
1.304852562E0,9.328784943E-1,2.478751421E0,-3.731531382E0
1.324852562E0,1.682305455E0,3.676396370E0,-4.983263969E0
1.344852562E0,9.391616583E-1,2.140209913E0,-4.350215912E0
1.366851000E0,-3.615275025E-1,-2.681523860E-1,-2.100154638E0
1.386851000E0,-4.458094537E-1,-9.044470787E-1,-4.768064916E-1
1.406851000E0,1.669407487E-1,-7.868991494E-1,-6.180036068E-1
1.426851000E0,2.662499845E-1,-1.723983884E0,-2.075562954E0
1.446851000E0,1.846383810E-1,-2.623160124E0,-2.938994884E0
1.466852562E0,2.867401540E-1,-1.769746423E0,-2.740062237E0
1.486852562E0,8.045967668E-3,-4.597895443E-1,-1.576974750E0
1.506852562E0,-3.173532188E-1,-6.290166825E-2,-6.029239893E-1
1.526852562E0,-6.898064613E-1,-6.736796498E-1,-2.746799290E-1
1.546852562E0,-7.902327180E-1,-6.727197170E-1,-2.164731920E-1
1.566852562E0,-7.325496078E-1,-6.270269752E-1,-4.199087620E-1
1.586852562E0,-7.767413259E-1,-6.391395926E-1,-4.715355933E-1
1.606852562E0,-6.940999627E-1,-7.876671106E-2,-2.602635026E-1
1.628852562E0,-4.383394420E-1,3.484724462E-1,1.567480266E-1
1.648852562E0,-2.831971347E-1,1.740093231E-1,5.600761771E-1
1.668852562E0,-4.511676133E-1,-1.898394674E-1,6.242170334E-1
1.688852562E0,-8.164126873E-1,-3.452086747E-1,1.343554407E-1
1.708852562E0,-1.005309701E0,-3.852465153E-1,-2.715732455E-1
1.728852562E0,-9.317963719E-1,-5.280493498E-1,-2.411521375E-1
1.748854125E0,-8.633620143E-1,-5.349434018E-1,-1.259080470E-1
1.770851000E0,-8.888263702E-1,-7.081324458E-1,8.766788989E-2
1.790851000E0,-9.356710315E-1,-7.774918079E-1,3.709697425E-1
1.810851000E0,-7.343822122E-1,-7.748738527E-1,5.633748174E-1
1.830851000E0,-7.343472838E-1,-5.506513640E-2,2.854486108E-1
1.850851000E0,-6.438345313E-1,3.939208090E-1,-5.347688794E-1
1.870851000E0,-4.179190993E-1,1.748645306E-1,-1.022064805E0
1.890893187E0,-1.455255598E-1,-5.604252219E-2,-1.223196507E0
1.912852562E0,-3.070034087E-2,1.614080518E-1,-1.197051525E0
1.934852562E0,1.834340952E-2,4.020540416E-1,-1.053131700E0
1.954852562E0,9.791296721E-2,2.481160015E-1,-7.651523352E-1
1.974852562E0,2.357416153E-1,1.704663038E-1,-2.485523373E-1
1.994852562E0,1.911833584E-1,2.885727286E-1,4.614650458E-2
2.014852562E0,-1.190314535E-2,1.997878402E-1,2.715732343E-2
2.036852562E0,-3.338989317E-1,3.095515966E-1,-8.738863468E-2
2.056852562E0,-5.478937626E-1,2.870543003E-1,-1.452288479E-1
2.076852562E0,-5.770233274E-1,2.659881711E-1,-2.566157579E-1
2.098852562E0,-4.453207552E-1,6.058037654E-2,-5.330235362E-1
2.120852562E0,-2.609616220E-1,-9.035569429E-2,-7.975805402E-1
2.140852562E0,-1.720021963E-1,2.661627159E-2,-8.551938534E-1
2.160852562E0,-1.560673416E-1,1.364149302E-1,-7.846127748E-1
2.182852562E0,-1.563116908E-1,1.454033852E-1,-6.022258401E-1
2.204851000E0,-1.354026496E-1,6.084217876E-2,-3.977779746E-1
2.224852562E0,-1.496794373E-1,4.970697686E-2,-2.880142331E-1
2.246851000E0,-1.256462485E-1,1.393819898E-1,-2.062979192E-1
2.266852562E0,-3.724532574E-2,1.140049100E-1,-8.623671532E-2
2.288851000E0,6.277949363E-2,3.026400879E-2,-1.396263367E-3
2.308852562E0,6.939429045E-2,2.044304162E-1,2.323033288E-2
2.328852562E0,3.134611249E-2,1.386315078E-1,-9.320057929E-3
2.348852562E0,-1.186823938E-3,9.351474047E-2,-1.310742274E-2
2.370852562E0,3.787364578E-3,8.997172117E-2,-4.852015525E-3
2.392852562E0,1.476548519E-2,1.141968891E-1,8.429939859E-3
2.412852562E0,4.042182490E-2,2.356543541E-1,-3.066543490E-2
2.432852562E0,3.970624134E-2,1.967858672E-1,-4.488986731E-2
2.454851000E0,-1.371828746E-2,2.038719058E-1,-4.689699784E-2
2.474851000E0,-9.813986719E-2,2.346420586E-1,-3.185226023E-2
2.494852562E0,-1.230282560E-1,1.743234843E-1,2.806489356E-2
2.516851000E0,-1.000597253E-1,4.566130340E-1,7.223917544E-2
2.536851000E0,9.651670605E-2,4.977504611E-1,-8.206538111E-2
2.556851000E0,2.238035649E-1,4.368384480E-1,-2.604729235E-1
2.576851000E0,2.102947235E-1,6.160314083E-1,-7.078531981E-1
2.596851000E0,1.145808622E-1,4.534016252E-1,-1.074930787E0
2.616851000E0,4.738568887E-2,-3.717551241E-3,-2.163213491E0
2.636851000E0,1.208640486E-1,-2.599493265E-1,-2.891260147E0
2.656852562E0,1.062905490E-1,-9.906488657E-2,-2.053397417E0
2.676852562E0,-1.036725566E-2,3.391174600E-2,-1.068281174E0
2.698852562E0,-5.965709686E-1,-1.702917814E-1,-7.648730874E-1
2.720851000E0,-8.909556866E-1,-9.110094905E-1,-2.122320384E-1
2.740852562E0,-7.027393579E-1,-4.252320230E-1,2.886599898E-1
2.762852562E0,-7.372619510E-1,-1.712168008E-1,3.954567015E-1
2.784851000E0,-4.033281207E-1,-4.057715833E-1,2.072229385E-1
2.804851000E0,-1.343903542E-1,-5.974611044E-1,2.381327152E-1
2.824851000E0,7.630579174E-2,-1.970825791E-1,7.237880677E-2
2.844851000E0,7.866198570E-2,-4.447098821E-2,-2.110277563E-1
2.864852562E0,8.953539282E-2,2.503500283E-1,-3.783001006E-1
2.886851000E0,5.202128291E-1,1.398497462E0,-1.669494748E0
2.906851000E0,5.949478149E-1,2.128952503E0,-1.958015084E0
2.926851000E0,-3.273888528E-1,6.819524765E-1,-1.990076780E0
2.946851000E0,-1.392982125E0,-5.549623370E-1,-2.167541742E0
2.966852562E0,-1.777879596E0,-1.815142483E-1,-2.225033045E0
2.988852562E0,-1.693091512E0,1.700997949E-1,-2.671348572E0
3.008852562E0,-1.588389277E0,1.286656708E-1,-3.061359882E0
3.028852562E0,-1.273968220E0,-1.622283578E0,-3.113300800E0
3.048852562E0,-1.509849429E0,-3.879832029E0,-3.547538757E0
3.068852562E0,-7.963064909E-1,-3.649413586E0,-8.171352386E0
3.090852562E0,2.879095078E-1,-3.371033669E0,-6.276797295E0
3.112852562E0,3.426779509E-1,-3.783646822E0,7.153580785E-1
3.132852562E0,2.656041980E-1,-2.751214743E0,2.793032885E0
3.152852562E0,-1.912008226E-1,-7.372096181E-1,2.669219255E0
3.172852562E0,-4.017922580E-1,1.923981190E0,8.773770332E-1
3.192852562E0,-1.299921274E-1,2.887193441E0,-3.561344445E-1
3.212852562E0,2.739643455E-1,5.139645338E-1,-3.090978041E-2
3.232852562E0,2.797762863E-2,-8.543386459E-1,-3.676012456E-1
3.252852562E0,-1.307077110E-1,-7.783470154E-1,-3.635869920E-1
3.272852562E0,5.445427261E-3,-1.511106044E-1,-3.086265624E-1
3.294851000E0,3.022910282E-2,2.768092230E-2,-1.863138974E-1
3.314851000E0,-7.848745584E-2,-1.312313080E-1,-6.283185631E-2
3.334851000E0,-1.225744709E-1,-4.017747939E-2,6.627015024E-2
3.354852562E0,-1.003738865E-1,2.992366850E-1,9.995500743E-2
3.376852562E0,-1.320690662E-1,3.191334605E-1,1.353502870E-1
3.398851000E0,-6.712536514E-2,1.784250140E-1,4.272565991E-2
3.418854125E0,-8.569566533E-3,1.079835221E-1,1.122246683E-2
3.440852562E0,1.312487572E-2,1.498190612E-1,-2.570869960E-2
3.462851000E0,-4.494222626E-2,2.406285405E-1,-6.042329967E-2
3.482851000E0,-1.831374019E-1,2.139948159E-1,-3.305653483E-2
3.502852562E0,-2.645919025E-1,1.001819000E-1,-4.022983834E-2
3.524851000E0,-2.189690024E-1,-2.001892589E-2,1.965240762E-2
3.544851000E0,-1.343379915E-1,-1.336747706E-1,1.038470864E-1
3.564852562E0,-1.703441329E-2,-2.022836655E-1,8.508480340E-2
3.586849437E0,1.490336657E-1,-1.542870998E-1,8.936085552E-2
3.606851000E0,-6.956882030E-2,-4.787961841E-1,1.642354876E-1
3.626851000E0,-3.922976553E-1,-8.509352803E-1,2.802126110E-1
3.646851000E0,-3.011565506E-1,-5.933071971E-1,3.253293633E-1
3.666852562E0,-3.953170776E-2,1.015781611E-1,2.588148713E-1
3.688851000E0,-4.687954485E-2,2.221629620E-1,2.152339965E-1
3.708852562E0,-1.269028932E-1,-1.856506765E-1,1.202357337E-1
3.730852562E0,-7.211700082E-2,-5.038765669E-1,3.303908184E-2
3.752852562E0,-9.740682691E-2,-6.246882677E-1,-3.881612420E-2
3.774851000E0,-2.103296220E-1,-5.691344142E-1,8.852309734E-2
3.794852562E0,-2.507340014E-1,-1.553517580E-1,4.199960232E-1
3.816851000E0,-2.412917614E-1,4.631056488E-1,6.204820275E-1
3.836851000E0,-1.234994978E-1,9.692162275E-1,6.479185820E-1
3.856851000E0,3.124139272E-3,1.265869856E0,5.005953312E-1
3.876851000E0,-1.275835652E-2,1.065348983E0,4.146378636E-1
3.896851000E0,-1.091005281E-1,6.642373800E-1,3.889640868E-1
3.916851000E0,-2.230007201E-1,4.501727819E-1,3.925769031E-1
3.936851000E0,-2.528109550E-1,4.208512306E-1,4.999321103E-1
3.956851000E0,-2.400874943E-1,5.450488925E-1,5.548750758E-1
3.976851000E0,-2.326872945E-1,7.962540984E-1,5.067563653E-1
3.996851000E0,-3.385938704E-1,9.798976779E-1,4.144458771E-1
4.016851000E0,-5.625894070E-1,1.018591642E0,3.249453902E-1
4.036851000E0,-7.757290602E-1,9.483595490E-1,2.041337043E-1
4.056851000E0,-8.459261656E-1,7.778757811E-1,8.717919886E-2
4.076851000E0,-7.122688890E-1,-5.547354221E-1,2.066469751E-2
4.096852562E0,-5.418374538E-1,-1.518715739E0,-7.897614688E-2
4.118851000E0,-5.426577926E-1,-5.287300348E-1,-4.131194204E-2
4.138852562E0,-5.765694976E-1,5.589067936E-1,1.473232359E-1
4.158852562E0,-5.225166678E-1,9.728116393E-1,1.378810108E-1
4.180852562E0,-4.513770640E-1,8.269718885E-1,8.445648104E-2
4.200852562E0,-4.436452389E-1,2.936167419E-1,-4.654793069E-2
4.222851000E0,-3.509682715E-1,-4.098033160E-2,-2.143438905E-1
4.242851000E0,-1.304284483E-1,-1.612684131E-2,-2.916445136E-1
4.262852562E0,2.219709754E-1,-1.922480166E-1,-4.177271128E-1
4.284851000E0,8.603949547E-1,-3.729245067E-1,-5.088682175E-1
4.304851000E0,1.617082477E0,-1.710248142E-1,-6.170611382E-1
4.324851000E0,2.382252216E0,3.496069014E-1,-4.601385891E-1
4.344851000E0,2.655274153E0,1.124184012E0,-5.424134135E-1
4.364852562E0,3.078062773E0,1.451485634E0,-7.816805840E-1
4.386851000E0,2.950636148E0,2.053327560E0,-8.259421587E-1
4.406851000E0,2.415116787E0,2.756764889E0,-4.691619575E-1
4.426851000E0,2.314219236E0,1.893018961E0,-2.118655145E-1
4.446851000E0,2.438189983E0,-6.347762793E-2,-3.564834893E-1
4.466852562E0,2.631293297E0,-2.032802343E0,-6.729989648E-1
4.488852562E0,2.913443089E0,-2.973395348E0,-7.767762542E-1
4.510851000E0,3.417564154E0,-3.133529186E0,-5.089903474E-1
4.530851000E0,3.910165787E0,-2.683478594E0,-1.666265875E-1
4.550851000E0,3.589810610E0,-2.304742098E0,2.720444798E-1
4.570851000E0,2.917300463E0,-2.884488106E0,4.100301862E-1
4.590852562E0,2.451681376E0,-3.066316605E0,2.119527906E-1
4.612852562E0,1.907540202E0,-2.426199675E0,1.160120368E-1
4.634851000E0,1.098073840E0,-1.185724378E0,2.076592743E-1
4.654852562E0,3.742509484E-1,-4.023682177E-1,2.126160115E-1
4.676851000E0,-2.574011683E-1,-1.404815465E-1,1.306378990E-1
4.696851000E0,-7.714354992E-1,-3.846356571E-1,4.440117627E-2
4.716851000E0,-1.181971908E0,-6.347762346E-1,2.081305087E-1
4.736851000E0,-1.285085917E0,-6.223844290E-1,4.373620450E-1
4.756851000E0,-8.184023499E-1,-3.288200200E-1,3.660478890E-1
4.776851000E0,1.017526984E-1,4.150741994E-1,1.115963534E-1
4.796851000E0,6.799104810E-1,-3.512824178E-1,3.695734739E-1
4.816851000E0,3.379481137E-1,-1.676545858E0,8.576373458E-1
4.836851000E0,3.830997646E-1,-2.562876463E0,1.258609295E0
4.856851000E0,2.469989955E-1,-2.056346893E0,9.635788202E-1
4.876851000E0,-1.789259195E0,5.197590590E-1,9.036791325E-1
4.896851000E0,-2.621205330E0,2.036205769E0,4.751309752E-1
4.916851000E0,5.618040562E-1,4.618542671E0,5.946336687E-2
4.936851000E0,1.086938739E0,2.700600386E0,2.873510122E-1
4.956851000E0,-7.987149954E-1,3.511113644E0,3.330960870E-1
4.976851000E0,-2.434734344E0,2.736397028E0,-3.397457898E-1
4.996851000E0,-3.943693638E0,1.086711764E0,-1.184712052E0
5.016851000E0,-4.599117279E0,1.222533345E0,-5.529377460E-1
5.036851000E0,-4.331313610E0,1.967893600E0,7.954686880E-1
5.056851000E0,-3.312181234E0,2.148901701E0,1.575840354E0
5.076851000E0,-2.340888023E0,1.810220599E0,1.439756989E0
5.096851000E0,-1.517528892E0,1.232952952E0,8.424355388E-1
5.116851000E0,-7.778234482E-1,2.787290886E-2,2.777691483E-1
5.136851000E0,-5.780181289E-1,-1.707612634E0,-6.422811653E-3
5.156851000E0,-1.071893930E0,-2.497583628E0,1.703615934E-1
5.176851000E0,-1.604777932E0,-1.637171149E0,5.323254466E-1
5.196851000E0,-1.785227418E0,-1.598197967E-1,5.908986926E-1
5.216851000E0,-1.603451490E0,9.678025246E-1,5.273337960E-1
5.236851000E0,-1.383278131E0,1.447192073E0,5.079780817E-1
5.256851000E0,-1.357307673E0,1.126732230E0,3.586477041E-1
5.278851000E0,-1.140136361E0,-2.158448696E-1,1.676912308E-1
5.298852562E0,-5.161811113E-1,-7.984706759E-1,1.494001877E-2
5.318855687E0,7.517132908E-2,-1.376366615E-1,-1.912531853E-1
5.340851000E0,3.261845708E-1,1.190017819E0,-1.444434524E-1
5.360851000E0,9.032427669E-1,1.541509748E0,9.269443899E-2
5.380851000E0,1.920822144E0,3.541447520E-1,3.206344247E-1
5.400851000E0,3.378294230E0,-1.382038951E0,2.862340072E-3
5.420851000E0,4.377163410E0,-1.358983159E0,-4.712912440E-1
5.440851000E0,3.472838640E0,3.870092928E-1,-5.227609873E-1
5.460854125E0,2.734878540E0,2.162899256E0,-1.017876044E-1
5.482851000E0,2.337065697E0,3.396515369E0,-9.215338156E-3
5.502851000E0,2.880212069E0,1.863837123E0,-7.742804289E-1
5.522851000E0,3.100507498E0,-1.592769980E0,-1.365755081E0
5.542851000E0,2.970847130E0,-1.873767972E0,-1.057023764E0
5.562852562E0,3.427425146E0,-2.114920139E0,-5.692042112E-1
5.584851000E0,3.612709284E0,-3.074694157E0,-5.836904645E-1
5.604851000E0,3.449870110E0,-3.276838303E0,-7.077310085E-1
5.624851000E0,2.802178383E0,-2.861065865E0,-5.224119425E-1
5.644851000E0,1.753043652E0,-2.953550816E0,-2.515194118E-1
5.664851000E0,1.033322215E0,-3.460691214E0,-3.398505151E-1
5.684851000E0,5.886297226E-1,-2.807013035E0,-1.973094642E-1
5.704851000E0,-9.110618383E-3,-1.543761134E0,2.349387705E-1
5.724851000E0,-7.422536016E-1,-4.061206579E-1,6.116855145E-1
5.744851000E0,-1.834253788E0,4.284085035E-1,9.163153172E-1
5.764851000E0,-3.011286259E0,1.313098431E0,1.480301023E0
5.784851000E0,-2.518405437E0,7.438069582E-1,1.192635775E0
5.804851000E0,-1.186300293E-1,7.707373798E-2,6.384414434E-2
5.824851000E0,1.650802255E0,-1.672147632E0,-1.271821409E-1
5.844851000E0,9.155822396E-1,-1.790864944E0,5.144706964E-1
5.864851000E0,-3.322932422E-1,-1.298507452E0,3.877249062E-1
5.884851000E0,-1.186247945E0,-5.203873515E-1,2.246413231E-1
5.904851000E0,-1.190995216E0,2.323801279E0,-4.749738872E-1
5.924851000E0,3.271619678E-1,3.912993193E0,-5.550321341E-1
5.944851000E0,3.116808832E-1,2.930233240E0,3.765024245E-1
5.964851000E0,-9.085835218E-1,3.417790890E0,5.640904233E-2
5.984851000E0,-2.372827530E0,2.689028740E0,-6.266953945E-1
6.004851000E0,-4.024432659E0,1.694575071E0,-6.755471230E-1
6.024851000E0,-5.269288540E0,1.346539021E0,5.511749983E-1
6.044851000E0,-4.779392242E0,1.213300586E0,1.516900539E0
6.064851000E0,-3.322705507E0,9.801943302E-1,1.618147135E0
6.084851000E0,-2.236028671E0,4.730016887E-1,1.395251155E0
6.104851000E0,-1.383487582E0,-3.054326167E-3,9.566149712E-1
6.124851000E0,-9.881181717E-1,-2.147976756E-1,5.382944345E-1
6.144851000E0,-7.721511126E-1,-2.026396990E0,3.918962181E-1
6.164851000E0,-8.359079957E-1,-3.738041401E0,6.420542598E-1
6.184851000E0,-7.976503968E-1,-1.761124492E0,6.137101054E-1
6.204851000E0,-1.018033147E0,1.392074585E0,4.922875762E-1
6.224852562E0,-1.408882141E0,2.985857010E0,6.201678514E-1
6.246851000E0,-1.646526098E0,3.210498333E0,7.896742225E-1
6.266851000E0,-1.726182938E0,2.758423090E0,6.580414772E-1
6.286851000E0,-1.622562766E0,1.411569953E0,3.870791197E-1
6.306851000E0,-1.001661897E0,-2.564691544E0,9.325294197E-2
6.326851000E0,-2.687806962E-3,-2.361238480E0,-1.434486061E-1
6.346851000E0,1.404990107E-1,6.305874586E-1,1.085420251E-1
6.366851000E0,6.176720187E-2,2.199952602E0,3.480535448E-1
6.386851000E0,8.332899809E-1,1.267300963E0,2.069262415E-1
6.406851000E0,2.078617334E0,-8.996997476E-1,-1.033409461E-1
6.426851000E0,3.647458792E0,-2.439394236E0,-9.296496511E-1
6.446851000E0,4.099429131E0,-1.056622267E0,-1.282694817E0
6.466851000E0,2.996852398E0,1.646979928E0,-7.281164527E-1
6.486851000E0,2.572964430E0,3.842097998E0,-3.340385556E-1
6.506858812E0,2.462275505E0,4.541294575E0,-2.911732793E-1
6.528851000E0,3.583213329E0,1.379927158E0,-1.270669460E0
6.548851000E0,3.248162508E0,-3.854559660E-1,-1.645217180E0
6.568851000E0,2.828393221E0,-1.346015334E0,-1.345963001E0
6.588851000E0,3.162798405E0,-1.603067517E0,-9.045518041E-1
6.608851000E0,3.395293713E0,-2.010968447E0,-8.803266287E-1
6.628851000E0,2.893005371E0,-2.112389326E0,-9.507331848E-1
6.648851000E0,1.952656865E0,-2.105268478E0,-5.425705314E-1
6.668851000E0,1.306169510E0,-2.704562187E0,-5.866051465E-2
6.688851000E0,9.640325904E-1,-3.504376888E0,-7.644542307E-2
6.708851000E0,6.274109483E-1,-2.987340450E0,-5.773549154E-2
6.728851000E0,4.984660447E-2,-1.519274235E0,3.006853163E-1
6.748851000E0,-6.204121709E-1,-4.994608760E-1,6.584429145E-1
6.768851000E0,-1.629317164E0,-1.748121828E-1,9.912597537E-1
6.788851000E0,-3.412904024E0,9.321628809E-1,1.348912597E0
6.808851000E0,-2.218051672E0,1.780846715E0,9.929876328E-1
6.828851000E0,6.910631061E-1,1.984439418E-2,-1.906772256E-1
6.848851000E0,1.875408649E0,-2.569403887E0,2.468942702E-1
6.868851000E0,9.533337355E-1,-1.910035968E0,9.384809732E-1
6.888851000E0,2.393369973E-1,-1.075314760E0,6.343922615E-1
6.908851000E0,-1.888498545E0,-8.330456167E-2,-3.834488243E-2
6.928851000E0,-2.548355341E0,2.316959381E0,-5.447870493E-1
6.948851000E0,-5.189736485E-1,3.618905306E0,1.244594306E-1
6.968851000E0,1.752136052E-1,1.728870749E0,3.925245628E-2
6.988851000E0,-7.357435226E-1,2.766940355E0,-8.318239450E-2
7.008851000E0,-1.837849140E0,3.808203697E0,-2.019345947E-2
7.028851000E0,-3.461982727E0,3.535286665E0,4.564035833E-1
7.048851000E0,-4.893414497E0,2.071566105E0,1.429285049E0
7.068857250E0,-4.576811790E0,9.379050136E-1,1.633610725E0
7.090851000E0,-3.414265394E0,3.040538132E-1,1.304005265E0
7.110851000E0,-2.475714684E0,1.367989033E-1,1.041437984E0
7.130851000E0,-1.505800247E0,1.956164986E-1,5.804790258E-1
7.150851000E0,-6.412688494E-1,4.025078416E-1,2.550449669E-1
7.170851000E0,-3.910933733E-1,4.590215981E-1,2.524967790E-1
7.190851000E0,-1.277773023E0,-9.038885832E-1,5.238780379E-1
7.210851000E0,-2.371204376E0,-2.618185759E0,8.627511263E-1
7.230851000E0,-1.752205849E0,-6.498209834E-1,3.534640670E-1
7.250851000E0,-1.435341358E0,2.058999777E0,2.944894135E-1
7.270851000E0,-1.472988129E0,2.612757921E0,5.435478687E-1
7.290851000E0,-1.223440886E0,3.530102968E-1,3.139498234E-1
7.310851000E0,-5.504244566E-1,-8.420864344E-1,-6.056292355E-2
7.330851000E0,-2.027199864E-1,2.051110864E-1,-7.993607782E-3
7.350851000E0,-1.446877979E-2,9.738762379E-1,1.960004717E-1
7.370851000E0,1.575159580E-1,9.395107627E-1,2.485523373E-1
7.390851000E0,5.828352571E-1,6.075491309E-1,4.220206290E-2
7.410851000E0,1.621794820E0,-5.799729228E-1,-8.944812417E-2
7.430851000E0,3.488232374E0,-3.302599192E0,-6.465222836E-1
7.450851000E0,4.437447071E0,-9.752550721E-1,-1.041106343E0
7.470851000E0,3.349862814E0,1.870643854E0,-5.318541527E-1
7.490851000E0,2.755072117E0,3.362254620E0,-1.654572040E-2
7.510851000E0,2.592023373E0,4.209193230E0,2.027548999E-1
7.530851000E0,2.554359198E0,3.444040775E0,1.855284907E-2
7.550851000E0,2.861170530E0,-1.331738591E0,-5.798332691E-1
7.570851000E0,2.668695688E0,-3.394316435E0,-8.691041470E-1
7.590852562E0,3.215018749E0,-3.048933029E0,-1.197226048E0
7.612851000E0,3.487482071E0,-2.131884813E0,-1.105456591E0
7.632851000E0,3.139986992E0,-2.676183224E0,-9.626712799E-1
7.652851000E0,2.715575218E0,-2.801654816E0,-5.378755927E-1
7.672851000E0,2.195240259E0,-2.543276310E0,-2.624626160E-1
7.692851000E0,1.485711575E0,-3.522039413E0,-4.696157277E-1
7.712851000E0,9.265254736E-1,-3.657808781E0,-4.653047621E-1
7.732851000E0,2.545388043E-1,-2.639758110E0,-2.230530791E-2
7.752851000E0,-6.536257863E-1,-1.392318964E0,6.463302970E-1
7.772851000E0,-1.795367837E0,-5.329537392E-1,1.100238085E0
7.792851000E0,-3.209974527E0,7.925888896E-1,1.513409853E0
7.812851000E0,-3.163897991E0,2.189218760E0,1.233912826E0
7.832851000E0,-1.173559353E-1,2.119440556E0,-4.900884628E-1
7.852851000E0,2.101987362E0,-2.122425079E0,-5.277875662E-1
7.872851000E0,1.031280160E0,-2.352372169E0,8.112813830E-1
7.892851000E0,-1.023810133E-1,-1.278872609E0,5.457993746E-1
7.912851000E0,-1.540357828E0,-4.142189920E-1,3.324852288E-1
7.932851000E0,-2.541024923E0,1.982013345E0,-8.415977657E-2
7.952851000E0,-7.741059065E-1,4.128576279E0,-1.401499361E-1
7.972851000E0,3.950727284E-1,2.154312134E0,1.129402518E-1
7.992851000E0,-6.276029348E-1,2.515822411E0,1.235169470E-1
8.012851000E0,-1.571424603E0,3.024219275E0,-2.395289838E-1
8.032851000E0,-2.916148424E0,2.462362766E0,-2.100852877E-1
8.052851000E0,-3.990817547E0,1.219356775E0,8.226609230E-1
8.072851000E0,-3.399569750E0,1.528035700E-1,1.494560361E0
8.092851000E0,-2.395796061E0,-4.274311364E-1,1.319660902E0
8.112851000E0,-1.729394436E0,-6.659827232E-1,9.564578533E-1
8.132851000E0,-1.314686656E0,-1.043270588E0,5.414186120E-1
8.152851000E0,-1.164797783E0,-1.181919456E0,1.605528444E-1
8.172851000E0,-1.266079307E0,-2.365566969E0,2.899166346E-1
8.192851000E0,-1.537722349E0,-2.932222843E0,7.542265654E-1
8.212851000E0,-1.356696725E0,-1.537355781E0,7.940549850E-1
8.232851000E0,-9.736668468E-1,5.345070958E-1,6.905046105E-1
8.252851000E0,-1.071806669E0,2.140402079E0,5.695183873E-1
8.272851000E0,-1.515591502E0,2.684089422E0,3.903777897E-1
8.292851000E0,-1.916301727E0,2.076069117E0,3.517536521E-1
8.312851000E0,-1.892076492E0,-3.077015579E-1,2.980498672E-1
8.332851000E0,-1.051421285E0,-2.402445793E0,-9.267698042E-3
8.352851000E0,-1.256287992E-1,-1.403506517E0,-2.066644430E-1
8.372851000E0,9.033824503E-2,5.072450638E-1,3.068288788E-2
8.392851000E0,2.829353213E-1,1.710300446E0,2.038544565E-1
8.412852562E0,8.465893865E-1,1.046220183E0,1.760688126E-1
8.434851000E0,2.281686306E0,-2.031371355E0,-1.391201913E-1
8.454851000E0,3.397405624E0,-1.466792107E0,-3.751236200E-1
8.474851000E0,3.595273495E0,-4.494222626E-2,-2.571393549E-1
8.494851000E0,3.115465164E0,9.937381148E-1,-2.523920536E-1
8.514851000E0,2.668940067E0,2.240601301E0,-1.398357749E-1
8.534851000E0,2.457580566E0,3.041690111E0,-2.742261291E-1
8.554851000E0,3.029734373E0,1.585963249E0,-7.630754113E-1
8.574851000E0,3.097907066E0,-1.053759933E0,-1.063115001E0
8.594851000E0,3.250710726E0,-1.739691854E0,-1.115143180E0
8.614851000E0,3.569774151E0,-2.189236403E0,-1.161342025E0
8.634851000E0,3.846775532E0,-2.650282383E0,-1.355719447E0
8.654852562E0,3.549353838E0,-2.995037317E0,-1.495642424E0
8.676852562E0,2.650003195E0,-2.749225140E0,-1.287058115E0
8.698858812E0,1.835929275E0,-2.589998722E0,-5.903576016E-1
8.720852562E0,1.310707331E0,-2.565319777E0,-3.302337527E-1
8.740852562E0,8.410916328E-1,-1.729272246E0,-2.266833633E-1
8.762851000E0,1.121199504E-1,-6.585301757E-1,1.344078034E-1
8.782852562E0,-7.950673103E-1,-2.182185203E-1,5.619087219E-1
8.804851000E0,-2.294078112E0,-1.033933014E-1,1.016043425E0
8.824851000E0,-3.388294935E0,-2.026327327E-2,1.423490524E0
8.844851000E0,-2.658817053E0,5.724680144E-3,1.070672274E0
8.864851000E0,-4.051083624E-1,8.816007376E-1,-4.501204193E-2
8.884851000E0,9.151459336E-1,-9.835279584E-1,-1.531351954E-1
8.904851000E0,6.414434314E-1,-1.628688931E0,3.497988880E-1
8.924851000E0,-2.451664060E-1,-1.433630943E0,5.204048157E-1
8.944851000E0,-1.299764156E0,3.506017327E-1,4.379205704E-1
8.964851000E0,-1.339644909E0,2.525020123E0,-2.009746581E-1
8.984851000E0,9.649925679E-2,3.211807251E0,-1.886526346E-1
9.004851000E0,-1.430297345E-1,2.133630037E0,1.191361770E-1
9.024851000E0,-1.093658209E0,2.571707726E0,2.295107953E-2
9.044851000E0,-2.618587255E0,1.983060598E0,4.010766745E-2
9.064851000E0,-4.171581268E0,1.434555888E0,5.824512839E-1
9.084851000E0,-4.444690228E0,1.374429345E0,1.381724834E0
9.104851000E0,-3.544432163E0,1.119698524E0,1.655392408E0
9.124851000E0,-2.522908449E0,7.534760833E-1,1.457384825E0
9.144851000E0,-1.782417536E0,4.410097897E-1,1.138722658E0
9.164851000E0,-1.261506557E0,1.655444801E-1,5.964139104E-1
9.184852562E0,-1.037476063E0,9.573131055E-2,4.108330607E-1
9.204852562E0,-1.267527938E0,-4.654269516E-1,6.663841605E-1
9.226851000E0,-1.860503554E0,-2.855323792E0,8.500276804E-1
9.246852562E0,-1.417940378E0,-2.099509001E0,4.611508846E-1
9.266852562E0,-1.054283619E0,4.343775511E-1,4.022634923E-1
9.288852562E0,-1.175810814E0,1.983374715E0,4.779933095E-1
9.308852562E0,-1.405129671E0,2.059854984E0,5.234940648E-1
9.330851000E0,-1.738958836E0,1.576241732E0,4.267679155E-1
9.350851000E0,-1.739272952E0,1.105526447E0,2.052507252E-1
9.370852562E0,-1.244123101E0,-9.940696955E-1,6.356488913E-2
9.392851000E0,-1.595056355E-1,-2.473253727E0,-1.142667085E-1
9.412851000E0,4.379205704E-1,3.274237737E-2,1.022762954E-1
9.432851000E0,1.021401525E0,2.155848026E0,5.045747012E-2
9.452851000E0,1.551719904E0,1.278139472E0,-6.604325771E-2
9.472851000E0,2.442954779E0,-1.082470655E0,-1.351757497E-1
9.492851000E0,4.052689552E0,-2.477966070E0,-7.468962073E-1
9.512851000E0,3.991009474E0,-8.601680398E-1,-1.041839361E0
9.532851000E0,3.096842289E0,1.359471798E0,-7.457966208E-1
9.552851000E0,2.624800682E0,3.564660549E0,-6.231697798E-1
9.572851000E0,2.775597095E0,4.390323162E0,-5.080653429E-1
9.592851000E0,3.734149456E0,1.097567797E0,-7.822216749E-1
9.612851000E0,3.134750843E0,-2.207317829E0,-8.855625987E-1
9.632851000E0,2.942764759E0,-2.915171146E0,-1.046150327E0
9.652851000E0,3.471774101E0,-2.571952105E0,-1.052189231E0
9.672851000E0,3.602725983E0,-2.117206573E0,-1.055610061E0
9.692851000E0,3.052668095E0,-2.007879019E0,-9.522342086E-1
9.712851000E0,2.006011724E0,-2.283152342E0,-4.893728793E-1
9.732851000E0,1.317514181E0,-2.620210409E0,-5.516985804E-2
9.752851000E0,9.833010435E-1,-3.007970333E0,-5.557128415E-2
9.772851000E0,6.995279789E-1,-2.400717735E0,6.948155910E-2
9.792851000E0,1.505520940E-1,-1.287424684E0,3.241425455E-1
9.812851000E0,-7.039087415E-1,-5.567425489E-1,6.142337322E-1
9.832851000E0,-1.905725002E0,-4.583932757E-1,9.828996062E-1
9.852851000E0,-2.864102840E0,-3.138276637E-1,1.317688704E0
9.872851000E0,-2.584972143E0,9.199630469E-2,8.492423296E-1
9.892851000E0,-3.707428277E-1,2.202081978E-1,-2.699500620E-1
9.912851000E0,1.068926930E0,-1.476984859E0,-5.338962004E-2
9.932851000E0,8.296946287E-1,-1.548508525E0,5.974087715E-1
9.952857250E0,1.676214188E-1,-1.207453728E0,4.832816720E-1
9.974851000E0,-1.719742775E0,1.922131032E-1,2.577851340E-2
9.994851000E0,-1.848687649E0,2.715976715E0,-7.166671157E-1
1.001485100E1,3.450690508E-1,3.474950552E0,-3.590491414E-1
1.003485100E1,1.914451718E-1,1.737806916E0,8.695230633E-2
1.005485100E1,-1.191309333E0,2.188555717E0,-4.764748737E-2
1.007485100E1,-2.603699684E0,2.026815891E0,1.671327353E-1
1.009485100E1,-3.767554998E0,2.017146826E0,1.197260976E0
1.011485100E1,-3.971653700E0,1.738592267E0,1.822944045E0
1.013485100E1,-3.374489307E0,1.185270548E0,1.626891255E0
1.015485256E1,-2.564883471E0,5.640904307E-1,1.150782824E0
1.017685100E1,-1.803012371E0,-2.256012559E-1,7.292160392E-1
1.019685256E1,-1.232726097E0,-8.037415743E-1,2.934596539E-1
1.021685256E1,-9.459335208E-1,-1.161307216E0,1.665218621E-1
1.023885725E1,-1.097201228E0,-1.453998923E0,3.935368359E-1
1.025886506E1,-2.155446768E0,-3.487289906E0,1.041856885E0
1.028085256E1,-1.786606312E0,-3.769003630E0,8.231670856E-1
1.030085256E1,-9.379574060E-1,-1.073831320E0,2.827084363E-1
1.032085256E1,-1.010161638E0,1.766377926E0,4.907516837E-1
1.034285100E1,-1.262832999E0,2.964633703E0,6.866998076E-1
1.036285100E1,-1.446267128E0,2.366701365E0,6.510426998E-1
1.038285100E1,-1.147903085E0,-9.452528954E-1,5.276130140E-2
1.040285100E1,-3.509333432E-1,-1.678552985E0,-1.828406900E-1
1.042285256E1,1.363800317E-1,-7.637560964E-1,-1.233075112E-1
1.044485100E1,7.101919055E-1,6.296100616E-1,-1.410226077E-1
1.046485100E1,1.671170235E0,1.202793598E0,-2.559350729E-1
1.048485100E1,2.805058241E0,-1.157327816E-1,-1.815316975E-1
1.050485256E1,3.809599876E0,-1.791685224E0,-6.885672808E-1
1.052685256E1,3.734987020E0,-5.005953312E-1,-8.784940243E-1
1.054885256E1,2.944841623E0,1.856087804E0,-4.259301424E-1
1.057085100E1,2.452589035E0,3.858451605E0,-2.894628644E-1
1.059085100E1,3.037815332E0,3.545671225E0,-5.569869280E-1
1.061085100E1,3.680148840E0,-1.995958537E-1,-1.222201705E0
1.063085256E1,3.042632580E0,-1.680891633E0,-1.181884646E0
1.065285100E1,3.060818911E0,-1.932062030E0,-1.023600698E0
1.067285100E1,3.523976803E0,-1.493041873E0,-9.874898195E-1
1.069285100E1,3.332566500E0,-1.766325593E0,-9.817826152E-1
1.071285100E1,2.490148544E0,-2.102336407E0,-7.417649031E-1
1.073285100E1,1.510809302E0,-2.350312710E0,-3.152762651E-1
1.075285100E1,8.376184106E-1,-2.772856951E0,-1.036376506E-1
1.077285100E1,5.083096623E-1,-2.793992758E0,-6.780604273E-2
1.079285100E1,1.715658605E-1,-1.983200192E0,-6.443755329E-2
1.081285100E1,-4.226663709E-1,-1.075140238E0,1.188569218E-1
1.083285256E1,-1.234942555E0,-6.589664817E-1,4.221427739E-1
1.085485256E1,-3.105376959E0,-4.236088693E-1,7.080277205E-1
1.087685100E1,-3.093124866E0,1.048698545E0,7.175921202E-1
1.089685100E1,-3.644247353E-1,-1.999100149E-1,2.760587335E-1
1.091685100E1,1.228711843E0,-2.226848125E0,-4.719370231E-2
1.093685100E1,8.775690198E-1,-1.457786202E0,4.961971045E-1
1.095685413E1,2.851693332E-1,-3.527659476E-1,7.830244899E-1
1.097885100E1,-1.763358474E0,1.398357749E-1,3.606722951E-1
1.099885569E1,-2.356334209E0,2.886914253E0,-1.191361770E-1
1.102085256E1,-4.409399927E-1,4.344438553E0,-6.914994121E-2
1.104285256E1,8.012806624E-2,2.370383978E0,-2.433512509E-1
1.106485100E1,-9.228951931E-1,3.209067106E0,6.632251292E-2
1.108485100E1,-2.440267086E0,2.962399721E0,8.260119557E-1
1.110485100E1,-3.359758854E0,1.988907337E0,1.421343803E0
1.112485100E1,-3.522493362E0,7.942993641E-1,1.496445298E0
1.114485256E1,-3.054029465E0,-3.197443187E-1,1.196824670E0
1.116685100E1,-2.281110525E0,-9.818349481E-1,7.619758248E-1
1.118685256E1,-1.681502581E0,-3.513347805E-1,5.057440400E-1
1.120885256E1,-1.121705651E0,5.980370641E-1,4.845906794E-1
1.122885256E1,-9.981712699E-1,6.348111629E-1,3.722961843E-1
1.125085100E1,-1.598878622E0,-1.098475337E0,3.447374403E-1
1.127085100E1,-2.482277155E0,-5.108072758E0,5.749288797E-1
1.129085100E1,-1.842544079E0,-4.240085602E0,2.267531753E-1
1.131085100E1,-1.054126501E0,-5.389401913E-1,1.216843575E-1
1.133085100E1,-6.423160434E-1,1.656718850E0,4.101349115E-1
1.135085256E1,-8.030608892E-1,1.502100110E0,2.832843959E-1
1.137085256E1,-1.326066256E0,1.153470635E0,1.947962046E-1
1.139085256E1,-1.339540243E0,1.557479501E0,1.997354776E-1
1.141085256E1,-1.051386356E0,1.290129900E0,1.944994926E-1
1.143285100E1,-7.417125702E-1,-5.557826161E-1,2.588323355E-1
1.145285100E1,-5.904448628E-1,-6.033777595E-1,4.187568426E-1
1.147285256E1,-1.702045053E-1,3.202504516E-1,3.547032773E-1
1.149485100E1,7.348883152E-1,2.523047924E-1,9.320057929E-3
1.151485100E1,1.849455595E0,-4.743804932E-1,-1.462062299E-1
1.153485100E1,3.288688898E0,-1.602404237E0,-7.002435327E-1
1.155485100E1,4.203346252E0,-1.021035075E0,-1.144517064E0
1.157485412E1,3.986593723E0,1.383697033E0,-6.211626530E-1
1.159685100E1,3.016278028E0,3.667599916E0,-2.806489356E-2
1.161685100E1,2.715296030E0,5.074230671E0,1.185602173E-1
1.163685100E1,4.017049789E0,2.075231314E0,-5.017472506E-1
1.165685100E1,3.888436556E0,-7.406828403E-1,-1.152702689E0
1.167685100E1,3.205803394E0,-1.610188365E0,-1.161394477E0
1.169685100E1,3.235613585E0,-1.804792643E0,-9.212371111E-1
1.171685100E1,3.499158144E0,-1.912950635E0,-7.445749044E-1
1.173685100E1,3.186395168E0,-2.162864447E0,-5.847725868E-1
1.175685100E1,2.079140902E0,-2.389617443E0,-1.237263903E-1
1.177685100E1,7.586597204E-1,-2.966815472E0,3.309144378E-1
1.179685100E1,2.602286041E-1,-3.394595623E0,2.953795195E-1
1.181685100E1,2.034704834E-1,-3.198961496E0,1.889493465E-1
1.183685100E1,3.762929887E-2,-2.250706673E0,2.276258469E-1
1.185685100E1,-4.381649196E-1,-1.188586712E0,4.441339374E-1
1.187685100E1,-1.459287286E0,-1.453859210E-1,7.011860013E-1
1.189685100E1,-3.486015797E0,1.819750071E0,9.272585511E-1
1.191685100E1,-1.359402061E0,8.864701986E-1,-1.416858286E-1
1.193685100E1,1.020371795E0,-1.731418967E0,-4.399975017E-2
1.195685256E1,1.358250141E0,-2.334273100E0,7.202973962E-1
1.197886194E1,7.668278813E-1,-9.111840129E-1,8.444426656E-1
1.200085256E1,-1.072225571E0,-1.478642970E-1,4.271344244E-1
1.202085256E1,-2.299052477E0,2.090764761E0,-4.572937191E-1
1.204285256E1,1.230108067E-1,3.871227503E0,-5.014854670E-1
1.206485100E1,2.595304549E-1,1.973600864E0,-2.443286479E-1
1.208485100E1,-1.423071623E0,2.346507788E0,2.949606394E-3
1.210485256E1,-3.066718102E0,1.988139391E0,8.384561539E-2
1.212685100E1,-4.210292816E0,2.727321386E0,7.121641636E-1
1.214685100E1,-4.418283463E0,2.862252712E0,1.630748391E0
1.216685100E1,-3.711687088E0,2.540047407E0,1.611043572E0
1.218686350E1,-2.808077574E0,1.945832610E0,1.233878016E0
1.220885256E1,-2.069768429E0,9.769306183E-1,8.764694333E-1
1.223085256E1,-1.311754584E0,1.116836220E-1,4.160166681E-1
1.225285100E1,-1.077828050E0,-1.000248194E0,2.709798217E-1
1.227285256E1,-1.623278379E0,-2.310571671E0,6.651100516E-1
1.229485100E1,-1.937123418E0,-9.192299843E-1,7.362671494E-1
1.231485100E1,-1.523724794E0,1.184554935E0,4.315326512E-1
1.233485100E1,-1.311876774E0,2.380733728E0,3.807261288E-1
1.235485256E1,-1.428639293E0,1.872650981E0,3.823492825E-1
1.237685100E1,-1.792906880E0,-1.563989520E-1,1.718276590E-1
1.239685100E1,-1.502100110E0,-7.179935575E-1,3.118728697E-1
1.241685100E1,-5.189736485E-1,-1.066465974E0,1.040739864E-1
1.243685100E1,3.392919898E-2,-1.138111711E0,-1.249655709E-1
1.245685256E1,3.327819407E-1,8.015075326E-1,-1.027824357E-1
1.247885256E1,1.124253869E0,1.799923182E0,-1.410051435E-1
1.250085100E1,2.267165184E0,1.086956143E0,3.892084118E-3
1.252085256E1,3.896150827E0,-1.261785746E0,-3.054675162E-1
1.254285256E1,4.295900822E0,-1.001766682E0,-9.018639922E-1
1.256485100E1,3.062825918E0,1.405967474E0,-3.242298067E-1
1.258485100E1,2.574936628E0,3.615728855E0,-1.470789015E-1
1.260485100E1,2.489240885E0,4.816812038E0,-2.631433010E-1
1.262485100E1,3.789912701E0,1.195794821E0,-9.874723554E-1
1.264485100E1,3.868976116E0,-1.537477970E0,-1.429965734E0
1.266485100E1,3.703099966E0,-1.694662333E0,-1.222236633E0
1.268485100E1,3.936223507E0,-1.484594464E0,-1.055383086E0
1.270485100E1,3.814993143E0,-2.178328037E0,-1.147501588E0
1.272485100E1,2.905711412E0,-2.650107861E0,-1.059030890E0
1.274485100E1,2.046398640E0,-2.470286608E0,-4.460014403E-1
1.276485100E1,1.334443808E0,-2.845043659E0,-2.438573986E-1
1.278485100E1,8.267799020E-1,-3.341467857E0,-4.313406646E-1
1.280485100E1,2.599318922E-1,-2.541356564E0,-1.905375868E-1
1.282485100E1,-4.508360028E-1,-1.201990843E0,2.382025421E-1
1.284485100E1,-1.148880482E0,-2.078512609E-1,6.340606809E-1
1.286485100E1,-2.538354397E0,5.696056485E-1,1.085751891E0
1.288485100E1,-3.854001045E0,1.978051424E0,1.536814809E0
1.290485100E1,-1.697507262E0,5.803743601E-1,8.499753475E-1
1.292485100E1,4.715006948E-1,-1.503810644E0,1.345823407E-1
1.294485100E1,9.578366876E-1,-2.143997431E0,1.877625138E-1
1.296485100E1,2.701071501E-1,-1.225151300E0,3.140021861E-1
1.298485100E1,-7.941422462E-1,-7.955210656E-2,4.048814774E-1
1.300485100E1,-1.541247845E0,1.787443995E0,-2.768964767E-1
1.302485100E1,-5.260596871E-1,3.726382732E0,-3.928387165E-1
1.304485100E1,-9.512044489E-2,3.028565168E0,-3.597123548E-2
1.306485100E1,-6.411117911E-1,2.757271051E0,-1.207593307E-1
1.308485100E1,-2.071950197E0,1.805961967E0,-2.364921123E-1
1.310485100E1,-3.875852585E0,1.532573581E0,4.217588007E-1
1.312485100E1,-4.819744110E0,1.769257665E0,1.403907895E0
1.314485100E1,-4.064592361E0,1.771910667E0,1.559381843E0
1.316485100E1,-2.951055050E0,1.391830206E0,1.314058423E0
1.318485100E1,-2.111272335E0,6.453180313E-1,1.124061823E0
1.320485100E1,-1.426387787E0,-5.862560868E-2,7.670198679E-1
1.322485100E1,-9.941046238E-1,-4.338713884E-1,2.884331048E-1
1.324485100E1,-1.002848744E0,-9.525657892E-1,3.403741121E-1
1.326485100E1,-1.713826060E0,-3.086649656E0,7.987848520E-1
1.328485256E1,-2.184157372E0,-2.031510830E0,9.535431862E-1
1.330685100E1,-1.803221822E0,7.784342766E-1,5.981068611E-1
1.332685100E1,-1.305925131E0,2.173353672E0,5.888915658E-1
1.334685100E1,-1.297373056E0,1.963303447E0,5.487838984E-1
1.336685100E1,-1.409492970E0,5.219930410E-1,3.534640670E-1
1.338685100E1,-7.913671732E-1,-4.323878586E-1,8.025024086E-2
1.340685100E1,-1.252971888E-1,9.937904775E-2,4.782202188E-3
1.342685100E1,1.786344498E-1,7.371921539E-1,-6.492624991E-3
1.344685100E1,5.413138866E-1,1.028766870E0,-1.235518605E-1
1.346685100E1,1.238834739E0,5.735326409E-1,-3.054849803E-1
1.348685100E1,2.363699436E0,-3.492752910E-1,-2.495471686E-1
1.350685100E1,3.924809217E0,-1.791144133E0,-7.030884624E-1
1.352685100E1,4.041013241E0,-6.864554286E-1,-1.039273739E0
1.354685100E1,3.022072554E0,1.650261164E0,-5.190259814E-1
1.356685100E1,2.506833792E0,3.966156006E0,-2.755176723E-1
1.358685100E1,2.280412197E0,4.756179333E0,-1.458920687E-1
1.360685100E1,3.532145023E0,2.389355749E-2,-6.097656488E-1
1.362685100E1,3.225036860E0,-2.454072475E0,-9.730559587E-1
1.364685100E1,2.930582285E0,-2.608132839E0,-1.084879160E0
1.366685100E1,3.091763496E0,-2.279452324E0,-1.183612466E0
1.368685100E1,3.158801556E0,-2.367835760E0,-1.036865234E0
1.370885256E1,2.659969091E0,-2.406337738E0,-4.977678955E-1
1.373085100E1,2.007442713E0,-2.103121758E0,6.763150543E-2
1.375085100E1,1.315664053E0,-3.022124767E0,3.316125658E-4
1.377085100E1,8.153828979E-1,-3.241093874E0,-4.141666368E-2
1.379085100E1,1.610938907E-1,-2.701123953E0,2.881538570E-1
1.381085100E1,-6.856700182E-1,-1.937385321E0,8.258723617E-1
1.383085100E1,-2.116613150E0,-1.141916513E0,1.279413581E0
1.385085100E1,-3.916326761E0,5.048539639E-1,1.829977751E0
1.387085100E1,-3.535722971E0,3.276192427E0,1.647643209E0
1.389085100E1,-7.723954320E-1,2.405028820E0,-5.516985804E-2
1.391085100E1,1.370990992E0,-2.396755934E0,-2.286381274E-1
1.393085100E1,1.389002800E0,-3.291691065E0,-1.855284907E-2
1.395085100E1,5.108578876E-2,-9.528974295E-1,8.644615859E-2
1.397085100E1,-1.992293358E0,1.667609692E0,-4.239928424E-1
1.399085100E1,-1.622562766E0,4.282898426E0,-4.135557711E-1
1.401085100E1,-5.697103739E-1,3.749543190E0,1.861219108E-1
1.403085100E1,-5.822942257E-1,2.299593449E0,5.086587667E-1
1.405085100E1,-1.554599643E0,1.470980883E0,7.703010440E-1
1.407085100E1,-2.571812391E0,8.648804426E-1,1.350256562E0
1.409085569E1,-2.875622034E0,9.028588235E-2,1.443317533E0
1.411285100E1,-2.623823166E0,-8.856149912E-1,1.079643250E0
1.413285100E1,-2.133769751E0,-1.340639710E0,7.075215578E-1
1.415285100E1,-1.755277634E0,-6.048613191E-1,4.787612557E-1
1.417285256E1,-1.486357331E0,1.003564298E-1,4.868246913E-1
1.419485100E1,-1.555297852E0,3.519980013E-1,7.171558142E-1
1.421485256E1,-2.420649529E0,-1.815264583E0,8.897688389E-1
1.423685100E1,-2.474353313E0,-3.450498581E0,3.596076369E-1
1.425685100E1,-1.399370074E0,-1.860276580E0,1.078613475E-2
1.427685100E1,-9.621651173E-1,9.509775639E-1,1.715833247E-1
1.429685100E1,-1.190105081E0,2.012469292E0,2.883982062E-1
1.431685256E1,-1.461713195E0,1.119750857E0,4.181983471E-1
1.433885569E1,-1.165112019E0,-1.073063374E0,1.942027807E-1
1.436085100E1,-3.870267570E-1,-1.546431541E0,-1.512851417E-1
1.438085256E1,3.091850877E-1,-5.218185186E-1,-1.707804650E-1
1.440285256E1,1.281089067E0,6.825808287E-1,-1.763306111E-1
1.442485100E1,2.315493345E0,3.464303911E-1,-1.822821796E-1
1.444485100E1,3.488913059E0,-1.381148815E0,-5.395161510E-1
1.446485100E1,3.865991592E0,-1.202374816E0,-1.082662582E0
1.448485100E1,3.469452858E0,4.533841908E-1,-1.045871139E0
1.450485100E1,3.083071709E0,3.075636625E0,-9.096655846E-1
1.452485100E1,3.144873857E0,4.742757797E0,-6.469586492E-1
1.454485100E1,4.031326771E0,2.095651627E0,-7.957305312E-1
1.456485100E1,3.507466078E0,-4.934918582E-1,-1.011435747E0
1.458485100E1,2.874400139E0,-1.879405379E0,-1.127919078E0
1.460485100E1,3.155799627E0,-2.613438606E0,-1.029028654E0
1.462485100E1,3.713432312E0,-2.922117472E0,-9.876643419E-1
1.464485100E1,3.261199951E0,-2.654139519E0,-1.022204399E0
1.466485100E1,2.073224306E0,-1.692515612E0,-4.873308241E-1
1.468485100E1,1.008538485E0,-1.577044606E0,5.309291556E-2
1.470485100E1,5.179439187E-1,-2.833088160E0,-7.998844236E-2
1.472485100E1,2.304707319E-1,-2.629670143E0,-7.881906629E-2
1.474485100E1,-3.016278148E-1,-1.657172680E0,3.012089133E-1
1.476485100E1,-1.072365165E0,-7.003657222E-1,6.905744076E-1
1.478485100E1,-2.234597445E0,6.675884128E-2,1.085071206E0
1.480485100E1,-3.571921110E0,1.889842510E0,1.551335931E0
1.482485100E1,-1.720824838E0,1.727282524E0,7.896044254E-1
1.484485100E1,9.418494701E-1,-1.377239347E0,-6.810274720E-2
1.486489475E1,1.292608261E0,-2.423738718E0,4.360181391E-1
1.488685100E1,1.180366203E-1,-1.224453211E0,6.672568321E-1
1.490685100E1,-8.758934736E-1,-5.858721137E-1,7.174524665E-1
1.492685100E1,-1.818336368E0,1.132980466E0,1.958259344E-1
1.494685100E1,-6.788632870E-1,3.339286089E0,-3.237411082E-1
1.496685100E1,1.074686527E0,2.260340929E0,-1.366069168E-1
1.498685100E1,-2.661627159E-2,2.196234941E0,5.860815570E-2
1.500685100E1,-1.478974581E0,2.135445356E0,-1.354375482E-1
1.502685100E1,-2.677526951E0,2.250025988E0,-2.354274690E-1
1.504685100E1,-4.092360973E0,2.632916451E0,5.270545483E-1
1.506685100E1,-4.564402580E0,2.391711950E0,1.344584227E0
1.508685100E1,-3.764395952E0,2.101655722E0,1.388252378E0
1.510685100E1,-2.795738220E0,1.376750588E0,1.218379498E0
1.512685100E1,-2.054461956E0,5.132315159E-1,9.603674412E-1
1.514685100E1,-1.302766085E0,-3.903603256E-1,5.041732788E-1
1.516685100E1,-9.542762041E-1,-1.033915639E0,2.477843910E-1
1.518685256E1,-1.261332035E0,-2.383753300E0,4.801749885E-1
1.520885881E1,-1.835353374E0,-2.537551641E0,8.687027097E-1
1.523085256E1,-1.468711972E0,-6.935414672E-1,6.110746861E-1
1.525285100E1,-1.168026686E0,1.584724069E0,4.778536856E-1
1.527285100E1,-1.529466867E0,2.442466021E0,5.071054101E-1
1.529285100E1,-1.818772674E0,2.218662500E0,5.002986193E-1
1.531285100E1,-1.516568899E0,6.389126778E-1,3.333579004E-1
1.533285256E1,-7.525685430E-1,-9.903870821E-1,1.122944802E-1
1.535485100E1,-2.765474319E-1,-8.251742125E-1,6.178465672E-3
1.537485100E1,2.827433404E-3,9.211673141E-1,1.373050511E-1
1.539485100E1,4.342204630E-1,1.515155196E0,1.744107455E-1
1.541485100E1,1.418114901E0,3.804992437E-1,-4.330161959E-2
1.543485256E1,2.723865509E0,-1.310445547E0,-2.770361006E-1
1.545685256E1,4.542812824E0,-1.961348653E0,-9.287595153E-1
1.547885100E1,3.849044323E0,1.899965405E-1,-8.082619905E-1
1.549885413E1,2.788686991E0,2.289592743E0,-3.554537594E-1
1.551885881E1,2.547552347E0,3.979909182E0,-3.064449131E-1
1.554085100E1,2.440389156E0,4.403849602E0,-4.119151533E-1
1.556085100E1,3.484096050E0,-9.704728723E-1,-9.260717034E-1
1.558085100E1,3.248162508E0,-3.400547028E0,-1.028068781E0
1.560085100E1,3.321832895E0,-3.059247971E0,-1.310113907E0
1.562085100E1,3.647354126E0,-2.399723053E0,-1.275957823E0
1.564085100E1,3.546718359E0,-2.527725458E0,-1.077461600E0
1.566085100E1,2.996643066E0,-2.476028681E0,-8.436572552E-1
1.568085100E1,2.006168604E0,-2.696969986E0,-4.875751734E-1
1.570085100E1,1.228362679E0,-2.814326048E0,-2.125287354E-1
1.572085100E1,7.313452959E-1,-3.148783445E0,-2.791130543E-1
1.574085100E1,3.470238149E-1,-2.803313017E0,-9.082693607E-2
1.576085100E1,-2.870717645E-1,-1.696529865E0,4.438023269E-1
1.578085100E1,-1.311213493E0,-7.951371074E-1,1.027911663E0
1.580085256E1,-2.886687279E0,4.982915148E-2,1.672252297E0
1.582285100E1,-3.337645531E0,1.159526944E0,1.898272395E0
1.584285100E1,-1.523061514E0,2.036450148E0,6.908187866E-1
1.586289319E1,1.093728065E0,-8.855800629E-1,-4.607494771E-1
1.588485100E1,7.476292253E-1,-2.003620625E0,7.063696384E-1
1.590485100E1,1.263094842E-1,-1.523497939E0,6.311459541E-1
1.592485100E1,-5.915967822E-1,-8.548098803E-1,3.673394322E-1
1.594485100E1,-1.959603310E0,1.546972632E0,-5.043652654E-1
1.596485100E1,-3.425033987E-1,4.148368359E0,-7.146250606E-1
1.598486038E1,8.984605670E-1,2.649654150E0,-2.207143307E-1
1.600685100E1,-7.004006505E-1,1.736288428E0,1.855459511E-1
1.602685100E1,-2.522210121E0,1.493094206E0,1.084547564E-1
1.604685100E1,-3.740607023E0,2.206026316E0,5.064247251E-1
1.606685100E1,-4.294330120E0,2.422831059E0,1.416090369E0
1.608685256E1,-3.826843739E0,2.042436600E0,1.671170235E0
1.610885256E1,-3.040398359E0,1.096433282E0,1.409876943E0
1.612885256E1,-2.297149897E0,5.161462426E-1,1.073394895E0
1.614885881E1,-1.459479213E0,4.670501128E-2,4.788485467E-1
1.616887600E1,-8.820195794E-1,-4.654094875E-1,2.323033214E-1
1.619085256E1,-1.047040462E0,-4.653920531E-1,5.825385451E-1
1.621285100E1,-2.285264254E0,-2.891609192E0,1.181308627E0
1.623285100E1,-2.187648058E0,-1.542766333E0,7.689571381E-1
1.625285100E1,-1.643419504E0,1.242587209E0,3.610737026E-1
1.627285100E1,-1.562558413E0,2.450651646E0,5.197415948E-1
1.629285100E1,-1.728451967E0,1.964978933E0,4.633499980E-1
1.631285100E1,-1.610886574E0,-5.546656251E-1,1.198866665E-1
1.633285256E1,-6.517931819E-1,-1.901012659E0,-1.530653685E-1
1.635485100E1,1.916895062E-1,-1.186876297E0,-2.676636875E-1
1.637485100E1,8.011759520E-1,8.435001969E-1,-7.023204863E-2
1.639485100E1,1.564670205E0,1.416945577E0,-2.512401342E-1
1.641485100E1,2.595287085E0,2.228261828E-1,-4.868944883E-1
1.643485256E1,3.975545883E0,-1.650697470E0,-8.212472200E-1
1.645685100E1,4.316268921E0,-6.886720061E-1,-1.029203176E0
1.647685100E1,3.559162617E0,1.229584455E0,-2.803347707E-1
1.649685100E1,2.949955463E0,2.899777174E0,-1.764353365E-1
1.651685100E1,2.639897823E0,3.908525229E0,-2.589893937E-1
1.653685100E1,3.210498333E0,2.252015829E0,-1.871691048E-1
1.655685100E1,3.498582363E0,-2.129354000E0,-3.492229283E-1
1.657685412E1,3.226153851E0,-3.693186522E0,-7.155849934E-1
1.659885100E1,3.208456278E0,-3.695839405E0,-1.022466183E0
1.661885256E1,3.216990948E0,-2.337152958E0,-8.378103971E-1
1.663885256E1,2.728700161E0,-2.300396204E0,-2.817136049E-1
1.665885412E1,2.240391970E0,-3.000849247E0,6.803293526E-2
1.668085100E1,1.584182978E0,-3.169186354E0,-2.103470862E-1
1.670085256E1,8.182976246E-1,-3.147736311E0,-5.220977664E-1
1.672285100E1,1.520530879E-1,-2.954510689E0,-2.882934809E-1
1.674285100E1,-4.625296891E-1,-2.714091778E0,2.162637413E-1
1.676285100E1,-1.493251324E0,-1.692533016E0,6.926513910E-1
1.678285100E1,-3.233152628E0,-6.007423252E-2,1.433316708E0
1.680285256E1,-3.858556509E0,2.541600704E0,1.650191307E0
1.682485100E1,-9.539620876E-1,2.549943447E0,2.021440268E-1
1.684485100E1,1.239148855E0,-2.554184675E0,-3.847927451E-1
1.686485100E1,1.429442048E0,-3.258651972E0,2.880142331E-1
1.688485100E1,7.632848620E-1,-1.635984421E0,-1.320167035E-1
1.690485100E1,-1.405897617E0,1.933528066E0,-4.474849701E-1
1.692485100E1,-7.714354992E-1,5.297685146E0,-3.952647150E-1
1.694485100E1,9.021955729E-1,2.889846325E0,-1.258556992E-1
1.696485100E1,1.715309620E-1,1.284213305E0,-6.551966071E-2
1.698485100E1,-1.625529885E0,1.261279583E0,5.957157612E-1
1.700485100E1,-3.061674118E0,1.127674699E0,1.466966629E0
1.702485100E1,-3.500781298E0,3.144559562E-1,1.864692330E0
1.704485100E1,-3.365605593E0,-3.550697863E-1,1.581460238E0
1.706485100E1,-2.804028511E0,-9.722880125E-1,1.019603848E0
1.708485100E1,-2.190929174E0,-1.100674391E0,6.112317443E-1
1.710485100E1,-1.756621480E0,-8.730136603E-2,5.086413026E-1
1.712485100E1,-1.488992691E0,5.492376685E-1,5.923298597E-1
1.714485256E1,-1.443718910E0,4.268377125E-1,6.002012491E-1
1.716685100E1,-1.801755786E0,-5.548401475E-1,5.989271998E-1
1.718685100E1,-2.589405298E0,-3.736470699E0,6.330483556E-1
1.720685100E1,-2.661504984E0,-3.294797659E0,1.868549436E-1
1.722685100E1,-1.807445526E0,-1.502012849E0,3.019070625E-1
1.724685100E1,-1.023618102E0,-2.553940415E-1,5.213996768E-1
1.726685100E1,-4.622504413E-1,-5.816833377E-1,3.203900754E-1
1.728685100E1,1.162912846E-1,-8.108276129E-1,-2.147453129E-1
1.730685100E1,5.010840297E-1,-2.309943289E-1,-6.007248759E-1
1.732685100E1,1.123346210E0,1.889144331E-1,-5.747892857E-1
1.734685100E1,1.979831696E0,-2.897246554E-2,-5.391671062E-1
1.736685100E1,2.872340679E0,-7.250272036E-1,-4.621631801E-1
1.738685100E1,3.593405962E0,-7.860090137E-1,-1.074634075E0
1.740685100E1,3.919887304E0,-2.726728022E-1,-1.454121113E0
1.742685256E1,3.365134478E0,1.909634590E0,-1.304808140E0
1.744885100E1,2.882358789E0,4.511885643E0,-8.882678747E-1
1.746885100E1,3.379411221E0,3.285442591E0,-6.864205599E-1
1.748885100E1,3.279037237E0,-1.263112187E0,-9.497034550E-1
1.750885100E1,2.984792233E0,-3.395346165E0,-1.106870413E0
1.752885100E1,3.523261309E0,-4.615104198E0,-1.064546108E0
1.754885100E1,4.406397820E0,-4.527104855E0,-1.111425638E0
1.756885100E1,4.620916367E0,-3.250920057E0,-7.239974737E-1
1.758885100E1,3.324799776E0,-2.073800325E0,-1.437453181E-1
1.760885100E1,1.910158157E0,-2.231002092E0,-4.143411666E-2
1.762885100E1,1.221241832E0,-2.803958654E0,-3.234095126E-2
1.764885100E1,6.570117474E-1,-2.249327898E0,5.544910952E-2
1.766885100E1,3.141592722E-3,-1.046761274E0,3.776718080E-1
1.768885100E1,-8.784416914E-1,9.705775976E-2,7.276102901E-1
1.770885256E1,-1.986900210E0,5.819276571E-1,9.916785955E-1
1.773085256E1,-2.897264004E0,5.852612853E-1,1.584095716E0
1.775285100E1,-2.707703829E0,7.408922911E-2,1.515434504E0
1.777285100E1,-1.520862460E0,3.368136287E-1,7.903374434E-1
1.779285100E1,-3.836059272E-1,-3.632728159E-1,4.396484494E-1
1.781285100E1,-2.750289738E-1,-8.432558179E-1,8.485267162E-1
1.783285256E1,-5.972691178E-1,-6.376560330E-1,9.265080094E-1
1.785485100E1,-9.965481162E-1,-2.483429015E-1,3.524692357E-1
1.787485256E1,-3.406009972E-1,1.195637822E0,-6.828426123E-1
1.789685100E1,1.099993706E0,1.186963558E0,-1.750914305E-1
1.791685100E1,-1.631882787E-1,2.155202389E0,3.410722315E-1
1.793685100E1,-1.579121590E0,2.084254742E0,-9.578366578E-2
1.795685100E1,-2.632340431E0,1.664520502E0,-8.201127648E-1
1.797685100E1,-3.699103117E0,2.679289818E0,-3.955614269E-1
1.799685100E1,-4.320074081E0,3.458509445E0,9.638580680E-1
1.801685100E1,-3.624001741E0,3.391785622E0,1.597115874E0
1.803685100E1,-2.540867805E0,2.818060875E0,1.412006259E0
1.805685100E1,-1.821338296E0,1.598006010E0,1.083360791E0
1.807685100E1,-1.252518058E0,-1.014036313E-1,6.258227229E-1
1.809685100E1,-9.574352503E-1,-2.846160650E0,8.126252890E-2
1.811685100E1,-1.086310387E0,-4.090336323E0,-2.432988957E-2
1.813685100E1,-1.319765568E0,-3.829304695E0,3.467794657E-1
1.815685100E1,-1.479149103E0,-2.730672359E0,8.157843351E-1
1.817685100E1,-1.318264604E0,-1.429093003E0,9.455844760E-1
1.819685100E1,-1.027388096E0,1.418254524E-1,7.153580785E-1
1.821685100E1,-1.108161926E0,1.697088361E0,5.707924962E-1
1.823685100E1,-1.411133647E0,2.583366632E0,4.303981960E-1
1.825685256E1,-1.779188633E0,2.363315344E0,3.904301524E-1
1.827885256E1,-1.771090269E0,3.738844395E-1,4.381474555E-1
1.830085256E1,-7.605621219E-1,-1.669896126E0,7.332128286E-2
1.832085256E1,1.249655709E-2,-1.227594733E0,-4.609414563E-2
1.834285256E1,1.877625138E-1,6.607292891E-1,7.705628872E-2
1.836485256E1,6.403089166E-1,1.200367689E0,-8.972737938E-2
1.838686038E1,1.639091015E0,4.878893495E-1,-9.651670605E-2
1.840886506E1,2.897595644E0,-9.928829074E-1,-1.620363742E-1
1.843085100E1,4.140776157E0,-1.955990434E0,-6.439741254E-1
1.845085256E1,3.662154436E0,-2.809456587E-1,-6.559296250E-1
1.847285256E1,2.819649220E0,2.298406601E0,-3.955614269E-1
1.849285256E1,2.562073469E0,4.105381012E0,-4.845557511E-1
1.851485100E1,3.388870955E0,2.211733580E0,-1.117412090E0
1.853485100E1,3.575499058E0,-1.332122564E0,-1.266882181E0
1.855485100E1,3.352707624E0,-2.061373472E0,-9.047088623E-1
1.857485256E1,3.266837358E0,-2.141868114E0,-9.145525098E-1
1.859685100E1,3.444965839E0,-2.208208084E0,-8.829445839E-1
1.861685100E1,3.168540478E0,-2.268212318E0,-7.614347935E-1
1.863685100E1,2.444124222E0,-1.795402765E0,-2.532298267E-1
1.865685100E1,1.579488039E0,-1.691311359E0,2.338217646E-1
1.867685256E1,9.541714787E-1,-2.834117889E0,1.246688664E-1
1.869685256E1,6.476742029E-1,-2.928924322E0,1.313709319E-1
1.871885256E1,-7.401940972E-2,-2.064741850E0,4.757592976E-1
1.873885569E1,-1.042188406E0,-1.208186746E0,9.156171679E-1
1.875885569E1,-2.050674677E0,-2.889218032E-1,1.245589137E0
1.878085100E1,-3.143442631E0,8.530820012E-1,1.621620297E0
1.880085256E1,-2.590766668E0,2.027339458E0,1.257230520E0
1.882085256E1,2.596700788E-1,1.209390998E0,-2.434385270E-1
1.884285256E1,1.835283518E0,-2.884261370E0,3.012438305E-2
1.886485100E1,6.268699169E-1,-2.789734364E0,6.820746660E-1
1.888485100E1,-3.919660449E-1,-1.578388453E0,6.946410537E-1
1.890485100E1,-1.343345046E0,-1.043130875E0,5.078908205E-1
1.892485100E1,-1.418010235E0,2.029625893E0,-2.780134976E-1
1.894485100E1,4.992863238E-1,3.774012804E0,-4.095240533E-1
1.896485100E1,2.338392138E-1,2.619686842E0,6.665761471E-1
1.898485100E1,-1.443945765E0,2.849773645E0,5.959601402E-1
1.900485100E1,-2.567187309E0,2.809613466E0,-6.393141299E-2
1.902485100E1,-3.446798325E0,2.756642818E0,-7.160212994E-1
1.904485100E1,-4.310195446E0,3.136304379E0,-3.269176185E-1
1.906485100E1,-4.134353161E0,3.094329119E0,8.404982090E-1
1.908485100E1,-3.243484974E0,1.971995115E0,1.437854648E0
1.910485100E1,-2.328635693E0,6.302209496E-1,1.164169550E0
1.912485100E1,-1.419912577E0,-3.395014405E-1,6.419495344E-1
1.914485256E1,-8.761378527E-1,-1.301841140E0,1.616174877E-1
1.916685100E1,-1.040670037E0,-2.694596291E0,5.880014226E-2
1.918685100E1,-1.454225779E0,-3.149865389E0,5.364094973E-1
1.920685100E1,-1.238014340E0,-1.122805238E0,7.349407077E-1
1.922685100E1,-1.073778868E0,1.348458886E0,6.169564128E-1
1.924685256E1,-1.226512671E0,2.689726830E0,6.542366743E-1
1.926885100E1,-1.594532847E0,2.801515341E0,6.085264683E-1
1.928885256E1,-2.025088072E0,1.326729536E0,5.212949514E-1
1.930885256E1,-1.482796788E0,-8.816705346E-1,2.864085436E-1
1.933085100E1,-4.724606127E-2,-2.041162491E0,-2.571044564E-1
1.935085100E1,5.874429345E-1,-1.011906981E0,-3.335149586E-1
1.937085100E1,6.454925537E-1,1.627187967E0,-3.771656379E-2
1.939085100E1,1.050304174E0,2.289069176E0,1.570272744E-1
1.941085100E1,2.144451141E0,3.753854036E-1,5.820672959E-2
1.943085100E1,4.149502754E0,-2.020550251E0,-5.291664004E-1
1.945085100E1,4.317211628E0,-1.295575380E0,-8.967676163E-1
1.947085256E1,3.074676752E0,6.579367518E-1,-4.079008996E-1
1.949085256E1,2.727897167E0,2.397628546E0,-5.878268927E-2
1.951285100E1,2.702188492E0,3.591154575E0,-1.452986598E-1
1.953285256E1,3.562182188E0,1.299450040E0,-9.079377055E-1
1.955285256E1,3.584853888E0,-2.295090437E0,-1.444451928E0
1.957485256E1,3.080261707E0,-2.686637640E0,-1.343310118E0
1.959685100E1,3.451894760E0,-2.476622105E0,-9.612051845E-1
1.961685100E1,3.697549820E0,-2.363821507E0,-7.468264103E-1
1.963685100E1,3.299091101E0,-2.317884445E0,-7.013081908E-1
1.965685100E1,2.404644728E0,-2.308599472E0,-4.111995697E-1
1.967685256E1,1.064301729E0,-2.640613317E0,-1.909564734E-1
1.969887912E1,3.961199224E-1,-2.921506643E0,-1.483355314E-1
1.972085100E1,-1.432740837E-1,-2.334761858E0,4.651302472E-2
1.974085100E1,-8.663988709E-1,-1.488242269E0,4.580965638E-1
1.976085100E1,-1.630556345E0,-5.681744814E-1,9.985203147E-1
1.978085100E1,-3.187163115E0,8.060454130E-1,1.523183703E0
1.980085100E1,-3.824452639E0,3.383146286E0,1.964507699E0
1.982085100E1,-7.129146457E-1,2.723603725E0,6.697526574E-1
1.984085100E1,1.901309371E0,-1.870818377E0,-2.228087336E-1
1.986085100E1,1.878131390E0,-3.406289339E0,6.409372687E-1
1.988085100E1,7.140316367E-1,-1.958276868E0,7.731808424E-1
1.990085100E1,-9.141336679E-1,-1.644169927E0,6.463652253E-1
1.992085100E1,-2.622165203E0,4.037295580E-1,2.703515068E-2
1.994085100E1,-2.358358622E0,3.409465790E0,-4.502251446E-1
1.996085100E1,8.185594529E-2,4.795030117E0,-2.280970812E-1
1.998085100E1,-1.496619880E-1,2.809665918E0,2.531425655E-1
2.000085100E1,-1.820395827E0,3.466206312E0,1.443387289E-2
2.002085100E1,-3.256417751E0,3.232262611E0,-1.457175314E-1
2.004085100E1,-4.494851112E0,2.756223917E0,2.224945724E-1
2.006085100E1,-4.353636742E0,2.253150225E0,1.028121114E0
2.008085100E1,-3.218509197E0,1.762730122E0,1.350186706E0
2.010085100E1,-2.580067873E0,7.715576887E-1,1.355370283E0
2.012085100E1,-1.962675095E0,3.221354187E-1,9.593551159E-1
2.014085100E1,-1.133504033E0,8.567821234E-2,3.545985520E-1
2.016085256E1,-8.222594857E-1,2.673320770E-1,1.933475733E-1
2.018285100E1,-9.047786593E-1,7.027742863E-1,6.107605100E-1
2.020285256E1,-1.813589096E0,-1.683422446E0,9.658128619E-1
2.022485100E1,-1.648498416E0,-2.419986248E0,4.562465250E-1
2.024485256E1,-1.397781849E0,4.140444696E-1,1.260302216E-1
2.026685100E1,-1.564914584E0,2.426653385E0,3.981445134E-1
2.028885100E1,-1.490336657E0,2.819561958E0,5.466720462E-1
2.030885100E1,-1.293411136E0,7.225837708E-1,3.351555765E-1
2.032885100E1,-5.226563215E-1,-1.210298538E0,-8.377579972E-3
2.034885100E1,4.642401338E-1,-7.930950522E-1,-9.189158678E-2
2.036885100E1,6.260670424E-1,1.239445567E0,1.012465507E-1
2.038885100E1,1.158828855E0,1.845458746E0,2.387086749E-1
2.040885100E1,2.357224226E0,-1.759291887E-1,7.721336931E-2
2.042885256E1,4.196609497E0,-1.567375422E0,-4.721290171E-1
2.044885256E1,4.306931496E0,-6.584952474E-1,-7.810348272E-1
2.047085100E1,3.145624399E0,1.182390809E0,-4.149171114E-1
2.049085100E1,2.842896938E0,2.691716671E0,-6.246533245E-2
2.051085100E1,2.678748846E0,3.519351721E0,-1.875530779E-1
2.053085100E1,3.530748606E0,5.507211685E-1,-9.400343299E-1
2.055085100E1,3.414754152E0,-2.588550091E0,-1.315367341E0
2.057085100E1,3.308184385E0,-2.385289192E0,-1.146925688E0
2.059085100E1,3.578378677E0,-2.096594095E0,-8.499229550E-1
2.061085100E1,3.606670618E0,-2.042489052E0,-6.311634183E-1
2.063085100E1,3.078341961E0,-2.222955942E0,-7.093192339E-1
2.065085256E1,2.114064932E0,-2.956273556E0,-4.942772388E-1
2.067085256E1,1.262640953E0,-2.625045061E0,-3.741985932E-2
2.069285256E1,3.921056688E-1,-2.881992340E0,-3.274237737E-2
2.071485100E1,-1.812524348E-1,-2.640403986E0,1.601688713E-1
2.073485100E1,-8.477936983E-1,-1.794983864E0,5.256233811E-1
2.075485100E1,-1.537582755E0,-8.411963582E-1,9.712233543E-1
2.077485100E1,-2.079856396E0,3.821572959E-1,1.409475565E0
2.079485100E1,-3.601574183E0,3.526088715E0,1.450665355E0
2.081485100E1,-9.365436435E-1,3.157667160E0,2.041162550E-1
2.083485100E1,1.869090557E0,-2.325982809E0,-5.120272636E-1
2.085485100E1,1.976410866E0,-4.104403496E0,4.511327147E-1
2.087485100E1,5.641427636E-1,-2.375829458E0,6.812369227E-1
2.089485100E1,-1.116731405E0,-1.394273758E0,5.976181626E-1
2.091485100E1,-2.726186752E0,4.151614606E-1,-1.364847459E-2
2.093485100E1,-1.879265785E0,3.465420961E0,-2.765823305E-1
2.095485100E1,7.308565974E-1,3.764622927E0,7.538077235E-2
2.097485100E1,1.112123802E-1,2.200546026E0,5.153084397E-1
2.099485100E1,-1.586190104E0,2.682204485E0,5.703736097E-2
2.101485100E1,-3.382448196E0,1.376960039E0,-1.183682308E-1
2.103485100E1,-4.577858925E0,1.049937725E0,2.345722541E-2
2.105485100E1,-4.424741268E0,1.681188345E0,9.709790349E-1
2.107485100E1,-3.251775265E0,1.945361376E0,1.498138309E0
2.109485100E1,-2.273675203E0,1.721871972E0,1.507650256E0
2.111485100E1,-1.776046991E0,1.198779345E0,1.327253103E0
2.113485100E1,-1.400277615E0,3.795916438E-1,8.845852017E-1
2.115485256E1,-1.216093063E0,1.084547564E-1,5.324475765E-1
2.117685256E1,-1.407101870E0,-1.474157453E0,7.573507428E-1
2.119885100E1,-1.446249604E0,-1.352473140E0,7.878590822E-1
2.121885256E1,-1.101582050E0,5.511575341E-1,5.294979811E-1
2.123885881E1,-1.249149561E0,2.242434025E0,4.418649971E-1
2.125887288E1,-1.552819371E0,2.675345421E0,4.950800836E-1
2.127887756E1,-1.806991696E0,2.166302681E0,4.383394420E-1
2.130085100E1,-1.779345751E0,-5.867098570E-1,2.338741124E-1
2.132085100E1,-7.279419303E-1,-2.419078588E0,-3.483677283E-2
2.134085100E1,1.211782098E-1,-1.514771223E0,-3.235316873E-1
2.136085100E1,3.225368559E-1,9.125279188E-1,-1.187871099E-1
2.138085100E1,4.645019174E-1,2.006430387E0,1.494874507E-1
2.140085100E1,1.261681080E0,1.025660157E0,-1.565560326E-2
2.142085100E1,2.566646338E0,-1.129594564E0,-1.658760905E-1
2.144085100E1,4.242214680E0,-2.551496744E0,-7.354119420E-1
2.146085100E1,3.952507496E0,-5.864131451E-1,-1.008747935E0
2.148085100E1,3.015387774E0,1.881552219E0,-4.516912103E-1
2.150085100E1,2.835304737E0,3.639569998E0,-8.798204362E-2
2.152085100E1,2.754932404E0,4.379781723E0,-6.787585467E-2
2.154085100E1,3.666186333E0,1.506341338E0,-7.931299806E-1
2.156085100E1,3.601504326E0,-2.818968534E0,-1.275608778E0
2.158085100E1,3.141924143E0,-3.440619946E0,-1.162860513E0
2.160085256E1,3.345063210E0,-3.244776487E0,-8.179834485E-1
2.162285100E1,3.409186602E0,-2.783346415E0,-5.425181389E-1
2.164285100E1,2.874644518E0,-3.438874483E0,-5.588544160E-2
2.166285100E1,2.157034874E0,-3.301290274E0,2.270847857E-1
2.168285100E1,1.103048086E0,-3.386881113E0,-2.907020450E-1
2.170285412E1,3.542843759E-1,-3.311482906E0,-4.449193180E-1
2.172285569E1,-2.986781895E-1,-2.836037874E0,-3.333579004E-2
2.174485100E1,-1.106957674E0,-1.910489798E0,6.375164390E-1
2.176485100E1,-2.020829439E0,-5.888915658E-1,1.118721128E0
2.178485100E1,-4.253646851E0,2.812807560E0,1.474436641E0
2.180485100E1,-2.748579502E0,4.596952915E0,9.681864977E-1
2.182485100E1,1.328963518E0,-2.211855799E-1,-1.340744495E0
2.184485100E1,3.012769938E0,-3.836809635E0,-2.947337627E-1
2.186485256E1,1.538560033E0,-3.780435562E0,6.756343842E-1
2.188685100E1,-3.737098873E-1,-2.038579464E0,7.927110791E-1
2.190685100E1,-2.329979658E0,5.288347602E-2,1.951452643E-1
2.192685100E1,-2.073224306E0,3.096405983E0,-3.055198789E-1
2.194685100E1,-6.565579772E-1,4.342030048E0,-1.387536824E-1
2.196685100E1,-5.359033346E-1,3.760259390E0,3.634997308E-1
2.198685100E1,-1.349750400E0,3.138852358E0,9.026144743E-1
2.200685100E1,-2.342964888E0,2.577955961E0,8.887914419E-1
2.202685100E1,-3.286821604E0,1.576643229E0,1.226809382E0
2.204685100E1,-3.510782242E0,3.543367386E-1,1.454033852E0
2.206685100E1,-3.190880775E0,-6.531196833E-1,1.230387330E0
2.208685100E1,-2.508073092E0,-1.107568502E0,8.102865815E-1
2.210685100E1,-1.693911791E0,-8.182452321E-1,4.905771315E-1
2.212685100E1,-1.187382340E0,-1.656142920E-1,3.950029016E-1
2.214685100E1,-1.498574615E0,8.454374671E-1,7.954338193E-1
2.216685100E1,-2.114536285E0,1.325961590E0,1.251907229E0
2.218685256E1,-2.557657719E0,-1.156734467E0,8.947954178E-1
2.220885100E1,-1.822682261E0,-9.769654870E-1,2.546260953E-1
2.222885100E1,-1.421884775E0,1.290129900E0,2.263343036E-1
2.224885100E1,-1.502763391E0,2.221001387E0,3.332706094E-1
2.226885100E1,-1.660925150E0,8.445473909E-1,3.630110323E-1
2.228885725E1,-1.062957883E0,-6.411117911E-1,1.411273181E-1
2.231085256E1,-1.047197580E-1,-5.628861189E-1,-2.776818871E-1
2.233285256E1,2.791130543E-1,-1.110029370E-1,-1.576032341E-1
2.235285256E1,4.050909281E-1,9.004502892E-1,2.213426530E-1
2.237485100E1,9.866870046E-1,4.972268343E-1,-2.904227935E-2
2.239485100E1,2.151083469E0,-1.490738034E0,-1.512327790E-1
2.241485100E1,3.825744152E0,-2.875918627E0,-6.815859675E-1
2.243485100E1,4.069497108E0,-1.152336240E0,-1.283811808E0
2.245485100E1,3.351730347E0,1.273514390E0,-8.472875357E-1
2.247485100E1,2.987270594E0,3.673621416E0,-3.527659476E-1
2.249485100E1,3.005893230E0,4.599588394E0,-6.571164727E-2
2.251485100E1,3.702140093E0,1.474000335E0,-3.457322717E-1
2.253485100E1,3.180077076E0,-1.925325036E0,-7.227408290E-1
2.255485100E1,2.779524088E0,-3.334643602E0,-8.280714750E-1
2.257485100E1,2.989469767E0,-3.879482985E0,-8.428543806E-1
2.259485100E1,3.426447868E0,-3.315793991E0,-8.668177724E-1
2.261485100E1,3.095603228E0,-2.730742216E0,-5.526584983E-1
2.263485100E1,2.445485592E0,-2.049487829E0,2.596875429E-1
2.265485256E1,1.484228015E0,-2.186618328E0,3.592760265E-1
2.267685256E1,6.398551464E-1,-3.228160858E0,-6.190682948E-2
2.269885881E1,5.049237609E-2,-2.955156565E0,-1.005309634E-2
2.271885881E1,-6.241646409E-1,-2.160386086E0,5.324127078E-1
2.274085256E1,-1.680455327E0,-1.148007751E0,1.144901037E0
2.276285256E1,-3.258337736E0,1.613312483E0,1.420698047E0
2.278485100E1,-2.201872587E0,5.972778320E0,9.828647375E-1
2.280485100E1,1.417207360E0,1.364655495E0,-9.892700911E-1
2.282485100E1,2.504163504E0,-4.182123184E0,-2.275734842E-1
2.284485100E1,5.726076365E-1,-3.724759579E0,7.863057256E-1
2.286485100E1,-1.010109305E0,-2.079647064E0,6.966656446E-1
2.288485412E1,-2.388587713E0,-3.595378250E-2,-1.892285943E-1
2.290685100E1,-9.242914915E-1,4.043212414E0,-8.852135539E-1
2.292685100E1,1.371217966E0,3.067904949E0,-8.086110651E-2
2.294685100E1,-4.834561944E-1,2.515996933E0,9.505761266E-1
2.296685100E1,-2.577694178E0,1.875548244E0,4.560894370E-1
2.298685100E1,-3.575621128E0,1.988750339E0,-2.201209217E-1
2.300685100E1,-4.261343479E0,2.502191305E0,5.696754530E-2
2.302885881E1,-4.024641991E0,2.941350937E0,9.939126372E-1
2.305085100E1,-3.211650133E0,1.819435954E0,1.515923142E0
2.307085100E1,-2.727827549E0,1.037249207E0,1.287738800E0
2.309085100E1,-1.722744703E0,2.446253449E-1,7.713308334E-1
2.311085100E1,-9.835977554E-1,-5.352925062E-1,1.649685204E-1
2.313085100E1,-7.723081708E-1,-1.037388802E0,4.241149873E-3
2.315085100E1,-1.176334500E0,-2.306731939E0,4.234692454E-1
2.317085256E1,-1.486078024E0,-2.856126547E0,9.238551259E-1
2.319285256E1,-1.349785328E0,-3.577226698E-1,6.217560768E-1
2.321485100E1,-1.566014171E0,1.926878452E0,4.849222898E-1
2.323485100E1,-1.749029398E0,2.657542944E0,6.446897388E-1
2.325485256E1,-1.708083868E0,2.606422424E0,5.898863673E-1
2.327485256E1,-1.390818000E0,-7.218681574E-1,2.936865389E-1
2.329485256E1,-1.032711342E-1,-2.406006098E0,-1.434137076E-1
2.331685256E1,4.100825489E-1,2.240479141E-1,-1.091528907E-1
2.333885100E1,2.848202884E-1,2.175936937E0,3.885975480E-1
2.335885725E1,9.851336479E-1,9.447990656E-1,3.261147738E-1
2.338085256E1,2.967042208E0,-1.383539915E0,-1.263618376E-2
2.340285256E1,4.696960449E0,-1.463441133E0,-5.879141688E-1
2.342485100E1,3.595273495E0,1.066570759E0,-4.447971582E-1
2.344485100E1,2.928522825E0,2.747846365E0,1.055749655E-1
2.346485100E1,2.795633554E0,3.801344633E0,1.111600175E-1
2.348485100E1,3.023381472E0,3.202731609E0,-5.536533594E-1
2.350485100E1,4.158857822E0,-1.442183018E0,-1.555088401E0
2.352485100E1,3.901369333E0,-1.587446809E0,-9.351474047E-1
2.354485100E1,3.702052832E0,-1.991455555E0,-8.769057989E-1
2.356485100E1,3.696223259E0,-2.657071829E0,-8.986002207E-1
2.358485100E1,3.360491753E0,-3.628277779E0,-1.068822145E0
2.360485100E1,2.519086123E0,-3.461808205E0,-6.430839896E-1
2.362485100E1,1.554512382E0,-2.528859854E0,8.677776903E-2
2.364485100E1,7.235611677E-1,-3.457497120E0,6.838200241E-2
2.366485100E1,2.817310393E-1,-3.670741558E0,1.673596203E-1
2.368485100E1,-2.987829149E-1,-2.639024973E0,5.822942257E-1
2.370485100E1,-1.067268848E0,-1.195794821E0,1.212008953E0
2.372485412E1,-2.425850630E0,8.442332149E-1,1.890331149E0
2.374685100E1,-4.131159306E0,3.450812578E0,2.167157888E0
2.376685100E1,-1.635670185E0,3.242228270E0,7.966555357E-1
2.378685100E1,1.505835176E0,-1.857274652E0,-7.868642211E-1
2.380685100E1,2.229448557E0,-3.401838779E0,4.825137258E-1
2.382685100E1,8.799949884E-1,-2.921384335E0,7.313104272E-1
2.384689475E1,-9.955009222E-1,-6.638708711E-1,2.980149686E-1
2.386885100E1,-1.906632543E0,2.356002569E0,-1.132439375E0
2.388885100E1,-4.052130878E-1,5.112924576E0,-1.257370114E0
2.390885100E1,-5.364792943E-1,2.716465235E0,5.707226694E-2
2.392885100E1,-2.453199863E0,2.056940317E0,7.167369127E-1
2.394885100E1,-3.679328680E0,2.652551413E0,4.051432908E-1
2.396885256E1,-4.165332794E0,4.036126137E0,1.689129621E-1
2.399085100E1,-3.953240633E0,4.744084358E0,7.075913548E-1
2.401085100E1,-3.387387276E0,3.725597143E0,1.504142165E0
2.403085100E1,-3.100874186E0,2.284234524E0,1.639073610E0
2.405085100E1,-2.726867437E0,1.325560093E0,1.158671737E0
2.407085100E1,-1.694575071E0,5.558699369E-1,4.862836301E-1
2.409085100E1,-1.051334023E0,3.429223001E-1,2.174505740E-1
2.411085100E1,-1.158497214E0,7.061078548E-1,5.834112167E-1
2.413085100E1,-1.753951192E0,6.177243590E-1,9.692511559E-1
2.415085100E1,-1.921921611E0,-1.832386255E0,5.413312912E-1
2.417085256E1,-1.633872509E0,-5.182057023E-1,-3.735004691E-3
2.419285100E1,-1.656491995E0,1.547932506E0,-6.702064537E-3
2.421285100E1,-1.608181238E0,2.333784342E0,3.630633950E-1
2.423285100E1,-1.137204170E0,1.016950965E0,3.739542365E-1
2.425285100E1,-4.363497794E-1,-1.099801779E0,-1.135162115E-1
2.427285100E1,1.815316975E-1,-1.104007959E0,-2.427229434E-1
2.429285100E1,2.188642919E-1,1.033060431E0,1.500459611E-1
2.431285100E1,6.864903569E-1,1.589576006E0,4.432787299E-1
2.433285100E1,1.886020184E0,-3.232000768E-1,3.344225287E-1
2.435285100E1,3.949575424E0,-1.719515800E0,-3.184178770E-1
2.437285100E1,4.889487743E0,-7.672292590E-1,-7.057936788E-1
2.439285100E1,3.590997458E0,1.603102326E0,-4.571191967E-1
2.441285100E1,2.849878311E0,2.631973982E0,6.143558770E-3
2.443285100E1,2.577484846E0,3.355570078E0,-1.098859310E-1
2.445285100E1,3.075706482E0,1.990582943E0,-8.248949647E-1
2.447285100E1,4.016892910E0,-1.363503575E0,-1.125929356E0
2.449285100E1,4.009073734E0,-1.778996706E0,-7.002435327E-1
2.451285100E1,3.917531013E0,-2.340050220E0,-8.172155023E-1
2.453285100E1,3.916396618E0,-3.132883549E0,-8.020660281E-1
2.455285100E1,3.493468523E0,-3.691057205E0,-9.487085938E-1
2.457285100E1,2.486099243E0,-3.729629040E0,-3.378957510E-1
2.459285100E1,1.608896852E0,-3.148888111E0,4.353898466E-1
2.461285100E1,1.131095529E0,-4.047627926E0,-4.319689795E-2
2.463285100E1,7.370874286E-1,-3.586930752E0,-1.658935398E-1
2.465485256E1,-6.003932562E-3,-1.978365660E0,5.053775311E-1
2.467685256E1,-1.229671717E0,1.090481728E-1,1.259377241E0
2.469885569E1,-3.267413378E0,2.737147570E0,1.892914295E0
2.472085100E1,-2.439673662E0,2.842827082E0,1.710544825E0
2.474085256E1,-2.195973247E-1,-2.625149786E-1,-2.019695044E-1
2.476285256E1,1.226547599E0,-3.184265852E0,-9.108873457E-2
2.478485100E1,5.738642812E-1,-2.066085815E0,1.125772238E0
2.480485100E1,-4.551818594E-2,-1.442846179E0,7.893425822E-1
2.482485100E1,-1.374586463E0,-2.598795295E-2,5.573534369E-1
2.484489475E1,-2.172917366E0,3.032614231E0,-7.194945216E-1
2.486685100E1,-4.100825489E-1,4.490889072E0,-1.140677333E0
2.488685100E1,-6.918135881E-1,2.211855650E0,2.191086262E-1
2.490685100E1,-2.552072763E0,2.107519865E0,5.335820317E-1
2.492685100E1,-3.748059750E0,2.414610624E0,9.117600322E-2
2.494685100E1,-4.237956047E0,3.271270514E0,-2.008699477E-1
2.496685100E1,-4.268185139E0,4.302411079E0,3.397981524E-1
2.498685100E1,-3.530905724E0,4.138611794E0,1.413489819E0
2.500685100E1,-2.779855728E0,3.098256111E0,1.800097704E0
2.502685100E1,-2.274373531E0,2.141501427E0,1.364044666E0
2.504685100E1,-1.560760736E0,8.426100612E-1,7.381695509E-1
2.506885100E1,-1.223964453E0,7.044149190E-2,1.672548950E-1
2.508885256E1,-1.283637285E0,9.815731645E-2,1.973618269E-1
2.511085100E1,-1.573030353E0,-1.330289960E0,5.522221923E-1
2.513085100E1,-1.498085856E0,-7.018841505E-1,4.111297429E-1
2.515085100E1,-1.602666020E0,7.834957242E-1,1.406735331E-1
2.517085256E1,-1.694976449E0,1.378391266E0,2.530727386E-1
2.519285100E1,-1.760234356E0,8.601157069E-1,4.839274287E-1
2.521285100E1,-9.017068744E-1,1.700997949E-1,1.988628209E-1
2.523285100E1,-1.387536824E-1,3.348414302E-1,-9.407324344E-2
2.525285100E1,2.214822732E-2,7.960795760E-1,1.518959999E-1
2.527285256E1,2.122145891E-1,1.572890759E0,3.897843659E-1
2.529485100E1,9.123708606E-1,7.220601439E-1,3.199188411E-1
2.531485100E1,2.135008812E0,-8.567472100E-1,1.593834609E-1
2.533485100E1,4.033368587E0,-1.419964910E0,-3.907094002E-1
2.535485100E1,4.729423523E0,-5.021835566E-1,-5.999220014E-1
2.537485100E1,3.395311117E0,1.744491458E0,-2.747497261E-1
2.539485100E1,2.772455454E0,2.916288137E0,1.690176874E-1
2.541485100E1,2.401747465E0,3.312495232E0,-1.265363675E-2
2.543485100E1,2.536766291E0,2.288720131E0,-5.823988914E-1
2.545485100E1,3.594016790E0,-2.808950424E0,-1.265660405E0
2.547485100E1,3.682243347E0,-2.525247097E0,-1.048593760E0
2.549485100E1,3.992231131E0,-2.500742674E0,-1.027614951E0
2.551485100E1,4.013716221E0,-3.035616159E0,-9.941918850E-1
2.553485100E1,3.515791178E0,-3.295862198E0,-1.135912657E0
2.555485100E1,2.288283825E0,-3.607159138E0,-7.383440733E-1
2.557485100E1,1.460613728E0,-3.198455572E0,3.785619140E-2
2.559485100E1,1.000475049E0,-3.449154615E0,-1.259080470E-1
2.561485100E1,5.386086106E-1,-3.181403637E0,-7.641051710E-2
2.563485100E1,-1.309171468E-1,-2.198538780E0,4.886572957E-1
2.565485256E1,-1.186073422E0,-9.446245432E-1,1.226617336E0
2.567685256E1,-3.353388309E0,1.122019768E0,1.889126897E0
2.569885100E1,-3.321291685E0,2.983011961E0,2.135131121E0
2.571885100E1,-1.053306237E-1,2.279888630E0,3.734655380E-1
2.573885100E1,1.988628149E0,-2.076732397E0,-7.354992032E-1
2.575885569E1,1.333239555E0,-3.550470829E0,7.084116936E-1
2.578085100E1,-2.270673364E-1,-2.142862797E0,5.353971720E-1
2.580085100E1,-1.428639293E0,-5.329886675E-1,4.639434218E-1
2.582085100E1,-2.008682013E0,2.742732525E0,-6.822143197E-1
2.584085100E1,1.667662114E-1,5.957733631E0,-1.165426135E0
2.586085100E1,2.886250913E-1,3.929975271E0,-1.004611477E-1
2.588085100E1,-1.666649818E0,2.934264898E0,5.066516399E-1
2.590085100E1,-3.435104609E0,1.833136797E0,-9.738937020E-3
2.592085100E1,-4.591036320E0,1.562104583E0,-3.353300989E-1
2.594085100E1,-4.733839035E0,2.637314558E0,3.264987469E-1
2.596085100E1,-3.691964865E0,3.436134338E0,1.283392906E0
2.598085100E1,-2.910895109E0,3.491042376E0,1.690037251E0
2.600085569E1,-2.564045668E0,2.444647789E0,1.391149640E0
2.602285100E1,-1.915237069E0,7.271041870E-1,6.449165940E-1
2.604285100E1,-1.402511716E0,-1.286202908E0,-1.801354289E-1
2.606285100E1,-1.213859081E0,-2.436444759E0,-4.459141791E-1
2.608285100E1,-1.483983636E0,-2.605671883E0,4.244640842E-2
2.610285100E1,-1.539118648E0,-1.977353334E0,4.828628004E-1
2.612285100E1,-1.294248939E0,-3.877772391E-1,3.411944211E-1
2.614285100E1,-1.532364130E0,1.285871267E0,3.071953952E-1
2.616285100E1,-1.776151776E0,2.061338663E0,5.500056148E-1
2.618285100E1,-1.496567488E0,8.177739978E-1,3.696956336E-1
2.620285256E1,-2.268404365E-1,-1.053515673E0,-2.159844935E-1
2.622485256E1,5.370727181E-1,3.256609738E-1,-3.709697425E-1
2.624685256E1,5.813516974E-1,2.005261183E0,1.848129183E-1
2.626885256E1,1.166927099E0,9.257749915E-1,4.045498669E-1
2.628885256E1,3.077189922E0,-7.404384613E-1,1.622632593E-1
2.631085256E1,4.623377323E0,-1.297687173E0,-1.450019479E-1
2.633285100E1,3.481984138E0,-2.303834539E-3,-2.713812590E-1
2.635285256E1,2.951613665E0,1.188865900E0,1.216145381E-1
2.637485100E1,2.676776648E0,1.990705132E0,3.036872949E-3
2.639485100E1,2.509242296E0,2.094028473E0,-5.535311699E-1
2.641485100E1,3.650111675E0,-1.211869359E0,-1.122473598E0
2.643485100E1,3.686309814E0,-2.110364914E0,-6.817081571E-1
2.645485100E1,3.748007298E0,-2.055421829E0,-6.490181088E-1
2.647485100E1,3.669484854E0,-2.654279232E0,-3.828728795E-1
2.649485100E1,3.146636724E0,-3.429432392E0,-3.784571886E-1
2.651485100E1,2.299384117E0,-3.683412552E0,-3.059562109E-2
2.653485100E1,1.695255756E0,-2.654541016E0,5.743703842E-1
2.655485100E1,1.142754316E0,-3.745912790E0,2.054776102E-1
2.657485100E1,7.817853093E-1,-3.625153542E0,-6.237806752E-2
2.659485100E1,1.114392728E-1,-2.700251341E0,3.123441339E-1
2.661485100E1,-8.295201063E-1,-1.522642732E0,1.062120080E0
2.663485100E1,-2.299209595E0,-4.190884531E-1,1.710998654E0
2.665485256E1,-3.664982080E0,1.424590111E0,1.988453627E0
2.667685256E1,-2.384207010E0,4.386064529E0,1.145634174E0
2.669885725E1,1.720528126E0,3.204424679E-2,-1.379612923E0
2.672085100E1,1.938484788E0,-3.854193211E0,3.572165370E-1
2.674085100E1,2.778215110E-1,-2.602617502E0,6.555980444E-1
2.676085100E1,-1.064930081E0,-1.067722678E0,3.304606378E-1
2.678085100E1,-2.428695440E0,1.583956122E0,-7.307693362E-1
2.680085100E1,-1.344374776E0,4.424636364E0,-1.283183455E0
2.682085100E1,-5.982988700E-2,3.739193439E0,-3.274063170E-1
2.684089475E1,-1.214609504E0,2.975193024E0,5.245412588E-1
2.686285100E1,-2.666950464E0,2.282890558E0,8.077383786E-2
2.688285100E1,-3.874788046E0,1.883472085E0,-1.211782098E-1
2.690285100E1,-4.265409946E0,2.160612822E0,7.895694971E-1
2.692285100E1,-3.378084660E0,2.237459660E0,1.430786014E0
2.694285100E1,-2.744565248E0,1.744962692E0,1.537879467E0
2.696285100E1,-2.605392694E0,1.122665524E0,1.351932049E0
2.698285100E1,-1.909407616E0,2.984862030E-1,6.803293228E-1
2.700285100E1,-1.263810396E0,-7.637735605E-1,-8.677776903E-2
2.702285100E1,-1.002220392E0,-1.754265308E0,-2.350958437E-1
2.704285100E1,-1.310689926E0,-2.778581619E0,2.211681157E-1
2.706285100E1,-1.609472871E0,-1.733391166E0,5.588195324E-1
2.708285100E1,-1.679669976E0,3.797138333E-1,4.205021858E-1
2.710285256E1,-1.834306121E0,1.659458995E0,4.335048795E-1
2.712485100E1,-2.136300564E0,1.857379436E0,6.751108170E-1
2.714485100E1,-1.657783508E0,-8.657705784E-1,2.158797681E-1
2.716485100E1,-2.110103145E-2,-1.906335831E0,-3.465002179E-1
2.718485100E1,4.089480937E-1,-2.118480653E-1,-3.221005201E-1
2.720485256E1,5.319763422E-1,2.077901840E0,7.019714266E-2
2.722685100E1,8.857196569E-1,1.715344548E0,3.284535110E-1
2.724685100E1,2.221210718E0,-7.534935474E-1,1.077740788E-1
2.726685100E1,4.206225872E0,-1.807515383E0,-3.214372993E-1
2.728685100E1,4.246979237E0,-1.137937188E0,-5.956634283E-1
2.730685100E1,3.232524395E0,5.820673108E-1,-2.672273517E-1
2.732685100E1,2.863858461E0,1.969080448E0,1.532399096E-2
2.734685100E1,2.718402624E0,2.601221323E0,-7.740534842E-2
2.736685100E1,3.542145729E0,1.079747915E0,-7.296174169E-1
2.738685569E1,3.608956814E0,-1.675865173E0,-1.238415837E0
2.740885100E1,3.387963295E0,-2.415867329E0,-1.078997493E0
2.742885256E1,3.591503620E0,-2.453252316E0,-5.950176716E-1
2.744885725E1,3.294308901E0,-2.977496862E0,-3.198490441E-1
2.747085100E1,2.608778477E0,-3.771848440E0,-8.831365965E-3
2.749085100E1,2.132966757E0,-3.029594898E0,4.609065354E-1
2.751085100E1,1.450612903E0,-3.639761925E0,1.284562349E-1
2.753085100E1,7.220252752E-1,-3.604035139E0,-1.864360720E-1
2.755085100E1,-2.319542505E-2,-2.820678949E0,3.607595712E-2
2.757085100E1,-7.237705588E-1,-2.045630693E0,6.585301757E-1
2.759085100E1,-1.524580002E0,-1.035084963E0,1.353799582E0
2.761085100E1,-3.009244442E0,1.556222796E0,1.638078809E0
2.763085100E1,-2.579404593E0,4.755812645E0,1.734351158E0
2.765085256E1,5.926614404E-1,8.149465919E-1,-3.804817796E-1
2.767085256E1,2.367172718E0,-3.294466019E0,-9.236806035E-1
2.769285256E1,1.212480187E0,-2.961404800E0,9.035918713E-1
2.771485100E1,-8.315446377E-1,-1.487195015E0,6.486515999E-1
2.773485100E1,-2.192744493E0,7.119721770E-1,-5.480159521E-1
2.775485100E1,-1.207139492E0,4.394075871E0,-1.392022252E0
2.777485100E1,6.351253390E-2,4.135801792E0,-7.957305312E-1
2.779485256E1,-1.111984134E0,3.887965202E0,6.499082446E-1
2.781685100E1,-2.892830849E0,3.473606586E0,4.052305520E-1
2.783685100E1,-4.337649345E0,2.076959372E0,-2.555162013E-1
2.785685100E1,-4.781085014E0,2.129895210E0,3.304257393E-1
2.787685100E1,-3.766821861E0,2.412935019E0,1.272554517E0
2.789685100E1,-2.838079929E0,1.933074355E0,1.647189379E0
2.791685100E1,-2.675292969E0,1.713651538E0,1.447069883E0
2.793685100E1,-2.201139450E0,1.057233214E0,9.185842276E-1
2.795685100E1,-1.603765607E0,6.194173545E-2,2.060884833E-1
2.797685100E1,-1.323692560E0,3.378957510E-2,1.144063324E-1
2.799685100E1,-1.427347660E0,3.713537157E-1,6.026447415E-1
2.801685100E1,-2.037305355E0,-9.825156331E-1,9.251292348E-1
2.803685100E1,-2.111761093E0,-1.114200711E0,4.948183000E-1
2.805685100E1,-1.884938121E0,5.371425152E-1,3.895574808E-2
2.807685100E1,-1.731680751E0,1.552575111E0,2.302089334E-1
2.809685100E1,-1.176666021E0,5.884901285E-1,2.557605505E-1
2.811685100E1,-3.270048797E-1,-7.653443217E-1,-1.375842988E-1
2.813685100E1,2.616597712E-1,-1.935919225E-1,-2.730742097E-1
2.815685100E1,5.681395531E-1,1.348196983E0,6.775368005E-2
2.817685881E1,8.948826790E-1,1.392161846E0,2.826037109E-1
2.819885881E1,2.332440615E0,-4.720766544E-1,2.366666496E-2
2.822085100E1,4.439593792E0,-1.862754941E0,-4.116359055E-1
2.824085100E1,4.408963680E0,-7.315896749E-1,-7.509802580E-1
2.826085100E1,3.313717127E0,1.035852909E0,-3.102846444E-1
2.828085100E1,3.077259779E0,2.264320374E0,1.099382862E-1
2.830085100E1,2.855009556E0,2.764688730E0,3.289945796E-2
2.832085100E1,3.243607044E0,1.413367629E0,-6.242868304E-1
2.834085100E1,3.458055735E0,-1.983130336E0,-1.246130228E0
2.836085100E1,3.290207386E0,-2.670022249E0,-9.080948234E-1
2.838085100E1,3.541238070E0,-2.622653961E0,-5.652772188E-1
2.840085100E1,3.393600702E0,-2.445258617E0,-3.237934709E-1
2.842085100E1,2.796645880E0,-3.029071331E0,-1.474279612E-1
2.844085100E1,2.105251074E0,-3.411664963E0,4.217937291E-1
2.846085100E1,1.703685641E0,-3.897407532E0,6.497337222E-1
2.848085100E1,1.169806957E0,-4.284678459E0,1.238834709E-1
2.850085100E1,3.642153144E-1,-3.669764280E0,-6.363470107E-2
2.852085100E1,-3.540225923E-1,-2.527847528E0,4.656538367E-1
2.854085100E1,-1.163436532E0,-9.140114784E-1,1.186387539E0
2.856085100E1,-3.276663780E0,1.703912616E0,1.702795625E0
2.858085100E1,-3.439764738E0,3.970327377E0,1.879073858E0
2.860085256E1,-1.585980654E-1,2.483097315E0,-5.129522830E-2
2.862285100E1,2.050534964E0,-3.281986952E0,-1.222114444E0
2.864285100E1,1.504054904E0,-3.104295015E0,1.023443580E0
2.866285100E1,-3.441789374E-2,-2.312613726E0,8.324697018E-1
2.868285100E1,-1.461451411E0,4.970697686E-2,-1.719149388E-2
2.870285100E1,-2.024686575E0,3.252176762E0,-1.395303488E0
2.872285100E1,-1.050862744E-1,4.842293739E0,-1.344078064E0
2.874285100E1,-4.536634386E-1,3.654038668E0,5.852089077E-2
2.876285100E1,-2.461368084E0,2.788407803E0,5.721887350E-1
2.878285100E1,-4.054836273E0,2.085511446E0,-7.838273793E-2
2.880285100E1,-4.556950092E0,2.446148634E0,-1.094146892E-1
2.882285100E1,-3.960186958E0,3.325899363E0,7.398276329E-1
2.884285100E1,-2.913129091E0,3.234897852E0,1.671693802E0
2.886285100E1,-2.404592514E0,3.012927055E0,1.811756492E0
2.888285100E1,-2.295317411E0,2.393841267E0,1.334077358E0
2.890285100E1,-1.910315275E0,9.013927579E-1,6.565230489E-1
2.892285100E1,-1.437959313E0,-5.854532719E-1,-7.297221571E-2
2.894285100E1,-1.362787962E0,-1.486706376E0,-1.895427555E-1
2.896285100E1,-1.661710501E0,-2.835723639E0,1.770985574E-1
2.898285100E1,-1.445987821E0,-1.799242496E0,2.078687102E-1
2.900285100E1,-1.470387578E0,3.702541590E-1,1.251401007E-1
2.902285100E1,-1.782469869E0,1.724245667E0,3.378957510E-1
2.904285100E1,-1.958695769E0,2.422342539E0,5.985955596E-1
2.906285100E1,-1.888341546E0,1.633436203E0,5.262342095E-1
2.908285100E1,-1.095665336E0,-1.963809609E0,6.792821735E-2
2.910285100E1,2.924648225E-1,-1.767843962E0,-3.444058299E-1
2.912285100E1,3.989124596E-1,8.854753375E-1,2.830225825E-1
2.914285100E1,2.563888729E-1,1.983496904E0,5.857150555E-1
2.916285100E1,1.434154510E0,8.545830250E-1,2.429847419E-1
2.918285100E1,3.328185797E0,-1.048768401E0,-1.615476757E-1
2.920285256E1,4.513875008E0,-1.722674847E0,-6.527357101E-1
2.922485256E1,3.605029821E0,-1.536587924E-1,-3.896622062E-1
2.924685100E1,3.035686016E0,1.323238850E0,-1.249655709E-1
2.926685100E1,2.895606041E0,2.245593071E0,-1.987755448E-1
2.928685100E1,2.645482779E0,2.659131289E0,-5.158146024E-1
2.930685100E1,3.038600683E0,4.760909081E-1,-1.043340325E0
2.932685256E1,3.487673998E0,-3.100368023E0,-1.275678635E0
2.934885256E1,3.596774578E0,-3.039263964E0,-9.873676896E-1
2.936886506E1,3.703902721E0,-2.844188452E0,-6.899635792E-1
2.939085412E1,3.380702734E0,-2.293886185E0,-4.831769466E-1
2.941285256E1,2.427491188E0,-3.145624399E0,-1.524195969E-1
2.943485256E1,1.477560878E0,-3.360247374E0,4.861789048E-1
2.945685100E1,1.166839838E0,-4.226210117E0,4.089480937E-1
2.947685100E1,8.892626762E-1,-3.610038996E0,1.060287505E-1
2.949685100E1,2.408030778E-1,-2.205502748E0,3.526786864E-1
2.951685100E1,-6.958278418E-1,-1.056011438E0,1.045836210E0
2.953685100E1,-2.740428686E0,9.876120090E-1,1.516656160E0
2.955685100E1,-2.927335978E0,3.451667786E0,1.585369825E0
2.957885100E1,-1.881988496E-1,7.788881063E-1,-2.478367537E-1
2.959885100E1,1.804530859E0,-3.317068100E0,-4.720068276E-1
2.961885725E1,1.000405312E0,-2.797972202E0,1.232743502E0
2.964085100E1,-1.265189201E-1,-1.666649818E0,7.243989110E-1
2.966085100E1,-1.408375978E0,1.193037271E0,-3.881612122E-1
2.968085256E1,-1.391655684E0,4.516301155E0,-1.450944543E0
2.970285256E1,-5.078908056E-3,4.546146393E0,-7.063173056E-1
2.972485256E1,-1.147868156E0,3.341031313E0,5.579293966E-1
2.974685100E1,-3.486207962E0,1.811878681E0,1.755103022E-1
2.976685100E1,-5.014592648E0,1.215831280E0,-5.619960371E-3
2.978685100E1,-5.328176022E0,2.289470434E0,8.096756935E-1
2.980685100E1,-4.160585880E0,3.311290979E0,1.502920508E0
2.982685256E1,-3.057554960E0,3.569669485E0,1.850869298E0
2.984885413E1,-2.619145870E0,3.144088507E0,1.648288965E0
2.987085100E1,-2.059715509E0,1.521665335E0,1.073813796E0
2.989085256E1,-1.415409684E0,-2.316051908E-2,1.738347858E-1
2.991285256E1,-1.040966749E0,-3.976732790E-1,-1.008102149E-1
2.993285256E1,-1.192845225E0,-8.139168620E-1,3.669903874E-1
2.995485100E1,-1.513375044E0,-8.592081070E-1,5.075068474E-1
2.997485100E1,-1.715780854E0,5.128824711E-1,2.128952593E-1
2.999485100E1,-1.756953120E0,1.624639750E0,2.744181156E-1
3.001485100E1,-1.608320951E0,1.956461668E0,5.338787436E-1
3.003485100E1,-1.253460526E0,-1.511978656E-1,4.135732055E-1
3.005485100E1,5.253441166E-3,-9.423381686E-1,-1.700474322E-1
3.007485100E1,5.134584308E-1,1.231853366E0,-2.408554405E-2
3.009485100E1,4.987452924E-1,2.264966011E0,6.075839996E-1
3.011485100E1,1.415636539E0,8.894197941E-1,3.768340349E-1
3.013485100E1,3.538044214E0,-9.628108740E-1,-6.522295624E-2
3.015485256E1,4.985812187E0,-1.521229029E0,-3.996280432E-1
3.017485256E1,3.725178480E0,7.072073817E-1,-3.520503640E-1
3.019685100E1,3.046629190E0,1.972972512E0,3.043330610E-1
3.021685100E1,2.921611309E0,2.192534924E0,3.308097124E-1
3.023685100E1,2.678015709E0,2.056154966E0,-1.453684717E-1
3.025685256E1,2.967216730E0,7.223917544E-2,-9.556725025E-1
3.027685256E1,3.459626436E0,-3.457287788E0,-1.352822185E0
3.029685256E1,3.524709940E0,-3.357873917E0,-1.372841120E0
3.031685256E1,3.752423048E0,-2.968525887E0,-9.436296821E-1
3.033685256E1,3.516943216E0,-2.647646904E0,-6.723532081E-1
3.035886819E1,2.612129450E0,-2.596927643E0,-2.324604094E-1
3.038085256E1,1.847884774E0,-3.799634218E0,2.571393549E-1
3.040085256E1,1.526726723E0,-4.874058723E0,-2.024581889E-3
3.042285256E1,9.405579567E-1,-4.063126564E0,-3.603232205E-1
3.044485100E1,1.319294423E-1,-2.621955872E0,-6.370451767E-3
3.046485100E1,-5.907590389E-1,-1.539851665E0,7.856774330E-1
3.048485100E1,-2.910319090E0,3.551221490E-1,1.306344032E0
3.050485100E1,-3.998461962E0,3.401158094E0,1.695395350E0
3.052485100E1,-1.270163417E0,2.698837519E0,4.422315359E-1
3.054485100E1,1.730633616E0,-2.104081631E0,-3.915820718E-1
3.056485100E1,1.628200173E0,-2.994164705E0,7.464947701E-1
3.058485256E1,-9.128072299E-3,-1.736236095E0,6.050707698E-1
3.060685100E1,-1.335613251E0,1.035276890E0,6.560692936E-2
3.062685100E1,-1.454208374E0,4.539409161E0,-8.188211918E-1
3.064685100E1,-4.217937291E-1,5.488240242E0,-8.263784647E-1
3.066685100E1,-8.676031828E-1,3.556736708E0,-2.239606529E-1
3.068685100E1,-2.779716015E0,1.652582407E0,6.359979510E-2
3.070685100E1,-4.597563744E0,5.631130338E-1,2.156179696E-1
3.072685100E1,-5.145545006E0,1.545070171E0,5.568996668E-1
3.074685100E1,-4.517994404E0,2.676270485E0,1.373172641E0
3.076685100E1,-3.288723946E0,2.827956915E0,1.915079951E0
3.078685100E1,-2.690878868E0,2.779977798E0,1.771195054E0
3.080885413E1,-2.301042080E0,2.165168285E0,1.243023515E0
3.083085100E1,-1.756272435E0,7.914544344E-1,4.450764060E-1
3.085085100E1,-1.203753591E0,4.685859978E-1,1.131147891E-1
3.087085100E1,-9.258099198E-1,-4.820948541E-1,3.582986295E-1
3.089085100E1,-1.124742508E0,-1.060619116E0,5.503895879E-1
3.091085100E1,-1.545157433E0,-1.080707833E-1,2.636494339E-1
3.093085100E1,-1.867345214E0,9.884148836E-1,1.815142483E-2
3.095085100E1,-1.906266093E0,1.463929772E0,1.528210342E-1
3.097085100E1,-1.602090120E0,1.181221366E0,3.602010608E-1
3.099085100E1,-5.801474452E-1,-5.865178704E-1,6.386159360E-2
3.101085100E1,2.033832222E-1,-9.733177423E-1,-2.638763189E-1
3.103085100E1,4.677307904E-1,1.397764325E0,3.953170776E-2
3.105085100E1,7.003482580E-1,2.152252674E0,4.659156501E-1
3.107085100E1,1.892565250E0,3.107384145E-1,1.133765876E-1
3.109085100E1,4.004448414E0,-1.567550063E0,-3.162361979E-1
3.111085100E1,4.793232441E0,-8.724202514E-1,-4.841892421E-1
3.113085100E1,3.364366531E0,8.294153810E-1,1.876228862E-2
3.115085100E1,2.957983971E0,1.687750816E0,3.170914054E-1
3.117085100E1,2.657281160E0,1.939182997E0,2.275560200E-1
3.119085100E1,2.431435585E0,1.857623696E0,-1.027998924E-1
3.121085256E1,3.141086578E0,-1.504159689E0,-7.306297421E-1
3.123085256E1,3.381854773E0,-3.956783533E0,-1.115631938E0
3.125085256E1,3.589793205E0,-3.382256031E0,-1.285260439E0
3.127285256E1,3.501985788E0,-2.169182539E0,-9.054418802E-1
3.129485256E1,2.844869137E0,-2.547168493E0,-3.800803423E-1
3.131685100E1,2.327867746E0,-3.597001314E0,1.319468915E-1
3.133685100E1,1.655654192E0,-3.773768425E0,1.069537774E-1
3.135685100E1,6.950075626E-1,-4.285638332E0,-1.719672978E-1
3.137685256E1,2.633701824E-2,-4.258184433E0,-1.612858772E-1
3.139885256E1,-5.969724059E-1,-3.177738428E0,4.076041877E-1
3.141885569E1,-1.214976072E0,-1.779502749E0,9.324945211E-1
3.144085100E1,-3.445314884E0,2.246814728E0,1.311614871E0
3.146085256E1,-1.819156647E0,5.929651260E0,1.208570719E0
3.148285256E1,1.691346169E0,-1.169143677E0,-8.050854802E-1
3.150285256E1,2.275071621E0,-3.683255672E0,2.641206682E-1
3.152485100E1,5.053426027E-1,-3.198996544E0,7.082720399E-1
3.154485100E1,-1.241295576E0,-1.489464045E-1,-1.949707270E-1
3.156485100E1,-1.962168932E0,3.560908079E0,-1.557112932E0
3.158486194E1,2.268579006E-1,4.842415810E0,-8.250171542E-1
3.160685100E1,-2.750813365E-1,3.581747293E0,2.645919099E-2
3.162685100E1,-1.945902467E0,2.496152401E0,2.961823717E-2
3.164685100E1,-4.497539043E0,9.691115022E-1,1.112123802E-1
3.166685100E1,-5.661045074E0,1.077583671E0,1.211275935E0
3.168685100E1,-4.719841480E0,1.586294889E0,1.808946490E0
3.170685100E1,-3.331885815E0,1.906859517E0,1.599541903E0
3.172685100E1,-2.447597265E0,1.321510911E0,1.360117674E0
3.174685100E1,-1.531927824E0,-6.075839996E-1,9.746616483E-1
3.176685100E1,-1.172966003E0,-2.554638386E0,3.349286690E-2
3.178685100E1,-1.193054676E0,-1.833957076E0,-3.509508073E-1
3.180685100E1,-1.304912806E0,-3.533768058E-1,1.743758470E-1
3.182685256E1,-1.530479193E0,7.797781825E-1,9.578017592E-1
3.184885100E1,-1.924504757E0,1.553116083E0,1.087619424E0
3.186885256E1,-2.459797144E0,1.549939632E0,5.866575241E-1
3.189085256E1,-2.808915377E0,-3.174230158E-1,3.990869820E-1
3.191285100E1,-1.428569436E0,-3.641018629E0,1.492431015E-1
3.193285100E1,4.431391135E-2,-3.789930105E0,-5.897641778E-1
3.195285100E1,5.230228305E-1,-4.348836839E-1,-5.304753780E-1
3.197285100E1,1.048663616E0,2.750045538E0,-1.523323357E-1
3.199285100E1,2.128638506E0,2.325441837E0,-7.796385884E-2
3.201285100E1,3.598956108E0,-4.194898903E-1,-2.506292760E-1
3.203285100E1,4.197883129E0,-4.906644225E-1,-4.013384581E-1
3.205285100E1,3.686658859E0,3.451912105E-1,-2.300169468E-1
3.207285100E1,3.317085505E0,1.124672771E0,2.007128671E-3
3.209285100E1,2.903965950E0,1.581215978E0,-1.085071191E-1
3.211285100E1,3.075235128E0,1.214330316E0,-5.309640765E-1
3.213285100E1,3.235177279E0,-5.151339173E-1,-8.332201838E-1
3.215285256E1,3.037169695E0,-2.630333424E0,-5.896769166E-1
3.217285256E1,3.222192049E0,-3.238720179E0,-4.792848527E-1
3.219285256E1,3.108832836E0,-3.340944052E0,-3.570070863E-1
3.221485100E1,2.727059603E0,-2.922483921E0,-1.094495952E-1
3.223485100E1,2.118847132E0,-2.754496098E0,3.055024445E-1
3.225485100E1,1.606017113E0,-3.568535089E0,1.352455616E-1
3.227485100E1,9.998816848E-1,-4.099115372E0,-2.499136925E-1
3.229485100E1,3.989473581E-1,-3.843057871E0,-2.804045975E-1
3.231485100E1,-2.415884733E-1,-2.990813732E0,3.901509047E-1
3.233485100E1,-1.139071703E0,-1.865373015E0,1.118982911E0
3.235485100E1,-2.776993275E0,7.110820413E-1,1.490842819E0
3.237485100E1,-2.849267483E0,4.845959187E0,1.770200133E0
3.239485100E1,1.070934013E-1,4.107632160E0,3.804817796E-3
3.241485100E1,2.410613775E0,-2.984094143E0,-1.464523196E0
3.243485100E1,1.563937187E0,-4.318974495E0,6.186668873E-1
3.245485100E1,-2.491108477E-1,-2.496780634E0,5.220803618E-1
3.247485100E1,-1.945274115E0,8.450186253E-1,-3.443360031E-1
3.249485100E1,-1.867956042E0,4.314942360E0,-1.532119870E0
3.251485100E1,4.111821055E-1,4.971325874E0,-8.915665150E-1
3.253485100E1,-3.798185587E-1,3.012281179E0,5.725203753E-1
3.255485100E1,-2.189253807E0,1.941416979E0,2.907194793E-1
3.257485100E1,-3.548882723E0,1.871795774E0,-4.707676470E-1
3.259485100E1,-4.495287418E0,2.377190828E0,2.554463744E-1
3.261485100E1,-4.261919498E0,2.447614908E0,1.416020513E0
3.263485100E1,-3.279142141E0,2.061007023E0,1.520234108E0
3.265485256E1,-2.721457005E0,1.219880462E0,1.156856537E0
3.267485256E1,-2.306330442E0,-1.097637564E-1,7.291985750E-1
3.269685256E1,-1.472953200E0,-2.875918627E0,-2.362652272E-1
3.271885100E1,-1.312609792E0,-2.885517836E0,-5.729217529E-1
3.273885569E1,-1.591967106E0,-1.572489262E0,1.508837193E-1
3.276085100E1,-1.706879616E0,-1.523497850E-1,9.861808419E-1
3.278085256E1,-1.842997909E0,1.008800268E0,1.102018356E0
3.280085256E1,-2.230338812E0,1.363119602E0,8.014726639E-1
3.282085256E1,-2.587258577E0,-1.754492283E0,7.033502460E-1
3.284285256E1,-4.416206479E-1,-3.962089300E0,-9.669124335E-2
3.286485100E1,8.779006451E-2,-9.667378664E-1,-4.847303033E-1
3.288485100E1,2.939134538E-1,1.983165264E0,-1.814793348E-1
3.290485100E1,1.117464542E0,2.224247694E0,4.464552179E-2
3.292485100E1,2.470304012E0,4.251098335E-1,-3.291341960E-1
3.294485100E1,4.097980499E0,-1.658010483E0,-7.269122005E-1
3.296485100E1,4.271327019E0,-7.695505619E-1,-7.616267800E-1
3.298485100E1,3.504760742E0,5.765694976E-1,-2.077814490E-1
3.300485100E1,2.940827370E0,1.636612654E0,-1.373225003E-1
3.302485100E1,2.880630970E0,2.376806736E0,-2.849250138E-1
3.304485100E1,3.558220148E0,2.011631489E0,-6.421939135E-1
3.306485100E1,3.395730019E0,-5.690122247E-1,-7.209082246E-1
3.308485100E1,2.964930534E0,-2.560450315E0,-4.756371379E-1
3.310485100E1,3.045669317E0,-3.299684525E0,-1.811128110E-1
3.312485100E1,3.043173552E0,-3.352306128E0,1.621934474E-1
3.314485100E1,2.682658434E0,-3.484340429E0,5.429021120E-1
3.316485100E1,2.180666685E0,-3.478231668E0,7.380648255E-1
3.318485100E1,1.803064704E0,-4.223207951E0,3.020815849E-1
3.320485100E1,1.283253312E0,-4.610095024E0,-2.793225050E-1
3.322485256E1,6.011961102E-1,-3.981340408E0,-1.873785406E-1
3.324685100E1,-2.946639359E-1,-2.689953804E0,5.441412926E-1
3.326685100E1,-1.565699935E0,-9.411687851E-1,1.322785020E0
3.328685100E1,-3.363546133E0,1.957055092E0,1.798684001E0
3.330685100E1,-2.152392387E0,5.837794781E0,1.573466659E0
3.332685100E1,1.210263610E0,2.127381802E0,-7.179760933E-1
3.334685100E1,2.584326506E0,-3.806388617E0,-7.844207883E-1
3.336685100E1,9.385333657E-1,-4.032146931E0,1.017404795E0
3.338685100E1,-1.011924386E0,-1.708485365E0,5.409124494E-1
3.340685100E1,-2.067953348E0,1.351914525E0,-5.609837174E-1
3.342685100E1,-1.408079267E0,4.549514771E0,-1.926791072E0
3.344685100E1,1.103257537E0,4.493524551E0,-5.847725868E-1
3.346685100E1,-6.784443855E-1,3.660304546E0,1.025468230E0
3.348685100E1,-3.170722246E0,2.585670471E0,5.876174569E-1
3.350685100E1,-4.809080124E0,1.870242476E0,-3.888244629E-1
3.352685100E1,-4.927169323E0,2.705085754E0,-6.587570906E-1
3.354685100E1,-4.138332844E0,4.144214630E0,1.651255935E-1
3.356685100E1,-3.175260067E0,3.678351164E0,1.476915002E0
3.358685100E1,-3.065234423E0,2.558600426E0,1.544441819E0
3.360685100E1,-2.719554663E0,8.978497386E-1,8.855451345E-1
3.362685100E1,-1.803797722E0,-5.299343467E-1,6.019640714E-2
3.364685100E1,-1.090516567E0,-1.666056395E0,-4.022809267E-1
3.366685100E1,-1.172198057E0,-2.230897188E0,-5.052728206E-2
3.368685100E1,-1.464209080E0,-1.571389675E0,3.305653632E-1
3.370685100E1,-1.697891235E0,-1.746376455E-1,4.081801474E-1
3.372685100E1,-1.827499390E0,1.029028654E0,3.816685975E-1
3.374685100E1,-1.793989062E0,1.546344280E0,4.070805907E-1
3.376685100E1,-1.245484352E0,8.057487011E-1,4.255810976E-1
3.378685100E1,-9.243264049E-2,-1.987580955E-1,5.323254038E-3
3.380685100E1,5.256407857E-1,6.817779541E-1,-3.321885169E-1
3.382689475E1,6.153507233E-1,1.837308049E0,1.249481216E-1
3.384885412E1,1.036289215E0,1.290321946E0,4.191408157E-1
3.387085100E1,3.002489805E0,-8.990714550E-1,1.948485523E-1
3.389085100E1,5.007000446E0,-1.683090806E0,-1.570796371E-1
3.391085100E1,3.857805967E0,-1.507964451E-2,-2.113070190E-1
3.393085100E1,2.997777462E0,1.500756264E0,1.924225539E-1
3.395085100E1,2.788599730E0,2.058197021E0,2.548878789E-1
3.397085100E1,2.585652828E0,2.178991318E0,-1.980250627E-1
3.399085100E1,3.530329943E0,-1.261017799E0,-9.215862155E-1
3.401085100E1,3.607176781E0,-3.301534653E0,-8.971341252E-1
3.403085100E1,3.785025835E0,-2.559717417E0,-7.526034117E-1
3.405085100E1,3.652502775E0,-2.225975513E0,-4.720591903E-1
3.407085100E1,2.936830521E0,-3.049351931E0,-3.039839864E-1
3.409085412E1,2.047114134E0,-3.054238796E0,-7.677703351E-2
3.411285100E1,1.367552757E0,-3.328081131E0,2.438923120E-1
3.413285100E1,1.263199449E0,-4.032949924E0,7.265805453E-2
3.415285100E1,8.826828003E-1,-3.986995220E0,-4.607669264E-2
3.417285256E1,3.204424381E-1,-3.083350897E0,4.150044024E-1
3.419485100E1,-2.526015043E-1,-1.478765130E0,1.303586364E0
3.421485100E1,-1.947944522E0,1.100814104E0,1.707158923E0
3.423485100E1,-3.603616238E0,4.827510834E0,1.999327064E0
3.425485100E1,-1.067321181E0,3.855781317E0,6.454750896E-1
3.427485100E1,1.498068452E0,-2.547971249E0,-1.269988775E0
3.429485256E1,1.702865362E0,-3.707271338E0,5.916491747E-1
3.431685100E1,8.576548100E-2,-2.672657490E0,9.529322982E-1
3.433685100E1,-1.329207897E0,-5.088856220E-1,1.614429504E-1
3.435685100E1,-2.701769590E0,3.140318632E0,-1.047249913E0
3.437685100E1,1.729097664E-1,6.783274651E0,-1.467804432E0
3.439685100E1,1.006409168E0,3.471215487E0,-4.502425790E-1
3.441685100E1,-1.374900579E0,2.908085108E0,3.088534772E-1
3.443685100E1,-3.571187973E0,1.908046246E0,-1.243197992E-1
3.445685100E1,-4.840600967E0,1.666562557E0,-5.166523457E-1
3.447685100E1,-5.019985676E0,2.492382526E0,3.567278385E-1
3.449685100E1,-4.148699760E0,3.099931717E0,1.403977752E0
3.451685100E1,-3.094486237E0,3.264568567E0,1.802244425E0
3.453685100E1,-2.776975870E0,2.235679388E0,1.451223850E0
3.455685100E1,-2.270062447E0,8.296073675E-1,6.785316467E-1
3.457685100E1,-1.618077278E0,-5.579643250E-1,-1.942551434E-1
3.459685100E1,-1.282206178E0,-1.222690344E0,-4.910134673E-1
3.461685100E1,-1.587603807E0,-1.701242208E0,-9.283406287E-2
3.463685100E1,-2.039713860E0,-2.831604719E0,4.755847752E-1
3.465685100E1,-1.774615884E0,-2.175482988E0,2.608045638E-1
3.467685100E1,-1.658603787E0,-5.922425985E-1,1.653350443E-1
3.469685100E1,-1.455273032E0,6.117902398E-1,5.689074993E-1
3.471685100E1,-7.834084630E-1,1.157292962E0,4.817981422E-1
3.473685100E1,-1.258556992E-1,1.212131143E0,1.005658731E-1
3.475685100E1,3.790506124E-1,1.680664778E0,6.506587565E-2
3.477685100E1,6.602755189E-1,1.529362202E0,3.426430523E-1
3.479685100E1,1.231923223E0,-1.937315427E-2,2.113070190E-1
3.481685100E1,3.000273228E0,-1.226948977E0,-2.181661576E-1
3.483685100E1,4.668458939E0,-1.516551495E0,-5.673018098E-1
3.485685100E1,3.922976494E0,-3.524343371E-1,-5.179439187E-1
3.487685100E1,3.025371075E0,9.651845098E-1,-1.712516993E-1
3.489685100E1,2.696149826E0,1.742170215E0,-2.798810005E-1
3.491685100E1,2.507619143E0,2.259869814E0,-6.675884128E-1
3.493685100E1,2.552980423E0,1.728940606E0,-8.611978292E-1
3.495685881E1,3.545304775E0,-2.345547915E0,-8.782147765E-1
3.497885569E1,3.710116148E0,-2.721387148E0,-8.514588475E-1
3.500085100E1,3.490466595E0,-2.824378967E0,-7.511373758E-1
3.502085100E1,2.949466705E0,-3.647423983E0,-5.138249397E-1
3.504085725E1,2.410788298E0,-4.247450829E0,-2.290046513E-1
3.506285100E1,1.951557398E0,-3.962246418E0,1.326799244E-1
3.508285100E1,1.377693057E0,-3.571502209E0,-1.282817032E-2
3.510285256E1,6.399948001E-1,-3.259210348E0,-2.114117295E-1
3.512485100E1,-5.925392732E-2,-2.393596888E0,2.162462920E-1
3.514485100E1,-8.396779299E-1,-1.134725809E0,9.436995387E-1
3.516485100E1,-2.737985373E0,1.143382668E0,1.515748620E0
3.518485100E1,-3.200445175E0,3.269176245E0,1.870347142E0
3.520485256E1,-3.355744481E-1,3.506418705E0,2.574709654E-1
3.522485256E1,1.830309272E0,-1.464872241E0,-1.555838823E0
3.524685100E1,1.557392240E0,-3.629726410E0,4.279896319E-1
3.526685100E1,1.164134592E-2,-2.817537308E0,6.822143197E-1
3.528685100E1,-9.746093154E-1,-4.731587470E-1,-6.805038452E-2
3.530685100E1,-1.035695791E0,2.936481476E0,-1.515783548E0
3.532685100E1,7.300886512E-1,4.179365635E0,-1.424363256E0
3.534685100E1,-2.072927505E-1,3.652625084E0,2.844188511E-1
3.536685100E1,-2.097362041E0,2.241997480E0,3.895924091E-1
3.538685100E1,-3.991533041E0,8.203570843E-1,-3.716503978E-1
3.540685100E1,-5.010613441E0,1.518174648E0,-5.848598480E-2
3.542685100E1,-5.060128212E0,2.503168583E0,1.419842839E0
3.544685100E1,-3.956521749E0,2.583314180E0,1.849804640E0
3.546685100E1,-2.886303425E0,2.328164577E0,1.517022729E0
3.548685100E1,-2.376771927E0,1.120885372E0,1.262640953E0
3.550885569E1,-1.557845950E0,-2.327990055E0,2.964616120E-1
3.553085100E1,-9.744173288E-1,-2.319298267E0,-5.174552202E-1
3.555085100E1,-8.517032266E-1,-1.260686278E0,6.056292448E-3
3.557085100E1,-1.158549547E0,-2.863736153E-1,8.826304674E-1
3.559085100E1,-1.661466122E0,6.965434551E-1,1.186125755E0
3.561085100E1,-2.181417227E0,1.397240758E0,8.918283582E-1
3.563085100E1,-2.530116558E0,1.142335415E0,6.138672233E-1
3.565085256E1,-2.300291538E0,-1.349383831E0,4.273264110E-1
3.567085256E1,-8.452978730E-1,-3.514098167E0,-1.217192635E-1
3.569285100E1,7.173303515E-2,-1.198639750E0,-6.078109145E-1
3.571285100E1,5.595350862E-1,1.653926373E0,-2.391973734E-1
3.573285100E1,1.213335395E0,2.079542398E0,-6.660176069E-2
3.575285100E1,2.278021097E0,9.965131879E-1,-2.215171903E-1
3.577285100E1,3.952856541E0,-8.135677576E-1,-3.261147738E-1
3.579285100E1,4.593305111E0,-9.703681469E-1,-6.363295913E-1
3.581285100E1,3.656953573E0,6.192602515E-1,-3.373721540E-1
3.583285100E1,3.027605295E0,1.676353812E0,5.504768342E-2
3.585285100E1,2.761494875E0,2.226813316E0,-1.464680284E-1
3.587285100E1,2.893092632E0,2.331777334E0,-6.412514448E-1
3.589285100E1,3.359776258E0,-1.156594753E0,-9.264906049E-1
3.591285100E1,3.153356075E0,-3.269420624E0,-5.357986093E-1
3.593285100E1,3.240866899E0,-3.502596617E0,-4.021762311E-1
3.595285100E1,3.041829586E0,-3.417215109E0,-1.210560352E-1
3.597285100E1,2.638274670E0,-2.990656614E0,3.886150122E-1
3.599285100E1,2.154015541E0,-2.981772900E0,8.066737056E-1
3.601285100E1,1.638584852E0,-3.448473930E0,4.327718318E-1
3.603285100E1,1.060584188E0,-3.999666214E0,-2.349038571E-1
3.605285100E1,4.931776822E-1,-3.739298105E0,-2.574011683E-1
3.607285100E1,-1.639387757E-1,-3.071447849E0,3.951076269E-1
3.609285100E1,-9.701761603E-1,-1.952918649E0,1.134917736E0
3.611285100E1,-2.696376562E0,6.867696047E-1,1.530863166E0
3.613285100E1,-3.019629002E0,4.256596088E0,1.767163277E0
3.615285100E1,-1.910960972E-1,5.694852352E0,3.504970074E-1
3.617285100E1,2.388640165E0,-1.666038990E0,-1.395582676E0
3.619285100E1,1.720214009E0,-4.151300430E0,4.012162983E-1
3.621285256E1,-3.102846444E-1,-3.093962669E0,7.494443655E-1
3.623485100E1,-1.794966459E0,-3.944444004E-3,-8.044222742E-2
3.625485100E1,-1.819662809E0,3.373058319E0,-1.504212022E0
3.627485100E1,1.054789782E0,3.722787380E0,-1.320830226E0
3.629485100E1,3.941826224E-1,3.221074820E0,4.824090004E-1
3.631485100E1,-1.457856059E0,3.817558765E0,7.533713579E-1
3.633485100E1,-3.209922314E0,3.070208788E0,-3.343527317E-1
3.635485100E1,-4.809376717E0,1.824375153E0,-9.506284595E-1
3.637485100E1,-5.665652752E0,1.704209328E0,8.115781099E-2
3.639485100E1,-4.705582142E0,1.617658377E0,1.222027183E0
3.641485100E1,-3.643339872E0,7.295825481E-1,1.470701694E0
3.643485256E1,-2.834327459E0,-2.030166984E-1,1.087933540E0
3.645485256E1,-1.897487044E0,-9.554455876E-1,4.226489365E-1
3.647485256E1,-1.198116183E0,-1.782993436E0,-1.740442365E-1
3.649685256E1,-7.001911998E-1,-1.927489281E0,-2.906322181E-1
3.651885256E1,-5.088682175E-1,-1.958032489E0,1.869945824E-1
3.653885725E1,-1.501297355E0,-1.276429057E0,8.887565732E-1
3.656085100E1,-2.312002659E0,2.824989855E-1,7.868991494E-1
3.658085100E1,-1.829611182E0,1.609350681E0,6.126280427E-1
3.660085256E1,-1.182984114E0,2.036275625E0,8.718268871E-1
3.662285100E1,-9.658477306E-1,-2.608586550E0,1.512676924E-1
3.664285100E1,3.902207017E-1,-1.359210014E0,-7.811744809E-1
3.666285100E1,9.979792833E-1,2.606754065E0,-1.205149814E-1
3.668285100E1,9.852907062E-1,3.200898886E0,3.343003690E-1
3.670285256E1,1.973740458E0,9.635788202E-1,1.974665523E-1
3.672485100E1,4.473697662E0,-1.800760865E0,-2.441366613E-1
3.674485100E1,4.370426655E0,-1.088631630E0,-5.952445269E-1
3.676485100E1,3.311901808E0,6.861936450E-1,-1.123642996E-1
3.678485100E1,2.832966089E0,1.632284284E0,-1.473057922E-2
3.680485100E1,2.588532686E0,2.444647789E0,-4.789881706E-1
3.682485100E1,2.620001078E0,2.587939262E0,-9.133657217E-1
3.684485100E1,3.783262968E0,-1.250458598E0,-1.009917259E0
3.686485100E1,3.731583834E0,-2.706482172E0,-6.013706326E-1
3.688485100E1,3.524901867E0,-2.867122173E0,-4.715355933E-1
3.690485100E1,3.015911579E0,-4.102797985E0,-2.973168492E-1
3.692485100E1,2.445311069E0,-5.206596375E0,2.034704834E-1
3.694485100E1,2.238419771E0,-3.942332268E0,7.632673979E-1
3.696485100E1,1.400661588E0,-4.025689125E0,4.902804494E-1
3.698485100E1,6.027843356E-1,-3.871314764E0,6.143558770E-3
3.700485100E1,4.291764647E-2,-2.718402624E0,3.509508073E-1
3.702485100E1,-3.739891648E-1,-1.889528394E0,9.982933998E-1
3.704485100E1,-1.229392409E0,2.463706732E-1,1.465710044E0
3.706485100E1,-2.561340570E0,3.407319069E0,1.936023951E0
3.708485100E1,-3.980746865E-1,6.262171745E0,1.369175911E0
3.710485100E1,1.884990454E0,-1.162424207E0,-1.578947067E0
3.712485100E1,2.502959251E0,-5.094022751E0,-1.035765648E0
3.714485100E1,1.351617932E0,-3.003938437E0,1.413978457E0
3.716485100E1,4.434881508E-1,-1.199652076E0,7.036469579E-1
3.718485100E1,-2.165971041E0,-2.734756470E-1,-2.527585924E-1
3.720485100E1,-2.695486546E0,4.956368446E0,-8.687376380E-1
3.722485100E1,-7.578743100E-1,5.935254097E0,-1.390311837E0
3.724485100E1,-9.901950955E-1,4.320562363E0,-1.781981252E-2
3.726485100E1,-2.544533014E0,3.884352446E0,3.406708241E-1
3.728485100E1,-3.931005001E0,3.522475958E0,-4.164181054E-1
3.730485100E1,-5.270876884E0,3.288514376E0,-4.228583574E-1
3.732485100E1,-5.723440647E0,3.497430325E0,4.780631363E-1
3.734485100E1,-4.609240055E0,3.238231421E0,1.391167045E0
3.736485100E1,-3.720867395E0,2.046468258E0,1.494595289E0
3.738485100E1,-2.905013323E0,5.992239118E-1,9.298067093E-1
3.740485100E1,-1.999274611E0,-4.461410642E-1,2.103296220E-1
3.742485100E1,-1.255869150E0,-1.078334212E0,-3.548254371E-1
3.744485100E1,-8.462403417E-1,-9.804387093E-1,-4.712912440E-1
3.746485100E1,-8.513715863E-1,-7.425503135E-1,-3.501130641E-2
3.748485100E1,-1.370188236E0,-1.452323318E0,6.069207788E-1
3.750485100E1,-2.170037746E0,-6.697875261E-1,9.058084488E-1
3.752485100E1,-1.602316976E0,1.614865899E0,3.785968125E-1
3.754485100E1,-8.515810370E-1,2.594798326E0,5.035798550E-1
3.756485100E1,-5.243667364E-1,4.915894270E-1,3.622430861E-1
3.758485100E1,5.275432467E-1,6.530672908E-1,-2.546609938E-1
3.760485100E1,1.092576146E0,2.708855629E0,1.864360720E-1
3.762485100E1,1.242883921E0,2.122390270E0,5.354670286E-1
3.764485100E1,2.821534157E0,1.075471863E-1,2.405761778E-1
3.766485256E1,4.628508568E0,-2.089333534E0,-2.291966379E-1
3.768685100E1,4.080527306E0,-6.884974837E-1,-4.829674959E-1
3.770685100E1,3.352445841E0,8.457341790E-1,1.672374457E-1
3.772685100E1,2.987270594E0,1.339418054E0,2.583611012E-1
3.774685100E1,2.670266390E0,1.675393939E0,-2.098060250E-1
3.776685100E1,2.530465603E0,1.707839608E0,-5.483824611E-1
3.778685100E1,2.551165104E0,-6.513568759E-2,-6.291737556E-1
3.780685100E1,3.586529493E0,-2.526835203E0,-5.041906834E-1
3.782685100E1,3.615955591E0,-2.815024137E0,-3.620510995E-1
3.784685100E1,3.140650272E0,-3.204791069E0,-2.460914198E-3
3.786885100E1,2.366369724E0,-5.416611671E0,2.876477242E-1
3.788885100E1,2.361971617E0,-5.666403294E0,3.339687586E-1
3.790885100E1,1.939165473E0,-4.413955212E0,1.390852928E-1
3.792885100E1,7.067710757E-1,-3.281899691E0,-1.474454105E-1
3.794885881E1,-1.979552358E-1,-2.628273964E0,1.040216256E-2
3.797085100E1,-6.155427098E-1,-2.161520481E0,9.078679085E-1
3.799085100E1,-1.364585638E0,-4.382521659E-2,1.390119791E0
3.801085100E1,-3.428873777E0,5.462775707E0,1.668988585E0
3.803085256E1,-8.877093792E-1,3.870285034E0,6.963863503E-3
3.805285100E1,1.811250329E0,-3.352777481E0,-2.302874565E0
3.807285100E1,1.894834161E0,-3.476643562E0,6.165375710E-1
3.809285100E1,4.283038080E-1,-2.578654051E0,9.866870046E-1
3.811285100E1,-1.462411404E0,-1.831897646E-1,1.172512174E-1
3.813285100E1,-2.687754631E0,2.948000669E0,-7.653268576E-1
3.815285256E1,-5.953143239E-1,5.821318626E0,-1.390015125E0
3.817485256E1,-3.724183440E-1,4.186643600E0,-7.608937621E-1
3.819685100E1,-1.888830185E0,4.078066349E0,2.358288914E-1
3.821685100E1,-3.875852585E0,3.389848232E0,2.754304111E-1
3.823685100E1,-5.211465836E0,2.602861881E0,8.011235595E-1
3.825685100E1,-4.872749805E0,1.959830165E0,1.460177302E0
3.827685100E1,-3.860982418E0,1.377274156E0,1.312836647E0
3.829685100E1,-2.872846842E0,6.177942157E-1,8.057312369E-1
3.831685100E1,-2.126875639E0,-2.327396572E-1,3.674965203E-1
3.833685100E1,-1.526674390E0,-1.147606373E0,-9.210102260E-2
3.835685100E1,-1.277319193E0,-1.258696556E0,-2.424960434E-1
3.837685100E1,-1.525103569E0,-1.041926622E0,8.306021988E-2
3.839685100E1,-2.087745428E0,-1.649074316E0,7.137698531E-1
3.841685100E1,-2.023447514E0,-1.161446810E0,7.512944341E-1
3.843685100E1,-1.920926809E0,5.516462326E-1,3.539178669E-1
3.845685100E1,-2.064672232E0,1.392057180E0,5.220628977E-1
3.847685100E1,-1.243337631E0,2.286381274E-2,3.996978402E-1
3.849685100E1,-1.169545129E-1,-3.796091080E-1,-2.770884633E-1
3.851685100E1,9.620254487E-2,9.747489095E-1,-4.179365337E-1
3.853685100E1,5.846154690E-1,1.977545261E0,-6.527531426E-3
3.855685100E1,1.355911374E0,1.163314342E0,1.492780149E-1
3.857685100E1,3.135396719E0,-4.685859978E-1,-9.339256585E-2
3.859685100E1,4.745393276E0,-1.384325385E0,-3.107384145E-1
3.861685100E1,3.959314346E0,-9.574875981E-2,-3.272841275E-1
3.863685100E1,3.098587751E0,7.572285533E-1,-1.059414819E-2
3.865685100E1,2.846300364E0,1.274142742E0,-8.559094369E-2
3.867685100E1,2.700111628E0,1.747912288E0,-5.047143102E-1
3.869685100E1,3.553560257E0,6.928607821E-1,-9.895668030E-1
3.871685100E1,3.641454935E0,-1.124026895E0,-8.779703975E-1
3.873685100E1,3.467061758E0,-1.958695769E0,-4.237310290E-1
3.875685100E1,3.153774977E0,-3.165957451E0,-1.024857312E-1
3.877885256E1,2.787866831E0,-4.075081825E0,2.670004666E-1
3.879885569E1,2.509643793E0,-4.361176491E0,7.760431767E-1
3.881886038E1,2.068476915E0,-3.755965948E0,8.608487248E-1
3.884085100E1,1.355736852E0,-4.161807537E0,1.057669520E-1
3.886085100E1,6.830695271E-1,-3.917915106E0,-1.311614960E-1
3.888085100E1,-1.890191622E-2,-3.014742136E0,4.448320568E-1
3.890085100E1,-7.510151863E-1,-1.844882846E0,1.224592805E0
3.892085100E1,-2.321532249E0,5.284158587E-1,1.768036008E0
3.894085100E1,-2.834728956E0,3.839357853E0,1.894973755E0
3.896085256E1,-6.788632870E-1,4.265654564E0,4.492128491E-1
3.898285100E1,1.943633556E0,-2.684368849E0,-1.950248361E0
3.900285100E1,1.757319689E0,-4.429104805E0,-2.475225925E-1
3.902285100E1,2.106088847E-1,-2.910231829E0,3.638138771E-1
3.904285100E1,-4.300316870E-1,2.365270257E-1,-2.669481039E-1
3.906285100E1,-1.284981251E0,2.501650333E0,-1.488346934E0
3.908285100E1,-6.523168087E-1,3.903254271E0,-9.579414129E-1
3.910285100E1,-9.272934198E-1,4.350477695E0,3.598170877E-1
3.912285100E1,-2.570625544E0,3.441859007E0,3.386462331E-1
3.914285100E1,-4.576672077E0,2.197177649E0,-7.199657559E-1
3.916285100E1,-5.884848595E0,2.756066799E0,-3.722612858E-1
3.918285100E1,-5.553655148E0,3.171210766E0,1.393924713E0
3.920287444E1,-4.074697971E0,2.342423916E0,1.778560281E0
3.922485100E1,-3.195139408E0,9.475392699E-1,1.381358266E0
3.924485100E1,-2.547098637E0,2.830924094E-2,1.022797823E0
3.926485100E1,-1.922410369E0,-7.464773059E-1,3.578099608E-1
3.928485100E1,-1.347359300E0,-1.349698067E0,-3.509682715E-1
3.930485256E1,-9.215163589E-1,-3.039874792E0,-7.011336684E-1
3.932685100E1,-8.457167149E-1,-3.542582035E0,-2.061233819E-1
3.934685256E1,-1.377134562E0,-1.471033335E0,4.803320765E-1
3.936885413E1,-1.413262844E0,1.960126877E0,4.281118214E-1
3.939085100E1,-8.614246845E-1,3.814800978E0,5.815436840E-1
3.941085100E1,-9.197186828E-1,3.712455034E0,7.571587563E-1
3.943085256E1,-1.991106510E0,-7.531619072E-1,2.001892626E-1
3.945285100E1,6.044249535E-1,-2.170491457E0,-8.170933127E-1
3.947285100E1,2.038038492E0,1.404990070E-2,-5.819276571E-1
3.949285100E1,2.657961845E0,4.640655816E-1,1.959132105E-1
3.951285100E1,4.093582630E0,-1.714087874E-1,3.247010410E-1
3.953285100E1,3.916902781E0,-7.981390506E-2,-3.425906897E-1
3.955285100E1,3.518269539E0,5.047666430E-1,-4.833165705E-1
3.957285100E1,3.465647936E0,1.225797057E0,-4.978027940E-1
3.959285256E1,3.273941040E0,2.156773090E0,-6.972241402E-1
3.961485100E1,3.022770643E0,2.083015442E0,-6.439741254E-1
3.963485100E1,3.552809715E0,-1.977667451E0,-7.339807749E-1
3.965485256E1,3.828117847E0,-3.357036114E0,-3.377910256E-1
3.967485256E1,3.768794060E0,-4.145698071E0,-2.984338403E-1
3.969685100E1,3.483799458E0,-5.441256046E0,-2.272069603E-1
3.971685256E1,3.302983284E0,-5.595281124E0,5.012934804E-1
3.973885100E1,2.708873272E0,-4.452491760E0,1.113205910E0
3.975886350E1,1.718224287E0,-4.061712742E0,3.563089669E-1
3.978085100E1,8.658927679E-1,-2.798373699E0,-1.142841578E-1
3.980085256E1,2.654645778E-2,-1.986708283E0,5.481032133E-1
3.982085256E1,-1.293620586E0,-7.853632569E-1,1.458240032E0
3.984285256E1,-2.859966278E0,8.482823968E-1,2.193442583E0
3.986285256E1,-2.468279600E0,3.125291348E0,2.141100168E0
3.988285256E1,-3.215769231E-1,3.882606983E0,2.145707756E-1
3.990285256E1,2.171224594E0,-1.606383562E0,-1.656806111E0
3.992285256E1,1.825631857E0,-3.420234442E0,7.274357677E-1
3.994285256E1,1.500983089E-1,-2.579142809E0,8.807106018E-1
3.996285256E1,-8.585274816E-1,-7.373666763E-1,2.158972248E-2
3.998285256E1,-2.350347519E0,1.578231454E0,-1.378164291E0
4.000285256E1,-1.395774722E0,4.336689472E0,-1.752903938E0
4.002485100E1,-5.122715831E-1,4.995498657E0,-3.185923994E-1
4.004485256E1,-1.837081194E0,4.182384968E0,7.500203252E-1
4.006685100E1,-4.322308064E0,2.186653137E0,7.993607968E-2
4.008685100E1,-5.937208652E0,1.783604264E0,5.566029549E-1
4.010685256E1,-5.544230461E0,2.052838802E0,1.533882618E0
4.012885256E1,-3.955422163E0,1.780270696E0,1.498888731E0
4.014885256E1,-2.856562853E0,1.071475029E0,1.216372371E0
4.016885881E1,-2.081968307E0,2.118131518E-1,8.980067968E-1
4.019085100E1,-1.319695830E0,-7.938979268E-1,1.569050997E-1
4.021085100E1,-7.793069482E-1,-1.366208792E0,-2.524967790E-1
4.023085100E1,-6.403263807E-1,-2.077500343E0,3.077015467E-2
4.025085256E1,-1.145302534E0,-1.912845969E0,7.321656346E-1
4.027285256E1,-1.755417228E0,-1.382300705E-1,8.098502159E-1
4.029485100E1,-1.822734594E0,1.768070936E0,3.655766547E-1
4.031485100E1,-1.515818477E0,2.528249025E0,5.398652554E-1
4.033485100E1,-1.654048562E0,6.270444393E-1,6.546729803E-1
4.035485100E1,-4.423187971E-1,-2.097205162E0,-1.808859259E-1
4.037485100E1,9.896889329E-1,5.546656251E-1,-3.165154457E-1
4.039485100E1,9.728814363E-1,2.663599253E0,2.299994826E-1
4.041485100E1,1.720353603E0,2.050377846E0,2.518510222E-1
4.043485100E1,3.735528231E0,-3.545112908E-1,1.490511186E-2
4.045485100E1,4.624459267E0,-1.437505484E0,-3.457846344E-1
4.047485100E1,3.446763515E0,2.138551921E-1,1.024857312E-1
4.049485100E1,2.808007956E0,9.335765839E-1,2.446777076E-1
4.051485100E1,2.705225468E0,1.638235807E0,-1.423490494E-1
4.053485100E1,2.780990124E0,2.361866713E0,-6.235188842E-1
4.055485100E1,3.128310680E0,5.201604962E-1,-8.204094768E-1
4.057485100E1,3.432399511E0,-2.537569046E0,-5.853659511E-1
4.059485100E1,3.486801386E0,-2.879060268E0,-3.980921507E-1
4.061485100E1,3.432957888E0,-3.567016602E0,-2.849075496E-1
4.063485100E1,2.998178959E0,-5.185128689E0,-1.002866179E-1
4.065485256E1,3.050015211E0,-5.512325764E0,2.112546563E-1
4.067485256E1,2.796942472E0,-4.268097878E0,1.484577060E-1
4.069685100E1,1.523794651E0,-3.467026711E0,-2.091777027E-1
4.071685100E1,5.201081038E-1,-2.793277264E0,-2.179741710E-1
4.073685100E1,-1.405164599E-1,-2.329002142E0,4.135732055E-1
4.075685100E1,-9.106080532E-1,-1.181884646E0,1.130973339E0
4.077686038E1,-3.105691195E0,1.597936153E0,1.684085608E0
4.079885256E1,-2.190283537E0,3.611732006E0,1.544267297E0
4.081885256E1,3.465176821E-1,7.953639627E-1,-6.971194148E-1
4.084085100E1,2.014197111E0,-3.146200418E0,-8.264657855E-1
4.086085100E1,1.632598400E0,-3.208700657E0,8.800997138E-1
4.088085100E1,1.007840395E0,-1.732169509E0,3.502177596E-1
4.090085100E1,-1.271734118E0,5.153259039E-1,-7.145377994E-1
4.092085100E1,-1.687768340E0,4.320998669E0,-1.560795546E0
4.094085100E1,-1.228432536E0,5.338316441E0,-1.258731484E0
4.096085100E1,-1.727771282E0,4.735025883E0,1.459618807E-1
4.098085100E1,-3.806248903E0,3.718022585E0,5.551368594E-1
4.100085100E1,-6.101147652E0,2.813296318E0,8.279318213E-1
4.102085100E1,-6.250669956E0,3.750572920E0,1.323919535E0
4.104085100E1,-4.838489056E0,4.121507645E0,1.783237815E0
4.106085100E1,-3.544187784E0,2.941001892E0,1.815892935E0
4.108085100E1,-2.599144220E0,1.632807851E0,1.430070400E0
4.110085100E1,-1.919914484E0,4.614824951E-1,7.208384275E-1
4.112085100E1,-1.404344320E0,-5.081002712E-1,-7.483971864E-2
4.114085100E1,-1.169789433E0,-7.173478007E-1,-2.833192945E-1
4.116085100E1,-1.007979989E0,-1.487247467E0,1.231155246E-1
4.118085100E1,-1.155599952E0,-1.943755746E0,5.933595896E-1
4.120085256E1,-1.651203632E0,-6.901206374E-1,6.527357101E-1
4.122285100E1,-1.905096650E0,1.506952167E0,4.693888426E-1
4.124285100E1,-1.446476460E0,2.780396700E0,5.924171209E-1
4.126285100E1,-1.100238085E0,2.218819618E0,7.286749482E-1
4.128285100E1,-5.666385889E-1,-5.416978598E-1,5.599016324E-2
4.130285100E1,4.392993748E-1,7.850142121E-1,-3.585080802E-1
4.132285100E1,7.207511663E-1,2.570451021E0,1.276010275E-1
4.134285256E1,1.201763868E0,1.867606997E0,1.304982603E-1
4.136485100E1,3.338081837E0,-2.832843959E-1,-1.422617882E-1
4.138485100E1,4.863150597E0,-1.201362491E0,-3.027448058E-1
4.140485100E1,3.897075891E0,6.133959889E-1,-3.101275563E-1
4.142485100E1,3.088063478E0,1.830867887E0,7.815584540E-2
4.144485100E1,2.749504328E0,2.258037090E0,-4.262094200E-2
4.146485100E1,2.666671038E0,2.452397108E0,-5.641602278E-1
4.148485100E1,3.441841602E0,-7.682939619E-2,-9.973509312E-1
