"Time (s)","Linear Acceleration x (m/s^2)","Linear Acceleration y (m/s^2)","Linear Acceleration z (m/s^2)"
6.000000000E-3,3.402400017E0,-1.559000015E-1,-6.049999967E-2
2.600156200E-2,4.980000019E0,6.639999896E-2,1.777799964E0
4.600468700E-2,4.499799728E0,4.444999993E-1,2.177899837E0
7.600156200E-2,1.579100013E0,1.826999933E-1,2.935999930E-1
9.600156200E-2,5.230000019E-1,2.465999871E-1,3.255999982E-1
1.160015620E-1,9.225999713E-1,9.587000012E-1,5.196999907E-1
1.360015620E-1,-9.099999815E-2,1.663199902E0,7.006999850E-1
1.560015620E-1,-3.116999865E-1,1.849299908E0,8.446999788E-1
1.760015620E-1,6.769999862E-2,5.726999640E-1,-1.307999939E-1
1.960015620E-1,1.492699981E0,-1.809999906E-2,1.120999977E-1
2.160015620E-1,1.866699934E0,-2.987000048E-1,-4.636999965E-1
2.360015620E-1,1.664899945E0,-5.417999625E-1,-4.867999852E-1
2.560015620E-1,1.094399929E0,-7.367999554E-1,-1.129999995E0
2.760015620E-1,1.056399941E0,-2.462999970E-1,-8.912000060E-1
3.060000000E-1,7.953000069E-1,-1.842999905E-1,-6.620000005E-1
3.260000000E-1,2.578999996E-1,5.360999703E-1,1.144999936E-1
3.460000000E-1,-6.065999866E-1,1.309399962E0,1.533999890E-1
3.660000000E-1,-6.011999846E-1,7.324000001E-1,-7.099999487E-2
3.860015620E-1,2.963999808E-1,5.252999663E-1,-6.920000166E-2
4.160000000E-1,2.416999936E-1,1.629499912E0,6.270999908E-1
4.360015620E-1,1.207999960E-1,1.551399946E0,8.183999658E-1
4.560015620E-1,-1.371199965E0,1.268199921E0,1.190999970E-1
4.860015620E-1,3.800999820E-1,-7.157999873E-1,-8.805999756E-1
5.160015620E-1,1.413800001E0,-1.296599984E0,-1.843899965E0
5.360015620E-1,5.417000055E-1,-1.315999925E-1,-8.971999884E-1
5.560015620E-1,1.232200027E0,-1.265799999E0,-1.801499963E0
5.860000000E-1,2.053200006E0,-2.210899830E0,-3.489300013E0
6.060000000E-1,1.359799981E0,3.258000016E-1,8.693999648E-1
6.260000000E-1,-4.624999762E-1,2.298899889E0,3.051499844E0
6.460015620E-1,-2.513000011E0,1.769199967E0,1.062299967E0
6.660015620E-1,-2.824399948E0,1.499499917E0,9.908999801E-1
6.960015620E-1,-1.081499934E0,-4.158999920E-1,-7.129999995E-2
7.160015620E-1,-9.052000046E-1,-6.477999687E-1,-1.812599897E0
7.360093750E-1,-7.139999866E-1,6.304000020E-1,1.699000001E0
7.660031250E-1,1.522899985E0,3.697999954E0,5.184000134E-1
7.960015620E-1,7.696999907E-1,1.173099995E0,1.743000001E-1
8.260000000E-1,-3.257200003E0,4.919499874E0,2.429899931E0
8.460000000E-1,-3.337199926E0,1.880999953E-1,-8.788999915E-1
8.660000000E-1,-2.326900005E0,-2.932999849E0,-2.175899982E0
8.860000000E-1,-9.375000000E-1,-1.912599921E0,1.650999933E-1
9.060000000E-1,7.569999695E-1,-9.703999758E-1,1.254299998E0
9.260015620E-1,1.324699998E0,-3.208099842E0,1.507999897E-1
9.460015620E-1,1.595699906E0,-3.418599844E0,1.692699909E0
9.660015620E-1,5.144999623E-1,-3.024999797E-1,2.007099867E0
9.860015620E-1,-1.639000028E-1,7.145999670E-1,-2.746999860E-1
1.006001562E0,6.875999570E-1,1.618199944E0,-2.657699823E0
1.026001562E0,-2.430999875E-1,1.216499925E0,-8.080999851E-1
1.046001562E0,2.606000006E-1,-1.028999984E-1,-2.281899929E0
1.066001562E0,1.194599986E0,-1.307699919E0,1.174999997E-1
1.086001562E0,1.398199916E0,8.545999527E-1,1.694899917E0
1.106001562E0,2.626999855E0,5.691999793E-1,1.056499958E0
1.126001562E0,5.799999833E-2,-2.134999990E0,-1.074000001E0
1.146001562E0,6.621999741E-1,-2.302500010E0,-4.508000016E-1
1.166001562E0,3.420199871E0,-1.147300005E0,1.431800008E0
1.186001562E0,3.080199957E0,-6.186000109E-1,2.493199825E0
1.216001562E0,-1.022099972E0,7.313999534E-1,1.351499915E0
1.246000000E0,-6.850199699E0,5.699999630E-3,-2.074599981E0
1.266000000E0,-5.471099854E0,1.378099918E0,-7.752000093E-1
1.286001562E0,-3.254199982E0,3.251899958E0,6.855999827E-1
1.306001562E0,-2.461199999E0,1.198300004E0,-7.339000106E-1
1.326001562E0,1.027999997E0,-1.733199954E0,6.753000021E-1
1.356000000E0,4.008299828E0,-8.916999698E-1,3.723999858E-1
1.376000000E0,1.305499911E0,2.728999853E-1,-1.026099920E0
1.396001562E0,1.913399935E0,-2.317299843E0,9.681999683E-1
1.426000000E0,-2.863999903E-1,-1.956999898E0,-1.262499928E0
1.446000000E0,-1.030399919E0,-1.278299928E0,3.868999779E-1
1.466001562E0,-1.659999937E-1,-1.233600020E0,2.151099920E0
1.486001562E0,2.721000016E-1,3.583999872E-1,1.398299932E0
1.506001562E0,6.819999814E-1,4.364999831E-1,-7.234999537E-1
1.526001562E0,-8.145999908E-1,3.249999881E-1,-1.728399992E0
1.546001562E0,8.679999709E-1,6.563000083E-1,-6.775999665E-1
1.566001562E0,7.275999784E-1,-2.568999827E-1,-4.034999907E-1
1.586001562E0,-1.225999966E-1,3.649999946E-2,2.105000019E-1
1.606001562E0,-1.520999968E-1,3.592000008E-1,-7.114999890E-1
1.636000000E0,-7.935999632E-1,1.282199979E0,6.799999624E-2
1.656003125E0,-7.079999894E-2,2.215699911E0,6.190999746E-1
1.686001562E0,1.235000014E0,-9.925999641E-1,-3.689999878E-1
1.716001562E0,-1.457499981E0,-3.940000013E-2,8.119999766E-1
1.736001562E0,-9.055999517E-1,2.013200045E0,2.847000062E-1
1.766000000E0,8.399999738E-1,3.490399837E0,2.052999884E-1
1.786000000E0,1.024699926E0,2.370800018E0,-4.826999903E-1
1.806000000E0,-1.106999964E-1,1.899999976E-1,3.021000028E-1
1.826000000E0,-9.501999617E-1,-2.786099911E0,-2.427700043E0
1.846000000E0,-4.181999862E-1,-3.624799967E0,-6.243999600E-1
1.866000000E0,-8.259999752E-2,-1.379499912E0,4.423999786E-1
1.886000000E0,9.399999864E-3,-6.579999626E-2,4.307999909E-1
1.906000000E0,5.167999864E-1,2.666999996E-1,-6.999999881E-1
1.926000000E0,5.878999829E-1,6.187999845E-1,-8.010999560E-1
1.946000000E0,4.264999926E-1,9.598000050E-1,2.210999876E-1
1.966001562E0,-4.287999868E-1,1.307500005E0,6.108999848E-1
1.986001562E0,0.000000000E0,7.250999808E-1,1.289999951E-2
2.006001562E0,1.912999898E-1,-4.136999846E-1,1.579999924E-1
2.036001562E0,-2.502999902E-1,-5.029000044E-1,-9.835999608E-1
2.056001562E0,1.102999970E-1,-1.547999978E-1,-5.992999673E-1
2.076001562E0,4.113999903E-1,-3.755999804E-1,-8.940000087E-2
2.106001562E0,5.210999846E-1,-9.272999763E-1,8.245999813E-1
2.126001562E0,5.748000145E-1,-6.008999944E-1,5.166999698E-1
2.146001562E0,6.520000100E-2,-3.109999895E-1,-6.199999712E-3
2.176000000E0,8.269999921E-2,1.582999974E-1,-3.874999881E-1
2.196000000E0,3.836999834E-1,-6.469999999E-2,2.300000051E-3
2.216000000E0,9.599999525E-3,-5.435000062E-1,2.336999923E-1
2.236001562E0,-1.740999967E-1,-6.204999685E-1,-2.080000006E-2
2.256001562E0,-2.561999857E-1,-2.360999882E-1,-3.489999846E-2
2.286000000E0,1.109999977E-2,-6.701999903E-1,2.052000016E-1
2.306000000E0,4.138999879E-1,-3.181999922E-1,-5.823999643E-1
2.326001562E0,4.005999863E-1,-4.569999874E-2,1.080999970E-1
2.356000000E0,-6.099999696E-2,1.445000023E-1,-8.969999850E-2
2.376000000E0,-2.178999931E-1,1.472000033E-1,-2.569999918E-2
2.396000000E0,-2.969999984E-2,6.920000166E-2,2.329999954E-2
2.416000000E0,4.179999977E-2,-9.649999440E-2,-1.260000020E-1
2.436001562E0,-1.829999872E-2,-1.118000001E-1,-2.254000008E-1
2.466000000E0,-3.939999938E-1,4.355999827E-1,-1.621000022E-1
2.486000000E0,-6.371999979E-1,8.431999683E-1,1.341999918E-1
2.506000000E0,-2.843999863E-1,1.068499923E0,-6.678999662E-1
2.526000000E0,5.417000055E-1,1.300999969E-1,-8.046999574E-1
2.546000000E0,-1.764999926E-1,4.077999890E-1,2.922999859E-1
2.566000000E0,2.065999955E-1,2.479999959E-1,-3.454999924E-1
2.586000000E0,1.189700007E0,-1.061000004E-1,2.611999810E-1
2.606000000E0,8.885999918E-1,-1.223699927E0,9.086999893E-1
2.626000000E0,4.435999990E-1,-6.883999705E-1,9.538999796E-1
2.646001562E0,-4.425999820E-1,-4.186999798E-1,-1.719999872E-2
2.666001562E0,-6.818999648E-1,-1.771899939E0,-8.484999537E-1
2.696000000E0,-3.446999788E-1,1.335699916E0,-1.547099948E0
2.716000000E0,1.710999906E-1,8.079999685E-1,5.302999616E-1
2.736001562E0,-3.574999869E-1,8.395999670E-1,-1.481799960E0
2.766000000E0,2.369999886E-1,1.329999924E0,9.806999564E-1
2.786000000E0,2.175999880E-1,1.732999921E0,1.711799979E0
2.806000000E0,-3.519999981E-2,1.994300008E0,-1.586000025E-1
2.826000000E0,2.316999882E-1,2.095399857E0,-1.157599926E0
2.846000000E0,-8.500000089E-2,2.525899887E0,-1.108099937E0
2.866000000E0,-2.424999923E-1,2.288300037E0,-8.227999806E-1
2.886000000E0,9.957999587E-1,1.280300021E0,-1.421299934E0
2.906000000E0,5.099999718E-3,2.552799940E0,7.218999863E-1
2.926000000E0,1.159600019E0,1.670099974E0,1.606899977E0
2.946000000E0,1.368099928E0,3.822799921E0,-2.756199837E0
2.966001562E0,1.348500013E0,5.492899895E0,-3.886600018E0
2.996000000E0,1.829599977E0,5.473700047E0,-1.801499963E0
3.016000000E0,1.276600003E0,6.253699780E0,3.557499886E0
3.036001562E0,7.943999767E-1,6.191899776E0,4.183300018E0
3.056001562E0,6.178299904E0,-2.927079964E1,6.880999804E-1
3.076001562E0,-2.274399996E0,-3.419699860E1,-1.034199953E0
3.106000000E0,-7.360799789E0,7.216799736E0,-8.883999586E-1
3.126000000E0,-2.130599976E0,1.128259945E1,-1.483699918E0
3.146001562E0,7.890999913E-1,8.383099556E0,-3.306499958E0
3.166001562E0,6.460399628E0,-5.144999623E-1,-4.508399963E0
3.186001562E0,6.410199642E0,-5.624399662E0,-1.109499931E0
3.206001562E0,1.593599916E0,-3.333999813E-1,5.772500038E0
3.226001562E0,1.318199992E0,1.609999873E-2,1.227699995E0
3.256000000E0,-1.568000019E-1,7.419999838E-1,-1.071900010E0
3.276001562E0,-5.957999825E-1,4.134999812E-1,-1.069100022E0
3.306000000E0,-1.311800003E0,-3.139999807E-1,-5.085999966E-1
3.326001562E0,-1.294899940E0,1.607999951E-1,-6.292999983E-1
3.356000000E0,-2.439999953E-2,-1.861999929E-1,-4.754000008E-1
3.376001562E0,5.819000006E-1,3.723999858E-1,2.497999966E-1
3.406000000E0,8.551999927E-1,3.613999784E-1,5.782999992E-1
3.426001562E0,6.769999862E-1,3.902999759E-1,3.048999906E-1
3.456000000E0,1.308999956E-1,6.441999674E-1,-8.889999986E-2
3.476000000E0,-5.076999664E-1,4.928999841E-1,-8.829999715E-2
3.496000000E0,-1.005699992E0,-2.417999953E-1,3.422999978E-1
3.516000000E0,-1.183699965E0,-5.170999765E-1,6.875000000E-1
3.536000000E0,-1.565699935E0,2.770999968E-1,1.225700021E0
3.556000000E0,-1.190099955E0,1.059999969E-2,1.785499930E0
3.576000000E0,-1.069899917E0,5.425999761E-1,1.314299941E0
3.596000000E0,-8.673999906E-1,-6.642000079E-1,7.949000001E-1
3.616000000E0,-4.520999789E-1,-8.937000036E-1,7.865999937E-1
3.636000000E0,8.339999616E-2,-1.714999974E-1,6.398000121E-1
3.656000000E0,4.657000005E-1,5.069999769E-2,-5.109999701E-2
3.676000000E0,6.232999563E-1,-2.969000041E-1,-1.649999917E-1
3.696000000E0,6.566999555E-1,2.399999946E-1,5.424000025E-1
3.716000000E0,6.333999634E-1,7.798999548E-1,9.501999617E-1
3.736001562E0,2.735999823E-1,5.622999668E-1,7.155999541E-1
3.766000000E0,-8.628999591E-1,-8.750000000E-1,4.299999680E-3
3.786000000E0,-1.466399908E0,-6.665999889E-1,-2.815999985E-1
3.816000000E0,-1.311800003E0,-4.195999801E-1,1.997999996E-1
3.836000000E0,-1.279099941E0,3.790000081E-2,8.241999745E-1
3.856000000E0,-7.761999965E-1,-3.831999898E-1,1.283699989E0
3.876000000E0,-1.099799991E0,2.255999893E-1,1.902300000E0
3.896000000E0,-8.725999594E-1,-4.807999730E-1,1.824099898E0
3.916000000E0,-9.030999541E-1,-7.135999799E-1,1.569700003E0
3.936000000E0,-1.005800009E0,-9.709999710E-2,1.571499944E0
3.956000000E0,-8.533999920E-1,5.690000057E-1,1.159899950E0
3.976000000E0,-4.238999784E-1,1.048399925E0,6.730999947E-1
3.996000000E0,-5.409999937E-2,1.064399958E0,2.204999924E-1
4.016000000E0,2.992999852E-1,1.010599971E0,-5.949999765E-2
4.036000000E0,6.581000090E-1,6.588000059E-1,3.870999813E-1
4.056000000E0,5.807999969E-1,-3.431999981E-1,1.534199953E0
4.076000000E0,4.179999828E-1,-4.025000036E-1,6.563999653E0
4.096001562E0,-3.989999741E-2,-8.377999663E-1,3.622999907E0
4.126000000E0,-4.141999781E-1,-7.091999650E-1,1.072999954E0
4.146000000E0,4.300999939E-1,-1.539799929E0,1.999099970E0
4.166000000E0,1.036599994E0,-2.182899952E0,2.736599922E0
4.186007812E0,1.398699999E0,-2.275699854E0,3.415799856E0
4.216000000E0,1.134099960E0,-2.343199968E0,3.921399832E0
4.236001562E0,1.209999993E-1,-2.995800018E0,4.212599754E0
4.256001562E0,-5.083000064E-1,-5.413599968E0,5.612299919E0
4.286000000E0,-1.275799990E0,-5.740799904E0,6.380499840E0
4.306000000E0,-1.468599916E0,-4.763000011E0,4.375799656E0
4.326000000E0,-1.111899972E0,-1.748999953E0,2.232800007E0
4.346000000E0,1.591999978E-1,1.064999998E-1,-8.119999617E-2
4.366000000E0,1.649500012E0,-1.030000001E-1,7.299999893E-2
4.386000000E0,7.818999887E-1,-1.118499994E0,-3.871399879E0
4.406000000E0,-2.037999928E-1,-1.336899996E0,-3.613199949E0
4.426000000E0,-1.815000027E-1,-1.837700009E0,4.815999866E-1
4.446000000E0,4.039999843E-1,-1.729499936E0,1.900999904E0
4.466001562E0,-8.733999729E-1,-1.453699946E0,9.995999932E-1
4.496000000E0,-2.993700027E0,-5.620999932E-1,-1.799099922E0
4.516000000E0,-5.083999634E0,-1.416599989E0,-1.474799991E0
4.536000000E0,-6.782899857E0,-3.049299955E0,-2.422600031E0
4.556006250E0,-6.512099743E0,-2.689100027E0,-2.420099974E0
4.586000000E0,-1.074699998E0,7.854999900E-1,-3.877899885E0
4.606001562E0,4.790000021E-1,3.389099836E0,-6.140899658E0
4.636000000E0,1.712999940E0,5.572999954E0,-6.353699684E0
4.656000000E0,1.453999996E0,5.429399967E0,-5.185400009E0
4.676000000E0,7.294999957E-1,5.244199753E0,-4.437299728E0
4.696000000E0,-1.030999944E-1,4.850399971E0,-3.938099861E0
4.716000000E0,-1.077000022E0,4.787099838E0,-2.836499929E0
4.736000000E0,-7.644000053E-1,2.974799871E0,-9.640000015E-2
4.756000000E0,9.029999971E-1,-1.287699938E0,4.744999886E0
4.776000000E0,1.656199932E0,-6.628399849E0,1.377279949E1
4.796000000E0,1.175999939E-1,-6.961299896E0,1.717720032E1
4.816000000E0,-2.509299994E0,-3.519999981E-1,4.910399914E0
4.836000000E0,-4.401999950E0,4.092499733E0,1.007399917E0
4.856000000E0,-2.561800003E0,-5.306000113E-1,-5.688999653E0
4.876000000E0,-6.797999740E-1,-2.967399836E0,-1.650189972E1
4.896000000E0,2.218400002E0,-3.026599884E0,-1.115730000E1
4.916000000E0,8.356499672E0,-5.025599957E0,8.980699539E0
4.936000000E0,6.694200039E0,5.049999952E-1,-4.964900017E0
4.956000000E0,5.221399784E0,1.527899981E0,-9.467999458E0
4.976000000E0,3.404799938E0,1.976999938E-1,-3.470799923E0
4.996000000E0,-3.570999801E-1,-6.969999671E-1,-5.593699932E0
5.016000000E0,-3.789499998E0,-1.387399912E0,-6.595699787E0
5.036000000E0,-5.386399746E0,-3.943499804E0,-5.236299992E0
5.056000000E0,-4.602099895E0,-2.123199940E0,-2.199100018E0
5.076000000E0,-3.058300018E0,2.628999949E-1,-4.627999961E-1
5.096000000E0,-2.170599937E0,2.444000006E0,1.051100016E0
5.116000000E0,-1.730999947E0,2.884799957E0,3.454599857E0
5.136000000E0,-1.262899995E0,2.112200022E0,3.802699804E0
5.156000000E0,-1.380199909E0,1.658599973E0,1.111099958E0
5.176000000E0,-1.138800025E0,9.053999782E-1,-1.188899994E0
5.196000000E0,-4.452999830E-1,6.128000021E-1,-1.409999933E-2
5.216000000E0,7.909999788E-2,5.590000153E-1,2.883399963E0
5.236000000E0,1.715999991E-1,-1.322000027E-1,3.492799997E0
5.256000000E0,8.287000060E-1,-1.791399956E0,5.095699787E0
5.286000000E0,5.859999657E-1,-2.980700016E0,8.899099350E0
5.306000000E0,-4.867999852E-1,-3.674499989E0,8.182099342E0
5.326000000E0,-1.653999925E0,-4.811299801E0,4.857199669E0
5.346000000E0,-2.840499878E0,-5.360699654E0,3.578899860E0
5.366000000E0,-1.896099925E0,-6.512099743E0,5.761600018E0
5.386000000E0,1.799999923E-1,-5.357999802E0,1.156919956E1
5.406000000E0,1.346499920E0,-3.172199965E0,8.876500130E0
5.426000000E0,6.304999590E-1,-2.392899990E0,-4.296199799E0
5.446000000E0,-5.173999667E-1,-3.349499941E0,-6.988199711E0
5.466000000E0,-1.358999908E-1,-5.422699928E0,-5.280900002E0
5.486000000E0,2.110899925E0,-7.954299927E0,-3.989499807E0
5.506000000E0,5.237499714E0,-8.289799690E0,9.159699440E0
5.526000000E0,2.098199844E0,-2.878599882E0,-1.879999995E0
5.546000000E0,7.306999564E-1,1.754400015E0,-3.869499922E0
5.566000000E0,3.558000028E-1,2.490099907E0,-3.228600025E0
5.586000000E0,-8.823999763E-1,2.603999853E0,-4.966099739E0
5.606000000E0,-3.328500032E0,2.973699808E0,-6.228899956E0
5.626000000E0,-6.053499699E0,2.982899904E0,-7.821300030E0
5.646000000E0,-4.819999695E0,2.792500019E0,-7.689699650E0
5.666000000E0,-2.832799911E0,3.759999990E0,-8.789799690E0
5.686000000E0,-2.208199978E0,5.210299969E0,-9.478499413E0
5.706000000E0,-2.882799864E0,6.118799686E0,-8.454699516E0
5.736000000E0,-2.916599989E0,5.274600029E0,-3.341199875E0
5.756000000E0,-2.743999958E0,3.599599838E0,1.247799993E0
5.776000000E0,1.731999993E0,-2.389600039E0,9.435799599E0
5.796000000E0,7.226099968E0,-1.108139992E1,1.428629971E1
5.816000000E0,7.317100048E0,-1.052499962E1,1.490100002E1
5.836000000E0,2.912799835E0,-1.359699965E0,2.203199863E0
5.856000000E0,1.500399947E0,2.773999870E-1,-3.812399864E0
5.876000000E0,6.837999821E-1,-2.660500050E0,-2.745999813E0
5.896000000E0,9.212999940E-1,-4.857999802E0,-8.784299850E0
5.916000000E0,1.754699945E0,-3.661000013E0,-3.454999924E0
5.936000000E0,3.865999877E-1,3.679099798E0,-4.201499939E0
5.956000000E0,1.899299979E0,2.307100058E0,-1.036110020E1
5.976000000E0,7.627999783E-1,3.910999894E-1,-7.832599640E0
5.996000000E0,-1.152300000E0,-1.599099994E0,-7.415799618E0
6.016000000E0,-4.251199722E0,-3.556399822E0,-8.119500160E0
6.036000000E0,-5.295099735E0,-3.776700020E0,-4.802299976E0
6.056000000E0,-4.174399853E0,-1.155200005E0,-1.508000016E0
6.076000000E0,-3.689899921E0,2.443099976E0,-2.275999933E-1
6.096000000E0,-2.376499891E0,3.955099821E0,1.114599943E0
6.116000000E0,-1.425199986E0,2.003900051E0,9.782999754E-1
6.136000000E0,-5.816000104E-1,4.224999845E-1,5.674699783E0
6.156000000E0,8.374999762E-1,-1.239999980E-1,1.003669930E1
6.176000000E0,1.548900008E0,2.510000020E-2,3.561800003E0
6.196000000E0,1.059800029E0,3.847000003E-1,-1.484399915E0
6.216000000E0,-1.026600003E0,6.513999701E-1,-2.083299875E0
6.236000000E0,-1.602399945E0,1.221300006E0,3.811999857E-1
6.256000000E0,-9.969999790E-1,3.055999875E-1,1.189100027E0
6.276000000E0,-3.601999879E-1,-1.641799927E0,2.463899851E0
6.296000000E0,1.295499921E0,-3.320400000E0,1.393589973E1
6.316000000E0,5.909000039E-1,-4.356899738E0,8.454400063E0
6.336000000E0,-1.510199904E0,-3.859099865E0,9.781999588E-1
6.356000000E0,-1.276099920E0,-2.331899881E0,9.073999524E-1
6.376000000E0,1.065799952E0,-5.544600010E0,6.499099731E0
6.396000000E0,2.276599884E0,-4.732500076E0,1.105280018E1
6.416000000E0,3.698599815E0,-3.263099909E0,1.137570000E1
6.436000000E0,2.668999910E0,-1.423599958E0,4.205500126E0
6.456000000E0,-3.114999831E-1,-1.544699907E0,-7.680799961E0
6.476000000E0,-3.411999941E-1,-4.712500095E0,-7.174999714E0
6.496000000E0,6.214999557E-1,-7.138000011E0,-5.202699661E0
6.516000000E0,3.493399858E0,-8.503799438E0,6.111199856E0
6.536000000E0,3.931999922E0,-5.707299709E0,1.254799962E0
6.556000000E0,2.005199909E0,-7.383999825E-1,-3.447499990E0
6.576000000E0,4.649999738E-1,1.671000004E0,-3.278699875E0
6.596000000E0,4.348999858E-1,1.813699961E0,-2.939499855E0
6.616000000E0,-7.881000042E-1,1.908199906E0,-5.612599850E0
6.636000000E0,-3.552899837E0,2.767499924E0,-7.188799858E0
6.656000000E0,-5.726799965E0,3.159299850E0,-7.099899769E0
6.676000000E0,-4.332499981E0,3.360499859E0,-7.525099754E0
6.696000000E0,-4.055799961E0,4.629399776E0,-8.994799614E0
6.716000000E0,-4.297999859E0,6.501199722E0,-9.691899300E0
6.736000000E0,-3.715299845E0,6.504699707E0,-7.642299652E0
6.756000000E0,-3.356799841E0,6.032499790E0,-3.430599928E0
6.776003125E0,-3.004499912E0,4.058300018E0,1.331599951E0
6.806000000E0,6.272899628E0,-7.205599785E0,1.499650002E1
6.826000000E0,1.069789982E1,-1.322839928E1,1.830010033E1
6.846000000E0,5.683199883E0,-3.786999941E0,9.222399712E0
6.866000000E0,-1.110800028E0,3.657399893E0,-2.731199980E0
6.886000000E0,-1.939999908E-1,1.336799979E0,-9.994999766E-1
6.906000000E0,1.118199944E0,-1.825799942E0,-1.317799950E1
6.926000000E0,1.938699961E0,-4.402699947E0,-1.012150002E1
6.946000000E0,1.733199954E0,-4.054299831E0,2.107599974E0
6.966000000E0,3.399399996E0,-1.115199924E0,-2.433599949E0
6.986000000E0,2.018699884E0,-5.299000144E-1,-9.492099762E0
7.006000000E0,-4.942999780E-1,-1.537400007E0,-7.462800026E0
7.026000000E0,-3.745800018E0,-3.521899939E0,-6.934000015E0
7.046000000E0,-5.114899635E0,-3.442499876E0,-5.210199833E0
7.066000000E0,-3.806899786E0,-2.481899977E0,-2.412999868E0
7.086000000E0,-3.267099857E0,2.008499861E0,-9.588999748E-1
7.106000000E0,-3.119999886E0,6.620100021E0,-1.572999954E-1
7.126000000E0,-1.373700023E0,5.495100021E0,4.702999890E-1
7.146000000E0,-4.391999841E-1,3.103399992E0,9.942999482E-1
7.166000000E0,-2.687999904E-1,-1.241999939E-1,5.568999648E-1
7.186000000E0,4.759999812E-1,-1.945099950E0,5.270299911E0
7.206000000E0,1.252699971E0,2.198999971E-1,5.676399708E0
7.226000000E0,2.091699839E0,-3.658999801E-1,2.106400013E0
7.246000000E0,2.466999888E-1,8.829999715E-2,-5.004000068E-1
7.275998437E0,-3.492999971E-1,-1.097599983E0,7.356400013E0
7.296000000E0,-2.751999795E-1,-2.537699938E0,1.131849957E1
7.316000000E0,-7.520999908E-1,-3.461499929E0,5.503099918E0
7.336000000E0,-1.180899978E0,-3.416299820E0,3.873499870E0
7.356000000E0,-7.494999766E-1,-3.801999807E0,4.566899776E0
7.376000000E0,7.066000104E-1,-3.685400009E0,4.941899776E0
7.396000000E0,1.702399969E0,-6.085599899E0,5.181200027E0
7.416000000E0,2.433699846E0,-5.098499775E0,1.394429970E1
7.436000000E0,1.208400011E0,-4.050600052E0,8.347899437E0
7.456000000E0,-9.268999696E-1,-2.545599937E0,-6.794799805E0
7.476000000E0,-2.252500057E0,-4.363500118E0,-5.384599686E0
7.496000000E0,-1.110499978E0,-6.677599907E0,-5.595200062E0
7.516000000E0,6.140999794E-1,-7.193599701E0,-5.266099930E0
7.536000000E0,2.782699823E0,-6.962499619E0,8.450799942E0
7.556000000E0,1.611400008E0,-3.596400023E0,3.731999993E-1
7.576000000E0,1.216199994E0,-7.611999512E-1,-2.424700022E0
7.596000000E0,9.702000022E-1,1.198699951E0,-3.752599955E0
7.616000000E0,-1.737999916E-1,2.853600025E0,-4.758100033E0
7.636000000E0,-2.638499975E0,3.197499990E0,-6.420599937E0
7.656000000E0,-4.559799671E0,3.467099905E0,-7.410299778E0
7.676000000E0,-3.828799963E0,3.152499914E0,-7.117699623E0
7.696000000E0,-3.382099867E0,3.972499847E0,-7.905699730E0
7.716000000E0,-3.477900028E0,5.255399704E0,-9.845600128E0
7.736000000E0,-3.833199978E0,6.076499939E0,-1.032719994E1
7.756000000E0,-3.639699936E0,6.363899708E0,-7.230299950E0
7.776000000E0,-3.809099913E0,5.692199707E0,-3.257099867E0
7.796000000E0,-9.707999825E-1,1.480700016E0,2.417199850E0
7.816000000E0,5.882599831E0,-7.277899742E0,9.913499832E0
7.836000000E0,1.103639984E1,-1.542169952E1,2.491489983E1
7.856000000E0,3.811699867E0,-4.046799660E0,8.938099861E0
7.876000000E0,-6.618999839E-1,2.303400040E0,-2.906499863E0
7.896000000E0,2.502000034E-1,1.772999913E-1,1.531999946E0
7.916000000E0,-8.220999837E-1,-3.625999928E0,-9.892999649E0
7.936000000E0,7.232999802E-1,-4.700500011E0,-8.905399323E0
7.956000000E0,1.145900011E0,-3.305799961E0,7.312500000E0
7.976004687E0,6.213999987E-1,3.343299866E0,-4.862899780E0
8.006000000E0,3.138999939E-1,2.198600054E0,-7.394700050E0
8.026000000E0,-1.067999959E0,-1.662299991E0,-6.352399826E0
8.046000000E0,-4.075599670E0,-3.860299826E0,-5.168200016E0
8.066000000E0,-4.134200096E0,-2.529000044E0,-2.667699814E0
8.086000000E0,-3.224799871E0,-1.844999939E-1,-1.705999970E0
8.106000000E0,-2.928099871E0,2.975899935E0,-1.026799917E0
8.126000000E0,-2.332099915E0,3.599499941E0,4.948999882E-1
8.146000000E0,-1.338699937E0,1.906299949E0,7.555999756E-1
8.166000000E0,-6.588999629E-1,1.531599998E0,5.669300079E0
8.186000000E0,-8.630000055E-2,8.051999807E-1,4.200500011E0
8.206000000E0,1.424199939E0,-2.867999971E-1,1.928499937E0
8.226000000E0,1.712299943E0,8.082999587E-1,1.643799901E0
8.246000000E0,9.635999799E-1,1.180999994E0,-4.813999832E-1
8.266000000E0,3.136000037E-1,1.193499923E0,-7.931999564E-1
8.286000000E0,1.335999966E-1,-3.601000011E-1,1.041499972E0
8.306000000E0,8.676999807E-1,-2.325299978E0,6.355199814E0
8.326000000E0,1.277099967E0,-2.960999966E0,9.680699348E0
8.346000000E0,-3.507999778E-1,-3.020699978E0,6.657899857E0
8.366000000E0,-2.269899845E0,-3.877099991E0,5.210000038E0
8.386000000E0,-1.663399935E0,-4.085999966E0,4.247699738E0
8.406000000E0,-8.929999918E-2,-7.390899658E0,5.528100014E0
8.426000000E0,5.349999666E-1,-6.701499939E0,1.333509922E1
8.446000000E0,-9.499999881E-1,-5.052799702E0,3.594799995E0
8.466000000E0,-1.354200006E0,-1.208899975E0,-1.104799986E0
8.486000000E0,-1.048000008E-1,-3.590799809E0,-3.561800003E0
8.506000000E0,4.874999821E-1,-5.342799664E0,-5.273099899E0
8.526000000E0,2.424099922E0,-6.117899895E0,-5.053800106E0
8.546000000E0,4.359999657E0,-4.922899723E0,2.332299948E0
8.566000000E0,5.362299919E0,-2.470499992E0,1.923399925E0
8.596000000E0,3.155900002E0,1.433599949E0,-2.158999920E0
8.616000000E0,1.476599932E0,2.577199936E0,-2.243299961E0
8.636000000E0,1.096999943E-1,2.524399996E0,-3.910199881E0
8.656000000E0,-2.395200014E0,1.449299932E0,-5.634599686E0
8.676001562E0,-4.996900082E0,7.387999892E-1,-7.398200035E0
8.706000000E0,-4.375999928E0,9.065999985E-1,-7.068199635E0
8.726000000E0,-2.717599869E0,2.829499960E0,-7.990399837E0
8.746000000E0,-2.868799925E0,5.027199745E0,-7.625399590E0
8.766000000E0,-3.195299864E0,6.238800049E0,-6.127999783E0
8.786000000E0,-3.305500031E0,6.807299614E0,-3.220299959E0
8.806000000E0,-2.758800030E0,6.741299629E0,-2.736999989E-1
8.826000000E0,-8.754000068E-1,3.454799891E0,4.337399960E0
8.846000000E0,3.988199949E0,-4.062799931E0,7.326399803E0
8.866000000E0,9.368700027E0,-1.341650009E1,1.432789993E1
8.886000000E0,5.544799805E0,-5.497499943E0,1.003559971E1
8.906000000E0,1.768799901E0,6.780000031E-2,-1.353999972E-1
8.926000000E0,4.655999839E-1,-3.789999783E-1,-2.837599993E0
8.946000000E0,5.338999629E-1,-3.880800009E0,-8.205800056E0
8.966000000E0,1.254299998E0,-5.185699940E0,-5.897500038E0
8.986000000E0,1.514299989E0,-1.146000028E0,1.805499911E0
9.006000000E0,-4.649999738E-2,1.959599972E0,-7.039999962E0
9.026000000E0,-9.235000014E-1,7.141999602E-1,-7.472099781E0
9.046000000E0,-2.102699995E0,-1.210099936E0,-7.099099636E0
9.066000000E0,-4.150599957E0,-2.233199835E0,-6.381399632E0
9.086003125E0,-4.512399673E0,-1.812699914E0,-3.045199871E0
9.116000000E0,-3.257699966E0,6.621999741E-1,-2.309999913E-1
9.136000000E0,-2.835700035E0,3.533599854E0,2.509000003E-1
9.156001562E0,-1.406199932E0,3.343099833E0,5.957999825E-1
9.186001562E0,-1.045899987E0,1.452399969E0,9.316999912E-1
9.206001562E0,1.659999974E-2,2.451999933E-1,7.233899593E0
9.236000000E0,2.116999865E0,-8.066999912E-1,5.197599888E0
9.256001562E0,1.059999943E0,4.163999856E-1,1.054799914E0
9.286000000E0,-4.279999807E-2,1.570999980E0,-2.551999986E-1
9.306000000E0,-2.662000060E-1,5.891000032E-1,9.401999712E-1
9.326000000E0,4.120999873E-1,-1.368600011E0,1.160499930E0
9.346000000E0,2.727999985E-1,-2.239500046E0,2.349299908E0
9.366000000E0,2.532999814E-1,-3.193099976E0,1.106229973E1
9.386007812E0,-4.438000023E-1,-5.050799847E0,1.182590008E1
9.416000000E0,-1.561999917E0,-3.756199837E0,4.111400127E0
9.436000000E0,4.044999778E-1,-5.903399944E0,5.786499977E0
9.456000000E0,-5.779999867E-2,-5.758100033E0,6.942599773E0
9.476000000E0,3.510999978E-1,-4.309400082E0,1.078409958E1
9.496000000E0,1.308399916E0,-3.216599941E0,4.111599922E0
9.516000000E0,2.087999880E-1,-3.671000004E0,-5.386799812E0
9.536000000E0,7.488999963E-1,-5.313499928E0,-7.231199741E0
9.556000000E0,1.279099941E0,-6.066899776E0,-5.978199959E0
9.576000000E0,1.605999947E0,-5.823499680E0,2.012300014E0
9.596000000E0,3.235100031E0,-5.174200058E0,4.222700119E0
9.616000000E0,9.790999889E-1,-1.836599946E0,-2.508899927E0
9.636000000E0,4.669999704E-2,6.079999804E-1,-2.543400049E0
9.656000000E0,-8.007000089E-1,1.401000023E0,-3.983699799E0
9.676000000E0,-2.003999949E0,1.134699941E0,-5.679499626E0
9.696000000E0,-3.934899807E0,1.600499988E0,-6.334499836E0
9.716000000E0,-5.914199829E0,1.910699964E0,-7.391399860E0
9.736000000E0,-3.691900015E0,3.131399870E0,-7.788300037E0
9.756000000E0,-2.855299950E0,4.913099766E0,-8.879399300E0
9.776000000E0,-3.174299955E0,5.936899662E0,-9.048399925E0
9.796000000E0,-3.178099871E0,6.148099899E0,-7.276499748E0
9.816000000E0,-2.892699957E0,6.148999691E0,-4.461899757E0
9.836000000E0,-2.554100037E0,5.765299797E0,-6.166999936E-1
9.856000000E0,-7.019000053E-1,2.362299919E0,3.174000025E0
9.876000000E0,5.225999832E0,-5.346099854E0,8.235300064E0
9.896000000E0,8.976200104E0,-1.341069984E1,1.733729935E1
9.916000000E0,5.039400101E0,-4.318200111E0,8.794899940E0
9.936000000E0,9.261999726E-1,1.248700023E0,1.361400008E0
9.956000000E0,-4.833999872E-1,-5.023999810E-1,-2.053499937E0
9.976000000E0,6.571999788E-1,-3.324599981E0,-1.193970013E1
9.996000000E0,1.790300012E0,-5.365599632E0,-8.178999901E0
1.001600000E1,1.560999990E0,-1.895699978E0,4.461199760E0
1.003600000E1,4.932999909E-1,8.695999980E-1,-7.852399826E0
1.005600000E1,-1.283299923E0,1.114000008E-1,-8.556099892E0
1.007600000E1,-3.088699818E0,-2.479799986E0,-6.644799709E0
1.009600000E1,-5.379600048E0,-2.292199850E0,-5.103399754E0
1.011600000E1,-4.732599735E0,-2.000999928E0,-2.799399853E0
1.013600000E1,-3.472499847E0,9.349999577E-2,-8.945999742E-1
1.015600156E1,-3.503799915E0,3.380800009E0,-2.026999891E-1
1.018600156E1,-2.045699835E0,3.856199980E0,1.088500023E0
1.020600156E1,-1.274399996E0,2.202800035E0,1.026700020E0
1.023600000E1,-1.309000015E0,-1.912999898E-1,8.536999822E-1
1.025600156E1,-2.962000072E-1,-4.273999929E-1,5.621299744E0
1.027600156E1,3.152599812E0,-1.336099982E0,7.188199997E0
1.030600000E1,2.065000057E0,7.415999770E-1,-1.196699977E0
1.032600000E1,1.396999955E-1,5.169999599E-1,-1.286000013E0
1.034600000E1,-2.577999830E-1,-9.483000040E-1,8.580999970E-1
1.036600000E1,3.576999903E-1,-3.184199810E0,7.539399624E0
1.038600312E1,5.817999840E-1,-3.768199921E0,1.008160019E1
1.041600156E1,-1.376999915E-1,-3.485899925E0,6.891699791E0
1.044600000E1,-9.733999968E-1,-4.447899818E0,7.164499760E0
1.046600000E1,-1.723799944E0,-4.945199966E0,6.528199673E0
1.048600000E1,5.756999850E-1,-4.033299923E0,9.989199638E0
1.050600000E1,2.441400051E0,-3.386099815E0,3.809799910E0
1.052600156E1,7.138999701E-1,-3.313699961E0,-4.366499901E0
1.055600000E1,5.060999990E-1,-6.927299976E0,-7.970699787E0
1.057602344E1,1.265499949E0,-7.301099777E0,-5.447000027E0
1.060600156E1,3.717099905E0,-5.689499855E0,4.931299686E0
1.063600156E1,7.414999604E-1,6.902999878E-1,-4.463399887E0
1.066600000E1,7.919999957E-1,1.749799967E0,-4.741799831E0
1.068600000E1,4.372999966E-1,2.041300058E0,-5.542900085E0
1.070600000E1,-1.805400014E0,2.672399998E0,-6.410599709E0
1.072600000E1,-3.322999954E0,3.013599873E0,-7.653999805E0
1.074600000E1,-2.754099846E0,3.240399837E0,-8.609399796E0
1.076600000E1,-2.645400047E0,4.460400105E0,-8.903599739E0
1.078600000E1,-3.045199871E0,5.629999638E0,-8.691900253E0
1.080600000E1,-3.836699963E0,6.481799603E0,-6.787799835E0
1.082600000E1,-4.073699951E0,6.820399761E0,-3.501299858E0
1.084600000E1,-3.066099882E0,4.938600063E0,1.770399928E0
1.086600000E1,2.084499836E0,-1.569999941E-2,8.477899551E0
1.088600000E1,8.278200150E0,-8.119299889E0,1.407240009E1
1.090600000E1,9.013999939E0,-1.090450001E1,1.083559990E1
1.092600000E1,5.759999752E-1,-1.646299958E0,1.339699984E0
1.094600000E1,-2.530499935E0,4.128299713E0,2.274999917E-1
1.096600000E1,-8.213999867E-1,2.902999818E-1,-2.589099884E0
1.098600000E1,1.009299994E0,-2.112900019E0,-1.242639923E1
1.100600000E1,1.893599987E0,-5.177299976E0,-8.191699982E0
1.102600156E1,4.018499851E0,-5.452300072E0,5.227699757E0
1.104600156E1,6.714999676E-1,-2.717900038E0,-6.114599705E0
1.107600000E1,-3.944399834E0,-1.487900019E0,-6.885900021E0
1.109600000E1,-4.465499878E0,-2.238999844E0,-4.575099945E0
1.111600156E1,-3.724299908E0,-1.928599954E0,-3.306299925E0
1.114600000E1,-3.235100031E0,7.486000061E-1,-1.488199949E0
1.116600000E1,-3.070899963E0,4.468199730E0,-1.553399920E0
1.118600156E1,-1.792799950E0,5.421400070E0,-2.320499897E0
1.121600156E1,-5.931999683E-1,1.707999945E0,-4.681999981E-1
1.124600000E1,1.657999903E-1,-1.281700015E0,3.060699940E0
1.126600000E1,7.694999576E-1,-3.463999927E-1,8.374499321E0
1.128600000E1,2.050999880E0,2.389999852E-2,4.104799747E0
1.130600000E1,1.057500005E0,1.046000004E0,5.249999836E-2
1.132600000E1,-3.799999952E-1,8.780999780E-1,2.119499922E0
1.134600156E1,4.960999787E-1,-3.075000048E-1,3.922599792E0
1.137600000E1,7.472999692E-1,-6.177999973E-1,-5.500000119E-1
1.139600000E1,-2.410000004E-2,-9.113000035E-1,5.529999733E-2
1.141600000E1,-1.085600019E0,-2.135900021E0,4.706500053E0
1.143600000E1,-2.372599840E0,-4.003999710E0,6.953799725E0
1.145600000E1,-2.325000048E0,-3.575299978E0,5.584699631E0
1.147600000E1,-9.628999829E-1,-3.601599932E0,9.507599831E0
1.149600000E1,9.519999474E-2,-5.873099804E0,1.130700016E1
1.151600000E1,1.024699926E0,-4.246099949E0,1.111240005E1
1.153600000E1,2.845299959E0,-3.082000017E0,1.029510021E1
1.155600000E1,1.034299970E0,-3.730999947E0,1.340999901E-1
1.157600781E1,-1.180799961E0,-6.656699657E0,-6.285399914E0
1.160600000E1,2.870999873E-1,-7.924799919E0,-7.336299896E0
1.162600000E1,1.848099947E0,-8.856399536E0,6.280499935E0
1.164600000E1,4.305699825E0,-7.114999771E0,3.232499838E0
1.166600000E1,3.126699924E0,-1.785099983E0,-4.844999790E0
1.168600000E1,1.590099931E0,2.041300058E0,-4.664099693E0
1.170600000E1,1.866400003E0,1.388599992E0,-4.376999855E0
1.172600156E1,3.695999980E-1,1.834999919E0,-5.075999737E0
1.175600000E1,-3.760999918E0,3.352499962E0,-7.283699989E0
1.177600000E1,-3.546999931E0,4.651999950E0,-9.659899712E0
1.179600000E1,-3.293999910E0,5.980000019E0,-1.013210011E1
1.181600000E1,-4.348400116E0,7.199899673E0,-9.190599442E0
1.183600000E1,-4.551599979E0,7.106799603E0,-8.075200081E0
1.185600000E1,-3.738600016E0,6.736199856E0,-5.432499886E0
1.187600000E1,-3.124799967E0,4.354899883E0,-4.905999899E-1
1.189600000E1,1.999799967E0,-1.950699925E0,1.127219963E1
1.191600000E1,1.102909946E1,-1.096809959E1,1.859269905E1
1.193600000E1,8.998799324E0,-8.835899353E0,1.032769966E1
1.195600156E1,9.265999794E-1,-5.475999713E-1,2.784000039E-1
1.198600156E1,-1.403699994E0,8.331999779E-1,-2.263299942E0
1.201600000E1,1.981199980E0,-3.864799976E0,-1.150319958E1
1.203600000E1,3.264899969E0,-5.518899918E0,-1.737999916E-1
1.205600000E1,3.406800032E0,-1.434199929E0,-2.095900059E0
1.207600000E1,8.798999786E-1,7.700999975E-1,-1.137639999E1
1.209600000E1,-1.079399943E0,-1.536499977E0,-8.647899628E0
1.211600000E1,-2.453500032E0,-3.212399960E0,-6.992599964E0
1.213600000E1,-5.235300064E0,-2.947700024E0,-5.242300034E0
1.215600000E1,-4.150099754E0,-2.468499899E0,-2.719099998E0
1.217600156E1,-3.044899940E0,-2.617999911E-1,-6.462999582E-1
1.220600000E1,-2.322799921E0,4.969399929E0,9.610999823E-1
1.222600000E1,-9.580999613E-1,3.482899904E0,1.722700000E0
1.224600156E1,-5.184999704E-1,2.153399944E0,2.669199944E0
1.227600000E1,2.924999893E-1,2.581999898E-1,1.956499934E0
1.229600000E1,1.396199942E0,-1.967999935E-1,4.625999928E-1
1.231600000E1,7.884999514E-1,1.003299952E0,5.253999829E-1
1.233600000E1,-4.582999945E-1,1.559199929E0,1.323199987E0
1.235600000E1,1.664000005E-1,-1.159299970E0,4.458699703E0
1.237600000E1,6.790000200E-2,-3.398499966E0,6.320899963E0
1.239600000E1,-1.026000023E0,-2.758299828E0,6.523799896E0
1.241600000E1,9.409999847E-1,-3.536099911E0,1.027769947E1
1.243600000E1,9.220999479E-1,-4.107199669E0,7.797999859E0
1.245600156E1,-4.350000024E-1,-3.805399895E0,4.423999786E0
1.248600000E1,-1.859999895E-1,-5.592499733E0,6.679199696E0
1.250600000E1,1.475999951E0,-4.102299690E0,1.046990013E1
1.252600156E1,3.197599888E0,-3.501699924E0,9.311399460E0
1.255600000E1,-1.049600005E0,-5.013199806E0,-8.145400047E0
1.257600156E1,-9.389999509E-2,-8.223999977E0,-8.475899696E0
1.260600000E1,2.021299839E0,-7.014999866E0,-4.999099731E0
1.262600000E1,5.883499622E0,-7.010699749E0,1.118959999E1
1.264600000E1,4.361599922E0,-1.517099977E0,-3.042899847E0
1.266600000E1,2.957099915E0,1.306199908E0,-4.003600121E0
1.268600000E1,2.015199900E0,2.184499979E0,-4.185899734E0
1.270600000E1,3.607999980E-1,2.190299988E0,-5.933399677E0
1.272600000E1,-4.081599712E0,2.841799974E0,-6.442999840E0
1.274600000E1,-7.436599731E0,2.854399920E0,-7.518499851E0
1.276600000E1,-4.700999737E0,2.997599840E0,-8.416600227E0
1.278600000E1,-3.804399967E0,4.848399639E0,-9.963699341E0
1.280600000E1,-3.792299986E0,5.841199875E0,-1.027659988E1
1.282600000E1,-3.440500021E0,6.463199615E0,-8.200499535E0
1.284600000E1,-3.542899847E0,6.749499798E0,-4.807300091E0
1.286600000E1,-2.772099972E0,4.762899876E0,3.581999838E-1
1.288600000E1,2.657999992E0,-1.612999916E0,1.252670002E1
1.290600000E1,9.619999886E0,-8.592100143E0,1.734919930E1
1.292600000E1,8.003399849E0,-8.766799927E0,9.282400131E0
1.294600000E1,2.327699900E0,-2.224799871E0,2.112499952E0
1.296600000E1,7.274999619E-1,-1.558699965E0,-9.663999677E-1
1.298600000E1,-2.831999958E-1,-3.160300016E0,-4.112599850E0
1.300600000E1,1.469099998E0,-2.891799927E0,-7.698400021E0
1.302600000E1,1.439999938E0,1.987999976E-1,-5.387599945E0
1.304600000E1,1.644999981E0,7.665999532E-1,-5.337500095E0
1.306600000E1,1.594299912E0,-8.612999916E-1,-7.013099670E0
1.308600000E1,-4.176999927E-1,-3.029899836E0,-7.218499660E0
1.310600000E1,-3.909399986E0,-2.432600021E0,-8.264900208E0
1.312600000E1,-4.481400013E0,-2.944399834E0,-4.684000015E0
1.314600000E1,-3.793699980E0,-1.245000005E0,-1.490700006E0
1.316600000E1,-3.294099808E0,1.177600026E0,3.339999914E-1
1.318600156E1,-3.027899981E0,4.445300102E0,1.082999945E0
1.321600000E1,-1.001799941E0,2.492499828E0,1.478099942E0
1.323600000E1,-1.152799964E0,9.225999713E-1,1.413100004E0
1.325600000E1,-2.648999989E-1,6.230999827E-1,6.949199677E0
1.327600000E1,4.955999851E-1,-3.605999947E-1,1.152999997E0
1.329600000E1,1.504899979E0,-3.075000048E-1,-4.592999816E-1
1.331600000E1,9.699999690E-1,1.174299955E0,2.373800039E0
1.333600000E1,9.422000051E-1,1.550000012E-1,3.927799940E0
1.335600000E1,1.495800018E0,-1.417899966E0,6.110699654E0
1.337600000E1,1.165099978E0,-2.812500000E0,8.790800095E0
1.339600000E1,-1.885999888E-1,-3.953499794E0,6.976399899E0
1.341600000E1,-2.417999953E-1,-3.549199820E0,6.094099998E0
1.343601250E1,5.515999794E-1,-3.148999929E0,4.715600014E0
1.346600000E1,3.236999810E-1,-6.320999622E0,6.241299629E0
1.348600000E1,2.818000019E-1,-5.145799637E0,9.374499321E0
1.350600000E1,1.961299896E0,-3.591799974E0,9.609299660E0
1.352600000E1,2.251999974E-1,-3.542199850E0,-3.492399931E0
1.354600000E1,-1.505299926E0,-5.004999638E0,-8.238499641E0
1.356600000E1,-3.087999821E-1,-6.778499603E0,-6.986499786E0
1.358600000E1,3.711999953E-1,-5.637399673E0,-4.448499680E0
1.360600000E1,2.886399984E0,-5.683099747E0,1.121369934E1
1.362600000E1,6.825999618E-1,-1.104699969E0,-2.969899893E0
1.364600000E1,-4.614000022E-1,1.148100019E0,-3.263499975E0
1.366600000E1,-6.852999926E-1,1.780200005E0,-3.455499887E0
1.368600000E1,-2.078099966E0,1.985399961E0,-5.090799809E0
1.371600000E1,-5.606100082E0,1.605999947E0,-7.247699738E0
1.373600000E1,-4.716399670E0,1.934599996E0,-7.172699928E0
1.375600000E1,-3.560799837E0,3.565099955E0,-8.587100029E0
1.377600000E1,-2.747099876E0,5.272599697E0,-1.002470016E1
1.379600000E1,-2.618099928E0,6.086400032E0,-9.616899490E0
1.381600000E1,-2.839200020E0,6.556599617E0,-8.337100029E0
1.383600000E1,-3.885399818E0,5.492199898E0,-4.974800110E0
1.385600000E1,-8.476999998E-1,4.099999964E-1,1.234799981E0
1.387600000E1,6.281199932E0,-7.623399734E0,1.281040001E1
1.389600000E1,1.049170017E1,-1.176449966E1,2.483499908E1
1.391600000E1,3.334699869E0,-3.480099916E0,9.571100235E0
1.393600000E1,-1.093599916E0,-1.505699992E0,2.554299831E0
1.395600000E1,-1.234799981E0,-3.729099989E0,-1.007660007E1
1.397600000E1,1.670499921E0,-4.916100025E0,-1.087679958E1
1.399600000E1,-1.209599972E0,-1.113899946E0,-3.875000000E0
1.401600000E1,-2.301199913E0,1.384299994E0,-1.184700012E0
1.403600000E1,-2.653800011E0,1.009400010E0,-4.977999687E0
1.405600000E1,-2.963699818E0,-1.633099914E0,-6.622399807E0
1.407600000E1,-3.235100031E0,-2.614899874E0,-5.179299831E0
1.410600000E1,-2.578399897E0,1.984999925E-1,-2.872099876E0
1.412600000E1,-2.374300003E0,3.163399935E0,-2.007400036E0
1.414600000E1,-1.365899920E0,4.223799706E0,-3.018199921E0
1.416600000E1,-4.785999954E-1,2.572899818E0,-1.795199990E0
1.418600938E1,-2.399999881E-3,9.930999875E-1,-1.785999984E-1
1.421600156E1,2.712699890E0,-1.075699925E0,8.916999817E0
1.424600156E1,4.484399796E0,1.096099973E0,6.005300045E0
1.427600000E1,9.498999715E-1,1.171800017E0,-1.902999878E-1
1.429600000E1,2.979999781E-1,-1.027899981E0,1.069000006E0
1.431600156E1,-5.903999805E-1,-2.580399990E0,5.024600029E0
1.434600000E1,-8.702999949E-1,-3.788800001E0,8.666699409E0
1.436600000E1,-5.264999866E-1,-3.537699938E0,8.375999451E0
1.438601406E1,-2.662000060E-1,-4.707799911E0,7.582199574E0
1.441600000E1,-5.363999605E-1,-7.339299679E0,6.368999958E0
1.443600000E1,6.567999721E-1,-4.686399937E0,8.785900116E0
1.445600156E1,2.622699976E0,-3.003000021E0,2.586999893E0
1.448600000E1,8.026999831E-1,-4.263799667E0,-5.323400021E0
1.450600000E1,9.034999609E-1,-5.788300037E0,-6.774899960E0
1.452600000E1,1.346699953E0,-6.256599903E0,-1.030599952E0
1.454600000E1,3.321399927E0,-6.010900021E0,4.379899979E0
1.456600000E1,2.632999897E0,-2.339900017E0,-3.031399965E0
1.458600000E1,1.325399995E0,7.688999772E-1,-3.651599884E0
1.460600000E1,-4.958999753E-1,1.583099961E0,-2.624199867E0
1.462600000E1,-1.565299988E0,1.243799925E0,-4.678400040E0
1.464600000E1,-4.427499771E0,1.658800006E0,-7.129799843E0
1.466600000E1,-6.993000031E0,2.210399866E0,-8.039400101E0
1.468600000E1,-4.191699982E0,3.181399822E0,-6.392199993E0
1.470600000E1,-2.907599926E0,4.497299671E0,-8.310599327E0
1.472600000E1,-3.078299999E0,6.133800030E0,-9.539299965E0
1.474600000E1,-3.257400036E0,6.743299961E0,-8.802000046E0
1.476600000E1,-3.337100029E0,6.046599865E0,-5.900300026E0
1.478600000E1,-3.204900026E0,4.310999870E0,-1.220000029E0
1.480600000E1,1.782999933E-1,-1.783699989E0,8.492599487E0
1.482600000E1,9.169899940E0,-1.064319992E1,1.874110031E1
1.484600000E1,8.792300224E0,-9.591899872E0,1.495359993E1
1.486600000E1,1.245399952E0,-5.787000060E-1,1.296499968E0
1.488600000E1,-1.885999888E-1,1.727399945E0,-1.513999939E0
1.490600000E1,-7.674999833E-1,-1.307999969E0,-2.795599937E0
1.492600000E1,1.208899975E0,-4.554999828E0,-8.303099632E0
1.494600000E1,2.259999990E0,-4.314199924E0,-1.567199945E0
1.496600000E1,2.723399878E0,1.175199986E0,5.076999664E-1
1.498600000E1,1.724099994E0,2.758100033E0,-1.050109959E1
1.500600000E1,1.358099937E0,6.136999726E-1,-8.099499702E0
1.502600000E1,-7.339999825E-2,-2.293799877E0,-6.830999851E0
1.504600000E1,-3.967000008E0,-3.209699869E0,-6.813600063E0
1.506600000E1,-4.639199734E0,-3.410199881E0,-4.145899773E0
1.508600000E1,-3.707599878E0,-1.632599950E0,-1.497499943E0
1.510600000E1,-3.442099810E0,2.245499849E0,3.689999878E-2
1.512600000E1,-2.414099932E0,4.360300064E0,1.267499924E0
1.514600000E1,-1.192600012E0,2.978899956E0,2.093299866E0
1.516600000E1,-1.207599998E0,1.689599991E0,1.721899986E0
1.518600156E1,-3.696999848E-1,1.324999928E0,5.475299835E0
1.521600156E1,1.763799906E0,1.358999908E-1,3.077800035E0
1.524600000E1,1.488399982E0,6.024000049E-1,1.061299920E0
1.526600000E1,5.442000031E-1,-2.125999928E-1,3.344999850E-1
1.528600000E1,-2.164999992E-1,-1.330799937E0,2.180999994E0
1.530600000E1,-1.934999973E-1,-2.138799906E0,6.989999771E0
1.532600000E1,6.647999883E-1,-3.256199837E0,9.261799812E0
1.534600000E1,4.603999853E-1,-4.149099827E0,7.177599907E0
1.536600000E1,-6.071000099E-1,-4.355000019E0,3.463699818E0
1.538600156E1,-8.389999717E-2,-3.965399981E0,4.558599949E0
1.541600000E1,3.357000053E-1,-5.972499847E0,9.648099899E0
1.543600000E1,5.737999678E-1,-4.628099918E0,1.285149956E1
1.545600156E1,9.496999979E-1,-3.268299818E0,7.437399864E0
1.548600000E1,-1.624399900E0,-4.707900047E0,-7.720099926E0
1.550600000E1,-2.494999915E-1,-6.267699718E0,-6.891799927E0
1.552600000E1,1.192700028E0,-6.470699787E0,-5.822099686E0
1.554600000E1,2.693500042E0,-4.895299911E0,5.679999828E0
1.556600000E1,2.517400026E0,-3.450599909E0,3.708699942E0
1.558600000E1,1.167899966E0,-6.028000116E-1,-3.424700022E0
1.560600000E1,5.777999759E-1,1.121299982E0,-3.472899914E0
1.562600000E1,-9.336999655E-1,1.513999939E0,-4.011799812E0
1.564600000E1,-2.144500017E0,1.243299961E0,-6.458699703E0
1.566600000E1,-4.286799908E0,2.500699997E0,-6.617199898E0
1.568600000E1,-5.881000042E0,3.608500004E0,-7.268099785E0
1.570600000E1,-4.394599915E0,4.035699844E0,-7.325699806E0
1.572600000E1,-3.455600023E0,4.881599903E0,-8.431799889E0
1.574600000E1,-3.368499994E0,5.559899807E0,-9.369400024E0
1.576600000E1,-3.691499949E0,6.056699753E0,-8.481699944E0
1.578600000E1,-3.748699903E0,5.916100025E0,-5.197599888E0
1.580600000E1,-2.624399900E0,3.452199936E0,1.960000023E-2
1.582600000E1,3.407699823E0,-3.346699953E0,7.481099606E0
1.584600000E1,1.028450012E1,-1.099629974E1,1.931159973E1
1.586600000E1,6.651299953E0,-7.632699966E0,1.679059982E1
1.588600000E1,1.044999957E0,2.414999902E-1,9.519999474E-2
1.590600000E1,1.192799926E0,4.953999817E-1,2.517999887E0
1.592600000E1,-3.122999966E-1,-2.319299936E0,-7.893799782E0
1.594600000E1,1.338099957E0,-3.822899818E0,-1.092119980E1
1.596600000E1,1.090099931E0,-4.125800133E0,1.842899919E0
1.598601250E1,4.345999956E-1,4.402999878E-1,-2.170799971E0
1.601600000E1,-1.258599997E0,9.266999960E-1,-9.111100197E0
1.603600000E1,-1.970299959E0,-1.169600010E0,-7.926599979E0
1.605600000E1,-4.391099930E0,-3.117100000E0,-5.819900036E0
1.607600000E1,-4.323100090E0,-2.784899950E0,-3.483299971E0
1.609600000E1,-3.620599985E0,-3.783999979E-1,-1.406899929E0
1.611600000E1,-3.112999916E0,3.415099859E0,-5.015000105E-1
1.613600000E1,-1.622699976E0,4.344399929E0,7.121999860E-1
1.615600000E1,-8.447999954E-1,2.383499861E0,1.783299923E0
1.617600156E1,-1.054000020E0,1.250800014E0,1.052399993E0
1.620600000E1,4.463999867E-1,2.933000028E-1,7.121599674E0
1.622600000E1,2.854899883E0,-8.586999774E-1,2.883699894E0
1.624600000E1,2.391700029E0,3.558000028E-1,1.730999947E-1
1.626600000E1,5.232999921E-1,8.533999920E-1,1.210500002E0
1.628600000E1,1.034500003E0,-1.711699963E0,3.558099985E0
1.630600000E1,4.333999753E-1,-3.502399921E0,1.080359936E1
1.632600000E1,-4.324999750E-1,-4.580399990E0,1.175430012E1
1.634600000E1,-7.376999855E-1,-5.454799652E0,1.084219933E1
1.636600000E1,-1.109699965E0,-4.633800030E0,7.298699856E0
1.638600156E1,4.166999757E-1,-4.219900131E0,6.825599670E0
1.641600000E1,9.059000015E-1,-3.874399900E0,1.070979977E1
1.643600000E1,2.346099854E0,-3.997499943E0,7.420099735E0
1.645600000E1,-6.115999818E-1,-4.683000088E0,-2.519599915E0
1.647600000E1,-2.274299860E0,-8.368000031E0,-5.706399918E0
1.649600000E1,-2.216999978E-1,-1.047349930E1,-6.466599941E0
1.651600000E1,5.608999729E-1,-8.710100174E0,-5.461199760E0
1.653600000E1,3.971000016E-1,-6.431499958E0,8.480799675E0
1.655600000E1,7.949000001E-1,-3.505599976E0,7.917999625E-1
1.657600312E1,2.842999995E-1,-9.716999531E-1,-3.051199913E0
1.660600000E1,-1.097299933E0,2.353999853E0,-5.945399761E0
1.662600000E1,-2.964299917E0,3.843299866E0,-7.641499996E0
1.664600000E1,-4.385999680E0,3.817299843E0,-6.918900013E0
1.666600000E1,-3.036000013E0,4.485199928E0,-8.667099953E0
1.668600000E1,-2.835500002E0,5.170199871E0,-9.705999374E0
1.670600000E1,-2.909899950E0,6.022599697E0,-9.436200142E0
1.672600000E1,-3.130800009E0,6.425199986E0,-8.072699547E0
1.674600000E1,-3.452600002E0,6.416399956E0,-7.567099571E0
1.676600000E1,-5.128799915E0,6.501800060E0,-5.678799629E0
1.678600000E1,-3.628899813E0,2.838899851E0,-1.049499989E0
1.680600000E1,2.587800026E0,-6.326099873E0,1.009229946E1
1.682600000E1,1.003259945E1,-1.470510006E1,2.532359886E1
1.684600000E1,4.941799641E0,-4.303100109E0,1.176659966E1
1.686600000E1,2.404299974E0,-8.649999648E-2,2.984099865E0
1.688600000E1,3.314999938E-1,-6.656000018E-1,-5.561999798E0
1.690600000E1,1.566900015E0,-5.072199821E0,-1.451679993E1
1.692600000E1,1.940899968E0,-6.674999714E0,1.746099949E0
1.694600000E1,7.739999890E-1,-2.085999995E-1,3.649099827E0
1.696600000E1,-2.819599867E0,7.960999608E-1,-8.069799423E0
1.698600000E1,-4.313699722E0,-1.876099944E0,-9.026299477E0
1.700600000E1,-4.869400024E0,-4.402100086E0,-7.079699993E0
1.702600000E1,-4.745699883E0,-3.983299971E0,-5.687099934E0
1.704600000E1,-3.811499834E0,-9.993000031E-1,-3.798599958E0
1.706600000E1,-3.427599907E0,2.651700020E0,-2.100199938E0
1.708600000E1,-2.812099934E0,5.559299946E0,-2.217900038E0
1.710600000E1,-1.659899950E0,4.958099842E0,-2.178400040E0
1.712600000E1,-1.087199926E0,2.381899834E0,-5.166999698E-1
1.714600000E1,-1.749999970E-1,1.237999946E-1,1.067199945E0
1.716600000E1,8.039999604E-1,-9.948999882E-1,6.402400017E0
1.718600000E1,2.652899981E0,-2.843999863E-1,6.639299870E0
1.720600000E1,5.547599792E0,-6.597999930E-1,3.071799994E0
1.722600000E1,3.774599791E0,7.477999926E-1,3.972399950E0
1.724600000E1,2.570699930E0,-1.723399997E0,7.254199982E0
1.726600000E1,1.542799950E0,-4.131400108E0,9.881299973E0
1.728600000E1,4.757999778E-1,-5.149899960E0,8.071000099E0
1.730600000E1,-7.313999534E-1,-3.223299980E0,6.167299747E0
1.732600000E1,-9.343999624E-1,-4.959099770E0,6.226699829E0
1.734600000E1,-1.393800020E0,-7.414999962E0,6.129799843E0
1.736600000E1,-1.477499962E0,-4.886499882E0,6.043699741E0
1.738600000E1,1.604999900E0,-3.204799891E0,5.219599724E0
1.740600000E1,1.397499919E0,-3.826200008E0,-8.357999921E-1
1.742600156E1,3.628000021E-1,-4.161999702E0,-7.116600037E0
1.745600000E1,1.779000014E-1,-4.037699699E0,-2.720999956E0
1.747600000E1,1.808299899E0,-4.752399921E0,6.726500034E0
1.749600000E1,6.268000007E-1,-1.515299916E0,-1.155399919E0
1.751600000E1,-7.371000051E-1,-5.457000136E-1,-2.135299921E0
1.753600000E1,-2.440000057E0,-6.952999830E-1,-2.345000029E0
1.755600000E1,-5.089099884E0,-1.304600000E0,-5.399699688E0
1.757601094E1,-7.822799683E0,-1.440500021E0,-6.973899841E0
1.760600000E1,-3.293699980E0,1.416299939E0,-6.172199726E0
1.762600000E1,-1.911199927E0,3.072099924E0,-7.548599720E0
1.764600000E1,-1.508599997E0,4.101200104E0,-9.059299469E0
1.766600000E1,-1.583599925E0,5.269099712E0,-8.724200249E0
1.768600000E1,-1.716099977E0,5.431399822E0,-6.694999695E0
1.770600000E1,-1.601699948E0,5.898099899E0,-3.361099958E0
1.772600000E1,-2.738399982E0,5.229799747E0,2.216099977E0
1.774600000E1,1.757999957E-1,1.361400008E0,5.294099808E0
1.776600000E1,4.508399963E0,-4.313199997E0,8.855099678E0
1.778600000E1,4.235700130E0,-7.580699921E0,1.157819939E1
1.780600000E1,1.345600009E0,-5.414599895E0,5.740699768E0
1.782600000E1,1.220199943E0,-4.008800030E0,1.669899940E0
1.784600000E1,1.667799950E0,-4.230899811E0,1.913999915E-1
1.786600000E1,3.547499895E0,-5.101599693E0,-2.373299837E0
1.788600000E1,3.859899998E0,5.015000105E-1,1.259799957E0
1.790600156E1,8.511999846E-1,4.948999882E0,-1.130539989E1
1.792600156E1,1.251199961E0,2.794699907E0,-9.285799980E0
1.794600156E1,9.766999483E-1,3.229999840E-1,-6.033799648E0
1.797600000E1,-3.377399921E0,-2.763700008E0,-7.714699745E0
1.799600000E1,-6.096699715E0,-5.323499680E0,-4.471699715E0
1.801600000E1,-5.001699924E0,-3.502799988E0,-1.237999916E0
1.803600000E1,-3.785300016E0,-2.602999806E-1,6.585999727E-1
1.805600000E1,-3.186199903E0,3.483399868E0,1.931099892E0
1.807600000E1,-2.169199944E0,4.081699848E0,4.111400127E0
1.809600000E1,-9.113999605E-1,2.365799904E0,5.718699932E0
1.811600000E1,-1.673599958E0,1.516499996E0,2.862599850E0
1.813600000E1,-1.680899978E0,2.671000063E-1,4.152999818E-1
1.815600000E1,-1.038699985E0,8.419999480E-2,9.266999960E-1
1.817600000E1,5.631999969E-1,7.994999886E-1,2.641399860E0
1.819600000E1,1.173799992E0,7.504999638E-1,2.002599955E0
1.821600000E1,3.385999799E-1,9.059999585E-1,-2.290999889E-1
1.823600000E1,3.231999874E-1,3.379999995E-1,-2.954999804E-1
1.825600156E1,2.331999987E-1,-1.511699915E0,2.139899969E0
1.828600000E1,1.619199991E0,-3.406899929E0,9.597099304E0
1.830600000E1,9.300999641E-1,-4.155499935E0,8.711199760E0
1.832600000E1,-4.311999977E-1,-3.369599819E0,4.568999767E0
1.834600156E1,-2.581000030E-1,-2.861999989E0,4.493599892E0
1.837600000E1,-7.969999909E-1,-6.962100029E0,7.732899666E0
1.839600000E1,-1.331200004E0,-6.047199726E0,8.402899742E0
1.841600000E1,4.393999875E-1,-3.577099800E0,1.126629925E1
1.843600000E1,1.009199977E0,-2.253000021E0,-2.522999942E-1
1.845600000E1,-2.081999928E-1,-3.512199879E0,-6.856699944E0
1.847600000E1,7.389000058E-1,-5.654999733E0,-7.031399727E0
1.849600000E1,1.657899976E0,-7.681699753E0,-4.920899868E0
1.851600000E1,4.074599743E0,-7.743899822E0,1.125259972E1
1.853600000E1,1.597099900E0,-2.585000038E0,-1.882999986E-1
1.855600000E1,2.651000023E-1,5.356999636E-1,-3.748399973E0
1.857600000E1,5.550000072E-1,1.210799932E0,-3.922099829E0
1.859600000E1,-9.513999820E-1,1.480299950E0,-4.078999996E0
1.861600000E1,-2.891700029E0,1.350499988E0,-6.246399879E0
1.863600000E1,-5.671599865E0,1.920899987E0,-7.044899940E0
1.865600000E1,-4.111999989E0,3.228099823E0,-6.976500034E0
1.867600156E1,-3.024600029E0,4.270800114E0,-7.008299828E0
1.869600156E1,-3.027799845E0,5.631799698E0,-8.665299416E0
1.872600000E1,-3.215199947E0,6.691299915E0,-8.868399620E0
1.874600156E1,-2.860800028E0,6.795199871E0,-6.773900032E0
1.877600000E1,-2.732699871E0,4.657199860E0,9.395999908E-1
1.879600000E1,2.302599907E0,-2.910300016E0,9.896299362E0
1.881600000E1,9.301899910E0,-1.491329956E1,2.206029892E1
1.883600000E1,6.339599609E0,-1.083169937E1,1.670299911E1
1.885604063E1,1.716199994E0,-1.687399983E0,-1.348500013E0
1.888600156E1,-5.478000045E-1,7.354999781E-1,-5.061299801E0
1.891600000E1,1.940400004E0,-6.115900040E0,-8.556499481E0
1.893600000E1,3.631699800E0,-4.162699699E0,-1.380999923E0
1.895600000E1,2.750399828E0,4.737299919E0,-2.778699875E0
1.897600000E1,3.100299835E0,3.871699810E0,-1.170940018E1
1.899600000E1,2.662999868E0,1.848799944E0,-7.881099701E0
1.901600000E1,1.314700007E0,-1.432999969E-1,-5.548500061E0
1.903600156E1,-1.380299926E0,-1.634699941E0,-6.558399677E0
1.906600000E1,-5.208999634E0,-2.710199833E0,-3.300699949E0
1.908600000E1,-4.091300011E0,-3.967999816E-1,-9.718999863E-1
1.910600000E1,-2.646199942E0,2.580099821E0,1.177600026E0
1.912600000E1,-1.773899913E0,3.114399910E0,2.402299881E0
1.914600156E1,-1.861199975E0,2.323099852E0,2.667799950E0
1.917600000E1,-9.605999589E-1,1.146199942E0,6.411200047E0
1.919600156E1,1.573999971E-1,-1.127999946E-1,3.134099960E0
1.921600156E1,3.612999916E-1,-4.932999909E-1,-4.470000044E-2
1.924600156E1,-8.640999794E-1,1.425999999E0,-2.269999869E-2
1.927600000E1,1.204999983E-1,-1.231099963E0,3.818799973E0
1.929600000E1,1.359899998E0,-2.804100037E0,9.033299446E0
1.931600000E1,3.025300026E0,-4.580199718E0,1.148479939E1
1.933600000E1,1.334599972E0,-4.985399723E0,9.752799988E0
1.935600000E1,-2.197999954E0,-4.940099716E0,4.450500011E0
1.937600000E1,-2.359299898E0,-4.973700047E0,2.381000042E0
1.939600000E1,-1.554999948E-1,-7.082699776E0,8.060099602E0
1.941600000E1,1.431800008E0,-4.128499985E0,1.522069931E1
1.943600000E1,1.449199915E0,-2.947299957E0,8.289199829E0
1.945600000E1,-9.919999540E-2,-2.296599865E0,-7.582999706E0
1.947600000E1,-1.044700027E0,-4.195799828E0,-6.224999905E0
1.949600156E1,2.025000006E-1,-6.467000008E0,-4.944200039E0
1.951600156E1,2.061199903E0,-8.037899971E0,-3.419199944E0
1.953600156E1,4.795700073E0,-7.547599792E0,1.065469933E1
1.956600000E1,1.485899925E0,-5.453000069E-1,-4.371299744E0
1.958600000E1,4.411000013E-1,1.874199986E0,-3.691699982E0
1.960600000E1,-3.179000020E-1,2.277099848E0,-4.824100018E0
1.962600000E1,-1.146999955E0,1.937500000E0,-6.881799698E0
1.964600000E1,-3.490700006E0,3.106699944E0,-7.314499855E0
1.966600000E1,-3.760499954E0,5.055999756E0,-9.264900208E0
1.968600000E1,-3.668799877E0,5.704699993E0,-9.135099411E0
1.970600000E1,-3.006199837E0,6.335799694E0,-9.939599991E0
1.972600000E1,-3.029099941E0,6.556399822E0,-9.594499588E0
1.974600000E1,-3.800699949E0,6.666999817E0,-7.978699684E0
1.976600000E1,-4.942199707E0,6.257400036E0,-5.086599827E0
1.979600000E1,-1.086799979E0,-1.728999972E0,7.479199886E0
1.981600000E1,1.142999935E1,-1.661190033E1,2.757539940E1
1.983600000E1,1.252229977E1,-1.564019966E1,1.965629959E1
1.985600000E1,3.177999973E0,-1.681299925E0,5.720699787E0
1.987600000E1,-7.769999653E-2,4.262599945E0,-6.080199718E0
1.989600000E1,1.129999980E-1,3.124500036E0,-5.484799862E0
1.991600000E1,6.902999878E-1,-1.280900002E0,-1.287639999E1
1.993600000E1,1.276799917E0,-2.931699991E0,-9.428999901E0
1.995600000E1,2.934899807E0,-2.911099911E0,4.296599865E0
1.997600000E1,2.552299976E0,1.304199934E0,-3.585399866E0
1.999600000E1,1.420799971E0,4.572999775E-1,-1.016769981E1
2.001600000E1,2.967999876E-1,-1.608999968E0,-6.632799625E0
2.003600000E1,-2.128900051E0,-3.150399923E0,-5.580499649E0
2.005600000E1,-3.836899996E0,-2.972999811E0,-2.980700016E0
2.007600000E1,-3.563199997E0,-5.604000092E-1,-1.245899916E0
2.009600000E1,-3.690799952E0,3.780799866E0,-7.001000047E-1
2.011600000E1,-2.079200029E0,5.594199657E0,5.564999580E-1
2.013600000E1,-9.223999977E-1,4.163000107E0,1.278800011E0
2.015600000E1,-9.003999829E-1,2.145799875E0,1.560999900E-1
2.017600000E1,-1.121699929E0,-2.510000020E-2,5.564999580E-1
2.019600000E1,6.455000043E-1,-1.450599909E0,1.008370018E1
2.021600000E1,2.939499855E0,-6.965000033E-1,8.194999695E0
2.023600000E1,1.711399913E0,-5.812999606E-1,-5.805000067E-1
2.025600000E1,-4.539999962E-1,4.620999992E-1,-1.119300008E0
2.027600000E1,-9.879999757E-1,5.749999732E-2,1.554999948E0
2.029600000E1,-6.610999703E-1,-2.736699820E0,6.720599651E0
2.031600000E1,8.761000037E-1,-5.215399742E0,1.225819969E1
2.033600000E1,-5.037999749E-1,-4.920499802E0,1.038739967E1
2.035600000E1,-1.622599959E0,-4.785900116E0,4.648399830E0
2.037600000E1,-7.326999903E-1,-6.761299610E0,3.331699848E0
2.039600000E1,5.741999745E-1,-6.858999729E0,1.026809978E1
2.041600000E1,1.487999916E0,-4.701699734E0,1.325360012E1
2.043600000E1,7.761999965E-1,-2.759899855E0,4.508500099E0
2.045600000E1,-1.590999961E-1,-2.507099867E0,-6.484200001E0
2.047600156E1,-3.555999994E-1,-3.748699903E0,-5.623899937E0
2.050600000E1,2.057199955E0,-7.753699780E0,-3.976199865E0
2.052600000E1,5.401199818E0,-8.405300140E0,1.267609978E1
2.054600000E1,3.950799942E0,-4.667999744E0,1.018999964E-1
2.056600000E1,2.086999893E0,5.399999674E-3,-4.257800102E0
2.058600000E1,7.371999621E-1,2.155099869E0,-4.047899723E0
2.060600000E1,-4.068999887E-1,2.648900032E0,-5.417299747E0
2.062600000E1,-1.517599940E0,2.591300011E0,-6.129399776E0
2.064600000E1,-4.624599934E0,3.776199818E0,-7.367099762E0
2.066600000E1,-5.693199635E0,4.698499680E0,-8.644800186E0
2.068600000E1,-3.238399982E0,5.452699661E0,-8.951999664E0
2.070600000E1,-2.379099846E0,6.288300037E0,-9.458700180E0
2.072600000E1,-2.640899897E0,6.735899925E0,-9.833399773E0
2.074600000E1,-3.247399807E0,7.344299793E0,-7.970299721E0
2.076600000E1,-4.367000103E0,6.474499702E0,-4.585000038E0
2.078600000E1,-1.626899958E0,7.398999929E-1,2.319000006E0
2.080600000E1,7.697999954E0,-1.281960011E1,2.624199867E1
2.082600000E1,1.280970001E1,-1.838049889E1,2.489799881E1
2.084600000E1,5.614399910E0,-3.617999792E0,7.689299583E0
2.086600000E1,-1.582499981E0,4.375499725E0,-5.878399849E0
2.088600000E1,-4.023999870E-1,2.826099873E0,-4.779299736E0
2.090600000E1,4.944999814E-1,-2.386100054E0,-9.560199738E0
2.092600000E1,5.392000079E-1,-4.020800114E0,-8.148300171E0
2.094600000E1,2.566799879E0,-3.769899845E0,3.225099802E0
2.096600000E1,2.872200012E0,2.833099842E0,-3.085399866E0
2.098600000E1,2.860100031E0,1.550999999E0,-1.122149944E1
2.100600000E1,4.469999969E-1,9.565999508E-1,-8.200099945E0
2.102600000E1,-1.024199963E0,-1.962599993E0,-6.964299679E0
2.104600000E1,-3.968699932E0,-3.319700003E0,-5.563799858E0
2.106600000E1,-4.312900066E0,-2.537999868E0,-2.210599899E0
2.108600000E1,-3.767199993E0,4.404999912E-1,-3.734000027E-1
2.110600000E1,-3.071799994E0,4.266799927E0,7.048000097E-1
2.112600000E1,-1.784999967E0,4.435800076E0,2.085199833E0
2.114600000E1,-7.128999829E-1,1.914199948E0,1.548299909E0
2.116600000E1,4.969999939E-2,3.319999874E-1,6.976500034E0
2.118600000E1,1.099399924E0,-2.626999915E-1,5.715199947E0
2.120600156E1,1.630599976E0,-2.080000006E-2,3.258399963E0
2.122600156E1,5.001999736E-1,3.568999767E-1,-3.449999914E-2
2.125600156E1,-8.913999796E-1,3.989000022E-1,1.226400018E0
2.128600000E1,-1.049999967E-1,-3.976199865E0,6.277499676E0
2.130600000E1,2.745999992E-1,-4.994999886E0,1.231839943E1
2.132600000E1,6.557999849E-1,-4.814899921E0,1.010839939E1
2.134600000E1,-2.685000002E-1,-5.074100018E0,4.836499691E0
2.136600000E1,-1.359300017E0,-4.335999966E0,2.627499819E0
2.138600000E1,-1.352999955E-1,-4.593199730E0,6.859299660E0
2.140600000E1,1.389999986E-1,-4.058399677E0,1.046309948E1
2.142600000E1,1.148299932E0,-1.564000010E0,1.465539932E1
2.144600000E1,2.124599934E0,-2.034199953E0,3.577099800E0
2.146600000E1,4.360000044E-2,-3.540599823E0,-7.376399994E0
2.148600000E1,-1.852999926E-1,-6.296400070E0,-6.225199699E0
2.150600000E1,6.451999545E-1,-8.171099663E0,-4.553199768E0
2.152600000E1,2.466799974E0,-8.199099541E0,-2.729099989E0
2.154600000E1,5.125000000E0,-8.957599640E0,1.017589951E1
2.156600000E1,1.344799995E0,-3.408099890E0,-3.014099836E0
2.158600000E1,-5.389999971E-2,1.387399912E0,-3.899499893E0
2.160600000E1,-1.297599912E0,3.325699806E0,-4.713999748E0
2.162600000E1,-3.293699980E0,3.822399855E0,-6.711499691E0
2.164600000E1,-6.616799831E0,5.464099884E0,-7.248999596E0
2.166600000E1,-4.478099823E0,5.894700050E0,-8.938899994E0
2.168600000E1,-3.284600019E0,6.313999653E0,-9.291299820E0
2.170600000E1,-2.882999897E0,6.357599735E0,-1.009679985E1
2.172600000E1,-2.589599848E0,6.310400009E0,-9.633500099E0
2.174600000E1,-2.848399878E0,7.049299717E0,-7.954799652E0
2.176600000E1,-3.546799898E0,6.741199970E0,-4.934799671E0
2.178600000E1,-6.204999685E-1,3.231999874E-1,3.322399855E0
2.180600000E1,8.685299873E0,-1.305209923E1,2.249289894E1
2.182600000E1,1.305069923E1,-1.819649887E1,2.550289917E1
2.184600000E1,3.455399990E0,-2.240299940E0,6.761499882E0
2.186600000E1,-2.019799948E0,4.438699722E0,-3.473399878E0
2.188600000E1,-3.572899818E0,2.609699965E0,-4.070799828E0
2.190600000E1,-1.576200008E0,-2.709199905E0,-9.493299484E0
2.192600000E1,-1.035099983E0,-5.446499825E0,-6.163899899E0
2.194600000E1,1.080999970E-1,-3.000699997E0,-2.035300016E0
2.196600000E1,-3.477999866E-1,-1.350499988E0,-5.276299953E0
2.198600000E1,-4.277999997E-1,-6.589999795E-1,-7.769199848E0
2.200600000E1,-7.731999755E-1,-2.251800060E0,-5.738599777E0
2.202600000E1,-2.557699919E0,-1.056699991E0,-4.090099812E0
2.204600000E1,-2.353699923E0,-2.149999887E-2,-3.003499985E0
2.206600000E1,-1.936299920E0,1.638599992E0,-1.790699959E0
2.208600000E1,-1.883999944E0,4.613999844E0,-7.256000042E-1
2.210600000E1,-1.052999973E0,4.863299847E0,-5.196999907E-1
2.212600000E1,-3.836999834E-1,2.713799953E0,-4.936999977E-1
2.214600000E1,-6.897999644E-1,9.731999636E-1,-9.724999666E-1
2.216600000E1,5.399999619E-1,-8.342999816E-1,2.258699894E0
2.218600156E1,3.131099939E0,-7.946999669E-1,8.312899590E0
2.221600000E1,2.096699953E0,9.671999812E-1,1.760299921E0
2.224600000E1,5.843999982E-1,-1.480099916E0,2.106099844E0
2.226600000E1,-5.159999803E-2,-2.649099827E0,7.627899647E0
2.228600000E1,-5.049999803E-2,-3.883599997E0,8.673600197E0
2.230600000E1,-1.344399929E0,-4.762300014E0,7.493899822E0
2.232600000E1,-3.642799854E0,-5.262300014E0,7.378399849E0
2.234600000E1,-2.839499950E0,-4.400199890E0,3.922399998E0
2.236600000E1,4.990999997E-1,-6.421499729E0,5.924699783E0
2.238600000E1,-1.992999911E-1,-5.632299900E0,1.026109982E1
2.240600000E1,7.263999581E-1,-3.483999968E0,1.164079952E1
2.242600000E1,2.621500015E0,-2.167199850E0,1.572600007E0
2.244600000E1,1.781999916E-1,-2.343199968E0,-4.137700081E0
2.246600000E1,-2.072999924E-1,-4.487299919E0,-5.755199909E0
2.248600000E1,4.402000010E-1,-6.929499626E0,-4.246599674E0
2.250600000E1,2.322399855E0,-8.612699509E0,6.882999897E0
2.253600000E1,1.055299997E0,-3.589999914E0,-1.784899950E0
2.255600000E1,2.243999988E-1,-2.346999943E-1,-2.471199989E0
2.257601562E1,-1.118899941E0,1.842899919E0,-2.865000010E0
2.260600000E1,-3.085099936E0,2.586299896E0,-6.736000061E0
2.262600000E1,-6.221799850E0,3.199699879E0,-8.199099541E0
2.264600000E1,-4.760600090E0,3.481599808E0,-7.995999813E0
2.266600000E1,-2.903699875E0,5.472300053E0,-7.933399677E0
2.268600000E1,-2.867499828E0,6.768599987E0,-9.696599960E0
2.270600000E1,-2.725499868E0,7.527299881E0,-1.004689980E1
2.272600000E1,-2.937500000E0,8.094200134E0,-8.599499702E0
2.274600000E1,-3.143199921E0,6.532000065E0,-6.041299820E0
2.276600000E1,-1.086699963E0,7.336999774E-1,9.590999484E-1
2.278600000E1,6.802099705E0,-1.144439983E1,2.120369911E1
2.280600000E1,1.113630009E1,-1.819359970E1,3.319599915E1
2.282600000E1,2.325099945E0,-1.099499941E0,5.338399887E0
2.284600000E1,4.427999854E-1,8.843999505E-1,-5.023299694E0
2.286600000E1,-1.611099958E0,-1.352599978E0,-4.995299816E0
2.288600000E1,2.443099976E0,-7.433799744E0,-1.050920010E1
2.290600000E1,1.925699949E0,-6.516999722E0,-2.755100012E0
2.292600000E1,1.418200016E0,2.965999842E0,3.452000022E-1
2.294600000E1,-2.861999869E-1,5.532700062E0,-1.238229942E1
2.296600000E1,2.018300056E0,1.226499915E0,-9.676499367E0
2.298600000E1,1.042999983E0,-1.377699971E0,-6.153500080E0
2.300600000E1,-2.068899870E0,-2.299299955E0,-6.161399841E0
2.303600000E1,-4.313799858E0,-9.437999725E-1,-2.438899994E0
2.305600000E1,-3.746799946E0,2.609400034E0,-1.442600012E0
2.307600000E1,-2.405699968E0,4.370199680E0,1.488999963E0
2.309600000E1,-9.353999496E-1,3.611399889E0,2.665999889E0
2.311600000E1,-9.066999555E-1,1.629799962E0,2.205199957E0
2.313600000E1,-9.908999801E-1,-6.039999723E-1,2.376299858E0
2.315600000E1,9.529999644E-2,-2.599000037E-1,8.603099823E0
2.317600156E1,1.244099975E0,1.430999935E-1,4.073699951E0
2.320600000E1,-9.309999645E-2,7.121999860E-1,-1.499400020E0
2.322600156E1,-9.616999626E-1,1.018999934E0,9.315999746E-1
2.324600156E1,-6.104999781E-1,-1.753199935E0,2.723899841E0
2.327600156E1,9.722999930E-1,-5.646899700E0,1.782099915E1
2.330600000E1,-1.687500000E0,-5.188699722E0,4.541800022E0
2.332600000E1,-2.469399929E0,-3.906199932E0,7.519999892E-2
2.334600000E1,-5.083000064E-1,-5.361999989E0,6.860300064E0
2.336600000E1,1.122399926E0,-5.397199631E0,1.481489944E1
2.338601563E1,2.572999954E0,-3.425999880E0,1.348749924E1
2.341600000E1,8.992999792E-1,-2.070899963E0,-8.038000107E0
2.343600000E1,-1.685999930E-1,-4.778899670E0,-6.116799831E0
2.345600000E1,1.221300006E0,-7.561999798E0,-4.328799725E0
2.347600000E1,3.556999922E0,-8.830100060E0,-3.190199852E0
2.349600000E1,7.447499752E0,-8.821199417E0,1.105830002E1
2.351600000E1,4.836699963E0,-2.185699940E0,-4.157199860E0
2.353600000E1,3.066799879E0,7.717999816E-1,-3.055799961E0
2.355600000E1,1.192799926E0,2.290699959E0,-3.208999872E0
2.357600625E1,-1.363999993E-1,2.274299860E0,-4.576399803E0
2.360600000E1,-6.621500015E0,3.437199831E0,-7.593199730E0
2.362600000E1,-6.519499779E0,4.198800087E0,-8.463799477E0
2.364600000E1,-5.273799896E0,5.164199829E0,-8.356999397E0
2.366600000E1,-4.841000080E0,6.915899754E0,-1.027880001E1
2.368600000E1,-4.393099785E0,7.581799984E0,-1.001229954E1
2.370600000E1,-4.458799839E0,8.013999939E0,-8.222999573E0
2.372600000E1,-4.758199692E0,6.862599850E0,-5.847699642E0
2.374600000E1,-6.069999933E-1,-5.982999802E-1,7.243799686E0
2.376600000E1,1.280919933E1,-1.526769924E1,2.898670006E1
2.378600000E1,1.475749969E1,-1.679679871E1,1.876659966E1
2.380600000E1,7.364099979E0,-2.055500031E0,2.090800047E0
2.382600000E1,2.165199995E0,4.551000118E0,-5.318599701E0
2.384604375E1,8.659999967E-1,9.800999761E-1,-9.335599899E0
2.387600000E1,3.337999880E-1,-7.310499668E0,-5.374700069E0
2.389600000E1,-1.140399933E0,-1.254099965E0,-1.030999944E-1
2.391600000E1,-2.197900057E0,2.631799936E0,-1.004699993E1
2.393600000E1,-9.644999504E-1,4.007999897E-1,-1.088469982E1
2.395600000E1,3.454999924E-1,-2.733000040E0,-8.212800026E0
2.397600000E1,-2.078500032E0,-3.355700016E0,-5.572099686E0
2.399600000E1,-4.206999779E0,-2.478699923E0,-2.597699881E0
2.401600000E1,-3.904199839E0,1.009400010E0,-1.177199960E0
2.403600000E1,-2.250499964E0,4.160999775E0,-8.139999509E-1
2.405600000E1,-9.868999720E-1,4.385900021E0,1.384799957E0
2.407600000E1,3.109999895E-1,3.674099922E0,1.336599946E0
2.409600000E1,-2.881000042E-1,1.532699943E0,6.741999984E-1
2.411600000E1,-5.458999872E-1,-3.010999858E-1,7.256000042E-1
2.413600000E1,1.211399913E0,-1.106899977E0,1.322669983E1
2.415600000E1,1.884499907E0,-5.273999572E-1,6.092400074E0
2.417600000E1,6.159999967E-2,-8.540999889E-1,4.739999771E-1
2.419600000E1,-1.490099907E0,-8.389999866E-1,1.283599973E0
2.421600000E1,-1.741899967E0,-1.192799926E0,4.963200092E0
2.423600156E1,6.149999797E-2,-4.691899776E0,1.194839954E1
2.426600000E1,-2.612299919E0,-5.724199772E0,9.503899574E0
2.428600000E1,-3.683300018E0,-4.800699711E0,2.016299963E0
2.430600000E1,-1.450599909E0,-5.410699844E0,5.281599998E0
2.432600000E1,1.389500022E0,-6.716399670E0,1.204430008E1
2.434600000E1,2.947700024E0,-5.182699680E0,1.410429955E1
2.436600000E1,1.216899991E0,-3.321699858E0,4.002099991E0
2.438600156E1,1.061000004E-1,-2.500900030E0,-8.643300056E0
2.441600000E1,6.123999953E-1,-6.385099888E0,-4.095699787E0
2.443600000E1,3.277899981E0,-8.497799873E0,-3.296000004E0
2.445600000E1,7.297599792E0,-9.000699997E0,1.384869957E1
2.447600000E1,5.523999691E0,-2.822099924E0,-2.042500019E0
2.449600000E1,3.710299969E0,-1.166999936E-1,-2.872299910E0
2.451600000E1,1.427299976E0,2.411000013E0,-3.134599924E0
2.453600000E1,-8.376999497E-1,2.300499916E0,-4.317399979E0
2.455600000E1,-3.760499954E0,2.593600035E0,-6.093899727E0
2.457600000E1,-8.846199989E0,3.455699921E0,-8.918700218E0
2.459600000E1,-5.729799747E0,3.245499849E0,-8.104499817E0
2.461600000E1,-4.697099686E0,5.291800022E0,-9.314299583E0
2.463600000E1,-4.616099834E0,6.633899689E0,-1.015320015E1
2.465600000E1,-4.773999691E0,7.314599991E0,-8.769499779E0
2.467600156E1,-3.946799994E0,7.669799805E0,-6.138899803E0
2.470600000E1,-1.856999993E-1,1.976300001E0,8.056599617E0
2.472600000E1,8.874899864E0,-8.879799843E0,1.848889923E1
2.474600156E1,1.204759979E1,-1.543459988E1,1.804699898E1
2.477600000E1,1.147599936E0,4.158999920E-1,-5.536999702E-1
2.479600000E1,1.872399926E0,1.510599971E0,-1.394400001E0
2.481600000E1,-3.199999928E-1,4.749999940E-2,-6.264899731E0
2.483600000E1,2.081199884E0,-4.007899761E0,-1.239169979E1
2.485600000E1,4.464900017E0,-4.891799927E0,-3.700699806E0
2.487600000E1,2.550499916E0,9.064999819E-1,-5.291000009E-1
2.489600000E1,9.991999865E-1,1.674399972E0,-1.139989948E1
2.491600000E1,1.002799988E0,1.430999935E-1,-9.111199379E0
2.493600000E1,-5.219999701E-2,-1.375899911E0,-6.863100052E0
2.495600156E1,-2.581799984E0,-1.997199893E0,-6.130099773E0
2.498600000E1,-4.939899921E0,-1.634799957E0,-1.217899919E0
2.500600000E1,-3.593699932E0,1.659699917E0,-1.973999888E-1
2.502600000E1,-1.991599917E0,3.209599972E0,1.729099989E0
2.504600000E1,-9.932000041E-1,3.360299826E0,2.912400007E0
2.507600000E1,-8.632999659E-1,1.272099972E0,1.279500008E0
2.509600000E1,-9.582999945E-1,5.058000088E-1,5.696099758E0
2.511600000E1,4.373999834E-1,5.769999698E-2,7.565199852E0
2.513600000E1,5.388000011E-1,-1.559199929E0,2.707000077E-1
2.515600156E1,-1.066399932E0,-1.040699959E0,9.623999596E-1
2.517600156E1,-1.974199891E0,-3.519999981E-1,3.941399813E0
2.520600156E1,-2.850000001E-2,-3.341599941E0,1.184369946E1
2.522600156E1,1.419000030E-1,-5.629699707E0,8.518499374E0
2.525600000E1,-1.772199988E0,-4.771599770E0,4.458499908E0
2.527600000E1,-1.212199926E0,-4.722599983E0,4.864900112E0
2.529600000E1,8.721999526E-1,-6.763999939E0,1.056229973E1
2.531600000E1,2.322499990E0,-5.139199734E0,1.243470001E1
2.533600000E1,1.520999908E0,-3.163499832E0,1.082880020E1
2.535600000E1,-1.368999928E-1,-3.849099874E0,-5.061299801E0
2.537600000E1,-7.912999988E-1,-4.844299793E0,-6.468299866E0
2.539600156E1,-7.449999452E-2,-6.848099709E0,-4.312299728E0
2.542600000E1,2.888200045E0,-6.493799686E0,-2.493999958E0
2.544600000E1,6.368599892E0,-6.270699978E0,1.135820007E1
2.546600000E1,3.341199875E0,-8.470000029E-1,-4.221600056E0
2.548600000E1,1.960799932E0,2.310699940E0,-2.460899830E0
2.550600000E1,-7.129999995E-2,3.106799841E0,-3.395499945E0
2.552600000E1,-1.810699940E0,2.806200027E0,-5.353799820E0
2.554600000E1,-5.172599792E0,3.503899813E0,-7.079799652E0
2.556600000E1,-8.058499336E0,3.383899927E0,-8.051599503E0
2.558600000E1,-5.371699810E0,4.066199780E0,-8.643799782E0
2.560600000E1,-4.205299854E0,6.006700039E0,-9.280399323E0
2.562600000E1,-4.245999813E0,6.937099934E0,-9.574999809E0
2.564600000E1,-4.759299755E0,7.542599678E0,-8.116399765E0
2.566600000E1,-4.089699745E0,6.906999588E0,-5.500899792E0
2.568600000E1,-2.206500053E0,2.407399893E0,3.461499929E0
2.570600000E1,7.738099575E0,-9.088399887E0,1.997850037E1
2.572600000E1,1.524519920E1,-1.919779968E1,2.671059990E1
2.574600000E1,5.900099754E0,-3.732499838E0,1.048429966E1
2.576600000E1,1.223699927E0,1.543699980E0,-4.194499969E0
2.578600000E1,-4.512999952E-1,1.905999899E0,-5.961400032E0
2.580600000E1,4.267999828E-1,-4.209499836E0,-1.192959976E1
2.582600000E1,2.424499989E0,-6.360099792E0,-1.044939995E1
2.584600000E1,2.657099962E0,-1.955199957E0,2.683099985E0
2.586600000E1,-5.293999910E-1,4.178599834E0,-8.413399696E0
2.588600000E1,1.044899940E0,1.291999936E0,-8.441200256E0
2.590600000E1,3.561999798E-1,-1.227699995E0,-6.984899998E0
2.592600000E1,-1.940400004E0,-1.841300011E0,-6.076399803E0
2.594600000E1,-4.334799767E0,-3.160499811E0,-3.707199812E0
2.596600000E1,-5.109699726E0,-1.217000008E0,-1.415399909E0
2.598600000E1,-4.368400097E0,1.909799933E0,-3.325999975E-1
2.600600000E1,-2.602099895E0,3.097599983E0,2.399600029E0
2.602600000E1,-1.643099904E0,2.921799898E0,4.198299885E0
2.604600000E1,-1.775099993E0,2.688899994E0,5.195899963E0
2.606600000E1,-1.650299907E0,1.789899945E0,3.575899839E0
2.608600000E1,-1.269299984E0,9.195999503E-1,4.450999737E0
2.610600000E1,2.696999907E-1,-7.000000030E-2,4.335000038E0
2.612600000E1,1.166999936E-1,-7.157999873E-1,9.565999508E-1
2.615600000E1,-9.208999872E-1,-1.764400005E0,1.766799927E0
2.617600156E1,6.649000049E-1,-4.133599758E0,9.889599800E0
2.619600156E1,2.287600040E0,-5.860199928E0,1.649440002E1
2.622600156E1,-2.978899956E0,-5.355700016E0,3.773999929E0
2.624600156E1,-3.860999823E0,-5.879399776E0,2.621000051E0
2.627600000E1,-7.651999593E-1,-6.612499714E0,1.371409988E1
2.629600000E1,4.213999808E-1,-3.436800003E0,1.255849934E1
2.631600000E1,4.767999947E-1,-3.602399826E0,-2.266999960E0
2.633600000E1,-8.996999860E-1,-4.324100018E0,-5.872499943E0
2.635600000E1,-3.495000005E-1,-6.699699879E0,-3.546499968E0
2.637600000E1,1.802899957E0,-8.737500191E0,-3.653399944E0
2.639600000E1,3.004499912E0,-6.592899799E0,1.938999891E-1
2.641600000E1,4.359299660E0,-4.345499992E0,4.345099926E0
2.643600000E1,1.788999915E0,1.384000033E-1,-2.937099934E0
2.645600000E1,9.896999598E-1,2.741799831E0,-3.172099829E0
2.647600000E1,-9.708999991E-1,3.140100002E0,-4.485899925E0
2.649600000E1,-2.093499899E0,2.922399998E0,-6.324899673E0
2.651600000E1,-6.158499718E0,3.688699961E0,-8.375499725E0
2.653600000E1,-5.129799843E0,3.504599810E0,-7.985499859E0
2.655600000E1,-4.068200111E0,4.327899933E0,-8.040800095E0
2.657600000E1,-3.893399954E0,6.193399906E0,-9.585700035E0
2.659600000E1,-3.382299900E0,6.956899643E0,-9.580599785E0
2.661600000E1,-3.335999966E0,8.169699669E0,-7.625599861E0
2.663600000E1,-3.178799868E0,7.385399818E0,-5.048799992E0
2.665600000E1,-7.260999680E-1,2.052500010E0,1.809599996E0
2.667600156E1,7.957099915E0,-1.036919975E1,1.738640022E1
2.670600000E1,8.109499931E0,-1.240399933E1,1.976009941E1
2.672600000E1,5.539999604E-1,9.790999889E-1,-7.532999516E-1
2.675600000E1,-9.209999442E-2,3.621999919E-1,-5.764199734E0
2.677600000E1,2.135299921E0,-4.378999710E0,-1.425379944E1
2.679600000E1,1.671899915E0,-4.968100071E0,-8.471899986E0
2.681600000E1,-3.850999773E-1,1.475099921E0,-1.236099958E0
2.683600000E1,8.249999583E-2,2.176100016E0,-8.307700157E0
2.685600000E1,1.048399925E0,-1.577499986E0,-7.226799965E0
2.687600000E1,-8.258000016E-1,-2.921799898E0,-6.683599949E0
2.689600000E1,-3.855399847E0,-3.115599871E0,-5.300600052E0
2.691600000E1,-4.027999878E0,-2.147899866E0,-2.053499937E0
2.693600000E1,-3.740499973E0,1.618499994E0,-9.237999916E-1
2.695600000E1,-3.368199825E0,5.401199818E0,2.617999911E-1
2.697600000E1,-1.272300005E0,4.402899742E0,2.707000017E0
2.699600000E1,-4.930999875E-1,2.346899986E0,3.500900030E0
2.701600000E1,-6.094999909E-1,1.562999964E0,4.861000061E0
2.703600000E1,-3.953000009E-1,2.119999938E-2,6.170399666E0
2.705600000E1,-6.219999865E-2,-6.405999660E-1,2.445899963E0
2.707600000E1,4.409999773E-2,-9.344999790E-1,-9.903999567E-1
2.709600000E1,-7.236999869E-1,4.691999853E-1,7.840999961E-1
2.711600000E1,-1.113399982E0,-8.050000072E-1,2.805599928E0
2.713600000E1,9.472000003E-1,-5.716899872E0,1.405369949E1
2.715600156E1,1.582000017E0,-6.558399677E0,1.520219994E1
2.717600156E1,-1.022499919E0,-5.251499653E0,7.626399994E0
2.719600156E1,-2.685799837E0,-4.554100037E0,1.734599948E0
2.721600156E1,-2.184999943E0,-5.344899654E0,4.658400059E0
2.724600000E1,6.819999963E-2,-4.469099998E0,1.491739941E1
2.726600000E1,8.938999772E-1,-2.571699858E0,9.440999985E0
2.728600000E1,3.348999918E-1,-2.750699997E0,-4.459700108E0
2.730600000E1,-1.011799932E0,-4.516399860E0,-5.449299812E0
2.732600000E1,-8.989999443E-2,-6.807600021E0,-3.984299898E0
2.734600000E1,1.257200003E0,-8.366099358E0,-2.564999819E0
2.736600000E1,3.209800005E0,-8.033299446E0,8.012999535E0
2.738600469E1,2.172999859E0,-4.259900093E0,1.246999949E-1
2.741600156E1,-1.049999986E-2,2.061100006E0,-3.327699900E0
2.744600000E1,-1.108600020E0,3.277199984E0,-5.665199757E0
2.746600156E1,-3.782199860E0,2.746899843E0,-6.869099617E0
2.749600000E1,-4.044099808E0,3.955399990E0,-7.583399773E0
2.751600000E1,-3.635799885E0,5.839499950E0,-9.080900192E0
2.753600000E1,-3.101099968E0,7.541599751E0,-1.031159973E1
2.755600000E1,-2.872299910E0,7.653199673E0,-9.812199593E0
2.757600000E1,-3.314399958E0,8.134699821E0,-7.451399803E0
2.759600000E1,-3.332299948E0,6.602499962E0,-4.610899925E0
2.761600000E1,-1.288999915E0,1.558899999E0,3.586699963E0
2.763600000E1,8.015500069E0,-1.174079990E1,2.547119904E1
2.765600000E1,1.269959927E1,-2.031069946E1,2.554819870E1
2.767600156E1,4.293299675E0,-3.224799871E0,5.248499870E0
2.770600000E1,2.446599960E0,2.222199917E0,-6.323599815E0
2.772600000E1,1.694999933E0,-2.752899885E0,-1.041720009E1
2.774600000E1,1.416700006E0,-5.515899658E0,-9.126999855E0
2.776600000E1,3.561999798E-1,-1.930699944E0,8.479999751E-2
2.778600000E1,-1.351099968E0,4.414199829E0,-8.897899628E0
2.780600000E1,6.997999549E-1,8.234999776E-1,-9.606399536E0
2.782600156E1,6.532999873E-1,-3.518899918E0,-6.888199806E0
2.785600000E1,-3.527099848E0,-3.104099989E0,-4.937500000E0
2.787600000E1,-4.017899990E0,-2.079299927E0,-1.478999972E0
2.789600000E1,-3.736799955E0,1.819000006E0,-7.339999676E-1
2.791600000E1,-2.523000002E0,4.814199924E0,1.241999939E-1
2.793600000E1,-1.077899933E0,4.087299824E0,2.203299999E0
2.795600000E1,-3.544999957E-1,2.692499876E0,2.007799864E0
2.797600000E1,-1.190400004E0,1.765499949E0,1.029399991E0
2.799600000E1,-1.340099931E0,2.763999999E-1,1.494899988E0
2.801600000E1,9.742999673E-1,-5.306999683E-1,8.565199852E0
2.803600000E1,1.705500007E0,-1.764299989E0,3.684099913E0
2.805600000E1,3.759000003E-1,-1.329499960E0,1.566299915E0
2.807600000E1,-1.523800015E0,-1.656199932E0,5.013999939E0
2.809600000E1,-1.406899929E0,-4.904999733E0,1.344799995E1
2.811600000E1,-9.472999573E-1,-6.686599731E0,1.252999973E1
2.813600000E1,-2.408599854E0,-5.603099823E0,7.511899948E0
2.815600000E1,-2.971599817E0,-4.378799915E0,4.038199902E0
2.817600781E1,-7.019000053E-1,-5.525599957E0,8.208000183E0
2.820600000E1,1.062500000E0,-4.194399834E0,1.501139927E1
2.822600000E1,7.870000005E-1,-3.397699833E0,5.613599777E0
2.824600000E1,-1.852999926E-1,-2.698899984E0,-7.245399952E0
2.826600000E1,-1.225999951E0,-5.375199795E0,-4.456999779E0
2.829600000E1,1.133399963E0,-9.227600098E0,-3.452099800E0
2.831600000E1,2.837299824E0,-8.834099770E0,3.702399969E0
2.833600000E1,3.257499933E0,-6.650599957E0,2.671099901E0
2.835600000E1,8.229999542E-1,-7.093999982E-1,-3.245599985E0
2.837600000E1,2.570999861E-1,2.521800041E0,-3.667099953E0
2.839600000E1,-3.865999877E-1,4.082200050E0,-6.203199863E0
2.841600000E1,-1.310599923E0,3.890499830E0,-7.023399830E0
2.843600000E1,-4.744400024E0,4.281300068E0,-7.943899632E0
2.845600000E1,-4.818599701E0,4.401700020E0,-8.071899414E0
2.847600000E1,-4.485399723E0,5.487699986E0,-9.485899925E0
2.849600000E1,-4.146500111E0,7.014400005E0,-1.067729950E1
2.851600000E1,-3.826200008E0,7.350599766E0,-9.812699318E0
2.853600000E1,-3.862599850E0,8.520199776E0,-7.408199787E0
2.855600000E1,-3.349599838E0,6.253999710E0,-5.343499660E0
2.857600469E1,7.595999837E-1,-1.130399942E0,9.945399284E0
2.860600000E1,1.510109997E1,-2.092429924E1,3.111730003E1
2.862600000E1,5.132100105E0,-6.627199650E0,8.466300011E0
2.864600000E1,2.011299849E0,1.169899940E0,-4.219199657E0
2.866600000E1,2.536000013E0,1.295300007E0,-5.751299858E0
2.868600000E1,2.401399851E0,-3.659399986E0,-1.288070011E1
2.870600000E1,8.016999960E-1,-4.532000065E0,-6.958799839E0
2.872600000E1,3.370999992E-1,-1.491999924E-1,-1.851899981E0
2.874600000E1,-7.111999989E-1,2.765499830E0,-8.628399849E0
2.876600000E1,3.956999779E-1,-1.082000017E0,-9.690099716E0
2.878600000E1,-7.796999812E-1,-2.571899891E0,-8.077199936E0
2.880600000E1,-2.972199917E0,-2.264899969E0,-5.617399693E0
2.882600000E1,-4.754600048E0,-2.187799931E0,-2.710700035E0
2.884600000E1,-4.316599846E0,4.662999809E-1,-7.626000047E-1
2.886600000E1,-2.756500006E0,3.114899874E0,-4.695999920E-1
2.888600000E1,-1.745499969E0,3.885099888E0,1.786499977E0
2.890600000E1,-6.518999934E-1,2.748600006E0,3.265300035E0
2.892600000E1,-5.601999760E-1,1.924600005E0,2.914399862E0
2.894600000E1,-2.089999914E-1,8.578000069E-1,6.786399841E0
2.896600000E1,2.326999903E-1,-1.586000025E-1,5.828299999E0
2.898600000E1,6.692000031E-1,-6.354999542E-1,1.539699912E0
2.900600000E1,-9.416999817E-1,-8.649999648E-2,-1.131299973E0
2.902600000E1,-1.890100002E0,-6.430000067E-2,4.535999894E-1
2.904600000E1,-1.881999969E0,-1.946799994E0,2.685199976E0
2.906600000E1,-5.570999980E-1,-4.829999924E0,1.355539989E1
2.908600000E1,-5.139999837E-2,-5.662799835E0,1.694099998E1
2.910600000E1,-1.796799898E0,-5.712899685E0,4.878399849E0
2.912600000E1,-2.544899940E0,-3.661899805E0,1.263099909E0
2.914600000E1,3.725000024E-1,-5.730099678E0,8.032699585E0
2.916600000E1,1.891299963E0,-5.017799854E0,1.401449966E1
2.918600000E1,1.126899958E0,-3.838699818E0,1.379529953E1
2.920600000E1,-2.311999947E-1,-4.043900013E0,8.396999836E-1
2.922600000E1,-2.053900003E0,-5.101399899E0,-6.290199757E0
2.924600000E1,-2.540000081E-1,-7.138099670E0,-4.062299728E0
2.926600000E1,8.453999758E-1,-8.004199982E0,-4.064799786E0
2.928600000E1,1.739399910E0,-6.281099796E0,-3.128899813E0
2.930600000E1,4.153500080E0,-6.429999828E0,1.218859959E1
2.932600156E1,1.589399934E0,-2.000400066E0,8.139999956E-2
2.935600000E1,4.837999940E-1,2.344899893E0,-3.804299831E0
2.937600000E1,-4.120999873E-1,3.111399889E0,-6.286599636E0
2.939600156E1,-1.526199937E0,3.618599892E0,-6.894599915E0
2.942600000E1,-5.535399914E0,4.064899921E0,-8.369299889E0
2.944600000E1,-4.527599812E0,4.343699932E0,-7.967399597E0
2.946600000E1,-4.270999908E0,6.280999660E0,-1.016199970E1
2.948600000E1,-4.427999973E0,7.996899605E0,-1.012669945E1
2.950600000E1,-4.467199802E0,8.556499481E0,-7.124399662E0
2.952600000E1,-3.648399830E0,6.199599743E0,-3.655999899E0
2.954600000E1,3.328000009E-1,1.506199956E0,4.717599869E0
2.956600000E1,9.195899963E0,-9.846099854E0,2.006429863E1
2.958600000E1,1.253299999E1,-1.601420021E1,2.267319870E1
2.960600000E1,3.401499987E0,-2.356299877E0,3.632399797E0
2.962600000E1,2.038800001E0,-3.559999913E-2,-2.423799992E0
2.965600156E1,1.916199923E0,-3.197700024E0,-1.324289989E1
2.968600000E1,1.317499995E0,-2.396399975E0,-4.997200012E0
2.970600000E1,5.383999944E-1,1.867699981E0,-4.994499683E0
2.972600000E1,8.655999899E-1,3.677999973E-1,-9.204199791E0
2.974600000E1,8.901000023E-1,-2.688499928E0,-9.055500031E0
2.976600000E1,-1.951200008E0,-3.341300011E0,-8.327499390E0
2.978600000E1,-3.532899857E0,-3.214299917E0,-5.575399876E0
2.980600000E1,-3.994699955E0,-2.422799826E0,-1.131899953E0
2.982600156E1,-4.156499863E0,1.074699998E0,2.600000007E-3
2.985600000E1,-2.092900038E0,4.842799664E0,3.437799931E0
2.987600000E1,-8.342999816E-1,3.773099899E0,5.675399780E0
2.989600156E1,-3.740999997E-1,2.098399878E0,3.755999804E0
2.992600000E1,-9.809999466E-1,3.838999867E-1,4.242399693E0
2.994600000E1,5.315999985E-1,3.859999776E-2,5.476699829E0
2.996600000E1,3.996999860E-1,-1.442600012E0,9.633999467E-1
2.998600313E1,-1.437199950E0,-1.798799992E0,3.292999864E-1
3.001600000E1,-1.716399908E0,-2.881599903E0,5.804699898E0
3.003600000E1,9.716999531E-1,-6.668299675E0,1.794669914E1
3.005600000E1,-1.228999943E-1,-6.645799637E0,1.069199944E1
3.007600000E1,-3.430699825E0,-4.456699848E0,2.072999954E0
3.009600000E1,-2.270900011E0,-2.949299812E0,6.013799667E0
3.011600000E1,1.462399960E0,-5.135799885E0,1.476979923E1
3.013600000E1,2.292700052E0,-3.099099874E0,1.641580009E1
3.015600000E1,4.927999973E-1,-4.547599792E0,1.380800009E0
3.017600156E1,-9.785999656E-1,-4.914199829E0,-8.064100266E0
3.020600000E1,-4.334999919E-1,-9.107899666E0,-2.954999924E0
3.022600156E1,1.206799984E0,-1.000119972E1,-3.327199936E0
3.025600156E1,4.081399918E0,-7.890599728E0,1.034439945E1
3.027600156E1,1.698599935E0,-2.537899971E0,3.849999979E-2
3.029600156E1,1.125900030E0,1.434099913E0,-3.867299795E0
3.031600156E1,-1.543999910E-1,3.564800024E0,-6.004799843E0
3.033600156E1,-9.473999739E-1,4.764100075E0,-7.828099728E0
3.036600156E1,-3.842799902E0,5.358799934E0,-7.958699703E0
3.038600156E1,-4.711199760E0,5.059599876E0,-7.260799885E0
3.041600000E1,-4.820499897E0,5.999300003E0,-1.108570004E1
3.043600000E1,-4.211499691E0,6.666299820E0,-1.089050007E1
3.045600000E1,-4.520400047E0,7.671499729E0,-8.259900093E0
3.047600156E1,-4.993599892E0,6.336599827E0,-5.664899826E0
3.050600000E1,2.821899891E0,-4.850199699E0,1.331149960E1
3.052600000E1,1.614839935E1,-1.698929977E1,2.553629875E1
3.054600000E1,1.306919956E1,-7.782399654E0,1.262459946E1
3.056600000E1,2.694599867E0,1.803699970E0,-2.430500031E0
3.058600000E1,1.267099977E0,1.364099979E0,-3.630199909E0
3.060600000E1,6.972000003E-1,-3.242899895E0,-7.815699577E0
3.062600000E1,-3.482999802E-1,-4.916899681E0,-8.595999718E0
3.064600000E1,6.617000103E-1,-2.234699965E0,-2.053699970E0
3.066600000E1,4.084999859E-1,5.080999732E-1,-5.785799980E0
3.068600000E1,-1.235999942E0,-2.201999873E-1,-9.622599602E0
3.070600000E1,-2.173799992E0,-2.651000023E0,-9.721499443E0
3.072600000E1,-3.447000027E0,-3.119099855E0,-7.612799644E0
3.074600000E1,-5.024399757E0,-3.197700024E0,-3.046200037E0
3.076600000E1,-4.342099667E0,-2.162999958E-1,1.931999922E-1
3.078600000E1,-3.097999811E0,3.364399910E0,7.448999882E-1
3.081600000E1,-1.038399935E0,5.148099899E0,3.479199886E0
3.083600000E1,-7.769999653E-2,2.468799829E0,3.048300028E0
3.085600000E1,-4.111999869E-1,1.075500011E0,4.833799839E0
3.087600000E1,4.178999960E-1,-1.782999933E-1,7.310799599E0
3.089600000E1,1.152400017E0,-1.953999996E-1,3.612699986E0
3.091600000E1,2.083999962E-1,-5.670999885E-1,5.886999965E-1
3.093600000E1,-1.592599988E0,-1.218899965E0,1.230299950E0
3.095600313E1,-2.226699829E0,-1.674999952E0,2.976199865E0
3.098600000E1,4.029999971E-1,-5.511499882E0,1.495419979E1
3.100600000E1,-4.199999869E-1,-6.647500038E0,1.246000004E1
3.102600000E1,-2.999899864E0,-5.466099739E0,2.702299833E0
3.104600000E1,-2.461899996E0,-4.938199997E0,4.022500038E0
3.106600000E1,6.369000077E-1,-6.773699760E0,1.388609982E1
3.108600000E1,1.196399927E0,-3.927799940E0,1.623390007E1
3.110600000E1,-1.024299979E0,-4.091700077E0,1.436200023E0
3.112600000E1,-2.911799908E0,-3.641599894E0,-7.168799877E0
3.114600000E1,-1.972499967E0,-6.733699799E0,-3.699499846E0
3.116600000E1,-3.579999804E-1,-8.961400032E0,-3.827699900E0
3.118600000E1,9.569999576E-1,-7.380899906E0,-3.124399900E0
3.120600000E1,3.082199812E0,-7.221600056E0,1.204299927E1
3.122600156E1,1.816499949E0,-3.216300011E0,4.284999967E-1
3.125600000E1,4.287999868E-1,2.395499945E0,-5.588999748E0
3.127600000E1,1.489000022E-1,4.199599743E0,-8.165800095E0
3.129600000E1,-1.905699968E0,4.450500011E0,-7.328299999E0
3.131600000E1,-4.399799824E0,5.198899746E0,-7.605999947E0
3.133600000E1,-4.239099979E0,5.852900028E0,-8.657400131E0
3.135600000E1,-4.023399830E0,6.865999699E0,-9.535099983E0
3.137600156E1,-4.373099804E0,7.409799576E0,-1.008199978E1
3.140600000E1,-5.378200054E0,7.792999744E0,-8.091699600E0
3.142600000E1,-3.785599947E0,4.405799866E0,-5.167799950E0
3.144600000E1,1.235999987E-1,-3.806399822E0,7.159100056E0
3.146600000E1,1.069759941E1,-1.601619911E1,2.876299858E1
3.148600000E1,1.135159969E1,-1.117299938E1,1.864179993E1
3.150600000E1,2.774699926E0,2.556799889E0,-8.324999809E-1
3.152600000E1,2.353199959E0,5.591999888E-1,-2.721899986E0
3.154600000E1,2.653199911E0,-4.376399994E0,-1.434809971E1
3.156600000E1,7.469999790E-1,-5.605099678E0,-1.018050003E1
3.158600000E1,-1.122200012E0,3.506000042E-1,-2.034600019E0
3.160600000E1,-1.222000003E0,2.857599974E0,-7.226399899E0
3.162600000E1,-2.254899979E0,-9.165999889E-1,-8.624099731E0
3.164600000E1,-4.220999718E0,-4.752500057E0,-1.008339977E1
3.166600000E1,-5.838199615E0,-5.995999813E0,-6.108799934E0
3.168600000E1,-5.080299854E0,-4.175399780E0,-1.917299986E0
3.170600000E1,-4.052799702E0,1.288999915E-1,4.895999730E-1
3.172600000E1,-3.788599968E0,5.485499859E0,3.014099836E0
3.174600000E1,-1.303900003E0,6.992199898E0,1.101809978E1
3.176600000E1,5.011999607E-1,2.602399826E0,5.866099834E0
3.178600000E1,-1.111899972E0,1.587000012E0,3.335999846E-1
3.180600000E1,-2.725999832E0,9.317999482E-1,-1.799499989E0
3.182600156E1,-2.382699966E0,1.225399971E0,-7.182999849E-1
3.185600000E1,1.995999962E-1,-5.619999766E-1,9.291999936E-1
3.187600000E1,1.056499958E0,-2.964599848E0,4.110399723E0
3.189600000E1,1.749300003E0,-3.740099907E0,1.243120003E1
3.191600000E1,3.874199867E0,-6.631199837E0,1.591889954E1
3.193600000E1,1.927399993E0,-7.072999954E0,1.065250015E1
3.195600000E1,-1.862199903E0,-4.462800026E0,4.483599663E0
3.197600000E1,-2.041399956E0,-5.400700092E0,5.581399918E0
3.199600000E1,-1.407199979E0,-6.397399902E0,1.160639954E1
3.201600000E1,-6.552999616E-1,-4.408699989E0,9.104000092E0
3.203600000E1,-4.587999880E-1,-2.938499928E0,-3.187199831E0
3.205600000E1,-8.399999738E-1,-5.280099869E0,-9.044999480E-1
3.207600000E1,-2.654999793E-1,-7.037199974E0,-3.216899872E0
3.209600000E1,2.877999842E-1,-8.684399605E0,-2.030799866E0
3.211600000E1,9.199000001E-1,-8.135700226E0,1.483099937E0
3.213600000E1,-5.009999871E-2,-4.851200104E0,-2.098999918E-1
3.215600156E1,-1.161599994E0,-5.561999679E-1,-1.864499927E0
3.217601719E1,-9.624999762E-1,1.766199946E0,-3.576099873E0
3.220600000E1,-2.362999916E0,4.813299656E0,-7.443699837E0
3.222600000E1,-4.051499844E0,5.205499649E0,-8.749099731E0
3.224600000E1,-3.277999878E0,5.548199654E0,-7.417899609E0
3.226600000E1,-3.675999880E0,6.145400047E0,-8.467499733E0
3.228600000E1,-3.906199932E0,6.519599915E0,-9.569099426E0
3.230600000E1,-3.862900019E0,6.953799725E0,-1.014919949E1
3.232600000E1,-3.550599813E0,7.758399963E0,-7.989899635E0
3.234600000E1,-2.347199917E0,5.471499920E0,-5.669099808E0
3.236600000E1,-3.628999889E-1,-4.444999993E-1,2.826499939E0
3.238600312E1,7.974199772E0,-1.295459938E1,2.321290016E1
3.241600000E1,5.479000092E0,-8.301300049E0,1.484189987E1
3.243600000E1,-1.058899999E0,3.316799879E0,-2.773000002E-1
3.245600000E1,9.259999990E-1,-1.141399980E0,-3.453399897E0
3.247600000E1,1.685299993E0,-4.773299694E0,-1.507209969E1
3.249600000E1,1.729299903E0,-4.867300034E0,-1.078759956E1
3.251600000E1,-4.882999957E-1,1.668599963E0,-2.316099882E0
3.253600156E1,-2.838000059E-1,3.019799948E0,-8.295199394E0
3.256600000E1,-1.108999997E-1,-2.144899845E0,-7.953799725E0
3.258600000E1,-3.574899912E0,-3.114899874E0,-7.801599979E0
3.260600000E1,-6.410500050E0,-4.485699654E0,-5.045399666E0
3.262600000E1,-4.971799850E0,-2.526999950E0,-1.892199993E0
3.264600000E1,-3.716599941E0,1.923900008E0,7.329999655E-2
3.266600000E1,-3.096699953E0,4.967299938E0,2.236299992E0
3.268600000E1,-1.292299986E0,4.721600056E0,1.140719986E1
3.270600000E1,-4.672999978E-1,2.928299904E0,4.940299988E0
3.272600000E1,-2.172499895E0,1.171499968E0,8.079999685E-2
3.274600000E1,-2.769299984E0,1.091499925E0,-7.690999508E-1
3.276600000E1,-1.686100006E0,5.062999725E-1,-8.129999787E-2
3.278600000E1,-1.328999996E-1,-1.270599961E0,7.317999601E-1
3.280600000E1,1.254799962E0,-3.128099918E0,7.573400021E0
3.282600156E1,3.814799786E0,-4.563899994E0,1.725969887E1
3.285600000E1,2.278800011E0,-5.378900051E0,6.042699814E0
3.287600000E1,-1.703899980E0,-4.604300022E0,4.776599884E0
3.289600000E1,-1.485799909E0,-4.572899818E0,7.597599983E0
3.291600000E1,-7.220000029E-2,-7.249499798E0,1.168169975E1
3.293600000E1,3.287999928E-1,-5.070899963E0,1.273320007E1
3.295600000E1,-2.258999944E-1,-4.386600018E0,1.689999998E-1
3.297600000E1,-2.134599924E0,-4.837399960E0,-3.882499933E0
3.299600000E1,-6.886000037E-1,-7.670599937E0,-4.159399986E0
3.301600000E1,9.219999611E-2,-9.794899940E0,-3.743999958E0
3.303600000E1,7.522999644E-1,-8.947500229E0,8.463999629E-1
3.305600000E1,9.807999730E-1,-6.167500019E0,2.434999943E0
3.308600000E1,-8.628999591E-1,2.938999832E-1,-2.521100044E0
3.310600000E1,-1.222999930E0,2.495199919E0,-3.796099901E0
3.312600000E1,-2.093699932E0,4.040199757E0,-6.525199890E0
3.314600000E1,-3.995199919E0,4.974400043E0,-8.972000122E0
3.316600000E1,-3.454099894E0,6.464599609E0,-8.486100197E0
3.318600156E1,-3.338299990E0,6.903599739E0,-8.456899643E0
3.321600000E1,-4.404900074E0,6.732100010E0,-1.055519962E1
3.323600000E1,-3.756799936E0,6.759599686E0,-1.016679955E1
3.325600000E1,-3.390299797E0,7.688399792E0,-8.327099800E0
3.327600000E1,-2.398399830E0,4.927000046E0,-6.419499874E0
3.329600000E1,9.983999729E-1,-2.722800016E0,5.557899952E0
3.331600000E1,1.066659927E1,-1.626580048E1,2.711310005E1
3.333600000E1,1.041009998E1,-1.479189968E1,2.349399948E1
3.335600000E1,7.857999802E-1,1.513999939E0,3.066999912E0
3.337600000E1,1.239599943E0,3.003000021E-1,-5.770299911E0
3.339600000E1,1.038499951E0,-3.843999863E0,-9.869999886E0
3.341600000E1,3.932399988E0,-7.676599979E0,-1.340529919E1
3.343600000E1,1.329800010E0,-3.341699839E0,2.126899958E0
3.345600000E1,-1.649999976E0,5.537199974E0,-1.058039951E1
3.347600000E1,6.333000064E-1,1.788199902E0,-1.131639957E1
3.349600000E1,1.187699914E0,-1.591599941E0,-8.349999428E0
3.351600000E1,-6.940000057E-1,-2.446899891E0,-6.425099850E0
3.353600000E1,-3.315699816E0,-2.950799942E0,-5.422100067E0
3.355600000E1,-6.030099869E0,-2.564399958E0,-1.137099981E0
3.357600000E1,-4.220900059E0,1.218400002E0,-5.570999980E-1
3.359600000E1,-1.996599913E0,2.898999929E0,1.456900001E0
3.361600000E1,-1.110599995E0,2.867599964E0,3.512899876E0
3.363600000E1,-1.331699967E0,3.049000025E0,4.557799816E0
3.365600000E1,-1.937199950E0,2.650799990E0,5.128999710E0
3.367600000E1,-3.705999851E-1,6.711999774E-1,5.025199890E0
3.369600000E1,-1.485999972E-1,-4.127999842E-1,2.322399855E0
3.371600000E1,-6.602999568E-1,-5.512999892E-1,1.077899933E0
3.373600000E1,-1.365899920E0,-1.416700006E0,2.188699961E0
3.375600000E1,-1.276199937E0,-3.233099937E0,8.751399994E0
3.377600000E1,1.182699919E0,-5.701799870E0,1.620709991E1
3.379600000E1,5.101999640E-1,-6.719899654E0,1.044829941E1
3.381600000E1,-3.319499969E0,-5.344899654E0,2.804100037E0
3.383600000E1,-3.310400009E0,-4.567999840E0,3.728899956E0
3.385600000E1,-3.819999993E-1,-5.704299927E0,1.225000000E1
3.387600000E1,1.782199979E0,-4.075599670E0,1.671590042E1
3.389600000E1,-3.599999845E-2,-4.121099949E0,-1.150399923E0
3.391600000E1,-6.866999865E-1,-4.246799946E0,-8.483499527E0
3.393600000E1,-4.888999760E-1,-7.110299587E0,-4.071799755E0
3.395600000E1,1.633799911E0,-9.445599556E0,-3.832799911E0
3.397600000E1,2.911399841E0,-6.942999840E0,-1.407499909E0
3.399600000E1,5.285500050E0,-5.535199642E0,5.247799873E0
3.401600000E1,2.963099957E0,-1.025900006E0,-3.470499992E0
3.403600000E1,2.009799957E0,2.429800034E0,-3.934799910E0
3.405600000E1,-3.604999781E-1,3.366799831E0,-4.556900024E0
3.407600000E1,-2.515199900E0,3.950299978E0,-6.632400036E0
3.409600000E1,-3.901799917E0,5.108399868E0,-8.973299980E0
3.411600000E1,-4.931799889E0,5.742300034E0,-7.474400043E0
3.413600000E1,-4.885099888E0,5.688899994E0,-9.750999451E0
3.415600000E1,-4.720599651E0,6.170799732E0,-1.150269985E1
3.417600156E1,-4.592599869E0,7.091899872E0,-1.065799999E1
3.419600156E1,-4.211400032E0,7.510099888E0,-7.741299629E0
3.422600000E1,-2.186100006E0,2.221999884E0,1.219999939E-1
3.424600000E1,7.689699650E0,-9.232899666E0,2.611739922E1
3.426600000E1,1.446129990E1,-1.764459991E1,2.795419884E1
3.428600000E1,5.380099773E0,-3.611899853E0,7.827899933E0
3.430600000E1,4.430999756E-1,2.745800018E0,-5.009599686E0
3.432600156E1,2.541999817E-1,1.205299973E0,-5.706899643E0
3.435600000E1,2.040799856E0,-5.652199745E0,-1.527419949E1
3.437600000E1,3.263700008E0,-7.435299873E0,6.353899956E0
3.439600000E1,1.522499919E0,1.873899937E0,-4.903399944E0
3.441600000E1,6.553999782E-1,1.557099938E0,-1.149669933E1
3.443600000E1,5.715999603E-1,-1.620599985E0,-7.971299648E0
3.445600000E1,-1.527799964E0,-3.042500019E0,-6.527899742E0
3.447600000E1,-4.295300007E0,-3.185699940E0,-4.869599819E0
3.449600000E1,-4.786200047E0,-2.497200012E0,-1.879899979E0
3.451600000E1,-4.119199753E0,8.504999876E-1,-7.324000001E-1
3.453600000E1,-2.355700016E0,3.599699974E0,1.059000015E0
3.455600000E1,-6.931999922E-1,4.002200127E0,2.901499987E0
3.457600000E1,-4.246999919E-1,3.541999817E0,3.176999807E0
3.459600000E1,-1.065699935E0,2.417000055E0,1.857800007E0
3.461600000E1,-1.074199915E0,1.503799915E0,5.081299782E0
3.463600000E1,6.352999806E-1,2.471999973E-1,7.773799896E0
3.465600000E1,1.344999909E0,-1.650399923E0,3.416599989E0
3.467600000E1,3.798999786E-1,-1.761199951E0,2.404000044E0
3.469600000E1,-8.226999640E-1,-2.840199947E0,6.790899754E0
3.471600000E1,4.079999924E-1,-5.540400028E0,1.145049953E1
3.473600000E1,4.860999882E-1,-5.674599648E0,9.159799576E0
3.475600000E1,-1.212299943E0,-4.680999756E0,4.778100014E0
3.477600000E1,-9.151999950E-1,-5.506000042E0,6.072099686E0
3.479600000E1,9.822999835E-1,-7.413799763E0,1.135099983E1
3.481600000E1,8.912000060E-1,-4.838900089E0,1.269460011E1
3.483600000E1,6.369999796E-2,-3.864699841E0,5.988100052E0
3.485600000E1,-1.073599935E0,-4.342999935E0,-6.698999882E0
3.487600000E1,-4.514999986E-1,-6.156199932E0,-4.370599747E0
3.489600000E1,1.137399912E0,-8.125599861E0,-4.000699997E0
3.491600000E1,2.120499849E0,-7.112400055E0,-3.677299976E0
3.493600000E1,3.696199894E0,-4.826499939E0,1.194100022E0
3.495600781E1,2.772799969E0,-1.450299978E0,2.252899885E0
3.498600000E1,1.047699928E0,2.746399879E0,-3.938799858E0
3.500600000E1,-6.644999981E-1,3.536199808E0,-4.911200047E0
3.502600000E1,-2.435799837E0,3.439199924E0,-6.641299725E0
3.504600000E1,-4.342899799E0,4.792999744E0,-7.950299740E0
3.506600000E1,-6.551099777E0,5.547399998E0,-9.002999306E0
3.508600000E1,-4.959799767E0,5.518899918E0,-9.441599846E0
3.510600000E1,-4.130300045E0,6.463199615E0,-1.005809975E1
3.512600000E1,-4.303299904E0,7.369299889E0,-8.957699776E0
3.514600000E1,-4.359399796E0,7.643599987E0,-6.478600025E0
3.516600000E1,-3.551499844E0,4.947000027E0,-2.813199997E0
3.518600000E1,2.618799925E0,-2.562500000E0,1.050579929E1
3.520600000E1,1.397559929E1,-1.532639980E1,2.467140007E1
3.522600000E1,9.397699356E0,-1.113319969E1,1.799749947E1
3.524600000E1,2.130899906E0,7.525999546E-1,9.879999757E-1
3.526600000E1,1.936299920E0,-6.983000040E-1,-4.076399803E0
3.528600000E1,1.263800025E0,-5.674299717E0,-7.042500019E0
3.530600000E1,1.672500014E0,-7.599299908E0,-8.682499886E0
3.532600000E1,-3.431999981E-1,8.557999730E-1,-5.376599789E0
3.534600000E1,-1.795599937E0,5.868000031E0,-1.093839931E1
3.536600000E1,-4.800000042E-2,4.360999763E-1,-9.037799835E0
3.538600000E1,-7.228999734E-1,-3.616299868E0,-8.778699875E0
3.540600000E1,-4.218999863E0,-5.115399837E0,-8.308799744E0
3.542600000E1,-6.193399906E0,-5.601699829E0,-3.691200018E0
3.544600000E1,-4.461100101E0,-2.910799980E0,7.499999832E-3
3.546600000E1,-3.446399927E0,2.520699978E0,1.697699904E0
3.548600000E1,-3.088599920E0,6.195299625E0,5.303099632E0
3.551600000E1,1.939999871E-2,2.605900049E0,6.356499672E0
3.553600000E1,-1.703099966E0,1.234699965E0,7.806999683E-1
3.555600000E1,-2.905599833E0,1.116099954E0,-3.655000031E-1
3.557600000E1,-2.000699997E0,1.307199955E0,-5.565999746E-1
3.559600000E1,-3.305999935E-1,1.718000025E-1,1.903999895E-1
3.561600000E1,5.016999841E-1,-1.257900000E0,2.123699903E0
3.563600000E1,1.077099919E0,-3.187199831E0,7.213299751E0
3.565600000E1,2.763200045E0,-5.255199909E0,1.623950005E1
3.567600000E1,2.987200022E0,-5.674499989E0,1.077589989E1
3.569600000E1,1.070999950E-1,-5.453299999E0,5.161099911E0
3.571600000E1,-2.147199869E0,-4.813199997E0,7.966199875E0
3.573600000E1,-1.431499958E0,-5.664099693E0,9.447500229E0
3.575600000E1,-7.206999660E-1,-5.090899944E0,1.066059971E1
3.577600156E1,6.509999931E-2,-3.713599920E0,8.921400070E0
3.580600000E1,-4.382999837E-1,-4.736499786E0,-5.743700027E0
3.582600000E1,-3.849000037E-1,-7.022299767E0,-4.860300064E0
3.584600000E1,1.037999988E0,-9.772799492E0,-4.294600010E0
3.586600000E1,1.860099912E0,-8.908599854E0,-2.840699911E0
3.588600000E1,1.811800003E0,-7.795799732E0,7.553799629E0
3.590600000E1,-4.244000018E-1,-1.457999945E0,-1.394299984E0
3.592600000E1,-5.160999894E-1,1.175499916E0,-3.206099987E0
3.594600000E1,-1.921999931E0,3.415400028E0,-5.151599884E0
3.596600000E1,-3.640100002E0,5.129499912E0,-7.141499996E0
3.598600000E1,-4.674200058E0,6.384999752E0,-8.628399849E0
3.600600000E1,-3.170699835E0,7.116600037E0,-8.396299362E0
3.602600000E1,-3.160499811E0,6.767899990E0,-8.883899689E0
3.604600000E1,-4.222300053E0,6.963999748E0,-1.008319950E1
3.607600000E1,-3.372399807E0,6.582099915E0,-9.168499947E0
3.609600000E1,-2.863899946E0,6.169799805E0,-8.073800087E0
3.611600000E1,-1.302699924E0,2.294299841E0,-4.476200104E0
3.613600000E1,2.688099861E0,-6.180299759E0,9.437500000E0
3.615600000E1,1.318159962E1,-1.721929932E1,2.919849968E1
3.617601094E1,6.552399635E0,-8.549099922E0,1.927000046E1
3.620600000E1,-1.458999962E-1,9.448999763E-1,-2.555899858E0
3.622600000E1,1.863999963E-1,-4.431600094E0,-6.101199627E0
3.624600000E1,2.492599964E0,-9.580699921E0,-1.208399963E1
3.626600000E1,1.249799967E0,-5.428699970E0,1.879199982E0
3.628600000E1,-1.417999983E0,7.134199619E0,-1.021129990E1
3.630600000E1,7.508999705E-1,5.767899990E0,-1.262769985E1
3.632600000E1,2.913399935E0,-8.222999573E-1,-7.928699970E0
3.634600000E1,8.218999505E-1,-4.146100044E0,-6.394499779E0
3.636600000E1,-2.972800016E0,-3.653899908E0,-7.230700016E0
3.638600000E1,-5.071599960E0,-3.426999807E0,-2.990099907E0
3.640600000E1,-4.325399876E0,7.669999450E-2,-9.828999639E-1
3.642600000E1,-2.808199883E0,3.716399908E0,6.947000027E-1
3.644600000E1,-1.744399905E0,4.650000095E0,2.866600037E0
3.646600000E1,-1.640599966E0,3.898999929E0,3.713699818E0
3.648600000E1,-1.788899899E0,2.317999840E0,3.066399813E0
3.650600000E1,-1.632999927E-1,5.141999722E-1,8.616499901E0
3.652600000E1,-6.089000106E-1,-5.371999741E-1,4.691199780E0
3.654600156E1,-2.066999972E-1,-2.282399893E0,1.490999907E-1
3.657600000E1,-2.236000001E-1,-1.879399896E0,1.876299977E0
3.659600000E1,-8.537999988E-1,-2.431900024E0,4.130899906E0
3.661600000E1,4.965099812E0,-7.015100002E0,2.387619972E1
3.663600000E1,3.728499889E0,-6.169300079E0,1.043750000E1
3.665600156E1,-2.407199860E0,-3.284699917E0,-7.992999554E-1
3.668600000E1,-1.794699907E0,-6.218599796E0,7.687500000E0
3.670600000E1,-6.355999708E-1,-3.870199919E0,1.714859962E1
3.672600000E1,1.095499992E0,-3.531299829E0,1.015439987E1
3.674600000E1,-9.450999498E-1,-4.657599926E0,-8.169300079E0
3.676600000E1,-9.343999624E-1,-7.152699947E0,-5.645299911E0
3.678600000E1,9.903999567E-1,-9.993999481E0,-4.767699718E0
3.680600000E1,2.440700054E0,-9.636499405E0,-4.267600060E0
3.682600000E1,3.110100031E0,-6.229699612E0,-5.871999860E-1
3.684600000E1,4.422699928E0,-2.170199871E0,3.006000042E0
3.686600000E1,1.636500001E0,8.776999712E-1,-3.471599817E0
3.688600000E1,-6.988999844E-1,3.823899984E0,-3.988299847E0
3.690600000E1,-2.849799871E0,4.310800076E0,-5.639999866E0
3.692600000E1,-6.362999916E0,5.687699795E0,-7.725100040E0
3.694600000E1,-7.166800022E0,6.810199738E0,-9.277500153E0
3.696600000E1,-5.190499783E0,6.311100006E0,-9.229999542E0
3.698600000E1,-4.554299831E0,6.723799706E0,-1.156919956E1
3.700600000E1,-4.556999683E0,6.850299835E0,-1.043949986E1
3.702600000E1,-4.052299976E0,7.009199619E0,-7.517899990E0
3.704600000E1,-3.083199978E0,5.810400009E0,-6.024199963E0
3.706600000E1,-4.486999810E-1,1.818999946E-1,4.494800091E0
3.708600000E1,1.120289993E1,-1.403499985E1,2.625079918E1
3.710600000E1,1.460309982E1,-1.808979988E1,2.438579941E1
3.712600000E1,4.148699760E0,-7.744999528E-1,5.535999775E0
3.714600000E1,7.364000082E-1,6.498099804E0,-4.619899750E0
3.716600000E1,1.917199969E0,4.473199844E0,-4.449899673E0
3.718600000E1,8.044999838E-1,-2.192800045E0,-1.974709892E1
3.720600000E1,-1.355700016E0,-7.971999645E0,-1.225500011E1
3.722600000E1,2.650599957E0,-5.102499962E0,-5.175999999E-1
3.724600000E1,4.120000005E-1,9.337999821E-1,-9.888899803E0
3.726600000E1,1.713099957E0,-8.744999766E-1,-8.370100021E0
3.728600000E1,9.312999845E-1,-3.778299809E0,-7.515199661E0
3.730600000E1,-2.322299957E0,-3.516799927E0,-7.147299767E0
3.732600000E1,-4.186599731E0,-4.920799732E0,-3.791899920E0
3.734600000E1,-4.493799686E0,-1.697099924E0,-4.946999848E-1
3.736600781E1,-2.663399935E0,2.353899956E0,9.531999826E-1
3.739600000E1,-1.273299932E0,5.378299713E0,3.213599920E0
3.741600000E1,-1.546800017E0,4.702499866E0,3.456599951E0
3.743600000E1,-1.667299986E0,2.120399952E0,2.361399889E0
3.745600000E1,-2.192699909E0,9.581999779E-1,2.265100002E0
3.747600000E1,9.649999440E-2,1.485999972E-1,9.503600121E0
3.749600000E1,8.998000026E-1,-1.736199975E0,5.424799919E0
3.751600000E1,8.525999784E-1,-4.973499775E0,7.385999560E-1
3.753600000E1,-9.271999598E-1,-3.403999805E0,3.699299812E0
3.755600000E1,1.942899942E0,-6.605899811E0,1.672369957E1
3.757600000E1,1.432600021E0,-8.632299423E0,1.618369865E1
3.759600000E1,-3.510099888E0,-5.256299973E0,4.874499798E0
3.761600000E1,-3.089900017E0,-2.601099968E0,6.004999638E0
3.763600000E1,-2.538000047E-1,-3.102499962E0,1.416569996E1
3.765600000E1,1.891399980E0,-1.987100005E0,1.603109932E1
3.767600000E1,1.340499997E0,-5.439199924E0,-2.458899975E0
3.769600000E1,-1.625499964E0,-8.804599762E0,-6.648399830E0
3.771600000E1,-4.845999777E-1,-1.181079960E1,-4.229099751E0
3.773600000E1,1.579899907E0,-1.218610001E1,-4.765699863E0
3.775600000E1,1.651799917E0,-7.432999611E0,-3.709800005E0
3.777600625E1,2.654500008E0,-3.398299932E0,-3.228999853E0
3.780600000E1,1.868899941E0,6.176999807E-1,6.607999802E-1
3.782600000E1,9.977999926E-1,2.592499971E0,-4.674599648E0
3.784600000E1,-4.890999794E-1,4.584300041E0,-6.822899818E0
3.787600000E1,-3.474200010E0,6.633800030E0,-8.460100174E0
3.789600000E1,-4.481999874E0,7.215499878E0,-1.067710018E1
3.791600000E1,-4.560499668E0,7.288300037E0,-1.169049931E1
3.793600000E1,-4.195499897E0,7.647399902E0,-1.058979988E1
3.795600000E1,-4.778800011E0,7.734099865E0,-8.342000008E0
3.797601406E1,-5.302399635E0,6.684700012E0,-7.166499615E0
3.800600000E1,-8.600999713E-1,3.913999796E-1,1.457700014E0
3.802600000E1,1.207189941E1,-1.441569996E1,3.300669861E1
3.804600000E1,1.591909981E1,-1.736030006E1,1.903100014E1
3.806600000E1,4.051700115E0,3.964000046E-1,6.477000117E-1
3.808600000E1,2.911999822E-1,3.618899822E0,-3.862099886E0
3.810600000E1,-3.567000031E-1,1.619899988E0,-1.048549938E1
3.812600000E1,-2.793000042E-1,-3.220899820E0,-1.261959934E1
3.814600000E1,7.918999791E-1,-7.909099579E0,-3.159699917E0
3.816600000E1,1.580599904E0,-2.768399954E0,-2.532399893E0
3.818600156E1,-8.260999918E-1,1.059999943E0,-8.333299637E0
3.821600000E1,-1.846300006E0,-3.503499985E0,-8.120800018E0
3.823600000E1,-3.790999889E0,-4.000199795E0,-4.902999878E0
3.825600000E1,-3.952399969E0,-2.759399891E0,-2.602900028E0
3.827600000E1,-2.852499962E0,9.129999578E-2,-1.682199955E0
3.829600000E1,-2.140100002E0,4.775700092E0,5.072999597E-1
3.831600000E1,-1.800799966E0,6.668399811E0,1.973799944E0
3.833600000E1,-1.040599942E0,4.799999714E0,2.143300056E0
3.835600000E1,-1.075799942E0,2.643299818E0,8.438999653E-1
3.837600000E1,-1.047299981E0,7.475999594E-1,2.144299984E0
3.839600000E1,5.269999802E-2,-4.812999964E-1,5.608200073E0
3.841600000E1,1.484499931E0,-2.609200001E0,3.185499907E0
3.843600000E1,1.175899982E0,-2.877899885E0,1.157299995E0
3.845600000E1,2.201999873E-1,-1.623799920E0,5.583999634E0
3.847600000E1,1.304399967E0,-4.181799889E0,1.589079952E1
3.849600000E1,1.065099955E0,-6.493199825E0,1.000839996E1
3.851600000E1,-2.238499880E0,-5.373199940E0,5.874499798E0
3.853600000E1,-3.108999968E0,-4.040199757E0,5.510900021E0
3.855600000E1,-1.063400030E0,-5.923699856E0,9.712100029E0
3.857600000E1,-1.067999974E-1,-4.088999748E0,1.409109974E1
3.859600000E1,3.170000017E-2,-3.973699808E0,6.039399624E0
3.861600000E1,-8.715999722E-1,-4.309000015E0,-6.839099884E0
3.863600000E1,-8.136000037E-1,-7.207399845E0,-3.925499916E0
3.865600000E1,7.894999981E-1,-9.879199982E0,-4.022999763E0
3.867600000E1,1.804699898E0,-8.569199562E0,-3.297099829E0
3.869600000E1,2.580899954E0,-6.936399937E0,5.741600037E0
3.871600000E1,7.730000019E-1,-1.638299942E0,-1.826299906E0
3.873600000E1,-2.818000019E-1,1.330899954E0,-3.029599905E0
3.875600000E1,-1.565599918E0,3.425199986E0,-4.176000118E0
3.878600000E1,-4.367399693E0,4.657299995E0,-6.612099648E0
3.880600000E1,-5.321099758E0,5.607999802E0,-8.991000175E0
3.882600000E1,-3.825500011E0,6.073499680E0,-8.374300003E0
3.884600000E1,-3.872099876E0,6.523099899E0,-9.072699547E0
3.887600000E1,-3.916999817E0,6.766499996E0,-1.019989967E1
3.889600000E1,-3.314399958E0,7.646299839E0,-7.991399765E0
3.891600000E1,-2.232300043E0,6.523900032E0,-6.213899612E0
3.893600000E1,4.300999939E-1,1.230199933E0,4.088500023E0
3.895600000E1,9.245100021E0,-1.128889942E1,2.024449921E1
3.897600000E1,1.327699947E1,-1.840460014E1,2.653639984E1
3.899600000E1,2.804100037E0,-2.526900053E0,5.842700005E0
3.901600000E1,2.685600042E0,-2.385799885E0,-3.567600012E0
3.903600000E1,7.637000084E-1,-6.681699753E0,-3.863499880E0
3.905600000E1,1.231799960E0,-6.667699814E0,-1.270869923E1
3.907600000E1,-1.531000018E0,2.558300018E0,-1.047229958E1
3.909600000E1,-2.548499823E0,7.537600040E0,-1.061709976E1
3.911600000E1,-8.000999689E-1,2.043499947E0,-9.391900063E0
3.913600000E1,5.139999986E-1,-4.572400093E0,-9.774499893E0
3.915600313E1,-2.316200018E0,-5.752999783E0,-1.020529938E1
3.918600156E1,-5.727699757E0,-6.361599922E0,-1.832199931E0
3.921600000E1,-3.428699970E0,2.578199863E0,1.042199969E0
3.923600000E1,-2.587499857E0,6.906899929E0,2.577899933E0
3.925600000E1,-1.129599929E0,6.557899952E0,3.532799959E0
3.927600000E1,-5.902999640E-1,3.763199806E0,4.342999935E0
3.929600000E1,8.291999698E-1,-2.407999933E-1,1.151029968E1
3.931600000E1,3.759000003E-1,-1.981599927E0,1.077869987E1
3.933600156E1,-1.569999903E-1,-1.683299899E0,4.839999676E0
3.936600000E1,-7.078999877E-1,-2.639699936E0,-1.053399920E0
3.938600000E1,-2.072999954E0,-1.633000016E0,1.776799917E0
3.940600000E1,-1.909399986E0,-3.665899992E0,3.505499840E0
3.942600000E1,1.666799903E0,-7.509599686E0,1.764589882E1
3.944600000E1,6.976000071E-1,-7.491099834E0,1.646419907E1
3.946600000E1,-3.263999939E0,-8.252799988E0,6.542099953E0
3.948600000E1,-3.842899799E0,-7.003099918E0,7.415299892E0
3.950600000E1,-2.170599937E0,-4.597099781E0,7.576699734E0
3.952600000E1,1.114000008E-1,-4.749899864E0,-3.762599945E0
3.954600000E1,-1.000599980E0,-7.238299847E0,-4.429299831E0
3.956600000E1,-5.829999968E-2,-1.015259933E1,-4.559799671E0
3.958600313E1,1.296899915E0,-8.614500046E0,-5.179399967E0
3.961600000E1,2.837499857E0,-2.919199944E0,2.843499899E0
3.963600000E1,3.187799931E0,6.984999776E-1,1.671599984E0
3.965600156E1,1.116400003E0,1.968599916E0,-2.931099892E0
3.968600000E1,-2.556399822E0,2.391199827E0,-5.132699966E0
3.970600000E1,-6.580299854E0,4.505000114E0,-7.246599674E0
3.972600000E1,-8.870100021E0,5.589799881E0,-9.967499733E0
3.974600000E1,-6.390399933E0,5.161900043E0,-1.025409985E1
3.976600000E1,-4.946499825E0,5.927199841E0,-1.143680000E1
3.978600000E1,-4.860399723E0,6.476500034E0,-1.017119980E1
3.980600000E1,-3.858999968E0,6.398599625E0,-8.606299400E0
3.982600156E1,-2.875499964E0,6.504299641E0,-6.680799961E0
3.984600156E1,-7.030999660E-1,2.951900005E0,-7.303999662E-1
3.986600156E1,5.447199821E0,-5.520599842E0,7.928299904E0
3.988600156E1,1.544359970E1,-1.691609955E1,2.409439850E1
3.990600156E1,7.957399845E0,-9.341199875E0,1.835980034E1
3.992600156E1,9.409999847E-1,1.120399952E0,1.453499913E0
3.994600156E1,1.055699944E0,3.341999948E-1,-9.608999491E-1
3.996600156E1,1.077199936E0,-3.736500025E0,-1.372189999E1
3.998600156E1,1.199899912E0,-3.957899809E0,-1.460169983E1
4.000600156E1,-1.218599916E0,-3.853999972E-1,-8.367699623E0
4.003600000E1,-1.779899955E0,5.613999963E-1,-9.181200027E0
4.005600000E1,1.963000000E-1,-5.340099812E0,-9.087499619E0
4.007600000E1,-2.139999866E0,-4.892399788E0,-8.710199356E0
4.009600156E1,-4.776799679E0,-4.089900017E0,-5.046799660E0
4.011600156E1,-3.720399857E0,-2.049399853E0,-8.959999681E-1
4.013600156E1,-3.045699835E0,3.207099915E0,1.202000022E0
4.016600000E1,-2.087399960E0,6.971499920E0,3.004299879E0
4.018600156E1,-7.832999825E-1,3.823899984E0,3.839900017E0
4.021600000E1,-6.015999913E-1,6.412000060E-1,6.243999958E0
4.023600000E1,-5.119999871E-2,-1.164999977E-1,7.394099712E0
4.025600156E1,1.916999966E-1,-9.684999585E-1,2.608599901E0
4.028600000E1,3.185999990E-1,-1.878799915E0,-2.511000037E-1
4.030600000E1,-1.291999936E0,-6.308999658E-1,2.208299875E0
4.032600000E1,-7.185999751E-1,-4.747299671E0,7.619699955E0
4.034600000E1,3.330399990E0,-8.969200134E0,2.060619926E1
4.036600000E1,-4.453999996E-1,-5.642299652E0,8.280300140E0
4.038600000E1,-2.905400038E0,-3.319899797E0,2.769699812E0
4.040600156E1,-1.587299943E0,-4.378699780E0,7.719499588E0
4.043600000E1,4.156999886E-1,-3.258399963E0,1.408409977E1
4.045600000E1,-3.749999776E-2,-5.914099693E0,-3.201299906E0
4.047600000E1,-1.689399958E0,-7.867199898E0,-6.096299648E0
4.049600000E1,1.519999951E-1,-1.033059978E1,-4.000699997E0
4.051600000E1,1.849099994E0,-1.048509979E1,-4.603399754E0
4.053600000E1,2.230099916E0,-6.415499687E0,-3.410899878E0
4.055600000E1,4.304299831E0,-4.375999928E0,8.030200005E0
4.057600000E1,2.288199902E0,1.066499949E0,-2.214599848E0
4.059600000E1,1.706499934E0,2.141799927E0,-4.156899929E0
4.061600000E1,-9.499999695E-3,3.292099953E0,-6.018899918E0
4.063600000E1,-2.779999971E0,4.412399769E0,-6.623999596E0
4.065600000E1,-4.812900066E0,5.473599911E0,-9.681900024E0
4.067600000E1,-4.579400063E0,5.634999752E0,-9.939499855E0
4.069600000E1,-4.018799782E0,6.213299751E0,-1.100259972E1
4.071600000E1,-4.329299927E0,6.830599785E0,-8.928699493E0
4.073600000E1,-5.236899853E0,7.513799667E0,-7.578499794E0
4.075600000E1,-5.069600105E0,7.688699722E0,-5.618700027E0
4.077600938E1,-2.520200014E0,5.388499737E0,-1.827099919E0
4.080600000E1,1.141790009E1,-1.072569942E1,2.029100037E1
4.082600000E1,1.548969936E1,-1.767689896E1,1.742889977E1
4.084600000E1,6.182699680E0,-3.101399899E0,6.756499767E0
4.086600000E1,1.433399916E0,1.010800004E0,-1.391499996E0
4.088600000E1,1.803799987E0,-1.476400018E0,-7.708899975E0
4.090600000E1,1.258299947E0,-4.765899658E0,-1.502279949E1
4.092600000E1,-4.675999880E-1,-2.885299921E0,-1.266149998E1
4.094600000E1,-2.951499939E0,2.336999923E-1,-8.318200111E0
4.096600000E1,-2.599499941E0,-2.525899887E0,-1.071519947E1
4.098600000E1,-2.770599842E0,-5.986599922E0,-1.226119995E1
4.100600000E1,-3.700199842E0,-5.983999729E0,-9.980199814E0
4.102600000E1,-4.541100025E0,-5.015100002E0,-4.581699848E0
4.104600000E1,-4.479899883E0,-7.906999588E-1,-3.390000015E-2
4.106600000E1,-2.944700003E0,4.267300129E0,2.036700010E0
4.108600000E1,-1.411700010E0,6.603099823E0,2.993499994E0
4.110600000E1,-6.161000133E-1,4.361499786E0,3.515699863E0
4.112600000E1,-7.275999784E-1,1.808099985E0,3.073299885E0
4.114600000E1,-1.547099948E0,6.725999713E-1,3.908699989E0
4.116600000E1,-1.108999997E-1,-1.303000003E-1,8.753799438E0
4.118600000E1,2.872999907E-1,-9.117999673E-1,4.255000114E0
4.120600000E1,1.181999967E-1,-1.509099960E0,7.992999554E-1
4.123600000E1,-1.631999969E0,-1.328999996E0,2.496999979E0
4.125600000E1,-1.028599977E0,-3.306599855E0,7.580999851E0
4.127600000E1,3.210899830E0,-7.351099968E0,1.885359955E1
4.129600313E1,1.118299961E0,-6.201699734E0,7.583799839E0
4.132600000E1,-2.420500040E0,-3.665399790E0,4.596899986E0
4.134600156E1,-1.907999963E-1,-5.921400070E0,1.244169998E1
4.137600000E1,3.179999813E-2,-4.602699757E0,1.090849972E1
4.139600000E1,-2.076999992E-1,-6.605599880E0,-7.993499756E0
4.141600000E1,-1.044999957E0,-8.445199966E0,-6.109499931E0
4.143600000E1,4.845999777E-1,-1.155379963E1,-4.523999691E0
4.145600000E1,2.077299833E0,-1.086139965E1,-4.058499813E0
4.147600000E1,2.904099941E0,-6.667199612E0,3.571599960E0
4.149600000E1,2.838199854E0,-2.296000004E0,2.248999923E-1
4.151600000E1,5.792999864E-1,1.505499959E0,-3.273399830E0
4.153600000E1,-7.360999584E-1,2.976799965E0,-3.018999815E0
4.155600156E1,-3.282599926E0,3.855599880E0,-5.155099869E0
4.157600156E1,-6.626199722E0,5.566099644E0,-9.095299721E0
4.159600156E1,-5.830100060E0,6.370499611E0,-1.062259960E1
4.162600000E1,-3.358199835E0,5.469799995E0,-1.148309994E1
4.164600000E1,-4.356499672E0,6.312500000E0,-1.158479977E1
4.166600000E1,-4.726900101E0,6.755300045E0,-9.857799530E0
4.168600000E1,-4.224699974E0,7.404399872E0,-7.870999813E0
4.170600000E1,-2.849599838E0,5.818399906E0,-5.580699921E0
4.172600156E1,-2.486999929E-1,-1.797000021E-1,6.074599743E0
4.175600000E1,1.482179928E1,-2.039119911E1,2.776549911E1
4.177603125E1,8.153299332E0,-1.165390015E1,1.459989929E1
4.180600000E1,-1.140999943E-1,6.398299694E0,-5.423099995E0
4.182600156E1,2.080000006E-2,4.070300102E0,-6.450299740E0
4.185600000E1,1.946000010E-1,-4.616399765E0,-1.704450035E1
4.187600000E1,1.285899997E0,-6.543099880E0,-4.234399796E0
4.189600000E1,2.526299953E0,-3.165199995E0,-3.480399847E0
4.191600000E1,1.475899935E0,-1.619199991E0,-7.697799683E0
4.193600000E1,3.619999886E-1,-2.757999897E0,-9.035599709E0
4.195601250E1,-1.878999949E0,-3.005199909E0,-7.383599758E0
4.198600000E1,-4.238199711E0,-1.960899949E0,-2.019999981E0
4.200600000E1,-3.689099789E0,2.204400063E0,-6.308000088E-1
4.202600000E1,-3.216099977E0,6.357500076E0,1.454000026E-1
4.204600000E1,-2.055399895E0,6.868299961E0,1.509499907E0
4.206600000E1,-1.262300014E0,4.046000004E0,1.419499993E0
4.208600000E1,-8.930999637E-1,1.622200012E0,-1.279600024E0
4.210600000E1,-1.500199914E0,-6.297999620E-1,-9.785999656E-1
4.212600000E1,-2.220399857E0,1.528999954E-1,1.302999973E0
4.214600000E1,-5.824999809E-1,4.745000005E-1,5.300699711E0
4.216600000E1,3.049000025E0,-3.048699856E0,1.092369938E1
4.218600156E1,4.633899689E0,-6.353099823E0,1.473589993E1
4.221600000E1,1.615999937E-1,-5.294199944E0,1.059100032E0
4.223600000E1,-2.222199917E0,-5.020400047E0,3.710599899E0
4.225600000E1,-3.312099934E0,-3.668200016E0,5.949899673E0
4.227600000E1,-6.466999650E-1,-5.310499668E0,1.038219929E1
4.229600000E1,9.232999682E-1,-6.125199795E0,1.136619949E1
4.231600000E1,2.364300013E0,-4.569200039E0,1.211049938E1
4.233600000E1,6.703999639E-1,-4.247699738E0,6.320399761E0
4.235600000E1,-3.670899868E0,-5.966399670E0,-9.793199539E0
4.237600000E1,-1.701399922E0,-7.509299755E0,-5.075900078E0
4.239600000E1,-4.749999940E-1,-7.043299675E0,-4.944799900E0
4.241600000E1,-1.699000001E-1,-5.374099731E0,-4.418399811E0
4.243600000E1,1.587700009E0,-3.509899855E0,-1.364199996E0
4.245600156E1,1.776399970E0,-2.093699932E0,4.817599773E0
4.247600156E1,-2.437999994E-1,1.695299983E0,-1.640900016E0
4.249600156E1,-1.998099923E0,3.315399885E0,-4.540800095E0
4.252600156E1,-3.523499966E0,2.921599865E0,-7.766199589E0
4.254600156E1,-7.397399902E0,3.709699869E0,-1.023110008E1
4.257600000E1,-5.792399883E0,4.835999966E0,-1.218529987E1
4.259600000E1,-4.219399929E0,6.246899605E0,-1.230609989E1
4.261600156E1,-4.292099953E0,8.143899918E0,-9.273300171E0
4.264600000E1,-2.250699997E0,7.768399715E0,-6.514800072E0
4.266600000E1,-1.394299984E0,3.320899963E0,-4.223999977E-1
4.268600000E1,6.397999763E0,-6.927799702E0,1.537080002E1
4.270600000E1,1.581369972E1,-2.077980042E1,3.288069916E1
4.272600000E1,5.825699806E0,-9.075200081E0,1.527469921E1
4.274600000E1,-9.983999729E-1,3.208899975E0,-3.237999916E0
4.276600000E1,-1.519999951E-1,3.133499861E0,-4.134799957E0
4.278600000E1,1.352999955E-1,-2.513000011E0,-1.475689983E1
4.280600000E1,2.916399956E0,-7.295899868E0,-1.452069950E1
4.282600156E1,1.751500010E0,-4.053400040E0,-3.508999825E0
4.285600000E1,6.667000055E-1,1.149000004E-1,-9.391200066E0
4.287600000E1,-2.270999998E-1,-1.475399971E0,-1.053919983E1
4.289600000E1,-1.434399962E0,-3.659299850E0,-9.574799538E0
4.291600000E1,-3.687299967E0,-3.746500015E0,-7.556399822E0
4.293600000E1,-3.896299839E0,-3.253099918E0,-3.590699911E0
4.295600156E1,-3.924899817E0,6.020999551E-1,-1.632099986E0
4.298600000E1,-2.747999907E0,5.435999870E0,1.239799976E0
4.300600000E1,-1.091099977E0,3.292399883E0,3.308399916E0
4.302600000E1,-9.416999817E-1,2.075899839E0,5.290599823E0
4.304600000E1,-1.236899972E0,1.032099962E0,9.124799728E0
4.306600000E1,-1.843400002E0,3.524999917E-1,5.301899910E0
4.308600000E1,-1.120999932E0,7.840000093E-2,6.033999920E-1
4.310600000E1,-5.572000146E-1,-4.580000043E-2,7.294999957E-1
4.312600000E1,-7.443000078E-1,-1.451299906E0,2.012099981E0
4.314600000E1,-7.597000003E-1,-3.384699821E0,5.195499897E0
