"Time (s)","Acceleration x (m/s^2)","Acceleration y (m/s^2)","Acceleration z (m/s^2)"
0.000000000E0,2.221531868E0,8.067119122E-1,7.063488960E0
2.000156300E-2,2.244334221E0,1.071884155E0,8.638432503E0
4.000781300E-2,1.353298545E0,5.866177082E-1,1.040381145E1
6.200156300E-2,7.884297371E-1,2.348711789E-1,1.071965504E1
8.200781300E-2,9.519345760E-1,3.735720813E-1,1.007005119E1
1.040015630E-1,1.311036110E0,8.825123310E-1,1.071155262E1
1.240015630E-1,1.921298951E-1,8.132720590E-1,1.052170181E1
1.440015630E-1,-1.335198432E-1,1.374022841E0,9.962570190E0
1.640078130E-1,5.902186036E-2,1.286098123E0,9.933619499E0
1.860015630E-1,-3.511910737E-1,5.021886230E-1,1.038292503E1
2.080000000E-1,-1.319310427E0,-2.489969833E-3,1.032973576E1
2.280000000E-1,-1.059482217E0,1.138682291E-1,9.388641357E0
2.480093750E-1,1.826871634E-1,2.980493903E-1,9.132740021E0
2.700000000E-1,7.057148963E-2,8.844181150E-2,1.032470798E1
2.900000000E-1,-1.220813036E0,-3.791457713E-1,1.024554634E1
3.100000000E-1,-1.535602689E0,-8.542511463E-1,1.052751541E1
3.300078130E-1,-9.797073603E-1,-3.369024992E-1,1.039755821E1
3.520000000E-1,-1.089265943E-1,3.007021546E-1,1.048507118E1
3.720078130E-1,-3.614765704E-1,6.237469912E-1,1.054690838E1
3.940000000E-1,-1.413795233E0,-1.639166325E-1,9.219841003E0
4.140062500E-1,-1.561795235E0,-5.797895193E-1,7.725025654E0
4.360000000E-1,-8.220443726E-1,-2.514103353E-1,8.301195145E0
4.560000000E-1,-7.144872546E-1,-4.020343348E-2,1.007424545E1
4.760000000E-1,-1.227066636E0,4.797022790E-2,1.089749622E1
4.960062500E-1,-1.847681999E0,-4.753448069E-1,1.025817776E1
5.180000000E-1,-1.879975080E0,-9.151405096E-1,1.011981106E1
5.380078130E-1,-1.444718719E0,-4.746169746E-1,1.081267452E1
5.600000000E-1,-1.131193280E0,6.745903194E-2,1.074740791E1
5.800000000E-1,-1.230485559E0,1.461420767E-2,1.056584167E1
6.000000000E-1,-1.490486383E0,-1.861443967E-1,1.020282364E1
6.200000000E-1,-1.705255747E0,-3.775656223E-1,9.775563240E0
6.400000000E-1,-1.750764728E0,-1.412387490E-1,9.597348213E0
6.600000000E-1,-1.673671484E0,2.448789477E-1,9.597780228E0
6.820000000E-1,-1.653081298E0,1.327537000E-1,9.502194405E0
7.020000000E-1,-1.709603667E0,-5.198290572E-2,9.102209091E0
7.220000000E-1,-1.638084054E0,4.212166965E-1,9.491917610E0
7.420000000E-1,-1.506431818E0,6.003413200E-1,1.001534748E1
7.620000000E-1,-1.472453237E0,3.935492933E-1,1.011262894E1
7.820000000E-1,-1.339172721E0,-3.666001558E-2,9.444665909E0
8.020000000E-1,-9.506704807E-1,-5.019204617E-1,9.161652565E0
8.220000000E-1,-5.350274444E-1,-7.552940249E-1,9.386515617E0
8.420015630E-1,-5.214380026E-1,-6.325097680E-1,9.988360405E0
8.620015630E-1,-7.091625333E-1,-4.292133152E-1,1.072888660E1
8.840062500E-1,-7.660200000E-1,-9.948961735E-1,1.053628826E1
9.060000000E-1,-1.230811119E0,-1.246727943E0,9.739583969E0
9.260000000E-1,-1.611843586E0,-9.988705516E-1,9.252612114E0
9.460000000E-1,-1.774850488E0,-9.711264968E-1,9.734862328E0
9.660015630E-1,-1.833288074E0,-1.511890531E0,1.125088120E1
9.880000000E-1,-9.667690396E-1,-2.240015030E0,1.092785454E1
1.008000000E0,2.710236423E-2,-1.960678816E0,9.583950996E0
1.028001563E0,7.351156324E-2,-1.022285819E0,8.877834320E0
1.048004688E0,-4.089583755E-1,-1.420144588E-1,8.089451790E0
1.070042188E0,-8.761437535E-1,1.881650984E-1,8.080258369E0
1.092000000E0,-1.052883625E0,-1.740967780E-1,9.604215622E0
1.112000000E0,-1.006953359E0,-8.401828408E-1,1.035563087E1
1.132000000E0,-4.814260900E-1,-1.340781689E0,1.051421261E1
1.152000000E0,1.010161564E-1,-1.005047560E0,1.028990555E1
1.172000000E0,2.025494725E-1,-6.267445683E-1,9.762281418E0
1.192000000E0,-3.424570262E-1,-3.478392065E-1,9.480531693E0
1.212000000E0,-5.241673589E-1,-1.371302903E-1,9.126265526E0
1.232001563E0,-6.374514103E-1,-5.511835217E-1,8.765842438E0
1.254000000E0,-5.536351800E-1,-9.500862360E-1,9.293256760E0
1.274001563E0,-1.069786787E0,-5.032899380E-1,1.058356857E1
1.294001563E0,-1.499488473E0,-1.814517528E-1,1.061562252E1
1.316001563E0,-1.027859449E0,-2.523105443E-1,9.617019653E0
1.336001563E0,-3.760237396E-1,-3.422750905E-2,9.454012871E0
1.358000000E0,-1.499823779E-1,1.604115032E-2,9.641775131E0
1.378000000E0,-2.422931977E-2,5.120718852E-2,9.662001610E0
1.398000000E0,5.396530405E-2,-2.550016344E-1,9.360878944E0
1.418001563E0,-2.547430620E-2,-7.981215119E-1,9.558466911E0
1.440000000E0,2.016875520E-2,-1.090520501E0,1.067151260E1
1.460000000E0,-1.530182213E-1,-6.929011345E-1,1.103460789E1
1.480000000E0,-1.364694983E-1,-5.429092050E-1,1.086366081E1
1.500000000E0,-6.406021714E-1,-1.099283338E0,1.095754337E1
1.520000000E0,-9.694793224E-1,-1.811998844E0,1.123864174E1
1.540000000E0,-7.625340819E-1,-2.186930895E0,1.163605976E1
1.560000000E0,-4.843565822E-1,-2.091028690E0,1.063138580E1
1.580000000E0,-4.664288163E-1,-1.025656819E0,9.395623207E0
1.600000000E0,-8.173996210E-1,4.561528862E-1,9.296838760E0
1.620000000E0,-1.423601985E0,1.517301440E0,9.433930397E0
1.640000000E0,-1.987915277E0,1.943766117E0,9.612422943E0
1.660001563E0,-1.936784625E0,1.102242589E0,9.386429787E0
1.680021875E0,-9.014744163E-1,3.198653460E-2,8.647501945E0
1.702000000E0,7.020852566E-1,2.453578077E-2,9.077232361E0
1.722000000E0,8.774270415E-1,7.546523958E-2,9.581153870E0
1.742000000E0,6.805279106E-2,-4.501099174E-4,9.266536713E0
1.762000000E0,-4.001572728E-1,-1.222096309E-1,8.430568695E0
1.782000000E0,-3.034411371E-1,1.471955329E-1,8.111268044E0
1.802000000E0,-2.563998401E-1,3.081241846E-1,9.165760994E0
1.822000000E0,-7.472303510E-1,2.458079010E-1,9.376919746E0
1.842000000E0,-6.578691602E-1,2.602401376E-1,8.945637703E0
1.862009375E0,-7.959283888E-2,2.193088681E-1,8.498573303E0
1.884001563E0,-5.011542886E-2,4.796064645E-2,1.000913239E1
1.906000000E0,-3.368162811E-1,2.834734973E-3,1.040577507E1
1.926001563E0,-2.905794680E-1,8.599972352E-3,9.984865189E0
1.946001563E0,-1.079689190E-1,1.424933076E-1,9.852436066E0
1.966046875E0,-3.496875167E-1,-6.225882098E-2,1.041183662E1
1.988000000E0,-3.955221176E-1,-5.176168084E-1,1.042629814E1
2.008000000E0,-1.914499551E-1,-9.815269113E-1,1.055681992E1
2.028000000E0,-4.557027817E-1,-8.648813963E-1,1.084354973E1
2.048000000E0,-1.030876279E0,-3.511048853E-1,1.043163300E1
2.068042188E0,-1.116444945E0,-2.311936915E-1,1.071782589E1
2.090018750E0,-8.480740786E-1,-7.089231014E-1,1.063185406E1
2.112000000E0,-8.980075717E-1,-7.205972075E-1,1.056830311E1
2.132000000E0,-7.199938893E-1,-3.553474247E-1,9.856727600E0
2.152001563E0,-8.018947840E-1,-1.653052717E-1,9.656102180E0
2.172001563E0,-1.006723523E0,-1.038030088E-1,1.012110424E1
2.192001563E0,-6.493170857E-1,-2.328983545E-1,9.489907265E0
2.214000000E0,-2.087743953E-2,-4.931193590E-1,8.688854218E0
2.234001563E0,1.365652680E-2,-1.269501448E-1,8.596103668E0
2.254006250E0,-3.980408311E-1,4.357351363E-1,8.700835228E0
2.276000000E0,-6.252697110E-1,5.127805471E-1,9.108156204E0
2.296001563E0,-6.593823433E-1,3.425049186E-1,9.339991570E0
2.316001563E0,-8.878465891E-1,5.876328796E-2,9.001987457E0
2.338000000E0,-1.045547843E0,-2.629120648E-1,9.211183548E0
2.358000000E0,-1.271052957E0,3.471496701E-1,9.788330078E0
2.378000000E0,-1.395110965E0,6.537415981E-1,9.571855545E0
2.398000000E0,-8.037143350E-1,-1.589175314E-1,8.779336929E0
2.418001563E0,2.229384929E-1,-5.723961592E-1,8.528903008E0
2.438001563E0,1.271167874E0,-6.764098257E-2,9.464193344E0
2.460001563E0,7.540299296E-1,1.838938445E-1,1.102522278E1
2.482000000E0,-1.042569399E0,-5.125889778E-1,1.308209038E1
2.502000000E0,-9.750529528E-1,-1.797681570E0,1.356906128E1
2.522000000E0,4.156333860E-3,-2.745162725E0,1.362368774E1
2.542000000E0,6.852300763E-1,-1.021270633E0,1.009758377E1
2.562000000E0,2.198643386E-1,5.644474030E-1,1.072593784E1
2.582000000E0,7.845032811E-1,-4.389625192E-1,1.138702488E1
2.602000000E0,1.669630170E0,-1.313985705E0,1.160832500E1
2.622000000E0,1.868578672E0,-1.390676856E0,1.015207577E1
2.642000000E0,1.050537348E0,-9.262878895E-1,8.917233467E0
2.662000000E0,-7.032440901E-1,7.276362181E-1,9.029089928E0
2.682000000E0,-1.365106821E0,2.511613369E0,9.409432411E0
2.702000000E0,-3.098671436E-1,2.621497631E0,9.730839729E0
2.722000000E0,1.422625065E0,1.068331003E0,1.002065372E1
2.742000000E0,1.562139988E0,-4.091307819E-1,9.297480583E0
2.762000000E0,7.409096956E-1,-6.209313869E-1,8.174819946E0
2.782000000E0,5.238130689E-1,3.900633454E-1,8.227684021E0
2.802000000E0,8.849352598E-1,3.347764313E-1,8.818831444E0
2.822000000E0,4.801906645E-1,8.502288908E-2,8.830581665E0
2.842004688E0,-1.450790465E-1,2.496386319E-1,9.036061287E0
2.864001563E0,-2.260413617E-1,7.299825549E-1,9.474976540E0
2.884003125E0,-1.554411501E-1,7.656177878E-1,1.019487476E1
2.906000000E0,-6.418088675E-1,5.536064506E-1,9.920584679E0
2.926000000E0,-3.109876513E-1,1.485171169E-1,9.720094681E0
2.946000000E0,2.967756689E-1,-4.104236364E-1,1.000694942E1
2.966000000E0,7.633002400E-1,-6.831902266E-1,1.054185200E1
2.986001563E0,8.393304944E-1,-4.683633149E-1,1.124804592E1
3.008000000E0,2.324865609E-1,-5.576191545E-1,1.122477436E1
3.028000000E0,1.324184984E-1,-3.203154504E-1,1.037372208E1
3.048004688E0,3.838862777E-1,4.547068104E-2,9.642082214E0
3.070000000E0,-3.564104438E-1,1.921681911E-1,9.450221062E0
3.090020313E0,-7.421546578E-1,4.576085508E-1,1.000169182E1
3.112000000E0,3.450523317E-2,-1.131691262E-1,1.083971977E1
3.132000000E0,8.447318077E-1,-1.073196173E0,1.055467606E1
3.152000000E0,1.115611792E0,-1.496510148E0,1.017457199E1
3.172000000E0,9.564356804E-1,-1.074680567E0,9.856899261E0
3.192000000E0,3.511527777E-1,-4.008851349E-1,8.913000107E0
3.212000000E0,1.153334826E-1,-1.416122466E-1,8.342557907E0
3.232000000E0,6.114216447E-1,7.081091404E-2,8.434437752E0
3.252000000E0,1.060909033E0,-1.018972229E-2,9.461674690E0
3.272000000E0,8.817174435E-1,-1.749107987E-1,9.265973091E0
3.292000000E0,2.490257174E-1,-3.607870340E-1,7.988205910E0
3.312000000E0,-4.574936628E-1,6.861398816E-1,7.933790684E0
3.332001563E0,-1.165324926E0,2.108008385E0,8.927556992E0
3.354000000E0,-1.256869793E0,2.281339169E0,9.349012375E0
3.374001563E0,-1.439681411E0,1.652353525E0,8.808143616E0
3.394003125E0,-1.532183766E0,1.359054208E0,9.201530457E0
3.416000000E0,-1.163084030E0,7.971350551E-1,1.050813198E1
3.436000000E0,-7.323766947E-1,4.544482231E-1,1.081939793E1
3.456000000E0,-8.292652369E-1,7.080324888E-1,1.039436913E1
3.476000000E0,-9.378950000E-1,1.061215520E0,1.043910217E1
3.496000000E0,-7.672746181E-1,1.416199088E0,1.118919659E1
3.516000000E0,-3.554910719E-1,1.660024524E0,1.221215248E1
3.536000000E0,-5.248377919E-1,1.263583064E0,1.278809166E1
3.556000000E0,-1.267423391E0,1.046017051E0,1.134121895E1
3.576000000E0,-1.545792341E0,1.462541223E0,1.001015759E1
3.596000000E0,-7.783741355E-1,2.868349254E-1,1.167688560E1
3.616001563E0,2.151238024E-1,-1.832665682E0,1.211152935E1
3.638001563E0,-3.893450797E-1,-2.717706203E0,1.020519829E1
3.660000000E0,-1.112528086E0,-8.626691699E-1,9.245306015E0
3.680000000E0,-1.528946757E0,1.265996337E0,8.730657578E0
3.700000000E0,-1.493809462E0,2.122411966E0,9.697282791E0
3.721998438E0,-8.835466504E-1,1.314799786E0,9.613064766E0
3.742000000E0,-7.575254142E-2,7.958518267E-1,9.585550308E0
3.762000000E0,6.716693640E-1,5.824422836E-1,9.344367981E0
3.783998438E0,6.682025194E-1,9.980469346E-1,9.331017494E0
3.804004688E0,1.623077244E-1,1.515615821E0,9.781970978E0
3.826000000E0,-1.714631468E-1,1.818051338E0,9.274045944E0
3.846000000E0,2.266734540E-1,1.930176616E0,8.123306274E0
3.866000000E0,6.750116348E-1,1.403931141E0,7.549109459E0
3.886000000E0,6.832956076E-1,1.053554058E0,8.674978256E0
3.906000000E0,1.059865206E-1,8.654751778E-1,9.967147827E0
3.926000000E0,-4.639771283E-1,8.446935415E-1,1.054856586E1
3.946000000E0,-3.653647602E-1,1.242705584E0,1.013019371E1
3.966000000E0,8.800127357E-2,1.216034174E0,9.810882568E0
3.986000000E0,-1.551442780E-3,8.449425101E-1,1.096214008E1
4.006000000E0,-4.378420413E-1,6.476507187E-1,1.121507359E1
4.026000000E0,-5.737369657E-1,5.668991208E-1,1.132069492E1
4.046000000E0,9.995312989E-2,3.207463920E-1,1.105821419E1
4.066000000E0,3.427826464E-1,7.911399752E-2,1.037421036E1
4.086000000E0,-1.405109167E-1,3.145118952E-1,9.650778770E0
4.106000000E0,-8.559653759E-1,5.739092827E-1,1.009989166E1
4.126000000E0,-8.279724121E-1,1.952519417E-1,1.205277538E1
4.146000000E0,-1.644912213E-1,-6.281906366E-1,1.298059559E1
4.166000000E0,2.821135819E-1,-1.290455580E0,1.153663254E1
4.186000000E0,4.006840289E-1,-9.412373304E-1,9.929923058E0
4.206000000E0,-3.301316798E-1,1.376378685E-1,9.174342155E0
4.226000000E0,-9.625935555E-1,1.038767457E0,9.349961281E0
4.246001563E0,-6.771855950E-1,1.103276849E0,9.302105904E0
4.268000000E0,2.190790325E-1,5.533478856E-1,8.271383286E0
4.288000000E0,5.183446407E-1,4.179030955E-1,7.922997475E0
4.310000000E0,2.185140103E-1,8.487636447E-1,8.216105461E0
4.332000000E0,-3.948996365E-1,1.690603256E0,8.300266266E0
4.352000000E0,-7.857673764E-1,2.452524424E0,8.517449379E0
4.372000000E0,-8.184818029E-1,2.285753965E0,8.867758751E0
4.394000000E0,-4.165240526E-1,1.649001598E0,9.079118729E0
4.414000000E0,1.565807909E-1,1.240407228E0,9.865011215E0
4.434018750E0,4.530883133E-1,1.043067455E0,1.006566429E1
4.455998438E0,5.413864851E-1,1.072190523E0,1.020426941E1
4.476000000E0,6.035208106E-1,8.702444434E-1,1.020540905E1
4.496000000E0,7.684333920E-1,1.060152501E-1,1.021872044E1
4.516000000E0,7.549396753E-1,-7.301357388E-1,1.155174541E1
4.536000000E0,2.511134446E-1,-1.467166841E-2,1.274339771E1
4.556000000E0,1.039179340E-1,9.433345795E-1,1.237883663E1
4.576001563E0,8.672755957E-2,1.822418451E0,1.093153191E1
4.598000000E0,-2.045701742E-1,2.496089458E0,9.448056221E0
4.618000000E0,8.337568045E-1,1.474684596E0,1.110605049E1
4.638000000E0,1.749289870E0,-4.441531301E-1,1.204839802E1
4.658000000E0,2.017363787E0,-1.399497032E0,1.134228134E1
4.678000000E0,1.276396871E0,-8.755691648E-1,1.021925640E1
4.698000000E0,1.838555336E-1,6.929873228E-1,9.748691559E0
4.718000000E0,-7.586363554E-1,1.802278399E0,8.920096397E0
4.738000000E0,-8.934011459E-1,1.795842767E0,7.934365273E0
4.758000000E0,-6.880074143E-1,7.778761387E-1,7.907866001E0
4.778000000E0,-8.312668651E-2,-3.424283266E-1,9.362937927E0
4.798000000E0,4.624161124E-1,-1.160297275E0,1.005419159E1
4.818000000E0,2.557390332E-1,-1.276013851E0,9.717374802E0
4.838000000E0,-2.025686204E-1,-4.337144196E-1,8.404442787E0
4.858000000E0,-4.313776791E-1,7.494809031E-1,7.650757790E0
4.878000000E0,-1.025130153E0,1.213620901E0,8.718379974E0
4.898000000E0,-1.687414169E0,1.492085695E0,9.767308235E0
4.918000000E0,-1.910668731E0,1.950000644E0,1.019800663E1
4.938000000E0,-1.410893440E0,2.085426331E0,9.219572067E0
4.958000000E0,-6.445861459E-1,1.581063747E0,9.195314407E0
4.978000000E0,-2.075294033E-2,9.824175239E-1,9.231467247E0
4.998000000E0,7.401626706E-1,5.011064410E-1,8.845445633E0
5.018000000E0,1.228445649E0,1.544643044E-1,8.937880516E0
5.038000000E0,1.214128375E0,-6.365416050E-1,1.046061230E1
5.058000000E0,5.984642506E-1,-9.324266315E-1,1.175689983E1
5.078014063E0,-1.636389047E-1,-1.776784956E-1,1.208105564E1
5.100001563E0,-4.296730161E-1,1.151649237E0,1.034148598E1
5.120001563E0,-3.009224236E-1,2.030484200E0,8.924875259E0
5.142014063E0,-1.443129033E-1,1.624810696E0,8.869194984E0
5.164006250E0,5.828731656E-1,3.270479441E-1,9.550767899E0
5.186001563E0,7.980257273E-1,-4.197514355E-1,1.099820614E1
5.208000000E0,-1.547611970E-2,-3.126156926E-1,1.227981281E1
5.228000000E0,-4.327184558E-1,-1.250731014E-2,1.184127140E1
5.248000000E0,1.385189295E-1,1.865849346E-1,1.050497150E1
5.268000000E0,5.265711546E-1,-3.435200453E-2,9.965710640E0
5.288000000E0,6.620447040E-1,-1.149312556E-1,9.700203896E0
5.308000000E0,5.384750962E-1,5.464525893E-2,9.564624786E0
5.328000000E0,3.196450770E-1,6.002359390E-1,9.053520203E0
5.348003125E0,6.551397443E-1,8.244385123E-1,8.292106628E0
5.370000000E0,8.358541131E-1,1.167029664E-1,8.775802612E0
5.390000000E0,4.689953923E-1,-3.832733631E-1,8.884729385E0
5.410000000E0,-3.705266491E-2,-2.289814502E-2,9.650184631E0
5.430000000E0,2.156122327E-1,2.826977670E-1,9.889460564E0
5.450001563E0,1.365652680E-1,4.882064462E-1,1.043509007E1
5.470023438E0,-5.090360045E-1,2.034305334E-1,1.058023643E1
5.492000000E0,-9.803298116E-1,9.055829048E-2,1.071133327E1
5.512000000E0,-7.120068073E-1,6.223488450E-1,1.024543095E1
5.532000000E0,-5.453991145E-2,7.692762017E-1,1.049283791E1
5.552000000E0,-3.590919375E-1,7.153012753E-1,1.070067406E1
5.572000000E0,-1.112633467E0,1.114472151E0,1.022937012E1
5.592000000E0,-1.235063314E0,1.208334446E0,1.015775490E1
5.612000000E0,-7.909197211E-1,3.371036053E-1,1.110886574E1
5.632000000E0,-3.271436989E-1,-3.175956309E-1,1.113599682E1
5.652000000E0,-2.231587470E-1,-4.472464621E-1,1.021061897E1
5.672004688E0,-6.682216525E-1,-1.761462092E-1,9.317409515E0
5.694004688E0,-1.605896473E0,7.436294556E-1,9.632543564E0
5.716000000E0,-1.918263197E0,1.403442740E0,1.043110561E1
5.736000000E0,-9.486497641E-1,1.147186518E0,1.005459404E1
5.756000000E0,2.117336243E-1,4.996124208E-1,9.606724739E0
5.776000000E0,8.580052257E-1,-6.942227483E-2,9.259316444E0
5.796000000E0,8.370129466E-1,4.156333860E-3,9.436708450E0
5.816000000E0,4.200291634E-1,3.630567193E-1,9.604531288E0
5.836000000E0,1.759929806E-1,9.641258717E-1,8.700184822E0
5.856000000E0,-7.564719021E-2,1.324098825E0,7.917155743E0
5.876000000E0,6.213432178E-2,1.408355594E0,7.573003292E0
5.896000000E0,-8.692867309E-2,1.130053639E0,8.192001343E0
5.916000000E0,-5.485403538E-1,9.824271202E-1,9.715047836E0
5.936000000E0,-7.249738574E-1,1.462914705E0,1.063318634E1
5.956000000E0,-5.804119110E-1,1.625490546E0,1.080835533E1
5.976000000E0,-1.647210717E-1,1.364398122E0,1.024499989E1
5.996000000E0,-6.723876297E-2,1.316906691E0,1.007207108E1
6.016000000E0,-2.817209065E-1,3.413557112E-1,1.109001827E1
6.036000000E0,-3.014395833E-1,-3.625396192E-1,1.159906483E1
6.056000000E0,-2.878788114E-2,-3.213784695E-1,1.217280197E1
6.076000000E0,-6.409756839E-2,2.153249234E-1,1.093632030E1
6.096000000E0,2.057098038E-2,1.161302686E0,9.900704384E0
6.116001563E0,-1.808292717E-1,1.105307102E0,1.043834591E1
6.136001563E0,-1.973492652E-1,5.587683916E-1,1.160563374E1
6.158000000E0,5.598122478E-1,-8.001422137E-2,1.120061207E1
6.178000000E0,1.223810554E0,-5.789275765E-1,9.625379562E0
6.198000000E0,1.183827400E0,-4.032984972E-1,8.727622032E0
6.218000000E0,6.981300712E-1,-5.258624628E-2,8.836509705E0
6.238000000E0,2.196153253E-1,7.134721428E-2,9.589160919E0
6.258000000E0,9.005071223E-2,-3.648763523E-3,1.031005478E1
6.278000000E0,1.949071586E-1,-9.934021533E-2,1.081169701E1
6.298000000E0,3.028760850E-1,3.329472542E-1,1.033772278E1
6.318000000E0,2.675376832E-1,1.320632100E0,9.130413055E0
6.338000000E0,4.119942337E-2,2.171148300E0,8.532906532E0
6.358001563E0,-2.175850421E-2,2.400167942E0,8.845070839E0
6.380001563E0,2.631419003E-1,1.996773839E0,8.937335014E0
6.402000000E0,5.568530560E-1,1.444144130E0,9.027605057E0
6.422000000E0,4.700871408E-1,9.989279509E-1,9.709417343E0
6.442000000E0,3.076357841E-1,5.955433249E-1,1.030114841E1
6.462000000E0,3.125486672E-1,4.992389381E-1,1.021060944E1
6.482000000E0,-8.527188748E-2,6.312647462E-1,9.960625648E0
6.502000000E0,-5.788221955E-1,5.381878018E-1,9.964734077E0
6.522000000E0,-7.146500349E-1,4.658733606E-1,1.003298855E1
6.542000000E0,-4.469208419E-1,3.778145909E-1,1.073024750E1
6.562000000E0,-1.015428826E-1,3.225564361E-1,1.079847145E1
6.582000000E0,-3.706703186E-1,3.851599991E-1,9.572506905E0
6.602000000E0,-6.571030021E-1,9.219495654E-1,8.299270630E0
6.622000000E0,-8.484572172E-1,6.909282804E-1,1.008715534E1
6.642000000E0,-1.927523911E-1,-2.860592008E-1,1.214975929E1
6.662000000E0,6.537415981E-1,-1.138481259E0,1.177569962E1
6.682000000E0,1.348768830E0,-1.120955706E0,9.923668861E0
6.702000000E0,6.365128756E-1,1.195377037E-1,8.927384377E0
6.722000000E0,-8.922519684E-1,1.334757805E0,9.346561432E0
6.742000000E0,-2.315777302E0,2.017794847E0,1.018430138E1
6.762000000E0,-1.907163620E0,2.126395941E0,1.062563992E1
6.782000000E0,-1.903869212E-2,9.764704108E-1,1.024700069E1
6.802000000E0,1.147416353E0,-2.389413305E-2,9.842697144E0
6.822000000E0,1.155211926E0,-2.133425325E-1,9.575455666E0
6.842000000E0,6.066236496E-1,7.128208876E-1,9.592741966E0
6.862000000E0,7.897035033E-2,1.423831820E0,9.626797676E0
6.882000000E0,9.031886607E-2,1.572253108E0,9.188113213E0
6.902000000E0,4.999284744E-1,1.533131838E0,7.750366211E0
6.922000000E0,5.983205438E-1,1.752201319E0,7.322225571E0
6.944000000E0,-8.753201924E-3,1.614419818E0,9.181859016E0
6.964000000E0,-4.144842029E-1,1.062230706E0,1.101228428E1
6.984000000E0,-2.980685532E-1,3.063907921E-1,1.165428448E1
7.004000000E0,4.897578806E-2,-5.863878503E-2,1.116223717E1
7.024000000E0,3.256880641E-1,1.803600043E-1,1.012701321E1
7.044000000E0,-2.457025647E-1,4.827859700E-1,9.942018509E0
7.064007813E0,-1.128444672E0,7.146883607E-1,1.023565197E1
7.086000000E0,-1.279231548E0,8.982853293E-1,1.071111202E1
7.106001563E0,-1.093920231E0,5.853918791E-1,1.067253685E1
7.128001563E0,-5.027440786E-1,3.143012226E-1,1.077200222E1
7.148004688E0,-3.782934546E-1,3.633057475E-1,1.202263641E1
7.170000000E0,-1.248815581E-1,-2.772964537E-1,1.136921215E1
7.190000000E0,2.662639320E-1,-3.318363726E-1,9.806708336E0
7.210000000E0,4.838968813E-1,-2.085349709E-1,8.471202850E0
7.230000000E0,1.327728480E-1,-2.843832672E-1,9.311424255E0
7.250000000E0,-3.153738081E-1,-3.987495005E-1,1.016629791E1
7.270000000E0,-4.996986389E-1,-2.150184661E-1,1.025460529E1
7.290000000E0,-2.899953127E-1,1.922352463E-1,9.347279549E0
7.310000000E0,-6.398265064E-2,6.079261303E-1,8.786796570E0
7.330000000E0,-1.200165376E-1,7.938119769E-1,8.863803864E0
7.350000000E0,-2.909338176E-1,9.423194528E-1,8.965203285E0
7.370000000E0,-8.583787680E-1,1.394890666E0,9.243303299E0
7.390001563E0,-1.490036249E0,2.030350208E0,9.080364227E0
7.412000000E0,-1.182026982E0,2.228887081E0,8.814301491E0
7.432000000E0,-7.872422338E-1,1.288894534E0,9.906497955E0
7.452000000E0,-1.319013685E-1,5.139393210E-1,1.061197376E1
7.472000000E0,4.275182188E-1,1.598368958E-2,1.069473648E1
7.492000000E0,1.569925994E-1,-1.902432740E-1,1.079908466E1
7.512000000E0,-9.026811123E-1,8.608591557E-2,1.080575943E1
7.532000000E0,-1.591339707E0,6.381984353E-1,1.096116352E1
7.552000000E0,-1.393511653E0,1.053544521E0,1.059642124E1
7.572000000E0,-4.031931460E-1,1.045490503E0,9.900856972E0
7.592000000E0,-2.737243176E-1,8.469823599E-1,9.431890488E0
7.612000000E0,-7.541065216E-1,1.381483197E0,9.134224892E0
7.632000000E0,-1.452112079E0,2.136643171E0,1.029505730E1
7.652000000E0,-1.482978106E0,1.063705564E0,1.187299061E1
7.672003125E0,-6.652815938E-1,-2.621267736E-1,1.239397717E1
7.694001563E0,1.581130773E-1,-9.623733163E-1,1.129134274E1
7.714003125E0,2.388168275E-1,-5.792818666E-1,9.206117630E0
7.736000000E0,-5.961371064E-1,4.009808898E-1,7.729239941E0
7.756000000E0,-1.565635443E0,1.244841218E0,8.402039528E0
7.776000000E0,-1.798313618E0,1.576428533E0,9.465648651E0
7.796000000E0,-6.921637058E-1,1.091171741E0,9.169094086E0
7.816000000E0,9.287778735E-1,5.019970536E-1,8.426200867E0
7.836000000E0,1.794205189E0,-6.435614079E-2,8.668868065E0
7.856000000E0,1.625394821E0,-2.019461244E-1,9.347786903E0
7.876000000E0,9.467726946E-1,4.877850711E-1,1.045825577E1
7.896000000E0,1.557763368E-1,9.007848501E-1,1.072221184E1
7.916000000E0,-1.128913984E-1,9.797456861E-1,9.688902855E0
7.936000000E0,1.643284261E-1,9.802340865E-1,8.527427673E0
7.956000000E0,3.371993601E-1,7.350007892E-1,8.553372383E0
7.976000000E0,-4.909071326E-2,7.831050158E-1,8.826617241E0
7.996000000E0,-2.114942074E-1,1.155384302E0,9.514461517E0
8.016000000E0,-6.913592815E-1,1.226530433E0,1.007595062E1
8.036000000E0,-8.727630973E-1,1.374817610E0,9.484649658E0
8.056043750E0,-7.624000311E-1,1.485113740E0,9.435501099E0
8.078000000E0,-9.641354084E-1,8.700337410E-1,1.059989738E1
8.098000000E0,-1.346087337E0,4.817229509E-1,1.216478539E1
8.118001563E0,-1.278810143E0,4.244536459E-1,1.294669342E1
8.140000000E0,-8.076217175E-1,6.548237205E-1,1.060836315E1
8.160000000E0,-5.535873175E-1,1.056321740E0,8.931272507E0
8.180000000E0,-7.535127401E-1,6.754234433E-1,1.017684174E1
8.200000000E0,-6.712670922E-1,-3.265116513E-1,1.174139500E1
8.220000000E0,-1.922448277E-1,-1.027581811E0,1.170853710E1
8.240000000E0,1.612638533E-1,-1.278034449E0,1.019745159E1
8.260000000E0,-1.063504443E-1,-7.673512101E-1,8.827354431E0
8.280001563E0,-9.722661972E-1,-5.272989720E-2,8.945513725E0
8.302000000E0,-1.550025344E0,2.811271548E-1,1.028299141E1
8.322000000E0,-1.071328640E0,9.117119946E-3,1.095329094E1
8.342000000E0,-1.652765423E-1,-5.329684615E-1,1.059267616E1
8.362000000E0,4.758810997E-1,-6.487233043E-1,1.036976624E1
8.382000000E0,2.914892435E-1,-6.426037289E-3,1.038421822E1
8.402000000E0,-1.568106413E-1,7.678587437E-1,9.859092712E0
8.422000000E0,-5.362054110E-1,1.376445651E0,9.055158615E0
8.442000000E0,-8.613667488E-1,1.654872179E0,8.562096596E0
8.462000000E0,-9.962560534E-1,1.794128537E0,8.693652153E0
8.482001563E0,-8.897523880E-1,1.753226042E0,8.966342926E0
8.504001563E0,-5.836585164E-1,9.055445790E-1,9.621847153E0
8.526000000E0,-8.066352606E-1,4.022354782E-1,1.008501911E1
8.546001563E0,-7.975372672E-1,5.524285436E-1,1.038872814E1
8.568000000E0,-1.860965192E-1,1.328207403E-1,1.107351780E1
8.588000000E0,4.167347550E-1,-8.086368442E-1,1.085846138E1
8.608000000E0,7.699081898E-1,-1.191613317E0,1.008622551E1
8.628000000E0,7.725514770E-1,-2.081806362E-1,9.725275993E0
8.648015625E0,3.700574040E-1,9.485827088E-1,9.542119026E0
8.670001563E0,-3.709863424E-1,1.456028938E0,9.071773529E0
8.692000000E0,-1.029841900E0,1.573641777E0,8.923553467E0
8.712000000E0,-1.359370232E0,9.144414067E-1,1.022066498E1
8.732000000E0,-8.668638468E-1,1.225543991E-1,1.126215267E1
8.752000000E0,1.185608655E-2,-4.233044386E-1,1.102525139E1
8.772000000E0,1.241345704E-1,-6.565284133E-1,1.040123558E1
8.792000000E0,-7.395305634E-1,-1.307521313E-1,1.058577156E1
8.812000000E0,-1.788861275E0,7.715362906E-1,1.076375580E1
8.832000000E0,-1.807813883E0,1.081776977E0,1.051422310E1
8.852000000E0,-9.564548135E-1,6.768599749E-1,9.917932510E0
8.872000000E0,2.140033245E-1,2.517934144E-1,9.168221474E0
8.892018750E0,5.124357939E-1,1.371494383E-1,8.716636658E0
8.914007813E0,-9.730035067E-2,7.340143323E-1,9.127175331E0
8.936000000E0,-5.773856640E-1,1.469091773E0,9.037881851E0
8.956000000E0,-6.641707420E-1,1.723011255E0,8.206002235E0
8.976001563E0,-5.303444266E-1,1.694338202E0,7.686756611E0
8.998000000E0,-4.291750193E-1,1.328801155E0,8.026389122E0
9.018000000E0,-5.839362144E-1,1.059712052E0,8.812510490E0
9.038000000E0,-8.473367095E-1,1.017679334E0,9.570447922E0
9.058000000E0,-8.576318026E-1,8.456129432E-1,1.024182034E1
9.078001563E0,-7.773686051E-1,4.526094794E-1,1.116451645E1
9.100000000E0,-6.184127331E-1,2.419388741E-1,1.107220650E1
9.120000000E0,-5.770600438E-1,-3.770388663E-2,1.061108303E1
9.140000000E0,-7.762480378E-1,4.789361358E-2,1.010005474E1
9.160000000E0,-6.468654275E-1,5.249143839E-1,1.081435013E1
9.180001563E0,-5.623021722E-1,1.424837410E-1,1.097729015E1
9.202000000E0,-2.318449169E-1,-1.921107471E-1,1.015257454E1
9.222000000E0,-4.884171300E-3,2.582864836E-2,1.185875893E1
9.242000000E0,4.486351013E-1,-5.054063797E-1,1.277670479E1
9.262001563E0,9.335758686E-1,-8.373864293E-1,1.174658585E1
9.284026563E0,9.771215916E-1,-3.228054345E-1,9.614578247E0
9.306000000E0,3.678930402E-1,4.530212581E-1,8.652836800E0
9.326000000E0,-7.962444425E-1,6.804129481E-1,9.989280701E0
9.346000000E0,-1.001006126E0,4.287728071E-1,1.129094028E1
9.366000000E0,-4.344230890E-1,-1.331463456E-1,1.163312912E1
9.386000000E0,4.019290209E-1,-5.677993298E-1,1.064414120E1
9.406000000E0,1.094897270E0,-5.140255094E-1,9.848864555E0
9.426000000E0,5.451597571E-1,1.023185998E-1,9.062110901E0
9.446000000E0,6.012319028E-2,1.087666631E0,8.531909943E0
9.466001563E0,-2.495811582E-1,1.808254361E0,8.110329628E0
9.486001563E0,-2.910200059E-1,2.077190161E0,7.967673302E0
9.508000000E0,2.483361810E-1,1.462139010E0,8.380941391E0
9.528001563E0,4.497364163E-1,7.896460295E-1,8.999344826E0
9.550000000E0,3.429454565E-2,7.068736553E-1,9.976437569E0
9.570001563E0,-4.103757739E-1,9.680715203E-1,1.076356411E1
9.590020313E0,-1.529416069E-2,8.570284247E-1,1.034670544E1
9.612001563E0,2.348424494E-1,2.810601294E-1,8.707739830E0
9.632001563E0,-5.398445949E-2,1.237419173E-1,8.690378189E0
9.652001563E0,-5.267243385E-1,2.055182680E-2,1.071198463E1
9.672001563E0,-2.363747358E-1,1.583429277E-1,1.177729893E1
9.692001563E0,1.296986938E-1,3.200856149E-1,1.149418831E1
9.712001563E0,7.247727364E-2,2.523584366E-1,1.024444389E1
9.732001563E0,-4.787733257E-1,5.992782712E-1,9.437282562E0
9.752001563E0,-9.815652370E-1,9.145179987E-1,1.048397923E1
9.774000000E0,-4.968926013E-1,2.825636864E-1,1.173354244E1
9.794004688E0,3.674141765E-1,-4.730559289E-1,1.126478577E1
9.814007813E0,1.127075195E0,-5.727600455E-1,1.044285679E1
9.836000000E0,2.853600979E-1,-1.136192307E-1,1.152044868E1
9.856000000E0,-6.276639700E-1,5.210549235E-1,1.149287701E1
9.876000000E0,-1.035540104E0,1.112097144E0,1.005938148E1
9.896001563E0,-1.643379927E-1,1.170755029E0,8.775946617E0
9.918000000E0,8.815641999E-1,6.575722694E-1,8.404959679E0
9.938000000E0,1.097109318E0,1.886056364E-1,8.857357979E0
9.958000000E0,8.068650961E-1,2.219520658E-1,8.891049385E0
9.978000000E0,3.820571303E-1,5.725589395E-1,8.617469788E0
9.998000000E0,3.098767400E-1,6.955730319E-1,8.417984009E0
1.001800000E1,1.401565671E-1,7.296473384E-1,8.301079750E0
1.003800000E1,3.192907199E-2,1.063542724E0,8.796095848E0
1.005800312E1,-1.394861937E-1,1.166244388E0,9.398257256E0
1.008000000E1,-7.183849812E-1,9.176687598E-1,1.036437511E1
1.010000000E1,-7.057148814E-1,7.472782731E-1,1.004824448E1
1.012000156E1,6.903920323E-2,9.361041188E-1,9.263147354E0
1.014200000E1,5.101565123E-1,1.101687193E0,9.360524178E0
1.016200000E1,5.247132480E-2,8.109927177E-1,1.039743328E1
1.018200000E1,-2.504047751E-1,4.059991539E-1,1.036072540E1
1.020200000E1,-9.549033642E-1,7.210569382E-1,1.055001163E1
1.022200000E1,-3.891056478E-1,4.661606550E-1,1.032137489E1
1.024200000E1,4.894705713E-1,1.744415313E-1,9.151511192E0
1.026200000E1,2.770857513E-1,8.961975574E-2,1.047821426E1
1.028200000E1,-6.985897422E-1,-5.064406991E-1,1.309817982E1
1.030200000E1,-2.285313457E-1,-1.353269935E0,1.344383526E1
1.032200000E1,1.290647149E0,-1.850411534E0,1.167865753E1
1.034200000E1,1.858733654E0,-9.473090172E-1,9.442233086E0
1.036200000E1,1.535372853E0,4.057788551E-1,6.858276844E0
1.038200000E1,2.431263924E-1,1.304983497E0,7.222176075E0
1.040200000E1,-6.988099813E-1,7.754436135E-1,9.203359604E0
1.042200000E1,-4.443159401E-1,9.216719121E-2,1.025092793E1
1.044200000E1,2.842396200E-1,-1.501834840E-1,1.037009144E1
1.046200000E1,9.125834703E-1,1.348605901E-1,1.017765522E1
1.048200000E1,4.803917706E-1,2.306190729E-1,1.030848408E1
1.050200000E1,6.492117047E-2,4.660361707E-1,1.041141605E1
1.052200000E1,-6.899993420E-1,8.577945828E-1,1.029196453E1
1.054200000E1,-7.763629556E-1,9.402604699E-1,1.064599991E1
1.056200000E1,-3.455407619E-1,6.830274463E-1,9.985879898E0
1.058200000E1,1.198824719E-1,6.817920804E-1,9.339636803E0
1.060200000E1,5.904101729E-1,5.490191579E-1,9.135507584E0
1.062200000E1,6.961668134E-1,5.773952603E-1,1.008991337E1
1.064200000E1,6.081463695E-1,7.784028351E-2,1.106027317E1
1.066200000E1,3.185628951E-1,-3.722409010E-1,1.108114147E1
1.068200000E1,1.512560844E-1,-4.148289561E-1,1.081794167E1
1.070200000E1,2.317012697E-1,-5.564795136E-1,1.037733173E1
1.072200000E1,5.102905631E-1,-4.111897945E-1,1.045113087E1
1.074200000E1,7.981406450E-1,1.288463622E-1,1.025478745E1
1.076200000E1,2.564764619E-1,7.046997547E-1,9.833484650E0
1.078200000E1,-7.124282122E-1,5.166496038E-1,1.021042728E1
1.080200000E1,-4.374972582E-1,7.188351452E-2,1.110855007E1
1.082200000E1,9.095763564E-1,-2.640325725E-1,1.022351837E1
1.084200000E1,2.027745247E0,-5.321352482E-1,9.373749733E0
1.086200000E1,2.310127020E0,-5.745030642E-1,9.273901939E0
1.088200000E1,9.065213799E-1,-1.673642695E-1,9.977059364E0
1.090200000E1,-7.278373241E-1,8.670553565E-1,1.027185345E1
1.092200000E1,-6.963200569E-1,1.572569132E0,9.952179909E0
1.094200000E1,5.982343554E-1,7.789008617E-1,1.034801769E1
1.096200000E1,1.369014144E0,-7.914273441E-2,1.065522289E1
1.098200000E1,1.410749912E0,4.292899370E-1,9.814235687E0
1.100200000E1,1.041295767E0,1.213410139E0,8.932220459E0
1.102200000E1,8.391293883E-1,1.521457791E0,8.327905655E0
1.104200000E1,9.233286977E-1,1.582758904E0,8.214036942E0
1.106200156E1,1.097932935E0,1.584051728E0,7.601370335E0
1.108400781E1,9.761543870E-1,1.664813042E0,7.463224411E0
1.110600156E1,7.967041731E-1,1.732099652E0,8.594092369E0
1.112600156E1,7.247631550E-1,1.695851326E0,9.925086975E0
1.114800000E1,6.585969925E-1,1.269061089E0,1.059174728E1
1.116800000E1,7.420493364E-1,7.913603187E-1,1.073687363E1
1.118800156E1,7.687972784E-1,5.473241210E-1,1.061755657E1
1.121000000E1,5.444989204E-1,7.662498951E-1,1.082434845E1
1.123000000E1,3.220680356E-1,4.667735696E-1,1.088387775E1
1.125001875E1,8.365819454E-1,-1.153717861E-1,1.016209412E1
1.127200000E1,9.267188907E-1,-3.900058866E-1,8.551532745E0
1.129200000E1,2.491023242E-1,3.385209739E-1,8.633577347E0
1.131200000E1,5.190629140E-2,-1.464006454E-1,1.146142673E1
1.133200000E1,4.178647995E-1,-1.096755147E0,1.302824974E1
1.135200000E1,9.613581300E-1,-2.140502453E0,1.179073429E1
1.137200000E1,1.208688855E0,-1.117919803E0,9.860012054E0
1.139200000E1,4.409066141E-1,4.366066158E-1,9.485702515E0
1.141200000E1,4.985111058E-1,3.428975642E-1,1.023535538E1
1.143200000E1,1.466601849E0,-3.401777744E-1,9.892985344E0
1.145200000E1,1.673824668E0,-2.171062119E-2,9.234665871E0
1.147200000E1,9.985545278E-1,7.878168225E-1,9.061804771E0
1.149200000E1,5.600133538E-1,7.689601183E-1,9.536067009E0
1.151200000E1,7.239587307E-1,4.036528468E-1,9.728330612E0
1.153200000E1,1.216359854E0,5.916551128E-2,9.005244255E0
1.155200000E1,1.248288989E0,3.628652170E-2,7.880639076E0
1.157200000E1,8.871858120E-1,3.335410058E-1,8.231102943E0
1.159200000E1,5.825092793E-1,6.114791036E-1,9.116890907E0
1.161200000E1,5.164963603E-1,6.783061028E-1,9.783052444E0
1.163200000E1,6.933225393E-1,4.713225365E-1,9.936980247E0
1.165200000E1,9.742677212E-1,4.747989178E-1,9.754198074E0
1.167200000E1,9.078717232E-1,6.979480982E-1,1.009972000E1
1.169200000E1,6.393475831E-2,1.267653227E0,1.024972057E1
1.171200000E1,-5.789371133E-1,1.509927273E0,1.118036652E1
1.173200000E1,-1.015141532E-1,8.048348427E-1,1.158843422E1
1.175200000E1,9.893894792E-1,3.512198329E-1,1.145966434E1
1.177200000E1,1.405396342E0,3.355713189E-2,1.118746281E1
1.179200000E1,1.094054461E0,4.014214575E-1,1.029869747E1
1.181200000E1,7.824730277E-1,4.904761612E-1,9.328355789E0
1.183200000E1,5.372875929E-1,-2.802460790E-1,1.103862953E1
1.185200000E1,7.047572136E-1,-6.319639087E-1,1.139505005E1
1.187200000E1,7.844936848E-1,-8.384111524E-1,9.998109818E0
1.189200000E1,2.096937597E-1,-1.455961913E-1,9.244434357E0
1.191200000E1,-8.969541788E-1,7.126101851E-1,1.011714935E1
1.193200000E1,-1.411343575E0,7.899141908E-1,1.078461456E1
1.195200000E1,-2.367482483E-1,1.086871773E-1,9.774941444E0
1.197200000E1,1.146583200E0,-6.244844198E-1,9.564740181E0
1.199200000E1,2.075227022E0,-5.608848333E-1,9.550154686E0
1.201200000E1,1.973664880E0,-5.499960482E-2,9.220099449E0
1.203200000E1,1.407177687E0,4.586332738E-1,9.038820267E0
1.205200156E1,7.239108086E-1,7.839286327E-1,8.701131821E0
1.207200156E1,5.532999635E-1,1.065592170E0,7.920507908E0
1.209200156E1,5.279310346E-1,1.304964423E0,7.516098022E0
1.211400000E1,4.079624116E-1,7.698220015E-1,8.225356102E0
1.213401875E1,-1.327441186E-1,6.609720588E-1,9.210082054E0
1.215600000E1,-4.103661701E-2,7.784411907E-1,1.036881828E1
1.217600000E1,2.196632177E-1,7.936778665E-1,1.023939705E1
1.219600000E1,1.582184285E-1,1.086000323E0,1.027807808E1
1.221600000E1,2.727953494E-1,1.226386666E0,1.047617340E1
1.223600000E1,7.085017562E-1,5.063161850E-1,1.018786430E1
1.225600000E1,5.144565105E-1,-1.919766665E-1,1.028742504E1
1.227600000E1,-3.276800215E-1,-2.478764951E-1,1.175350952E1
1.229600000E1,-3.949762583E-1,-9.893798828E-2,1.125020027E1
1.231600000E1,1.198824719E-1,-1.555273402E-2,9.884738922E0
1.233600000E1,5.642462969E-1,-3.204495311E-1,8.700979233E0
1.235600000E1,2.296901345E-1,-1.033892989E0,1.071951199E1
1.237600000E1,1.151419431E-1,-1.620328665E0,1.290486240E1
1.239600000E1,5.266094208E-1,-1.462263465E0,1.171456051E1
1.241600000E1,2.885491848E-1,-5.949878693E-1,9.720766068E0
1.243600000E1,-1.157835945E-1,7.599579692E-1,8.306118011E0
1.245600000E1,-1.565233320E-1,1.693169951E0,8.106517792E0
1.247600156E1,-3.271532953E-1,7.792839408E-1,9.623321533E0
1.249800000E1,8.714894205E-2,-1.102769300E-1,1.071291351E1
1.251800000E1,4.677695632E-1,-5.607507825E-1,1.120102310E1
1.253800000E1,3.978780210E-1,-2.044360936E-1,1.076186943E1
1.255800000E1,7.285077125E-2,1.026968837E0,9.887669563E0
1.257800156E1,9.731951356E-2,1.481464982E0,8.756151199E0
1.260000000E1,2.799875140E-1,1.327115655E0,8.433230400E0
1.262000000E1,1.560157686E-1,1.224413991E0,8.531948090E0
1.264000000E1,6.856993772E-3,1.217317462E0,8.861141205E0
1.266000000E1,-4.119463563E-1,9.789220691E-1,9.750329018E0
1.268000000E1,-3.825934529E-1,4.467771947E-1,1.042743778E1
1.270000000E1,1.939686388E-1,-7.478528470E-2,9.532963753E0
1.272000000E1,7.235660553E-1,-7.290344238E-1,8.456636429E0
1.274000000E1,6.150512695E-1,-4.287919700E-1,9.653852463E0
1.276000000E1,-2.437488884E-1,-4.725387990E-1,1.210788918E1
1.278000000E1,-8.804628849E-1,-6.273957491E-1,1.287516403E1
1.280000000E1,-5.711990595E-1,-3.516028821E-1,1.222596169E1
1.282000000E1,2.902730182E-2,-3.415664136E-1,9.535923958E0
1.284000000E1,1.318055838E-1,8.825219274E-1,7.490585327E0
1.286000000E1,-6.757777929E-1,1.040625334E0,8.645222664E0
1.288000000E1,-1.118810415E0,-1.044350788E-1,1.040323734E1
1.290000000E1,-6.031951904E-1,-8.001517653E-1,1.128353691E1
1.292000000E1,-2.284355760E-1,-1.379510283E0,1.058689117E1
1.294000000E1,-5.533191562E-1,-8.174187541E-1,1.105771637E1
1.296000156E1,-1.718797326E0,4.947282672E-1,1.175015831E1
1.298000156E1,-2.108611822E0,9.098253846E-1,1.186992550E1
1.300200000E1,-6.256049275E-1,6.675992012E-1,1.085991669E1
1.302200000E1,8.922231793E-1,3.272011578E-1,9.975182533E0
1.304200000E1,1.719678521E0,1.563701034E-1,9.088590622E0
1.306200000E1,1.581063747E0,4.993921816E-1,8.090927124E0
1.308200000E1,6.735176444E-1,9.669127464E-1,8.070307732E0
1.310200000E1,4.461834207E-2,9.517430663E-1,8.239377022E0
1.312200000E1,2.624906898E-1,7.631278634E-1,8.020402908E0
1.314200000E1,7.802511454E-1,2.142044306E-1,8.408742905E0
1.316200000E1,6.825103164E-1,1.232535020E-1,9.759560585E0
1.318200000E1,3.807451129E-1,-5.752787739E-2,1.052275562E1
1.320200000E1,4.241376221E-1,2.343253046E-1,1.018019295E1
1.322200000E1,2.859921753E-1,4.923723638E-1,1.010634708E1
1.324200000E1,-1.281089485E-1,4.378803372E-1,1.068835831E1
1.326200000E1,-3.557496369E-1,5.795308948E-1,1.037745667E1
1.328200000E1,-9.298791885E-1,6.671108007E-1,9.899085999E0
1.330200000E1,-9.982480407E-1,5.912528634E-1,1.087805557E1
1.332200000E1,1.250922531E-1,-2.022717446E-1,1.165078926E1
1.334200000E1,8.289588094E-1,-7.377589345E-1,1.040945339E1
1.336200000E1,7.163259983E-1,-6.859866530E-2,9.374995232E0
1.338200000E1,2.815772593E-1,2.314139605E-1,9.832861900E0
1.340200000E1,4.140819609E-1,2.948698699E-1,1.067843628E1
1.342200000E1,6.206154227E-1,-4.627129734E-1,1.035017204E1
1.344200000E1,3.127402067E-1,-5.246270895E-1,9.713908195E0
1.346200000E1,9.221507609E-2,1.599901319E-1,9.812300682E0
1.348200000E1,1.524244547E-1,3.266744614E-1,1.038684177E1
1.350200000E1,4.710639715E-1,-8.887276798E-2,1.080425644E1
1.352200000E1,6.490871906E-1,-3.356000483E-1,1.048335648E1
1.354200000E1,4.295006394E-1,1.891706735E-1,1.038420773E1
1.356200000E1,2.443713844E-1,1.044618845E0,1.006758976E1
1.358200000E1,-3.573106602E-2,1.520385146E0,9.172407150E0
1.360200000E1,-3.453779519E-1,1.804203391E0,8.645979881E0
1.362200000E1,-5.926607251E-1,1.990299940E0,8.354298592E0
1.364200000E1,-5.645623207E-1,1.853724957E0,8.439925194E0
1.366200000E1,-3.247112036E-1,1.257339001E0,8.496418953E0
1.368200000E1,-4.954465330E-1,6.815717816E-1,9.062944412E0
1.370200000E1,-9.470887184E-1,5.491819978E-1,1.024724960E1
1.372200000E1,-8.585415483E-1,4.216668010E-2,1.127538776E1
1.374200000E1,4.797980189E-3,-3.384922445E-1,1.101787663E1
1.376200000E1,5.068621039E-1,-1.584578454E-1,9.952457428E0
1.378200000E1,9.360658526E-1,-1.991592646E-1,9.383153915E0
1.380200000E1,8.617210984E-1,-2.320556045E-1,1.012935066E1
1.382200000E1,4.600219131E-1,4.114674926E-1,1.199344730E1
1.384200000E1,5.164675713E-1,4.742051661E-1,1.169886398E1
1.386200000E1,4.871625900E-1,5.919424295E-1,9.995026588E0
1.388200000E1,-3.893259168E-1,1.141201019E0,8.985372543E0
1.390200000E1,-8.450095057E-1,1.464542747E0,9.794429779E0
1.392200000E1,-6.322990656E-1,5.387145281E-1,1.042518711E1
1.394200000E1,-6.570647657E-2,-3.388369977E-1,1.031266975E1
1.396200000E1,9.381440282E-2,-1.074948788E0,1.040570831E1
1.398200000E1,-6.632034183E-1,-4.040071666E-1,1.107474422E1
1.400200000E1,-8.440614343E-1,1.991305351E-1,1.018982792E1
1.402200000E1,-3.959147632E-1,4.022067189E-1,9.705510139E0
1.404200469E1,1.516104341E-1,1.172201186E-1,9.924646378E0
1.406400469E1,1.256553769E0,-3.184096813E-1,9.568493843E0
1.408401875E1,1.241374373E0,-4.774804413E-1,9.580158234E0
1.410600156E1,6.286215782E-1,3.011139631E-1,9.453946114E0
1.412600156E1,2.441127971E-2,1.021998525E0,8.667718887E0
1.414800000E1,-2.278418094E-1,1.611221075E0,7.456894398E0
1.416800000E1,-3.042551577E-1,2.066799402E0,7.287011147E0
1.418800000E1,-4.505600333E-1,2.179738760E0,7.661263466E0
1.420800000E1,-6.934661865E-1,1.954817772E0,7.866446972E0
1.422800000E1,-9.734441042E-1,1.255097985E0,8.178257942E0
1.424800625E1,-1.166742444E0,7.559739947E-1,8.541543961E0
1.427000000E1,-1.041219115E0,1.054071307E0,9.897649765E0
1.429000000E1,-8.258271813E-1,1.370680451E0,1.105723763E1
1.431000000E1,-6.394433975E-1,1.416888595E0,1.102958870E1
1.433000000E1,-6.950367689E-1,8.368597031E-1,1.018800735E1
1.435000000E1,-5.305647254E-1,4.436551630E-1,1.141932678E1
1.437000000E1,-6.387538314E-1,8.660306782E-2,1.277618885E1
1.439000000E1,-9.003156424E-1,3.703159690E-1,1.243995571E1
1.441000000E1,-6.485700607E-1,9.922816753E-1,1.092614079E1
1.443000000E1,-3.681516051E-1,7.727333903E-1,1.134641933E1
1.445002656E1,-2.909912765E-1,1.357703805E-1,1.259603882E1
1.447200000E1,-2.554134279E-2,-6.742838025E-1,1.238995552E1
1.449200000E1,-1.951082945E-1,-5.175785422E-1,1.094155025E1
1.451200000E1,-3.389519453E-1,7.388506532E-1,9.169888496E0
1.453200000E1,-3.903985322E-1,1.907058239E0,8.500047684E0
1.455200000E1,-6.684611551E-3,1.733354092E0,8.445422173E0
1.457200000E1,3.706128597E-1,6.964828372E-1,8.838224411E0
1.459200000E1,7.474314570E-1,2.936536372E-1,9.137307167E0
1.461200000E1,5.249622464E-1,2.377537936E-1,9.500823975E0
1.463200000E1,1.251209825E-1,1.069786787E0,9.178785324E0
1.465200000E1,-2.249687612E-1,1.879764438E0,8.239042282E0
1.467200000E1,-2.939792573E-1,2.219252586E0,7.857367516E0
1.469200000E1,-3.297007084E-1,1.530565262E0,7.951958179E0
1.471200000E1,-3.138702810E-1,1.138021469E0,8.514796257E0
1.473200000E1,-1.764430851E-1,1.125111938E0,1.016292667E1
1.475200000E1,-3.561039865E-1,9.730897546E-1,1.089985275E1
1.477200000E1,-4.984057546E-1,1.169500470E0,1.036081219E1
1.479200000E1,-5.458396673E-1,1.308086395E0,9.511272430E0
1.481200000E1,-9.008615017E-1,1.364388585E0,9.774864197E0
1.483200000E1,-9.918985963E-1,9.024224877E-1,9.989997864E0
1.485200000E1,-1.013168693E0,4.213794768E-1,1.058124161E1
1.487200000E1,-1.028233051E0,1.758972108E-1,1.154553032E1
1.489200000E1,-1.133108616E0,3.638612032E-1,1.055388069E1
1.491200000E1,-1.126270771E0,9.004879594E-1,9.598258972E0
1.493200000E1,-7.400668859E-1,8.868314624E-1,1.000444889E1
1.495200000E1,-1.542823613E-1,1.291815490E-1,1.119915581E1
1.497200000E1,9.117120504E-2,-4.643314779E-1,1.075554848E1
1.499200000E1,-2.831957340E-1,3.204399347E-2,1.014673233E1
1.501200000E1,-9.132538438E-1,1.196296334E0,9.129119873E0
1.503200000E1,-1.211159587E0,1.876077294E0,9.246263504E0
1.505200000E1,-1.710025072E0,1.176328778E0,9.809734344E0
1.507200000E1,-1.649403811E0,5.517390370E-1,9.024416924E0
1.509200000E1,-1.257463455E0,5.581362844E-1,9.178468704E0
1.511200156E1,7.628884166E-2,-1.223532856E-1,9.570026398E0
1.513400000E1,1.301114559E0,-1.019891620E0,9.933418274E0
1.515400469E1,1.338186383E0,-1.106130719E0,1.017543316E1
1.517600000E1,2.211476266E-1,-1.192791313E-1,1.055972290E1
1.519600000E1,-7.032824159E-1,1.184172153E0,9.955962181E0
1.521600000E1,-1.112154484E0,2.122536421E0,8.904274940E0
1.523600000E1,-1.085052252E0,1.959510446E0,8.611416817E0
1.525600000E1,-8.737590909E-1,1.376417041E0,8.828896523E0
1.527600000E1,-6.608188748E-1,1.148412347E0,9.261854172E0
1.529600000E1,-6.075525880E-1,9.755606055E-1,1.019326591E1
1.531600000E1,-4.005690813E-1,8.820239305E-1,1.043061733E1
1.533600000E1,9.821973741E-2,8.109352589E-1,9.983869553E0
1.535600156E1,3.049255311E-1,6.538947821E-1,9.776818275E0
1.537800000E1,-1.264617294E-1,6.621882915E-1,9.913431168E0
1.539800000E1,-5.455141068E-1,1.103439689E0,1.038599873E1
1.541800000E1,-1.005622149E0,1.488714576E0,1.078001785E1
1.543800000E1,-7.386016250E-1,1.484060287E0,1.097290421E1
1.545800000E1,-1.408556700E-1,8.170740008E-1,1.006895924E1
1.547800000E1,2.238291353E-1,5.614690781E-1,9.118720055E0
1.549800000E1,-1.120965257E-1,9.154278040E-1,1.010140514E1
1.551800000E1,-9.390251040E-1,8.938320875E-1,1.131651115E1
1.553800625E1,-7.722832561E-1,8.247163296E-1,1.039291286E1
1.556000000E1,-5.162186027E-1,7.003710270E-1,8.876818657E0
1.558000000E1,-3.108248413E-1,5.101660490E-1,9.076227188E0
1.560000000E1,-4.824795201E-2,2.508836091E-1,1.002128506E1
1.562000000E1,-2.213583142E-1,6.444232911E-2,1.074388504E1
1.564000000E1,-2.196919620E-1,5.871539935E-2,1.048283958E1
1.566000000E1,2.323907912E-1,6.804608703E-1,9.788808823E0
1.568000000E1,3.477434516E-1,1.245875478E0,8.996816635E0
1.570000000E1,1.648072600E-1,1.596721768E0,8.986675262E0
1.572000000E1,-2.618394792E-1,1.757660031E0,9.492636681E0
1.574000000E1,-9.630724192E-1,1.962517619E0,9.851709366E0
1.576000000E1,-1.076059580E0,2.037484646E0,9.484581947E0
1.578000000E1,-7.256346345E-1,1.634760857E0,9.321575165E0
1.580000000E1,-8.077940941E-1,1.143556833E0,9.775698662E0
1.582000000E1,-8.125728965E-1,6.479763389E-1,1.003541088E1
1.584000000E1,-7.426813841E-1,2.682750821E-1,9.700088501E0
1.586001875E1,-6.392422318E-1,3.965564370E-1,9.419593811E0
1.588200000E1,-7.271381617E-1,4.910220206E-1,9.486431122E0
1.590200000E1,-7.688739896E-1,2.383667082E-1,1.040496063E1
1.592200000E1,-9.248705506E-1,3.848535419E-1,1.120220089E1
1.594200000E1,-7.304134369E-1,1.137159705E0,1.115668297E1
1.596200000E1,-3.438743949E-1,1.367271066E0,9.811227798E0
1.598200000E1,7.611646503E-2,1.369358897E0,8.497424126E0
1.600200000E1,5.516240746E-2,1.003247142E0,1.024623489E1
1.602200000E1,-1.877437085E-1,3.761290908E-1,1.243744755E1
1.604200000E1,-1.641464680E-1,7.412448525E-3,1.273136806E1
1.606200000E1,-5.586246848E-1,-2.128828466E-1,1.174794579E1
1.608200000E1,-9.898874760E-1,2.278801054E-1,1.024559402E1
1.610200156E1,-1.706213474E0,1.025915384E0,9.122530937E0
1.612400625E1,-2.084152699E0,1.719965816E0,8.677065849E0
1.614600000E1,-1.717743874E0,1.224059582E0,9.411472321E0
1.616600000E1,-8.913038373E-1,7.043645382E-1,9.500441551E0
1.618600000E1,-1.014854237E-1,6.410714984E-2,9.029454231E0
1.620600000E1,3.404554725E-1,-2.897558510E-1,8.467448235E0
1.622600625E1,2.252464928E-2,2.394201729E-4,8.942659378E0
1.624800156E1,-1.039447546E0,6.316478848E-1,1.007675457E1
1.627000000E1,-1.344066501E0,7.771769762E-1,9.781836510E0
1.629000000E1,-8.168633580E-1,5.630779266E-1,8.784738541E0
1.631000000E1,-2.218180001E-1,2.709182799E-1,8.485261917E0
1.633000000E1,5.727888271E-2,5.029739067E-2,9.037690163E0
1.635000000E1,-1.647593826E-1,5.924212933E-1,9.519393921E0
1.637000000E1,-3.379272223E-1,1.354399920E0,9.955971718E0
1.639000000E1,-2.412780821E-1,1.731639862E0,9.840964317E0
1.641000000E1,1.423783898E-1,1.428160548E0,9.544992447E0
1.643000000E1,7.662402838E-2,7.965509295E-1,9.811151505E0
1.645000000E1,-6.002646685E-1,7.458130121E-1,1.081661034E1
1.647000156E1,-9.116928577E-1,8.778005242E-1,1.161348724E1
1.649200000E1,-9.316605330E-1,6.296942234E-1,1.131649113E1
1.651200000E1,-7.766598463E-1,5.175689459E-1,1.068889427E1
1.653200156E1,-4.843565822E-1,2.158037722E-1,1.153501511E1
1.655400000E1,1.213094071E-1,-3.410875499E-1,1.169538784E1
1.657400469E1,3.824018836E-1,-9.477878213E-1,1.137947750E1
1.659600000E1,4.706234336E-1,-9.201779366E-1,1.031071568E1
1.661600000E1,2.185427248E-1,-3.782838583E-3,9.213356972E0
1.663600000E1,-3.773261905E-1,7.427771688E-1,8.110808372E0
1.665600000E1,-1.186068416E0,1.217326999E0,8.502661705E0
1.667600000E1,-1.783632278E0,1.567972302E0,9.264123917E0
1.669600000E1,-1.588006973E0,1.544097304E0,9.053903580E0
1.671600000E1,-4.728356898E-1,1.159330010E0,8.374553680E0
1.673600000E1,2.023962438E-1,5.736315846E-1,8.035409927E0
1.675600156E1,4.303242564E-1,5.398350358E-1,8.305122375E0
1.677800000E1,1.364216208E-1,8.862856030E-1,8.937775612E0
1.679800000E1,-3.065536022E-1,1.266264558E0,9.325808525E0
1.681800000E1,-6.605602503E-1,1.428917050E0,9.662059784E0
1.683800000E1,-9.485731125E-1,1.449286819E0,9.755299568E0
1.685800000E1,-6.750020981E-1,1.455071330E0,9.896661758E0
1.687800000E1,-4.530883133E-1,1.196832657E0,1.006914997E1
1.689800000E1,-4.057118595E-1,1.088250875E0,1.007099915E1
1.691800000E1,-1.855027527E-1,1.005421042E0,1.006836510E1
1.693800000E1,-6.414545327E-2,5.824517608E-1,1.023562431E1
1.695800000E1,-1.086584479E-1,5.450160503E-1,1.038857555E1
1.697800000E1,-2.613319159E-1,6.162866950E-1,1.100154877E1
1.699800156E1,-4.617840648E-1,8.637992740E-1,1.170369148E1
1.702000000E1,-6.643622518E-1,9.365542531E-1,1.136662579E1
1.704000000E1,-7.274351120E-1,1.000584722E0,1.052175045E1
1.706000000E1,-7.293696404E-1,7.754627466E-1,1.027078056E1
1.708000156E1,-4.076367915E-1,6.426037848E-2,1.070352745E1
1.710200000E1,1.018301845E-1,-3.032495677E-1,1.057951736E1
1.712200156E1,2.733699679E-1,-4.776911438E-1,9.648920059E0
1.714400000E1,-1.027112529E-1,2.677675337E-2,8.563466072E0
1.716400156E1,-6.159994006E-1,7.134625316E-1,8.698220253E0
1.718600000E1,-8.913325667E-1,1.257022977E0,9.617469788E0
1.720600000E1,-3.790117204E-1,1.065955997E0,9.965835571E0
1.722600156E1,6.258060336E-1,5.618520975E-1,9.633817673E0
1.724802656E1,1.282372713E0,1.250443608E-1,9.108375549E0
1.727000156E1,9.646813273E-1,3.411929011E-1,8.698738098E0
1.729200000E1,-2.008735240E-1,1.268467188E0,9.109793663E0
1.731200000E1,-1.094533205E0,2.131605625E0,9.432426453E0
1.733200000E1,-1.066722155E0,2.231769562E0,9.069332123E0
1.735200000E1,-3.499939740E-1,1.853897452E0,8.051106453E0
1.737200000E1,2.499546558E-1,1.695554495E0,8.773543358E0
1.739200000E1,4.037007093E-1,1.768204093E0,9.993952751E0
1.741200000E1,3.351403475E-1,2.081250668E0,1.034046078E1
1.743200000E1,6.720236540E-1,2.501461983E0,9.660221100E0
1.745200000E1,1.172775745E0,2.279787540E0,1.001371956E1
1.747200000E1,1.311390519E0,1.119394660E0,1.043955231E1
1.749200000E1,9.785676599E-1,-9.490615875E-2,1.092111206E1
1.751200000E1,4.029345810E-1,-5.524764061E-1,1.161827564E1
1.753200000E1,-1.124125570E-1,-2.136489898E-1,1.140049934E1
1.755200000E1,-4.016704261E-1,6.843394637E-1,9.879051208E0
1.757200000E1,-6.568635702E-1,1.101169944E0,1.099597454E1
1.759200000E1,-4.718875587E-1,1.450503021E-1,1.217135525E1
1.761200000E1,-2.205155492E-1,-1.757152528E-1,1.111056137E1
1.763200000E1,-2.435094565E-1,1.328686178E-1,9.534247398E0
1.765200000E1,-6.075334549E-1,5.083560348E-1,8.736883163E0
1.767201406E1,-9.405477643E-1,9.739612341E-1,8.813056946E0
1.769400000E1,-5.778836608E-1,9.184637070E-1,9.019024849E0
1.771400000E1,-1.462378353E-1,5.342900157E-1,9.185134888E0
1.773400156E1,5.222328305E-1,1.308479160E-1,9.271565437E0
1.775600000E1,4.166868627E-1,-9.457097203E-2,9.249193192E0
1.777600000E1,-4.736688733E-2,4.792904258E-1,9.880726814E0
1.779600000E1,-9.353476167E-1,1.262673259E0,9.254575729E0
1.781600000E1,-1.428198695E0,2.074978113E0,8.601418495E0
1.783600000E1,-1.514112353E0,2.479971647E0,8.418482780E0
1.785600000E1,-1.181452394E0,2.072171926E0,8.677764893E0
1.787600000E1,-8.600355983E-1,1.318477273E0,9.419076920E0
1.789600156E1,-7.505918145E-1,1.165487766E0,1.036145401E1
1.791800000E1,-5.511356592E-1,1.076547980E0,1.079693985E1
1.793800000E1,-1.472242624E-1,1.015735269E0,1.029326630E1
1.795800000E1,-1.417367347E-2,1.201506257E0,1.004565811E1
1.797800000E1,1.346594840E-1,8.204833269E-1,1.103234768E1
1.799800000E1,-2.038423270E-1,1.139065400E-1,1.210765076E1
1.801800000E1,5.527732894E-2,-3.394403458E-1,1.260571098E1
1.803800000E1,-2.186768055E-1,4.709298909E-1,1.190882587E1
1.805800156E1,-1.402513742E0,1.728249788E0,1.011690044E1
1.807800156E1,-1.872907400E0,2.531130791E0,9.700519562E0
1.810000156E1,-1.778824806E0,2.113447905E0,1.012669754E1
1.812000156E1,-1.212117314E0,1.042349219E0,9.371719360E0
1.814000156E1,-2.926576436E-1,4.666682184E-1,8.067990303E0
1.816200000E1,3.887512982E-1,4.675875902E-1,7.382932663E0
1.818200000E1,-3.166570961E-1,7.479294538E-1,8.971562386E0
1.820200000E1,-8.869368434E-1,1.247149348E0,1.033041477E1
1.822200000E1,-7.973840833E-1,1.299601436E0,1.061756611E1
1.824200469E1,2.280620784E-1,6.919913292E-1,9.801900864E0
1.826400000E1,9.646621943E-1,9.097008407E-2,9.023114204E0
1.828400781E1,9.658784270E-1,2.869786024E-1,8.547012329E0
1.830600000E1,1.399554610E-1,1.160450459E0,9.410007477E0
1.832600156E1,-3.688698709E-1,1.437708497E0,9.475446701E0
1.834800000E1,-3.933481872E-1,1.489499927E0,8.430922508E0
1.836800156E1,-1.090032086E-1,1.613701582E0,7.763371468E0
1.839000000E1,-2.446395308E-1,1.281051159E0,8.322033882E0
1.841000000E1,-3.621086478E-1,8.457278013E-1,9.732305527E0
1.843000000E1,-1.708215028E-1,8.159534931E-1,1.113973236E1
1.845001250E1,3.165134788E-2,9.907589555E-1,1.131565857E1
1.847003750E1,9.009859711E-2,8.733282089E-1,1.027130795E1
1.849200000E1,2.321609557E-1,9.886711836E-1,9.871915817E0
1.851200000E1,4.052712917E-1,1.044044256E0,1.004115677E1
1.853200000E1,6.295793056E-1,6.614987850E-1,1.078601265E1
1.855200000E1,6.822421551E-1,9.349836409E-2,1.084823322E1
1.857200000E1,7.471441627E-1,-1.455770433E-1,1.090873909E1
1.859200000E1,7.368969917E-1,-4.535863101E-1,1.218258858E1
1.861200000E1,7.444818020E-1,-7.806246877E-1,1.311894226E1
1.863200000E1,2.569169998E-1,-1.112805843E0,1.267986393E1
1.865200000E1,1.541099697E-1,-1.490725726E-1,1.034706974E1
1.867200000E1,4.818091542E-2,1.257032514E0,7.994689465E0
1.869200000E1,-7.407947183E-1,1.778958917E0,8.149106026E0
1.871200000E1,-7.593354583E-1,1.222594380E0,8.798739433E0
1.873200000E1,-3.619650006E-1,6.354690194E-1,9.121784210E0
1.875200000E1,1.890365928E-1,2.679494619E-1,8.953845024E0
1.877200000E1,8.730217069E-2,1.423496604E-1,8.862367630E0
1.879200000E1,-2.976471484E-1,6.236129403E-1,9.042325020E0
1.881200000E1,-7.153108716E-1,1.239430308E0,8.993215561E0
1.883200156E1,-1.121626019E0,1.482259870E0,8.723954201E0
1.885200156E1,-1.360088468E0,1.393588185E0,8.540998459E0
1.887400000E1,-1.280620217E0,8.167100549E-1,9.987345695E0
1.889400000E1,-1.106082916E0,4.688804597E-2,1.194068813E1
1.891400000E1,-5.619478822E-1,-2.051447779E-1,1.276160240E1
1.893400000E1,-1.240962595E-1,1.695094816E-2,1.113127518E1
1.895400156E1,-8.745539933E-2,5.090838671E-1,9.386045456E0
1.897600000E1,-2.799683809E-1,1.096371889E0,8.669633865E0
1.899600000E1,-3.350158632E-1,1.496979356E0,8.984672546E0
1.901600000E1,-4.094276428E-1,8.445402980E-1,1.060118961E1
1.903600000E1,5.487510003E-3,6.438870430E-1,1.103250122E1
1.905600156E1,6.474879384E-1,8.672468662E-1,1.030334187E1
1.907800000E1,1.651999205E-1,1.088270068E0,9.609023094E0
1.909800000E1,-8.331917524E-1,1.318084598E0,9.889287949E0
1.911800156E1,-1.370364428E0,8.703689575E-1,1.163720894E1
1.914000000E1,-5.124357939E-1,1.556422561E-1,1.170777988E1
1.916000000E1,7.680886388E-1,-3.771155179E-1,1.021635532E1
1.918000156E1,8.954601288E-1,-4.633163512E-1,9.509194374E0
1.920200000E1,-4.163038135E-1,3.373334408E-1,9.792926788E0
1.922200000E1,-1.221282244E0,1.256687760E0,9.823332787E0
1.924200000E1,-1.312060833E0,1.336146474E0,9.707712173E0
1.926200000E1,-4.159494638E-1,7.366001010E-1,9.219180107E0
1.928200000E1,2.454344034E-1,2.840002179E-1,8.412678719E0
1.930200000E1,6.227797270E-2,3.060460091E-1,8.282836914E0
1.932200000E1,-2.672120631E-1,7.955740690E-1,8.583586693E0
1.934200000E1,-1.019795895E0,1.386884451E0,8.808181763E0
1.936200000E1,-1.318783760E0,1.551586270E0,8.735655785E0
1.938200000E1,-3.612467349E-1,1.335121870E0,7.484064102E0
1.940200000E1,1.396202743E-1,7.906707525E-1,7.270807743E0
1.942200000E1,2.005575001E-1,6.549291015E-1,8.241474152E0
1.944200000E1,-1.450598836E-1,7.720342875E-1,9.488690376E0
1.946200156E1,-2.671067119E-1,8.907196522E-1,1.029119778E1
1.948400312E1,-1.640602648E-1,1.726334333E0,1.116373158E1
1.950600000E1,6.731537730E-2,1.861377001E0,1.091691780E1
1.952600000E1,1.804366112E-1,6.966744065E-1,1.113260746E1
1.954600156E1,9.002198279E-2,-1.072602421E-1,1.241709614E1
1.956800156E1,6.080314517E-2,-1.015179753E0,1.304621601E1
1.958800156E1,-1.146631092E-1,-7.563474774E-1,1.201392174E1
1.961000000E1,-8.477005959E-1,7.813525200E-1,1.074625015E1
1.963000000E1,-9.481230378E-1,6.305465102E-1,1.135345840E1
1.965000938E1,-2.186480761E-1,-1.490534246E-1,1.102880383E1
1.967200000E1,5.154524446E-1,-5.207962990E-1,9.289885521E0
1.969200000E1,3.741275370E-1,-1.397830695E-1,8.695214272E0
1.971200000E1,5.078580603E-2,2.744042277E-1,9.213481903E0
1.973200000E1,-2.069931030E-1,2.896983922E-1,9.754858017E0
1.975200000E1,-1.073272675E-1,1.619150639E-1,9.276544571E0
1.977200000E1,-6.747817993E-2,1.141746938E-1,9.112207413E0
1.979200000E1,-1.916797906E-1,2.272959352E-1,9.565985680E0
1.981200000E1,-3.299114108E-1,4.360894859E-1,9.661159515E0
1.983200000E1,-4.519199133E-1,1.025139689E0,9.156892776E0
1.985202031E1,-3.526371717E-1,1.467875481E0,8.466327667E0
1.987400156E1,-4.271351695E-1,1.907719135E0,7.786728859E0
1.989600156E1,-8.926637769E-1,2.275640965E0,8.466012001E0
1.991800000E1,-8.524699211E-1,1.573105454E0,1.020361805E1
1.993800000E1,-2.639846802E-1,3.255060613E-1,1.116665268E1
1.995800000E1,4.601081014E-1,-2.403299659E-1,1.131349373E1
1.997800000E1,2.459515482E-1,-2.025494538E-2,1.053240871E1
1.999800156E1,-3.418920040E-1,4.794436693E-1,9.879472733E0
2.002000000E1,-5.575903654E-1,9.017233849E-1,1.063655663E1
2.004000000E1,1.984314471E-1,5.125793815E-1,1.172369766E1
2.006000000E1,9.723619223E-1,-1.360193938E-1,1.165301037E1
2.008000000E1,9.105148911E-1,-3.100012429E-2,1.036665440E1
2.010000000E1,7.042208910E-1,1.586685330E-1,9.830774307E0
2.012000156E1,3.114473224E-1,-1.443990916E-1,1.100974655E1
2.014200000E1,1.687337607E-1,2.605849132E-2,1.102027988E1
2.016200000E1,-3.442766368E-1,4.491426647E-1,1.049820137E1
2.018200000E1,-4.517666996E-1,3.696743250E-1,8.831664085E0
2.020200000E1,-8.750328422E-1,4.263498485E-1,9.436057091E0
2.022200000E1,-1.308747292E0,8.974999785E-1,1.093861961E1
2.024200000E1,-1.359580874E0,9.482284188E-1,1.145449352E1
2.026200000E1,-5.855642557E-1,4.956667721E-1,1.099037170E1
2.028200000E1,6.321171522E-1,1.578640938E-1,9.506791115E0
2.030200000E1,1.070476294E0,1.301871240E-1,8.478625298E0
2.032200000E1,8.422226906E-1,3.375537097E-1,8.374342918E0
2.034200000E1,8.989748359E-2,7.902206182E-1,8.704426765E0
2.036200000E1,-1.912871450E-1,1.075111508E0,8.380261421E0
2.038200000E1,6.701849401E-2,8.854045272E-1,7.542357922E0
2.040200000E1,2.036220729E-1,6.844160557E-1,7.505813122E0
2.042200000E1,1.294209659E-1,6.763141155E-1,7.878915310E0
2.044200000E1,3.528670371E-1,9.265081882E-1,8.392471313E0
2.046200000E1,4.119367599E-1,7.089135647E-1,9.761887550E0
2.048200000E1,3.797395229E-1,7.135391235E-1,1.064836502E1
2.050200000E1,4.870380759E-1,5.928426385E-1,1.079673862E1
2.052200000E1,1.134372830E0,4.331589863E-2,1.043386459E1
2.054200000E1,1.852460980E0,-5.617180467E-1,1.065522289E1
2.056200000E1,1.886650205E0,-7.192469239E-1,1.249366283E1
2.058200000E1,1.328456283E0,-7.435911894E-1,1.216874981E1
2.060200000E1,1.267969236E-2,3.845470846E-1,1.029594803E1
2.062200000E1,-6.488094926E-1,1.891227841E0,1.034598732E1
2.064200000E1,-6.126283109E-2,8.579286337E-1,1.159393120E1
2.066200000E1,1.638227820E0,-7.198503017E-1,1.159874821E1
2.068200000E1,2.260317802E0,-1.728010297E0,1.077971077E1
2.070200000E1,1.769544959E0,-1.691685438E0,9.818707466E0
2.072200000E1,9.424822927E-1,-2.477519959E-1,9.475857735E0
2.074200000E1,4.389050603E-2,4.952166677E-1,9.512891769E0
2.076200000E1,-4.104619324E-1,5.358414650E-1,9.600671768E0
2.078200000E1,-2.310500294E-1,5.601857305E-1,9.108022690E0
2.080200000E1,1.982015967E-1,3.874488771E-1,8.866485596E0
2.082200000E1,5.612870455E-1,1.672972441E-1,9.349500656E0
2.084200000E1,6.746860147E-1,1.984984726E-1,9.416184425E0
2.086200000E1,4.968543053E-1,7.514345646E-1,9.029597282E0
2.088200000E1,1.277545989E-1,1.261677265E0,8.067253113E0
2.090200000E1,6.463386863E-2,1.986382961E0,8.083198547E0
2.092200000E1,1.363641471E-1,1.853112102E0,8.847551346E0
2.094200000E1,1.824381575E-2,9.059371948E-1,9.969905853E0
2.096200000E1,-3.112749755E-1,9.918985963E-1,1.044406319E1
2.098200000E1,-5.676748157E-1,1.496050358E0,1.043208313E1
2.100200000E1,-6.087688804E-1,1.222153783E0,9.808287621E0
2.102200000E1,-3.664661050E-1,4.197801948E-1,1.025929832E1
2.104200000E1,-3.986345828E-1,-4.032314420E-1,1.132119370E1
2.106200000E1,2.046563476E-2,-7.170825601E-1,1.158414364E1
2.108200000E1,4.115153849E-1,-2.069356441E-1,1.106199741E1
2.110200000E1,6.800490618E-2,4.173189402E-1,1.055757713E1
2.112200000E1,-9.373395443E-1,1.470183492E0,9.927471161E0
2.114200000E1,-1.484328508E0,1.987972617E0,1.005908489E1
2.116200156E1,-1.060889840E0,9.774663448E-1,1.140441608E1
2.118400000E1,3.731028140E-1,-9.071151912E-2,1.110577202E1
2.120400000E1,1.446538329E0,-6.884958148E-1,9.860194206E0
2.122400000E1,1.177631259E0,-2.880895138E-1,9.201166153E0
2.124400781E1,-2.505292594E-1,1.059941769E0,9.482637405E0
2.126600000E1,-1.689626455E0,2.013638496E0,1.023554802E1
2.128600000E1,-1.042713165E0,1.612686396E0,1.004812908E1
2.130600000E1,2.280716598E-1,5.695614219E-1,9.168978691E0
2.132600000E1,1.096582651E0,-1.948305517E-1,8.462574005E0
2.134600000E1,1.393789291E0,-3.121847510E-1,8.265070915E0
2.136600000E1,9.873113632E-1,8.701486886E-2,8.568829536E0
2.138600000E1,2.948028445E-1,5.950261950E-1,8.620343208E0
2.140600156E1,9.248322248E-2,1.120045900E0,8.122673988E0
2.142800000E1,-4.239652306E-2,1.156504750E0,8.420982361E0
2.144801719E1,2.290772200E-1,7.625915408E-1,8.930822372E0
2.147002969E1,5.152800679E-1,7.218997478E-1,9.560612679E0
2.149200156E1,5.279310346E-1,9.128516316E-1,1.005083942E1
2.151200156E1,3.492948711E-1,1.110076427E0,1.095325279E1
2.153400000E1,5.704329014E-1,5.501204729E-1,1.132886410E1
2.155400000E1,8.696793914E-1,3.784083426E-1,1.178923988E1
2.157400000E1,5.052244663E-1,1.129488572E-1,1.088676071E1
2.159400156E1,1.244984940E-2,7.551790476E-1,9.290134430E0
2.161600000E1,-2.403778490E-3,1.906062245E0,9.548612595E0
2.163600000E1,6.180871278E-2,1.866356850E0,1.027634430E1
2.165600000E1,1.505186707E-1,1.240933895E0,9.950178146E0
2.167600000E1,7.026790380E-1,1.101476431E0,1.022775173E1
2.169600156E1,8.917922378E-1,4.473709464E-1,1.130485535E1
2.171800156E1,1.171607375E0,-2.972449362E-1,1.165876675E1
2.174000000E1,8.786433339E-1,-5.405628681E-1,1.050524044E1
2.176000156E1,3.417100608E-1,2.413546890E-1,1.028792286E1
2.178000156E1,-7.479486056E-3,5.357840657E-1,1.040388870E1
2.180000156E1,2.002318799E-1,4.233810306E-1,1.005661392E1
2.182000156E1,7.664605975E-1,1.969566047E-1,8.866628647E0
2.184200000E1,1.073473930E0,3.988740221E-2,8.351367950E0
2.186200000E1,6.025726795E-1,4.995645583E-1,9.433805466E0
2.188200000E1,-4.109407961E-2,1.067517042E0,1.013011646E1
2.190200000E1,-1.004798561E-1,1.528506279E0,9.382388115E0
2.192200000E1,1.366897523E-1,2.051026344E0,8.017807961E0
2.194200000E1,1.800918579E-1,2.076606035E0,7.909206867E0
2.196200000E1,-3.920265734E-1,1.584061265E0,9.084731102E0
2.198200000E1,-8.028619885E-1,1.153258204E0,1.036884689E1
2.200200000E1,-5.773856640E-1,6.079452634E-1,1.131524563E1
2.202200000E1,1.137437373E-1,-1.836448461E-1,1.116979408E1
2.204200000E1,5.728079677E-1,-9.015797973E-1,1.086396790E1
2.206200156E1,4.094946980E-1,-7.276074886E-1,9.834997177E0
2.208400156E1,-1.506910622E-1,-1.508730203E-1,9.786683083E0
2.210600000E1,-2.769517004E-1,3.179595768E-1,1.069593334E1
2.212600000E1,2.858964205E-1,6.381217837E-1,1.148505306E1
2.214600000E1,4.613913894E-1,4.618798196E-1,1.051575470E1
2.216600000E1,-2.214445025E-1,3.899963200E-1,9.871389389E0
2.218600156E1,-1.327000618E0,1.057758331E0,1.060368919E1
2.220800000E1,-1.771364450E0,2.069375515E0,1.104203892E1
2.222800000E1,-1.027543426E0,2.236270428E0,1.016257191E1
2.224800000E1,-3.672801256E-1,1.682970524E0,8.727027893E0
2.226800000E1,-8.437166810E-1,1.054032922E0,7.632216930E0
2.228800156E1,-1.384653091E0,1.291135550E0,8.174465179E0
2.231000000E1,-1.090405583E0,1.037254453E0,9.673378944E0
2.233000156E1,-6.822517514E-2,3.089190722E-1,1.034518242E1
2.235200000E1,9.526816010E-1,-5.502449870E-1,9.778159142E0
2.237200000E1,1.818491936E0,-7.782974839E-1,9.023353577E0
2.239200000E1,2.161954641E0,-9.731951356E-2,8.162762642E0
2.241200000E1,1.851943731E0,8.500661254E-1,8.112024307E0
2.243200000E1,8.343697190E-1,1.392199636E0,8.089288712E0
2.245200000E1,-3.450427949E-1,1.631983638E0,8.444387436E0
2.247200000E1,-9.676501751E-1,1.803609610E0,9.045753479E0
2.249200000E1,-9.415246248E-1,1.592010021E0,1.003422356E1
2.251200000E1,-3.519476652E-1,7.794850469E-1,1.112401676E1
2.253200000E1,-5.350561813E-2,2.299870104E-1,1.150167751E1
2.255200000E1,1.695094816E-2,3.473124802E-1,1.101830769E1
2.257200156E1,-3.883778453E-1,7.123899460E-1,1.069092464E1
2.259400156E1,-5.607699156E-1,9.574891329E-1,1.023271275E1
2.261600000E1,-4.909454286E-1,8.336514235E-1,1.052207661E1
2.263600000E1,-1.205241159E-1,3.169252574E-1,1.150116158E1
2.265600000E1,-1.250922531E-1,1.885864884E-1,1.092476177E1
2.267600000E1,-5.295208097E-1,1.106877804E0,9.683118820E0
2.269600000E1,-5.623213649E-1,1.476149917E0,9.985755920E0
2.271600000E1,-3.143107891E-1,1.755620241E-1,1.077777672E1
2.273600000E1,2.930215597E-1,-4.742147624E-1,1.094032383E1
2.275600156E1,2.817209065E-1,-7.907760739E-1,1.057740116E1
2.277800000E1,1.139831543E-1,-3.464122713E-1,9.952112198E0
2.279800156E1,-1.993412375E-1,2.987963855E-1,9.740205765E0
2.282000000E1,-5.694273710E-1,1.694615930E-1,9.820527077E0
2.284000000E1,-4.478019178E-1,2.850249410E-1,1.001669788E1
2.286000000E1,-4.929948747E-1,1.421964318E-1,1.074875832E1
2.288000156E1,-2.898994982E-1,-3.218668997E-1,1.119214535E1
2.290000156E1,3.382336795E-1,-5.792340040E-1,1.030325603E1
2.292200156E1,3.741179407E-1,-1.331176143E-3,8.686182976E0
2.294400000E1,1.817965209E-1,6.464344263E-1,8.158692360E0
2.296400781E1,2.259551883E-1,1.200835824E0,8.263271332E0
2.298600000E1,7.319553196E-2,9.858460426E-1,8.198733330E0
2.300600000E1,-1.774390787E-1,4.268861711E-1,8.150283813E0
2.302604375E1,-5.643899441E-1,5.501683950E-1,8.881137848E0
2.304800000E1,-9.624499679E-1,7.167665362E-1,1.004605103E1
2.306800000E1,-1.083299637E0,5.807279944E-1,9.635301590E0
2.308800156E1,-1.033586383E0,5.842522383E-1,9.081599236E0
2.311000000E1,-6.354115605E-1,5.874605179E-1,1.013920498E1
2.313000000E1,-1.011119261E-1,3.706415594E-1,1.186480141E1
2.315000000E1,6.641515344E-2,-4.633259028E-2,1.141374397E1
2.317000000E1,-6.750690937E-2,3.977056146E-1,9.796661377E0
2.319000000E1,-2.185523063E-1,1.004808187E0,9.185383797E0
2.321000000E1,-2.107663602E-1,3.295379132E-2,1.155399609E1
2.323000000E1,5.297506452E-1,-9.772844315E-1,1.241882038E1
2.325000156E1,9.215282798E-1,-1.594643712E0,1.162993050E1
2.327200156E1,1.159128785E0,-1.024823785E0,9.679671288E0
2.329400000E1,4.646762311E-1,1.460941881E-1,8.494972229E0
2.331400156E1,-1.457618833E0,8.023831844E-1,1.009798622E1
2.333401094E1,-1.721823692E0,1.118590236E0,1.092716503E1
2.335600000E1,-3.539300561E-1,4.942589998E-1,1.035073757E1
2.337600000E1,8.118259311E-1,-2.027409971E-1,9.643586159E0
2.339600000E1,1.305807114E0,-4.791276455E-1,8.927681923E0
2.341600000E1,1.087350607E0,-5.630204827E-2,8.529688835E0
2.343600000E1,2.418909967E-1,5.179328322E-1,8.442252159E0
2.345600000E1,-5.958402157E-1,9.642025232E-1,8.869818687E0
2.347600156E1,-4.655094445E-1,1.017899632E0,8.489388466E0
2.349800000E1,6.319735199E-2,6.776643991E-1,8.254824638E0
2.351800000E1,2.788478732E-1,4.833510220E-1,8.437348366E0
2.353800000E1,6.970957667E-2,7.069503069E-1,9.410581589E0
2.355800000E1,-1.666651666E-1,9.071534276E-1,1.086709023E1
2.357800156E1,-1.047989950E-1,6.276639700E-1,1.190735149E1
2.360000000E1,2.349956781E-1,1.918330193E-1,1.117009068E1
2.362000000E1,2.056427747E-1,4.813973308E-1,9.804074287E0
2.364000000E1,-4.950443208E-1,5.673013330E-1,1.015542793E1
2.366001719E1,-6.455246806E-1,2.256774604E-1,1.157123470E1
2.368200000E1,-4.910028726E-2,-2.779285014E-1,1.147484398E1
2.370200156E1,-5.960604548E-2,4.597442150E-1,9.796345711E0
2.372400625E1,-3.221063316E-1,1.197934031E0,9.765383720E0
2.374600156E1,-4.105289876E-1,4.001668692E-1,1.177836132E1
2.376600156E1,9.850703180E-2,-3.297581673E-1,1.198568916E1
2.378800000E1,4.366162121E-1,-9.642120600E-1,1.039308548E1
2.380800000E1,-1.805227995E-2,-2.553272545E-1,9.007312775E0
2.382800000E1,-7.209228277E-1,3.946218789E-1,8.922844887E0
2.384800000E1,-7.883818746E-1,2.570989728E-1,9.915241241E0
2.386800000E1,-2.337794304E-1,-2.908380330E-1,1.030949974E1
2.388800000E1,4.491713941E-1,-6.713533401E-1,1.021296597E1
2.390800000E1,4.720982611E-1,-6.816675663E-1,9.784192085E0
2.392800000E1,-6.423164159E-2,1.420910805E-1,9.403255463E0
2.394800000E1,-4.731612802E-1,1.143059015E0,8.714425087E0
2.396800000E1,-4.606156647E-1,1.640880466E0,8.104784966E0
2.398800000E1,-4.424389005E-1,1.505789995E0,8.011774063E0
2.400800000E1,-3.527712524E-1,1.030052662E0,8.746076584E0
2.402800000E1,-4.717056155E-1,4.877563417E-1,9.711284637E0
2.404800469E1,-7.628597021E-1,2.376771867E-1,1.040340042E1
2.407000000E1,-9.122195840E-1,1.785212606E-1,1.143746567E1
2.409001875E1,-7.085400224E-1,-5.498235822E-1,1.144837284E1
2.411200000E1,-1.560253352E-1,-8.853853941E-1,1.083174229E1
2.413200000E1,-9.625648707E-2,-6.598228216E-1,1.076067257E1
2.415200000E1,-4.453406632E-1,-3.551846147E-1,1.200790787E1
2.417200000E1,-2.992081642E-1,-4.493150413E-1,1.214323711E1
2.419200000E1,-1.031422149E-2,9.768342599E-3,1.017474461E1
2.421200000E1,2.121645808E-1,8.866782188E-1,8.563705444E0
2.423200000E1,-1.066473201E-1,1.419503093E0,9.532801628E0
2.425200000E1,-2.832915485E-1,5.616318583E-1,1.116557026E1
2.427200000E1,1.782914102E-1,1.442937404E-1,1.146977711E1
2.429200156E1,9.159928560E-1,-9.401550889E-2,9.889259338E0
2.431401094E1,7.425185442E-1,8.980172127E-2,7.788309574E0
2.433600000E1,-7.205685377E-1,9.468780756E-1,7.005146980E0
2.435600000E1,-1.630336404E0,1.873347878E0,8.526249886E0
2.437600000E1,-1.290484309E0,1.017516494E0,1.033492565E1
2.439600000E1,1.412387490E-1,-1.734934449E-1,1.077597618E1
2.441600156E1,1.388608217E0,-1.180599928E0,1.001253223E1
2.443800000E1,1.580000758E0,-1.252081275E0,8.669921875E0
2.445800000E1,5.892609358E-1,1.926470548E-1,8.247191429E0
2.447800000E1,-2.738296390E-1,1.219012618E0,8.354317665E0
2.449800000E1,-5.454469919E-1,1.224308610E0,8.171104431E0
2.451800000E1,-2.401384264E-1,8.584936857E-1,7.329062939E0
2.453800000E1,1.027878672E-1,8.251568079E-1,6.795500755E0
2.455800000E1,7.105990499E-2,9.245257378E-1,7.162407875E0
2.457800156E1,-3.639665544E-1,8.761149645E-1,8.790972710E0
2.459800625E1,-3.550409675E-1,5.859282017E-1,9.784049034E0
2.462000000E1,-2.527319267E-2,4.319427311E-1,9.742917061E0
2.464000000E1,-2.885970771E-1,4.315787852E-1,1.014494133E1
2.466000625E1,-8.722746968E-1,4.456662834E-1,1.119469357E1
2.468200000E1,-1.241814971E0,1.895728856E-1,1.305744934E1
2.470200000E1,-6.860057712E-1,-4.401596189E-1,1.359360600E1
2.472200000E1,-3.875254691E-1,-6.619009972E-1,1.209910774E1
2.474200000E1,2.384624816E-2,-3.645315766E-1,1.110250664E1
2.476200000E1,2.596368194E-1,-1.111685276E0,1.241074753E1
2.478200000E1,4.557889700E-1,-1.637337089E0,1.327239132E1
2.480200000E1,4.909645617E-1,-1.760370374E0,1.225393677E1
2.482200000E1,2.988825738E-1,-1.186097026E0,1.036519814E1
2.484200000E1,-1.709460095E-2,-5.968840122E-1,9.179389000E0
2.486200000E1,-1.200740039E-1,-1.651616096E-1,9.399607658E0
2.488200000E1,1.009203866E-1,-5.611912608E-1,1.019088078E1
2.490200000E1,3.771633804E-1,-7.552844286E-1,1.028499222E1
2.492200000E1,3.725473583E-1,-6.058958173E-1,1.003968239E1
2.494200000E1,-1.316332072E-1,-3.711970150E-2,1.002545071E1
2.496200000E1,-4.580203593E-1,6.698784828E-1,9.385155678E0
2.498200000E1,-6.416939497E-1,9.941683412E-1,8.834287643E0
2.500200000E1,-5.798181891E-1,1.238194942E0,8.319774628E0
2.502204375E1,-4.123581648E-1,1.261571884E0,8.287241936E0
2.504400000E1,-3.857442141E-1,1.036756396E0,8.594063759E0
2.506400469E1,-6.653486490E-1,6.456874609E-1,9.400966644E0
2.508600000E1,-7.223976851E-1,5.329301357E-1,1.003956699E1
2.510600000E1,-6.082996130E-1,7.220911980E-2,1.045654202E1
2.512600625E1,-3.498886526E-1,-5.130869746E-1,1.051903057E1
2.514800156E1,-2.414217293E-1,-7.517314553E-1,9.880640984E0
2.517000000E1,-3.714268804E-1,-7.704732418E-1,9.322543144E0
2.519000000E1,-4.010191858E-1,-5.284577608E-1,1.018689728E1
2.521000000E1,-9.723332524E-2,-4.568807185E-1,1.121222878E1
2.523000000E1,1.561977267E-1,-5.892609358E-1,1.031420231E1
2.525000156E1,-1.683889925E-1,2.615521848E-1,9.262161255E0
2.527200781E1,-6.658083200E-1,1.060755849E0,8.743288994E0
2.529400938E1,-8.929318786E-1,1.852058768E-1,1.074560833E1
2.531600000E1,-2.717514634E-1,-7.814195752E-1,1.166542149E1
2.533600156E1,6.480242014E-1,-1.275132656E0,1.098912716E1
2.535800000E1,-4.593036696E-2,-8.839105368E-1,9.735857964E0
2.537800000E1,-1.562178373E0,5.233629346E-1,9.849391937E0
2.539800000E1,-2.365059614E0,1.752680182E0,1.019018173E1
2.541800000E1,-1.571170926E0,1.656931281E0,1.051246071E1
2.543800156E1,-1.418133527E-1,4.062577188E-1,1.012779903E1
2.545800156E1,8.603420258E-1,-4.293857217E-1,9.381028175E0
2.548000000E1,1.145060420E0,-2.752182484E-1,8.849860191E0
2.550000000E1,7.846181989E-1,4.845289588E-1,8.373529434E0
2.552000000E1,4.469304085E-1,7.451139092E-1,8.446130753E0
2.554000000E1,2.668673098E-1,3.588621020E-1,8.727535248E0
2.556000000E1,4.185351729E-1,9.260771796E-3,8.534304619E0
2.558000000E1,5.948250890E-1,3.263967335E-1,7.685626984E0
2.560000000E1,7.075152993E-1,9.208770394E-1,7.713639259E0
2.562000000E1,8.180220723E-1,1.384576440E0,9.022434235E0
2.564000156E1,7.310646772E-1,1.025752544E0,1.056114960E1
2.566200000E1,6.089412570E-1,5.819921494E-1,1.121938324E1
2.568200000E1,2.817592323E-1,4.515177011E-1,1.127319431E1
2.570200000E1,-9.363243729E-2,4.154227376E-1,1.121596432E1
2.572200000E1,-8.625829965E-2,1.298231930E-1,1.125053596E1
2.574200000E1,1.115410700E-1,-2.087648213E-1,1.127795410E1
2.576200000E1,-2.300444841E-1,-4.003105313E-2,1.062154102E1
2.578200000E1,-5.849417448E-1,2.474263757E-1,1.183989239E1
2.580200000E1,1.256477088E-2,-1.329452395E-1,1.360783768E1
2.582200000E1,7.810077667E-1,-1.280782938E0,1.282850552E1
2.584200000E1,8.983907104E-1,-1.806003809E0,1.104942322E1
2.586200156E1,1.993603855E-1,-4.485010207E-1,8.852378845E0
2.588400313E1,-9.864589572E-1,9.363435507E-1,8.509692192E0
2.590600156E1,-1.109128237E0,8.752722740E-1,9.190727234E0
2.592600156E1,-2.554613054E-1,-1.765101254E-1,9.829127312E0
2.594600156E1,6.944525838E-1,-9.350028038E-1,9.602252007E0
2.596800000E1,9.522697926E-1,-9.782995582E-1,9.071629524E0
2.598800000E1,4.298549891E-1,-7.469909266E-3,8.640022278E0
2.600800156E1,-3.912604451E-1,7.885638475E-1,8.471853256E0
2.603000000E1,-1.018416762E0,1.629397988E0,8.486353874E0
2.605001562E1,-9.520974159E-1,1.943057537E0,8.172310829E0
2.607200000E1,-5.939439535E-1,1.644835711E0,8.093666077E0
2.609200000E1,-6.537032723E-1,1.210546613E0,8.479381561E0
2.611200000E1,-8.360360861E-1,9.336045980E-1,9.674548149E0
2.613200000E1,-8.112896085E-1,6.218987107E-1,1.069391251E1
2.615200000E1,-3.328706324E-1,2.830520868E-1,1.136020851E1
2.617200000E1,1.658415645E-1,-4.882160425E-1,1.087545967E1
2.619200000E1,1.948209852E-1,-4.494012594E-1,9.974388123E0
2.621200000E1,9.240660816E-2,2.249591798E-2,1.004607964E1
2.623200000E1,7.122462988E-1,6.253655069E-3,1.039505863E1
2.625200000E1,1.399659872E0,-2.015438974E-1,1.060794163E1
2.627200000E1,9.799658656E-1,-7.050444931E-2,1.024508572E1
2.629200000E1,4.625597596E-2,4.818283021E-1,1.035824490E1
2.631200000E1,-7.306624651E-1,4.657392502E-1,1.153789711E1
2.633200000E1,-1.575384662E-2,-2.406172603E-1,1.257516098E1
2.635200000E1,9.923295975E-1,-1.139390945E0,1.206045628E1
2.637200000E1,1.220190525E0,-1.623594403E0,1.073601246E1
2.639200000E1,4.412609637E-1,-6.350093484E-1,9.197794914E0
2.641200000E1,-9.723235965E-1,5.594866276E-1,8.556216240E0
2.643200000E1,-2.127478123E0,1.424913883E0,9.627899170E0
2.645200000E1,-1.769602418E0,1.189027548E0,1.104255676E1
2.647200000E1,-3.253815770E-1,6.846459210E-2,1.029323864E1
2.649200000E1,8.395795226E-1,-5.448628664E-1,8.914426804E0
2.651200000E1,1.028472424E0,-1.115314960E-1,8.284071922E0
2.653200000E1,3.376016021E-1,4.770494699E-1,8.589044571E0
2.655200000E1,-1.137628853E-1,6.934182644E-1,8.751630783E0
2.657200000E1,-2.523775995E-1,8.739889264E-1,8.355763435E0
2.659200000E1,-9.861238301E-2,9.313923120E-1,7.710516930E0
2.661200000E1,-3.349967301E-2,8.386409879E-1,8.079894066E0
2.663200000E1,1.940069646E-1,6.337451935E-1,9.092334747E0
2.665200000E1,2.346988022E-1,4.759193957E-1,9.593345642E0
2.667200000E1,2.188779116E-1,6.026588678E-1,9.773130417E0
2.669200000E1,2.119155824E-1,9.130432010E-1,9.660642624E0
2.671200000E1,2.282727659E-1,1.002002120E0,1.004224873E1
2.673200000E1,2.788095772E-1,7.862462997E-1,1.027350044E1
2.675200000E1,-8.942822367E-2,9.474430680E-1,1.035915565E1
2.677200000E1,-5.998911709E-2,7.523156404E-1,1.058533096E1
2.679200000E1,7.199556231E-1,1.653914526E-2,1.142749596E1
2.681200000E1,1.079890251E0,-8.082058430E-1,1.115584946E1
2.683200000E1,1.083414555E0,-1.158410534E-1,9.820402145E0
2.685200000E1,1.007460952E0,3.504919708E-1,1.047709370E1
2.687200000E1,6.651858687E-1,-5.823847651E-1,1.262824535E1
2.689200000E1,7.945684791E-1,-9.775621295E-1,1.258409691E1
2.691200000E1,4.947378635E-1,-6.820985079E-1,1.138749409E1
2.693200000E1,-2.258785665E-1,2.156505287E-1,9.124876976E0
2.695200000E1,-8.223603964E-1,1.009845495E0,8.608151436E0
2.697200000E1,-5.484062433E-1,7.263433337E-1,8.851469040E0
2.699200000E1,1.345158219E-1,-5.120622516E-1,9.748547554E0
2.701200000E1,7.800021768E-1,-1.115860820E0,9.513188362E0
2.703200000E1,8.224274516E-1,-1.004166484E0,9.085496902E0
2.705200000E1,4.416631758E-1,-3.843938708E-1,9.133324623E0
2.707200000E1,-2.811750397E-2,2.067057937E-1,9.387214661E0
2.709200000E1,-2.139650136E-1,8.020575643E-1,8.856889725E0
2.711200156E1,-3.530968726E-1,1.360615253E0,8.227750778E0
2.713200156E1,-3.615052998E-1,1.622923970E0,7.943329334E0
2.715400000E1,-4.276810288E-1,1.390849233E0,9.101758957E0
2.717400156E1,-7.438114285E-1,8.869464397E-1,1.063817596E1
2.719600000E1,-6.689974070E-1,4.877563417E-1,1.160882282E1
2.721600000E1,-4.448522627E-1,3.045424633E-2,1.168273735E1
2.723600000E1,-1.265862286E-1,-3.642346859E-1,1.083896255E1
2.725600156E1,-1.949071586E-1,-7.819079757E-1,1.094581127E1
2.727800000E1,-1.221521646E-1,-1.152539968E0,1.128007030E1
2.729800000E1,3.586418331E-1,-9.913910627E-1,1.103263474E1
2.731800000E1,8.611656427E-1,-4.810334146E-1,1.048899841E1
2.733800000E1,4.442297816E-1,-1.996476948E-1,9.856946945E0
2.735800156E1,-1.668758541E-1,4.309658706E-1,8.870143890E0
2.738000000E1,-5.659222603E-1,7.124474049E-1,8.938291550E0
2.740000000E1,-2.153153569E-1,-2.660149634E-1,1.049705219E1
2.742000000E1,8.771972060E-1,-8.963603973E-1,1.106471634E1
2.744000000E1,1.792203665E0,-1.577156425E0,1.056510448E1
2.746000000E1,1.020504475E0,-1.660934329E0,1.050343990E1
2.748000000E1,-5.525913239E-1,-4.571009874E-1,1.104523754E1
2.750000000E1,-1.399123549E0,8.561760783E-1,9.691719055E0
2.752000000E1,-9.201970696E-1,1.204407930E0,8.155111313E0
2.754000000E1,2.169146687E-1,1.481436342E-1,8.163739204E0
2.756000000E1,8.882871270E-1,-6.249248981E-1,8.702751160E0
2.758000000E1,9.654378891E-1,-7.444434762E-1,9.253273010E0
2.760000000E1,5.344337225E-1,-4.760151803E-1,9.761064529E0
2.762000000E1,2.364800870E-1,-1.824573278E-1,9.579163551E0
2.764000000E1,4.273650050E-1,-3.399766609E-2,8.837419510E0
2.766000000E1,4.033750892E-1,-5.909847468E-2,8.434696198E0
2.768000000E1,-9.395805001E-2,-1.780328341E-2,8.700117111E0
2.770000000E1,-8.223986626E-1,3.132477701E-1,9.908279419E0
2.772000000E1,-1.243213177E0,1.727177054E-1,9.999526978E0
2.774000000E1,-9.003156424E-1,1.488523036E-1,8.789191246E0
2.776000156E1,-2.556528747E-1,1.178799510E0,7.883857250E0
2.778200000E1,2.336166203E-1,9.880870581E-1,8.838253021E0
2.780200000E1,-6.155588627E-1,-4.264551774E-2,1.037998390E1
2.782200000E1,-1.211542726E0,8.919838071E-2,1.096714878E1
2.784200000E1,-9.407489300E-1,1.514955163E-1,1.201429558E1
2.786200000E1,-1.084573343E-1,-3.641484976E-1,1.286474514E1
2.788200000E1,3.660160005E-1,-1.021366477E0,1.207247448E1
2.790200000E1,1.048851833E-1,-7.768801451E-1,1.090804958E1
2.792200000E1,-2.539769113E-1,-1.840566546E-1,1.185145092E1
2.794200000E1,-5.540182814E-2,-4.668501914E-1,1.420273972E1
2.796200000E1,3.819134831E-1,-1.669821620E0,1.383629322E1
2.798200000E1,1.039035678E0,-2.248835564E0,1.175589466E1
2.800200000E1,7.110682726E-1,-1.376876712E0,8.456463814E0
2.802200000E1,-6.243120134E-2,1.253603995E-1,6.814702511E0
2.804200312E1,-5.967595577E-1,6.178477407E-1,7.713782787E0
2.806400000E1,-4.320288897E-1,-7.605133653E-1,1.020056343E1
2.808402188E1,3.859548867E-1,-1.468469262E0,1.088289165E1
2.810600000E1,9.813258052E-1,-1.651367068E0,1.045974064E1
2.812600156E1,4.590642452E-1,-5.417121053E-1,9.631202698E0
2.814800000E1,-3.204973936E-1,8.832305670E-1,8.794065475E0
2.816800000E1,-6.981779337E-1,1.685872316E0,8.518760681E0
2.818800000E1,-8.228487968E-1,1.336682916E0,8.808134079E0
2.820800000E1,-7.052169442E-1,5.897780657E-1,9.437493324E0
2.822800000E1,-5.763322115E-1,2.927438319E-1,9.777575493E0
2.824800000E1,-3.651157618E-1,7.692091167E-2,9.821312904E0
2.826800000E1,-1.283387840E-1,-2.217413783E-1,1.002725220E1
2.828800000E1,8.476431668E-2,-3.791649342E-1,9.736615181E0
2.830800000E1,3.021769822E-1,-4.480892122E-1,9.121736526E0
2.832800000E1,7.862558588E-3,-4.735060632E-1,9.056230545E0
2.834800000E1,-5.118228793E-1,-6.096212268E-1,9.478280067E0
2.836800156E1,-7.748881578E-1,-3.314054012E-1,1.013753796E1
2.839000000E1,-5.627331510E-2,-7.427770644E-2,1.049457169E1
2.841000000E1,4.081730843E-1,-3.354755640E-1,9.958135605E0
2.843000000E1,6.752606034E-1,-1.257338971E-1,7.958920479E0
2.845002500E1,7.324628830E-1,4.959828258E-1,8.419976234E0
2.847200000E1,1.067239404E0,-6.177040339E-1,1.079651833E1
2.849200000E1,2.016157150E0,-1.630058765E0,1.089260292E1
2.851200000E1,1.709632397E0,-2.301526785E0,1.023590183E1
2.853200000E1,-2.632568479E-1,-1.344813466E0,1.118660069E1
2.855200000E1,-2.221915007E0,2.032485604E-1,1.171494293E1
2.857200000E1,-2.322797060E0,1.018215656E0,1.171880341E1
2.859200000E1,-1.025446177E0,4.516039193E-1,1.123348904E1
2.861200000E1,8.984959871E-2,-2.252752185E-1,1.054209137E1
2.863200000E1,8.526039720E-1,-3.956944942E-1,9.424736023E0
2.865200000E1,1.034687757E0,-1.112537608E-1,8.159516335E0
2.867200000E1,5.977364182E-1,6.083188057E-1,7.847637653E0
2.869200000E1,-4.753735363E-1,1.249083757E0,7.939862251E0
2.871200000E1,-6.533201933E-1,1.579952836E0,7.978341579E0
2.873200000E1,1.303403527E-1,8.817749023E-1,7.612134457E0
2.875200000E1,8.198416829E-1,-1.185034066E-1,8.396043777E0
2.877200000E1,1.213687897E0,-5.738326907E-1,9.758498192E0
2.879200000E1,1.155891895E0,-4.570913911E-1,1.105389595E1
2.881200000E1,6.995474100E-1,3.102885559E-3,1.143036938E1
2.883200000E1,3.103364110E-1,3.822295368E-1,1.128675461E1
2.885200000E1,1.925991625E-1,4.768483639E-1,1.104206753E1
2.887200000E1,8.810661966E-4,2.103449851E-1,1.066876411E1
2.889201719E1,-4.103661701E-2,3.888183506E-3,1.069270611E1
2.891401094E1,3.149045706E-1,-4.587769210E-1,1.086831570E1
2.893401719E1,2.930981815E-1,-4.514602423E-1,1.043421841E1
2.895600000E1,3.542844057E-1,-1.108228043E-1,1.083653069E1
2.897600156E1,6.843011379E-1,-5.310626626E-1,1.245711708E1
2.899600156E1,1.544374943E0,-1.096917868E0,1.252834129E1
2.901800000E1,1.369090676E0,-1.992061973E0,1.113012695E1
2.903800000E1,1.203076839E0,-1.103439689E0,9.371106148E0
2.905800156E1,3.515358567E-1,2.742605805E-1,7.602911949E0
2.907800156E1,-2.547717988E-1,1.269980311E0,6.619258881E0
2.909800156E1,-1.631504893E-1,1.508845091E0,7.061285973E0
2.911800156E1,1.938441396E-1,2.166561037E-1,8.932095528E0
2.913800156E1,8.294089437E-1,-5.598122478E-1,1.044537544E1
2.916000000E1,9.508619905E-1,-8.429792523E-1,1.137000656E1
2.918000000E1,4.502152801E-1,-7.341580093E-2,1.112719631E1
2.920000156E1,1.628057216E-4,9.490998387E-1,9.312706947E0
2.922000156E1,-1.896207687E-3,1.795421362E0,8.372063637E0
2.924000156E1,2.101917565E-1,2.004588604E0,7.803335667E0
2.926000156E1,1.724208295E-1,1.529722571E0,8.345114708E0
2.928200156E1,4.351700842E-2,1.239076018E0,9.637791634E0
2.930400156E1,-1.000297442E-1,7.371746898E-1,1.039805698E1
2.932400156E1,1.345828772E-1,2.666087449E-1,1.046496964E1
2.934600156E1,3.104130328E-1,-2.118868530E-1,1.084472847E1
2.936600156E1,1.094628964E-2,-7.788721323E-1,1.116786957E1
2.938600156E1,-4.297304749E-1,-9.985832572E-1,1.105886555E1
2.940600156E1,-5.863974690E-1,-6.941269636E-1,1.134507847E1
2.942600156E1,1.573660821E-1,-8.017032743E-1,1.258735275E1
2.944600156E1,6.421152949E-1,-1.535372853E0,1.252500820E1
2.946600156E1,6.349614263E-1,-8.055339456E-1,1.070506954E1
2.948600156E1,1.552975029E-1,2.909912765E-1,9.259162903E0
2.950600156E1,3.105375469E-1,2.911444902E-1,1.013360214E1
2.952600156E1,9.808661342E-1,-6.878924370E-1,1.198083401E1
2.954600156E1,1.730691791E0,-1.736016512E0,1.125279617E1
2.956600156E1,1.182103515E0,-1.428677559E0,1.010021782E1
2.958600156E1,1.679484546E-1,-4.976970851E-1,8.111028671E0
2.960600156E1,-1.441299796E0,1.045911789E0,5.224492550E0
2.962600156E1,-2.673796654E0,2.468201637E0,7.663159847E0
2.964600156E1,-2.221694469E0,1.260834455E0,1.041675949E1
2.966800000E1,-2.257732302E-1,-4.070909023E-1,1.117054081E1
2.968800000E1,1.023262620E0,-1.552036524E0,9.050091743E0
2.970800000E1,1.386903524E0,-7.208845615E-1,7.675916195E0
2.972800156E1,5.201642513E-1,5.944898725E-1,7.661962509E0
2.974800156E1,-1.299476922E-1,9.430090189E-1,8.253330231E0
2.976800156E1,7.890331000E-2,4.251527786E-1,8.071553230E0
2.978800156E1,5.960509181E-1,2.286271006E-1,8.085544586E0
2.980800156E1,9.346579909E-1,2.811079919E-1,8.812261581E0
2.983000000E1,8.739697933E-1,1.769698113E-1,9.630724907E0
2.985002500E1,4.195598960E-1,5.294442177E-1,1.009010410E1
2.987200156E1,7.094306350E-1,8.199757934E-1,1.056325626E1
2.989200156E1,1.189295769E0,1.804270297E-1,1.133074093E1
2.991400625E1,1.517138600E0,-3.349200785E-1,1.145618820E1
2.993600000E1,9.903567433E-1,-2.258498371E-1,1.067600346E1
2.995600000E1,3.837713897E-1,-1.027974486E-1,1.014285374E1
2.997600000E1,5.843288302E-1,-4.305157661E-1,1.106385517E1
2.999600000E1,1.037168264E0,-8.630522490E-1,1.152524567E1
3.001600000E1,9.656198621E-1,-9.017233849E-1,1.112024307E1
3.003600000E1,9.810385108E-1,-8.021916747E-1,1.162624359E1
3.005600156E1,1.320593715E0,-1.291173816E0,1.156655121E1
3.007600156E1,1.583228111E0,-2.014423847E0,1.160209084E1
3.009600156E1,1.000115514E0,-2.161159754E0,1.206185436E1
3.011600156E1,4.771069288E-1,-1.071184993E0,1.103161907E1
3.013800000E1,2.080082521E-2,3.178063333E-1,8.032728195E0
3.015800000E1,-3.064961135E-1,8.426727653E-1,8.873054504E0
3.017800000E1,-3.829764947E-2,-5.873072743E-1,1.041530418E1
3.019800000E1,3.040731847E-1,-1.232036948E0,1.105274582E1
3.021800000E1,2.830808461E-1,-1.051456809E0,1.025927830E1
3.023800000E1,-2.401575744E-1,1.683698446E-1,8.861083984E0
3.025800000E1,-2.475029975E-1,1.635469556E0,7.569633007E0
3.027800000E1,-2.663118243E-1,2.245646238E0,7.299882889E0
3.029800000E1,-4.126358628E-1,1.725807667E0,7.798221111E0
3.031800000E1,-2.966128588E-1,1.562053800E0,8.589284897E0
3.033800000E1,-1.504516322E-2,1.365288734E0,8.846671104E0
3.035800156E1,-5.821740627E-2,8.153597116E-1,9.541066170E0
3.038000000E1,-3.517465591E-1,4.455226362E-1,1.070460033E1
3.040000000E1,-3.758417964E-1,2.154781483E-2,1.097143841E1
3.042000000E1,2.456163615E-1,-3.960967436E-2,9.836261749E0
3.044000000E1,6.085390449E-1,1.122689024E-1,9.374784470E0
3.046000000E1,4.660074115E-1,-3.957136720E-2,9.920958519E0
3.048000000E1,4.356585145E-1,-8.457278460E-2,1.020097542E1
3.050000000E1,6.173976064E-1,1.590994895E-1,1.054966736E1
3.052000000E1,2.191843688E-1,5.494692922E-1,1.077389812E1
3.054000000E1,-4.531266093E-1,8.835561872E-1,1.070854568E1
3.056000000E1,-9.661848545E-1,7.894544601E-1,1.091088486E1
3.058000000E1,-4.863102436E-1,1.222958229E-2,1.222699642E1
3.060000000E1,3.862421811E-1,-9.727258086E-1,1.206547356E1
3.062000000E1,8.907483816E-1,-1.881449819E0,1.051348495E1
3.064000000E1,8.709435463E-1,-1.530517340E0,8.881597519E0
3.066000000E1,2.551740110E-1,-7.880179286E-1,7.686661243E0
3.068000000E1,-6.641898751E-1,1.036976650E-1,7.713198662E0
3.070000000E1,-1.232851028E0,8.239023089E-1,8.242230415E0
3.072000156E1,-3.842214942E-1,4.600027502E-1,8.507326126E0
3.074200000E1,7.571231723E-1,-3.786382079E-1,9.144960403E0
3.076200000E1,1.459160686E0,-4.731038213E-1,9.409624100E0
3.078200000E1,1.166033745E0,-4.467005730E-1,1.008611965E1
3.080200000E1,4.339059889E-1,8.427590365E-4,1.010341644E1
3.082200000E1,5.238513276E-2,6.544981003E-1,8.625944138E0
3.084200156E1,1.244984865E-1,1.039993286E0,7.963526726E0
3.086400000E1,4.528392851E-1,6.553887725E-1,7.859378815E0
3.088401875E1,3.712353408E-1,3.172317147E-1,8.252861023E0
3.090600156E1,-1.093000919E-1,8.468482494E-1,9.133237839E0
3.092800000E1,-3.478870988E-1,1.081403494E0,9.770717621E0
3.094800000E1,-2.567158937E-1,9.634842277E-1,9.808872223E0
3.096800156E1,-3.753246367E-1,9.715095758E-1,1.086827755E1
3.099000156E1,-7.196969986E-1,1.111244798E0,1.202647781E1
3.101004219E1,-1.268658638E0,1.361132503E0,1.175633526E1
3.103200156E1,-1.452447295E0,1.498185992E0,1.100398064E1
3.105400000E1,-5.277778506E-1,6.829987168E-1,1.147136688E1
3.107400156E1,6.335440874E-1,-8.313626051E-2,1.162474918E1
3.109400781E1,1.270277262E0,-2.298242003E-1,9.993532181E0
3.111600156E1,1.403413892E0,2.335017025E-1,8.794266701E0
3.113800000E1,9.164237380E-1,-2.512475252E-1,1.104314041E1
3.115800000E1,8.907292485E-1,-1.169692039E0,1.327824211E1
3.117800000E1,9.642983079E-1,-1.873644829E0,1.339149761E1
3.119800000E1,1.130896330E0,-1.660512924E0,1.134686947E1
3.121800000E1,5.887821317E-1,-3.632195294E-1,9.342576981E0
3.123800000E1,-1.448013168E-2,4.039593041E-1,9.288831711E0
3.125800156E1,3.193864971E-2,-1.928194314E-1,1.010836697E1
3.128000000E1,7.214016914E-1,-9.074024558E-1,1.062080383E1
3.130000000E1,1.171444535E0,-9.515898228E-1,1.019466400E1
3.132000000E1,1.060095072E0,-3.947559893E-1,9.009131432E0
3.134000000E1,7.198981047E-1,4.889343083E-1,8.145658493E0
3.136000156E1,4.798938036E-1,9.561101198E-1,7.963919640E0
3.138200000E1,4.185543656E-1,1.029257655E0,8.197525978E0
3.140200000E1,4.036049545E-1,1.155930161E0,8.407460213E0
3.142200000E1,7.279905677E-1,9.964667559E-1,8.268202782E0
3.144200000E1,9.125930667E-1,6.176561117E-1,8.907608032E0
3.146200000E1,8.491563201E-1,3.951964974E-1,1.003733635E1
3.148200000E1,7.690559030E-1,1.865945011E-1,1.097579575E1
3.150200156E1,5.266382098E-1,1.365557015E-1,1.067271900E1
3.152401406E1,7.611262798E-1,5.340315104E-1,8.941348076E0
3.154600156E1,5.547940135E-1,5.660275817E-1,8.508322716E0
3.156800000E1,1.602008194E-1,1.791341752E-1,9.667326927E0
3.158800000E1,3.786094785E-1,2.151046544E-1,1.039736748E1
3.160800000E1,4.910603464E-1,7.188638449E-1,1.016478443E1
3.162800000E1,1.953189671E-1,9.730418921E-1,9.849593163E0
3.164800781E1,-3.420835361E-2,8.821388483E-1,9.698623657E0
3.167000000E1,4.610753655E-1,-4.389337897E-1,1.164823151E1
3.169000000E1,1.405760407E0,-1.542689443E0,1.245065308E1
3.171000000E1,1.930176616E0,-2.535890579E0,1.187128544E1
3.173000000E1,9.305208921E-1,-2.140128851E0,1.051666546E1
3.175000000E1,-1.000527382E0,-6.954389811E-1,8.717785835E0
3.177000000E1,-2.419953585E0,1.365844250E0,8.075690269E0
3.179000000E1,-2.133932829E0,2.255194426E0,8.748020172E0
3.181000000E1,-5.805076957E-1,3.551079929E-1,9.677152634E0
3.183000000E1,1.171157241E0,-7.986865044E-1,9.607184410E0
3.185000000E1,1.993000507E0,-1.000690103E0,9.211565971E0
3.187000000E1,1.320038319E0,-3.142533302E-1,8.674862862E0
3.189000000E1,2.734178603E-1,8.877221346E-1,8.640817642E0
3.191000000E1,-4.782370031E-1,1.367520094E0,8.432560921E0
3.193000000E1,-2.544174492E-1,1.457724094E0,7.596352100E0
3.195000000E1,1.802355051E-1,1.211734295E0,7.368567467E0
3.197000000E1,2.454439849E-1,8.838913441E-1,8.302765846E0
3.199000000E1,1.807335019E-1,7.621701956E-1,9.549493790E0
3.201000000E1,3.471496701E-1,7.284311056E-1,1.000605869E1
3.203000000E1,4.857356250E-1,7.040964365E-1,1.099736309E1
3.205003281E1,4.264839590E-1,4.882543385E-1,1.188422394E1
3.207200000E1,-3.982898295E-1,5.085571408E-1,1.293345833E1
3.209200000E1,-1.173206687E0,1.180676579E0,1.216133785E1
3.211200156E1,-1.343453646E0,1.466956019E0,1.102199554E1
3.213200156E1,-9.294769764E-1,6.154918075E-1,1.165011787E1
3.215400156E1,1.187619790E-1,-3.507026657E-2,1.197942638E1
3.217400312E1,1.689731777E-1,-2.771719396E-1,1.090928555E1
3.219600000E1,3.909252584E-1,6.535691619E-1,9.080834389E0
3.221600000E1,2.196249068E-1,2.559688985E-1,1.031502533E1
3.223600000E1,-9.157342464E-2,-3.730070591E-1,1.291358662E1
3.225600000E1,-4.075888917E-2,-1.412789702E0,1.316085911E1
3.227600000E1,1.687433384E-2,-1.613347173E0,1.194434643E1
3.229600000E1,-2.165028751E-1,-4.673002958E-1,8.858278275E0
3.231600000E1,-2.822668254E-1,7.598908544E-1,8.269208908E0
3.233600000E1,-2.244899273E-1,3.150865138E-1,8.823734283E0
3.235600000E1,5.358223319E-1,-6.332855225E-1,9.485606194E0
3.237600000E1,1.444096327E0,-7.218422294E-1,8.718083382E0
3.239600000E1,1.295196056E0,-4.178169370E-1,8.087833405E0
3.241600000E1,2.210231125E-1,3.912796080E-1,8.539963722E0
3.243600000E1,-2.499546669E-2,1.017650604E0,8.832046509E0
3.245600000E1,1.251114011E-1,8.580148220E-1,8.431756020E0
3.247600000E1,1.637921333E-1,7.403445840E-1,8.334225655E0
3.249600000E1,-1.297370046E-1,1.149982929E0,8.405774117E0
3.251600000E1,-2.932130992E-1,1.520404339E0,8.434600830E0
3.253600000E1,-5.257667042E-3,1.773730040E0,8.235354424E0
3.255600000E1,5.396626592E-1,1.716154218E0,8.638902664E0
3.257600000E1,9.897630215E-1,1.324271202E0,9.658975601E0
3.259600000E1,9.124111533E-1,9.231275916E-1,1.099291039E1
3.261600156E1,7.058489323E-1,4.435785413E-1,1.126206684E1
3.263600156E1,5.661616921E-1,3.604518473E-1,1.115770817E1
3.265800312E1,5.249526501E-1,5.057894588E-1,1.149495506E1
3.268000000E1,2.133233696E-1,6.544311047E-1,1.219654179E1
3.270000000E1,-5.665351748E-1,7.218422294E-1,1.173018074E1
3.272000000E1,-1.119040251E0,8.974905014E-1,1.025912571E1
3.274000000E1,-1.128540516E0,5.298272967E-1,1.115509415E1
3.276000000E1,-2.899473906E-1,-1.032848954E0,1.258484364E1
3.278000000E1,7.043071389E-1,-2.272183657E0,1.149256039E1
3.280000000E1,9.436601996E-1,-2.329606295E0,9.231725693E0
3.282000156E1,8.570284396E-2,-1.155901313E0,8.012052536E0
3.284200000E1,-1.332076430E0,3.853802681E-1,8.054084778E0
3.286200000E1,-1.773318172E0,1.221081138E0,8.563255310E0
3.288200000E1,-1.070122004E0,1.026173949E0,8.683865547E0
3.290200000E1,3.436158225E-2,6.129252315E-1,8.957292557E0
3.292200156E1,2.593207657E-1,6.085869074E-1,9.430205345E0
3.294400000E1,-2.060545832E-1,1.099570632E0,9.214247704E0
3.296403125E1,-5.421717763E-1,1.582232237E0,8.439618111E0
3.298600000E1,-5.097351074E-1,1.644816518E0,7.903489590E0
3.300604375E1,-2.755247056E-1,1.556891799E0,7.782860279E0
3.302800000E1,-4.002530575E-1,1.366476178E0,8.279426575E0
3.304800781E1,-2.249879092E-1,1.275027394E0,8.776195526E0
3.307000000E1,-7.757213898E-4,1.091018558E0,9.700262070E0
3.309001875E1,2.786276340E-1,9.017713070E-1,1.059714890E1
3.311200000E1,3.222116828E-1,7.868687510E-1,1.129047108E1
3.313200000E1,-5.640739202E-2,6.680014133E-1,1.138534832E1
3.315200000E1,-8.060798049E-1,1.107663035E0,1.099455738E1
3.317200000E1,-1.578880191E0,1.499833226E0,1.171784592E1
3.319200000E1,-1.344650745E0,1.105249763E0,1.265035820E1
3.321200000E1,-8.780782223E-1,6.556090713E-1,1.205474758E1
3.323200000E1,-4.085370004E-1,1.256764412E0,9.606015205E0
3.325200000E1,-2.797289491E-1,1.632960439E0,9.162629128E0
3.327200000E1,-4.889151454E-1,8.309986591E-1,1.149297237E1
3.329200000E1,-2.193854898E-1,-4.649348259E-1,1.365579891E1
3.331200000E1,-3.482126817E-2,-1.915964723E0,1.378282547E1
3.333200000E1,4.104332030E-1,-1.604469538E0,1.085418034E1
3.335200000E1,7.967041731E-1,-4.730942473E-2,8.573693275E0
3.337200000E1,1.314905167E0,3.596569896E-1,7.487166405E0
3.339200000E1,1.684751868E0,-2.699701786E-1,8.156001091E0
3.341200000E1,1.829294562E0,-5.867326856E-1,8.955348969E0
3.343200156E1,1.378638744E0,-5.025908351E-2,9.315876961E0
3.345400312E1,8.543852568E-1,7.014627457E-1,9.346714973E0
3.347600000E1,6.742646694E-1,1.126960278E0,9.366452217E0
3.349600000E1,8.017989993E-1,1.040960550E0,8.754656792E0
3.351600000E1,9.152650237E-1,1.015112758E0,7.834172726E0
3.353600000E1,8.007838726E-1,9.320052266E-1,7.791632175E0
3.355600156E1,5.811206698E-1,8.533126116E-1,9.021879196E0
3.357800156E1,3.348817825E-1,5.290419459E-1,9.591200829E0
3.360000000E1,3.792319596E-1,5.531084538E-1,9.321297646E0
3.362000000E1,3.110929728E-1,7.702913284E-1,9.297385216E0
3.364000000E1,2.246048450E-1,2.969767749E-1,1.013257694E1
3.366000000E1,2.265010476E-1,-1.374271791E-2,1.075661278E1
3.368000000E1,1.113112271E-1,-2.482021004E-1,1.082010651E1
3.370000000E1,2.023770809E-1,-2.615234256E-1,1.069009209E1
3.372000000E1,5.050807595E-1,2.270565182E-1,1.050991344E1
3.374000000E1,2.933663428E-1,7.823963761E-1,1.021147156E1
3.376000000E1,-1.767112464E-1,1.400426030E0,9.790245056E0
3.378000000E1,-3.748936653E-1,1.402513742E0,1.041911507E1
3.380000000E1,-9.702263027E-2,7.801171541E-1,1.220555401E1
3.382000000E1,1.120802522E0,-4.649348259E-1,1.256079578E1
3.384000000E1,1.666278243E0,-1.218160272E0,1.102784634E1
3.386000000E1,9.000570178E-1,-1.199293971E0,9.442741394E0
3.388000000E1,-5.798852444E-1,-1.581992656E-1,9.306645393E0
3.390000000E1,-1.683296084E0,1.238654613E0,1.030763149E1
3.392000000E1,-1.319913864E0,1.686188340E0,1.101028252E1
3.394000000E1,2.636399269E-1,7.639897466E-1,9.989748955E0
3.396000000E1,1.491443992E0,4.937322736E-1,8.857837677E0
3.398000156E1,1.220870495E0,6.561836600E-1,8.837525368E0
3.400200000E1,6.234596968E-1,7.944631577E-1,9.671521187E0
3.402200000E1,-1.622981429E-1,1.072774768E0,1.034887028E1
3.404200000E1,-2.759078145E-1,1.070811510E0,9.523186684E0
3.406200156E1,3.963457346E-1,9.979798794E-1,7.157341480E0
3.408400000E1,5.327768922E-1,8.801659942E-1,6.623578072E0
3.410400000E1,2.218563110E-1,8.804245591E-1,7.665199757E0
3.412400000E1,2.190886140E-1,8.633012772E-1,8.527341843E0
3.414400156E1,-1.405875199E-2,8.619987965E-1,9.551514626E0
3.416400156E1,-2.173073292E-1,9.581690431E-1,1.009310150E1
3.418400156E1,-1.580173150E-2,8.863335252E-1,1.000811672E1
3.420400625E1,6.276638806E-2,6.941460967E-1,9.774787903E0
3.422600000E1,-4.663905129E-2,4.448713958E-1,1.000927639E1
3.424600000E1,5.880159326E-3,9.600748122E-2,1.201826096E1
3.426600156E1,1.901283413E-1,-1.784829497E-1,1.291905499E1
3.428800000E1,5.672630072E-1,2.942665517E-1,1.033634377E1
3.430800000E1,1.085626855E-1,1.147655725E0,9.374545097E0
3.432800000E1,-4.753831029E-1,1.485065818E0,1.085173798E1
3.434800000E1,1.072123498E-1,1.407790482E-1,1.217070389E1
3.436800156E1,9.989471436E-1,-1.288262486E0,1.174801254E1
3.439000000E1,1.096601844E0,-9.082068801E-1,1.015257454E1
3.441000000E1,3.061034977E-1,-4.247313738E-2,8.381927490E0
3.443000000E1,6.949313879E-1,2.064280659E-1,8.792092323E0
3.445000625E1,1.298557520E0,-6.561549306E-1,9.833197594E0
3.447200000E1,1.486004353E0,-1.151543975E0,1.011865330E1
3.449200000E1,3.424761891E-1,-6.847704649E-1,9.567392349E0
3.451200000E1,-4.592845142E-1,7.848289013E-1,9.086895943E0
3.453200000E1,-6.672065258E-1,1.300319672E0,1.020241165E1
3.455200000E1,-2.767792940E-1,6.168038249E-1,1.076339245E1
3.457200000E1,5.554547906E-2,6.909282804E-1,1.009852219E1
3.459200000E1,1.692030132E-1,1.207386374E0,9.016046524E0
3.461200000E1,-2.092532441E-2,1.357569814E0,8.959093094E0
3.463200000E1,-6.853163242E-2,1.452782512E0,9.373194695E0
3.465200000E1,1.490246952E-1,9.527869225E-1,1.012508869E1
3.467200000E1,4.378803372E-1,1.728230566E-1,1.065945530E1
3.469200000E1,2.184373885E-1,-6.329311430E-2,1.116073418E1
3.471200156E1,-5.144852400E-1,-1.082083434E-1,1.160705185E1
3.473400625E1,-9.009955525E-1,-1.114740316E-2,1.125660706E1
3.475600000E1,-2.444958836E-1,3.750756383E-1,1.036628056E1
3.477600000E1,3.634685278E-1,5.131348968E-1,9.550633430E0
3.479600000E1,1.735125929E-1,5.826146007E-1,9.201731682E0
3.481600000E1,-4.724813402E-1,7.515686750E-1,9.295680046E0
3.483600000E1,-6.754426360E-1,3.307924867E-1,1.094771671E1
3.485600000E1,1.514476240E-1,-6.766588688E-1,1.093018150E1
3.487600000E1,8.450095057E-1,-1.350980997E0,9.758986473E0
3.489600000E1,7.410341501E-1,-1.441951036E0,8.937870979E0
3.491600000E1,-3.725473583E-1,-7.551312447E-1,9.825258255E0
3.493600000E1,-1.588830590E0,2.979153097E-1,1.119750881E1
3.495600000E1,-1.636044145E0,7.980927825E-1,1.114371586E1
3.497600000E1,-7.125623226E-1,8.496543169E-1,9.806812286E0
3.499600000E1,2.709087133E-1,9.318233132E-1,8.331639290E0
3.501600000E1,7.431601882E-1,1.060698390E0,7.512325287E0
3.503600000E1,6.959657073E-1,1.169040799E0,7.088991642E0
3.505600000E1,2.143864036E-1,1.437373400E0,7.760163307E0
3.507600000E1,-4.750574827E-1,1.892214179E0,8.518177032E0
3.509600000E1,-3.319225609E-1,1.564553380E0,8.664098740E0
3.511600000E1,2.023866624E-1,9.183008671E-1,8.542204857E0
3.513600156E1,8.663754463E-1,5.442786813E-1,8.705738068E0
3.515800000E1,1.501595497E0,2.070984542E-1,9.413062096E0
3.517800156E1,1.646636128E0,3.079134822E-1,1.051298714E1
3.519800156E1,1.562465549E0,2.335783243E-1,1.206606865E1
3.522000000E1,1.176491618E0,1.977610588E-2,1.185959148E1
3.524000000E1,9.112810493E-1,6.993654966E-1,1.068154907E1
3.526000000E1,1.301009208E-1,1.131241083E0,1.064331818E1
3.528000000E1,2.849961817E-1,1.082629323E0,1.103198338E1
3.530000000E1,6.800777316E-1,3.546100259E-1,1.069079113E1
3.532000000E1,3.962978423E-1,7.268317342E-1,1.009822559E1
3.534000000E1,-1.995327771E-1,1.049081683E0,1.195842457E1
3.536000000E1,-6.155013666E-2,3.186490834E-1,1.284646320E1
3.538000000E1,5.993739963E-1,-4.806982279E-1,1.154711056E1
3.540000156E1,9.843041897E-1,-4.854387641E-1,9.485348701E0
3.542200156E1,6.622074842E-1,1.056130230E-1,8.824433327E0
3.544401094E1,5.243876576E-1,-4.228160158E-2,9.500124931E0
3.546600000E1,6.064417362E-1,-3.969394863E-1,9.914302826E0
3.548600000E1,6.861015558E-1,-7.250504494E-1,9.852781296E0
3.550600000E1,7.807204723E-1,-8.868793249E-1,1.012680244E1
3.552600000E1,6.083283424E-1,-7.304900885E-1,1.067617702E1
3.554600156E1,2.680069208E-1,-3.868934214E-1,1.041775608E1
3.556800000E1,9.495404363E-2,7.941566706E-1,8.459069252E0
3.558800000E1,-2.346317619E-1,1.699605465E0,7.886184692E0
3.560800156E1,-4.668022990E-1,1.907096505E0,8.036952019E0
3.563000000E1,-5.865123868E-1,1.204111099E0,9.057696342E0
3.565001875E1,-5.126656294E-1,8.022778034E-1,9.477514267E0
3.567200000E1,-6.716214865E-2,5.957061052E-1,9.408762932E0
3.569200000E1,1.909136474E-1,4.281885922E-1,9.619385719E0
3.571200000E1,1.890461706E-2,-3.809653968E-2,1.004207706E1
3.573200000E1,9.911995381E-3,-6.055032015E-1,1.042197990E1
3.575200000E1,-8.528146148E-2,-1.071999073E0,1.061967278E1
3.577200000E1,-4.990473762E-2,-7.828752398E-1,1.068360806E1
3.579200000E1,2.108908743E-1,7.121313363E-2,1.120232582E1
3.581200000E1,3.788489103E-1,6.832860112E-1,1.064599037E1
3.583200156E1,4.593419433E-1,1.396011114E0,9.270358086E0
3.585400000E1,-6.141605973E-2,1.765053391E0,9.556025505E0
3.587400156E1,-3.434913456E-1,9.636278749E-1,1.166101646E1
3.589400313E1,3.493427634E-1,3.122709394E-1,1.111606693E1
3.591600156E1,4.741955996E-1,-9.893798828E-2,9.225692749E0
3.593800000E1,-1.122143149E0,5.281417370E-1,9.153808594E0
3.595800000E1,-2.354974985E0,1.458183765E0,9.996567726E0
3.597800000E1,-2.539740562E0,1.754336953E0,1.064893055E1
3.599800000E1,-1.366476178E0,1.098143697E0,1.023847771E1
3.601800000E1,2.478094548E-1,2.502994239E-1,9.520562172E0
3.603800000E1,1.180954337E0,-4.348157644E-1,8.953203201E0
3.605800000E1,1.297647715E0,-3.233417273E-1,8.877547264E0
3.607800156E1,7.312945724E-1,2.862794697E-1,8.777507782E0
3.610000000E1,1.726315171E-1,7.583969235E-1,8.467755318E0
3.612000000E1,-5.234682560E-2,1.124010563E0,8.020125389E0
3.614000000E1,-2.091574669E-2,1.218074083E0,7.469459057E0
3.616000000E1,8.101020753E-2,1.305069804E0,7.675312519E0
3.618000000E1,-2.550303638E-1,1.242274642E0,8.906765938E0
3.620000000E1,-4.274607897E-1,1.471945643E0,9.945475578E0
3.622000000E1,-6.441360712E-1,1.475824237E0,1.111508083E1
3.624000000E1,-5.857175589E-1,1.082169533E0,1.161276817E1
3.626000156E1,-3.303615451E-1,7.476038337E-1,1.124351597E1
3.628200000E1,-7.611933351E-1,2.927438319E-1,1.039072037E1
3.630200000E1,-1.045346856E0,4.201919734E-1,1.094178867E1
3.632200000E1,-1.034017444E0,4.724047184E-1,1.090680504E1
3.634200000E1,-9.501437545E-1,1.063571453E0,9.865116119E0
3.636200156E1,-7.968573570E-1,1.204360127E0,1.116654682E1
3.638400156E1,-4.006265700E-1,-3.152684867E-2,1.340964508E1
3.640400781E1,3.088999093E-1,-1.173302531E0,1.304774761E1
3.642600000E1,2.756875157E-1,-1.092445612E0,1.174744701E1
3.644600000E1,1.160230190E-1,2.880703472E-2,9.368607521E0
3.646600156E1,1.267011613E-1,1.062498808E0,8.171410561E0
3.648800000E1,6.798096299E-1,1.055517316E0,7.998960972E0
3.650800000E1,1.287074924E0,3.122038953E-2,8.565601349E0
3.652800000E1,1.216359854E0,-6.006382108E-1,8.926426888E0
3.654800000E1,6.440019608E-1,-5.227212310E-1,9.320752144E0
3.656800156E1,-2.458940893E-1,3.487298191E-1,9.959734917E0
3.659001875E1,-9.170175791E-1,1.112853646E0,1.020682621E1
3.661200000E1,-1.138787746E0,1.606480598E0,9.211834908E0
3.663200000E1,-7.132805586E-1,1.959050775E0,8.172578812E0
3.665200000E1,-3.521775007E-1,1.996275783E0,7.571413994E0
3.667200000E1,-4.650401473E-1,1.886717200E0,8.255782127E0
3.669200000E1,-4.659403563E-1,1.249668002E0,1.002334499E1
3.671200000E1,-2.246144265E-1,6.573233008E-1,1.109355259E1
3.673200000E1,-1.273906827E-1,4.021109641E-1,1.071381378E1
3.675200000E1,-2.253997177E-1,3.393253982E-1,9.756180763E0
3.677200000E1,-5.826050639E-1,3.565253615E-1,9.940744400E0
3.679200000E1,-8.895320892E-1,1.632845588E-2,1.041858864E1
3.681200156E1,-7.008977532E-1,6.556282192E-2,1.028422642E1
3.683400000E1,-8.382770419E-1,3.061992526E-1,1.024885941E1
3.685400000E1,-1.163131952E0,9.374927878E-1,9.370225906E0
3.687400000E1,-1.143729210E0,1.638878942E0,8.813247681E0
3.689400000E1,-9.761543870E-1,1.032456398E0,1.130037308E1
3.691400312E1,-1.503941864E-1,-1.412674785E-1,1.303592110E1
3.693600000E1,6.138254404E-1,-1.542555451E0,1.252680779E1
3.695600000E1,6.328737140E-1,-1.708914161E0,1.023948383E1
3.697600156E1,-6.390124559E-1,-5.040369034E-1,8.858201027E0
3.699600156E1,-2.206764460E0,6.180871129E-1,9.490902901E0
3.701600156E1,-2.416429520E0,1.158171177E0,1.031876087E1
3.703600156E1,-1.463508368E0,7.795999646E-1,1.096941757E1
3.705600313E1,-9.753978252E-2,4.232948646E-3,1.054076958E1
3.707800000E1,8.472888470E-1,-5.859760642E-1,9.006162643E0
3.709800000E1,7.636449933E-1,3.520434350E-2,7.794371605E0
3.711800156E1,7.805097103E-2,9.355103970E-1,6.749168396E0
3.714000000E1,-6.336206794E-1,1.580441236E0,6.835206509E0
3.716000000E1,-8.353465796E-1,1.546242595E0,7.079271317E0
3.718000000E1,-5.387815833E-1,1.103219390E0,7.199776173E0
3.720000156E1,-3.864528835E-1,9.108501077E-1,7.957119465E0
3.722200156E1,-3.833500147E-1,9.523177147E-1,9.009093285E0
3.724400000E1,-4.855057895E-1,8.253387809E-1,1.000227547E1
3.726400000E1,-7.255293131E-1,7.691899538E-1,1.130327511E1
3.728402656E1,-8.547587395E-1,6.471048594E-1,1.244760704E1
3.730600000E1,-9.734249115E-1,5.201738477E-1,1.273104286E1
3.732600000E1,-7.059830427E-1,1.874947250E-1,1.145698357E1
3.734600156E1,-5.204706788E-1,3.241557479E-1,1.046428871E1
3.736800156E1,-9.724193811E-1,3.612084389E-1,1.069180584E1
3.739000156E1,-1.048411369E0,7.531487942E-1,1.051031590E1
3.741200000E1,-6.508781314E-1,5.285439491E-1,1.194576359E1
3.743200000E1,-1.245942563E-1,-7.930362225E-1,1.330490398E1
3.745200000E1,2.097129226E-1,-1.607323408E0,1.341409969E1
3.747200000E1,1.421102285E-1,-1.936583638E0,1.233798218E1
3.749200000E1,-2.283302248E-1,-9.014456868E-1,1.005742836E1
3.751200000E1,-6.066140532E-1,3.346327841E-1,8.811342239E0
3.753200000E1,-5.329014063E-1,9.130910635E-1,8.691325188E0
3.755200000E1,-1.862688959E-1,3.564104438E-1,9.516252518E0
3.757200000E1,3.303902447E-1,-1.285782009E-1,9.483921051E0
3.759200000E1,3.172413111E-1,-5.113918781E-1,9.141329765E0
3.761200000E1,-1.959893554E-1,-3.006063700E-1,9.353168488E0
3.763200000E1,-7.154161930E-1,4.062768817E-1,9.234809875E0
3.765200000E1,-8.959773183E-1,7.293217182E-1,8.837238312E0
3.767200000E1,-6.231436729E-1,6.098989248E-1,8.072089195E0
3.769200000E1,-1.167987362E-1,5.592280030E-1,7.409317017E0
3.771200000E1,-7.939172909E-3,7.588565946E-1,7.291426182E0
3.773200000E1,-3.960680068E-1,8.076983094E-1,7.921647549E0
3.775200000E1,-9.928658605E-1,7.807683349E-1,8.752636909E0
3.777200000E1,-1.390753388E0,7.501991391E-1,1.026653767E1
3.779200000E1,-1.197273135E0,2.504622340E-1,1.166162968E1
3.781200000E1,-7.482167482E-1,-7.998070121E-1,1.268368530E1
3.783200000E1,-3.781210780E-1,-1.814804912E0,1.271345043E1
3.785200000E1,-4.127507806E-1,-1.609315276E0,1.185068512E1
3.787200000E1,-4.388667643E-1,-7.435241342E-1,1.081051922E1
3.789200000E1,-3.042072654E-1,-1.630451381E-1,9.770048141E0
3.791200000E1,-3.779007792E-1,3.986920416E-1,8.524008751E0
3.793200000E1,-7.259315252E-1,1.059290648E0,8.115625381E0
3.795200000E1,-8.950292468E-1,9.174484611E-1,9.737410545E0
3.797200000E1,-3.992570937E-1,-1.680633873E-1,1.166334343E1
3.799200156E1,3.884448409E-1,-9.357689023E-1,1.172549725E1
3.801400156E1,4.829200804E-1,-1.705016375E0,1.011528206E1
3.803600000E1,-9.962177873E-1,-9.845532179E-1,9.201482773E0
3.805600000E1,-2.750248194E0,7.320320010E-1,9.514203072E0
3.807600000E1,-3.482500553E0,1.738018036E0,1.042791653E1
3.809600000E1,-2.575749159E0,1.255404472E0,1.080974388E1
3.811600000E1,-7.531487942E-1,1.348318607E-1,9.824367523E0
3.813600156E1,6.143042445E-1,-6.373268962E-1,8.905702591E0
3.815800000E1,1.010132909E0,-5.313116312E-1,8.238859177E0
3.817800000E1,8.700146079E-1,8.953356743E-2,8.177826881E0
3.819800000E1,2.590047419E-1,2.435860783E-1,8.206298828E0
3.821800000E1,-1.807526499E-1,5.123496056E-1,7.948002338E0
3.823800000E1,-7.512621880E-1,1.011483192E0,8.222128868E0
3.825800156E1,-1.542871475E0,1.586455584E0,8.811619759E0
3.828000000E1,-1.724620104E0,1.795900226E0,9.518148422E0
3.830000000E1,-1.242284179E0,1.313746333E0,9.952159882E0
3.832000000E1,-6.129730940E-1,7.680886388E-1,1.034925270E1
3.834000156E1,-3.790500388E-2,1.608328968E-1,1.107992458E1
3.836200000E1,3.830722719E-2,-1.152855977E-1,1.162470150E1
3.838200000E1,-6.669288874E-2,-3.696360290E-1,1.116146183E1
3.840200000E1,1.213668734E-1,-7.299442291E-1,1.067627239E1
3.842200000E1,3.623480499E-1,-1.252943277E0,1.169003391E1
3.844200000E1,4.258997440E-1,-1.583515406E0,1.205087852E1
3.846200000E1,4.090445936E-1,-6.221955419E-1,1.127420044E1
3.848200000E1,2.772581577E-1,2.611212134E-1,1.138505173E1
3.850200000E1,1.694424450E-1,8.783847094E-2,1.167148399E1
3.852200000E1,1.690593660E-1,-1.501834840E-1,1.129265404E1
3.854200000E1,1.219031736E-1,-2.500025630E-1,9.804380417E0
3.856200000E1,-1.125753596E-1,-7.293695956E-2,8.868726730E0
3.858200000E1,-4.653370380E-1,4.288877249E-1,8.927891731E0
3.860200000E1,-3.376494646E-1,1.685996801E-1,9.833637238E0
3.862200000E1,5.508483052E-1,-7.189404964E-1,1.027428532E1
3.864200000E1,1.149082780E0,-1.663960576E0,9.938436508E0
3.866200000E1,1.032801151E0,-2.148690701E0,9.659961700E0
3.868200000E1,2.049436606E-2,-1.534396052E0,9.339042664E0
3.870200000E1,-6.590279341E-1,9.224380553E-2,9.746718407E0
3.872200000E1,-1.266657233E0,9.909121990E-1,9.264632225E0
3.874200000E1,-1.189171314E0,1.371417880E0,7.949295521E0
3.876200000E1,-9.058892727E-1,1.616335154E0,7.173756123E0
3.878200000E1,-9.933543205E-1,1.890883088E0,7.804063320E0
3.880200000E1,-1.001054049E0,1.475287914E0,9.309412956E0
3.882200000E1,-6.029270291E-1,8.266699910E-1,9.473529816E0
3.884200000E1,-2.763004601E-1,4.299315810E-1,9.578396797E0
3.886200000E1,-5.900270864E-2,2.085924298E-1,1.045127487E1
3.888200000E1,9.715671092E-2,-4.153461009E-2,1.143580818E1
3.890200000E1,3.247207999E-1,-1.121903777E0,1.135316086E1
3.892200000E1,5.409650803E-1,-1.563423395E0,1.076022243E1
3.894200000E1,5.288217068E-1,-9.360083342E-1,1.080349064E1
3.896200000E1,3.887034357E-1,-4.478497803E-1,1.086159325E1
3.898200000E1,-1.607945859E-1,-2.889514267E-1,1.027666950E1
3.900200000E1,-6.631076932E-1,6.071312428E-1,9.583309174E0
3.902200000E1,-1.020734429E0,1.479654908E0,1.018271160E1
3.904200000E1,-6.990590096E-1,1.562274098E0,1.058886433E1
3.906200000E1,-1.182256788E-1,-1.188385934E-1,1.054769421E1
3.908200000E1,2.144917399E-1,-1.158851027E0,9.688185692E0
3.910200000E1,-1.267490387E-1,-1.250319242E0,1.001473522E1
3.912200000E1,-9.767673016E-1,-8.746976256E-1,1.088857079E1
3.914200000E1,-1.783076882E0,-3.505781591E-1,1.205681610E1
3.916200156E1,-1.428945780E0,-1.589749940E-2,1.242389584E1
3.918400000E1,-1.742978841E-1,-1.616469324E-1,1.137984180E1
3.920400000E1,3.269904852E-1,-2.927725613E-1,9.981723785E0
3.922400000E1,8.363137841E-1,6.722918153E-1,8.699235916E0
3.924400469E1,5.915402174E-1,1.685604215E0,7.681997299E0
3.926600156E1,2.650094032E-1,2.148029804E0,7.885456562E0
3.928800000E1,2.315097302E-1,1.895987391E0,8.487483025E0
3.930800000E1,4.817229509E-1,1.215526581E0,8.712336540E0
3.932800156E1,6.673693657E-1,6.080505848E-1,8.935247421E0
3.935000000E1,2.685144842E-1,4.518145919E-1,9.581269264E0
3.937000000E1,-4.663905129E-2,5.349412560E-1,1.016434383E1
3.939000000E1,-1.510262489E-1,5.913103819E-1,1.043253326E1
3.941000000E1,-2.548292577E-1,5.307658315E-1,1.066241360E1
3.943000156E1,-3.668970466E-1,8.625638485E-1,1.087509537E1
3.945001875E1,-5.939918756E-1,1.046792865E0,9.527159691E0
3.947200000E1,-5.454853773E-1,1.213448524E0,9.238611221E0
3.949200000E1,-1.394287199E-1,5.544492006E-1,1.018738556E1
3.951200000E1,2.831670344E-1,-8.596141636E-2,1.085587597E1
3.953200000E1,5.895003676E-1,-1.203996092E-1,9.618121147E0
3.955200000E1,3.787818551E-1,3.188022971E-1,9.688338280E0
3.957200000E1,1.362109184E-1,-5.752787739E-2,1.126080132E1
3.959200000E1,2.651434541E-1,-3.885023296E-1,1.235606384E1
3.961200000E1,2.572138608E-1,-9.902514219E-1,1.229677391E1
3.963200000E1,9.333555698E-1,-3.873818219E-1,9.949211121E0
3.965200000E1,1.183817863E0,4.732379019E-1,7.854446888E0
3.967200000E1,9.664626122E-1,1.128262758E0,7.092468262E0
3.969200156E1,7.172453403E-1,1.336740255E0,7.715410709E0
3.971400156E1,3.195588887E-1,9.851757288E-1,9.263147354E0
3.973400156E1,-8.293514699E-2,7.557536960E-1,9.941261292E0
3.975400469E1,-1.886247844E-1,6.670724750E-1,1.043264771E1
3.977600156E1,-2.759940028E-1,6.911677122E-1,1.055223370E1
3.979800156E1,-2.365471236E-2,8.124867082E-1,9.083189011E0
3.982000000E1,1.182735618E-2,1.464370370E0,7.110740662E0
3.984000000E1,-9.692686796E-2,2.125859737E0,6.563694477E0
3.986000000E1,-5.214858651E-1,2.015142202E0,7.944555283E0
3.988000000E1,-7.201279998E-1,1.704853535E0,9.154240608E0
3.990000000E1,-5.705286860E-1,1.488762498E0,9.204881668E0
3.992000000E1,-5.479848385E-1,1.513097167E0,9.883446693E0
3.994000000E1,-6.795223355E-1,1.592565536E0,9.957830429E0
3.996000000E1,-8.788252473E-1,1.506709456E0,9.250764847E0
3.998000000E1,-1.070658326E0,1.127266765E0,9.051116943E0
4.000000000E1,-1.121003509E0,6.316861510E-1,1.050048065E1
4.002000000E1,-7.733654976E-1,2.927821279E-1,1.225019169E1
4.004000000E1,-4.751053751E-1,1.690497845E-1,1.145244312E1
4.006000000E1,-6.995857358E-1,5.782858729E-1,9.898319244E0
4.008000000E1,-1.259819388E0,1.263602138E0,1.023171711E1
4.010000000E1,-1.348558068E0,3.791553676E-1,1.244093227E1
4.012000000E1,-4.421036839E-1,-1.023406267E0,1.309519100E1
4.014000000E1,8.142200708E-1,-1.736207962E0,1.167426205E1
4.016000000E1,7.128208876E-1,-1.396739006E0,1.023169708E1
4.018000000E1,-5.806896687E-1,-5.197716355E-1,9.614424706E0
4.020000000E1,-1.838478804E0,8.104276657E-1,9.873467445E0
4.022000000E1,-2.133655071E0,1.475220919E0,1.061821747E1
4.024000000E1,-1.328350902E0,7.677725554E-1,1.016989803E1
4.026000000E1,-9.578722715E-2,4.860229492E-1,9.274141312E0
4.028000000E1,6.607038975E-1,3.525414169E-1,8.551916122E0
4.030000000E1,7.684716582E-1,1.152664497E-1,8.237787247E0
4.032000000E1,2.596176565E-1,3.342305869E-2,8.377637863E0
4.034000000E1,-3.956370652E-1,8.269955516E-1,9.439427376E0
4.036000000E1,-8.033599854E-1,1.149417996E0,8.851392746E0
4.038000156E1,-4.249803722E-1,1.081269383E0,7.809656143E0
4.040200000E1,-4.728835821E-1,1.013839006E0,7.670380592E0
4.042200156E1,-7.745721340E-1,9.474622011E-1,8.562335968E0
4.044400000E1,-8.040591478E-1,7.594312429E-1,9.542865753E0
4.046400000E1,-5.802395344E-1,8.598344922E-1,1.027819347E1
4.048400000E1,-6.902770996E-1,9.104478955E-1,1.054753113E1
4.050400000E1,-7.210952044E-1,9.779931307E-1,1.032102013E1
4.052400156E1,-6.900376678E-1,5.631545186E-1,9.581996918E0
4.054600000E1,-5.484924316E-1,-5.344815925E-2,9.869359016E0
4.056600000E1,3.303998411E-1,-5.413577557E-1,1.083023834E1
4.058600000E1,6.297324896E-1,-7.498256564E-1,1.133084679E1
4.060600000E1,2.677866817E-1,-5.815132856E-1,1.066567993E1
4.062600156E1,1.035252810E-1,2.494470775E-1,1.050460720E1
4.064800156E1,1.606030464E-1,-4.357447326E-1,1.176970387E1
4.066800156E1,5.627810955E-1,-1.105278492E0,1.216557121E1
4.068800156E1,7.907186151E-1,-1.012249351E0,1.087389946E1
4.071000000E1,4.141394496E-1,-4.012011588E-1,9.773629189E0
4.073000156E1,7.648995519E-2,8.230307698E-2,9.177559853E0
4.075200156E1,9.208099544E-2,-7.421068102E-2,9.987795830E0
4.077400000E1,4.151354134E-1,-5.014511943E-1,1.067859936E1
4.079400156E1,5.518156290E-1,-7.213825583E-1,1.059538651E1
4.081400156E1,1.111484244E-1,-6.515963674E-1,1.059605694E1
4.083600156E1,-4.143501222E-1,5.229894519E-1,9.862770081E0
4.085800156E1,-8.387079835E-1,1.589223146E0,8.324658394E0
4.088000000E1,-6.866186857E-1,2.057653666E0,7.796038151E0
4.090000000E1,-2.181788236E-1,1.424684048E0,8.082921028E0
4.092000000E1,1.279365569E-1,7.207600474E-1,8.666856766E0
4.094000000E1,2.832627892E-1,1.741829664E-1,8.859475136E0
4.096000000E1,2.940750122E-1,1.800056547E-1,9.029329300E0
4.098000000E1,-1.956924796E-1,3.514209390E-1,9.882804871E0
4.100000000E1,-5.480136275E-1,-9.394846857E-2,1.026646137E1
4.102000000E1,-4.758236408E-1,-8.011381626E-1,1.034050846E1
4.104000156E1,-4.761779904E-1,-1.676688194E0,1.027151775E1
4.106200000E1,-6.957646012E-1,-1.416093707E0,1.092474174E1
4.108200000E1,-9.393602014E-1,-1.067737341E0,1.097561455E1
4.110200000E1,-7.677247524E-1,-7.049870491E-1,1.059010983E1
4.112200000E1,-8.382387757E-1,-1.926374733E-1,1.043729210E1
4.114200000E1,-1.015706539E0,3.930321336E-2,9.365819931E0
4.116200000E1,-1.156035542E0,-5.315127783E-3,9.448668480E0
4.118200000E1,-1.036698818E0,-9.413713813E-1,1.181679344E1
4.120200000E1,2.185427211E-2,-1.421226859E0,1.295376205E1
4.122200000E1,7.351635695E-1,-2.095031738E0,1.199834061E1
4.124200000E1,4.770207778E-2,-1.941381574E0,1.085986900E1
4.126200000E1,-1.055881262E0,-1.104684711E0,9.067521095E0
4.128200000E1,-2.510799408E0,7.301357388E-2,8.862884521E0
4.130200000E1,-3.160556793E0,9.682343006E-1,9.869032860E0
4.132200156E1,-1.821298003E0,2.046276182E-1,1.082170486E1
4.134400625E1,1.337113827E-1,-8.865728974E-1,9.993454933E0
4.136600000E1,1.014787197E0,-1.416869402E0,8.768600464E0
4.138600000E1,6.914550066E-1,-9.020490050E-1,8.654024124E0
4.140600156E1,4.572925344E-2,7.203674316E-2,8.470867157E0
4.142800000E1,-4.666299224E-1,7.137306333E-1,8.342547417E0
4.144800156E1,-3.842980862E-1,8.976149559E-1,7.659271717E0
4.146800156E1,-9.201396257E-2,8.388133645E-1,7.214467049E0
4.149000000E1,-2.853888553E-3,7.645452023E-1,7.804197311E0
4.151000156E1,-1.414111257E-1,4.597729146E-1,8.686116219E0
4.153200156E1,-5.614690781E-1,4.943834841E-1,9.895944595E0
4.155400156E1,-8.883254528E-1,1.035971045E0,1.070178509E1
4.157600000E1,-5.405724645E-1,6.426995397E-1,1.048108673E1
4.159600000E1,4.587290343E-3,6.513186544E-2,9.929213524E0
4.161600000E1,-2.396308631E-1,-2.075198144E-1,1.013423443E1
4.163600156E1,-4.951209128E-1,-6.832190156E-1,1.064482212E1
4.165800156E1,-1.792395115E-1,-1.296977401E0,1.193848515E1
4.168000000E1,4.894993305E-1,-2.098575115E0,1.287696457E1
4.170000156E1,4.317415953E-1,-1.840729237E0,1.117710018E1
