"Time (s)","Acceleration x (m/s^2)","Acceleration y (m/s^2)","Acceleration z (m/s^2)"
0.000000000E0,-4.285246372E0,4.644767761E0,6.470491409E0
2.135880200E-2,-4.033700943E0,4.448556423E0,6.918248653E0
4.264453100E-2,-3.983451605E0,4.312165737E0,7.492825031E0
6.393432300E-2,-4.823631287E0,3.950550079E0,7.861618996E0
8.522411500E-2,-4.433601379E0,3.304188967E0,6.623931408E0
1.065139060E-1,-3.837489367E0,2.760719061E0,8.029116631E0
1.278036980E-1,-3.815953970E0,2.873181820E0,1.017188931E1
1.490934900E-1,-3.499802113E0,2.562114954E0,1.110568810E1
1.703833330E-1,-3.133401155E0,1.781456470E0,1.081107140E1
1.916731250E-1,-3.451945782E0,3.024228811E0,8.500801086E0
2.129629170E-1,-7.704889178E-1,2.332104683E0,8.824131966E0
2.342527080E-1,-1.121635586E-1,1.697707653E0,7.887939930E0
2.555425520E-1,-1.680359721E0,-1.177567840E0,7.380362511E0
2.768323440E-1,-2.286042929E0,-1.948355794E0,1.089960670E1
2.981221350E-1,-1.577468276E0,-1.685145378E0,1.391635704E1
3.194119790E-1,-4.486542661E-3,-2.616551638E0,1.492642784E1
3.407017710E-1,-6.173482537E-1,-3.064009428E0,1.057418251E1
3.619915630E-1,-1.053141117E0,-2.532503605E0,9.554242134E0
3.832814060E-1,-3.298804998E0,7.495517135E-1,9.192625999E0
4.045711980E-1,3.355933726E-1,-8.446664214E-1,9.425029755E0
4.258610420E-1,-5.712864175E-2,1.618744493E0,8.816953659E0
4.471508330E-1,-7.537391186E-1,-7.393822074E-1,8.927022934E0
4.684406770E-1,-1.194317579E0,5.461617708E-1,4.208077908E0
4.897304690E-1,9.795617461E-1,1.853241086E0,7.411468983E0
5.110202600E-1,1.544566989E0,1.563709617E0,1.000199890E1
5.323101040E-1,6.299105883E-1,1.374676585E0,1.229312611E1
5.535999480E-1,3.379862010E-1,1.151844978E0,1.159890842E1
5.748897400E-1,3.858426511E-1,1.961217284E0,1.033699417E1
5.961795310E-1,5.027918816E0,-6.915257573E-1,8.098507881E0
6.174693750E-1,8.350951195E0,-2.865405083E0,6.870391846E0
6.387591670E-1,4.122833252E0,3.379862010E-1,1.155553913E1
6.600490100E-1,4.908277512E0,-1.815554202E-1,1.754567146E1
6.813388540E-1,4.838885784E0,1.716850281E0,1.881446457E1
7.026286460E-1,1.103988528E0,5.216951370E0,1.436381531E1
7.239184900E-1,5.458925724E0,-2.412862539E0,9.319445610E0
7.452082810E-1,3.218047380E0,3.605983734E0,6.973283291E0
7.664981250E-1,1.319043487E-1,7.826623917E0,4.478765965E0
7.877879690E-1,2.662613392E0,5.078167915E0,-1.853540182E0
8.090777600E-1,3.251546860E0,4.517948151E0,-1.760220170E0
8.303676040E-1,1.954038739E0,5.485246658E0,-3.381058455E0
8.516574480E-1,-3.059822023E-1,6.433403015E0,-2.174477577E0
8.729472400E-1,-9.765707254E-1,4.328915119E0,1.814058661E0
8.942370830E-1,1.934896231E0,1.542174220E0,6.525825500E0
9.155269270E-1,5.767600060E0,7.232306600E-1,8.903095245E0
9.368167190E-1,6.349354744E0,4.874777794E0,1.457228947E1
9.581065630E-1,1.005075264E1,1.300199986E0,1.125164986E1
9.793964060E-1,7.307082176E0,2.643470764E0,8.809774399E0
1.000686250E0,1.021825027E1,1.642672777E0,1.368873978E1
1.021976094E0,1.405843163E1,1.053739309E0,1.784985924E1
1.043265885E0,1.409671593E1,3.658625841E0,-7.163512707E-1
1.064555729E0,3.435794115E0,5.430212021E0,2.378226471E1
1.085845573E0,3.227618694E0,-1.632503271E0,1.460339642E1
1.107135417E0,3.711267948E0,-1.136889815E0,1.495813251E0
1.128425260E0,-5.333601475E0,2.437388897E0,-3.168097258E0
1.149715104E0,-8.706883430E0,6.459723949E0,-1.621436477E0
1.171004948E0,-8.038987160E0,4.503591537E0,-2.353939295E0
1.192294792E0,-7.069295406E0,4.491627216E0,-1.911267042E0
1.213584635E0,-3.037688255E0,5.248058319E0,1.921735644E0
1.234874479E0,-2.415255308E0,5.528317451E0,1.359123230E0
1.256164323E0,-6.843472719E-1,1.150170040E1,3.106781006E0
1.277454167E0,2.184407806E1,6.478866577E0,-1.231825066E1
1.298744010E0,-6.317051649E-1,1.018235779E1,-1.714248085E1
1.320033906E0,-6.681658268E0,5.966503143E0,-5.612365723E0
1.341323750E0,-7.938488007E0,1.879173279E1,2.280958176E0
1.362613594E0,6.586543560E0,7.187440872E0,-6.069693565E0
1.383903438E0,3.335295677E0,6.911967278E0,-3.711566925E0
1.405193333E0,5.755635738E0,8.537590981E0,-5.167001247E0
1.426483177E0,-7.082754970E-1,9.449854851E0,-3.529413462E0
1.447773021E0,-1.077069283E0,9.358927727E0,-4.374678135E0
1.469062917E0,4.596911430E0,7.381259441E0,-1.772184253E0
1.490352760E0,-5.735895157E0,1.064447117E1,9.044869542E-1
1.511642604E0,2.456531525E0,1.106830025E1,-3.141776085E0
1.532932500E0,-1.840678811E0,6.459723949E0,-3.813561201E-1
1.554222344E0,4.527519703E0,1.078086281E1,-3.400201082E0
1.575512240E0,-1.862214208E0,1.302174091E1,-5.009075165E0
1.596802135E0,6.370890141E0,1.759921074E0,-2.239083767E0
1.618091979E0,3.548256874E0,8.159524918E0,-1.465902925E0
1.639381875E0,1.129083252E1,4.996811867E0,-7.089634418E0
1.660671719E0,5.092525005E0,7.295117855E0,-8.210073471E0
1.681961615E0,1.033819008E1,6.653542519E0,-8.277072906E0
1.703251510E0,-3.142972469E0,7.065407276E0,-4.415356159E0
1.724541354E0,1.477568030E0,8.693424225E0,-4.408177376E0
1.745831250E0,-2.283650160E0,4.927420139E0,-2.543271303E0
1.767121146E0,7.184450030E-1,3.802195072E0,-1.144965649E0
1.788411042E0,5.564209938E0,3.969692707E0,-2.966800928E0
1.809700938E0,4.951348305E0,4.295415878E0,-7.999206066E0
1.830990833E0,7.785646915E-1,4.898705959E0,-1.100638580E1
1.852280729E0,4.752744198E0,3.055335522E0,-1.684547234E1
1.873570625E0,5.291428089E0,8.858528137E0,-1.137727356E1
1.894860521E0,1.479960799E0,4.786243439E0,-6.232405663E0
1.916150417E0,7.132406235E0,7.079763889E0,-2.265404940E0
1.937440313E0,5.609673500E0,1.149212933E1,-1.278963685E0
1.958730208E0,3.330509901E0,1.106112194E1,-4.611567497E0
1.980020104E0,1.915753603E0,1.346949768E1,-2.926122904E0
2.001310000E0,3.469293833E0,1.307677555E1,-4.238286972E0
2.022599896E0,2.959323406E0,7.568199158E0,1.668096542E0
2.043889792E0,8.856135368E0,1.348624706E1,6.002993584E-1
2.065179740E0,1.391426325E0,5.976074696E0,1.747059584E0
2.086469635E0,-5.273781300E0,8.075776100E0,-5.767899036E0
2.107759531E0,-8.077271461E0,6.675077915E0,-8.111968040E0
2.129049427E0,-7.284948349E0,7.781160355E0,-1.550249958E1
2.150339375E0,-1.737787485E0,5.839683533E0,-1.346261883E1
2.171629271E0,8.781958580E0,-2.082653046E0,-9.433403969E0
2.192919219E0,9.876076698E0,3.670589924E0,-7.846065521E0
2.214209115E0,1.317278767E1,1.383589840E1,-2.760719061E-1
2.235499010E0,2.655554581E1,3.716053486E0,6.073283195E0
2.256788958E0,4.934598446E0,5.327320576E0,1.377488136E1
2.278078854E0,4.017549038E0,9.289535522E0,3.207578659E0
2.299368802E0,-4.754239559E0,8.738887787E0,-7.812565804E0
2.320658698E0,-7.564908981E0,1.220309639E1,-1.391276836E1
2.341948646E0,7.639086246E-1,3.191726208E0,-1.527727509E1
2.363238542E0,3.653840065E0,9.208179474E0,-9.328120232E0
2.384528490E0,3.380759239E0,7.632805347E0,-2.837588549E0
2.405818438E0,1.286620712E1,3.258725405E0,-1.923231244E0
2.427108333E0,1.137697411E1,7.299903870E0,-1.034895778E-1
2.448398281E0,4.007977962E0,5.317749023E0,5.558526993E0
2.469688229E0,1.084786129E1,1.954038739E0,-7.130312443E0
2.490978125E0,8.281558990E0,2.021127510E1,-6.773482800E0
2.512268073E0,7.462615490E0,4.522733688E0,-1.054427242E1
2.533558021E0,-1.828714728E0,5.458925724E0,-6.186942101E0
2.554847917E0,3.428615808E0,1.242562866E1,-3.321237803E0
2.576137865E0,-1.505683661E0,9.768399239E0,8.467600942E-1
2.597427813E0,5.772385597E0,8.477770805E0,-5.959623814E0
2.618717760E0,3.900300980E0,1.049372387E1,-9.511470199E-1
2.640007708E0,5.061418056E0,6.996015072E0,-3.795315742E0
2.661297604E0,2.882753134E0,1.057029438E1,4.399802685E-1
2.682587552E0,5.051846981E0,5.528317451E0,-2.179263115E0
2.703877500E0,2.317747831E0,8.343772888E0,1.529312730E0
2.725167448E0,4.999204636E0,7.685447216E0,-7.874779224E0
2.746457396E0,4.618446827E0,4.556233406E0,-3.096312523E0
2.767747344E0,9.197412133E-1,4.321736813E0,-3.019443035E0
2.789037292E0,-2.085045815E0,1.416610813E1,-3.352344513E0
2.810327240E0,-2.087438583E0,9.471389771E0,4.187439568E-3
2.831617188E0,-1.649253011E0,3.227618694E0,-7.321738243E0
2.852907135E0,3.643072546E-1,9.100203514E0,-8.281858444E0
2.874197083E0,-4.529314041E0,6.734898567E0,-4.882255554E0
2.895487031E0,-5.405685425E0,8.568697929E0,-5.488536954E-1
2.916776979E0,3.330509901E0,1.731207275E1,-8.049455643E0
2.938066927E0,4.470091820E0,7.881658554E0,-9.318549156E0
2.959356875E0,4.972883701E0,5.346463203E0,-1.198534966E1
2.980646823E0,8.322237015E0,1.598106384E1,-7.901100159E0
3.001936771E0,6.797111988E0,5.992824078E0,-9.797411919E0
3.023226719E0,-1.735394597E0,4.836492538E0,-1.607079506E0
3.044516667E0,-4.235295951E-1,1.222463131E1,1.790130496E0
3.065806615E0,-7.526623726E0,1.613181114E1,3.861118555E0
3.087096563E0,4.221238136E0,9.033205032E0,3.564109325E0
3.108386510E0,4.960919380E0,8.580661774E0,1.057627559E0
3.129676510E0,4.245166302E0,7.946264744E0,-2.373081923E0
3.150966458E0,4.360919297E-1,8.722137451E0,-2.418545485E0
3.172256406E0,1.506281853E0,6.684648991E0,-2.995514870E0
3.193546354E0,-2.207079887E0,1.051765156E1,-2.301297188E0
3.214836302E0,2.531008244E0,6.282355785E0,-6.680162430E0
3.236126250E0,6.955337048E0,2.751147747E0,-8.128717422E0
3.257416198E0,5.863611698E0,5.480461121E0,-8.202895164E0
3.278706198E0,8.147561073E0,8.128418922E0,-7.137490749E0
3.299996146E0,5.889933109E0,1.019192886E1,-1.067109203E1
3.321286094E0,1.855633974E0,6.248856544E0,-9.119645119E0
3.342576042E0,-3.011367321E0,5.899504185E0,-6.148656845E0
3.363866042E0,6.972086906E0,5.901896954E0,-9.167501450E0
3.385155990E0,3.371187925E0,7.690232754E0,-6.929016113E0
3.406445938E0,9.317052960E-1,9.004490852E0,-1.858325839E0
3.427735885E0,5.281857014E0,7.539484978E0,-3.091526747E0
3.449025885E0,4.702494621E0,1.123819065E1,-5.016253471E0
3.470315833E0,6.744469643E0,1.117119122E1,-5.895017624E0
3.491605781E0,-2.781656265E0,5.411069393E0,2.108675003E0
3.512895729E0,2.547757864E0,9.442676544E0,-1.683649778E0
3.534185729E0,3.208476067E0,8.298309326E0,-1.338784218E0
3.555475677E0,4.398307323E0,8.427521706E0,-2.688934505E-1
3.576765625E0,1.084546852E1,9.792327881E0,-5.540580750E0
3.598055625E0,4.403092861E0,1.179601765E1,2.369492531E0
3.619345573E0,-8.247461319E0,6.730112553E0,5.721239090E0
3.640635521E0,-1.081854939E0,9.708279610E0,-4.015455723E0
3.661925521E0,3.036192894E0,8.621339798E0,-5.813362598E0
3.683215469E0,-4.634598255E0,8.657531738E0,1.670489311E0
3.704505417E0,-5.237888813E0,8.087740898E0,-7.563712597E0
3.725795417E0,6.753742099E-1,1.129561806E1,-6.661019802E0
3.747085365E0,7.998907089E0,5.260022163E0,-1.004865837E1
3.768375313E0,7.299903870E0,7.098906517E0,-6.378367901E0
3.789665313E0,2.846860647E0,9.914361954E0,-4.664209366E0
3.810955260E0,2.765504837E0,5.772385597E0,-3.706781387E0
3.832245260E0,5.425426006E0,1.161655617E1,-8.952147484E0
3.853535208E0,7.089335442E0,1.059900761E1,-9.263513565E0
3.874825156E0,7.051050186E0,7.986942768E0,-5.767899036E0
3.896115156E0,7.031907558E0,6.785147667E0,-5.471189022E0
3.917405104E0,3.287439108E0,1.191565895E1,-7.546364665E-1
3.938695052E0,-3.435195923E0,9.799506187E0,3.178864956E0
3.959985052E0,-8.183453679E-1,7.309474945E0,-1.382154226E0
3.981275000E0,3.292224884E0,5.039882660E0,-8.308178902E0
4.002564948E0,3.014358282E0,7.711768150E0,-5.056931496E0
4.023854948E0,1.829312921E0,7.180262566E0,-7.692924976E0
4.045144896E0,2.011466503E0,9.492925644E0,-5.356333256E0
4.066434896E0,8.348558426E0,1.193240833E1,-8.269894600E0
4.087724844E0,9.545567513E0,6.629614353E0,-6.155835152E0
4.109014844E0,5.092525005E0,8.233702660E0,-3.666103363E0
4.130304792E0,6.569793701E0,9.935896873E0,-5.210072041E0
4.151594740E0,2.231307179E-1,6.742076874E0,1.166501045E-1
4.172884740E0,4.589733124E0,1.054636574E1,6.529414654E-1
4.194174688E0,9.675976634E-1,8.228917122E0,4.806582451E0
4.215464688E0,2.121536493E0,6.751648426E0,1.198804140E0
4.236754635E0,1.645065546E0,9.909575462E0,3.562314808E-1
4.258044583E0,3.713660717E0,8.554341316E0,-4.233501434E0
4.279334583E0,8.396414757E0,8.310273170E0,-8.607281685E0
4.300624531E0,5.769992828E0,6.507580280E0,-8.327322006E0
4.321914531E0,-3.681656837E0,7.017550468E0,-2.928515911E0
4.343204479E0,2.277069807E0,9.088239670E0,-5.387440205E0
4.364494427E0,3.179762125E0,7.723732471E0,-6.467201233E0
4.385784427E0,6.045466423E0,8.429914474E0,-4.613960266E0
4.407074375E0,4.628017902E0,5.863611698E0,-2.014158487E0
4.428364375E0,-5.216353536E-1,2.598007202E0,-5.523830891E0
4.449654323E0,5.676971674E-1,6.454938412E0,-8.758329391E0
4.470944323E0,-7.406982422E0,5.849255085E0,-7.175776005E0
4.492234271E0,-4.888536453E0,7.589734554E0,-1.011805058E1
4.513524219E0,-1.167996526E0,6.710970402E0,-1.085055351E1
4.534814219E0,-1.421635747E0,7.072585583E0,-7.441379547E0
4.556104167E0,2.084746659E-1,7.613662720E0,-8.131110191E0
4.577394167E0,3.538685560E0,7.845766544E0,-8.411070824E0
4.598684115E0,7.113263607E0,5.504389286E0,-6.218048573E0
4.619974115E0,4.728815556E0,1.218873978E1,2.606681108E0
4.641264063E0,-1.096211910E0,7.929515362E0,3.432504177E0
4.662554010E0,4.202095509E0,1.062772179E1,-1.680957973E-1
4.683844010E0,-1.026820064E0,3.038585663E0,-2.174477577E0
4.705133958E0,1.659422517E0,1.125015450E1,-5.971588135E0
4.726423958E0,-1.780858278E0,9.382855415E0,-8.399106979E0
4.747713906E0,-5.168496966E-1,6.948158741E0,-7.003492832E0
4.769003854E0,1.585245013E0,6.215356827E0,-1.004865837E1
4.790293854E0,8.580661774E0,2.193320990E0,-1.552403545E1
4.811583802E0,1.014885807E1,4.604089737E0,-9.390333176E0
4.832873802E0,3.163012505E0,2.372782707E0,-1.800898194E0
4.854163750E0,2.018645048E0,5.449354649E0,-1.095135117E1
4.875453750E0,-1.100997567E0,5.576174259E0,-1.002473068E1
4.896743698E0,-4.560420990E0,4.168596268E0,-1.110927773E1
4.918033698E0,-1.137159061E1,8.018049240E0,-4.360321045E0
4.939323646E0,-1.433599830E0,5.059025288E0,-1.306271839E1
4.960613646E0,6.825526357E-1,7.481758118E0,-8.427820206E0
4.981903594E0,4.546662331E0,6.991229534E0,-7.860422611E0
5.003193542E0,2.643470764E0,4.367200375E0,-3.148954630E0
5.024483542E0,2.844467878E0,8.777172089E0,-2.655734062E0
5.045773490E0,6.131608009E0,9.662816048E0,-1.990230203E0
5.067063490E0,4.793421745E0,8.463413239E0,-5.696114540E0
5.088353438E0,-1.347458243E0,4.685445786E0,5.955137610E-1
5.109643438E0,9.460622668E-1,5.923432350E0,7.630113363E-1
5.130933385E0,3.649054527E0,6.327819347E0,-7.666603565E0
5.152223333E0,2.562114954E0,5.631208897E0,-3.862314939E0
5.173513333E0,3.895515203E0,3.402294636E0,-8.710473061E0
5.194803281E0,3.421437263E0,1.180319595E1,-4.843970299E0
5.216093281E0,3.809373617E0,9.445069313E0,-7.379166126E0
5.237383229E0,8.544769287E0,5.178666592E0,-1.235414314E1
5.258673229E0,4.091726780E0,5.344070435E0,-9.608079910E0
5.279963177E0,1.554138303E0,9.880862236E0,-7.812565804E0
5.301253125E0,-9.062815458E-2,1.950748634E1,-6.251548290E0
5.322543125E0,4.374378681E0,2.739183664E0,-8.377571106E0
5.343833073E0,2.066501379E0,1.120708370E1,-4.697709084E0
5.365123073E0,7.686942816E-2,8.417949677E0,-7.147062302E0
5.386413021E0,-1.496112347E0,9.957432747E0,-2.380260229E0
5.407703021E0,-6.556333899E-1,7.946264744E0,-6.356832504E0
5.428992969E0,-6.229115486E0,1.357717514E1,-4.484747887E0
5.450282917E0,-2.941975355E0,5.490032673E0,-7.405487061E0
5.471572917E0,3.164508045E-1,7.216155052E0,-7.455736160E0
5.492862865E0,7.543373108E-1,1.089601707E1,-5.734399319E0
5.514152865E0,4.800600529E0,3.979264021E0,-7.144669533E0
5.535442813E0,8.623134494E-1,7.754838943E0,4.639084935E-1
5.556732760E0,2.291426897E0,8.494520187E0,-1.144965649E0
5.578022760E0,-6.628118753E-1,1.136979580E1,-2.310868502E0
5.599312708E0,3.541078329E0,7.307082176E0,-4.200001717E0
5.620602708E0,2.944966555E0,5.277071476E0,6.912266612E-1
5.641892656E0,1.475175142E0,1.208824062E1,-1.726720691E0
5.663182604E0,2.145464659E0,1.163809109E1,-1.223928809E0
5.684472604E0,5.741278648E0,9.077770710E-1,-7.060920715E0
5.705762552E0,2.997010350E-1,7.790731430E0,-8.697910309E-1
5.727052552E0,1.137488008E0,9.569496155E0,-4.233501434E0
5.748342500E0,-3.346661568E0,5.995217323E0,-7.618148923E-1
5.769632500E0,-4.388137817E0,7.252047062E0,-5.447260857E0
5.790922448E0,-1.981855392E0,1.011775112E1,-9.873982430E0
5.812212396E0,-1.645065658E-2,1.035254669E1,-9.730113983E0
5.833502396E0,2.959323406E0,7.671090126E0,-7.858029366E0
5.854792344E0,4.743770957E-1,9.294321060E0,-8.269894600E0
5.876082292E0,-1.749751568E0,6.148357868E0,-4.446462631E0
5.897372292E0,-1.206281662E0,1.003878784E1,-3.526422381E-1
5.918662240E0,9.939187169E-1,1.081196880E1,-1.513460279E-1
5.939952240E0,-1.733001828E0,8.573483467E0,4.969593525E0
5.961242188E0,4.887340367E-1,1.314168072E1,-1.156929731E0
5.982532188E0,-1.357029557E0,9.974182129E0,-2.239083767E0
6.003822135E0,1.688136339E0,7.163512707E0,-5.152644634E0
6.025112083E0,6.682256222E0,1.104437160E1,-3.268595695E0
6.046402083E0,2.983251572E0,4.302594185E0,-7.013063908E0
6.067692031E0,5.346463203E0,5.750850201E0,-7.324131012E0
6.088982031E0,3.474079370E0,3.514757395E0,-9.419047356E0
6.110271979E0,3.287439108E0,7.833802223E0,7.869395614E-1
6.131561927E0,7.112665176E-1,4.850849628E0,-4.331607342E0
6.152851927E0,-3.191128016E0,1.535833168E1,3.466601670E-1
6.174141875E0,-8.159525394E-1,6.763612270E0,-1.331187057E1
6.195431875E0,-4.139583111E-1,5.145166874E0,-5.337191105E0
6.216721823E0,-1.297209024E0,8.034799576E0,-7.460521698E0
6.238011771E0,3.411865950E0,7.498507977E0,-8.720044136E0
6.259301771E0,2.006680965E0,9.535996437E0,-9.811769485E0
6.280591719E0,2.822932482E0,7.331010342E0,-8.147860527E0
6.301881719E0,1.570888042E0,9.562317848E0,2.204387903E0
6.323171667E0,2.377568483E0,8.566305161E0,-4.439284325E0
6.344461615E0,5.243272781E0,8.628518105E0,-8.789435387E0
6.365751615E0,2.504687071E0,1.060618591E1,-3.282952785E0
6.387041563E0,-3.607479334E0,8.923134804E0,-5.358726501E0
6.408331510E0,-1.914856315E0,1.490130329E1,1.579562068E0
6.429621510E0,3.514757395E0,1.603609848E1,-4.733900547E0
6.450911458E0,4.767699242E-1,1.249950767E0,-1.949552298E0
6.472201458E0,2.650649309E0,9.555138588E0,2.450848579E0
6.493491406E0,1.027418256E0,7.659126282E0,-5.883053780E0
6.514781354E0,4.834099770E0,1.277049446E1,-4.001098633E0
6.536071354E0,-7.585247755E-1,9.258428574E0,-2.159522474E-1
6.557361302E0,8.024929166E-1,8.578269005E0,1.378265858E0
6.578651302E0,2.822932482E0,1.313928795E1,-3.517449379E0
6.599941250E0,4.935196638E-1,1.135304642E1,4.950151742E-1
6.621231198E0,-6.340979934E-1,1.767099500E0,-4.717150688E0
6.642521198E0,9.601201117E-2,9.921540260E0,-2.428116798E0
6.663811146E0,3.100799084E0,1.216241837E1,-7.702496052E0
6.685101146E0,4.576273263E-2,1.138175964E1,-2.952145040E-1
6.706391094E0,4.000799656E0,7.285546780E0,-7.712067604E0
6.727681042E0,-1.127318621E0,1.231316662E1,2.029711723E0
6.748971042E0,3.787838221E0,6.390331745E0,-8.121539116E0
6.770260990E0,-7.818847179E0,1.301934814E1,2.546561480E0
6.791550938E0,-1.863410622E-1,9.727422714E0,-1.089392376E1
6.812840938E0,-4.948357105E0,1.057029438E1,-2.741875648E0
6.834130885E0,5.336891651E0,7.611269951E0,-1.666122437E1
6.855420885E0,-1.010070205E0,1.145862961E1,-2.732304335E0
6.876710833E0,3.986442566E0,5.442175865E0,-7.161418915E0
6.898000781E0,-2.413759828E-1,8.767601013E0,5.479563713E0
6.919290781E0,3.076870918E0,8.252845764E0,-4.147359848E0
6.940580729E0,-3.637090325E-1,1.251655579E1,-4.938187599E-1
6.961870677E0,7.101299286E0,4.987240791E0,-2.560021162E0
6.983160677E0,-8.279166222E-1,8.300702095E0,7.007979155E-1
7.004450625E0,-6.077769399E-1,1.241605759E1,-5.722435474E0
7.025740625E0,-2.199901342E0,6.940680981E0,-6.965207577E0
7.047030573E0,3.191726208E0,7.170691490E0,-9.000003815E0
7.068320521E0,-1.201496124E0,7.058228493E0,-5.296513081E0
7.089610521E0,2.851646423E0,5.188237667E0,-8.219644547E0
7.110900469E0,2.562114954E0,5.434997559E0,-8.873184204E0
7.132190417E0,3.814159393E0,4.446163654E0,-1.142273712E1
7.153480417E0,-9.598209858E-1,8.810671806E0,3.801597059E-1
7.174770365E0,-2.319542408E0,2.425424814E0,-8.171788216E0
7.196060365E0,-2.580360174E0,9.157630920E0,-4.695316315E0
7.217350313E0,-1.445564032E0,9.454640388E0,-7.474579811E-1
7.238640260E0,7.347760201E0,6.040680885E0,-1.130548859E1
7.259930260E0,1.448854089E0,7.060621262E0,-2.105085611E0
7.281220208E0,7.067800045E0,4.972883701E0,-5.291727066E0
7.302510156E0,5.825326920E0,7.766803265E0,-8.628817558E0
7.323800156E0,1.389033556E0,7.460222721E0,-2.751446962E0
7.345090104E0,3.215654612E0,8.599804878E0,-5.217250824E0
7.366380104E0,-1.737787485E0,8.880064011E0,-5.967101455E-1
7.387670052E0,4.874777794E0,4.300201416E0,-6.356832504E0
7.408960000E0,-2.005783558E0,1.152084255E1,1.316052437E0
7.430250000E0,2.930609465E0,7.457829952E0,-1.180588818E1
7.451539948E0,9.699904919E-1,8.966205597E0,-4.594817638E0
7.472829896E0,-2.202294111E0,1.006032372E1,-2.899801970E0
7.494119896E0,-6.279364586E0,1.286859989E1,2.402992249E0
7.515409844E0,-3.061616659E0,1.105155087E1,-5.895017624E0
7.536699792E0,8.065905571E0,5.384748459E0,-4.511068821E0
7.557989792E0,8.934201598E-1,6.972086906E0,9.762716293E-1
7.579279740E0,5.983253002E0,6.940680981E0,4.495515525E-1
7.600569688E0,1.659422517E0,9.681958199E0,-3.752244949E0
7.621859688E0,-1.160818100E0,1.084068298E1,-4.118346691E0
7.643149635E0,-6.205187321E0,1.295474148E1,-5.332405090E0
7.664439583E0,-8.180163383E0,7.098906517E0,-6.567699909E0
7.685729583E0,-2.654836655E0,5.722136021E0,-8.755936623E0
7.707019531E0,1.618744493E0,3.244368315E0,-3.199203968E0
7.728309531E0,5.320142269E0,6.945466995E0,-8.291429520E0
7.749599479E0,9.428318977E0,6.205785751E0,-5.224429131E0
7.770889427E0,5.061418056E0,1.070489049E0,-1.471226978E1
7.792179427E0,-2.070688963E0,1.006989479E1,1.038485050E0
7.813469375E0,7.589734554E0,-2.630908489E0,-1.204307652E1
7.834759323E0,5.724828243E-1,1.153520012E1,-1.300499082E0
7.856049323E0,-5.927320957E0,1.493480206E1,-2.516950369E0
7.877339271E0,3.993621111E0,2.298605204E0,-7.999206066E0
7.898629219E0,3.738785386E-1,1.284945774E1,-4.339981973E-1
7.919919219E0,6.334998131E0,9.892826080E0,-1.018265629E1
7.941209167E0,-1.258774281E1,1.366331673E1,5.761917114E0
7.962499115E0,1.985145450E0,1.028764153E1,-9.454939842E0
7.983789115E0,-7.988737583E0,1.149452209E1,3.365504980E0
8.005079063E0,6.157928944E0,1.047697353E1,-1.206700420E1
8.026369010E0,-4.711168766E0,9.598209381E0,1.395015597E0
8.047659010E0,2.940180779E0,5.226522923E0,-7.460521698E0
8.068948958E0,4.407878399E0,8.126026154E0,-4.257429600E0
8.090238958E0,-1.479362607E0,3.541078329E0,-6.651448727E0
8.111528906E0,-1.725823283E0,5.334498882E0,-9.996016502E0
8.132818854E0,-2.769692183E0,7.431509018E0,-8.748757362E0
8.154108802E0,-1.000499010E0,6.823432922E0,-6.543771744E0
8.175398802E0,-3.210270643E0,1.530329704E1,-3.589533091E0
8.196688750E0,2.334497690E0,8.068299294E0,-1.490638733E1
8.217978698E0,1.937289000E0,5.935396671E0,-8.478069305E0
8.239268698E0,-2.848655462E0,5.401497841E0,-7.168597698E0
8.260558646E0,-2.554039001E0,6.696613312E0,-4.152145386E0
8.281848594E0,-2.671586514E0,7.414759159E0,-7.424629688E0
8.303138594E0,3.253939629E0,1.099651527E1,-2.052443504E0
8.324428542E0,3.364009619E0,5.518746376E0,-5.545366287E0
8.345718490E0,-8.877372146E-1,1.653410530E1,4.247260094E-2
8.367008490E0,1.743171334E0,8.643174171E0,-6.186942101E0
8.388298438E0,-8.350951076E-1,5.842076302E0,-4.317250252E0
8.409588385E0,4.097708687E-2,6.536293983E0,-5.152644634E0
8.430878333E0,-1.110359478E1,4.721637249E0,-3.909274042E-1
8.452168333E0,1.401775360E1,9.078668594E0,-1.774337769E1
8.473458281E0,2.001895189E0,-5.211567879E0,-1.525574017E1
8.494748229E0,-2.630908489E0,9.421140671E0,1.131805062E0
8.516038229E0,-3.506980658E0,1.784357834E1,5.213362575E-1
8.537328177E0,2.576471806E0,-1.979462504E0,-2.115255165E1
8.558618125E0,-4.129413605E0,8.906385422E0,1.210768223E0
8.579908073E0,4.427021027E0,8.147561073E0,-4.618745804E0
8.601198073E0,-4.809274197E0,6.102894306E0,-4.484747887E0
8.622488021E0,4.089334011E0,1.286142159E1,-9.056833982E-1
8.643777969E0,3.615555048E0,3.883551121E0,-1.098724365E1
8.665067969E0,-6.944868565E0,3.888336897E0,-3.562912941E0
8.686357917E0,4.972883701E0,1.569362640E1,1.476670623E0
8.707647865E0,1.005882859E0,1.193719387E1,-5.100002289E0
8.728937813E0,-1.795215130E0,8.018049240E0,-9.117252350E0
8.750227813E0,-4.900500774E0,5.209773064E0,3.367897868E-1
8.771517760E0,4.350450516E0,1.074497032E1,-6.895516872E0
8.792807708E0,3.500400543E0,6.687041759E0,-9.308977127E0
8.814097708E0,-2.166401863E0,1.136740303E1,-9.008977413E-1
8.835387656E0,-4.158127785E0,9.306285858E0,-2.322832584E0
8.856677604E0,-1.893320918E0,6.179464340E0,-5.751149178E0
8.877967552E0,3.850051641E0,5.808278084E0,-6.332904339E0
8.899257552E0,-1.555932879E0,7.448258877E0,-3.907778502E0
8.920547500E0,-2.312364101E0,8.046763420E0,-4.549354076E0
8.941837448E0,6.801598072E-1,4.624129832E-1,-1.158814049E1
8.963127396E0,-2.314756870E0,1.534636784E1,-1.346261859E0
8.984417396E0,3.964907169E0,1.858026743E0,-1.706112480E1
9.005707344E0,-1.726361656E1,2.812374115E1,6.207281113E0
9.026997292E0,2.358425856E0,-5.982056856E-1,-1.927298927E1
9.048287240E0,1.226022482E0,8.884849548E0,-3.785744429E0
9.069577240E0,-3.054438114E0,8.518448830E0,7.677969933E-1
9.090867188E0,8.165507019E-2,-8.566305041E-1,-1.089870930E1
9.112157135E0,-1.917249203E0,3.775874138E0,-5.985944748E0
9.133447135E0,2.751147747E0,7.455437183E0,-7.872386456E0
9.154737083E0,2.097608089E0,1.822134495E0,-4.001098633E0
9.176027031E0,-2.135295153E0,8.877671242E0,1.397408366E0
9.197316979E0,1.075274706E0,6.706184387E0,-8.763114929E0
9.218606979E0,3.364009619E0,1.114008522E1,-9.426225662E0
9.239896927E0,-1.357029557E0,2.746362209E0,-7.618747234E0
9.261186875E0,-2.515753984E0,9.595816612E0,-7.068099022E0
9.282476823E0,-2.961117983E0,8.868100166E0,-1.363968754E1
9.303766823E0,7.639086246E-1,6.756433964E0,-1.419751358E1
9.325056771E0,-6.430710852E-2,6.502794743E0,-3.306880951E0
9.346346719E0,6.177071571E0,2.451745987E0,-8.753543854E0
9.367636667E0,-2.788834810E0,4.702494621E0,-1.472902012E1
9.388926667E0,3.153441191E0,-1.280459166E0,-1.044855881E1
9.410216615E0,6.057430744E0,3.711267948E0,-1.236132145E1
9.431506563E0,1.798206210E0,1.036989570E0,-6.699305058E0
9.452796510E0,1.869990945E0,-1.639681697E0,-7.872386456E0
9.474086510E0,-8.321639061E0,1.463540077E1,4.924129963E0
9.495376458E0,4.728815556E0,4.192524433E0,-1.522941875E1
9.516666406E0,-4.755735025E-2,8.202595711E0,-6.914659023E0
9.537956354E0,-2.865405083E0,1.204756260E1,-5.947659969E0
9.559246354E0,-4.174877167E0,8.065905571E0,-7.357630730E0
9.580536302E0,4.343272209E0,4.115654945E0,-9.588937759E0
9.601826250E0,-1.278066397E0,5.925825119E0,-1.154028416E1
9.623116198E0,5.221737385E0,3.763910055E0,-1.058255768E1
9.644406146E0,-2.381755829E0,9.629316330E0,2.472383976E0
9.665696146E0,4.922634602E0,2.980858803E0,-1.340519047E1
9.686986094E0,-7.564908981E0,1.102283669E1,-7.594220638E-1
9.708276042E0,2.241177559E0,2.662613392E0,-1.725255013E1
9.729565990E0,-5.024927258E-1,3.256332397E0,-1.156929731E0
9.750855990E0,-2.618944407E0,1.470479202E1,2.633002281E0
9.772145938E0,4.611268520E0,6.681957245E-1,-2.058276176E1
9.793435885E0,-3.727419376E0,6.236892223E0,-8.698508263E0
9.814725833E0,5.246263742E-1,1.049372387E1,-4.314857483E0
9.836015781E0,6.753742099E-1,2.827718258E0,-8.344071388E0
9.857305781E0,-3.131606579E-1,1.182712460E1,-2.050050735E0
9.878595729E0,5.356034279E0,7.185048103E0,-9.373583794E0
9.899885677E0,7.206583500E0,2.638685226E0,-1.067348480E1
9.921175625E0,6.129215240E0,1.127886868E1,-3.768994808E0
9.942465573E0,3.976871252E0,2.609971285E0,-1.376202011E1
9.963755573E0,2.897109985E0,1.496710539E0,-3.500699520E0
9.985045521E0,-3.006581545E0,2.073799515E1,1.286142170E-1
1.000633547E1,-8.853443861E-1,3.371187925E0,-6.155835152E0
1.002762542E1,-2.384148598E0,8.688637733E0,-7.666603565E0
1.004891537E1,-1.680359721E0,1.311984634E1,-8.468498230E0
1.007020537E1,-1.959123611E-1,7.120441914E0,-8.542675972E0
1.009149531E1,-8.446664214E-1,1.106112194E1,-3.167499006E-1
1.011278526E1,1.436890006E0,3.689732552E0,-7.680960655E0
1.013407521E1,2.320140600E0,8.587840080E0,-2.581556559E0
1.015536516E1,5.518746376E0,3.447758436E0,-1.009890842E1
1.017665510E1,1.252343535E0,1.249023533E1,-3.393022537E0
1.019794510E1,-2.389831543E-1,2.997010350E-1,-1.024247742E1
1.021923505E1,-1.819143414E0,1.006271648E1,4.172185421E0
1.024052500E1,4.450949192E0,4.697410107E0,-1.063519955E1
1.026181495E1,-2.183151484E0,1.025653553E1,-4.149752617E0
1.028310490E1,-9.092726111E-1,8.516056061E0,-6.282654762E0
1.030439484E1,-3.006581545E0,3.919443607E0,-1.289043427E1
1.032568484E1,-5.234299600E-2,8.961420059E0,-1.290718460E1
1.034697479E1,3.483650684E0,5.344070435E0,-1.185135174E1
1.036826474E1,2.231307179E-1,1.093669510E1,-4.939683437E0
1.038955469E1,2.590230405E-1,1.140090275E1,-4.891826630E0
1.041084464E1,3.696911097E0,6.229713917E0,-9.354440689E0
1.043213458E1,5.315356255E0,2.157428741E0,-9.766305923E0
1.045342458E1,1.144666553E0,9.385248184E0,4.232304990E-1
1.047471453E1,3.038585663E0,2.279462576E0,-8.080861092E0
1.049600448E1,-3.691227913E0,1.603849220E1,6.034997940E0
1.051729443E1,1.254736423E0,1.015603638E1,-7.410272598E0
1.053858438E1,-9.598209858E-1,8.915956497E0,-1.095374393E1
1.055987432E1,-2.817548752E0,6.236892223E0,-6.773482800E0
1.058116427E1,1.613958836E0,8.176275253E0,-2.509771824E0
1.060245427E1,1.637887120E0,-6.317051649E-1,-1.641446495E1
1.062374422E1,-2.393719912E0,9.900004387E0,-5.231607437E0
1.064503417E1,5.868397713E0,2.822932482E0,-1.320658684E1
1.066632412E1,3.780659676E0,4.618446827E0,-7.386344433E0
1.068761406E1,-2.898904562E0,1.016560745E1,-6.919445038E0
1.070890401E1,-2.065903187E0,7.738089561E0,-1.129591751E1
1.073019396E1,-1.409671664E0,2.997608662E0,-5.229214668E0
1.075148391E1,5.458925724E0,-6.049654007E0,-1.053470039E1
1.077277391E1,-2.250150681E0,1.542563057E1,-6.565307379E-1
1.079406385E1,2.739183664E0,7.951050758E0,-7.283452988E0
1.081535380E1,-2.386541367E0,3.613940048E1,-4.640281200E0
1.083664375E1,-4.754239559E0,1.079043388E1,-6.136693001E0
1.085793370E1,1.226022482E0,-1.024427176E0,-7.970492363E0
1.087922365E1,-1.253510094E1,3.591656876E1,9.494421005E0
1.090051359E1,-8.970393181E0,1.016560745E1,-9.555438042E0
1.092180354E1,-5.280959606E0,-1.408774406E-1,-7.970492363E0
1.094309349E1,-4.689633369E0,5.037489891E0,-1.132463169E1
1.096438344E1,-2.633301258E0,2.484856606E1,9.355936646E-1
1.098567344E1,5.128417015E0,1.534397453E-1,-2.178455734E1
1.100696338E1,2.312962294E0,9.856933594E0,1.933699846E0
1.102825333E1,5.552245617E0,2.384746790E0,-1.426959801E1
1.104954328E1,-6.473183632E0,6.919145584E0,3.415754437E-1
1.107083323E1,-2.707478762E0,1.647458434E0,-3.730709553E0
1.109212318E1,-4.277170449E-2,5.198407173E-1,-1.356072426E1
1.111341313E1,-2.118545294E0,5.961717606E0,-1.861944962E1
1.113470307E1,2.641077995E0,8.144569993E-1,-1.085533905E1
1.115599302E1,1.908575177E0,1.264846039E1,-9.308977127E0
1.117728297E1,-3.454338551E0,1.064207840E1,-7.752745152E0
1.119857292E1,2.511865616E0,1.321825123E1,1.574776411E0
1.121986287E1,-7.752745152E-1,2.717648268E0,-1.006181955E0
1.124115281E1,-8.183453679E-1,3.093620539E0,-5.471189022E0
1.126244276E1,6.370890141E-1,5.990431309E0,-6.677769661E0
1.128373271E1,-1.728216171E0,4.252345085E0,-1.223928738E1
1.130502266E1,-2.154437780E0,8.291130066E0,-3.393022537E0
1.132631260E1,-1.900499344E0,2.423032045E0,-9.055039406E0
1.134760255E1,2.492722988E0,8.520841599E0,-1.872682810E0
1.136889250E1,-1.945963025E0,2.315355062E0,-7.039385319E0
1.139018245E1,-1.543968797E0,7.807481289E0,4.933701038E0
1.141147240E1,2.518445849E-1,2.803789854E0,-1.346501160E1
1.143276234E1,6.035895348E-1,1.176730347E1,2.587538481E0
1.145405229E1,4.178167343E0,4.202095509E0,-1.962981987E1
1.147534224E1,2.600399971E0,2.564507723E0,-1.761147308E1
1.149663219E1,-1.857428551E0,8.932705879E0,-9.726824164E-1
1.151792214E1,3.318545818E0,6.888039112E0,-1.024247742E1
1.153921208E1,-9.408578873E0,1.481037617E1,5.620142221E-1
1.156050203E1,7.278368473E0,3.754338741E0,-1.507627773E1
1.158179198E1,1.031904742E-1,6.919145584E0,-1.274925804E1
1.160308193E1,-1.728216171E0,1.382632732E1,-9.320043921E-1
1.162437188E1,-4.083950043E0,1.534636784E1,-3.637389421E0
1.164566182E1,-3.073580742E0,1.311266804E1,3.250649452E0
1.166695177E1,-3.547658682E0,1.245165110E0,-9.905089378E0
1.168824167E1,-1.491326690E0,8.204988480E0,3.241078377E0
1.170953162E1,5.104488850E0,-5.024927258E-1,-1.664447403E1
1.173082156E1,6.236892223E0,1.526261902E1,-2.274976015E0
1.175211151E1,-6.412764788E-1,1.263171101E1,-1.105663490E1
1.177340146E1,9.077770710E-1,9.833005905E0,-8.356036186E0
1.179469141E1,1.850848317E0,4.989633560E0,-8.518747330E0
1.181598135E1,-1.354636669E0,3.136691332E0,-1.070459080E1
1.183727125E1,-3.909274101E0,9.457033157E0,-2.906980515E0
1.185856120E1,-2.197508574E0,3.716053486E0,-1.070698357E1
1.187985115E1,-3.521337509E0,7.103692055E0,7.597211748E-2
1.190114109E1,3.627519131E0,4.410271168E0,-1.324247837E1
1.192243104E1,-1.416850090E0,1.988106537E1,3.303291559E0
1.194372099E1,4.156631947E0,3.890729666E0,-1.470509148E1
1.196501088E1,1.532602906E0,2.145464659E0,-2.239083767E0
1.198630083E1,-3.131606579E-1,3.359223843E0,-1.076680470E1
1.200759078E1,2.733799815E-1,2.892324448E0,-2.638984203E0
1.202888073E1,-3.667299747E0,5.679065228E0,-1.073180914E0
1.205017068E1,-4.139583111E-1,7.730910778E0,-9.342476845E0
1.207146057E1,-1.651645780E0,2.210070848E0,-1.363490200E1
1.209275052E1,1.606780410E0,7.003193855E0,-5.440082073E0
1.211404047E1,-5.060820103E0,6.246463299E0,-7.343273640E0
1.213533042E1,-2.037189484E0,9.904789925E0,-5.200500965E0
1.215662031E1,2.631506681E0,5.068596363E0,-1.589013672E1
1.217791026E1,3.004786968E0,1.057507992E1,-7.077670097E0
1.219920021E1,4.668695927E0,9.277571678E0,-1.167667580E1
1.222049016E1,-6.915257573E-1,8.915956497E0,-3.802494287E0
1.224178005E1,2.291426897E0,5.420640469E0,-1.611296844E1
1.226307000E1,9.149555564E-1,1.218844056E0,-1.232303619E1
1.228435995E1,3.509971619E0,6.859325409E0,-1.570349693E1
1.230564990E1,-6.197410822E-1,1.310788250E1,-2.018944025E0
1.232693979E1,3.512364626E0,1.082453132E0,-1.302204037E1
1.234822974E1,-4.977071285E0,9.626923561E0,1.409372568E0
1.236951969E1,-3.985844374E0,1.072582722E1,-5.767899036E0
1.239080958E1,-1.060319543E0,3.174976587E0,-8.250751495E0
1.241209953E1,1.199701428E0,7.455437183E0,1.196411371E0
1.243338948E1,7.180262566E0,-8.853443861E-1,-1.721905136E1
1.245467938E1,-8.159525394E-1,3.471686602E0,-8.234002113E0
1.247596932E1,1.247258782E-1,4.546662331E0,-8.547461510E0
1.249725927E1,-3.516551971E0,1.618744493E0,-6.402595043E0
1.251854917E1,-3.564408541E0,1.022303581E1,-5.236393452E0
1.253983912E1,6.059823632E-1,-3.107678294E-1,-1.562453365E1
1.256112906E1,6.538686752E0,-5.058426857E0,-1.314915848E1
1.258241896E1,1.740778446E0,-2.092224360E0,-9.086145401E0
1.260370891E1,4.654339314E0,4.719842672E-1,-6.890730858E0
1.262499885E1,1.338784218E0,3.442972660E0,-8.837292671E0
1.264628875E1,-4.378865361E-1,2.420639277E0,-6.785446644E0
1.266757870E1,6.217749596E0,4.829314232E0,-7.345666409E0
1.268886865E1,3.930211067E-1,-2.294118702E-1,-1.203829098E1
1.271015854E1,-5.010570526E0,1.694567108E1,1.811665893E0
1.273144849E1,3.451646566E-1,8.140382767E0,-1.752293968E1
1.275273838E1,3.347259760E0,3.361616611E0,-3.864707708E0
1.277402833E1,-1.689931035E0,1.477179146E1,-3.074777126E0
1.279531828E1,-2.654836655E0,1.072343445E1,3.238685369E0
1.281660818E1,-2.400898457E0,3.711267948E0,-1.351047516E1
1.283789812E1,-4.259224236E-1,7.067800045E0,-6.577271461E0
1.285918807E1,1.336391449E0,4.340879440E0,-1.512413502E1
1.288047797E1,2.676970243E0,1.564816284E1,-1.042074203E0
1.290176792E1,4.055834293E0,4.074976921E0,-1.179392338E1
1.292305781E1,5.904289722E0,5.197809219E0,-1.121216869E1
1.294434776E1,-6.032904148E0,5.686244011E0,-2.449652195E0
1.296563771E1,2.107179403E0,-1.484148264E0,-1.671625900E1
1.298692760E1,-2.738585472E0,1.258864021E1,-1.516152263E0
1.300821755E1,6.419045925E0,4.161417484E0,-2.292174530E1
1.302950745E1,-3.935595036E0,8.030014038E0,-5.255535603E0
1.305079740E1,4.671088696E0,5.885147095E0,-6.040979862E0
1.307208734E1,-1.091904831E1,1.397468281E1,1.146162033E0
1.309337724E1,-7.991130352E0,1.093669510E1,9.166305542E0
1.311466719E1,-1.091426182E1,7.711768150E0,-3.172882795E0
1.313595708E1,-5.506184101E0,1.176730347E1,-2.258226424E-1
1.315724703E1,1.034058285E1,-4.067200184E0,-2.641227531E1
1.317853693E1,4.103690624E0,1.416610813E1,3.050848842E-2
1.319982688E1,1.020239711E0,3.244368315E0,-1.529163265E1
1.322111682E1,-8.146663666E0,7.438687325E0,1.430907965E0
1.324240672E1,-6.813263416E0,1.002921677E1,-1.457348633E1
1.326369667E1,-2.250150681E0,1.683350682E0,-8.463712692E0
1.328498656E1,6.143572330E0,4.800600529E0,-3.574278951E-1
1.330627651E1,1.333699465E0,4.695017338E0,-1.451127338E1
1.332756641E1,3.234797001E0,6.153143406E0,-4.185645103E0
1.334885635E1,3.072085142E0,-2.039582253E0,-1.180110264E1
1.337014625E1,1.405783296E0,5.037489891E0,-4.329214573E0
1.339143620E1,-6.030511379E0,9.140881538E0,-2.708376169E0
1.341272609E1,9.125627279E-1,8.432307243E0,-9.593723297E0
1.343401604E1,-2.982653379E0,2.327319145E0,-7.994420528E0
1.345530599E1,1.348355532E0,2.327319145E0,-7.994420528E0
1.347659588E1,8.518448830E0,-1.388136268E0,-1.818874168E1
1.349788583E1,7.431509018E0,4.132404804E0,2.652144909E0
1.351917573E1,5.698207855E0,-1.321137190E0,-1.676890182E1
1.354046568E1,-4.857429981E0,1.065882874E1,1.251565838E1
1.356175557E1,6.572186470E0,-3.837489367E0,-2.876322365E1
1.358304552E1,-6.487540245E0,1.536072540E1,1.426810265E1
1.360433542E1,3.555435419E0,3.783052683E0,-1.414247894E1
1.362562537E1,-4.400101662E0,9.754042625E0,-3.249453068E0
1.364691526E1,5.020740032E0,5.906682491E0,-1.192552853E1
1.366820521E1,-8.853443861E-1,1.675663757E1,4.469194412E0
1.368949510E1,5.887540340E0,-2.381755829E0,-1.584467316E1
1.371078505E1,4.568197727E0,1.563141346E1,-6.926623344E0
1.373207495E1,2.250748873E0,7.734799385E-1,-1.539721584E1
1.375336490E1,-1.241276711E-1,1.002682400E1,-2.469093800E0
1.377465479E1,-3.294019461E0,8.070990562E0,-1.034895778E-1
1.379594474E1,-4.558028221E0,8.070990562E0,5.546562672E0
1.381723464E1,4.815555736E-2,3.498007536E0,-1.072134113E1
1.383852458E1,-2.417648077E0,1.052483082E1,-1.150917816E1
1.385981448E1,1.013061285E0,1.361546040E1,-4.772185802E0
1.388110443E1,-1.821536183E0,1.016800117E1,-2.691626310E0
1.390239432E1,-1.839482337E-1,1.417747378E0,-1.495903015E1
1.392368427E1,-4.665705204E0,1.113529968E1,-4.534996986E0
1.394497417E1,-4.689932466E-1,4.134797573E0,-1.923949051E1
1.396626412E1,-5.439185143E0,3.833301783E0,-1.733899117E0
1.398755401E1,5.358427048E0,1.764706731E0,-2.298904419E0
1.400884396E1,7.465008259E0,-1.917249203E0,-5.116752148E0
1.403013385E1,2.483151674E0,8.662317276E0,-3.084348440E0
1.405142380E1,5.399105072E0,4.834099770E0,-1.411137199E1
1.407271370E1,-4.984249592E0,2.041975021E1,-7.905886173E0
1.409400365E1,-1.814357758E0,1.225334549E1,-1.113799095E1
1.411529354E1,-5.362315655E0,7.572984695E0,-4.518247128E0
1.413658349E1,-2.324328184E0,9.880862236E0,-8.085646629E0
1.415787338E1,2.108674943E-1,3.792623997E0,-7.783852100E0
1.417916333E1,3.576970816E0,8.389236450E0,-9.737292290E0
1.420045323E1,3.723232031E0,2.391925335E0,-1.235653591E1
1.422174318E1,-1.450349569E0,7.180262566E0,3.975973845E0
1.424303307E1,2.760719061E0,4.166203499E0,-5.957231045E0
1.426432302E1,-4.037888348E-2,7.663911819E0,-9.627223015E0
1.428561292E1,2.300997972E0,5.018347263E0,-9.967302322E0
1.430690281E1,-2.398505688E0,6.349354744E0,-6.519843578E0
1.432819276E1,-6.245267391E-1,7.122834682E0,-7.597211838E0
1.434948266E1,1.769492388E0,3.639483213E0,-1.123609734E1
1.437077260E1,6.251249313E-1,8.350951195E0,-6.431309223E0
1.439206250E1,4.553840637E0,2.217249393E0,-1.148524952E1
1.441335245E1,2.733799815E-1,1.063011456E1,-8.698508263E0
1.443464234E1,-2.997010469E0,6.047859192E0,-3.457628727E0
1.445593229E1,2.497508526E0,6.172286034E0,-1.202154064E1
1.447722219E1,1.438684613E-1,7.616055489E0,-4.839184761E0
1.449851208E1,6.981658459E0,2.451745987E0,-1.051316547E1
1.451980203E1,6.801598072E-1,1.062772179E1,-4.760221481E0
1.454109193E1,5.315356255E0,1.285843015E0,-1.216750336E1
1.456238188E1,-1.859821439E0,1.416610813E1,2.979961395E0
1.458367177E1,-2.044367790E0,1.001486015E1,-7.345666409E0
1.460496172E1,-1.127109241E1,2.123360825E1,-7.470093250E0
1.462625162E1,-2.997010469E0,7.041478634E0,-1.212682533E1
1.464754151E1,-4.574777603E0,4.130012035E0,-6.550950050E0
1.466883146E1,-6.188437462E0,1.148016453E1,-6.084050655E0
1.469012135E1,-2.434397936E0,1.175055408E1,-3.199203968E0
1.471141130E1,3.493221998E0,7.022336483E0,-9.311369896E0
1.473270120E1,7.170691490E0,3.854837179E0,-4.015455723E0
1.475399115E1,-7.728816867E-1,7.146762848E0,-1.002473068E1
1.477528104E1,2.012962103E-1,4.417449474E0,-8.451748848E0
1.479657094E1,-6.460621357E-1,-2.654836655E0,-1.487767410E1
1.481786089E1,-2.941975355E0,1.886740685E0,-5.837589741E0
1.483915078E1,-5.000999570E-1,6.114858150E0,-9.325727463E0
1.486044073E1,5.116453171E0,1.697707653E0,-1.092981529E1
1.488173063E1,9.821041107E0,2.897109985E0,-5.128716469E0
1.490302057E1,5.224130154E0,4.769493580E0,-5.011467934E0
1.492431047E1,3.897907972E0,8.659924507E0,-4.379463673E0
1.494560036E1,-4.331009090E-1,8.018049240E0,-6.361618042E0
1.496689031E1,-2.683550596E0,1.067079258E1,-7.137490749E0
1.498818021E1,2.925225794E-1,5.662315845E0,-8.174180984E0
1.500947016E1,-7.178468108E-1,2.281855583E0,-1.090828037E1
1.503076005E1,1.580459356E0,6.689435005E0,-1.369891018E-1
1.505204995E1,-2.472683191E0,8.726922989E0,-5.966802597E0
1.507333990E1,4.482056141E0,5.212165833E0,-6.467201233E0
1.509462979E1,3.625126362E0,8.437092781E0,-9.500403404E0
1.511591974E1,2.504687071E0,5.423033237E0,-1.235653591E1
1.513720964E1,-1.993819475E0,7.728518009E0,-2.808874607E0
1.515849953E1,-2.022533417E0,4.762315273E0,-4.994718075E0
1.517978948E1,-3.573979616E0,4.381557465E0,-8.377571106E0
1.520107938E1,-4.043870270E-1,6.622435570E0,-2.952444077E0
1.522236932E1,2.210070848E0,6.093322754E0,-8.947361946E0
1.524365922E1,3.403790295E-1,1.077129078E1,-6.014658928E0
1.526494912E1,2.111965179E0,4.434199333E0,-1.056102180E1
1.528623906E1,2.789433002E0,5.624030590E0,-6.131906986E0
1.530752896E1,-1.898106575E0,5.810670853E0,-7.666603565E0
1.532881891E1,7.040880919E-1,5.185844898E0,-7.523034573E0
1.535010880E1,-2.166401863E0,6.481259346E0,-1.072134113E1
1.537139870E1,4.265206456E-1,6.483652115E0,-7.080062866E0
1.539268865E1,8.659924507E0,1.142273664E0,-1.282582855E1
1.541397854E1,-9.755537987E0,8.630910873E0,-3.334996700E-1
1.543526844E1,-1.033998489E0,1.186062336E1,3.621536970E0
1.545655839E1,-2.796013355E0,4.946562767E0,-1.805683708E1
1.547784828E1,-2.420041084E0,9.023633003E0,6.580262445E-3
1.549913818E1,-3.876372576E-1,6.433403015E0,-1.567956829E1
1.552042812E1,-1.337886930E0,1.349342632E1,-2.729911566E0
1.554171802E1,9.126524925E0,-8.207381964E-1,-1.431506157E1
1.556300797E1,7.208378315E-1,1.092712402E1,1.916949987E0
1.558429787E1,2.605185747E0,8.360522270E0,-1.497817230E1
1.560558776E1,-5.395814896E0,3.924229145E0,-7.994420528E0
1.562687771E1,-1.445564032E0,8.889635086E0,-1.146850014E1
1.564816760E1,-5.527719498E0,4.438984871E0,1.759023786E0
1.566945755E1,4.309772491E0,-1.630110383E0,-8.624032021E0
1.569074745E1,4.371985912E0,3.797409534E0,-1.440359592E1
1.571203734E1,2.336890459E0,1.131236839E1,-9.023932457E0
1.573332729E1,4.624129832E-1,5.446961880E0,-2.825624466E0
1.575461719E1,-3.614657640E0,5.535496235E0,-4.982754230E0
1.577590708E1,-7.345965505E-1,6.457331181E0,-9.179466248E0
1.579719703E1,-1.112961650E0,6.457331181E0,-8.911469460E0
1.581848693E1,-2.092224360E0,5.106881618E0,-5.832804203E0
1.583977682E1,-2.405683994E0,8.606983185E0,-4.633102894E0
1.586106677E1,-9.646066427E-1,8.590232849E0,-2.504986286E0
1.588235667E1,8.862416744E-1,5.769992828E0,-4.908576488E0
1.590364656E1,1.240379453E0,2.665006161E0,-8.530712128E0
1.592493651E1,3.088835001E0,5.082953453E0,-7.441379547E0
1.594622641E1,6.203392744E-1,7.275975227E0,-1.159292698E1
1.596751635E1,-1.510469317E0,6.318248272E0,-6.739983082E0
1.598880625E1,-5.544469357E0,7.400402069E0,-3.093919754E0
1.601009615E1,3.212364316E-1,2.717648268E0,-1.365643692E1
1.603138604E1,-1.121635586E-1,5.013561726E0,-7.336095333E0
1.605267599E1,1.326521039E0,4.367200375E0,-9.929018021E0
1.607396588E1,-4.402793646E-1,6.028716564E0,-1.796112537E0
1.609525583E1,3.619144112E-2,3.658625841E0,-1.020179939E1
1.611654573E1,2.061715841E0,2.775076151E0,-5.085645199E0
1.613783562E1,4.273880482E0,6.057430744E0,-6.107978821E0
1.615912552E1,4.333701134E0,2.217249393E0,-1.612014771E1
1.618041547E1,-4.259224236E-1,5.638387680E0,-3.874279022E0
1.620170537E1,1.831705689E0,5.612066269E0,-1.107338524E1
1.622299526E1,-3.756133318E0,1.520997715E1,-4.005884171E0
1.624428521E1,-3.948157430E-1,-5.958128572E-1,-1.161924744E1
1.626557510E1,-3.349054337E0,6.220142365E0,-9.203693390E0
1.628686500E1,-3.600300789E0,6.083751678E0,-4.692923546E0
1.630815495E1,-5.582754135E0,8.657531738E0,-5.942873955E0
1.632944484E1,1.278664589E0,4.374378681E0,-1.974078640E-2
1.635073474E1,5.856433392E0,4.259523392E0,-9.292227745E0
1.637202469E1,3.273082256E0,6.672685146E0,-1.136052418E1
1.639331458E1,-5.958128572E-1,3.488436222E0,-1.342433357E1
1.641460448E1,-7.373483181E0,5.923432350E0,-4.331607342E0
1.643589443E1,-8.050951004E0,5.099703312E0,-1.447777367E1
1.645718432E1,-1.306780219E0,9.580263495E-1,-4.942076206E0
1.647847422E1,5.063810825E0,8.133204460E0,-1.017547798E1
1.649976417E1,7.287939548E0,8.892027855E0,-3.510270834E0
1.652105406E1,7.702197075E0,5.073382378E0,-3.091526747E0
1.654234396E1,-2.461616248E-1,7.465008259E0,-5.985944748E0
1.656363385E1,-9.302995682E0,6.868896484E0,-5.217250824E0
1.658492380E1,-1.200598717E1,1.075454140E1,-6.984350204E0
1.660621370E1,-5.192425251E0,5.750850201E0,-1.164078331E1
1.662750359E1,-9.406784177E-1,6.375676155E0,-1.114038372E1
1.664879354E1,4.735994339E0,5.925825119E0,6.146563292E-1
1.667008344E1,2.037787676E0,6.641578197E0,3.391826153E-1
1.669137333E1,3.771088600E0,5.808278084E0,-4.190430641E0
1.671266328E1,3.759124279E0,5.789135456E0,-1.093699455E1
1.673395318E1,2.078465462E0,7.896015644E0,-1.058255768E1
1.675524307E1,-2.949153900E0,5.952146530E0,-9.632008553E0
1.677653297E1,-2.126621157E-1,7.706982613E0,-9.364012718E0
1.679782292E1,-1.862214208E0,4.374378681E0,-8.080861092E0
1.681911281E1,4.456632137E-1,9.888040543E0,-4.369892120E0
1.684040271E1,2.944966555E0,9.069096565E0,-4.961218834E0
1.686169260E1,3.553042412E0,3.294617653E0,-8.523533821E0
1.688298255E1,-4.510171413E0,1.027807045E1,3.528217077E0
1.690427245E1,-7.848458290E-1,6.732505798E0,-1.668276024E1
1.692556234E1,-3.746562004E0,1.082871914E1,-1.709970832E0
1.694685224E1,1.017846942E0,6.009573936E0,-1.295025539E1
1.696814219E1,-7.561319470E-1,1.441765404E1,5.979065299E-1
1.698943208E1,2.190928221E0,3.677768469E0,-1.491356659E1
1.701072198E1,-3.930809498E0,8.046763420E0,1.909771562E0
1.703201188E1,-4.342673779E0,3.306581736E0,-4.954040051E0
1.705330182E1,-4.407280445E0,5.377569675E0,-5.563312769E-2
1.707459172E1,1.144666553E0,3.450151205E0,-1.149721336E1
1.709588162E1,5.724828243E-1,1.056311512E1,-1.047248745E1
1.711717151E1,-1.935195327E-1,1.158544922E1,-7.450950623E0
1.713846146E1,2.243570328E0,4.863412082E-1,-4.487140656E0
1.715975135E1,-9.020941257E-1,3.694518089E0,-6.313761711E0
1.718104125E1,2.662015148E-2,3.423830032E0,-1.513370609E1
1.720233115E1,-1.591825247E0,3.933800459E0,-1.142034435E1
1.722362109E1,1.707278967E0,4.608875751E0,-2.198405743E0
1.724491099E1,3.795016766E0,7.690232754E0,-3.239881754E0
1.726620088E1,2.305783749E0,-6.939185858E-1,-1.130788136E1
1.728749078E1,-4.646562576E0,6.825825691E0,-3.381058455E0
1.730878068E1,-6.968796730E0,6.859325409E0,-1.156660557E1
1.733007062E1,-7.292127132E0,7.632805347E0,-1.205982590E1
1.735136052E1,-8.525029182E0,9.931111336E0,-1.379761338E0
1.737265042E1,-2.573181629E0,5.820241928E0,-5.715256691E0
1.739394031E1,-6.699903607E-1,9.208179474E0,-1.704886109E-1
1.741523026E1,6.433403015E0,1.482353687E0,-1.258654594E1
1.743652016E1,1.709671736E0,4.901099205E0,-3.534198999E0
1.745781005E1,-2.000998020E0,4.202095509E0,1.560419440E0
1.747909995E1,-7.489534616E-1,4.103690624E0,-1.041506004E1
1.750038984E1,-3.581158161E0,1.300738430E1,-5.586044312E0
1.752167974E1,6.248856544E0,9.648459435E0,-1.448973751E1
1.754296969E1,7.321439266E0,6.840182781E0,-1.158574772E1
1.756425958E1,5.449354649E0,6.270391941E0,-8.636295319E0
1.758554948E1,2.298605204E0,7.218547821E0,-9.560223579E0
1.760683938E1,-2.724228621E0,5.971288681E0,-9.631111473E-2
1.762812927E1,-5.814558864E-1,7.929216027E-1,-1.567956829E1
1.764941917E1,-5.113461971E0,6.560222149E0,-3.400201082E0
1.767070912E1,2.753540754E0,2.964108944E0,-9.169894218E0
1.769199901E1,3.471686602E0,6.174678802E0,-1.353679562E1
1.771328891E1,1.249950767E0,6.837790012E0,-2.461616278E0
1.773457880E1,2.212463617E0,4.632803917E0,-7.092027187E0
1.775586870E1,-6.436693072E-1,5.473282814E0,-9.011968613E0
1.777715859E1,-4.912465096E0,6.935895443E0,-9.679864883E0
1.779844849E1,-2.717050076E0,1.011535835E1,-5.095216751E0
1.781973838E1,8.144569993E-1,3.783052683E0,-8.277072906E0
1.784102828E1,-1.025922745E-1,5.255236626E0,-3.443271875E0
1.786231823E1,2.799004316E0,4.508377075E0,-9.129216194E0
1.788360813E1,1.365105271E0,-5.288137794E-1,-3.328416348E0
1.790489802E1,-7.872386575E-1,2.901297435E-2,-7.824530125E0
1.792618792E1,-5.123033047E0,3.816552162E0,-3.620639801E0
1.794747781E1,-3.552444220E0,5.837290764E0,-1.049641609E1
1.796876771E1,-7.298108935E-1,6.251249462E-2,-1.257218933E1
1.799005760E1,5.533402413E-2,4.168596268E0,-1.154028416E1
1.801134750E1,2.401496649E0,5.482853889E0,-1.485135269E1
1.803263740E1,3.940979004E0,4.929812908E0,1.262213886E-1
1.805392729E1,7.204190731E0,1.254736423E0,-7.115656137E-1
1.807521719E1,8.766704202E-1,4.017549038E0,-7.616354465E0
1.809650708E1,-3.277269602E0,9.246464729E0,-5.554937840E0
1.811779698E1,-2.424826622E0,7.855337620E0,-1.576570988E1
1.813908688E1,-7.574480057E0,1.098694420E1,-5.684150219E0
1.816037677E1,-2.985046148E0,6.476473808E0,-8.143074989E0
1.818166667E1,-4.977070987E-1,6.100501537E0,-5.562116146E0
1.820295656E1,3.210868835E0,-1.884347759E-2,-5.279763222E0
1.822424646E1,2.327020019E-1,1.125015450E1,-6.749554634E0
1.824553635E1,-2.319542408E0,9.052347183E0,-1.997408748E0
1.826682625E1,3.115155935E0,1.621137381E0,-7.673782349E0
1.828811615E1,-3.044866800E0,1.026849937E1,-8.329714775E0
1.830940604E1,5.413761139E-1,2.446960211E0,-1.478644753E1
1.833069594E1,-1.663609982E0,5.750850201E0,-8.289036751E0
1.835198583E1,-9.981061220E-1,1.272503090E1,-3.649353743E0
1.837327568E1,6.729813814E-1,5.332106113E0,-9.830911636E0
1.839456557E1,-1.648056656E-1,1.010339451E1,-2.911766052E0
1.841585547E1,4.304986954E0,8.896813393E0,-7.898707390E0
1.843714537E1,4.127619267E0,5.051846981E0,-7.125526905E0
1.845843526E1,-1.097707376E-1,9.847362518E0,-1.169342518E1
1.847972516E1,-5.364708424E0,8.750851631E0,-4.508676052E0
1.850101505E1,2.011466503E0,7.447660714E-2,-1.500210094E1
1.852230495E1,-5.417649746E0,7.953443527E0,9.188438654E-1
1.854359479E1,4.348057747E0,2.858824968E0,-8.360821724E0
1.856488469E1,8.862416744E-1,8.274380684E0,-5.318048477E0
1.858617458E1,1.041775107E0,5.451747417E0,-6.356832504E0
1.860746448E1,-2.901297569E0,9.576674461E0,-7.173383236E0
1.862875432E1,-3.164807081E0,9.018847466E0,-1.300499082E0
1.865004422E1,-2.246262282E-1,1.341177106E0,-3.469592810E0
1.867133412E1,-3.538087368E0,1.266521072E1,-5.933302879E0
1.869262401E1,-9.302098304E-2,1.263171101E1,-1.277318668E1
1.871391391E1,2.140678883E0,5.061418056E0,-8.358428955E0
1.873520375E1,2.980858803E0,1.006032372E1,-3.831208229E0
1.875649365E1,4.257130623E0,4.407878399E0,-9.299406052E0
1.877778354E1,5.557330847E-1,9.128917694E0,-8.401499748E0
1.879907344E1,1.709671736E0,4.850849628E0,-1.170778179E1
1.882036328E1,-5.271388054E0,7.831409454E0,-7.147062302E0
1.884165318E1,-6.090332031E0,4.367200375E0,-8.672187805E0
1.886294307E1,-2.750549555E0,1.082453132E0,-4.041776657E0
1.888423292E1,4.003192425E0,4.616054058E0,-1.269183064E1
1.890552281E1,6.119643688E0,1.007228756E1,-9.976874352E0
1.892681271E1,4.480560422E-1,5.789135456E0,-6.033801556E0
1.894810255E1,-6.388836503E-1,1.017278671E1,-8.930612564E0
1.896939245E1,-2.221436739E0,8.638388634E0,-3.900599957E0
1.899068234E1,-9.068797827E-1,9.059525490E0,-9.481260300E0
1.901197219E1,-4.867001057E0,1.454208088E1,-7.810173035E0
1.903326208E1,-7.058826685E-1,6.979265213E0,-6.646663189E0
1.905455193E1,-7.489534616E-1,8.789136887E0,-1.326640701E1
1.907584182E1,-2.964109182E-1,5.111667156E0,1.622632861E0
1.909713172E1,-9.541380405E-2,3.115155935E0,-3.263211846E-1
1.911842156E1,1.893320978E-1,9.602995872E0,-1.254317665E1
1.913971146E1,1.111167073E0,6.541079998E0,-1.550728512E1
1.916100130E1,-2.333899498E0,8.765208244E0,-1.200957680E1
1.918229120E1,-4.115654826E-1,7.469794273E0,-8.463712692E0
1.920358104E1,-1.354636669E0,3.273082256E0,1.351944804E0
1.922487094E1,-1.081854939E0,8.537590981E0,-1.011565781E1
1.924616078E1,-2.700898647E-1,7.630412102E0,-9.335298538E0
1.926744880E1,-8.853443861E-1,5.573781013E0,-2.483450890E0
1.928916432E1,-1.280459166E0,1.049133110E1,-1.147089291E1
1.931087979E1,1.312164068E0,2.779861689E0,-9.900303841E0
1.933259531E1,6.729813665E-2,5.212165833E0,-9.852447510E0
1.935431078E1,3.742374659E0,6.579364777E0,-1.465484238E1
1.937602630E1,1.285843015E0,5.621637821E0,-3.330809116E0
1.939755542E1,1.869392693E-1,8.911170959E0,-9.059824944E0
1.941884531E1,-2.448754787E0,5.252843857E0,-5.298905849E0
1.944013516E1,-1.086640596E0,5.894718647E0,-7.637889862E0
1.946142500E1,-1.311565876E0,8.621339798E0,-1.134138107E1
1.948271490E1,-5.383850932E-1,7.299903870E0,-8.241180420E0
1.950400474E1,-3.648157120E0,9.483354568E0,-4.152145386E0
1.952529458E1,-1.100997567E0,3.306581736E0,-9.177073479E0
1.954658448E1,-3.509373426E0,3.464508057E0,-9.990034699E-1
1.956787432E1,2.827718258E0,2.193320990E0,-1.142752266E1
1.958916417E1,-9.741778970E-1,1.023499966E1,-8.956933022E0
1.961045406E1,-2.750549555E0,4.340879440E0,-8.100004196E0
1.963174391E1,-7.627122104E-2,5.420640469E0,-1.405633736E1
1.965303375E1,-1.515254974E0,1.123579788E1,1.409372568E0
1.967432365E1,-4.307080805E-1,7.802695751E0,-8.715258598E0
1.969561349E1,3.033800125E0,5.161916733E0,-1.405155182E1
1.971690333E1,-1.979462504E0,4.793421745E0,-7.738388538E0
1.973819323E1,-4.307080805E-1,3.002394199E0,-1.092981529E1
1.975948307E1,1.735992789E0,5.363213062E0,-9.220442772E0
1.978077292E1,1.762313843E0,5.255236626E0,2.429313183E0
1.980206276E1,7.989335537E0,-1.199103236E0,-7.467700481E0
1.982335266E1,3.287439108E0,5.940182209E0,-2.061386871E1
1.984464250E1,-5.410470963E0,8.068299294E0,1.940878272E0
1.986593234E1,2.036890239E-1,4.261916161E0,-1.104227829E1
1.988722219E1,-6.908976078E0,1.613958836E0,-6.230311990E-1
1.990851203E1,-3.540480137E0,-1.815554202E-1,-6.797410965E0
1.992980193E1,-5.455635786E-1,1.533918953E1,-1.319222927E1
1.995109177E1,1.374676585E0,-3.550051451E0,-3.754637718E0
1.997238162E1,4.822135925E0,-2.860619545E0,-5.519045353E0
1.999367146E1,7.953144312E-1,1.652931976E1,-6.014958024E-1
2.001496130E1,2.411067963E0,7.048657417E0,-4.745864391E0
2.003625115E1,-1.938784599E0,7.970192909E0,-1.031665516E1
2.005754099E1,-4.256233215E0,1.638066483E1,-6.289833546E0
2.007883089E1,1.587637782E0,-3.394518137E0,-2.250748825E1
2.010012073E1,-2.748754919E-1,7.824231148E0,4.497908592E0
2.012141057E1,-2.393719912E0,5.377569675E0,-1.459502125E1
2.014270042E1,-6.484549642E-1,4.757529736E0,-1.166501045E0
2.016399026E1,-9.263214469E-1,2.600399971E0,-1.448734474E1
2.018528010E1,-8.920144081E0,1.907647896E1,9.132805824E0
2.020656995E1,3.179762125E0,8.590232849E0,-1.403001690E1
2.022785979E1,1.448854089E0,3.203690529E0,-3.524627686E0
2.024914964E1,7.857431173E-1,8.335995674E-1,-1.075962639E1
2.027043948E1,1.645065546E0,1.551745534E0,-1.142273712E1
2.029172932E1,-1.124925733E0,3.608376503E0,-7.154240608E0
2.031301917E1,2.839682341E0,3.218047380E0,-9.507581711E0
2.033430901E1,-1.484148264E0,4.096512318E0,-6.553342819E0
2.035559885E1,-3.602693558E0,2.167000055E0,5.955137610E-1
2.037688870E1,4.807778835E0,-2.168794632E0,-1.295264816E1
2.039817854E1,-9.239286184E-1,4.304986954E0,2.695215702E0
2.041946839E1,6.011966988E-2,1.083829021E1,-1.005823040E1
2.044075823E1,-3.246163130E0,9.598209381E0,-1.148764229E1
2.046204807E1,-5.235496044E0,5.671886921E0,-2.921337366E0
2.048333787E1,-3.243770123E0,3.153441191E0,-1.121216869E1
2.050462771E1,-2.760120869E0,9.636494637E0,-8.745766878E-1
2.052591755E1,1.618744493E0,2.217249393E0,-1.680479431E1
2.054720740E1,-4.941178799E0,1.229880905E1,-7.726424217E0
2.056849724E1,4.812564373E0,8.786744118E0,-1.085773182E1
2.058978708E1,1.422533035E0,4.510769844E0,-3.745066643E0
2.061107693E1,-1.887338907E-1,4.735994339E0,-1.186810112E1
2.063236677E1,6.418746710E-1,9.978967667E0,-4.848755836E0
2.065365656E1,-5.158925533E0,6.241677761E0,-1.139163017E1
2.067494641E1,-1.024427176E0,6.375676155E0,-1.015872860E1
2.069623625E1,-6.056832314E0,1.331635666E1,-6.943373203E0
2.071752609E1,8.078168869E0,-3.061616659E0,-1.991247177E1
2.073881594E1,4.815555513E-1,6.148357868E0,-1.956730723E0
2.076010578E1,1.855633974E0,9.085846901E0,-4.530211449E0
2.078139563E1,-2.211865425E0,4.110869408E0,-1.411855125E1
2.080268542E1,-2.731407166E0,2.121536493E0,-2.794517756E0
2.082397526E1,-3.823132277E0,8.670991063E-1,-7.402794957E-1
2.084526510E1,-6.879365072E-3,5.554638863E0,-9.536295891E0
2.086655495E1,4.265206456E-1,4.350450516E0,-1.628046608E1
2.088784474E1,-2.940180898E-1,9.746564865E0,1.210768223E0
2.090913458E1,7.738089561E0,-3.798605874E-2,-1.525574017E1
2.093042443E1,-4.213162422E0,6.998407841E0,4.454837322E0
2.095171427E1,7.857431173E-1,2.399103880E0,-9.404690742E0
2.097300406E1,-1.210409355E1,1.049850941E1,-8.858827591E0
2.099429391E1,-1.196710467E0,-6.891329288E-1,-1.112124157E1
2.101558375E1,1.465603895E-2,6.014359951E0,-1.309143162E1
2.103687359E1,-8.046165466E0,4.556233406E0,2.355135679E0
2.105816344E1,-5.234299600E-2,4.822135925E0,-6.366403580E0
2.107945323E1,2.360818624E0,2.732005358E0,-1.118824005E1
2.110074307E1,6.265605927E0,-2.108973980E0,-7.515855789E0
2.112203292E1,1.606182158E-1,5.626423359E0,-1.006181955E0
2.114332271E1,2.068894386E0,8.015656471E0,-1.282582855E1
2.116461255E1,-6.834798813E0,8.935098648E0,-2.251047850E0
2.118590240E1,2.933002472E0,-1.546361685E0,-1.352243900E1
2.120719224E1,3.146262646E0,7.936693668E0,-9.850054741E0
2.122848203E1,2.387139797E0,5.068596363E0,-1.237089348E1
2.124977188E1,7.371688366E0,7.426723480E0,-5.080859661E0
2.127106172E1,2.399103880E0,7.462615490E0,-1.108056355E1
2.129235151E1,2.605185747E0,1.752742529E0,3.178864956E0
2.131364135E1,-4.941178799E0,6.871289253E0,-1.159053421E1
2.133493120E1,-4.187439680E-1,9.698708534E0,-1.090828037E1
2.135622099E1,-3.780659735E-1,3.403790295E-1,-2.674876690E0
2.137751083E1,-2.250150681E0,3.582055569E0,-6.359225273E0
2.139880068E1,-4.428815842E0,9.559925079E0,-6.225227356E0
2.142009047E1,-2.772084951E0,4.776672363E0,-7.692924976E0
2.144138031E1,9.101698995E-1,4.058227062E0,-6.720840454E0
2.146267016E1,-6.412764788E-1,4.733601570E0,-5.782256126E0
2.148395995E1,2.365604401E0,9.279964447E0,-1.047009468E1
2.150524979E1,-2.877369165E0,1.679970932E1,-1.244028473E1
2.152653964E1,-2.577967405E0,1.136261749E1,-4.767399788E0
2.154782943E1,-1.743769497E-1,9.502496719E0,-4.331607342E0
2.156911927E1,-6.532405615E-1,3.610769272E0,-7.338488102E0
2.159040912E1,6.181857109E0,4.970490932E0,-1.085533905E1
2.161169891E1,1.161416292E0,3.488436222E0,-1.150439262E1
2.163298875E1,8.216354847E-1,4.450949192E0,-8.841479421E-1
2.165427854E1,-1.457528114E0,-7.226324677E-1,-1.203829098E1
2.167556839E1,-3.008974552E0,8.465806961E0,-1.264606714E0
2.169685823E1,3.761517286E0,9.907182693E0,-1.526770401E1
2.171814802E1,-8.374879360E-1,6.979265213E0,-4.077668667E0
2.173943787E1,-7.704889178E-1,8.614161491E0,-1.216989613E1
2.176072771E1,4.863412082E-1,3.198904753E0,-2.469093800E0
2.178201750E1,1.046560764E0,7.383652687E0,-3.237488985E0
2.180330734E1,-8.662018180E-1,7.381259441E0,-5.447260857E0
2.182459714E1,-2.049153566E0,4.702494621E0,-9.720542908E0
2.184588698E1,-1.266102314E0,1.326850033E1,-1.138923740E1
2.186717677E1,-2.030908167E-1,7.134799004E0,-6.057729721E0
2.188846662E1,1.800599098E0,4.989633560E0,-7.094419956E0
2.190975646E1,6.346961856E-1,1.079282665E1,-6.268298149E0
2.193104625E1,-3.900300860E-1,3.131905794E0,-8.303393364E0
2.195233609E1,8.982058167E-1,8.700602531E0,-1.327119255E1
2.197362588E1,1.453639746E0,3.778266907E0,-1.493749428E1
2.199491573E1,-1.695913076E-1,4.381557465E0,6.385845542E-1
2.201620552E1,2.296212435E0,3.826123476E0,-1.236610699E1
2.203749536E1,9.843474030E-1,7.656733513E0,-8.123931885E0
2.205878521E1,1.456032634E0,-6.843472719E-1,-1.421904945E1
2.208007500E1,2.485544443E0,9.145667076E0,-1.233739376E1
2.210136484E1,1.537388563E0,4.939383984E0,-8.504390717E0
2.212265464E1,-6.675975323E-1,3.163012505E0,-3.175275564E0
2.214394448E1,-8.105687052E-2,6.045466423E0,-1.008933640E1
2.216523427E1,-3.828516304E-1,6.675077915E0,-1.168893814E0
2.218652412E1,6.984051228E0,2.006680965E0,-1.622782326E1
2.220781391E1,1.774278045E0,4.534698009E0,-5.389832973E0
2.222910375E1,2.897109985E0,5.609673500E0,-9.426225662E0
2.225039359E1,5.647958755E0,2.021037817E0,-5.803791523E0
2.227168339E1,1.269093275E0,3.011965513E0,-9.253942490E0
2.229297323E1,-4.186841488E0,1.329960728E1,-2.063809484E-1
2.231426302E1,-3.613162339E-1,3.773481369E0,-1.080030441E1
2.233555286E1,-7.489534616E-1,8.087740898E0,-6.735197544E0
2.235684266E1,3.847658873E0,5.813063622E0,-1.167667580E1
2.237813250E1,3.714857101E-1,6.390331745E0,-3.788137436E0
2.239942229E1,-1.299601793E0,1.180558872E1,-6.520441920E-2
2.242071214E1,2.542374134E-1,5.090131760E0,-6.668198586E0
2.244200193E1,-5.192425251E-1,2.971287489E0,-1.023290634E1
2.246329177E1,-8.973084688E-1,4.067798615E0,-1.123370457E1
2.248458156E1,-2.913261652E0,9.983753204E0,-1.125523949E1
2.250587141E1,-8.515457153E0,9.634101868E0,1.344766378E0
2.252716120E1,7.447660565E-1,6.174678802E0,-9.371191025E0
2.254845104E1,2.138286114E0,3.933800459E0,-8.573782921E0
2.256974083E1,1.613958836E0,6.244070530E0,-6.816553593E0
2.259103068E1,1.848455548E0,6.055037498E0,-7.527820110E0
2.261232047E1,5.351248741E0,1.654636860E0,-1.047009468E1
2.263361031E1,1.899003863E0,4.822135925E0,-1.220578861E1
2.265490010E1,-1.504487246E-1,7.809874058E0,-8.301000595E0
2.267618995E1,1.245165110E0,6.754041195E0,-8.478069305E0
2.269747974E1,-4.864608288E0,1.114965630E1,-3.486342669E0
2.271876958E1,-1.270887971E0,3.862015724E0,-8.571390152E0
2.274005938E1,-1.091426253E0,7.414759159E0,-1.127677536E1
2.276134922E1,1.178166032E0,6.955337048E0,-1.296939754E1
2.278263901E1,-1.073779166E-1,4.395914078E0,-3.050848961E0
2.280392885E1,1.316949725E0,3.988835335E0,-5.265107155E0
2.282521865E1,-2.446362019E0,7.034300327E0,-2.713161707E0
2.284650849E1,9.915258884E-1,1.231795216E1,-1.397976685E1
2.286779828E1,-4.666004181E-1,5.475675583E0,-9.677472115E0
2.288908812E1,-3.461517096E0,4.639982224E0,-6.754340172E0
2.291037792E1,1.199402362E-1,5.597709656E0,-8.775078773E0
2.293166776E1,-1.407278776E0,4.920241356E0,-2.722733021E0
2.295295755E1,2.648256540E0,8.839385986E0,-1.291197014E1
2.297424734E1,4.546183395E1,-2.197029877E1,-7.840023804E1
2.299553719E1,1.400997639E0,-2.332523537E1,-2.097996902E1
2.301682703E1,-2.094318008E1,3.325724363E0,3.778536224E1
2.303811682E1,-5.450371552E1,6.155536175E-1,4.798416901E1
2.305940662E1,-9.561718941E0,-4.692026138E0,4.422085953E1
2.308069646E1,6.096612930E1,1.384307766E1,-4.019523239E1
2.310198625E1,5.355167007E1,-1.613360643E0,-7.425108337E1
2.312327609E1,4.054907227E1,-1.477358627E1,-5.998716736E1
2.314456589E1,-3.335415268E1,1.086939716E1,2.247039986E1
2.316585573E1,-1.039472103E1,4.289134443E-1,1.391635704E1
2.318714552E1,7.869694710E0,2.629113913E0,-9.438189507E0
2.320843536E1,6.830611229E0,8.872885704E0,-7.657032490E0
2.322972516E1,1.956491470E1,1.125254726E1,9.238089561E0
2.325101500E1,1.707278967E0,-2.545843697E1,-1.391037560E1
2.327230479E1,-1.246810150E1,1.324128270E0,9.305088997E0
2.329359464E1,-1.783251047E0,6.394818425E-1,-2.092971992E1
2.331488443E1,8.178668022E0,1.340728474E1,-4.599603176E0
2.333617422E1,4.797579575E1,-4.660919189E0,4.622334957E0
2.335746406E1,-1.920987892E1,1.509033585E1,-1.176042461E1
2.337875385E1,-2.625345230E1,-9.981061220E-1,2.657857704E1
2.340004370E1,-2.664407969E0,1.021107197E1,7.375576496E0
2.342133349E1,1.893320978E-1,9.528818130E0,-3.581875992E1
2.344262333E1,2.849253654E1,4.097708687E-2,-1.973510361E1
2.346391312E1,6.145965099E0,8.834600449E0,-8.530712128E0
2.348520297E1,6.356533527E0,7.628019333E0,2.865106106E0
2.350649276E1,2.988037348E0,4.221238136E0,6.611967087E0
2.352778255E1,-6.269793510E0,5.834897995E0,1.467099428E0
2.354907240E1,-6.360720634E0,7.575377464E0,-2.129014015E0
2.357036219E1,-1.323530078E0,9.033205032E0,-7.534998417E0
2.359165203E1,-4.763810635E0,9.107381821E0,-7.704888821E0
2.361294182E1,1.316949725E0,3.385545015E0,-1.415683651E1
2.363423162E1,2.779861689E0,2.935395241E0,-1.190638638E1
2.365552146E1,3.103191853E0,1.023260689E1,-3.474378586E0
2.367681125E1,1.999502420E0,5.023132801E0,-7.072884560E0
2.369810109E1,-2.839084148E0,1.168834019E1,4.117150307E0
2.371939089E1,-1.661217093E0,9.181559563E0,-3.292523861E0
2.374068068E1,-1.606182218E0,7.460222721E0,-4.647459984E0
2.376197052E1,-4.895715237E0,9.978967667E0,-1.172931767E1
2.378326031E1,-1.967498422E0,5.535496235E0,-1.007497978E1
2.380455016E1,-3.794418573E0,5.885147095E0,-9.929018021E0
2.382583995E1,6.251249313E-1,6.081358910E0,-6.641877651E0
2.384712974E1,2.901895761E0,1.038365364E1,-5.404190063E0
2.386841958E1,-5.910272002E-1,8.221738815E0,-1.974078640E-2
2.388970938E1,-5.874678612E0,8.475378036E0,-7.154240608E0
2.391099917E1,-4.259224236E-1,8.918349266E0,-6.613163471E0
2.393228901E1,1.420140266E0,6.737291336E0,-1.007019424E1
2.395357880E1,6.538388133E-1,5.662315845E0,-7.585247993E0
2.397486865E1,5.437689424E-1,6.337390900E0,-9.191430092E0
2.399615844E1,-8.853443861E-1,9.885647774E0,-3.850350618E0
2.401744823E1,-9.574281573E-1,4.814957142E0,-2.851945400E0
2.403873807E1,-1.371386528E0,1.122144127E1,-6.340082645E0
2.406002787E1,-6.197410822E-1,1.176251793E1,-9.885947227E0
2.408131771E1,2.427817583E0,6.505187511E0,-4.597210407E0
2.410260750E1,3.711267948E0,6.368497372E0,-2.569293380E-1
2.412389729E1,1.549352646E0,9.140881538E0,-9.256335258E0
2.414518714E1,1.958824396E0,8.789136887E0,-6.529414654E0
2.416647693E1,2.949153781E-1,7.970192909E0,-1.190638638E1
2.418776672E1,-2.436790705E0,8.446663857E0,-2.222334146E0
2.420905656E1,-1.576271951E-1,8.765208244E0,-3.334996700E-1
2.423034635E1,-2.443969250E0,5.755635738E0,-5.226821899E0
2.425163615E1,-1.551147223E0,5.322535038E0,-6.512664795E0
2.427292599E1,1.209272742E0,3.775874138E0,-1.336929798E1
2.429421578E1,-3.083750308E-1,7.986942768E0,-4.724328995E0
2.431550557E1,9.532406926E-1,4.259523392E0,-9.845269203E0
2.433679542E1,5.413761139E-1,8.887242317E0,-6.737590313E0
2.435808521E1,3.694518089E0,4.214059830E0,-1.708505249E1
2.437937500E1,1.479960799E0,7.414759159E0,-3.627818346E0
2.440066484E1,2.985644341E0,3.265903711E0,-1.011326504E1
2.442195464E1,-3.684946895E-1,7.254439831E0,6.314958096E0
2.444324443E1,3.294617653E0,9.847362518E0,-5.926124573E0
2.446453427E1,-1.601396561E0,6.416653156E0,-7.836493969E0
2.448582406E1,1.994716763E0,9.955039978E0,-1.111645603E1
2.450711385E1,1.092024446E0,3.021835804E0,-1.048684406E1
2.452840370E1,1.513460279E0,1.490608883E1,4.591228366E-1
2.454969349E1,2.485544443E0,-1.336989701E-1,-1.027358437E1
2.457098328E1,-3.959523201E0,1.159023476E1,2.536990166E0
2.459227313E1,2.155035973E0,2.626721144E0,-1.471466255E1
2.461356292E1,-2.324328184E0,6.576972008E0,-3.452843189E0
2.463485271E1,-1.766501307E0,1.120947647E1,-9.914660454E0
2.465614255E1,-5.120640397E-1,6.883253574E0,-6.958029270E0
2.467743234E1,4.408775866E-1,8.307880402E0,-9.665508270E0
2.469872214E1,-1.360917836E-1,4.190131664E0,-1.193749332E1
2.472001198E1,-5.187639713E0,1.238973618E1,-1.274178028E-1
2.474130177E1,2.437388897E0,2.626721144E0,-1.539243031E1
2.476259156E1,-6.550053120E0,1.343599796E1,-7.956135273E-1
2.478388141E1,1.084846020E0,5.813063622E0,-9.378369331E0
2.480517120E1,-1.265204996E-1,6.667899609E0,-5.650650501E0
2.482646099E1,9.601201117E-2,5.540281773E0,-4.269393921E0
2.484775078E1,1.731207132E0,4.642374992E0,-7.450950623E0
2.486904062E1,5.049454212E0,3.189333439E0,-1.193270779E1
2.489033042E1,7.606483936E0,7.350152969E0,-7.159026146E0
2.491162021E1,1.865205288E0,8.046763420E0,-6.352046967E0
2.493291005E1,-3.703192234E0,1.633280945E1,7.196115017E0
2.495419984E1,-2.805584431E0,7.982157230E0,-6.146264076E0
2.497548964E1,-5.946463585E0,1.201884937E1,-4.685744762E0
2.499677943E1,-1.397707582E0,7.113263607E0,-1.143948650E1
2.501806927E1,-4.060021877E0,9.150452614E0,-4.482355118E0
2.503935906E1,-8.685946465E-1,5.834897995E0,-7.525427341E0
2.506064885E1,-5.503492355E-1,6.256034851E0,-2.375474691E0
2.508193870E1,2.638685226E0,9.691530228E0,7.167401314E0
2.510322849E1,2.425424814E0,3.072085142E0,-1.293589878E1
2.512451828E1,-5.575276613E-1,7.943871975E0,-1.103270721E1
2.514580807E1,4.398307323E0,5.985645771E0,-1.204068375E1
2.516709792E1,5.490032673E0,4.304986954E0,-1.433420372E1
2.518838771E1,-2.174477577E-1,8.726922989E0,3.504288673E0
2.520967750E1,-4.450650215E-1,4.807778835E0,-5.885446548E0
2.523096729E1,-2.621337175E0,6.193821430E0,-6.289833546E0
2.525225714E1,-1.791625917E-1,5.200201988E0,-1.235653591E1
2.527354693E1,1.518245935E0,1.254736423E0,-1.343629742E1
2.529483672E1,1.132702470E0,1.352692509E1,2.568096876E0
2.531612651E1,7.447660714E-2,1.239452267E1,-1.007497978E1
2.533741635E1,-6.023332596E0,6.667899609E0,3.078067303E0
2.535870615E1,-6.693622112E0,6.553043842E0,-3.304488182E0
2.537999594E1,4.576273263E-2,5.291428089E0,-1.047248745E1
2.540128573E1,5.731707573E0,7.965407372E0,-1.239721394E1
2.542257557E1,8.707780838E0,7.771588802E0,-1.424806213E1
2.544386536E1,6.466902256E0,4.874777794E0,-1.287607765E1
2.546515516E1,-2.898904562E0,9.133703232E0,1.349551916E0
2.548644495E1,1.486541033E-1,4.182952881E0,-6.330511570E0
2.550773479E1,-1.204905796E1,8.750851631E0,-3.414557934E0
2.552902458E1,-5.276174068E0,8.700602531E0,-1.112363434E1
2.555031438E1,-6.044867992E0,8.906385422E0,-1.148524952E1
2.557160417E1,4.098905087E0,6.112465382E0,-5.923731327E0
2.559289401E1,6.131608009E0,5.351248741E0,-1.407548046E1
2.561418380E1,1.812563181E0,8.643174171E0,-7.281060219E0
2.563547359E1,5.597709656E0,9.085846901E0,-1.111645603E1
2.565676338E1,2.547757864E0,-4.881358147E-1,-1.543789387E1
2.567805318E1,-4.459922314E0,1.088883877E1,6.960122585E-1
2.569934302E1,-2.496611357E0,6.883253574E0,-1.183220863E1
2.572063281E1,-5.302495003E0,4.927420139E0,1.577169180E0
2.574192260E1,-4.660919189E0,9.885647774E0,-5.066503048E0
2.576321240E1,-1.280459166E0,8.018049240E0,-8.229216576E0
2.578450219E1,-4.666004181E-1,6.991229534E0,-5.859125137E0
2.580579203E1,2.162214279E0,2.078465462E0,-2.428116798E0
2.582708182E1,-1.354636669E0,5.889933109E0,-1.774577141E0
2.584837162E1,2.334497690E0,1.224138165E1,-7.802994728E0
2.586966141E1,2.403889418E0,3.730410576E0,-1.704886055E1
2.589095120E1,-3.497409344E0,9.564710617E0,7.118647546E-2
2.591224104E1,7.256234884E-1,2.004287958E0,-1.644796371E1
2.593353083E1,-9.051749229E0,1.055593681E1,-2.313261271E0
2.595482062E1,-6.071189404E0,1.063250732E1,-5.315655708E0
2.597611042E1,-7.513462901E-1,4.714458942E0,-8.971290588E0
2.599740021E1,-3.758526087E0,1.160698414E1,-2.469093800E0
2.601869000E1,2.866003275E0,5.451747417E0,-8.868398666E0
2.603997979E1,1.637887120E0,3.828516245E0,-1.188963699E1
2.606126964E1,1.654636860E0,9.313464165E0,-8.324929237E0
2.608255943E1,3.069692373E0,4.065405846E0,-1.335254860E1
2.610384922E1,-1.392921925E0,9.861719131E0,3.238685369E0
2.612513901E1,-8.279166222E-1,5.446961880E0,-1.263679504E1
2.614642880E1,1.319043487E-1,9.203393936E0,-4.579264224E-1
2.616771859E1,2.076072693E0,6.356533527E0,-1.248096275E1
2.618900844E1,-3.299104273E-1,1.171944714E1,-4.709972382E0
2.621029823E1,1.151545867E-1,1.055115128E1,-1.085294628E1
2.623158802E1,-1.771286964E0,1.308634663E1,-4.029812336E0
2.625287781E1,1.300199986E0,3.354438305E0,-1.061605644E1
2.627416760E1,-3.432803154E0,7.680661678E0,2.913261652E-1
2.629545740E1,2.834896564E0,7.686942816E-1,-1.513131332E1
2.631674719E1,-4.917250633E0,9.610174179E0,-7.391129971E0
2.633803698E1,-1.452742457E0,6.172286034E0,-8.418249130E0
2.635932677E1,-3.804588020E-1,1.735992789E0,-8.236394882E0
2.638061662E1,-6.005984545E-1,9.538389206E0,-9.481260300E0
2.640190641E1,3.165405273E0,6.186643124E0,-7.518248558E0
2.642319620E1,2.626721144E0,4.216452599E0,-1.053230762E1
2.644448599E1,1.029811025E0,6.385247231E0,-2.224726915E0
2.646577578E1,3.284149170E-1,2.399103880E0,-9.419047356E0
2.648706557E1,6.299105883E-1,9.684351921E0,-4.132703781E0
2.650835536E1,7.256234884E-1,5.726922035E0,-1.621346664E1
2.652964516E1,6.921239495E-1,1.341177106E0,-4.566103935E0
2.655093500E1,-1.768894196E0,6.351747513E0,-9.157930374E0
2.657222479E1,4.576273263E-1,5.638387680E0,-1.669292927E0
2.659351458E1,3.553042412E0,-3.394518137E0,-1.620389557E1
2.661480438E1,-6.340979934E-1,6.311069489E0,-4.343571186E0
2.663609417E1,6.138786316E0,-1.603789330E0,-1.777448463E1
2.665738396E1,8.527421951E-1,5.736493111E0,-4.561318398E0
2.667867375E1,2.108674943E-1,3.799802303E0,-6.354439735E0
2.669996354E1,-4.500600338E0,9.102596283E0,-5.645864964E0
2.672125333E1,-2.659622431E0,4.501198292E0,-8.473283768E0
2.674254312E1,-1.637288928E0,2.992822886E0,-6.584449768E0
2.676383292E1,-1.747358680E0,7.752446175E0,-4.695316315E0
2.678512271E1,3.811766386E0,6.330212116E0,-1.160010529E1
2.680641255E1,4.391128540E0,5.181059361E0,-8.229216576E0
2.682770229E1,4.106083870E0,2.799004316E0,-7.214061260E0
2.684899214E1,-2.065903187E0,5.980860233E0,-2.054836512E0
2.687028193E1,-3.011367321E0,5.092525005E0,-1.478405476E1
2.689157172E1,-3.401696444E0,7.259225845E0,-6.818946362E0
2.691286151E1,2.732005358E0,3.464508057E0,-1.129113197E1
2.693415130E1,-4.476672173E0,5.375176907E0,-2.377867460E0
2.695544109E1,-8.566305041E-1,9.782755852E0,-4.482355118E0
2.697673089E1,9.652048349E-1,2.782254457E0,-9.102895737E0
2.699802068E1,-4.905286431E-1,8.396414757E0,-5.859125137E0
2.701931047E1,6.643970966E0,2.588435888E0,-1.444666672E1
2.704060026E1,1.688136339E0,3.366402388E0,-4.704887390E0
2.706189005E1,2.940180779E0,5.356034279E0,-9.371191025E0
2.708317984E1,-3.181556702E0,8.257631302E0,-5.195715427E0
2.710446964E1,-1.613360643E0,5.645565987E0,-1.305553913E1
2.712575943E1,4.812564373E0,2.466402054E0,-1.468834209E1
2.714704922E1,2.916252613E0,6.126822472E0,-5.810969830E0
2.716833901E1,2.183749676E0,5.329713345E0,1.976770639E0
2.718962880E1,-3.162414312E0,1.153520012E1,-3.148954630E0
2.721091859E1,6.921239495E-1,5.921039581E0,-1.326640701E1
2.723220839E1,3.380759239E0,3.356831074E0,-1.138923740E1
2.725349818E1,-4.995017126E-2,5.080560684E0,-4.367499352E0
2.727478797E1,-1.144068360E0,2.966501951E0,-3.745066643E0
2.729607776E1,-2.173580170E0,8.801100731E0,-9.646365166E0
2.731736760E1,-2.274078846E0,5.279464245E0,-1.171735382E1
2.733865740E1,-2.302792788E0,3.174976587E0,-8.267500877E0
2.735994719E1,1.563709617E0,6.646364212E0,-1.074287605E1
2.738123693E1,1.242772222E0,5.310570717E0,-8.269894600E0
2.740252672E1,-6.771687865E-1,4.814957142E0,-7.101598740E0
2.742381656E1,-7.034898400E-1,9.483354568E0,-1.434796333E0
2.744510635E1,1.942074656E0,1.102044392E1,-1.305553913E1
2.746639615E1,3.364009619E0,1.096810102E0,-9.739685059E0
2.748768588E1,2.387139797E0,4.783850670E0,-2.057229280E0
2.750897568E1,1.606780410E0,5.185844898E0,-1.185135174E1
2.753026547E1,-3.607479334E0,6.071787357E0,-6.517450809E-1
2.755155531E1,5.150550604E-1,3.316153049E0,-7.774280548E0
2.757284505E1,4.313062727E-1,5.312963486E0,-1.519352627E1
2.759413490E1,1.677966863E-1,7.687839985E0,-1.120738316E1
2.761542464E1,3.557828188E0,1.922932148E0,-1.273968697E1
2.763671443E1,-1.792822361E0,6.734898567E0,-1.561615825E0
2.765800422E1,-1.790429592E0,8.087740898E0,-5.545366287E0
2.767929401E1,1.704886079E0,5.667101383E0,-1.134616661E1
2.770058380E1,-4.378566265E0,6.315855503E0,-3.725924015E0
2.772187359E1,2.190928221E0,6.641578197E0,-1.363250923E1
2.774316339E1,-1.376172066E0,6.703791618E0,-7.951349735E0
2.776445318E1,-1.304387450E0,4.048655987E0,-2.301297188E0
2.778574297E1,1.942074656E0,4.896313190E0,-1.499402523E0
2.780703276E1,1.197308660E0,3.244368315E0,-8.724829674E0
2.782832255E1,3.974478483E0,1.891526341E0,-1.614886093E1
2.784961234E1,-1.759322882E0,8.080561638E0,-2.301297188E0
2.787090214E1,2.794218540E0,1.391426325E0,-1.055862904E1
2.789219193E1,-1.874178290E0,5.327320576E0,-9.790233612E0
2.791348172E1,6.634100676E-1,1.033340454E1,-4.733900547E0
2.793477151E1,2.140678883E0,2.255534410E0,-9.620044708E0
2.795606130E1,5.222335458E-1,2.248355865E0,-7.987242222E0
2.797735109E1,2.830111027E0,4.901099205E0,-7.096812725E0
2.799864088E1,-2.093719784E-3,2.155035973E0,-4.034597874E0
2.801993068E1,3.431008577E0,8.338987350E0,-8.863613129E0
2.804122047E1,-7.226324677E-1,9.914361954E0,-8.585746765E0
2.806251026E1,-1.981855392E0,7.891230106E0,-6.613163471E0
2.808380000E1,2.588435888E0,3.308974504E0,-1.183938694E1
2.810508979E1,-5.048855782E0,7.845766544E0,-2.330011129E0
2.812637958E1,4.872385025E0,3.344866991E0,-1.067587757E1
2.814766938E1,-1.656431437E0,1.019910717E1,-1.207179070E0
2.816895917E1,5.559424400E0,2.047358990E0,-1.274686527E1
2.819024896E1,2.983251572E0,5.190630436E0,-6.885945320E0
2.821153875E1,4.600201547E-1,9.090632439E0,-1.079551888E1
2.823282854E1,-2.544467688E0,1.036451149E1,-7.761718631E-1
2.825411833E1,8.958129883E-1,3.766302824E0,-9.102895737E0
2.827540813E1,6.059823632E-1,5.676672459E0,-9.828518867E0
2.829669792E1,1.039382339E0,8.484949112E0,-2.701197624E0
2.831798766E1,-4.019941986E-1,3.787838221E0,-5.729613781E0
2.833927745E1,-3.693620920E0,1.665374565E1,-5.488536954E-1
2.836056724E1,7.663014531E-1,5.078167915E0,-1.183699417E1
2.838185703E1,1.846062660E0,7.130013466E0,-5.327619553E0
2.840314682E1,8.503493667E-1,3.435794115E0,-5.988337994E0
2.842443662E1,1.199701428E0,6.397510529E0,-7.204489708E0
2.844572641E1,-3.320340633E0,1.356999588E1,-5.114359379E0
2.846701620E1,7.375875711E-1,4.453341961E0,-1.250010586E1
2.848830599E1,-3.222234726E0,7.027122021E0,-3.220739365E0
2.850959578E1,1.925324917E0,8.425128937E0,-1.061127090E1
2.853088552E1,2.540579557E0,6.318248272E0,-7.494021416E0
2.855217531E1,9.460622668E-1,4.271487713E0,-5.801398277E0
2.857346510E1,-2.621337175E0,4.843671322E0,-1.052512932E1
2.859475490E1,-4.071985722E0,5.427819252E0,-8.703293800E0
2.861604469E1,-5.718846321E-1,2.198106766E0,-8.456534386E0
2.863733448E1,4.467699051E0,4.324129581E0,-7.144669533E0
2.865862427E1,5.023132801E0,5.781956673E0,-1.163839054E1
2.867991406E1,2.557329178E0,1.118794155E1,-5.681757450E0
2.870120385E1,1.115952611E0,2.562114954E0,-9.691828728E0
2.872249359E1,-6.827620506E0,1.304806232E1,1.404586911E0
2.874378338E1,-5.527420044E-1,5.389533997E0,-1.540917969E1
2.876507318E1,-5.714359760E0,8.472985268E0,-4.267001152E0
2.878636297E1,2.193320990E0,6.681957245E-1,-6.072086334E0
2.880765276E1,-1.055533886E0,9.801898956E0,-1.461117268E0
2.882894250E1,4.182952881E0,2.068894386E0,-1.208375454E1
2.885023229E1,2.473580360E0,5.401497841E0,-1.062802124E1
2.887152208E1,2.796611547E0,3.442972660E0,-1.233021545E1
2.889281188E1,-4.546363056E-1,6.792325974E0,-5.418546677E0
2.891410167E1,5.246263742E-1,5.272285461E0,-7.980063438E0
2.893539146E1,-4.100699902E0,7.366902828E0,-4.580460548E0
2.895668120E1,-9.574281573E-1,5.628816128E0,-1.305793190E1
2.897797099E1,-2.568396091E0,4.719244480E0,-6.795018196E0
2.899926078E1,3.823730469E0,8.336593628E0,-9.996016502E0
2.902055057E1,3.773481369E0,5.497210979E0,-4.082454681E0
2.904184037E1,5.861218929E0,4.699802876E0,-9.007183075E0
2.906313010E1,1.903789520E0,9.691530228E0,6.744768620E-1
2.908441990E1,3.244368315E0,3.347259760E0,-1.082662487E1
2.910570969E1,-3.732803464E-1,5.882754326E0,-5.131109238E0
2.912699948E1,2.751147747E0,9.340981245E-1,-1.762373734E1
2.914828927E1,-1.038784146E0,7.905586720E0,-2.952444077E0
2.916957906E1,2.111965179E0,3.629911900E0,-9.524331093E0
2.919086880E1,1.055833027E-1,1.063250732E1,-5.392823815E-1
2.921215859E1,2.236391783E0,6.830611229E0,-1.286650658E1
2.923344839E1,-5.800501347E0,1.446072483E1,-1.867897153E0
2.925473818E1,-2.470290184E0,2.777468920E0,-7.230811119E0
2.927602797E1,-5.371886730E0,1.228445244E1,1.462014675E0
2.929731771E1,-3.107678294E-1,1.661815286E0,-1.514806271E1
2.931860750E1,-2.831905603E0,8.535198212E0,-7.269095898E0
2.933989729E1,2.722434044E0,4.340879440E0,-1.372612762E1
2.936118708E1,6.897311211E-1,6.744469643E0,-3.541377544E0
2.938247688E1,4.338486671E0,3.830909014E0,-1.192074299E1
2.940376662E1,-3.684946895E-1,7.754838943E0,-7.402794957E-1
2.942505641E1,3.122334480E0,4.079762459E0,-1.540200138E1
2.944634620E1,-1.756929994E0,8.240880966E0,-3.680460215E0
2.946763599E1,2.135893345E0,4.462913513E0,-1.416401482E1
2.948892573E1,-3.839882135E0,1.025414276E1,6.625127792E-1
2.951021552E1,1.240379453E0,5.789135456E0,-1.288564873E1
2.953150531E1,-4.263411522E0,9.581459999E0,2.769692242E-1
2.955279510E1,2.403889418E0,1.271486163E0,-1.060887814E1
2.957408484E1,-4.689932466E-1,5.947360516E0,-8.174180984E0
2.959537464E1,1.302592874E0,5.351248741E0,-1.191356468E1
2.961666443E1,2.399103880E0,3.167798042E0,-7.989634991E0
2.963795422E1,-6.580262184E-1,4.992026329E0,-8.092824936E0
2.965924396E1,1.934896231E0,6.318248272E0,-9.548259735E0
2.968053375E1,-3.317947626E0,7.826623917E0,-5.011467934E0
2.970182354E1,1.307378531E0,2.461616278E0,-1.051077271E1
2.972311333E1,-8.635098457E0,6.856932163E0,-1.281356573E0
2.974440307E1,3.771088600E0,-1.788036704E0,-1.289043427E1
2.976569287E1,-4.605884552E0,4.352843285E0,-5.933302879E0
2.978698266E1,5.758028507E0,1.081436157E1,-9.933803558E0
2.980827245E1,4.731208801E0,8.034799576E0,-7.896314621E0
2.982956219E1,2.684148788E0,9.667601585E0,-4.627120793E-1
2.985085198E1,1.946860313E0,1.834098577E0,-7.764709473E0
2.987214177E1,-6.320042610E0,1.018953609E1,-8.157431602E0
2.989343151E1,-6.186044693E0,8.537590981E0,-1.222971630E1
2.991472130E1,-8.757730722E-1,5.961717606E0,-8.312965393E0
2.993601109E1,1.087238789E0,7.292725086E0,-8.763114929E0
2.995730089E1,3.044866920E-1,3.921836376E0,-6.189334869E0
2.997859063E1,8.404789865E-2,6.129215240E0,-8.308178902E0
2.999988042E1,1.226321608E-2,5.789135456E0,-7.175776005E0
3.002117021E1,8.240283132E-1,5.564209938E0,-7.407879829E0
3.004245995E1,1.420140266E0,5.427819252E0,-8.415856361E0
3.006374974E1,9.723833203E-1,4.209274292E0,-9.615258217E0
3.008503953E1,-1.328315616E0,4.968098164E0,-9.691828728E0
3.010632932E1,1.302592874E0,3.153441191E0,-1.045573807E1
3.012761906E1,-1.182353497E0,4.975276470E0,-1.065673447E1
3.014890885E1,-1.062712312E0,6.933502674E0,-6.426523209E0
3.017019865E1,2.925823927E0,5.719743252E0,-8.648259163E0
3.019148839E1,6.323033571E-1,7.773981571E0,-7.877171993E0
3.021277818E1,1.269093275E0,6.332605362E0,-7.278667450E0
3.023406797E1,-7.968099117E-1,4.065405846E0,-5.662614822E0
3.025535771E1,1.319342613E0,6.737291336E0,-2.504986286E0
3.027664750E1,8.001000881E-1,7.855337620E0,-7.759923935E0
3.029793729E1,5.437689424E-1,8.638388634E0,-1.061127090E1
3.031922703E1,-1.273280740E0,8.367700577E0,-1.006062317E1
3.034051682E1,2.648256540E0,8.671888351E0,-8.279465675E0
3.036180662E1,1.724028707E0,-9.191430211E-1,-8.470890999E0
3.038309635E1,1.211665511E0,7.130013466E0,-7.025028229E0
3.040438615E1,-2.278864384E0,1.199701500E1,-1.186810112E1
3.042567594E1,-7.441678643E-1,5.904289722E0,-9.344869614E0
3.044696568E1,-1.266102314E0,4.343272209E0,-4.228715897E0
3.046825547E1,1.779063582E0,2.037787676E0,-8.949754715E0
3.048954526E1,-2.501396894E0,4.479662895E0,-5.688935757E0
3.051083500E1,9.293124676E-1,5.243272781E0,-1.942373753E0
3.053212479E1,-6.843472719E-1,2.052144527E0,-1.295264816E1
3.055341458E1,-6.699903607E-1,6.885646343E0,-5.727221012E0
3.057470432E1,2.028216362E0,9.715457916E0,-1.186092281E1
3.059599412E1,-1.575075507E0,8.575876236E0,-7.360023499E0
3.061728391E1,2.882753134E0,7.884051323E0,-1.259372425E1
3.063857365E1,3.519542933E0,3.045764208E0,-8.437391281E0
3.065986344E1,-3.107678294E-1,7.462615490E0,-2.030908108E0
3.068115318E1,-3.066402197E0,1.067557812E1,-4.262215137E0
3.070244297E1,-2.515753984E0,5.281857014E0,-8.810971260E0
3.072373276E1,-2.154437780E0,1.024217796E1,-7.357630730E0
3.074502250E1,2.052144527E0,6.792325974E0,-7.467700481E0
3.076631229E1,2.327319145E0,7.493722439E0,-6.907480717E0
3.078760208E1,2.334497690E0,9.871291161E0,-7.544569969E0
3.080889182E1,4.132404804E0,8.841778755E0,-1.312762356E1
3.083018162E1,4.000799656E0,6.267998695E0,-1.269661617E1
3.085147135E1,2.219642162E0,7.345367432E0,-9.583254457E-1
3.087276115E1,-1.368993640E0,3.617947817E0,-5.004289627E0
3.089405094E1,-5.022534847E0,5.487639427E0,-3.687638760E0
3.091534068E1,-6.722336292E0,6.732505798E0,-6.265905380E0
3.093663047E1,3.943371773E0,6.466902256E0,-1.211246777E1
3.095792021E1,1.606182158E-1,6.236892223E0,-5.676971912E0
3.097921000E1,4.908277512E0,8.441878319E0,-3.599104404E0
3.100049974E1,-1.735394597E0,6.868896484E0,-4.704887390E0
3.102178953E1,4.594518661E0,8.791529655E0,-8.183753014E0
3.104307932E1,2.001895189E0,4.450949192E0,-6.191727638E0
3.106436906E1,-2.616551638E0,1.211456203E1,1.104826069E1
3.108565885E1,4.829314232E0,2.461616278E0,-4.520640373E0
3.110694859E1,1.326521039E0,2.454138756E0,7.597211748E-2
3.112823839E1,8.834600449E0,8.046763420E0,1.775773525E0
3.114952813E1,8.090133667E0,3.799802303E0,-1.944168359E-1
3.117081792E1,2.379961252E0,1.103958607E1,1.145025444E1
3.119210766E1,1.088883877E1,2.013859272E0,5.754738331E0
3.121339745E1,7.716553688E0,1.169073296E1,9.702596664E0
3.123468724E1,5.837290764E0,3.538685560E0,2.843570709E0
3.125597698E1,5.719743252E0,9.104989052E0,4.167399883E0
3.127726677E1,3.783052683E0,6.361319065E0,1.081555843E0
3.129855651E1,-8.231309652E-1,1.137697411E1,-1.281356573E0
3.131984630E1,7.292725086E0,8.317451477E0,2.649751902E0
3.134113604E1,1.321735382E0,8.169096947E0,-2.088335991E0
3.136242583E1,4.491627216E0,4.139583111E0,2.053640127E0
3.138371557E1,3.165405273E0,1.282792187E1,2.352742910E0
3.140500536E1,8.743673325E0,4.412663937E0,5.228018284E0
3.142629510E1,3.371187925E0,1.295713425E1,4.282554150E0
3.144758490E1,8.116454124E0,2.083251238E0,4.543372095E-1
3.146887464E1,9.294321060E0,9.224929810E0,1.040877819E0
3.149016443E1,5.554638863E0,6.354140759E0,-5.262714386E0
3.151145417E1,1.070489049E0,6.900003433E0,-1.959123492E0
3.153274396E1,1.337617779E1,5.729314804E0,-3.885345757E-1
3.155403370E1,9.880862236E0,1.001725292E1,6.384349823E0
3.157532349E1,6.148357868E0,8.712566376E0,3.099602699E0
3.159661323E1,4.965705395E0,8.147561073E0,4.442873478E0
3.161790302E1,9.059525490E0,8.468199730E0,6.274280071E0
3.163919276E1,7.558627605E0,8.573483467E0,5.539384365E0
3.166048255E1,4.565804482E0,8.061120033E0,4.603192329E0
3.168177229E1,3.866801500E0,7.479365349E0,3.332005501E0
3.170306203E1,4.022335052E0,6.816254616E0,1.852343798E0
3.172435182E1,3.871587038E0,6.265605927E0,3.190829039E0
3.174564156E1,4.946562767E0,5.937789440E0,5.771488190E0
3.176693135E1,3.914657831E0,6.435795784E0,4.373481750E0
3.178822109E1,4.159024715E0,6.665506363E0,3.518645763E0
3.180951088E1,3.924229145E0,6.301498413E0,4.102793694E0
3.183080063E1,2.813361168E0,6.141179085E0,5.699703693E0
3.185209037E1,3.189333439E0,5.815456390E0,5.895915031E0
3.187338016E1,3.129513025E0,5.607280731E0,3.659822226E0
3.189466990E1,2.243570328E0,5.753242970E0,2.841177702E0
3.191595969E1,3.011965513E0,5.805884838E0,4.035794258E0
3.193724943E1,3.557828188E0,6.122036934E0,4.794618607E0
3.195853922E1,4.108476639E0,6.926324368E0,4.971986294E0
3.197982896E1,4.053441525E0,7.201797962E0,5.165804863E0
3.200111870E1,4.431806564E0,7.103692055E0,5.022235394E0
3.202240849E1,3.948157310E0,7.285546780E0,5.410171986E0
3.204369823E1,4.422235489E0,7.359724045E0,5.453242779E0
3.206498802E1,5.899504185E0,6.962515831E0,7.129116058E0
3.208627776E1,5.068596363E0,6.629614353E0,6.034997940E0
3.210756750E1,3.950550079E0,7.331010342E0,4.722833633E0
3.212885729E1,4.616054058E0,7.096513748E0,5.366802216E0
3.215014703E1,4.618446827E0,6.919145584E0,6.030212402E0
3.217143677E1,4.575376034E0,7.290332317E0,6.291029930E0
3.219272656E1,4.628017902E0,7.240083218E0,7.071389198E0
3.221401630E1,3.311367512E0,7.333403111E0,5.529813290E0
3.223530609E1,3.289832115E0,7.584948540E0,6.448956013E0
3.225659583E1,4.546662331E0,7.192226887E0,6.125925064E0
3.227788557E1,3.938585997E0,7.390830994E0,5.373980522E0
3.229917536E1,3.560220957E0,7.290332317E0,4.617549419E0
3.232046510E1,2.315355062E0,7.051050186E0,3.339184046E0
3.234175484E1,3.313760281E0,6.244070530E0,3.434896946E0
3.236304464E1,3.447758436E0,5.710172176E0,2.019841433E0
3.238433438E1,4.577768803E0,5.681458473E0,1.909771562E0
3.240562412E1,5.473282814E0,4.922634602E0,6.816553473E-1
3.242691391E1,6.395117760E0,4.946562767E0,-2.504986286E0
3.244820365E1,6.035895348E0,7.309474945E0,-7.697710514E0
3.246949338E1,2.542972326E0,8.161917686E0,-6.866802692E0
3.249078318E1,-5.934200287E-1,8.245666504E0,2.195414752E-1
3.251207292E1,-1.828714728E0,8.322237015E0,8.973085321E-3
3.253336266E1,-2.379363060E0,7.771588802E0,-3.431307554E0
3.255465245E1,-1.256531000E0,7.254439831E0,-3.419343472E0
3.257594219E1,1.046560764E0,7.374081135E0,-4.695316315E0
3.259723193E1,2.645863533E0,7.369295597E0,-1.028315544E1
3.261852172E1,2.478366137E0,7.850552082E0,-1.406351566E1
3.263981146E1,2.143071890E0,8.310273170E0,-1.194945717E1
3.266110120E1,3.210868835E0,8.099704742E0,-5.444868088E0
3.268239094E1,4.982454777E0,8.008478165E0,-3.946063757E0
3.270368073E1,3.474079370E0,7.687839985E0,-4.015455723E0
3.272497047E1,9.101698995E-1,7.151548862E0,-4.491926193E0
3.274626021E1,1.013061285E0,7.549056530E0,-5.856732368E0
3.276754995E1,-4.083950043E0,1.406321716E1,7.629215717E0
3.278883974E1,3.426223040E0,8.405985832E0,-4.695316315E0
3.281012948E1,7.606483936E0,6.835396767E0,-4.712365150E0
3.283141922E1,5.037489891E0,6.952944279E0,-1.562931919E1
3.285270901E1,2.255534410E0,9.600603104E0,-1.688614845E1
3.287399875E1,2.420639277E0,8.267202377E0,-1.431266880E1
3.289528849E1,6.777670383E-1,7.309474945E0,-9.004789352E0
3.291657823E1,-1.323530078E0,7.721339703E0,-5.190929413E0
3.293786802E1,-2.534896374E0,8.104490280E0,-5.193322659E0
3.295915776E1,-2.743371248E0,7.639983654E0,-3.969991922E0
3.298044750E1,-2.061117649E0,6.548258305E0,-5.789434433E0
3.300173724E1,-1.057926655E0,5.063810825E0,-7.558926582E0
3.302302698E1,-1.368993640E0,6.794719219E0,-6.512664795E0
3.304431677E1,1.759921074E0,8.300702095E0,-1.156899834E1
3.306560651E1,-1.767697781E-1,7.632805347E0,-1.064955616E1
3.308689625E1,1.805384636E0,8.269595146E0,-6.146264076E0
3.310818599E1,6.112465382E0,7.661519051E0,-5.662614822E0
3.312947578E1,6.828218460E0,5.056632519E0,-4.216751575E0
3.315076552E1,-1.376172066E0,3.984049797E0,-7.226025105E0
3.317205526E1,-8.034200668E0,5.003990173E0,-3.938885212E0
3.319334500E1,-6.463612080E0,1.167159081E1,1.160519004E0
3.321463474E1,8.195417404E0,1.750349760E0,-1.038156033E1
3.323592453E1,6.019145489E0,5.710172176E0,-1.346979713E1
3.325721427E1,9.449854851E0,5.509174824E0,-1.065912724E1
3.327850401E1,4.735994339E0,9.253643036E0,-7.345666409E0
3.329979375E1,2.741576433E0,6.346961975E0,-4.448855400E0
3.332108349E1,1.551745534E0,7.685447216E0,-2.191227436E0
3.334237323E1,-2.581257522E-1,7.551449299E0,-3.577269793E0
3.336366302E1,2.820539713E0,6.984051228E0,-2.772982359E0
3.338495276E1,1.542174220E0,6.545865536E0,-5.344369411E0
3.340624250E1,1.424925923E0,4.589733124E0,-6.646663189E0
3.342753224E1,7.686942816E-2,3.320938826E0,-8.456534386E0
3.344882198E1,-3.964308977E0,6.323033810E0,-1.215075302E1
3.347011172E1,1.472782373E0,4.369593143E0,-2.057797623E1
3.349140146E1,4.424628258E0,4.007977962E0,-1.041027355E1
3.351269120E1,1.017039394E1,1.941177398E-1,-1.178913784E1
3.353398099E1,3.548256874E0,9.963115454E-1,-3.943670750E0
3.355527073E1,4.922634602E0,7.829016685E0,-6.364010811E0
3.357656047E1,-9.191430211E-1,7.520342350E0,-2.428116798E0
3.359785021E1,-1.862214208E0,1.846062660E0,-5.306084156E0
3.361913995E1,-4.210769653E0,1.048893833E1,-3.871886253E0
3.364042969E1,1.846062660E0,5.992824078E0,-1.162881851E1
3.366171943E1,1.379462242E0,8.566305161E0,-8.241180420E0
3.368300917E1,1.582254022E-1,1.159023523E0,-7.850851059E0
3.370429891E1,3.163012505E0,7.915158272E0,-1.199731350E1
3.372558870E1,-1.005284667E0,1.390050507E1,-8.083253860E0
3.374687844E1,2.810968399E0,6.323033810E0,-9.706186295E0
3.376816818E1,-2.650051117E0,1.103958607E1,-5.181358337E0
3.378945792E1,5.844469070E-1,6.407081604E0,-6.572485447E0
3.381074766E1,-1.620539188E0,8.248059273E0,-6.859624386E0
3.383203740E1,3.033800125E0,-4.474578202E-1,-7.027420998E0
3.385332714E1,2.446960211E0,7.034300327E0,-9.588937759E0
3.387461688E1,2.547757864E0,1.052004433E1,-9.553045273E0
3.389590662E1,3.093620539E0,3.885943890E0,-8.123931885E0
3.391719635E1,4.019941807E0,8.820243835E0,-6.641877651E0
3.393848609E1,2.133500576E0,5.719743252E0,-2.727518797E0
3.395977583E1,1.233201027E0,6.474080563E0,-6.119943142E0
3.398106557E1,-2.664407969E0,1.216451168E0,-8.530712128E0
3.400235531E1,-6.763014317E0,9.782755852E0,-1.331605792E0
3.402364505E1,8.623134494E-1,4.458127499E0,-1.300529003E1
3.404493479E1,5.365904570E-1,9.342177391E0,-4.508676052E0
3.406622453E1,3.742374659E0,7.991728306E0,-1.002712345E1
3.408751432E1,7.567301393E-1,4.716851711E0,-8.602197170E-1
3.410880406E1,8.790631890E-1,2.238784790E0,-8.305786133E0
3.413009380E1,-4.067798555E-1,2.772683144E0,-9.474081993E0
3.415138354E1,-2.046760559E0,8.216953278E0,-9.095717430E0
3.417267328E1,2.116750717E0,7.211369038E0,-1.284497070E1
3.419396302E1,8.742775917E-1,1.007707310E1,-5.157430172E0
3.421525276E1,4.443770885E0,3.866801500E0,-6.541378975E0
3.423654250E1,-1.426421404E0,4.450949192E0,-3.316452265E0
3.425783224E1,-2.326720953E0,7.208976269E0,-1.390319729E1
3.427912198E1,-2.152044773E0,4.077369690E0,-6.842874527E0
3.430041172E1,1.750349760E0,6.835396767E0,-6.845267296E0
3.432170146E1,3.139084101E0,1.987538338E0,-7.108777046E0
3.434299120E1,1.786242127E0,3.519542933E0,-4.839184761E0
3.436428094E1,9.675976634E-1,6.236892223E0,-4.664209366E0
3.438557068E1,1.082453132E0,6.296712875E0,-1.257697487E1
3.440686042E1,2.374876440E-1,5.102694035E-1,-1.492074490E1
3.442815010E1,-1.993819475E0,4.939383984E0,-1.421426392E1
3.444943984E1,-3.732205153E0,5.142774105E0,-6.510272026E0
3.447072958E1,5.054837838E-2,1.123131156E0,-5.183751106E0
3.449201932E1,1.211665511E0,1.138175964E1,-3.570091486E0
3.451330906E1,2.550150633E0,9.418747902E0,-1.193510056E1
3.453459880E1,-1.620539188E0,3.493221998E0,-6.723233223E0
3.455588854E1,-5.403292656E0,4.374378681E0,-3.077169895E0
3.457717828E1,2.284248352E0,1.733600020E0,-1.171017456E1
3.459846802E1,5.324927807E0,3.806980848E0,-1.718076515E1
3.461975776E1,2.832503796E0,5.128417015E0,-1.001276588E1
3.464104750E1,4.774279594E0,3.160619497E0,-7.994420528E0
3.466233724E1,1.328913927E0,8.106883049E0,-4.704887390E0
3.468362698E1,-1.536790371E0,6.078966141E0,-7.443772316E0
3.470491672E1,-1.642074585E0,3.445365429E0,-4.578067780E0
3.472620646E1,-3.590729475E0,3.694518089E0,-6.814160824E0
3.474749615E1,1.965105534E-1,5.035097122E0,-9.304191589E0
3.476878588E1,2.839682341E0,1.225334549E1,-5.631507874E0
3.479007562E1,4.776672363E0,1.752742529E0,-1.346261883E1
3.481136536E1,-5.982056856E-1,7.345367432E0,-6.313761711E0
3.483265510E1,-2.937189817E0,6.416653156E0,-9.421440125E0
3.485394484E1,-4.071985722E0,1.055115128E1,-7.123134136E0
3.487523458E1,-3.387339592E0,1.274895859E1,-2.612663269E0
3.489652432E1,2.274677038E0,7.424330235E0,-9.110074043E0
3.491781406E1,4.589733124E0,8.233702660E0,-6.555736065E0
3.493910380E1,4.190131664E0,6.294320107E0,-1.085533905E1
3.496039349E1,2.490330219E0,3.684946775E0,-1.215793228E1
3.498168323E1,8.527421951E-1,8.195417404E0,-3.883850336E0
3.500297297E1,1.226022482E0,-3.559323773E-2,-1.342194080E1
3.502426271E1,-1.227817178E0,4.491627216E0,-4.341178417E0
3.504555245E1,4.265206456E-1,4.879563808E0,-1.601247025E1
3.506684219E1,-1.464706540E0,7.582555771E0,-5.964409351E0
3.508813188E1,1.151844978E0,7.661519051E0,-1.175085258E1
3.510942162E1,-3.296412230E0,2.217249393E0,-2.478665113E0
3.513071135E1,-5.388636589E0,9.521639824E0,-7.328916550E0
3.515200109E1,-3.792025566E0,3.421437263E0,-7.307381153E0
3.517329083E1,2.901297510E-1,1.241366482E1,-4.508676052E0
3.519458057E1,3.020938635E-1,7.247261524E0,-9.483653069E0
3.521587026E1,-1.863410622E-1,6.428617001E0,-8.250751495E0
3.523716000E1,-3.876372576E-1,2.033001900E0,-1.298614788E1
3.525844974E1,1.103689447E-1,2.633899450E0,-7.841279984E0
3.527973948E1,-8.279166222E-1,7.991728306E0,-6.378367901E0
3.530102922E1,2.949752092E0,6.620042801E0,-7.417450905E0
3.532231896E1,3.881158352E0,6.004788399E0,-1.249053383E1
3.534360865E1,1.845464408E-1,8.528019905E0,-8.882756233E0
3.536489839E1,-3.708875179E-1,5.568995476E0,-1.171017456E1
3.538618813E1,-3.432803154E0,1.065703392E0,-1.877468467E0
3.540747787E1,7.447660565E-1,8.207381248E0,-3.280559778E0
3.542876755E1,-1.512862086E0,6.390331745E0,-1.146371460E1
3.545005729E1,-7.148557901E-2,9.390034676E0,-4.877470016E0
3.547134703E1,1.366899908E-1,3.332005441E-1,-9.545866966E0
3.549263677E1,-3.408874989E0,2.985644341E0,-6.258726597E0
3.551392646E1,1.563709617E0,-1.743769497E-1,-1.186331558E1
3.553521620E1,7.232306600E-1,1.764706731E0,-8.427820206E0
3.555650594E1,4.446163654E0,5.236093998E0,-1.066391277E1
3.557779568E1,-7.872386575E-1,5.722136021E0,-2.021337032E0
3.559908542E1,3.337688446E0,1.802991867E0,-1.159292698E1
3.562037510E1,-2.068295956E0,2.715255499E0,-6.433701992E0
3.564166484E1,-3.798605874E-2,5.262415409E0,-8.765507698E0
3.566295458E1,-1.601396561E0,6.993622303E0,-9.387940407E0
3.568424427E1,2.303390980E0,6.172286034E0,-1.248335552E1
3.570553401E1,-2.712264538E0,2.403889418E0,-2.531307220E0
3.572682375E1,-2.029711723E0,6.402296066E0,-6.424130440E0
3.574811349E1,-1.407278776E0,5.351248741E0,-8.959325790E0
3.576940318E1,-2.281257391E0,1.556531072E0,-7.029813766E0
3.579069292E1,2.509472847E0,6.701398849E0,-1.205504036E1
3.581198266E1,-1.845464468E0,8.233702660E0,-8.442177773E0
3.583327234E1,1.707278967E0,4.759922504E0,-5.294120312E0
3.585456208E1,-1.091426253E0,9.974182129E0,-5.461617470E0
3.587585182E1,2.229213476E0,3.653840065E0,-7.901100159E0
3.589714151E1,-9.789635539E-1,1.611566067E0,-1.196620655E1
3.591843125E1,-3.935595036E0,9.535996437E0,-1.417747438E-1
3.593972099E1,-1.600200087E-1,3.610769272E0,-1.047727299E1
3.596101073E1,-1.472184181E0,9.576674461E0,-4.539782524E0
3.598230042E1,2.446960211E0,3.004786968E0,-1.454477215E1
3.600359016E1,1.893919110E0,5.793920994E0,-8.925827026E0
3.602487984E1,1.781456470E0,8.135597229E0,-5.533402443E0
3.604616958E1,2.696112871E0,5.353641510E0,-1.051316547E1
3.606745932E1,2.837289333E0,7.335795879E0,-4.293322086E0
3.608874901E1,2.202892303E0,3.124727249E0,-1.384337616E1
3.611003875E1,-4.009772778E0,1.060618591E1,-4.770690203E-1
3.613132849E1,-2.575574398E0,4.898705959E0,-9.035896301E0
3.615261818E1,-5.532505035E0,6.648756981E0,4.627120972E0
3.617390792E1,-1.179960608E0,2.049751759E0,-8.820542336E0
3.619519766E1,-4.187439680E-1,3.957728624E0,-9.667901039E0
3.621648734E1,1.261914849E0,8.123632431E0,-1.508345699E1
3.623777708E1,2.734398127E0,7.467401028E0,-1.051795101E1
3.625906682E1,-2.844468057E-1,3.826123476E0,-1.344108295E1
3.628035651E1,4.173381805E0,9.418747902E0,-1.002233791E1
3.630164625E1,7.086942673E0,8.563912392E0,-1.258893871E1
3.632293594E1,3.234797001E0,1.001725292E1,-6.040979862E0
3.634422568E1,-6.436693072E-1,5.554638863E0,-7.532605648E0
3.636551536E1,-1.148854017E0,7.606483936E0,-8.198109627E0
3.638680510E1,-5.718846321E-1,7.240083218E0,-5.080859661E0
3.640809484E1,-2.247757673E0,5.176273346E0,-1.216511059E1
3.642938453E1,-6.729514599E0,6.732505798E0,-6.436094761E0
3.645067427E1,-3.748954773E0,6.777969360E0,-9.852447510E0
3.647196396E1,-4.283152521E-1,2.011466503E0,-4.649852753E0
3.649325370E1,1.031904742E-1,9.203393936E0,-1.211007500E1
3.651454338E1,1.226321608E-2,8.710173607E0,-5.495117188E0
3.653583312E1,2.665006161E0,1.604387641E0,-1.592602921E1
3.655712287E1,-1.752144337E0,5.942574978E0,-6.646663189E0
3.657841255E1,-1.121635586E-1,5.320142269E0,-5.554937840E0
3.659970229E1,5.772684813E-1,3.294617653E0,-5.368297577E0
3.662099198E1,4.922634602E0,4.731208801E0,-1.962981987E1
3.664228172E1,1.630708575E0,8.353343964E0,-5.346762180E0
3.666357141E1,3.258725405E0,3.198904753E0,-1.673540115E1
3.668486115E1,-5.812465191E0,3.571287692E-1,-1.602293849E0
3.670615083E1,-2.102692872E-1,8.868100166E0,-1.049641609E1
3.672744057E1,2.459223509E0,6.854539394E0,-1.460220051E1
3.674873026E1,2.286641121E0,7.984549999E0,-5.071288586E0
3.677002000E1,-5.670989752E-1,9.337391853E0,-9.359226227E0
3.679130969E1,-5.932106495E0,1.083829021E1,1.512562990E0
3.681259943E1,-4.290031910E0,7.543373108E-1,-8.444570541E0
3.683388912E1,-3.092723370E0,1.334507084E1,-1.614257932E0
3.685517885E1,2.825325251E0,6.246463299E0,-1.308425331E1
3.687646854E1,2.198106766E0,6.047859192E0,-6.021837234E0
3.689775828E1,4.716851711E0,6.847361088E0,-7.077670097E0
3.691904797E1,3.122334480E0,-3.722633839E0,-8.269894600E0
3.694033771E1,9.337391853E0,7.007979393E0,-1.171256733E1
3.696162740E1,1.752742529E0,1.026132107E1,-5.047360420E0
3.698291714E1,2.226820469E0,2.708076954E0,-1.297418308E1
3.700420682E1,-6.147759438E0,8.482556343E0,-6.474380016E0
3.702549656E1,-4.569992065E0,5.375176907E0,-1.209332561E1
3.704678625E1,-1.855035782E0,4.525126934E0,-8.351249695E0
3.706807594E1,-6.795616150E-1,2.856431961E0,-1.091785145E1
3.708936568E1,-2.336292267E0,2.763111830E0,8.706883192E-1
3.711065536E1,-1.242174029E0,5.391926765E0,-1.038395309E1
3.713194510E1,-1.895713687E0,1.013689423E1,-2.734697104E0
3.715323479E1,8.335995674E-1,3.379862010E-2,-1.262722397E1
3.717452448E1,-6.305685997E0,6.632007122E0,-1.705185294E0
3.719581422E1,-3.557229996E0,1.242772222E0,-9.912267685E0
3.721710391E1,1.120738268E0,-2.841476910E-2,-1.186570835E1
3.723839365E1,4.151846409E0,7.338188648E0,-1.209571838E1
3.725968333E1,4.082155228E0,6.469295025E0,-1.365165138E1
3.728097307E1,6.117250919E0,5.664708614E0,-9.749257088E0
3.730226276E1,5.707779408E0,1.016321468E1,-1.053948689E1
3.732355245E1,1.692921996E0,5.928217888E0,-4.808077812E0
3.734484219E1,6.993024349E-1,7.328617573E0,-1.326640701E1
3.736613188E1,-4.881358147E0,1.430758381E1,-3.256631613E0
3.738742156E1,-4.766203403E0,6.086144447E0,-7.431807995E0
3.740871130E1,-6.698407650E0,5.286642551E0,-5.914160252E0
3.743000099E1,-4.665705204E0,3.304188967E0,-7.345666409E0
3.745129068E1,-5.982056856E-1,3.313760281E0,-5.361119270E0
3.747258042E1,5.387141228E0,-6.987041831E-1,-1.088195896E1
3.749387010E1,5.784349442E0,3.940979004E0,-8.961120844E-1
3.751515984E1,8.583054543E0,2.521436930E0,-1.471705532E1
3.753644953E1,1.185344458E0,8.650353432E0,-4.944468975E0
3.755773922E1,6.895217419E0,5.755635738E0,-1.548814297E1
3.757902891E1,-8.327022791E-1,5.559424400E0,-7.695317745E0
3.760031865E1,-9.669994712E-1,7.718946934E0,-7.544569969E0
3.762160833E1,-3.600300789E0,5.702993870E0,-5.277370453E0
3.764289802E1,-3.739383698E0,3.629911900E0,-4.954040051E0
3.766418776E1,-4.205984116E0,9.959825516E0,-8.003992081E0
3.768547745E1,-3.902095556E0,6.691827774E0,-9.280263901E0
3.770676714E1,-3.485445261E0,8.039585114E0,-3.888336942E-2
3.772805688E1,1.534397453E-1,4.094119549E0,-1.105902767E1
3.774934656E1,8.694919348E-1,6.658028960E-1,-3.275774240E0
3.777063625E1,2.296212435E0,7.447660714E-2,-1.002473068E1
3.779192594E1,-1.503290772E0,4.427021027E0,-8.554639816E0
3.781321568E1,9.915258884E-1,5.126622319E-1,-1.108056355E1
3.783450537E1,1.582254022E-1,5.118845940E0,-1.210050392E1
3.785579505E1,1.362712502E0,1.836491346E0,-1.057537842E1
3.787708474E1,2.001895189E0,4.910670280E0,-4.743471622E0
3.789837448E1,4.434199333E0,8.293522835E0,-9.100502968E0
3.791966417E1,2.265105724E0,7.529913902E0,-1.330947781E1
3.794095385E1,-5.473581702E-2,6.617650032E0,-6.749554634E0
3.796224354E1,3.738785386E-1,3.533900023E0,-1.013958549E1
3.798353323E1,-3.751347780E0,8.446663857E0,-4.695316315E0
3.800482297E1,-4.110270977E0,3.622733593E0,-5.205286503E0
3.802611266E1,-1.689931035E0,3.586841106E0,-2.997907639E0
3.804740234E1,-1.480558962E-1,4.690231323E0,-6.986742973E0
3.806869203E1,4.259523392E0,9.363713264E0,-9.280263901E0
3.808998177E1,3.069692373E0,7.850552082E0,-5.260321617E0
3.811127146E1,3.198904753E0,2.631506681E0,-9.964909554E0
3.813256115E1,4.771886349E0,1.070907784E1,-1.820040703E0
3.815385083E1,4.180560112E0,9.125627279E-1,-2.086032867E1
3.817514052E1,-2.142473459E0,7.955836296E0,-5.791827202E0
3.819643021E1,3.404687405E0,3.237190008E0,-8.882756233E0
3.821771990E1,3.512364626E0,-3.661018610E-1,-1.058495045E1
3.823900964E1,-1.306780219E0,8.449056625E0,1.009771109E0
3.826029932E1,-1.366600871E0,-2.748754919E-1,-1.275165081E1
3.828158901E1,-4.881358147E0,6.854539394E0,-3.678067446E0
3.830287870E1,-3.976273060E0,4.259523392E0,-1.292632675E1
3.832416838E1,-4.081557274E0,6.560222149E0,-4.815256596E0
3.834545807E1,-8.060522079E0,3.536292791E0,-3.361915827E0
3.836674776E1,1.506281853E0,3.675375462E0,-5.612365723E0
3.838803745E1,3.835694790E0,2.090429783E0,-6.038587093E0
3.840932719E1,7.572984695E0,8.114061356E0,-1.144457150E1
3.843061688E1,7.476972580E0,5.889933109E0,-1.589731503E1
3.845190656E1,6.174678802E0,-1.301994562E0,-1.077637577E1
3.847319625E1,1.915753603E0,6.876074791E0,-9.361619949E0
3.849448594E1,1.645065546E0,3.543471336E0,-1.382901955E1
3.851577562E1,-3.368196964E0,7.570591927E0,-9.624830246E0
3.853706531E1,-4.450650215E-1,5.729314804E0,-1.111645603E1
3.855835500E1,-7.395018578E0,1.268435287E1,-6.289833546E0
3.857964469E1,-5.786144257E0,6.450152397E0,-2.516950369E0
3.860093438E1,-4.498207569E0,5.509174824E0,3.767798424E0
3.862222406E1,3.613162279E0,3.153441191E0,-1.131505966E1
3.864351375E1,5.463711262E0,9.131310463E0,-2.234298229E0
3.866480344E1,3.064906597E0,1.326521039E0,-1.252881908E1
3.868609312E1,-7.154539824E-1,7.819445133E0,-9.126823425E0
3.870738281E1,-3.179463148E-1,6.483652115E0,-1.056341457E1
3.872867250E1,1.724028707E0,2.631506681E0,-4.580460548E0
3.874996219E1,6.239284992E0,1.026849937E1,-1.350329685E1
3.877125188E1,3.737588882E0,7.498507977E0,-1.226321578E0
3.879254156E1,2.446960211E0,2.554936409E0,-1.440838146E1
3.881383125E1,-5.778965950E0,6.428617001E0,4.136292934E0
3.883512094E1,-1.792822361E0,1.273878932E0,-1.600768471E1
3.885641057E1,-1.361815214E0,3.105584621E0,-9.080761671E-1
3.887770026E1,2.978466034E0,3.840480328E0,-8.940183640E0
3.889898995E1,1.850848317E0,4.393521309E0,-1.400130272E1
3.892027964E1,-1.172782183E0,5.559424400E0,3.631108284E0
3.894156932E1,-2.231008053E0,4.948955536E0,-1.393430328E1
3.896285901E1,-9.446864128E0,1.023978519E1,-6.469594240E-1
3.898414870E1,-4.459922314E0,3.830909014E0,-1.288564873E1
3.900543839E1,-2.012962103E0,3.421437263E0,-4.664209366E0
3.902672802E1,2.662015148E-2,2.286641121E0,-1.226082325E1
3.904801771E1,2.923431158E0,8.975776672E0,-1.918445587E0
3.906930740E1,1.850848317E0,2.485544443E0,-2.063779640E1
3.909059708E1,1.477568030E0,4.486841679E0,-3.139383316E0
3.911188672E1,4.055834293E0,-1.649253011E0,-2.405893517E1
3.913317641E1,6.155536175E-1,1.043868923E1,3.454039574E0
3.915446609E1,7.757231712E0,6.785147667E0,-1.365404415E1
3.917575578E1,5.011168957E0,1.062772179E1,-4.387838542E-1
3.919704542E1,1.558923960E0,5.875576019E0,-1.638096428E1
3.921833510E1,-5.283352375E0,1.037408257E1,3.768695518E-2
3.923962479E1,-6.437291145E0,3.605983734E0,-1.366361523E1
3.926091448E1,-7.086344242E0,9.145667076E0,-2.579163790E0
3.928220412E1,-6.085546017E0,7.525127888E0,-6.790232658E0
3.930349380E1,-1.689931035E0,3.237190008E0,1.238285750E-1
3.932478349E1,2.691327333E0,4.872385025E0,-2.109871387E0
3.934607313E1,6.691827774E0,4.893920422E0,-9.984052658E0
3.936736281E1,5.281857014E0,3.414258718E0,-1.476251888E1
3.938865245E1,5.834897995E0,9.253643036E0,-1.925624084E1
3.940994214E1,-1.759322882E0,4.314558506E0,-8.732007980E0
3.943123182E1,8.958129883E-1,7.096513748E0,-3.414557934E0
3.945252146E1,-5.633003712E0,2.688934565E0,-1.221296692E1
3.947381115E1,-3.823132277E0,5.612066269E0,-4.103990078E0
3.949510083E1,7.929216027E-1,4.300201416E0,-1.144217873E1
3.951639047E1,-8.997012973E-1,9.435498238E0,2.735893488E0
3.953768016E1,1.721635938E0,9.921540260E0,-8.509176254E0
3.955896979E1,1.484746456E0,6.986443996E0,-1.963909149E0
3.958025948E1,9.747761488E-1,2.504687071E0,-1.125284672E1
3.960154912E1,-4.486542661E-3,6.763612270E0,-8.947361946E0
3.962283880E1,3.196511984E0,2.250748873E0,-7.060920715E0
3.964412844E1,1.417747378E0,5.188237667E0,-1.194706440E1
3.966541812E1,-3.756731451E-1,8.420342445E0,-6.615556240E0
3.968670776E1,-1.275673628E0,4.410271168E0,-7.156633377E0
3.970799745E1,-2.156830549E0,9.152845383E0,-4.389034748E0
3.972928708E1,6.538388133E-1,3.895515203E0,-6.921837807E0
3.975057672E1,8.165507019E-2,1.075454140E1,-8.446963310E0
3.977186641E1,-3.674478292E0,8.408378601E0,-5.064109802E0
3.979315604E1,9.963115454E-1,2.100000858E0,-1.107817078E1
3.981444573E1,-1.275673628E0,5.925825119E0,-2.231905222E0
3.983573537E1,-8.344969153E-2,6.392724991E0,-1.154267693E1
3.985702500E1,-8.113163948E0,1.246391392E1,2.345564365E0
3.987831469E1,-3.394817114E-1,3.131905794E0,-1.910788536E1
3.989960432E1,-1.776072621E0,1.211216927E1,1.828415632E0
3.992089396E1,5.451747417E0,-2.005783558E0,-2.083161545E1
3.994218365E1,-4.881358147E-1,8.863314629E0,-5.861518383E0
3.996347328E1,2.427817583E0,-4.516452923E-2,-1.476251888E1
3.998476292E1,-5.436792374E0,6.212964058E0,-3.471985579E0
4.000605260E1,-1.771286964E0,6.052644730E0,-7.563712597E0
4.002734224E1,3.093620539E0,1.061336517E1,-1.329033470E1
4.004863188E1,9.293124676E-1,3.878765583E0,-7.590033531E0
4.006992151E1,-1.086640596E0,5.897111416E0,-4.934897423E0
4.009121115E1,-3.392125130E0,9.526425362E0,-1.101894855E0
4.011250083E1,3.926621914E0,3.426223040E0,-1.734347725E1
4.013379047E1,-3.801596880E0,4.860421181E0,-7.130312443E0
4.015508010E1,-2.970689297E0,7.072585583E0,-9.598508835E0
4.017636974E1,-1.553540111E0,7.366902828E0,-2.111666054E-1
4.019765938E1,-1.227817178E0,-1.323530078E0,-3.804887056E0
4.021894906E1,2.001895189E0,2.226820469E0,-5.653043270E0
4.024023870E1,3.680161238E0,2.471187592E0,-9.708579063E0
4.026152833E1,3.933800459E0,8.966205597E0,-7.264310360E0
4.028281797E1,-5.934200287E-1,8.193024635E0,-9.512367249E0
4.030410760E1,-6.460621357E-1,7.951050758E0,-6.885945320E0
4.032539724E1,-1.600200087E-1,2.123929262E0,-1.162881851E1
4.034668688E1,-2.891726255E0,4.735994339E0,-7.704888821E0
4.036797651E1,-2.707478762E0,8.856135368E0,-7.774280548E0
4.038926615E1,8.838488460E-1,1.377069473E0,-9.062217712E0
4.041055578E1,-1.000499010E0,8.142775536E0,-5.135894775E0
4.043184542E1,6.873382926E-1,-1.883749604E0,-1.269392371E0
4.045313505E1,3.167798042E0,-3.909274101E0,-1.025683403E1
4.047442469E1,5.501996517E0,-2.094617128E0,-7.032206535E0
4.049571432E1,-2.128116608E0,6.423831463E0,-1.089631653E1
4.051700396E1,1.101595759E0,1.968395710E0,-1.078594685E1
4.053829359E1,-3.068794966E0,1.309771299E0,-8.585746765E0
4.055958323E1,-1.639681697E0,5.786742687E0,-6.747161865E0
4.058087286E1,-3.751347780E0,5.178666592E0,-4.386641979E0
4.060216250E1,1.997109652E0,5.439783096E0,-1.411376572E1
4.062345214E1,1.515853167E0,4.958526611E0,-8.360821724E0
4.064474177E1,-2.657229662E0,6.864110947E0,-2.770589590E0
4.066603141E1,-2.247757673E0,5.080560684E0,-3.589533091E0
4.068732104E1,-1.321137190E0,8.372486115E0,-9.297013283E0
4.070861063E1,-5.934200287E-1,8.503493667E-1,-9.866804123E0
4.072990026E1,1.309771299E0,3.526721478E0,-7.721638680E0
4.075118990E1,1.001097202E0,5.619245052E0,-6.684948444E0
4.077247953E1,3.586841106E0,-1.493719578E0,-1.307228947E1
4.079376917E1,-1.148854017E0,5.702993870E0,-6.493522644E0
4.081505875E1,1.690529227E0,2.775076151E0,-1.298136234E1
4.083634838E1,-1.041176915E0,2.315355062E0,-3.914957047E0
4.085763802E1,-5.417649746E0,5.197809219E0,-4.822434902E0
4.087892766E1,-8.925228715E-1,8.324629784E0,-1.606271935E1
4.090021724E1,4.024727821E0,2.681756020E0,-9.124430656E0
4.092150688E1,5.324927807E0,4.376771927E0,-1.158574772E1
4.094279651E1,-9.574281573E-1,9.406784058E0,-1.571187139E0
4.096408609E1,4.049852192E-1,5.137988567E0,-1.315872955E1
4.098537573E1,-1.600200087E-1,2.135893345E0,-7.903493404E0
4.100666536E1,-4.483850479E0,8.942276955E0,-4.156930923E0
4.102795495E1,-3.876372576E-1,1.034536839E1,-1.003908730E1
4.104924458E1,-1.615753531E0,7.711768150E0,-8.765507698E0
4.107053422E1,-5.431707501E-1,2.691327333E0,-1.072134113E1
4.109182380E1,-2.522932291E0,6.600900173E0,-4.195216179E0
4.111311344E1,-2.726621389E0,1.494198132E1,-1.346261859E0
4.113440307E1,9.340981245E-1,3.579363585E0,-4.616353035E0
4.115569266E1,2.257927179E0,2.193320990E0,-5.741578102E0
4.117698229E1,3.512364626E0,4.824528694E0,-1.020897770E1
4.119827188E1,-1.438385487E0,8.312665939E0,-9.507581711E0
4.121956151E1,-2.740978241E0,1.028524876E1,-6.555736065E0
4.124085109E1,1.606182158E-1,9.358927727E0,-1.523420429E1
4.126214073E1,1.266700506E0,1.791027784E0,-5.202893734E0
4.128343031E1,1.414756328E-1,6.023931026E0,-6.349654198E0
4.130471995E1,-3.852444589E-1,8.525627136E0,-5.260321617E0
4.132600953E1,1.434497118E0,6.878467560E0,-4.274179459E0
4.134729917E1,3.651447296E0,-4.043870270E-1,-1.257936764E1
4.136858875E1,2.657827854E0,3.708875179E0,-1.104706383E1
4.138987838E1,-3.131606579E-1,4.230809689E0,-1.250249863E1
4.141116797E1,-2.307578325E0,9.691530228E0,-8.846863747E0
4.143245755E1,2.025823355E0,5.813063622E0,-8.114360809E0
4.145374719E1,2.143071890E0,7.055835724E0,-1.313001633E1
4.147503677E1,-1.383350611E0,1.671386600E0,-2.136192322E0
4.149632635E1,-8.279166222E-1,2.866003275E0,-3.895814419E0
4.151761599E1,-2.125723839E0,4.417449474E0,-6.438487530E0
4.153890557E1,-2.999403238E0,5.705386639E0,-1.165992546E1
4.156019521E1,-6.102295876E0,5.997610092E0,6.002993584E-1
4.158148479E1,-5.527420044E-1,4.360022068E0,-9.835697174E0
4.160277438E1,3.140579760E-1,9.201001167E0,-8.669795036E0
4.162406401E1,1.697707653E0,1.224616718E1,-1.689093590E1
4.164535359E1,1.534397453E-1,1.058704376E1,-1.841576099E0
4.166664318E1,2.219642162E0,6.373282909E0,-1.408744431E1
4.168793276E1,-3.952344894E0,6.234499454E0,-1.183250785E0
4.170922240E1,-1.484148264E0,6.543472767E0,-9.296116233E-1
4.173051198E1,-1.646860242E0,4.812564373E0,-1.084337521E1
4.175180156E1,-3.763311863E0,7.465008259E0,-5.954838276E0
4.177309115E1,1.065703392E0,6.849454641E-1,-1.480080414E1
4.179438078E1,-2.417648077E0,4.994419098E0,-7.034599304E0
4.181567036E1,2.446960211E0,3.524328709E0,-1.038873863E1
4.183695995E1,5.509474277E-1,-2.326720953E0,3.849453330E-1
4.185824953E1,1.709671736E0,2.691327333E0,-4.580460548E0
4.187953912E1,3.523431420E-1,9.696315765E0,-7.197311401E0
4.190082875E1,-2.309971094E0,1.091994476E1,-7.410272598E0
4.192211833E1,-1.057926655E0,9.030811310E0,-1.360858059E1
4.194340792E1,-5.826822281E0,7.230511665E0,1.316052437E0
4.196469750E1,-2.029711723E0,2.897109985E0,-8.466105461E0
4.198598708E1,-2.185544491E0,9.090632439E0,-6.809374809E0
4.200727667E1,3.234797001E0,5.473282814E0,-1.117866898E1
4.202856630E1,3.031407118E0,4.635196686E0,-1.093699455E1
4.204985588E1,7.304090858E-1,1.056132078E0,1.349551916E0
4.207114547E1,8.644071966E-2,1.580459356E0,-1.308903885E1
4.209243505E1,-1.914856315E0,5.147559643E0,-8.518747330E0
4.211372464E1,-4.282853603E0,7.156334400E0,-7.932207108E0
4.213501422E1,-2.216650963E0,7.278368473E0,-1.324427366E0
4.215630380E1,1.010668516E0,5.161916733E0,-9.972088814E0
4.217759338E1,1.899003863E0,4.336093903E0,-7.743174076E0
4.219888297E1,9.066703796E0,7.333403111E0,-2.149711800E1
4.222017255E1,2.650649309E0,5.504389286E0,-1.489831209E0
4.224146214E1,2.901895761E0,6.569793701E0,-6.222834587E0
4.226275177E1,-6.628118753E-1,8.484949112E0,-5.878267765E0
4.228404135E1,1.434497118E0,6.198606968E0,-1.017547798E1
4.230533089E1,7.447660565E-1,6.450152397E0,-9.296116233E-1
4.232662052E1,6.705885530E-1,2.605185747E0,-8.954540253E0
4.234791010E1,-1.433599830E0,7.498507977E0,-5.751149178E0
4.236919969E1,3.020938635E-1,6.955337048E0,-1.062323570E1
4.239048927E1,-4.833501875E-1,-1.112961650E0,-8.200502396E0
4.241177885E1,-1.407278776E0,9.679565430E0,-2.560021162E0
4.243306844E1,-2.341077805E0,1.235593796E0,-7.968099594E0
4.245435802E1,6.586244106E-1,6.926324368E0,-8.432605743E0
4.247564760E1,2.933002472E0,4.383950233E0,-9.596116066E0
4.249693719E1,7.848159313E0,-7.992027402E-1,-2.140619087E1
4.251822677E1,-2.702693224E0,6.124429703E0,-3.091526747E0
4.253951635E1,1.821536273E-1,1.090319538E1,-1.021854877E1
4.256080594E1,-9.191430211E-1,5.612066269E0,-9.021539688E0
4.258209547E1,3.427718580E-1,2.923431158E0,-1.186570835E1
4.260338510E1,-3.315554857E0,4.288237095E0,-6.536593437E0
4.262467464E1,2.901297510E-1,1.759921074E0,-6.613163471E0
4.264596422E1,3.136691332E0,8.018049240E0,-1.544746494E1
4.266725380E1,4.480560422E-1,2.712862730E0,-1.800898194E0
4.268854338E1,1.027418256E0,6.746862411E0,-3.024228811E0
4.270983297E1,5.796613097E-1,5.236093998E0,-2.713161707E0
4.273112255E1,-3.219841957E0,7.575377464E0,-9.128618240E-1
4.275241214E1,-1.187139153E0,6.450152397E0,-3.673281908E0
4.277370172E1,-4.782953262E0,1.316321659E1,2.374278307E0
4.279499130E1,-2.116152525E0,3.356831074E0,-1.380030537E1
4.281628089E1,-4.402494431E0,6.979265213E0,-1.009890842E1
4.283757042E1,-1.400100350E0,1.973181367E0,-1.002712345E1
4.285886000E1,-1.651645780E0,1.810170293E0,-3.438486099E0
4.288014958E1,-1.412064433E0,1.355324650E1,-5.775077343E0
4.290143917E1,6.442674994E-1,1.012971592E1,-5.767899036E0
4.292272875E1,3.086441994E0,6.505187511E0,-6.665805817E0
4.294401833E1,7.809575200E-1,2.648256540E0,-6.646663189E0
4.296530792E1,-1.208674550E0,6.117250919E0,-4.755435944E0
4.298659750E1,-4.428815842E0,4.889134884E0,-3.483949661E0
4.300788703E1,-4.766203403E0,1.083350468E1,-1.729113460E0
4.302917662E1,1.185344458E0,7.137191772E0,-1.210289669E1
4.305046620E1,-1.565504193E0,6.038288116E0,-8.755936623E0
4.307175578E1,4.295415878E0,6.102894306E0,-1.450409412E1
4.309304536E1,4.724030018E0,1.107308578E1,-1.293350506E1
4.311433490E1,7.369295597E0,2.569293261E0,-2.110708809E1
4.313562448E1,-1.428814173E0,1.435544014E1,-1.351047516E0
4.315691406E1,4.313062727E-1,4.178167343E0,-1.042702389E1
4.317820365E1,-6.401398659E0,1.026610661E1,-2.243869543E0
4.319949323E1,2.308176517E0,5.933003902E0,-1.606032562E1
4.322078281E1,-2.958725214E0,4.221238136E0,-2.117049932E0
4.324207234E1,-4.313960075E0,5.947360516E0,-5.672185898E0
4.326336193E1,-4.170091629E0,5.930611134E0,-1.686042666E0
4.328465151E1,-1.644467354E0,5.221737385E0,-1.522702599E1
4.330594109E1,-2.994617462E0,9.287142754E0,-6.005087376E0
4.332723063E1,-3.799204111E0,7.003193855E0,-1.264397430E1
4.334852021E1,-6.004190445E0,1.088644600E1,-1.717149377E0
4.336980979E1,-2.441576481E0,4.067798615E0,-1.009172916E1
4.339109938E1,3.547359705E-1,3.421437263E0,-1.174845982E1
4.341238891E1,3.694518089E0,5.272285461E0,-8.212466240E0
4.343367849E1,5.255236626E0,7.285546780E0,-8.372785568E0
4.345496807E1,7.048657417E0,5.901896954E0,-1.476730537E1
4.347625766E1,7.220940590E0,3.541078329E0,-1.035284615E1
4.349754719E1,4.328915119E0,2.672184706E0,-4.939683437E0
4.351883677E1,2.171785593E0,7.498507977E0,-7.273881912E0
4.354012635E1,5.748756528E-1,8.243273735E0,-1.197817135E1
4.356141588E1,-5.774179935E0,1.000289631E1,-2.509771824E0
4.358270547E1,-3.339483023E0,5.576174259E0,-4.209573269E0
4.360399505E1,-4.253840446E0,9.641280174E0,-7.958528042E0
4.362528458E1,-2.843869686E0,8.360522270E0,-5.868696690E0
4.364657417E1,1.185344458E0,3.929014683E0,-2.830410004E0
4.366786375E1,3.179762125E0,6.581758022E0,-1.063519955E1
4.368915333E1,2.743969440E0,3.469293833E0,-9.701400757E0
4.371044287E1,4.624129832E-1,3.670589924E0,-9.340084076E0
4.373173245E1,-1.924427629E0,1.625923038E0,-7.664210796E0
4.375302203E1,-1.725823283E0,7.326224804E0,-1.120499039E1
4.377431156E1,-1.943570137E0,2.303390980E0,-8.681758881E0
4.379560115E1,-4.666004181E-1,8.918349266E0,-4.044169426E0
4.381689073E1,6.002395630E0,1.408176184E0,-1.592602921E1
4.383818026E1,5.769992828E0,2.327319145E0,-1.449213028E1
4.385946984E1,4.159024715E0,8.602197647E0,-1.221057415E1
4.388075943E1,-1.424028635E0,8.065905571E0,-4.762614250E0
4.390204896E1,-1.957927108E0,1.043390274E1,-9.533903122E0
4.392333854E1,-1.929213285E0,8.027621269E0,-3.766602039E0
4.394462807E1,1.412961721E0,6.193821430E0,-1.446820259E1
4.396591766E1,-1.600200087E-1,8.226524353E0,-3.268595695E0
4.398720724E1,1.245165110E0,5.114060402E0,-1.146371460E1
4.400849677E1,-4.522434771E-1,7.082156658E0,-7.202096939E0
4.402978635E1,-2.662015200E0,7.757231712E0,-3.005086184E0
4.405107594E1,-2.317149639E0,7.762017727E0,-1.055623627E1
4.407236547E1,-4.464707851E0,6.306283951E0,1.816451430E0
4.409365505E1,5.988038778E-1,1.027418256E0,-1.113799095E1
4.411494458E1,2.901297435E-2,1.012493038E1,-7.855636597E0
4.413623417E1,3.490829229E0,3.720839262E0,-1.521745491E1
4.415752370E1,-1.697109461E0,5.097310543E0,-3.716352701E0
4.417881328E1,-3.207877874E0,1.441675663E0,-5.201398134E-1
4.420010287E1,6.634100676E-1,1.570888042E0,-1.606032562E1
4.422139240E1,-2.041975021E0,2.040180445E0,-9.670293808E0
