"Time (s)","Gyroscope x (rad/s)","Gyroscope y (rad/s)","Gyroscope z (rad/s)"
7.523197900E-2,-1.245746613E0,-6.010736823E-1,-7.650098205E-1
9.652177100E-2,-1.732591867E0,-5.656445622E-1,-9.048938751E-1
1.178115630E-1,-2.220658779E0,-1.004309297E0,-1.117468715E0
1.391013540E-1,-2.311675072E0,-1.995103478E0,-1.238416433E0
1.603911980E-1,-2.110706329E0,-3.133111954E0,-1.380743861E0
1.816809900E-1,-2.384976864E0,-4.409248352E0,-1.593929529E0
2.029707810E-1,-2.675129175E0,-3.404938936E0,-1.269569635E0
2.242605730E-1,-2.696508884E0,-1.546741605E0,-4.045335948E-1
2.455504170E-1,-2.726440430E0,-3.549022675E-1,6.314633489E-1
2.668402080E-1,-2.656803846E0,1.276670843E-1,1.394411564E0
2.881300000E-1,-1.788789868E0,-3.665083554E-3,1.605764747E0
3.094198440E-1,-3.191677108E-2,-5.699204803E-1,1.267966151E0
3.307096350E-1,2.057868004E0,-1.461833835E0,5.581616759E-1
3.519994270E-1,2.787219763E0,7.440119386E-1,1.055238619E-1
3.732892710E-1,2.429263115E0,1.396396875E0,-1.725643501E-2
3.945790630E-1,1.696780920E0,-4.764608741E-1,3.651339412E-1
4.158689060E-1,6.742226481E-1,-3.766026020E0,-3.037438095E-1
4.371586980E-1,5.990884304E-1,-3.584527969E0,-9.788063765E-1
4.584484900E-1,6.467345357E-1,-2.235777378E0,-8.462525010E-1
4.797383330E-1,-1.571404636E-1,1.417165697E-1,1.018587798E-1
5.010281250E-1,-9.952992797E-1,9.669712186E-1,7.499676943E-1
5.223179690E-1,-1.086315513E0,1.343864016E-2,6.986565590E-1
5.436077600E-1,-2.872509360E-1,-1.147247553E0,9.619317055E-1
5.648976040E-1,1.928750277E-1,-2.839294434E0,1.322942495E0
5.861873960E-1,1.495048702E-1,-3.877200365E0,1.855601311E0
6.074772400E-1,1.916533262E-1,-2.005487919E0,4.341596961E-1
6.287670310E-1,1.128540337E-1,-3.127537966E-1,-8.932877779E-1
6.500568750E-1,3.333698809E-1,-7.287407517E-1,-1.137626648E0
6.713466670E-1,1.782299638E0,-2.358557701E0,-1.675172210E0
6.926365100E-1,3.567271709E0,-3.351184368E0,-2.275635004E0
7.139263540E-1,3.950272799E0,-4.828289509E0,-2.533412695E0
7.352161460E-1,3.776181459E0,-6.184370518E0,-3.569485903E0
7.565059900E-1,3.070041895E0,-6.755589008E0,-3.380657911E0
7.777958330E-1,2.061533213E0,-4.891817570E0,-2.223102331E0
7.990856250E-1,1.228261113E0,-2.928478003E0,-2.076498985E0
8.203754690E-1,1.189625040E-1,-1.932186246E0,-1.942723393E0
8.416652600E-1,-1.614087582E0,-3.848337829E-1,-6.720846891E-1
8.629551040E-1,-2.756982803E0,1.343863964E0,2.472404242E-1
8.842449480E-1,-3.437542915E0,2.298694611E0,8.336538076E-1
9.055347400E-1,-3.173580647E0,3.158156633E0,1.138466597E0
9.268245830E-1,-2.339163303E0,3.376229048E0,1.107313395E0
9.481144270E-1,-1.343482137E0,5.179984570E-1,9.191724062E-1
9.694042710E-1,-1.117468715E0,-8.594620824E-1,-5.163186193E-1
9.906941150E-1,-8.480850458E-1,-1.197260618E-1,-4.570664763E-1
1.011983906E0,-3.206948051E-3,-1.028743148E0,-1.282397509E0
1.033273750E0,2.156214476E0,-2.480726957E0,-3.244438887E0
1.054563594E0,2.250284910E0,-2.382304370E-1,-4.336709976E0
1.075853438E0,5.646672249E0,-7.602834225E0,-5.411190510E0
1.097143281E0,6.948387623E0,-9.845330238E0,-6.901733875E0
1.118433125E0,6.161616325E0,-7.677357197E0,-7.206546783E0
1.139722969E0,4.544016361E0,-4.336557388E0,-5.602996349E0
1.161012813E0,3.127461672E0,-3.041484833E0,-3.475415468E0
1.182302656E0,2.001059294E0,-1.488711119E0,-1.643408179E0
1.203592500E0,1.338213682E0,-5.986303091E-1,-2.988570333E-1
1.224882344E0,1.706554532E0,-5.570927262E-1,2.405211031E-1
1.246172188E0,2.128115416E0,-4.703523815E-1,6.956022978E-1
1.267462031E0,3.267345667E0,-2.056188345E0,2.004724264E0
1.288751875E0,2.399942636E0,-1.342107773E0,-1.526125550E0
1.310041719E0,-6.482616663E-1,-9.602518678E-1,-1.074709415E0
1.331331563E0,-2.408265322E-1,-1.734806150E-1,3.400892019E-1
1.352621458E0,7.304205894E-1,-9.382613897E-1,1.405406833E0
1.373911302E0,4.769189954E-1,-9.443698525E-1,4.421007037E-1
1.395201146E0,6.552863717E-1,-2.076346159E0,2.221956849E-1
1.416490990E0,4.781406820E-1,-8.008207679E-1,-2.218902707E-1
1.437780885E0,2.735068500E-1,-9.290986657E-1,2.887780368E-1
1.459070729E0,2.527380586E-1,1.435490996E-1,6.449019909E-1
1.480360625E0,4.231644273E-1,1.010952234E0,1.389677543E-2
1.501650469E0,7.493568659E-1,1.315765023E0,6.522321701E-1
1.522940313E0,6.913263798E-1,1.133121610E0,3.009949923E-1
1.544230208E0,9.216157794E-1,9.962918758E-1,4.970769584E-1
1.565520052E0,8.880192041E-1,1.385401607E0,-2.017323077E-1
1.586809948E0,8.965710402E-1,1.536280870E0,3.907895386E-1
1.608099792E0,1.026681542E0,7.519529462E-1,1.146865711E-1
1.629389688E0,1.809176922E0,9.077190161E-1,4.824166298E-1
1.650679583E0,1.520246148E0,1.379903913E0,-3.342861533E-1
1.671969427E0,8.635852933E-1,9.907942414E-1,-5.352548957E-1
1.693259323E0,-1.908897609E-2,4.269822240E-1,-1.317215800E0
1.714549219E0,-1.553079188E-1,4.941754341E-1,-6.678087711E-1
1.735839115E0,-1.725643501E-2,6.438329816E-1,-5.462501645E-1
1.757128958E0,2.655658424E-1,3.994941115E-1,1.769929975E-1
1.778418854E0,9.423846006E-1,4.764608741E-1,6.589514613E-1
1.799708750E0,1.402352571E0,2.272351831E-1,6.956022978E-1
1.820998646E0,1.052947998E0,-9.895725548E-2,5.709894896E-1
1.842288542E0,3.095468581E-1,-2.064663768E-1,1.098761559E0
1.863578438E0,-1.044167042E0,4.520269856E-2,1.340046167E0
1.884868333E0,-2.174234390E0,1.899735034E-1,1.378529549E0
1.906158229E0,-2.460721731E0,2.919849753E-1,1.849492788E0
1.927448125E0,-2.240816832E0,2.028012872E-1,1.519635320E0
1.948738021E0,-1.642186522E0,8.796200156E-2,9.753703475E-1
1.970027917E0,-1.584156036E0,6.487197876E-1,9.039012194E-1
1.991317813E0,-1.661733627E0,9.675820470E-1,6.192464232E-1
2.012607708E0,-1.556667924E0,7.324058414E-1,-1.186570823E-1
2.033897656E0,-5.835118294E-1,-7.391251624E-2,-1.152897835E0
2.055187552E0,4.402681589E-1,-6.065713167E-1,-1.850485444E0
2.076477448E0,1.336381078E0,-1.086162806E0,-2.124755859E0
2.097767344E0,1.119530320E0,-2.620534599E-1,-1.415562153E0
2.119057292E0,1.110978484E0,-1.050733685E0,-4.428642802E-3
2.140347188E0,-5.511369109E-1,-9.376505613E-1,1.746259570E0
2.161637083E0,-1.913402677E0,-1.472141892E-1,3.077982903E0
2.182927031E0,-2.794244528E0,3.842229247E-1,3.664396286E0
2.204216927E0,-3.434488773E0,7.769976854E-1,3.123796463E0
2.225506823E0,-3.511455536E0,5.375456065E-2,2.073750019E0
2.246796771E0,-2.397804499E0,-8.753440976E-1,-4.857762754E-1
2.268086667E0,-1.608055383E-1,-2.216840982E0,-8.438091278E-1
2.289376615E0,1.182447553E0,-1.075167537E0,-7.986064553E-1
2.310666510E0,1.413347840E0,-1.569877416E-1,4.561502039E-1
2.331956458E0,-6.342121959E-1,-1.198558688E0,1.099372387E0
2.353246354E0,-1.868199944E0,-8.454126120E-1,1.332105160E0
2.374536302E0,-1.967768073E0,-6.725428104E-1,1.004080176E0
2.395826250E0,-1.496804833E0,-9.339854717E-1,1.107924223E0
2.417116146E0,-9.916341901E-1,-6.963658929E-1,6.894938350E-1
2.438406094E0,-3.104631305E-1,-8.423583508E-1,2.435753495E-1
2.459696042E0,9.582666159E-1,-1.306678653E0,6.015318632E-1
2.480985938E0,7.878402472E-1,-8.386932611E-1,-4.662291706E-1
2.502275885E0,2.179197669E-1,-1.458779573E0,-8.890118003E-1
2.523565833E0,-8.572477698E-1,-1.022023797E0,-1.719764113E0
2.544855729E0,-1.101586699E0,-1.365930796E0,-1.165114760E0
2.566145677E0,-1.063103318E0,-1.095936298E0,-1.160228014E0
2.587435625E0,-3.819322586E-1,-1.260254264E0,-4.008685052E-1
2.608725573E0,-7.986064553E-1,-2.693836391E-1,-8.603020310E-1
2.630015469E0,-1.031339288E0,-1.150301695E0,-9.855256677E-1
2.651305417E0,-7.093463540E-1,-8.130376935E-1,-1.199933052E0
2.672595365E0,-3.239017725E-1,-6.163448691E-1,-8.303704858E-1
2.693885313E0,5.105155706E-1,8.112051487E-1,-1.563387156E0
2.715175260E0,9.429954290E-1,-3.817795515E-1,-1.544450879E0
2.736465208E0,5.508314967E-1,1.673721522E-1,-1.657457709E0
2.757755156E0,5.728220344E-1,-9.547542930E-1,-1.740532875E0
2.779045104E0,5.557183027E-1,-1.376315236E0,-1.417394757E0
2.800335052E0,9.326110482E-1,-1.781306982E0,-8.682430387E-1
2.821624948E0,1.521467805E0,-2.274871588E0,-2.035648525E-1
2.842914896E0,8.281561732E-1,-2.056799173E0,-7.014053464E-1
2.864204896E0,2.747285664E-1,-2.462401628E0,-1.754658818E-1
2.885494844E0,5.123481154E-1,-1.010417700E0,9.576557875E-1
2.906784740E0,1.426786542E0,-6.340594292E-1,2.211801529E0
2.928074688E0,4.115583301E-1,-2.400629669E-1,1.998005033E0
2.949364688E0,-2.267770469E-1,4.184303582E-1,1.672347069E0
2.970654635E0,-1.464429975E0,1.059819937E0,1.471989155E0
2.991944583E0,-1.779016256E0,4.098785222E-1,2.845021188E-1
3.013234531E0,-2.723386049E0,9.009997249E-1,-7.369108796E-1
3.034524479E0,-2.446672440E0,7.763868570E-1,-1.603474095E-2
3.055814427E0,-1.484587908E0,2.382304370E-1,-2.005106062E-1
3.077104375E0,-4.564556181E-1,8.338065147E-1,9.399412274E-1
3.098394323E0,3.364241421E-1,2.608317733E-1,4.677563012E-1
3.119684271E0,9.374978542E-1,5.625903010E-1,8.170082420E-2
3.140974219E0,8.244910836E-1,2.199050188E-1,-1.852394342E-1
3.162264219E0,9.729269743E-1,-8.185353130E-2,2.392994165E-1
3.183554167E0,1.156181097E0,-4.165978432E-1,3.132119179E-1
3.204844115E0,1.820783019E0,-2.589992285E-1,1.114032745E0
3.226134063E0,1.599045396E0,-6.420004964E-1,1.016297102E0
3.247424010E0,1.291178346E0,-6.792621613E-1,1.217265844E0
3.268713958E0,8.794673681E-1,-3.542914242E-2,1.145796776E0
3.290003958E0,4.304946065E-1,-2.754921019E-1,5.575508475E-1
3.311293906E0,-4.711159468E-1,3.237490356E-2,-1.786728203E-2
3.332583854E0,-1.043556213E0,6.291726977E-2,3.315373361E-1
3.353873802E0,-1.425946593E0,-1.386623234E-1,1.085322857E0
3.375163802E0,-1.674561381E0,-7.085828483E-2,7.750124335E-1
3.396453750E0,-2.089937449E0,-1.710372269E-1,2.203631550E-1
3.417743698E0,-1.296446919E0,-7.220214605E-1,5.044071078E-1
3.439033646E0,-1.112581968E0,-2.425063550E-1,5.344913341E-3
3.460323646E0,-1.105862617E0,-1.692046970E-1,-3.055763543E-1
3.481613594E0,-1.294003606E0,-4.642439187E-1,-1.019122243E0
3.502903542E0,-6.824691296E-1,-3.426853120E-1,-5.034908652E-1
3.524193490E0,-5.816792846E-1,-2.089097649E-1,-3.886515796E-1
3.545483490E0,-4.924955964E-1,4.202629030E-1,-2.481566966E-1
3.566773438E0,-9.055810422E-2,-1.020114943E-1,-2.383831441E-1
3.588063385E0,-2.487675399E-1,2.455606014E-1,-1.363640189E0
3.609353385E0,4.072824121E-1,-1.301104724E-1,-9.061155319E-1
3.630643333E0,1.457328796E0,-1.459924877E-1,-1.363716573E-1
3.651933281E0,1.795738220E0,2.681619525E-1,-2.092151903E-2
3.673223281E0,1.139688253E0,1.630962193E-1,-1.614163816E-1
3.694513229E0,1.906301618E0,-5.277720094E-1,4.805840850E-1
3.715803177E0,1.385859728E0,4.581354558E-2,1.357760787E0
3.737093177E0,1.082268596E0,-1.655396074E-1,1.781688690E0
3.758383125E0,2.851129472E-1,-2.761029601E-1,7.359182239E-1
3.779673073E0,2.631224692E-1,-6.633801460E-1,1.458397806E-1
3.800963073E0,1.079672500E-1,-9.009997249E-1,-9.116895497E-2
3.822253021E0,2.942756712E-1,-5.662553906E-1,4.830274582E-1
3.843543021E0,-1.375933439E-1,-3.775036037E-1,1.366770715E-1
3.864832969E0,-8.853467703E-1,-2.809897363E-1,-2.548760176E-1
3.886122917E0,-1.011792183E0,-1.258345395E-1,-2.237228155E-1
3.907412917E0,-8.315922022E-1,6.053496599E-1,-3.465031087E-1
3.928702865E0,-5.163186193E-1,7.733326554E-1,-7.227849960E-1
3.949992813E0,6.271874309E-1,4.275930822E-1,1.672194302E-1
3.971282813E0,1.098150611E0,-2.504473738E-2,5.428904891E-1
3.992572760E0,8.238802552E-1,4.874561131E-1,4.549284875E-1
4.013862708E0,8.898517489E-1,-1.740914732E-1,6.449019909E-1
4.035152708E0,3.529170156E-1,4.789042473E-1,8.611419201E-1
4.056442656E0,5.909947306E-2,1.942494214E-1,1.233147860E0
4.077732656E0,-4.595098495E-1,1.386623234E-1,6.387935281E-1
4.099022604E0,-7.564579844E-1,-1.117850468E-1,-9.972081333E-2
4.120312552E0,-8.493067622E-1,-4.343124032E-1,-4.718795046E-2
4.141602552E0,-9.836931825E-1,-1.863084137E-1,-8.567132801E-2
4.162892500E0,-6.122216582E-1,1.276670843E-1,1.244601309E-1
4.184182500E0,-5.879404768E-2,6.597150117E-2,-2.396048307E-1
4.205472448E0,9.179506898E-1,-3.579564989E-1,-1.327065676E-1
4.226762396E0,1.522078633E0,1.166718230E-1,-4.430169761E-1
4.248052396E0,1.862320542E0,1.655396074E-1,-1.791309565E-1
4.269342344E0,1.729766726E0,-1.026223376E-1,-4.234698713E-1
4.290632344E0,1.388913989E0,-9.834641218E-2,-1.249411702E0
4.311922292E0,8.299887180E-1,-1.630962193E-1,-1.815667152E0
4.333212292E0,8.079982400E-1,-2.400629669E-1,-9.690328240E-1
4.354502240E0,5.654918551E-1,-3.054236174E-1,-5.144860744E-1
4.375792188E0,-5.573981255E-2,-8.325847983E-1,-7.851678133E-1
4.397082188E0,-3.562766612E-1,-1.298126817E0,-1.444272041E0
4.418372135E0,2.637332976E-1,-1.157631874E0,-1.418005586E0
4.439662135E0,6.381826997E-1,-1.301180959E0,-1.497415662E0
4.460952083E0,5.331169367E-1,-7.403468490E-1,-1.522460461E0
4.482242083E0,4.243861437E-1,-1.334166765E0,-4.686725736E-1
4.503532031E0,2.338017821E-1,-9.724688530E-1,3.710897267E-2
4.524821979E0,-3.526115716E-1,-5.289937258E-1,8.780929446E-2
4.546111979E0,-6.256603003E-1,-2.376195788E-1,3.016058207E-1
4.567401927E0,-5.987830162E-1,-1.307213157E-1,6.253548861E-1
4.588691927E0,-1.029506683E0,5.314370990E-2,3.804051280E-1
4.609981875E0,-1.158395529E0,1.012784719E0,-3.831539452E-1
4.631271875E0,-5.584670901E-1,5.393781066E-1,-8.902335167E-1
4.652561823E0,5.929799676E-1,1.136175916E-1,-2.958027720E-1
4.673851771E0,1.167176366E0,2.394521236E-1,-5.120427012E-1
4.695141771E0,1.570946455E0,1.276670843E-1,-3.436015919E-2
4.716431719E0,1.539793253E0,-3.481829464E-1,-1.308740228E-1
4.737721719E0,1.286291599E0,-3.610107303E-1,7.230904698E-1
4.759011667E0,9.484930634E-1,-5.607577562E-1,1.128082156E0
4.780301667E0,6.320741773E-1,2.137965411E-1,1.340046167E0
4.801591615E0,-3.104631305E-1,3.426853120E-1,7.475243211E-1
4.822881615E0,-5.676298141E-1,3.390202224E-1,-3.733803928E-1
4.844171563E0,6.901046634E-1,-6.884248853E-1,-4.454603493E-1
4.865461510E0,7.175928354E-1,4.550811946E-1,-5.572454333E-1
4.886751510E0,1.843231618E-1,6.719320081E-3,-5.590779781E-1
4.908041458E0,-2.249445021E-1,1.728697717E-1,-1.039967462E-1
4.929331458E0,1.195733473E-1,-4.001049399E-1,1.040731072E0
4.950621406E0,-8.743515015E-1,5.754181147E-1,8.336538076E-1
4.971911406E0,-1.359975100E0,4.599680007E-1,6.223006248E-1
4.993201354E0,-1.913402677E0,6.456655264E-1,3.527642787E-2
5.014491302E0,-1.613476634E0,3.090887070E-1,2.295258641E-1
5.035781302E0,-9.794172049E-1,3.561239541E-1,1.953184158E-1
5.057071250E0,-6.757497787E-1,2.192941606E-1,-3.807105422E-1
5.078361250E0,-1.181607723E0,7.476770282E-1,-8.523610234E-1
5.099651198E0,-5.358657837E-1,-1.007898003E-1,9.086353332E-2
5.120941198E0,-5.268557742E-2,-5.118899941E-1,3.510844707E-1
5.142231146E0,-1.119377613E-1,4.269822240E-1,5.557183027E-1
5.163521094E0,2.244863659E-2,-5.241069198E-1,8.012788892E-1
5.184811094E0,8.719844371E-2,2.608317733E-1,9.863656163E-1
5.206101042E0,6.937697530E-1,-2.510582209E-1,1.280794024E0
5.227391042E0,8.745805621E-1,8.399149776E-1,1.214211583E0
5.248680990E0,3.089359999E-1,1.139230132E0,4.158342779E-1
5.269970990E0,-2.764083818E-2,4.605788291E-1,-5.696150661E-2
5.291260938E0,-8.200624585E-2,7.391251624E-2,-3.031329513E-1
5.312550885E0,-1.754658818E-1,-5.619794726E-1,-1.400367320E-1
5.333840885E0,-6.531484127E-1,-6.340594292E-1,-3.904841244E-1
5.355130833E0,-5.767925382E-1,-2.020759106E0,-4.387410581E-1
5.376420833E0,-1.145567656E0,-1.555904269E0,-6.610894203E-1
5.397710781E0,-6.195518374E-1,-1.795967340E0,-5.212054253E-1
5.419000781E0,-9.036721587E-1,-1.205888867E0,-5.267030597E-1
5.440290729E0,-6.287145615E-1,-8.777875304E-1,2.307475507E-1
5.461580677E0,-9.946883917E-1,-5.326588154E-1,8.147175312E-1
5.482870677E0,-1.603092313E0,-4.379774928E-1,7.310314775E-1
5.504160625E0,-1.556057096E0,-5.925218463E-1,6.412369013E-1
5.525450625E0,-1.733813643E0,-4.520269856E-2,9.758284688E-2
5.546740573E0,-8.267053962E-1,-4.721849263E-1,2.704526186E-1
5.568030573E0,-5.309789777E-1,-1.789782494E-1,3.771981969E-2
5.589320521E0,-9.300149232E-2,3.182514310E-1,1.696628332E-1
5.610610469E0,-3.574983478E-1,7.635590434E-2,-1.644706279E-1
5.631900469E0,4.382828996E-2,-4.892886579E-1,-3.269560039E-1
5.653190417E0,4.170559645E-1,8.979454637E-2,-1.620272398E-1
5.674480365E0,8.000571728E-1,-1.160609797E-1,-2.628170252E-1
5.695770365E0,2.716743052E-1,7.525638342E-1,-9.067264199E-1
5.717060313E0,6.051968932E-1,-6.310052276E-1,-1.053329706E0
5.738350313E0,1.045617819E0,2.199050039E-2,-1.208484888E0
5.759640260E0,1.510472536E0,-2.657185495E-1,-8.102125525E-1
5.780930208E0,1.481151938E0,-1.521009654E-1,-2.108950168E-1
5.802220208E0,6.925480962E-1,-1.808107942E-1,-6.245913357E-2
5.823510156E0,1.201841980E-1,-6.169557199E-2,1.177408099E-1
5.844800156E0,-2.151709497E-1,1.246128380E-1,-3.764346242E-1
5.866090104E0,-8.456416726E-1,3.206948042E-1,-7.020162344E-1
5.887380104E0,-1.101586699E0,5.827482939E-1,-4.472928941E-1
5.908670052E0,-8.059365749E-1,8.423583508E-1,1.878355257E-2
5.929960000E0,-8.322030306E-1,1.085475564E0,-1.382041872E-1
5.951250000E0,-1.131594554E-1,5.558710173E-2,1.097997949E-1
5.972539948E0,3.877353072E-1,6.059604883E-1,-3.985778242E-2
5.993829948E0,2.252499312E-1,5.925218388E-2,-1.656923145E-1
6.015119896E0,3.248180151E-1,7.128587365E-1,6.168029904E-1
6.036409844E0,-2.092151903E-2,-1.423274130E-1,-2.548760176E-1
6.057699844E0,-7.284353673E-2,1.514901221E-1,1.824906170E-1
6.078989792E0,-5.144860744E-1,2.638860047E-1,5.665608495E-2
6.100279740E0,-7.735617161E-1,1.031720996E0,-2.825168520E-2
6.121569740E0,-2.304421216E-1,-3.811686933E-1,-2.652604282E-1
6.142859688E0,-4.253024161E-1,4.935645759E-1,-2.092151903E-2
6.164149688E0,3.407000601E-1,-7.073611021E-1,9.147437662E-2
6.185439635E0,5.176930502E-2,8.405258060E-1,3.315373361E-1
6.206729583E0,-5.512896553E-2,-4.337015375E-2,6.784985662E-1
6.228019583E0,-4.057552814E-1,-4.483618736E-1,1.093263865E0
6.249309531E0,-6.085565686E-1,-3.396310806E-1,9.265025854E-1
6.270599531E0,-7.497386336E-1,-7.879929990E-2,8.226585388E-1
6.291889479E0,-1.094256520E0,3.396310806E-1,9.197832346E-1
6.313179427E0,-7.808918357E-1,-9.939248562E-1,1.084101200E0
6.334469427E0,-5.248705149E-1,-7.409577370E-1,8.330429196E-1
6.355759375E0,-1.030728340E0,-7.153021693E-1,7.009471953E-2
6.377049375E0,-7.601230741E-1,-8.710681796E-1,-8.017370105E-2
6.398339323E0,-9.696436524E-1,3.096995652E-1,2.906105816E-1
6.419629271E0,-2.860292196E-1,-1.164962053E0,6.070294380E-1
6.440919271E0,-7.111788988E-1,-1.013471961E0,1.537808031E-1
6.462209219E0,-4.479037523E-1,-3.304683566E-1,5.483881235E-1
6.483499219E0,-1.192679256E-1,-1.017137051E0,4.500417113E-1
6.504789167E0,-1.620272398E-1,-3.170297146E-1,4.928010404E-1
6.526079167E0,-4.442386627E-1,-4.654656053E-1,-2.133384049E-1
6.547369115E0,-6.062658876E-2,-6.517740488E-1,-3.558185324E-2
6.568659063E0,4.097257853E-1,-8.154810667E-1,-1.339282542E-1
6.589949063E0,4.695888162E-1,-1.508792788E-1,-5.034908652E-1
6.611239010E0,8.513683677E-1,-8.606837988E-1,-4.918847680E-1
6.632528958E0,8.696937561E-1,-8.735115826E-2,-2.115058601E-1
6.653818958E0,9.466605186E-1,-7.849387527E-1,-1.345391124E-1
6.675108906E0,4.237752855E-1,-5.497625098E-3,-5.578562617E-1
6.696398906E0,7.896727920E-1,-6.780404449E-1,-3.177932799E-1
6.717688854E0,4.140017331E-1,3.689517379E-1,-8.267053962E-1
6.738978802E0,1.385859728E0,-1.056842089E0,-7.417976260E-1
6.760268802E0,7.853968740E-1,6.340594292E-1,-1.625693679E0
6.781558750E0,1.644858956E0,-1.100212216E0,-5.053234100E-1
6.802848698E0,9.136747718E-1,3.842229247E-1,-5.193728805E-1
6.824138698E0,1.232537031E0,-9.578084946E-1,1.867665499E-1
6.845428646E0,-3.269560039E-1,1.106855273E0,-6.195518374E-1
6.866718646E0,-5.450284481E-1,-1.954711229E-1,-2.255553454E-1
6.888008594E0,-1.157173753E0,7.012526393E-1,-5.407525301E-1
6.909298542E0,-2.518217862E-1,-5.405998230E-1,-1.895153672E-1
6.930588542E0,-4.474456236E-2,5.723638535E-1,-5.041016936E-1
6.951878490E0,6.247440577E-1,2.437280566E-1,-5.511369109E-1
6.973168438E0,1.440072358E-1,6.560499668E-1,-1.287895083E0
6.994458438E0,6.919372082E-1,-1.068982705E-1,-9.366579056E-1
7.015748385E0,6.039752364E-1,1.386623234E-1,-8.896226883E-1
7.037038385E0,9.320002198E-1,5.314370990E-1,-1.412584335E-1
7.058328333E0,2.631224692E-1,7.843278646E-1,-4.766135812E-1
7.079618281E0,1.702736765E-1,7.330167107E-3,-1.296523362E-1
7.100908281E0,1.634016447E-2,6.224533319E-1,-2.994678617E-1
7.122198229E0,-1.742441803E-1,6.481089592E-1,-2.951919436E-1
7.143488229E0,-2.084516287E-1,1.312099934E0,-6.952968836E-1
7.164778177E0,2.350234836E-1,1.099525020E-2,-4.442386627E-1
7.186068125E0,7.620319724E-2,1.005454540E0,1.695101149E-2
7.207358125E0,-4.625640810E-1,5.076140761E-1,6.027535200E-1
7.228648073E0,4.622586668E-1,2.736595869E-1,1.452442050E0
7.249938021E0,-9.421555400E-1,1.165496588E0,7.273663878E-1
7.271228021E0,-3.678827584E-1,4.049917459E-1,8.324320912E-1
7.292517969E0,-4.020902216E-1,-2.889307439E-1,4.359922409E-1
7.313807917E0,-1.002629399E0,7.177455425E-1,-2.214321308E-2
7.335097917E0,-4.509579837E-1,-5.491516590E-1,-6.245913357E-2
7.356387865E0,-5.205945969E-1,-1.588202864E-1,-1.125486046E-1
7.377677813E0,1.104106456E-1,-3.243598938E-1,6.125270724E-1
7.398967813E0,-2.579302490E-1,4.929537475E-1,1.206423342E-2
7.420257760E0,4.414898455E-1,-9.945356846E-1,3.578037918E-1
7.441547708E0,-1.766875684E-1,5.088357925E-1,-3.434488773E-1
7.462837708E0,-6.238277555E-1,-1.020114943E-1,-5.932853818E-1
7.484127656E0,-7.062921524E-1,1.221694518E-3,-1.986780763E-1
7.505417656E0,-2.652604282E-1,-8.044858575E-1,4.182776511E-1
7.526707604E0,9.758284688E-2,1.618745178E-1,9.136747718E-1
7.547997552E0,-3.293993771E-1,2.015796006E-1,-1.192679256E-1
7.569287552E0,7.725690603E-1,-2.235700935E-1,3.052709103E-1
7.590577500E0,9.998042583E-1,-1.246128380E-1,-3.684936166E-1
7.611867448E0,7.059867382E-1,-1.038440317E-2,-9.042829871E-1
7.633157448E0,6.510104537E-1,-4.489727318E-1,-8.065474629E-1
7.654447396E0,4.897467792E-1,-2.345653474E-1,-6.806365848E-1
7.675737396E0,6.613948941E-1,3.176405653E-2,7.131642103E-2
7.697027344E0,7.475243211E-1,5.632011890E-1,2.386885732E-1
7.718317292E0,8.617527485E-1,3.145863414E-1,4.561502039E-1
7.739607292E0,8.672503829E-1,5.943543911E-1,5.838172436E-1
7.760897240E0,4.891359508E-1,-7.091936469E-1,-3.397837877E-1
7.782187188E0,-6.891884208E-1,4.978405237E-1,-7.790593505E-1
7.803477188E0,1.511846948E-2,-1.090438724E0,-1.400367320E-1
7.824767135E0,-7.332457900E-1,1.303548098E0,-8.804599643E-1
7.846057083E0,1.000262350E-1,3.970507085E-1,-6.103891134E-1
7.867347083E0,3.529170156E-1,1.655396074E-1,-4.230117425E-2
7.888637031E0,-1.021642014E-1,1.014006495E0,-6.818582416E-1
7.909926979E0,2.405211031E-1,-2.382304333E-2,-5.566345453E-1
7.931216979E0,-4.314108789E-1,1.549719453E0,-1.582323432E0
7.952506927E0,5.825955868E-1,-6.102364063E-1,-1.687465608E-1
7.973796875E0,9.009997360E-3,7.953231335E-1,-4.387410581E-1
7.995086875E0,8.544226289E-1,-6.737645268E-1,3.541387022E-1
8.016376823E0,-1.064401343E-1,4.373666346E-1,-5.554128885E-1
8.037666771E0,5.263976455E-1,-6.639909744E-1,-5.940489471E-2
8.058956771E0,7.139277458E-1,2.779355049E-1,-1.553079188E-1
8.080246719E0,7.304205894E-1,7.269082218E-2,-6.757497787E-1
8.101536667E0,6.601731777E-1,-3.396310806E-1,-5.132644176E-1
8.122826667E0,4.109475017E-1,-2.913741469E-1,-3.092414141E-1
8.144116615E0,1.269035190E-1,7.941014320E-2,3.283303976E-2
8.165406563E0,1.756185852E-2,2.944283783E-1,3.633013964E-1
8.186696563E0,7.010999322E-1,-8.228112459E-1,3.785725832E-1
8.207986510E0,-3.990359604E-1,9.523108602E-1,1.568350345E-1
8.229276458E0,-6.818582416E-1,3.872771561E-1,-1.528645307E-1
8.250566458E0,-8.010498285E-1,2.046338320E-1,4.286620617E-1
8.271856406E0,-9.042829871E-1,-5.864133686E-2,6.510104537E-1
8.293146354E0,-8.676321507E-1,9.272661209E-1,1.092653036E0
8.314436354E0,-6.720846891E-1,-3.976615667E-1,5.569399595E-1
8.335726302E0,-8.089908361E-1,1.698155403E-1,4.382828996E-2
8.357016250E0,-1.974563748E-1,-4.526378214E-1,-3.232909143E-1
8.378306250E0,-1.204896197E-1,2.241809368E-1,-4.613423944E-1
8.399596198E0,-7.528692484E-2,-7.085828483E-2,-3.629959822E-1
8.420886146E0,-2.597627938E-1,9.009997249E-1,-8.297596574E-1
8.442176094E0,1.804290056E0,-9.040539712E-2,1.379751205E0
8.463466094E0,6.357392669E-1,5.259394646E-1,-4.253024161E-1
8.484756042E0,-1.681891561E0,-4.153761268E-1,-6.116108298E-1
8.506045990E0,1.207950488E-1,8.881719112E-1,-3.275668323E-1
8.527335990E0,1.049282908E0,-7.110261917E-1,3.132119179E-1
8.548625938E0,-2.184618950E0,3.011476994E-1,-1.595838517E-1
8.569915885E0,-5.523586273E-1,-2.797680497E-1,4.408790171E-1
8.591205833E0,3.394783735E-1,4.569137394E-1,-2.884726226E-1
8.612495833E0,-1.901262105E-1,-6.597150564E-1,3.822376728E-1
8.633785781E0,7.212579250E-1,-1.042181730E0,-2.878617644E-1
8.655075729E0,6.520794332E-2,-1.215586066E-1,-8.285379410E-1
8.676365729E0,-6.551336497E-2,-3.377985358E-1,2.270824611E-1
8.697655677E0,1.523300409E0,3.408527672E-1,-6.891884208E-1
8.718945625E0,6.161921620E-1,-7.653915882E-1,-1.147400260E0
8.740235573E0,2.234173864E-1,1.068982720E0,-8.456416726E-1
8.761525573E0,2.368560284E-1,-7.482879162E-1,-3.495573401E-1
8.782815521E0,1.013853788E0,9.052756429E-1,-5.853443742E-1
8.804105469E0,-5.757235363E-2,8.845068216E-1,-8.572477698E-1
8.825395469E0,4.182776511E-1,8.173136115E-1,-4.937172830E-1
8.846685417E0,1.635543555E-1,3.750602305E-1,-2.886253223E-2
8.867975365E0,9.208522737E-2,6.371136904E-1,3.144336343E-1
8.889265313E0,3.706315756E-1,7.537854910E-1,-5.236487985E-1
8.910555313E0,6.681141853E-1,2.919849753E-1,-4.399627447E-1
8.931845260E0,9.393303990E-1,-2.467822880E-1,8.399149403E-3
8.953135208E0,-1.430909634E-1,1.869192570E-1,-2.499892414E-1
8.974425156E0,1.303395391E0,-6.780404449E-1,-2.353289127E-1
8.995715156E0,-8.798491359E-1,2.864873707E-1,-1.080817819E0
9.017005104E0,2.728960216E-1,-2.403149366E0,4.518742561E-1
9.038295052E0,-1.174277544E0,1.353026628E0,1.084253844E-2
9.059585052E0,-1.166947365E0,1.099525020E-2,8.536590636E-2
9.080875000E0,-7.589013577E-1,-2.877090573E-1,4.787515402E-1
9.102164948E0,-2.060082406E-1,1.023779988E0,3.443651497E-1
9.123454896E0,9.765920639E-1,1.533226669E-1,9.307785034E-1
9.144744896E0,1.358982444E0,1.789782494E-1,8.067765236E-1
9.166034844E0,9.399412274E-1,4.807367921E-1,6.015318632E-1
9.187324792E0,1.643026471E0,-3.787252903E-1,8.477032781E-1
9.208614740E0,2.029769182E0,8.075400591E-1,8.672503829E-1
9.229904740E0,1.012021184E0,-7.696675509E-2,9.452861547E-2
9.251194688E0,4.934118688E-1,-1.820324808E-1,3.211529553E-1
9.272484635E0,8.073873520E-1,-5.913001299E-1,2.527380586E-1
9.293774583E0,6.351284385E-1,8.735115826E-2,4.390464723E-1
9.315064531E0,1.348445266E-1,5.827482939E-1,3.028275371E-1
9.336354531E0,7.047650218E-1,5.558710173E-2,4.573718905E-1
9.357644479E0,1.415791273E0,6.780404598E-2,-1.669140160E-1
9.378934427E0,5.789304972E-1,9.657495022E-1,-7.406523079E-2
9.400224427E0,-5.818320066E-2,8.551861346E-2,-2.622061968E-1
9.421514375E0,-7.521820664E-1,2.443388999E-1,-1.185272694E0
9.442804323E0,-7.424085140E-1,-4.990622103E-1,-8.364789486E-1
9.464094271E0,-1.309274793E0,1.200925708E0,-9.672002792E-1
9.485384271E0,2.954973578E-1,-1.577283978E0,4.695888162E-1
9.506674219E0,-4.723376334E-1,9.431481957E-1,-1.351499557E-1
9.527964167E0,-3.446705639E-1,-7.574506104E-2,-7.101099193E-2
9.549254115E0,-5.407525301E-1,-7.873821259E-1,-1.791309565E-1
9.570544063E0,3.504736125E-1,1.056765765E-1,6.736118197E-1
9.591834063E0,-5.010474920E-1,-3.909422457E-2,-4.301891923E-1
9.613124010E0,-3.251234591E-1,4.917320311E-1,-1.149920002E-1
9.634413958E0,-7.729508281E-1,7.861604095E-1,-6.537593007E-1
9.655703906E0,5.166240931E-1,-6.316160560E-1,4.627167806E-2
9.676993906E0,-5.890094638E-1,1.714724660E0,-6.262711287E-1
9.698283854E0,8.672503829E-1,-7.446228266E-1,3.852919042E-1
9.719573802E0,-3.037438095E-1,1.259567022E0,4.016320780E-2
9.740863750E0,2.160872221E-1,4.312581718E-1,2.924431264E-1
9.762153698E0,1.302173615E0,-1.925466895E0,7.572978735E-1
9.783443698E0,-6.336013079E-1,1.743434429E0,-1.418692768E-1
9.804733646E0,-8.871793151E-1,1.212531805E0,3.364241421E-1
9.826023594E0,-3.122956753E-1,-9.345962852E-2,7.047650218E-1
9.847313542E0,-1.165114760E0,6.481089592E-1,6.711684465E-1
9.868603542E0,4.225535989E-1,8.038749695E-1,1.395022392E0
9.889893490E0,-3.177932799E-1,7.207997888E-2,7.890619636E-1
9.911183438E0,-5.413633585E-1,8.405258060E-1,2.521272004E-1
9.932473385E0,-1.479777545E-1,-9.584193230E-1,-5.193728805E-1
9.953763333E0,-3.037438095E-1,1.276670814E0,-4.650074840E-1
9.975053281E0,-3.880407214E-1,2.260134928E-2,-6.134433746E-1
9.996343281E0,1.733279079E-1,-8.313631415E-1,-3.825430870E-1
1.001763323E1,4.199574888E-2,-7.831062078E-1,-9.849911928E-2
1.003892318E1,-6.612421572E-2,-1.062874198E-1,8.353336155E-2
1.006021312E1,-1.473668963E-1,-8.368607610E-2,-2.732014358E-1
1.008150307E1,-2.958027720E-1,8.209787011E-1,-8.811471611E-2
1.010279307E1,1.831014603E-1,-4.593571424E-1,-4.779879749E-2
1.012408302E1,4.427115619E-1,7.947123051E-1,3.706315756E-1
1.014537297E1,7.438592315E-1,-9.835404158E-1,3.810159862E-1
1.016666292E1,1.818797737E-1,2.846548259E-1,-1.944021434E-1
1.018795286E1,2.270824611E-1,-6.291726828E-1,-3.813214004E-1
1.020924286E1,-7.381325364E-1,4.172086716E-1,-5.193728805E-1
1.023053281E1,4.665345848E-1,-9.835404158E-1,3.144336343E-1
1.025182276E1,2.704526186E-1,6.029062271E-1,-1.736333370E-1
1.027311271E1,1.010188699E0,-5.913001299E-1,1.128540337E-1
1.029440266E1,1.128692985E0,-1.125257015E0,-5.451811850E-2
1.031569260E1,7.450809479E-1,-1.942494214E-1,2.075353563E-1
1.033698260E1,3.706315756E-1,1.588202827E-2,1.892099380E-1
1.035827255E1,-2.512109280E-1,3.897205591E-1,-1.375933439E-1
1.037956250E1,-5.407525301E-1,-2.932066917E-1,-1.834068894E-1
1.040085245E1,-4.479037523E-1,-1.527118087E-1,9.636115283E-2
1.042214240E1,-5.767925382E-1,3.115321100E-1,2.290677279E-3
1.044343234E1,-8.841250539E-1,9.614735842E-1,-3.239017725E-1
1.046472229E1,-1.522536725E-1,-3.542914093E-1,-1.449235082E-1
1.048601229E1,-7.680640817E-1,6.969767213E-1,-3.013004065E-1
1.050730224E1,1.763821393E-1,-1.423350453E0,-7.223268598E-2
1.052859219E1,-2.530434728E-1,3.347443044E-1,-2.554868758E-1
1.054988214E1,-5.859552622E-1,6.835380793E-1,-2.420482337E-1
1.057117208E1,3.150444627E-1,2.785463631E-1,6.296308041E-1
1.059246203E1,6.778877378E-1,-1.299348474E0,4.036173224E-1
1.061375198E1,-2.066190839E-1,1.253458619E0,3.559712470E-1
1.063504198E1,7.438592315E-1,-7.782194018E-1,1.172674060E0
1.065633193E1,3.132119179E-1,-1.221694518E-3,5.923691392E-1
1.067762188E1,-1.834068894E-1,-7.061394453E-1,2.643441558E-1
1.069891182E1,-4.039227366E-1,-1.048901081E0,3.999522328E-1
1.072020177E1,-9.867473841E-1,3.133646548E-1,7.145385742E-1
1.074149172E1,-4.711159468E-1,-5.442649126E-1,1.401741743E0
1.076278167E1,-9.775846601E-1,1.270562261E-1,6.106945276E-1
1.078407162E1,4.627167806E-2,-1.478937626E0,1.037065983E0
1.080536162E1,-1.156028435E-1,-4.850127101E-1,4.932591692E-2
1.082665156E1,3.290939629E-1,-6.120689511E-1,-3.489464819E-1
1.084794151E1,3.565820754E-1,-1.146636605E0,2.374668717E-1
1.086923146E1,-8.093725890E-3,5.705313683E-1,-6.470399499E-1
1.089052141E1,1.701667786E0,-1.518642664E0,-9.116131663E-1
1.091181135E1,1.158013701E0,1.199704051E0,-6.490252167E-2
1.093310130E1,7.389724851E-1,4.013266563E-1,1.556133330E-1
1.095439125E1,2.313583940E-1,2.315111160E-1,9.668185115E-1
1.097568120E1,8.452599049E-1,-1.373260975E0,8.513683677E-1
1.099697115E1,-1.537120819E0,1.623632073E0,-1.156028435E-1
1.101826109E1,2.814478874E-1,-1.442286730E0,-1.985253533E-3
1.103955109E1,-4.772244096E-1,1.130067468E0,-8.230403066E-1
1.106084104E1,1.117697716E0,-1.074556708E0,-6.490252167E-2
1.108213099E1,1.615538239E0,-9.449806809E-1,-3.558185324E-2
1.110342094E1,1.427397370E0,-4.275931045E-3,-1.400367320E-1
1.112471088E1,3.871244490E-1,3.463504016E-1,4.561502039E-1
1.114600083E1,-5.297572613E-1,1.221694518E-3,4.382828996E-2
1.116729078E1,-1.230475426E0,-3.750602305E-1,-3.403946459E-1
1.118858073E1,-1.356310010E0,2.877090573E-1,-5.193728805E-1
1.120987068E1,-6.122216582E-1,-3.549022675E-1,-7.827243805E-1
1.123116063E1,-1.485885978E-1,6.963659078E-2,-3.196258247E-1
1.125245057E1,3.016058207E-1,-1.771457046E-1,-1.827960461E-1
1.127374052E1,5.604523420E-2,-8.429691941E-2,-2.475458533E-1
1.129503047E1,-2.078407854E-1,6.725428104E-1,1.543916464E-1
1.131632042E1,-1.015533581E-1,-7.629482150E-1,3.907895386E-1
1.133761037E1,-1.846285909E-1,7.067502737E-1,6.088619828E-1
1.135890031E1,-3.436015919E-2,3.115320951E-2,-4.149180055E-1
1.138019026E1,-3.074088693E-1,1.143506050E0,2.680092454E-1
1.140148021E1,1.102426648E0,-7.507312894E-1,4.659237564E-1
1.142277016E1,2.783936262E-1,1.181378603E0,6.345176101E-1
1.144406010E1,1.323553324E0,-1.604161263E0,7.524111271E-1
1.146535005E1,-1.094943732E-1,4.947862923E-1,7.375980914E-2
1.148664000E1,-1.309274793E0,6.352811456E-1,-7.534037232E-1
1.150792995E1,1.140757278E-1,-9.370396733E-1,3.394783735E-1
1.152921990E1,-1.064935803E0,8.136485219E-1,-2.884726226E-1
1.155050984E1,5.728220344E-1,-6.603258848E-1,9.289459586E-1
1.157179979E1,9.086353332E-2,4.636330605E-1,2.916795574E-2
1.159308974E1,-1.156562924E0,5.161659122E-1,6.398624927E-2
1.161437969E1,-7.069029808E-1,-8.826742768E-1,-1.528645307E-1
1.163566958E1,-8.291487694E-1,-2.742704153E-1,-1.437018216E-1
1.165695953E1,4.170559645E-1,-1.304846048E0,-1.217113137E-1
1.167824948E1,4.249969721E-1,1.055544019E0,3.516952991E-1
1.169953943E1,1.652799964E0,-1.350048780E0,8.299887180E-1
1.172082938E1,3.516952991E-1,1.351194143E0,5.147915483E-1
1.174211932E1,6.259657145E-1,-7.104153633E-1,-3.191677108E-2
1.176340927E1,5.971032009E-2,2.901524603E-1,-2.835858464E-1
1.178469922E1,3.168770075E-1,2.553341687E-1,-2.396048307E-1
1.180598917E1,4.976878166E-1,-8.979454637E-2,-4.509579837E-1
1.182727906E1,-2.451024652E-1,6.169557199E-2,-3.996468186E-1
1.184856901E1,-3.619270027E-2,-7.079719901E-1,4.749337584E-2
1.186985896E1,-2.548760176E-1,4.770717025E-1,1.267508045E-2
1.189114891E1,4.323271513E-1,-9.761339426E-1,2.790044844E-1
1.191243885E1,-8.034932017E-1,6.896465421E-1,-2.683146596E-1
1.193372875E1,2.716743052E-1,-1.706172705E0,-8.811471611E-2
1.195501870E1,-6.757497787E-1,7.116370797E-1,-4.460712075E-1
1.197630865E1,-2.896943092E-1,-9.884272218E-1,-1.229330078E-1
1.199759859E1,-6.500942111E-1,8.674030751E-2,-2.609844804E-1
1.201888854E1,-4.375193417E-1,-2.028012872E-1,-2.664821148E-1
1.204017844E1,6.772769094E-1,-3.432961702E-1,3.180987239E-1
1.206146839E1,4.781406820E-1,1.685938388E-1,6.948387623E-2
1.208275833E1,2.753393948E-1,1.024390817E0,3.755183518E-1
1.210404828E1,4.140017331E-1,6.291726977E-2,-1.620272398E-1
1.212533823E1,5.850389600E-1,4.422534108E-1,6.620057225E-1
1.214662813E1,1.028514028E0,-4.404208660E-1,5.887040496E-1
1.216791807E1,-6.368082762E-2,9.620844126E-1,3.180987239E-1
1.218920802E1,2.863346636E-1,-1.472141892E-1,1.892099380E-1
1.221049797E1,-2.267770469E-1,4.550811946E-1,-1.699682474E-1
1.223178787E1,7.035433054E-1,-7.281299233E-1,2.790044844E-1
1.225307781E1,5.367820263E-1,7.617265582E-1,6.642963737E-2
1.227436776E1,1.336228400E-1,-3.579564989E-1,1.293469071E-1
1.229565766E1,-6.855233312E-1,6.004628539E-1,-5.212054253E-1
1.231694760E1,1.873773932E-1,-1.122202754E0,-4.352286831E-2
1.233823755E1,-1.271402240E0,3.268032968E-1,-7.753942609E-1
1.235952750E1,-5.670189857E-1,-1.068448186E0,-1.913478971E-1
1.238081740E1,5.482354015E-2,-1.777565479E-1,6.765133142E-2
1.240210734E1,2.122694254E-2,6.878139973E-1,2.716743052E-1
1.242339729E1,1.418234587E0,-9.945356846E-1,4.793623984E-1
1.244468719E1,7.131642103E-2,1.028666735E0,-1.077152729E0
1.246597714E1,4.592044353E-1,1.207645059E0,-8.181535602E-1
1.248726708E1,3.235963285E-1,8.222004175E-1,-8.120450974E-1
1.250855698E1,3.431434333E-1,2.559449971E-1,-1.180462316E-1
1.252984693E1,6.363501549E-1,-6.884248853E-1,2.399102598E-1
1.255113688E1,3.675773442E-1,4.801259339E-1,5.483881235E-1
1.257242677E1,-3.477247953E-1,3.243598938E-1,6.566607859E-3
1.259371672E1,-1.455343664E-1,4.007157981E-1,1.965401024E-1
1.261500667E1,6.337540597E-2,-1.429382563E-1,-2.249445021E-1
1.263629656E1,-7.246938944E-1,6.108472589E-4,-7.197307944E-1
1.265758651E1,1.525591016E-1,6.615476012E-1,-1.992889196E-1
1.267887646E1,1.159082651E-1,1.209477559E-1,-6.299362183E-1
1.270016635E1,-9.574267268E-1,9.071081877E-1,-5.780141950E-1
1.272145630E1,2.136438340E-1,-1.527805328E0,3.833066672E-2
1.274274620E1,-4.637857676E-1,1.473363638E0,-2.825168520E-2
1.276403615E1,-4.949389994E-1,2.376195788E-1,-4.527905285E-1
1.278532609E1,6.765133142E-2,4.239279926E-1,-2.072299272E-1
1.280661599E1,9.313893318E-1,-7.476770282E-1,2.855710872E-2
1.282790594E1,9.930849075E-1,2.296251297E0,3.132119179E-1
1.284919588E1,4.268295169E-1,-4.929537475E-1,4.427115619E-1
1.287048578E1,-4.210264683E-1,1.893702865E0,2.447970361E-1
1.289177573E1,2.313583940E-1,-1.190617681E0,5.563291311E-1
1.291306563E1,3.144336343E-1,3.408527672E-1,1.586675793E-1
1.293435557E1,-6.140542030E-1,1.979145110E-1,-5.462501645E-1
1.295564552E1,6.064186096E-1,-8.643488884E-1,3.168770075E-1
1.297693542E1,-1.490696430E0,1.159388065E0,-1.114796288E-2
1.299822537E1,-3.379512429E-1,-1.011639476E0,-3.678827584E-1
1.301951526E1,-2.712390900E0,8.735115528E-1,-1.669674635E0
1.304080521E1,-1.600648880E0,6.340594292E-1,-2.994678617E-1
1.306209516E1,-2.002586365E0,-2.223484069E-1,-1.268347979E0
1.308338505E1,-1.088147998E0,1.130067408E-1,-8.639671206E-1
1.310467500E1,-7.482878864E-3,-1.620043278E0,-2.860292196E-1
1.312596490E1,5.031854510E-1,-1.264453828E-1,1.048061132E0
1.314725484E1,1.959521651E0,-2.095282555E0,1.230093718E0
1.316854474E1,-2.151709497E-1,2.053744793E0,1.598892659E-1
1.318983469E1,9.252808690E-1,-1.046457767E0,-4.393518865E-1
1.321112464E1,-8.811471611E-2,8.069292307E-1,-7.924979329E-1
1.323241453E1,1.151294351E0,-1.227268457E0,-2.786990702E-1
1.325370448E1,1.617218107E-1,4.190412164E-1,-8.261708915E-2
1.327499438E1,1.611109674E-1,6.120689511E-1,4.286620617E-1
1.329628432E1,5.923691392E-1,-1.163129568E0,1.501157135E-1
1.331757422E1,-3.953709006E-1,6.242858768E-1,4.504998401E-2
1.333886417E1,-6.673506647E-2,-6.786513329E-1,2.733541466E-2
1.336015406E1,-5.743491650E-1,7.262973785E-1,-4.882196784E-1
1.338144401E1,-5.829010010E-1,-4.886778072E-3,-8.810707927E-1
1.340273391E1,1.794363856E-1,7.818844914E-2,-1.046075895E-1
1.342402385E1,-4.596625641E-2,3.060344756E-1,-2.011214644E-1
1.344531375E1,2.851129472E-1,4.966188073E-1,9.991934299E-1
1.346660370E1,7.120952010E-1,3.280249834E-1,1.418234587E0
1.348789365E1,-6.910209656E-1,1.651120186E0,7.469134927E-1
1.350918354E1,-1.015533581E-1,-1.175957322E0,1.940967143E-1
1.353047349E1,-1.898742318E0,2.270595551E0,-6.836907864E-1
1.355176339E1,1.048672080E0,-1.703118563E0,1.063943267E0
1.357305333E1,-2.253644705E0,3.402495623E0,-2.744231224E-1
1.359434323E1,1.580567211E-1,-1.457557917E0,6.882721782E-1
1.361563318E1,-6.946860552E-1,1.035386086E0,1.354553849E-1
1.363692307E1,3.651339412E-1,7.818844914E-2,1.139688253E0
1.365821302E1,-1.114796288E-2,9.688037634E-1,2.173089087E-1
1.367950292E1,4.738647640E-1,-1.219938278E0,5.661026835E-1
1.370079286E1,-5.024218559E-2,8.252546191E-1,3.113794029E-1
1.372208276E1,2.916795574E-2,-1.143582463E0,-6.128324866E-1
1.374337271E1,-1.330654383E0,6.047387719E-1,-4.216373265E-1
1.376466260E1,-9.781955481E-1,-3.096995652E-1,-7.961630225E-1
1.378595255E1,-5.175403357E-1,-1.698155403E-1,-3.361186981E-1
1.380724245E1,1.711441278E0,-1.130754590E0,1.794363856E-1
1.382853240E1,1.230704546E0,9.559759498E-1,1.666085869E-1
1.384982229E1,8.414421231E-2,2.925958335E-1,5.344913341E-3
1.387111224E1,2.916795574E-2,-4.459185004E-1,-4.069769979E-1
1.389240214E1,9.576557875E-1,-1.100212216E0,-3.122956753E-1
1.391369208E1,1.036913246E-1,1.002400398E0,-8.444199562E-1
1.393498198E1,6.271874309E-1,-9.982007742E-1,-1.614163816E-1
1.395627193E1,-1.292171001E0,5.760289431E-1,-3.684936166E-1
1.397756182E1,-2.927485406E-1,-6.474980712E-2,1.002858520E0
1.399885177E1,1.464506239E-1,7.269082218E-2,7.695148587E-1
1.402014167E1,-1.908897609E-2,4.013266563E-1,2.643441558E-1
1.404143162E1,7.902836204E-1,-5.735855699E-1,-1.742441803E-1
1.406272151E1,-3.849864900E-1,7.122479081E-1,-8.114342093E-1
1.408401146E1,-7.956285775E-2,-1.337755471E-1,-5.462501645E-1
1.410530135E1,-7.521820664E-1,-4.031591862E-2,-3.184041381E-1
1.412659130E1,-1.420219894E-2,-3.310792148E-1,1.592784226E-1
1.414788120E1,2.441861928E-1,-1.111742035E-1,1.525591016E-1
1.416917109E1,6.510104537E-1,1.040883780E0,4.903576374E-1
1.419046104E1,4.048390090E-1,3.481829464E-1,1.641651988E-1
1.421175099E1,-7.534037232E-1,9.413156509E-1,-2.481566966E-1
1.423304089E1,4.903576374E-1,-4.960079789E-1,1.519482583E-1
1.425433083E1,5.752654076E-1,4.233171642E-1,-8.322793990E-2
1.427562073E1,4.268295169E-1,4.868452549E-1,-2.275406010E-2
1.429691062E1,-2.029540092E-1,-1.447708011E-1,-1.913478971E-1
1.431820057E1,1.128540337E-1,-1.973036677E-1,3.894151375E-2
1.433949047E1,1.562241912E-1,-2.559449971E-1,3.571929336E-1
1.436078042E1,-3.300102353E-1,2.797680497E-1,5.923691392E-1
1.438207031E1,1.684411317E-1,-3.182514310E-1,6.956022978E-1
1.440336026E1,-3.147390485E-1,2.993151546E-1,1.305686086E-1
1.442465016E1,-1.278197914E-1,2.681619525E-1,-1.534753740E-1
1.444594010E1,6.302416325E-1,-5.686988235E-1,4.060607255E-1
1.446723000E1,-3.862081766E-1,2.040229887E-1,-1.614163816E-1
1.448851990E1,1.036913246E-1,-6.792621613E-1,3.278722763E-1
1.450980984E1,-6.415423155E-1,1.166718230E-1,-3.629959822E-1
1.453109974E1,-5.512896553E-2,-3.298575282E-1,-1.119377613E-1
1.455238969E1,-1.035004377E0,4.685198367E-1,-1.093645692E0
1.457367958E1,7.511894107E-1,-7.495095730E-1,-6.555918455E-1
1.459496953E1,5.880932212E-1,-1.966928244E-1,-1.124798894E0
1.461625943E1,1.210546613E0,-6.902574003E-2,-4.314108789E-1
1.463754938E1,9.045121074E-1,5.851916671E-1,-2.420482337E-1
1.465883927E1,3.730749488E-1,6.047387794E-2,7.681404054E-2
1.468012917E1,7.742489129E-2,-2.816005945E-1,4.952444136E-1
1.470141912E1,5.031854510E-1,-4.996730685E-1,4.970769584E-1
1.472270901E1,6.131379604E-1,6.719319820E-1,1.592784226E-1
1.474399896E1,6.027535200E-1,-1.429382563E-1,-7.246175408E-1
1.476528885E1,5.294518471E-1,6.945333481E-1,-8.780165911E-1
1.478657875E1,6.601731777E-1,1.539335102E-1,-8.908443451E-1
1.480786870E1,-1.253764033E-1,9.962918758E-1,-4.668400288E-1
1.482915859E1,2.472404242E-1,-1.832541823E-2,5.807630420E-1
1.485044854E1,6.276455522E-2,1.148392856E-1,1.044396043E0
1.487173844E1,-3.245126009E-1,5.546492934E-1,8.360971808E-1
1.489302839E1,-4.515688419E-1,-6.261184216E-1,-1.644706279E-1
1.491431828E1,-2.090624720E-1,8.185353130E-2,-6.299362183E-1
1.493560818E1,-2.951919436E-1,-2.180724740E-1,-1.077763677E0
1.495689812E1,-4.882196784E-1,-3.915531039E-1,-8.987854123E-1
1.497818802E1,-8.261708915E-2,-3.329117596E-1,-4.045335948E-1
1.499947797E1,-2.658712566E-1,-2.589992285E-1,-3.275668323E-1
1.502076787E1,-4.075878263E-1,1.315154195E0,3.126010895E-1
1.504205776E1,1.068982761E-3,-8.814526200E-1,1.763821393E-1
1.506334771E1,4.005630910E-1,4.153761268E-1,4.585935771E-1
1.508463760E1,3.956763148E-1,2.431172132E-1,-1.027750522E-1
1.510592755E1,3.810159862E-1,5.283828974E-1,-3.153499067E-1
1.512721745E1,-3.000787199E-1,6.212316751E-1,-8.493067622E-1
1.514850734E1,-1.046075895E-1,-2.492256761E-1,-4.130854607E-1
1.516979729E1,-1.467560530E-1,-4.214846194E-1,-2.560977042E-1
1.519108719E1,-3.526115716E-1,3.652866483E-1,1.537808031E-1
1.521237714E1,2.619007528E-1,-5.992411375E-1,6.742226481E-1
1.523366703E1,-2.029540092E-1,-1.716480851E-1,3.388675153E-1
1.525495693E1,8.414421231E-2,-3.292466700E-1,6.887302548E-2
1.527624688E1,3.773508966E-1,7.146912813E-1,-2.310529798E-1
1.529753677E1,2.570139766E-1,-5.070032179E-2,-9.091697931E-1
1.531882672E1,4.268295169E-1,3.335226178E-1,-4.216373265E-1
1.534011662E1,-9.666658193E-2,-5.900784731E-1,-2.634278834E-1
1.536140651E1,-4.149180055E-1,2.339545041E-1,-8.261708915E-2
1.538269646E1,5.184566379E-1,-4.886778072E-2,3.474193811E-1
1.540398635E1,-1.984871864E0,-2.528907657E-1,-9.806389213E-1
1.542527625E1,2.454078794E-1,9.712471366E-1,1.817270555E-2
1.544656620E1,1.219709277E0,-2.268152237E0,-3.642176688E-1
1.546785609E1,2.625116110E-1,2.559526443E0,-3.037438095E-1
1.548914604E1,8.305995464E-1,-9.046648145E-1,2.122694254E-2
1.551043594E1,-4.601207078E-1,9.791881442E-1,1.629435122E-1
1.553172583E1,5.318952799E-1,-6.700994372E-1,2.166980654E-1
1.555301578E1,-4.869979918E-1,1.486191392E0,-5.493044257E-1
1.557430568E1,8.837432861E-1,-7.153021693E-1,-3.147390485E-1
1.559559557E1,2.289150059E-1,5.992411375E-1,-7.943304777E-1
1.561688552E1,1.696628332E-1,1.038440317E-1,-6.062658876E-2
1.563817542E1,-8.315922022E-1,5.179984570E-1,-3.581092060E-1
1.565946536E1,4.720322192E-1,-7.244648337E-1,6.852179170E-1
1.568075526E1,3.101576865E-1,-3.078670204E-1,1.849340051E-1
1.570204516E1,-7.937196493E-1,8.857285231E-2,-3.532224298E-1
1.572333510E1,-9.690328240E-1,1.411057115E-1,-7.166765332E-1
1.574462500E1,-3.318427801E-1,-1.368297935E-1,-5.468609929E-1
1.576591490E1,5.955760833E-3,-1.997470558E-1,-2.878617644E-1
1.578720484E1,-3.959817290E-1,-2.119639963E-1,-1.229330078E-1
1.580849474E1,-7.332457900E-1,1.960819662E-1,-7.406523079E-2
1.582978464E1,-6.042806506E-1,1.887518018E-1,2.661767006E-1
1.585107458E1,-4.986040890E-1,1.771457046E-1,5.538857579E-1
1.587236448E1,2.611372061E-2,-0.000000000E0,4.469874799E-1
1.589365443E1,4.213318825E-1,5.192201585E-2,1.983726472E-1
1.591494432E1,5.691569448E-1,8.276980519E-1,2.338017821E-1
1.593623422E1,3.174878657E-1,3.848337755E-2,-1.730224788E-1
1.595752417E1,-1.913478971E-1,5.851916671E-1,-3.520007432E-1
1.597881406E1,-2.823641598E-1,1.331647038E-1,-3.348970115E-1
1.600010396E1,6.571189165E-1,-5.186093450E-1,5.948125124E-1
1.602139385E1,-1.852394342E-1,3.836120665E-1,5.709894896E-1
1.604268380E1,-3.513898849E-1,-4.740174711E-1,5.746545792E-1
1.606397370E1,-7.839460969E-1,2.962609231E-1,4.598152637E-1
1.608526365E1,2.368560284E-1,-5.699204803E-1,5.703786016E-1
1.610655354E1,4.421007037E-1,1.323706031E0,9.155073166E-1
1.612784344E1,8.061656952E-1,3.145863414E-1,7.652388811E-1
1.614913339E1,9.161182046E-1,-4.263713956E-1,9.819369763E-2
1.617042328E1,-4.625640810E-1,8.600729704E-1,-7.986064553E-1
1.619171318E1,-1.388150454E-1,-1.258421659E0,-5.975613594E-1
1.621300312E1,-8.346464038E-1,-1.209477559E-1,-7.595121861E-1
1.623429302E1,4.443913698E-2,-5.186093450E-1,-5.083776116E-1
1.625558292E1,-4.723376334E-1,-3.958290219E-1,-6.843016148E-1
1.627687281E1,-1.320957243E-1,2.418955117E-1,-3.165715933E-1
1.629816276E1,-1.675248593E-1,-1.801999360E-1,1.049130186E-1
1.631945266E1,1.036913246E-1,1.184432864E0,8.935168386E-1
1.634074255E1,1.035844207E0,-3.573456407E-1,7.481352091E-1
1.636203250E1,6.497887969E-1,-6.719320081E-3,-1.278197914E-1
1.638332240E1,1.623326540E-1,-1.282779220E-2,-8.877901435E-1
1.640461229E1,-3.092414141E-1,6.511631608E-1,-1.195046306E0
1.642590224E1,1.446180940E-1,-9.730796814E-1,-9.361234307E-2
1.644719214E1,-5.700731874E-1,5.302154422E-1,1.037065983E0
1.646848203E1,-4.924955964E-1,-6.102364063E-1,1.875759244E0
1.648977198E1,-5.816792846E-1,5.937435627E-1,1.116476059E0
1.651106188E1,-3.513898849E-1,-3.249707520E-1,-3.049654961E-1
1.653235177E1,1.207950488E-1,-5.326588154E-1,-1.421670675E0
1.655364172E1,-3.220692277E-1,-7.690566778E-1,-1.973265767E0
1.657493162E1,-4.424061179E-1,-1.312176228E0,-9.158890843E-1
1.659622151E1,2.411319613E-1,-5.363239050E-1,7.670714259E-1
1.661751141E1,-4.430169761E-1,-2.693836391E-1,1.228261113E0
1.663880135E1,-8.377006650E-1,1.232689738E0,1.325996637E0
1.666009125E1,-3.996468186E-1,-6.352811307E-2,5.996993184E-1
1.668138115E1,8.336538076E-1,5.021164417E-1,6.815528274E-1
1.670267109E1,1.697391868E0,3.781144619E-1,5.971032009E-2
1.672396099E1,1.168398142E0,6.670452356E-1,-6.824691296E-1
1.674525088E1,2.625116110E-1,-6.352811307E-2,-8.260945678E-1
1.676654078E1,-1.076618284E-1,-5.460974574E-1,-2.536543310E-1
1.678783073E1,-6.861341596E-1,-5.613686442E-1,-2.823641598E-1
1.680912063E1,-5.340332389E-1,-3.176405653E-2,9.208522737E-2
1.683041052E1,-1.131594554E-1,-4.966188073E-1,2.215848416E-1
1.685170047E1,-6.795676053E-2,-3.463504016E-1,-2.756448388E-1
1.687299036E1,-4.344651103E-1,3.170297146E-1,-5.169295073E-1
1.689428026E1,7.334748507E-1,-1.701285958E0,-1.656923145E-1
1.691557016E1,-6.030589342E-1,5.405998230E-1,-6.788040400E-1
1.693686010E1,-2.596100792E-3,-1.415409446E0,-1.198787764E-1
1.695815000E1,-5.279247165E-1,7.073611021E-1,-2.677038014E-1
1.697943990E1,4.078932703E-1,-1.124035358E0,-3.825430870E-1
1.700072979E1,-1.217036843E0,9.584193230E-1,-1.311107278E0
1.702201974E1,-3.788780272E-1,-9.345963001E-1,-9.055047035E-1
1.704330964E1,2.783936262E-1,3.090887070E-1,-1.638597846E-1
1.706459953E1,1.282015681E0,-2.443388999E-1,4.738647640E-1
1.708588943E1,4.836383164E-1,2.791571915E-1,2.985515893E-1
1.710717938E1,-4.169032723E-2,2.498365343E-1,-2.634278834E-1
1.712846927E1,1.495048702E-1,2.993151546E-1,-3.171824515E-1
1.714975917E1,7.731798887E-1,2.565558553E-1,-1.827960461E-1
1.717104906E1,8.849649429E-1,-1.588202864E-1,-1.626380831E-1
1.719233901E1,-2.860292196E-1,2.302894145E-1,-2.903051674E-1
1.721362891E1,-7.625664473E-1,4.208737612E-1,8.903098851E-2
1.723491880E1,-3.092414141E-1,6.108472589E-3,-1.175880991E-2
1.725620870E1,1.030804738E-1,-3.035911024E-1,-7.955521941E-1
1.727749859E1,-3.251234591E-1,6.597150564E-1,-1.368526936E0
1.729878854E1,1.519482583E-1,-8.307522535E-1,-9.653677344E-1
1.732007844E1,-4.998257756E-1,-3.781144619E-1,-2.988570333E-1
1.734136833E1,-1.240249038E0,-9.712471068E-2,2.179197669E-1
1.736265823E1,-5.963396430E-1,-8.631271720E-1,7.334748507E-1
1.738394812E1,-2.420482337E-1,4.056025743E-1,8.440381885E-1
1.740523807E1,8.623636365E-1,-2.302894145E-1,9.900307059E-1
1.742652797E1,8.292251825E-2,1.194206357E0,2.221956849E-1
1.744781786E1,-1.217113137E-1,5.131117105E-1,-3.086305857E-1
1.746910776E1,6.827745438E-1,-2.571666837E-1,1.763821393E-1
1.749039766E1,2.075353563E-1,1.117239594E0,3.272614181E-1
1.751168760E1,8.562551737E-1,-1.411057115E-1,1.086544514E0
1.753297750E1,2.374668717E-1,7.861604095E-1,6.235223413E-1
1.755426740E1,-8.628217876E-2,4.453076422E-1,7.788302377E-3
1.757555729E1,-1.101052165E-1,-3.811686933E-1,-7.503495216E-1
1.759684719E1,-2.524326444E-1,5.595360994E-1,-1.341038823E0
1.761813708E1,6.357392669E-1,-1.254145741E0,-8.419765830E-1
1.763942703E1,-4.986040890E-1,1.066539288E0,-7.375217080E-1
1.766071693E1,1.947075576E-1,-2.614426315E-1,3.602471650E-1
1.768200682E1,1.165191159E-1,-4.275930673E-2,4.170559645E-1
1.770329672E1,-7.705074549E-1,8.228112459E-1,2.122694254E-2
1.772458662E1,-1.175880991E-2,-5.173876286E-1,-3.355078697E-1
1.774587651E1,3.437542915E-1,3.463504016E-1,-5.230379701E-1
1.776716641E1,1.623326540E-1,4.538595080E-1,-6.336013079E-1
1.778845630E1,7.742489129E-2,4.434750974E-1,-1.204896197E-1
1.780974625E1,3.254288733E-1,2.199050039E-2,3.419217467E-1
1.783103615E1,-3.436015919E-2,9.297095537E-1,4.665345848E-1
1.785232604E1,2.692309320E-1,-3.652866483E-1,4.231644273E-1
1.787361594E1,-2.328855246E-1,3.603998944E-2,-2.402156889E-1
1.789490583E1,-8.872556686E-2,-6.303943992E-1,-4.472928941E-1
1.791619573E1,-2.756448388E-1,2.345653474E-1,-2.426590770E-1
1.793748562E1,3.602471650E-1,-4.648547769E-1,-1.021642014E-1
1.795877552E1,4.640912116E-1,1.001789495E-1,1.122431830E-1
1.798006542E1,1.653869003E-1,6.719319820E-1,5.025745630E-1
1.800135531E1,-1.162136942E-1,-3.915531039E-1,6.339067221E-1
1.802264521E1,-1.220701933E0,6.340594292E-1,3.822376728E-1
1.804393510E1,-3.611634374E-1,-1.728697717E-1,1.256818175E-1
1.806522500E1,2.863346636E-1,-2.858765125E-1,-6.140542030E-1
1.808651490E1,-2.096733153E-1,-3.768927455E-1,-9.036721587E-1
1.810780479E1,2.197522968E-1,-1.059896350E0,-8.315922022E-1
1.812909469E1,-1.154730439E0,2.791571915E-1,-7.485169768E-1
1.815038458E1,-3.984251320E-1,-1.282779220E-2,1.450762246E-2
1.817167448E1,-3.764346242E-1,1.789782494E-1,4.402681589E-1
1.819296438E1,-3.483356535E-1,3.011476994E-1,5.887040496E-1
1.821425427E1,-1.577513069E-1,4.288147688E-1,5.398362875E-1
1.823554417E1,-8.872556686E-2,7.537854910E-1,1.831014603E-1
1.825683406E1,7.475243211E-1,-1.343864016E-2,2.234173864E-1
1.827812396E1,3.584146202E-1,2.718270421E-1,-2.805316150E-1
1.829941385E1,6.143596172E-1,-2.748812735E-2,5.787777901E-2
1.832070375E1,-3.666610718E-1,5.680879354E-1,3.512371797E-3
1.834199365E1,-5.780141950E-1,1.801999360E-1,3.859027624E-1
1.836328354E1,-2.279987335E-1,-9.364288449E-1,4.121691883E-1
1.838457344E1,-7.662315369E-1,3.170297146E-1,4.616478086E-1
1.840586333E1,3.156553209E-1,-4.031591862E-2,6.039752364E-1
1.842715318E1,3.791834414E-1,2.974826097E-1,7.925742865E-2
1.844844307E1,4.952444136E-1,-2.522799075E-1,-3.770454824E-1
1.846973297E1,-4.474456236E-2,3.677300513E-1,-7.656207085E-1
1.849102286E1,5.740436912E-1,-5.632011890E-1,1.586675793E-1
1.851231276E1,-9.439880848E-1,9.480349422E-1,-2.848075330E-1
1.853360266E1,2.228065431E-1,-9.785773158E-1,6.864396334E-1
1.855489250E1,-3.226800561E-1,-1.014006436E-1,2.977880463E-2
1.857618240E1,5.238015205E-2,-0.000000000E0,-2.182251811E-1
1.859747229E1,-1.437018216E-1,-3.677300513E-1,-3.275668323E-1
1.861876219E1,-4.100312293E-1,5.595360994E-1,-4.136963189E-1
1.864005208E1,3.718532622E-1,-5.467082858E-1,-4.046862945E-2
1.866134193E1,4.482091665E-1,2.467822880E-1,4.443913698E-2
1.868263182E1,9.283351302E-1,-8.368607610E-2,2.869454920E-1
1.870392172E1,6.032116711E-2,2.040229887E-1,1.751604527E-1
1.872521162E1,-4.143071473E-1,2.467822880E-1,2.985515893E-1
1.874650146E1,1.336228400E-1,-4.391991794E-1,3.588727489E-2
1.876779135E1,4.443913698E-2,2.235700935E-1,-3.691044450E-1
1.878908125E1,4.616478086E-1,-8.307522535E-2,-6.812474132E-1
1.881037115E1,1.450762246E-2,5.320479870E-1,-7.564579844E-1
1.883166099E1,-1.742441803E-1,-5.228852630E-1,-4.472928941E-1
1.885295089E1,-3.226800561E-1,8.429691941E-2,4.201101959E-1
1.887424078E1,1.727170646E-1,-4.440859556E-1,1.033400893E0
1.889553063E1,-1.907370538E-1,2.638860047E-1,5.398362875E-1
1.891682052E1,-7.607339025E-1,-1.673721522E-1,-2.475458533E-1
1.893811042E1,-1.021642014E-1,-2.095206082E-1,-3.342861533E-1
1.895940026E1,-4.069769979E-1,1.997470558E-1,-5.804576278E-1
1.898069016E1,2.411319613E-1,-4.147652984E-1,-1.174353883E-1
1.900198005E1,-4.204156399E-1,-5.613686442E-1,-1.388150454E-1
1.902326990E1,-2.872509360E-1,-1.258345395E-1,3.174878657E-1
1.904455979E1,-2.457133085E-1,-9.119949341E-1,2.295258641E-1
1.906584964E1,-9.959101081E-1,1.225970507E0,3.038965166E-2
1.908713953E1,2.661767006E-1,-2.932066917E-1,3.217637837E-1
1.910842943E1,1.358371615E0,-3.066453338E-1,2.093679011E-1
1.912971927E1,1.103648305E0,5.607577562E-1,-1.779092699E-1
1.915100917E1,3.248180151E-1,6.505523324E-1,-3.752129376E-1
1.917229901E1,-3.868190348E-1,-8.674030751E-2,-1.204896197E-1
1.919358891E1,-7.735617161E-1,1.099525094E-1,-5.635065958E-2
1.921487875E1,-2.231119573E-1,-1.462444663E0,1.702736765E-1
1.923616865E1,-2.506000996E-1,1.508792788E-1,-2.092151903E-2
1.925745849E1,-3.245126009E-1,4.178195298E-1,-1.846285909E-1
1.927898297E1,5.832064152E-1,-2.388412803E-1,3.235963285E-1
1.930069849E1,6.565080881E-1,6.297835112E-1,3.229855001E-1
1.932241396E1,4.298837483E-1,-6.536065787E-2,3.333698809E-1
1.934412948E1,6.009209752E-1,-6.658235192E-2,4.048390090E-1
1.936584495E1,-5.059342384E-1,5.033381581E-1,-2.225011140E-1
1.938756047E1,-2.347180545E-1,-7.116370797E-1,-6.856760383E-2
1.940885312E1,-1.088835225E-1,-1.588202864E-1,-4.912739098E-1
1.943014297E1,2.967190444E-1,-2.064663768E-1,-3.874298632E-1
1.945143286E1,5.282301903E-1,-1.588202864E-1,-1.699682474E-1
1.947272271E1,1.267508045E-2,2.150182426E-1,-1.553079188E-1
1.949401260E1,-1.229330078E-1,1.099525094E-1,-3.593308926E-1
1.951530245E1,5.514423847E-1,-1.160609797E-1,-1.009425074E-1
1.953659229E1,-1.053711493E-2,5.717530251E-1,-2.469350100E-1
1.955788219E1,8.226585388E-1,-4.587462842E-1,3.608580232E-1
1.957917203E1,9.513945878E-2,-5.131116882E-2,-2.286095917E-1
1.960046188E1,2.305948362E-2,-6.597150117E-2,-2.078407854E-1
1.962175177E1,2.148655206E-1,-5.937435627E-1,1.068982761E-3
1.964304162E1,-5.951179266E-1,1.174048424E0,-5.083776116E-1
1.966433146E1,4.903576374E-1,-6.853706241E-1,-4.033119082E-1
1.968562135E1,8.831323981E-1,1.856975704E-1,3.199312389E-1
1.970691120E1,-2.451024652E-1,1.496575773E-1,-2.444916219E-1
1.972820104E1,-1.809635013E-1,-1.783674061E-1,7.192726433E-2
1.974949088E1,-1.174353883E-1,4.605788291E-1,4.158342779E-1
1.977078078E1,-5.199837089E-1,7.201889157E-1,3.852919042E-1
1.979207062E1,6.962131858E-1,-9.449806809E-1,6.760551929E-1
1.981336047E1,5.209000111E-1,-1.080054283E0,-2.060082406E-1
1.983465031E1,-1.455267191E0,8.234221339E-1,-1.329432726E0
1.985594021E1,2.050919682E-1,-1.338442683E0,-4.308000207E-1
1.987723005E1,-6.971294284E-1,6.536065936E-1,-6.030589342E-1
1.989851990E1,9.391776472E-2,-8.417475224E-1,1.714953631E-1
1.991980974E1,1.000262350E-1,-7.214106321E-1,2.002051920E-1
1.994109958E1,-1.311718106E0,6.108472589E-3,-2.615953386E-1
1.996238948E1,-4.564556181E-1,1.007898003E-1,6.131379604E-1
1.998367932E1,-2.347180545E-1,8.069292307E-1,2.191414535E-1
2.000496917E1,7.957812548E-1,2.040229887E-1,-2.719797492E-1
2.002625901E1,5.007420182E-1,-3.622324169E-1,-4.674508572E-1
2.004754885E1,6.332958937E-1,7.794411182E-1,-2.780882120E-1
2.006883870E1,5.031854510E-1,-1.899811387E0,-3.275668323E-1
2.009012854E1,-1.109527707E0,2.639547348E0,-3.697153032E-1
2.011141838E1,1.140757278E-1,-1.813071012E0,1.409530044E-1
2.013270823E1,-1.950129867E-1,8.564078808E-1,3.174878657E-1
2.015399807E1,2.924431264E-1,-1.035462499E0,4.567610323E-1
2.017528792E1,-1.162671447E0,9.724688530E-1,-1.962346882E-1
2.019657776E1,8.623636365E-1,-1.866825581E0,2.631224692E-1
2.021786760E1,-3.924693540E-2,9.083298445E-1,-1.314848661E-1
2.023915750E1,2.509055138E-1,-6.212316751E-1,3.710897267E-2
2.026044734E1,3.303156495E-1,5.497625470E-2,6.826218218E-2
2.028173719E1,-4.020902216E-1,6.719320081E-3,-6.409314871E-1
2.030302703E1,1.617218107E-1,-2.510582209E-1,-2.921377122E-1
2.032431688E1,-5.303681493E-1,-3.005368412E-1,-7.014053464E-1
2.034560672E1,-5.315898061E-1,3.744493723E-1,-5.077667832E-1
2.036689651E1,4.732539058E-1,-1.018969536E0,4.311054647E-1
2.038818635E1,-1.498102844E-1,1.553384542E0,-1.229330078E-1
2.040947620E1,7.285880446E-1,-8.270871639E-1,-2.322746664E-1
2.043076604E1,2.246390730E-1,-1.484358907E-1,-5.975613594E-1
2.045205588E1,-3.130592033E-2,9.932376146E-1,-7.252284288E-1
2.047334573E1,5.325061083E-1,-3.255815804E-1,-1.088835225E-1
2.049463557E1,-3.764346242E-1,9.309312105E-1,-8.078455180E-2
2.051592542E1,1.011410356E0,-9.034430981E-1,3.633013964E-1
2.053721526E1,-4.546230733E-1,2.156290859E-1,-1.736333370E-1
2.055850510E1,-2.506000996E-1,-3.585673273E-1,-3.605526090E-1
2.057979495E1,-4.295783341E-1,6.218425035E-1,-6.519267559E-1
2.060108474E1,3.028275371E-1,-5.375456065E-2,-1.241547018E-1
2.062237458E1,-4.230117425E-2,9.400939345E-1,-2.542651594E-1
2.064366443E1,2.050919682E-1,-7.672241330E-1,-2.524326444E-1
2.066495427E1,-2.945810854E-1,7.085828483E-2,-3.558185324E-2
2.068624412E1,-4.668400288E-1,4.349232614E-1,2.979407609E-1
2.070753396E1,9.161182046E-1,-1.478250325E-1,1.027292371E0
2.072882380E1,-1.031950116E0,1.282168388E0,2.270824611E-1
2.075011359E1,-3.562766612E-1,-6.218425035E-1,2.460187376E-1
2.077140344E1,1.446180940E-1,-8.900044560E-1,-1.382041872E-1
2.079269328E1,-7.943304777E-1,1.125791550E0,-4.216373265E-1
2.081398312E1,-2.243336588E-1,1.588202827E-2,-3.226800561E-1
2.083527297E1,1.003469348E0,2.718270421E-1,4.237752855E-1
2.085656276E1,1.348445266E-1,-6.621584296E-1,5.819846988E-1
2.087785260E1,-1.308053017E0,7.678350210E-1,3.382566571E-1
2.089914245E1,7.383615971E-1,-9.535325766E-1,6.565080881E-1
2.092043229E1,-9.018396139E-1,1.194206357E0,-3.300102353E-1
2.094172214E1,8.379297256E-1,-6.010736823E-1,3.345915973E-1
2.096301193E1,-3.275668323E-1,-1.184509158E0,-5.584670901E-1
2.098430177E1,1.940967143E-1,1.288887709E-1,8.842013776E-2
2.100559162E1,1.293469071E-1,9.040539712E-2,1.372879148E-1
2.102688146E1,-1.193213820E0,5.112791657E-1,-3.348970115E-1
2.104817125E1,3.100049868E-2,-9.927031398E-1,5.508314967E-1
2.106946109E1,4.170559645E-1,-1.032331884E-1,5.154023767E-1
2.109075094E1,1.794363856E-1,7.617265582E-1,7.878402472E-1
2.111204078E1,-6.146650314E-1,-3.897205591E-1,2.122694254E-2
2.113333057E1,2.244863659E-2,-1.120370269E0,-1.962346882E-1
2.115462042E1,-6.360446811E-1,6.786513329E-1,-6.048914790E-1
2.117591026E1,9.161182046E-1,-4.220954478E-1,3.950654566E-1
2.119720005E1,1.885990947E-1,5.051707029E-1,1.983726472E-1
2.121848990E1,-3.863608837E-2,1.252236813E-1,7.009471953E-2
2.123977974E1,9.009997360E-3,1.166107416E0,2.893888950E-1
2.126106958E1,-5.651864409E-1,-1.007363439E0,-2.261662036E-1
2.128235938E1,-9.323819876E-1,1.271173120E0,-9.605573118E-2
2.130364922E1,1.556133330E-1,-1.409911871E0,2.489202656E-2
2.132493906E1,1.116323397E-1,3.591781855E-1,3.907895386E-1
2.134622885E1,-7.986064553E-1,-2.443388999E-1,2.667875290E-1
2.136751870E1,-2.389939874E-1,-7.452336550E-1,1.788255423E-1
2.138880854E1,-2.359397560E-1,-2.101314515E-1,-7.284353673E-2
2.141009833E1,-8.872556686E-2,-1.386623234E-1,2.496838123E-1
2.143138818E1,2.539597452E-1,8.429691941E-2,4.763081372E-1
2.145267802E1,-1.015533581E-1,-3.127537966E-1,3.773508966E-1
2.147396781E1,3.242071867E-1,-1.026223376E-1,3.150444627E-1
2.149525766E1,-2.200577259E-1,-6.163448691E-1,-2.096733153E-1
2.151654750E1,-6.855233312E-1,3.023693860E-1,-3.013004065E-1
2.153783729E1,1.189625040E-1,5.253286287E-2,1.110214889E-1
2.155912714E1,7.579087615E-1,-1.374406368E-1,2.845021188E-1
2.158041693E1,8.336538076E-1,4.398100078E-2,3.168770075E-1
2.160170677E1,-6.245913357E-2,-3.927747905E-1,-3.703261614E-1
2.162299662E1,-5.205945969E-1,4.813476503E-1,-1.705790907E-1
2.164428641E1,1.708845198E-1,-1.048901081E0,-1.467560530E-1
2.166557625E1,-1.846285909E-1,9.535325766E-1,1.702736765E-1
2.168686604E1,6.626165509E-1,-9.988116026E-1,4.390464723E-1
2.170815588E1,-5.737382770E-1,9.712471068E-2,-2.426590770E-1
2.172944573E1,-1.846285909E-1,-1.046457767E0,-2.567085624E-1
2.175073552E1,-4.283566475E-1,5.980194807E-1,-1.742441803E-1
2.177202536E1,-1.791309565E-1,1.343864016E-2,-1.772984117E-1
2.179331521E1,2.307475507E-1,1.716480851E-1,-2.214321308E-2
2.181460500E1,1.678302884E-1,-4.807367921E-1,8.292251825E-2
2.183589484E1,-7.773031294E-2,-2.791571915E-1,2.759502530E-1
2.185718464E1,-2.884726226E-1,3.921639323E-1,9.391776472E-2
2.187847448E1,7.253811508E-2,7.574506104E-2,2.081461996E-1
2.189976427E1,9.636115283E-2,1.478250325E-1,7.803573459E-2
2.192105412E1,-7.101099193E-2,-2.907632887E-1,-3.697153032E-1
2.194234396E1,3.254288733E-1,7.391251624E-2,2.930539846E-1
2.196363375E1,1.641651988E-1,3.787253052E-2,4.207210541E-1
2.198492359E1,-9.531508088E-1,3.524588645E-1,2.472404242E-1
2.200621339E1,1.598892659E-1,-6.682668924E-1,3.657447994E-1
2.202750323E1,1.562241912E-1,8.429692388E-1,1.977618039E-1
2.204879302E1,5.331169367E-1,-2.663294077E-1,5.184566379E-1
2.207008286E1,3.100049868E-2,2.828222811E-1,5.337277651E-1
2.209137271E1,-5.987830162E-1,-5.375456065E-2,-2.194468826E-1
2.211266250E1,-6.323796511E-1,2.406738251E-1,-3.917058110E-1
2.213395234E1,2.374668717E-1,5.497625098E-3,1.849340051E-1
2.215524214E1,-9.788827598E-2,6.639909744E-1,2.270824611E-1
2.217653198E1,1.050504565E0,-7.140804529E-1,6.558972597E-1
2.219782177E1,-3.214583695E-1,5.283828974E-1,5.909947306E-2
2.221911162E1,-2.603736520E-1,-6.157340407E-1,1.543916464E-1
2.224040141E1,-1.247655526E-1,-1.832541823E-1,-1.455343664E-1
2.226169125E1,-2.707580328E-1,-7.281299233E-1,-5.493044257E-1
2.228298109E1,-6.055023670E-1,1.466033459E-1,-4.143071473E-1
2.230427088E1,3.901786804E-1,-7.073611021E-1,-8.200624585E-2
2.232556073E1,-5.940489471E-2,2.809897438E-2,5.360184610E-2
2.234685052E1,2.631224692E-1,-2.486148328E-1,7.192726433E-2
2.236814037E1,-5.041016936E-1,3.811686933E-1,-2.738122940E-1
2.238943016E1,-4.766135812E-1,1.856975704E-1,-2.133384049E-1
2.241072000E1,4.482091665E-1,-5.796940327E-1,-1.101052165E-1
2.243200979E1,5.636593103E-1,-1.178935245E-1,-3.458922505E-1
2.245329964E1,4.408790171E-1,-8.918370306E-2,-2.481566966E-1
2.247458943E1,7.986827940E-2,-3.048127890E-1,-3.947600424E-1
2.249587927E1,-7.845569253E-1,3.805578351E-1,-6.610894203E-1
2.251716906E1,5.001311898E-1,-9.969790578E-1,4.231644273E-1
2.253845891E1,3.187095523E-1,6.163448691E-1,5.251759291E-1
2.255974870E1,2.594573796E-1,5.919110179E-1,4.708105326E-1
2.258103854E1,7.279772162E-1,2.577775419E-1,6.088619828E-1
2.260232833E1,8.055548072E-1,3.628432751E-1,3.547495604E-1
2.262361818E1,2.582356930E-1,-1.123958975E-1,-6.917845458E-2
2.264490797E1,-3.697153032E-1,-9.956810623E-2,-5.792359114E-1
2.266619781E1,-2.347180545E-1,-2.003578991E-1,-5.865660906E-1
2.268748760E1,-1.791309565E-1,5.534276366E-1,-5.957288146E-1
2.270877745E1,4.060607255E-1,5.680879578E-2,-1.455343664E-1
2.273006724E1,3.388675153E-1,3.665083554E-3,1.317902952E-1
2.275135708E1,-1.046075895E-1,-3.946073353E-1,-5.512896553E-2
2.277264688E1,-8.260945678E-1,1.423274130E-1,-2.408265322E-1
2.279393672E1,-9.605573118E-2,2.174616307E-1,3.161134571E-2
2.281522651E1,-2.214321308E-2,6.365028620E-1,-3.116848171E-1
2.283651635E1,4.023956358E-1,-1.893626526E-2,-2.786990702E-1
2.285780615E1,-4.112529159E-1,4.043808877E-1,-5.627430081E-1
2.287909599E1,-7.766159177E-1,3.445178568E-1,-4.509579837E-1
2.290038578E1,-4.326325655E-1,2.834331393E-1,1.592784226E-1
2.292167557E1,-3.397837877E-1,5.326588154E-1,2.741177082E-1
2.294296542E1,6.155813336E-1,-7.818844914E-2,6.021426916E-1
2.296425526E1,4.693750381E0,8.588512540E-1,1.953413129E0
2.298554505E1,-3.959817410E0,3.061642885E0,-2.003197193E0
2.300683484E1,-9.391013145E0,-7.293516397E-1,-3.436932087E0
2.302812469E1,-4.265851974E0,7.995990515E-1,-1.188937783E0
2.304941448E1,6.791094542E-1,2.627330303E0,5.669273376E0
2.307070432E1,6.512242794E0,-1.472218275E0,7.528158188E0
2.309199412E1,7.393771648E0,4.266844273E0,-1.175880991E-2
2.311328396E1,3.468085229E-1,2.541124523E-1,-2.893812418E0
2.313457375E1,-6.051358223E0,-1.327447414E0,-5.620100021E0
2.315586359E1,-2.907861948E0,-3.867426634E0,-8.065474629E-1
2.317715338E1,8.110524416E-1,-1.564456224E0,1.239256382E0
2.319844323E1,2.551814318E-1,6.792621613E-1,6.815528274E-1
2.321973302E1,-9.818606377E-1,3.561239541E-1,-4.051444530E-1
2.324102286E1,2.057028115E-1,-1.629205942E0,-2.585334778E0
2.326231266E1,-9.769738317E-1,1.478250384E0,1.104106456E-1
2.328360250E1,2.137889147E0,-8.997780085E-1,2.192865372E0
2.330489229E1,-4.766135812E-1,5.803048983E-2,2.743238688E0
2.332618208E1,-7.007945180E-1,1.334090471E0,1.238645554E0
2.334747193E1,2.417428046E-1,-3.451287150E-1,-4.738036633E0
2.336876172E1,-4.138184547E0,1.573542595E0,1.977618039E-1
2.339005156E1,1.156792045E0,-2.687727809E-1,2.205082178E0
2.341134135E1,4.485985756E0,-5.070032477E-1,8.483141065E-1
2.343263120E1,-4.796678126E-1,1.120293856E0,1.649745703E0
2.345392099E1,-1.955551147E0,-2.486148328E-1,-9.940775633E-1
2.347521078E1,-2.474160433E0,-4.960079789E-1,-7.393542528E-1
2.349650063E1,-1.457710624E0,-2.443388999E-1,-1.229864597E0
2.351779042E1,4.628695250E-1,3.933856487E-1,-1.483977079E0
2.353908026E1,1.272853017E0,1.159998894E0,-5.932853818E-1
2.356037005E1,1.802457571E0,9.797990322E-1,1.885990947E-1
2.358165990E1,1.593547821E0,5.778614879E-1,-2.947338112E-2
2.360294969E1,1.402963400E0,2.577775419E-1,7.029324770E-1
2.362423948E1,2.020377368E-1,5.729747415E-1,3.523061574E-1
2.364552932E1,-7.888329029E-1,-1.575985998E-1,-1.156028435E-1
2.366681912E1,-3.550549746E-1,-7.757760286E-1,-4.637857676E-1
2.368810896E1,-8.346464038E-1,-1.264453828E-1,-5.541911721E-1
2.370939875E1,6.045860648E-1,-1.533303022E0,4.123218823E-3
2.373068854E1,1.126249671E0,-4.074351192E-1,2.704526186E-1
2.375197838E1,1.489092946E0,-1.113650918E0,1.611109674E-1
2.377326818E1,6.882721782E-1,-7.849387527E-1,4.866925478E-1
2.379455802E1,6.093201414E-2,-3.420744538E-1,7.988355160E-1
2.381584781E1,-1.369825006E-1,-3.231382072E-1,1.125027895E0
2.383713760E1,-1.504211426E-1,-6.297835112E-1,6.907155514E-1
2.385842745E1,-3.206948051E-3,-2.901524603E-1,-2.518217862E-1
2.387971724E1,7.010999322E-1,-9.553651214E-1,-2.872509360E-1
2.390100703E1,6.937697530E-1,-2.974826097E-1,3.352024257E-1
2.392229688E1,8.574768305E-1,-4.685198367E-1,4.366030693E-1
2.394358667E1,8.964183182E-2,-3.787253052E-2,-3.130592033E-2
2.396487651E1,-1.449235082E-1,-6.126797795E-1,-1.388150454E-1
2.398616630E1,-3.825430870E-1,-2.443389036E-3,-3.825430870E-1
2.400745609E1,-2.580829710E-2,-1.789782494E-1,-4.375193417E-1
2.402874594E1,-5.146388337E-2,-2.162399292E-1,6.566607859E-3
2.405003573E1,1.617218107E-1,-2.137965411E-1,2.386885732E-1
2.407132552E1,-7.711946964E-2,7.385143638E-1,1.391204596E-1
2.409261536E1,1.450762246E-2,4.666872919E-1,8.597674966E-2
2.411390516E1,4.506525695E-1,-2.394521236E-1,-3.069507517E-2
2.413519500E1,1.275143623E-1,1.685938388E-1,-1.803526580E-1
2.415648479E1,4.787515402E-1,-1.710372418E-2,-3.263451457E-1
2.417777458E1,-4.485146105E-1,8.038749695E-1,-4.912739098E-1
2.419906443E1,-2.756448388E-1,1.630962193E-1,-2.279987335E-1
2.422035422E1,1.934858710E-1,-3.542914093E-1,-1.186570823E-1
2.424164401E1,3.516952991E-1,4.966188073E-1,1.629435122E-1
2.426293385E1,7.939487100E-1,2.718270421E-1,4.366030693E-1
2.428422365E1,3.003841341E-1,9.657495022E-1,4.732539058E-1
2.430551344E1,3.405473381E-2,-5.723638535E-1,6.534538269E-1
2.432680328E1,-1.290414780E-1,3.151971996E-1,7.169819474E-1
2.434809307E1,2.967190444E-1,-7.598940134E-1,7.737907767E-1
2.436938287E1,-8.529718518E-1,1.425106645E0,4.138490185E-2
2.439067271E1,-4.735593498E-1,-3.628432751E-1,4.138490185E-2
2.441196250E1,-1.053940535E0,7.653915882E-1,-2.188360244E-1
2.443325229E1,4.402681589E-1,-1.301180959E0,1.226275861E-1
2.445454214E1,7.986827940E-2,-9.773556143E-3,-2.481566966E-1
2.447583193E1,2.588465214E-1,6.780404598E-2,1.495048702E-1
2.449712172E1,-2.707580328E-1,-2.101314515E-1,-5.879404768E-2
2.451841156E1,-6.977402568E-1,4.257605374E-1,-1.553079188E-1
2.453970135E1,7.131642103E-2,-1.280412197E0,-3.544441164E-1
2.456099115E1,-2.756448388E-1,1.002400398E0,-5.199837089E-1
2.458228099E1,8.751913905E-1,-1.538800597E0,-1.510319859E-1
2.460357078E1,-1.889045089E-1,2.870982140E-2,-4.020902216E-1
2.462486057E1,-2.719797492E-1,-8.527427912E-1,-1.664558798E-2
2.464615042E1,-3.422271907E-1,-6.248967648E-1,-6.306997687E-2
2.466744021E1,-2.579302490E-1,-3.115321100E-1,-2.084516287E-1
2.468873000E1,1.572931744E-2,-2.962609231E-1,-7.326349020E-1
2.471001984E1,-4.741701782E-1,1.138008475E0,-8.822925091E-1
2.473130964E1,7.194253802E-1,-1.160609797E-1,2.489202656E-2
2.475259943E1,-6.995728016E-1,1.752597094E0,-5.358657837E-1
2.477388922E1,1.556133330E-1,-5.833591223E-1,1.940967143E-1
2.479517906E1,-2.408265322E-1,3.732276857E-1,-5.390727147E-2
2.481646885E1,-1.412584335E-1,1.740914732E-1,1.623326540E-1
2.483775865E1,1.898207814E-1,-5.845808387E-1,3.333698809E-1
2.485904849E1,1.592784226E-1,-5.729747415E-1,4.701996744E-1
2.488033828E1,-4.454603493E-1,-3.384093940E-1,1.262926757E-1
2.490162807E1,-3.379512429E-1,-8.551862091E-3,-6.134433746E-1
2.492291792E1,-8.077691197E-1,3.329117596E-1,-9.427663684E-1
2.494420771E1,7.982246280E-1,-9.571976662E-1,-4.411844313E-1
2.496549750E1,3.461976945E-1,2.296785712E-1,-3.691044450E-1
2.498678729E1,4.879142344E-1,-6.413896382E-2,-1.540862173E-1
2.500807714E1,1.634016447E-2,8.454126120E-1,-1.211004704E-1
2.502936693E1,3.009949923E-1,4.691306949E-1,2.619007528E-1
2.505065672E1,-1.449235082E-1,1.090362310E0,3.975088596E-1
2.507194656E1,1.067455560E-1,1.249793530E0,4.482091665E-1
2.509323635E1,1.270409584E0,-1.527805328E0,2.637332976E-1
2.511452615E1,3.571929336E-1,7.660024762E-1,8.658760041E-2
2.513581594E1,1.708845198E-1,-8.185353130E-2,1.195733473E-1
2.515710578E1,-1.944021434E-1,1.551551968E-1,-1.498102844E-1
2.517839557E1,-1.331265211E0,1.196038961E0,-9.397121668E-1
2.519968536E1,-1.870719790E-1,-1.161296964E0,-5.175403357E-1
2.522097516E1,-4.540122151E-1,-3.310792148E-1,-4.136963189E-1
2.524226500E1,4.421007037E-1,-1.533226669E-1,-9.422318637E-2
2.526355479E1,-8.322793990E-2,3.720059693E-1,1.476723254E-1
2.528484458E1,-8.566369414E-1,1.051878929E0,-3.587200642E-1
2.530613443E1,-4.352286831E-2,-1.666467667E0,-5.548020005E-1
2.532742422E1,-3.929274976E-1,7.171346545E-1,-9.995751977E-1
2.534871401E1,8.385405540E-1,-5.173876286E-1,-2.023431510E-1
2.537000380E1,1.671125412E0,-3.726168349E-2,7.841751575E-1
2.539129359E1,1.190999389E0,6.700994372E-1,9.985825419E-1
2.541258344E1,6.241331697E-1,1.747023165E-1,5.532749295E-1
2.543387323E1,-2.603736520E-1,-1.368297935E-1,-2.945810854E-1
2.545516302E1,-1.300112009E0,5.063923597E-1,-1.304998755E0
2.547645287E1,3.297048211E-1,-5.845808387E-1,-7.564579844E-1
2.549774266E1,7.375980914E-2,2.186833173E-1,-9.751412868E-1
2.551903245E1,9.576557875E-1,-1.563768983E-1,1.446180940E-1
2.554032224E1,3.474193811E-1,-8.002099395E-2,2.557922900E-1
2.556161203E1,7.437065244E-2,5.882459283E-1,1.181836724E0
2.558290188E1,7.469134927E-1,-5.161659122E-1,9.949174523E-1
2.560419167E1,-2.933593988E-1,3.976615667E-1,3.038965166E-2
2.562548146E1,4.566083103E-2,-4.068242610E-1,3.100049868E-2
2.564677125E1,-1.571404636E-1,-5.503733754E-1,-6.158867478E-1
2.566806104E1,-1.186494470E0,5.216635466E-1,-8.364789486E-1
2.568935089E1,-3.092414141E-1,-1.885761857E0,-3.636068404E-1
2.571064068E1,-1.172444940E0,3.805578351E-1,-7.136223316E-1
2.573193047E1,-4.173613787E-1,-1.016526222E0,-1.821851879E-1
2.575322026E1,5.604523420E-2,-3.145863414E-1,3.681881726E-1
2.577451005E1,-3.104631305E-1,3.634541333E-1,2.716743052E-1
2.579579990E1,-1.473668963E-1,4.801259339E-1,4.072824121E-1
2.581708969E1,-1.527118147E-4,2.113531530E-1,9.330692142E-2
2.583837948E1,9.210049510E-1,2.058555335E-1,4.017847776E-1
2.585966927E1,1.009577751E0,-3.200839758E-1,-1.204896197E-1
2.588095906E1,-5.590779781E-1,9.358180165E-1,-3.831539452E-1
2.590224885E1,4.176668227E-1,-1.697620869E0,-6.306997687E-2
2.592353870E1,-1.055773139E0,4.373666346E-1,-5.077667832E-1
2.594482849E1,-3.122956753E-1,-8.564078808E-1,-3.069507517E-2
2.596611828E1,2.765611112E-1,-3.323009014E-1,2.612899244E-1
2.598740807E1,7.192726433E-2,7.061394453E-1,1.855448484E-1
2.600869787E1,1.052947998E0,-2.376195788E-1,5.874823332E-1
2.602998766E1,6.956022978E-1,-1.563768983E-1,2.246390730E-1
2.605127750E1,2.380777150E-1,2.864873707E-1,1.354553849E-1
2.607256729E1,1.085781008E-1,-6.377245188E-1,-2.371614426E-1
2.609385708E1,-9.048938751E-1,4.868452549E-1,-6.574243903E-1
2.611514688E1,8.353336155E-2,-1.609048009E0,-4.375193417E-1
2.613643667E1,-4.173613787E-1,8.900044560E-1,-4.436278343E-1
2.615772646E1,6.394043565E-1,-4.911212027E-1,-1.797417998E-1
2.617901630E1,5.482354015E-2,6.297835112E-1,-3.141281903E-1
2.620030609E1,6.154286116E-2,-4.709632397E-1,-2.499892414E-1
2.622159589E1,-3.000787199E-1,4.416425824E-1,-3.886515796E-1
2.624288568E1,5.227325559E-1,-2.980934680E-1,-2.286095917E-1
2.626417547E1,7.788302377E-3,9.150491953E-1,-4.124746025E-1
2.628546526E1,1.228871942E0,-8.802309036E-1,3.527642787E-2
2.630675505E1,-1.198787764E-1,7.934905887E-1,-6.952968836E-1
2.632804484E1,2.122694254E-2,-1.789782494E-1,-4.827220440E-1
2.634933469E1,1.030804738E-1,1.197260618E-1,-1.192679256E-1
2.637062448E1,2.356343269E-1,4.734066129E-1,-9.177979827E-2
2.639191427E1,8.353336155E-2,8.674030751E-2,-1.882936656E-1
2.641320406E1,2.429644912E-1,4.312581718E-1,-1.779092699E-1
2.643449385E1,1.389677543E-2,9.822424054E-1,-3.061871827E-1
2.645578365E1,6.082511544E-1,1.160609815E-2,-2.438807636E-1
2.647707344E1,3.290939629E-1,6.878139973E-1,-3.984251320E-1
2.649836323E1,7.182036638E-1,-2.577775419E-1,-3.752129376E-1
2.651965302E1,-2.567085624E-1,1.221083641E0,-4.827220440E-1
2.654094286E1,-9.972081333E-2,-2.076880634E-2,-4.112529159E-1
2.656223266E1,-2.481566966E-1,7.605048418E-1,2.367033064E-2
2.658352245E1,6.302416325E-1,-1.025078058E0,1.501157135E-1
2.660481224E1,-4.271349311E-1,9.303203821E-1,2.173089087E-1
2.662610203E1,4.213318825E-1,-9.168817401E-1,1.354553849E-1
2.664739182E1,-8.346464038E-1,1.046992183E0,-3.483356535E-1
2.666868162E1,-4.356867969E-1,-4.581354558E-2,-3.287885487E-1
2.668997141E1,-4.063661397E-1,2.962609231E-1,-3.709369898E-1
2.671126120E1,-2.214321308E-2,8.063183725E-2,-1.186570823E-1
2.673255099E1,-1.412584335E-1,4.422534108E-1,2.209739983E-1
2.675384078E1,-9.972081333E-2,6.071822047E-1,4.756973088E-1
2.677513063E1,4.176668227E-1,-9.284878522E-2,7.371399403E-1
2.679642042E1,-2.279987335E-1,4.727957845E-1,2.649549842E-1
2.681771021E1,-2.890834510E-1,2.699944973E-1,-5.207473040E-2
2.683900000E1,-4.393518865E-1,7.024743557E-1,-3.593308926E-1
2.686028979E1,3.022166789E-1,-5.369347334E-1,-1.175880991E-2
2.688157958E1,-5.859552622E-1,3.090887070E-1,3.955236077E-2
2.690286938E1,-7.406523079E-2,-1.233911440E-1,5.007420182E-1
2.692415917E1,-5.822901726E-1,5.919110179E-1,2.527380586E-1
2.694544896E1,-3.208475113E-1,-4.587462842E-1,2.264716178E-1
2.696673875E1,2.411319613E-1,-2.596100867E-1,2.545706034E-1
2.698802854E1,9.513945878E-2,6.413896084E-1,3.107685447E-1
2.700931833E1,7.499676943E-1,-3.970507160E-2,5.850389600E-1
2.703060812E1,-6.146650314E-1,3.707842827E-1,2.977880463E-2
2.705189792E1,-3.104631305E-1,-4.111002088E-1,2.612899244E-1
2.707318771E1,-2.218902707E-1,3.561239541E-1,-2.383831441E-1
2.709447750E1,3.846810758E-1,-4.269822240E-1,-1.412584335E-1
2.711576729E1,3.009949923E-1,3.793361485E-1,3.437542915E-1
2.713705708E1,-7.692857385E-1,6.755970716E-1,-5.085303262E-2
2.715834688E1,-9.458206296E-1,2.229592502E-1,-1.082726792E-1
2.717963667E1,-2.689255178E-1,-5.894675851E-1,-2.279987335E-1
2.720092646E1,5.642701387E-1,-2.095206082E-1,2.020377368E-1
2.722221625E1,1.328592747E-2,1.985253543E-1,3.352024257E-1
2.724350609E1,-5.633538961E-1,1.710372269E-1,1.207950488E-1
2.726479588E1,-2.988570333E-1,-4.563029110E-1,1.878355257E-2
2.728608568E1,-1.725643501E-2,-3.842229247E-1,2.221956849E-1
2.730737547E1,2.173089087E-1,-2.925958335E-1,1.989834905E-1
2.732866526E1,-4.779879749E-2,3.213056624E-1,2.160872221E-1
2.734995505E1,3.512371797E-3,2.864873707E-1,2.124221325E-1
2.737124484E1,8.597674966E-2,3.787252903E-1,2.747285664E-1
2.739253464E1,-2.255553454E-1,3.176405728E-1,1.328592747E-2
2.741382443E1,-1.542389300E-2,3.976615667E-1,2.881672084E-1
2.743511422E1,9.240592122E-1,-4.086568058E-1,4.683671296E-1
2.745640401E1,2.680092454E-1,2.309002578E-1,3.761292100E-1
2.747769380E1,-5.126535892E-1,8.490777016E-2,1.878355257E-2
2.749898359E1,-2.519745007E-2,-5.467082858E-1,-2.031067200E-2
2.752027339E1,-8.163210154E-1,4.477510452E-1,-4.668400288E-1
2.754156318E1,6.442911625E-1,-6.371136904E-1,3.052709103E-1
2.756285297E1,1.004691005E0,5.497625098E-3,5.813738704E-1
2.758414276E1,-1.137702987E-1,-3.237490356E-2,1.220167428E-1
2.760543255E1,-3.465031087E-1,-3.677300513E-1,2.606790662E-1
2.762672234E1,-1.075931072E0,4.532486796E-1,-2.641914412E-2
2.764801214E1,-1.430909634E-1,-3.219164908E-1,1.250709742E-1
2.766930188E1,6.522321701E-1,-1.123958975E-1,2.447970361E-1
2.769059172E1,-1.711899489E-1,6.719320081E-3,-3.171824515E-1
2.771188146E1,4.958552718E-1,-6.358919740E-1,8.414421231E-2
2.773317125E1,-3.648285270E-1,2.651077211E-1,-1.718007922E-1
2.775446104E1,-1.083872080E0,-2.406738251E-1,-2.397575416E-2
2.777575083E1,-4.779879749E-2,3.555130959E-1,3.180987239E-1
2.779704062E1,7.847860456E-1,-2.504473738E-2,4.078932703E-1
2.781833042E1,6.094728708E-1,-2.101314515E-1,1.507265568E-1
2.783962021E1,-8.102125525E-1,7.177455425E-1,-2.493783981E-1
2.786091000E1,4.946335554E-1,-2.730487287E-1,2.948864996E-1
2.788219979E1,2.367033064E-2,-3.420744836E-2,4.016320780E-2
2.790348958E1,-3.776563108E-1,-1.710372418E-2,2.179197669E-1
2.792477938E1,1.415638477E-1,-3.585673273E-1,1.635543555E-1
2.794606917E1,-2.084516287E-1,2.107423097E-1,1.324011385E-1
2.796735896E1,-1.815743446E-1,-6.841489673E-2,2.985515893E-1
2.798864875E1,-3.312319219E-1,2.443389036E-2,9.819369763E-2
2.800993854E1,3.113794029E-1,-0.000000000E0,4.201101959E-1
2.803122833E1,-4.107947648E-2,3.347443044E-1,2.154763639E-1
2.805251813E1,-2.365505993E-1,-6.658235192E-2,1.091889441E-1
2.807380792E1,5.105155706E-1,-2.266243398E-1,2.154763639E-1
2.809509771E1,-3.373403847E-1,5.442649126E-1,-8.261708915E-2
2.811638745E1,1.898207814E-1,-8.344173431E-1,6.675033569E-1
2.813767724E1,-6.720846891E-1,1.606528312E-1,-1.211004704E-1
2.815896703E1,6.662816405E-1,-6.389462352E-1,2.466295809E-1
2.818025682E1,3.107685447E-1,8.918370008E-1,-3.275668323E-1
2.820154662E1,8.399149403E-3,-4.672981501E-1,-3.776563108E-1
2.822283641E1,-7.338566184E-1,-2.724378705E-1,-5.535803437E-1
2.824412620E1,3.955236077E-2,-7.818844914E-1,-7.345438004E-2
2.826541599E1,-1.339282542E-1,-1.398840249E-1,5.955760833E-3
2.828670578E1,-5.089884996E-1,3.726168349E-2,-4.362976551E-1
2.830799557E1,-6.872031838E-3,-3.414636254E-1,-3.471139669E-1
2.832928536E1,-8.139539510E-2,2.632751763E-1,-2.084516287E-1
2.835057516E1,7.805100679E-1,-8.160919547E-1,-9.727742523E-2
2.837186490E1,2.667875290E-1,6.749862432E-1,-1.785201132E-1
2.839315469E1,3.559712470E-1,1.502684206E-1,-4.020902216E-1
2.841444448E1,3.303156495E-1,1.692046970E-1,-3.159607351E-1
2.843573427E1,-4.718795046E-2,2.565558441E-2,-5.871769190E-1
2.845702406E1,3.468085229E-1,-5.803049207E-1,-1.821851879E-1
2.847831385E1,-3.544441164E-1,4.648547769E-1,-4.521796703E-1
2.849960365E1,3.871244490E-1,-3.915531039E-1,2.350234836E-1
2.852089344E1,1.592784226E-1,3.762819171E-1,1.250709742E-1
2.854218318E1,-1.540862173E-1,-1.539335102E-1,-2.970244884E-1
2.856347297E1,1.702736765E-1,-2.993151546E-1,-3.202366829E-1
2.858476276E1,-6.917845458E-2,1.343864016E-2,-1.998997629E-1
2.860605255E1,1.733279079E-1,6.658235192E-2,5.331169367E-1
2.862734234E1,4.016320780E-2,3.084778786E-1,7.469134927E-1
2.864863214E1,9.880454093E-2,-2.681619525E-1,3.321481943E-1
2.866992193E1,-3.880407214E-1,5.497625470E-2,-3.886515796E-1
2.869121172E1,6.826218218E-2,-1.899735034E-1,-5.132644176E-1
2.871250151E1,-6.684195995E-1,3.848337829E-1,-7.050704360E-1
2.873379125E1,4.170559645E-1,-1.367763400E0,-6.734590977E-2
2.875508104E1,-8.352572918E-1,2.345653474E-1,-2.157817930E-1
2.877637083E1,-1.931804419E-1,-2.742704153E-1,4.500417113E-1
2.879766063E1,-5.512896553E-2,6.132906675E-1,3.559712470E-1
2.881895042E1,8.055548072E-1,-1.728697717E-1,5.172349215E-1
2.884024021E1,5.117372870E-1,7.415685654E-1,1.617218107E-1
2.886152995E1,4.561502039E-1,4.117110670E-1,-6.917845458E-2
2.888281974E1,-7.956285775E-2,8.087617755E-1,-3.416163325E-1
2.890410953E1,1.091889441E-1,2.443389036E-3,-1.259872466E-1
2.892539932E1,-3.043546379E-1,-4.520269856E-2,-3.752129376E-1
2.894668912E1,2.307475507E-1,-4.239279926E-1,7.253811508E-2
2.896797891E1,-2.457133085E-1,3.854446113E-1,3.100049868E-2
2.898926865E1,2.246390730E-1,9.773556143E-2,7.597413063E-1
2.901055844E1,-2.096733153E-1,4.966188073E-1,4.720322192E-1
2.903184823E1,-5.573981255E-2,-2.082989216E-1,3.297048211E-1
2.905313802E1,-2.255553454E-1,6.352811456E-1,-8.750387281E-2
2.907442781E1,7.359182239E-1,-3.530697227E-1,-3.629959822E-1
2.909571755E1,2.863346636E-1,6.181774139E-1,-5.132644176E-1
2.911700734E1,7.224795818E-1,-4.917320311E-1,-1.675248593E-1
2.913829714E1,-6.146650314E-1,7.183563709E-1,-5.279247165E-1
2.915958693E1,9.620844387E-3,-5.430431962E-1,-2.750339806E-1
2.918087672E1,-3.031329513E-1,5.998520255E-1,-3.520007432E-1
2.920216646E1,4.341596961E-1,-6.248967648E-1,-1.369825006E-1
2.922345625E1,-6.244385839E-1,3.481829464E-1,-8.364789486E-1
2.924474604E1,-1.052184403E-1,-8.124268651E-1,-5.364766121E-1
2.926603583E1,-3.436015919E-2,4.886777997E-1,-2.060082406E-1
2.928732562E1,1.276518106E0,-5.186093450E-1,2.588465214E-1
2.930861536E1,1.146865711E-1,5.851916671E-1,2.069245130E-1
2.932990516E1,2.875563502E-1,-3.487937748E-1,3.107685447E-1
2.935119495E1,-3.709369898E-1,8.423583508E-1,1.818797737E-1
2.937248474E1,3.950654566E-1,-2.492256761E-1,1.415638477E-1
2.939377453E1,-3.721587062E-1,7.244648337E-1,-3.617742956E-1
2.941506427E1,7.609629631E-1,-7.000309825E-1,-1.327065676E-1
2.943635406E1,-2.237228155E-1,7.293516397E-1,-4.857762754E-1
2.945764385E1,2.515163720E-1,-8.380824327E-1,-2.133384049E-1
2.947893365E1,-7.937196493E-1,5.974085927E-1,-5.590779781E-1
2.950022338E1,3.455868363E-1,-7.867712975E-1,-6.978929788E-2
2.952151318E1,-5.456393361E-1,7.348492742E-1,-3.642176688E-1
2.954280297E1,6.247440577E-1,-5.399889946E-1,9.025268257E-2
2.956409276E1,1.885990947E-1,6.755970716E-1,-1.327065676E-1
2.958538250E1,1.519482583E-1,2.211267054E-1,-2.084516287E-1
2.960667229E1,9.009997360E-3,7.226322889E-1,-9.605573118E-2
2.962796208E1,-2.622061968E-1,-3.054236248E-2,-1.595838517E-1
2.964925188E1,-3.098522723E-1,-3.665083554E-3,1.397313178E-1
2.967054162E1,-7.924979329E-1,3.481829539E-2,-1.064401343E-1
2.969183141E1,7.742489129E-2,9.345962852E-2,4.769189954E-1
2.971312120E1,-8.102125525E-1,9.040539712E-2,-2.420482337E-1
2.973441099E1,7.817317843E-1,-6.474980712E-2,9.924740791E-1
2.975570073E1,-4.497362971E-1,1.521009654E-1,2.521272004E-1
2.977699052E1,5.239542127E-1,5.418215394E-1,8.794673681E-1
2.979828031E1,1.922641695E-1,-2.443389036E-3,8.108997345E-2
2.981957010E1,-6.123743951E-2,1.214975238E0,-4.729484916E-1
2.984085984E1,1.119530320E0,5.821374655E-1,-7.735617161E-1
2.986214964E1,1.074327588E0,1.152668834E0,-9.317711592E-1
2.988343943E1,7.572978735E-1,-5.925218388E-2,-2.359397560E-1
2.990472922E1,5.971032009E-2,1.252236813E-1,5.355603099E-1
2.992601896E1,3.833066672E-2,-4.013266563E-1,9.002361298E-1
2.994730875E1,-2.353289127E-1,-8.857285380E-1,5.777087808E-1
2.996859854E1,2.118112892E-1,-5.748072863E-1,7.689039707E-1
2.998988828E1,1.953184158E-1,-5.754181147E-1,9.936957955E-1
3.001117807E1,2.228065431E-1,-4.330907166E-1,1.064554095E0
3.003246786E1,2.002051920E-1,-1.704263836E-1,7.652388811E-1
3.005375760E1,2.802261710E-1,-3.927747905E-1,5.044071078E-1
3.007504740E1,1.293469071E-1,-1.203369126E-1,3.865135908E-1
3.009633719E1,-2.092151903E-2,-2.345653474E-1,6.039752364E-1
3.011762698E1,-4.564556181E-1,-1.258345395E-1,5.380037427E-1
3.013891672E1,-6.079457402E-1,-3.768927455E-1,7.328640223E-1
3.016020651E1,-2.658712566E-1,-6.786513329E-1,9.900307059E-1
3.018149630E1,-3.947600424E-1,-6.383354068E-1,5.685460567E-1
3.020278604E1,-2.273878902E-1,-6.963659078E-2,5.416688323E-1
3.022407583E1,-5.004366040E-1,-6.597150564E-1,2.832804024E-1
3.024536562E1,-2.646495700E-1,-1.893626526E-2,4.958552718E-1
3.026665537E1,2.570139766E-1,-5.161659122E-1,2.197522968E-1
3.028794516E1,7.426375747E-1,2.706053257E-1,2.783936262E-1
3.030923495E1,1.733279079E-1,1.844758689E-1,-5.146388337E-2
3.033052469E1,3.773508966E-1,6.542174220E-1,-1.175880991E-2
3.035181448E1,8.399149403E-3,-4.385883212E-1,-5.621321797E-1
3.037310427E1,-1.485885978E-1,3.830012381E-1,-5.285356045E-1
3.039439401E1,-1.113269106E-1,-2.834331393E-1,-8.297596574E-1
3.041568380E1,-2.151709497E-1,2.767138183E-1,-1.014235497E0
3.043697359E1,-6.293253899E-1,4.978405237E-1,-7.460735440E-1
3.045826333E1,1.470614821E-1,1.765348613E-1,-4.100312293E-1
3.047955313E1,-3.497100621E-2,5.070032477E-1,-4.069769979E-1
3.050084292E1,1.861557066E-1,4.343124032E-1,-1.156028435E-1
3.052213266E1,1.084712029E0,-3.255815804E-1,-1.247655526E-1
3.054342245E1,2.307475507E-1,4.880669713E-1,-2.444916219E-1
3.056471224E1,4.017847776E-1,-3.292466700E-1,-4.779879749E-2
3.058600198E1,-1.736333370E-1,8.918370306E-2,-3.477247953E-1
3.060729177E1,-1.070509851E-1,-4.721849263E-1,-1.327065676E-1
3.062858151E1,-3.672719002E-1,5.070032179E-2,-4.173613787E-1
3.064987130E1,-7.111788988E-1,2.217375487E-1,-7.191199064E-1
3.067116109E1,8.292251825E-2,2.321219593E-1,-5.468609929E-1
3.069245083E1,3.235963285E-1,-4.795151055E-1,-3.770454824E-1
3.071374063E1,1.275143623E-1,4.856235683E-1,-2.182251811E-1
3.073503042E1,1.250709742E-1,6.218425035E-1,-1.265980899E-1
3.075632016E1,6.398624927E-2,1.036607742E0,-2.585411072E-1
3.077760995E1,-3.855973184E-1,1.266286373E0,-4.405735731E-1
3.079889969E1,-6.103891134E-1,1.723276496E0,-7.087355256E-1
3.082018948E1,-1.606757402E0,3.144107103E0,-1.152897835E0
3.084147927E1,-2.698952198E0,3.768393040E0,-1.474814296E0
3.086276901E1,-2.246314526E0,2.692691088E0,-1.596983790E0
3.088405880E1,-1.999532104E0,3.235734224E0,-1.411286235E0
3.090534854E1,-1.410675406E0,2.927867174E0,-6.433748603E-1
3.092663833E1,-1.264682889E0,2.774544716E0,5.825955868E-1
3.094792812E1,-1.991591096E0,4.276007175E0,3.217637837E-1
3.096921786E1,-1.827884078E0,3.182590485E0,5.593833923E-1
3.099050766E1,-2.209052801E0,2.841737747E0,3.248180151E-1
3.101179740E1,-2.064892769E0,2.329236984E0,1.133579850E0
3.103308719E1,-2.350769281E0,3.627898216E0,1.093263865E0
3.105437693E1,-2.845555544E0,5.067130566E0,1.005912781E0
3.107566672E1,-1.610422492E0,2.028700113E0,1.708997965E0
3.109695651E1,-2.112538815E0,3.772669077E0,1.559951186E0
3.111824625E1,-1.919511199E0,1.794745564E0,1.682120681E0
3.113953604E1,-1.590875387E0,2.422085762E0,1.323553324E0
3.116082578E1,-1.871254206E0,3.054923534E0,8.367080092E-1
3.118211557E1,-9.934667349E-1,1.375627995E0,1.088377118E0
3.120340531E1,-5.444176197E-1,1.536891699E0,-1.420219894E-2
3.122469510E1,1.207950488E-1,-1.233911440E-1,-3.410054743E-1
3.124598484E1,3.968980014E-1,6.542174220E-1,-3.184041381E-1
3.126727464E1,7.090409398E-1,1.618745178E-1,-4.399627447E-1
3.128856443E1,7.670714259E-1,-3.060344756E-1,-8.486959338E-1
3.130985417E1,7.742489129E-2,1.795890927E-1,1.275143623E-1
3.133114396E1,3.877353072E-1,-5.118899941E-1,-5.144860744E-1
3.135243370E1,-7.956285775E-2,-1.808107942E-1,-1.119377613E-1
3.137372349E1,3.344388679E-2,-7.244648337E-1,-2.475458533E-1
3.139501323E1,-6.123743951E-2,9.956810623E-2,4.408790171E-1
3.141630297E1,5.966450572E-1,5.412106514E-1,2.489202656E-2
3.143759276E1,6.833853722E-1,-1.997470558E-1,4.818057716E-1
3.145888255E1,6.314633489E-1,-1.924168915E-1,3.687990308E-1
3.148017229E1,8.244910836E-1,4.642439261E-2,1.036913246E-1
3.150146208E1,-4.718795046E-2,1.254680276E0,2.881672084E-1
3.152275182E1,-8.651887774E-1,6.230642200E-1,1.221541762E0
3.154404162E1,-1.290949345E0,1.289498568E0,2.637332976E-1
3.156533135E1,-7.894437313E-1,1.065317631E0,-1.107160673E-1
3.158662109E1,-8.798491359E-1,2.133154869E0,2.246390730E-1
3.160791089E1,-1.023398280E0,1.988995075E0,6.070294380E-1
3.162920063E1,-7.320240736E-1,2.224171162E0,1.721062213E-1
3.165049042E1,-3.825430870E-1,2.448962927E0,-1.039967462E-1
3.167178016E1,-2.041756958E-1,1.968837023E0,-1.527118147E-4
3.169306995E1,-2.231119573E-1,1.929742813E0,8.597674966E-2
3.171435969E1,-5.242596865E-1,2.260211229E0,8.903098851E-2
3.173564948E1,-6.122216582E-1,1.951733351E0,1.939439960E-2
3.175693922E1,-2.316638231E-1,1.398840189E0,-1.736333370E-1
3.177822901E1,-1.394258887E-1,1.161831498E0,-1.583621502E-1
3.179951875E1,-2.609844804E-1,1.178935170E0,-1.919587553E-1
3.182080849E1,-2.670929730E-1,1.018893242E0,-2.115058601E-1
3.184209828E1,8.399149403E-3,4.172086716E-1,-9.972081333E-2
3.186338802E1,3.388675153E-1,3.182514310E-1,-5.039489828E-3
3.188467781E1,2.258607745E-1,4.337015450E-1,1.030804738E-1
3.190596755E1,-5.635065958E-2,3.506263196E-1,2.918322682E-1
3.192725734E1,-1.217113137E-1,1.123958975E-1,3.553603888E-1
3.194854708E1,-7.773031294E-2,-1.411057115E-1,3.345915973E-1
3.196983682E1,-2.397575416E-2,-1.747023165E-1,2.460187376E-1
3.199112662E1,1.084253844E-2,-2.809897438E-2,2.289150059E-1
3.201241635E1,-9.926267900E-3,1.624853760E-1,2.160872221E-1
3.203370615E1,-3.313846514E-2,2.980934680E-1,2.906105816E-1
3.205499589E1,-1.149920002E-1,5.283828974E-1,3.235963285E-1
3.207628563E1,2.977880463E-2,5.234960914E-1,1.336228400E-1
3.209757542E1,-6.261184346E-3,5.296045542E-1,6.032116711E-2
3.211886516E1,-2.322746664E-1,6.041279435E-1,9.147437662E-2
3.214015490E1,-3.324536085E-1,4.844018817E-1,2.733541466E-2
3.216144469E1,-3.312319219E-1,2.266243398E-1,-2.397575416E-2
3.218273443E1,-2.793098986E-1,1.997470558E-1,-5.390727147E-2
3.220402422E1,-3.558185324E-2,2.901524603E-1,-7.345438004E-2
3.222531396E1,-1.053711493E-2,1.783674061E-1,1.091889441E-1
3.224660370E1,2.344126403E-1,-1.630962193E-1,2.160872221E-1
3.226789349E1,5.606050491E-1,-3.280249834E-1,1.427855492E-1
3.228918323E1,9.002361298E-1,-1.205888867E0,9.513945878E-2
3.231047297E1,1.246586561E0,-2.576019287E0,4.749337584E-2
3.233176276E1,1.474432588E0,-3.983487606E0,1.421747059E-1
3.235305250E1,1.820172071E0,-5.577798843E0,-1.481304597E-2
3.237434224E1,1.958910823E0,-7.095220089E0,-2.884726226E-1
3.239563203E1,2.180648327E0,-8.397546768E0,-7.589013577E-1
3.241692177E1,2.305871964E0,-1.011898994E1,-1.356920838E0
3.243821151E1,2.025493145E0,-9.451945305E0,-1.965935588E0
3.245950130E1,9.521581531E-1,-6.585773468E0,-2.302512407E0
3.248079104E1,-1.345391124E-1,-4.949237347E0,-2.155298233E0
3.250208078E1,2.857238054E-1,-4.842339039E0,-1.573160768E0
3.252337057E1,9.411629438E-1,-3.978600979E0,-7.185090780E-1
3.254466031E1,1.045617819E0,-2.951079369E0,1.293469071E-1
3.256595005E1,1.256360054E0,-2.919315338E0,6.705575585E-1
3.258723984E1,1.562394619E0,-2.903433323E0,8.525900841E-1
3.260852958E1,1.051115394E0,-2.246772528E0,9.210049510E-1
3.262981932E1,-1.577513069E-1,-9.914814830E-1,1.184890985E0
3.265110906E1,-9.562050104E-1,2.962609231E-1,1.514748454E0
3.267239885E1,-6.360446811E-1,1.178935245E-1,1.468934894E0
3.269368859E1,-6.306997687E-2,-3.530697227E-1,9.179506898E-1
3.271497833E1,4.140017331E-1,-3.713951409E-1,5.923691392E-1
3.273626812E1,7.298097610E-1,-4.306473136E-1,7.078192830E-1
3.275755786E1,7.371399403E-1,-3.213056624E-1,8.397622705E-1
3.277884760E1,1.547734261E0,-1.012250304E0,1.031568289E0
3.280013740E1,2.269221306E0,-4.477510452E-1,9.546015263E-1
3.282142714E1,2.216688395E0,-2.448962927E0,-3.684936166E-1
3.284271688E1,1.490314603E0,-2.486148328E-1,-7.521820664E-1
3.286400662E1,3.535278440E-1,-2.877090573E-1,-8.633562326E-1
3.288529635E1,-6.836907864E-1,-5.845808387E-1,-1.079596162E0
3.290658615E1,-8.273162842E-1,-5.796940327E-1,-1.056383967E0
3.292787588E1,-5.462501645E-1,-2.345653474E-1,-6.592568755E-1
3.294916562E1,-4.729484916E-1,1.368297935E-1,-2.237228155E-1
3.297045536E1,-2.047865391E-1,1.716480851E-1,2.008160353E-1
3.299174516E1,-1.235438585E-1,2.602209449E-1,4.469874799E-1
3.301303490E1,1.159082651E-1,6.462764144E-1,5.508314967E-1
3.303432464E1,6.277982593E-1,-7.965448499E-1,5.361711979E-1
3.305561438E1,1.641651988E-1,-1.085551977E0,2.967190444E-1
3.307690417E1,-4.149180055E-1,-2.535016239E-1,7.744016051E-1
3.309819391E1,-4.674508572E-1,9.529217333E-2,1.049893737E0
3.311948365E1,-1.113269106E-1,1.747023165E-1,2.643441558E-1
3.314077338E1,3.955236077E-2,-3.506263196E-1,-8.706864119E-1
3.316206312E1,-6.097782850E-1,5.955760479E-1,-6.238277555E-1
3.318335292E1,-3.880407214E-1,9.517000318E-1,6.534538269E-1
3.320464266E1,1.222152710E0,-4.159869850E-1,1.585606813E0
3.322593240E1,6.479562521E-1,-6.749862432E-1,7.456917763E-1
3.324722214E1,-9.849911928E-2,2.315111160E-1,6.986565590E-1
3.326851188E1,-7.172874212E-1,3.603998944E-2,-3.184041381E-1
3.328980167E1,-6.610894203E-1,1.172826737E-1,-5.963396430E-1
3.331109141E1,-4.143071473E-1,1.282779276E-1,-5.456393361E-1
3.333238115E1,1.751604527E-1,-1.343864016E-2,-5.548020005E-1
3.335367088E1,6.015318632E-1,2.687728032E-2,-8.200624585E-2
3.337496062E1,9.869764447E-1,-3.573456407E-1,-8.811471611E-2
3.339625036E1,1.105480790E0,1.319430023E-1,8.719844371E-2
3.341754010E1,1.387081385E0,5.528167486E-1,5.054761097E-2
3.343882990E1,1.801846743E0,5.693096519E-1,2.611372061E-2
3.346011964E1,1.519024372E0,-4.459185153E-2,8.269344568E-1
3.348140938E1,-5.260922313E-1,2.449497581E-1,6.442911625E-1
3.350269912E1,-8.957311511E-1,-5.027272701E-1,5.441122055E-1
3.352398885E1,-1.546894312E0,1.472141892E-1,-2.334963679E-1
3.354527859E1,-9.873582125E-1,7.635590434E-2,-1.797417998E-1
3.356656833E1,-8.199861050E-1,4.642439261E-2,-8.786274195E-1
3.358785807E1,-1.705790907E-1,-4.349232614E-1,-6.421532035E-1
3.360914787E1,2.441861928E-1,-9.834641218E-2,-4.230117425E-2
3.363043760E1,9.271134138E-1,-5.027272701E-1,5.037962794E-1
3.365172734E1,6.180247068E-1,7.146912813E-2,3.333698809E-1
3.367301708E1,1.605001241E-1,-7.079719901E-1,-8.628217876E-2
3.369430682E1,6.503996253E-1,-4.599680007E-1,2.899997234E-1
3.371559656E1,-1.968455315E-1,-7.317950130E-1,-3.226800561E-1
3.373688630E1,7.803573459E-2,-5.357130170E-1,-1.284306347E-1
3.375817604E1,-4.057552814E-1,-5.045598149E-1,-5.438067913E-1
3.377946578E1,-1.113269106E-1,-6.786513329E-1,-2.365505993E-1
3.380075552E1,-5.329642445E-2,-6.426113248E-1,-2.353289127E-1
3.382204526E1,8.047912270E-2,-4.269822240E-1,1.000262350E-1
3.384333505E1,5.459447503E-1,-1.911951900E-1,1.562241912E-1
3.386462479E1,4.946335554E-1,2.877090573E-1,-1.559187621E-1
3.388591453E1,1.817270555E-2,-1.899735034E-1,-5.541911721E-1
3.390720427E1,-2.542651594E-1,-3.316900730E-1,-3.947600424E-1
3.392849401E1,-6.299362183E-1,1.472141892E-1,-6.696413159E-1
3.394978375E1,-1.211004704E-1,-6.047387794E-2,-9.696436524E-1
3.397107349E1,3.009949923E-1,1.154501289E-1,-1.198100567E0
3.399236323E1,-2.432699203E-1,9.107732773E-1,-1.008127093E0
3.401365297E1,8.684720993E-1,-5.509842038E-1,1.776038408E-1
3.403494271E1,-2.200577259E-1,-1.252236813E-1,2.655658424E-1
3.405623245E1,5.971032009E-2,-6.719319820E-1,3.138227761E-1
3.407752219E1,-2.945810854E-1,5.100574493E-1,-2.738122940E-1
3.409881193E1,6.852179170E-1,-1.710372418E-2,-2.170034945E-1
3.412010167E1,7.114843726E-1,1.783674061E-1,-2.848075330E-1
3.414139141E1,3.278722763E-1,-1.368297935E-1,-7.101099193E-2
3.416268115E1,4.268295169E-1,-1.667613089E-1,3.303156495E-1
3.418397088E1,-5.376983285E-1,3.335226178E-1,2.466295809E-1
3.420526062E1,5.543438718E-2,4.275930673E-2,3.590254784E-1
3.422655036E1,-1.754658818E-1,-2.620534599E-1,-2.005106062E-1
3.424784010E1,1.122584581E0,4.886778072E-2,1.476723254E-1
3.426912984E1,1.855448484E-1,-1.612636745E-1,2.820587158E-1
3.429041958E1,5.318952799E-1,1.136175916E-1,8.538117409E-1
3.431170932E1,4.017847776E-1,-1.047679424E0,5.538857579E-1
3.433299906E1,5.465555787E-1,1.527118087E-1,4.292729199E-1
3.435428880E1,7.481352091E-1,-6.658235192E-2,2.221956849E-1
3.437557854E1,1.478708506E0,-1.099525020E-2,6.154286116E-2
3.439686828E1,8.141067028E-1,-3.054236248E-2,-1.632489264E-1
3.441815802E1,-1.614163816E-1,-1.343864016E-2,-3.727695346E-1
3.443944776E1,-1.110138535E0,-2.877090573E-1,-4.338542521E-1
3.446073750E1,-7.124006152E-1,-2.669402659E-1,3.100049868E-2
3.448202724E1,-4.955498278E-1,2.993151546E-2,3.859027624E-1
3.450331698E1,5.184566379E-1,1.655396074E-1,1.482831687E-1
3.452460672E1,1.953184158E-1,6.059604883E-1,-1.992889196E-1
3.454589646E1,1.757712960E-1,2.706053257E-1,1.177408099E-1
3.456718620E1,9.130639434E-1,-4.330907166E-1,1.045006990E0
3.458847594E1,7.499676943E-1,-4.471401870E-1,7.627955079E-1
3.460976568E1,-4.448495209E-1,-4.776825607E-1,9.880454093E-2
3.463105536E1,-7.772268057E-1,-1.244983077E0,1.023169141E-2
3.465234510E1,-7.851678133E-1,-8.038749695E-1,-3.862081766E-1
3.467363484E1,-4.650074840E-1,-5.699204803E-1,-5.047125220E-1
3.469492458E1,-6.604785919E-1,-3.927747905E-1,-1.766875684E-1
3.471621432E1,-3.141281903E-1,-1.130067408E-1,-1.009425074E-1
3.473750406E1,-1.247655526E-1,-4.984513521E-1,2.166980654E-1
3.475879380E1,-2.756448388E-1,8.918370306E-2,5.215108395E-1
3.478008354E1,2.802261710E-1,8.185353130E-2,2.305948362E-2
3.480137328E1,-5.144860744E-1,4.001049399E-1,-5.328115225E-1
3.482266302E1,-2.457133085E-1,-2.278460264E-1,-5.193728805E-1
3.484395276E1,-3.666610718E-1,-2.107423097E-1,-3.898732662E-1
3.486524245E1,-4.662291706E-1,3.060344756E-1,2.183778957E-2
3.488653219E1,7.701256871E-1,4.740174711E-1,6.717792749E-1
3.490782193E1,5.166240931E-1,6.884248853E-1,4.133908749E-1
3.492911167E1,9.155073166E-1,5.858024955E-1,1.104106456E-1
3.495040141E1,3.174878657E-1,-9.162709117E-2,-3.458922505E-1
3.497169115E1,-1.412584335E-1,5.143333673E-1,-5.132644176E-1
3.499298088E1,2.673983872E-1,-6.743753552E-1,-5.725166202E-1
3.501427062E1,-5.407525301E-1,3.701734245E-1,-9.415447116E-1
3.503556031E1,2.625116110E-1,-1.184509158E0,-7.466844320E-1
3.505685005E1,-6.934643388E-1,2.205158621E-1,-8.590803146E-1
3.507813979E1,-2.615953386E-1,-6.511631608E-1,-4.906630516E-1
3.509942953E1,-9.055047035E-1,9.773556143E-2,-6.855233312E-1
3.512071927E1,-2.151709497E-1,-4.227063060E-1,-3.935383558E-1
3.514200901E1,-2.316638231E-1,-3.316900730E-1,-4.474456236E-2
3.516329875E1,4.016320780E-2,1.856975704E-1,3.242071867E-1
3.518458844E1,3.681881726E-1,-2.846548259E-1,-1.595838517E-1
3.520587818E1,4.524851143E-1,3.597890437E-1,-3.923166394E-1
3.522716792E1,8.104416132E-1,-2.657185495E-1,-3.061871827E-1
3.524845766E1,1.580567211E-1,5.705313683E-1,-4.963133857E-2
3.526974734E1,-5.085303262E-2,-6.963659078E-2,2.441861928E-1
3.529103708E1,2.710634768E-1,7.574506104E-2,1.788255423E-1
3.531232682E1,5.734328628E-1,-1.301104724E-1,-1.559187621E-1
3.533361656E1,1.342336833E-1,3.616215885E-1,-5.700731874E-1
3.535490630E1,-1.119377613E-1,-5.601469278E-1,-7.282826304E-1
3.537619599E1,-1.143735170E0,5.497625470E-2,-7.735617161E-1
3.539748573E1,-2.377723008E-1,1.673721522E-1,-5.635065958E-2
3.541877547E1,2.637332976E-1,-7.550072074E-1,-2.945810854E-1
3.544006521E1,1.511846948E-2,6.102364063E-1,-1.901262105E-1
3.546135495E1,2.649549842E-1,-5.454866290E-1,-1.015533581E-1
3.548264464E1,-2.255553454E-1,2.064663768E-1,-1.302631795E-1
3.550393438E1,7.255338430E-1,5.277720094E-1,5.147915483E-1
3.552522412E1,2.313583940E-1,2.706053257E-1,5.080721974E-1
3.554651385E1,2.649549842E-1,3.811686933E-1,7.353073955E-1
3.556780354E1,-4.173613787E-1,4.446968138E-1,-3.252761811E-2
3.558909328E1,6.675033569E-1,1.514901221E-1,3.107685447E-1
3.561038302E1,6.093201414E-2,3.500154912E-1,-2.353289127E-1
3.563167276E1,3.156553209E-1,4.666872919E-1,1.354553849E-1
3.565296245E1,1.910424829E-1,2.168507725E-1,1.195733473E-1
3.567425219E1,3.761292100E-1,2.260134816E-1,2.386885732E-1
3.569554193E1,-1.980672181E-1,8.124268651E-1,-1.968455315E-1
3.571683167E1,-5.945070982E-1,-1.184509158E0,-7.162184268E-2
3.573812135E1,-2.670929730E-1,-2.565558441E-2,6.826218218E-2
3.575941109E1,-5.877877474E-1,-5.405998230E-1,1.360662282E-1
3.578070083E1,-1.931804419E-1,-6.420004964E-1,4.482091665E-1
3.580199052E1,-8.053257465E-1,-1.539335102E-1,-2.336490713E-2
3.582328026E1,-5.853443742E-1,1.563768983E-1,2.264716178E-1
3.584457000E1,-3.910949528E-1,-5.344913602E-1,-3.924693540E-2
3.586585974E1,2.942756712E-1,1.026223376E-1,-6.917845458E-2
3.588714943E1,-2.365505993E-1,-4.471401870E-1,-4.992149174E-1
3.590843917E1,-3.666610718E-1,1.906530619E0,-1.992889196E-1
3.592972891E1,7.805100679E-1,-6.047387719E-1,3.064926267E-1
3.595101859E1,6.284091473E-1,1.248571754E0,3.889569938E-1
3.597230833E1,1.026070714E0,-1.863084137E-1,4.610369802E-1
3.599359807E1,-5.085303262E-2,5.112791657E-1,6.826218218E-2
3.601488776E1,-3.116848171E-1,6.108472589E-3,-1.748550236E-1
3.603617750E1,-2.463241518E-1,-6.462764144E-1,2.794626169E-2
3.605746724E1,-7.863894701E-1,-9.040539712E-2,-3.654393852E-1
3.607875693E1,-5.688515306E-1,-1.434345722E0,-5.572454333E-1
3.610004667E1,-1.326989293E0,6.273401380E-1,-6.390989423E-1
3.612133641E1,-3.819322586E-1,-1.195504427E0,-2.397575416E-2
3.614262609E1,-6.195518374E-1,8.936695457E-1,1.287360638E-1
3.616391583E1,7.273663878E-1,-9.633061290E-1,7.072083950E-1
3.618520552E1,1.433505774E0,9.559759498E-1,1.096318126E0
3.620649526E1,1.126249671E0,-4.153761268E-2,9.301676750E-1
3.622778500E1,9.222266674E-1,1.304158926E0,8.440381885E-1
3.624907469E1,4.897467792E-1,-2.816005945E-1,4.109475017E-1
3.627036443E1,5.514423847E-1,1.046992183E0,8.373188972E-1
3.629165412E1,1.097997949E-1,-3.255815804E-1,4.640912116E-1
3.631294385E1,-2.615953386E-1,8.301414251E-1,-3.465031087E-1
3.633423359E1,2.916795574E-2,-1.203369126E-1,-7.821135521E-1
3.635552328E1,-1.937913001E-1,-3.689517379E-1,-6.409314871E-1
3.637681302E1,-3.465031087E-1,-2.021904439E-1,-6.928535104E-1
3.639810271E1,1.714953631E-1,-8.576295376E-1,-6.562026739E-1
3.641939245E1,-3.953709006E-1,-6.780404598E-2,-6.794148684E-1
3.644068219E1,-1.571404636E-1,-7.287407517E-1,1.721062213E-1
3.646197188E1,-3.520007432E-1,-4.593571424E-1,5.734328628E-1
3.648326162E1,1.568350345E-1,-5.326588154E-1,5.074613690E-1
3.650455130E1,-2.519745007E-2,2.082989216E-1,-4.107947648E-2
3.652584104E1,7.059867382E-1,-2.156290859E-1,-2.702999115E-2
3.654713073E1,1.947075576E-1,1.619356036E0,-4.352286831E-2
3.656842047E1,-6.184828654E-2,2.064663768E-1,9.636115283E-2
3.658971016E1,4.335488379E-1,8.771766424E-1,2.692309320E-1
3.661099990E1,1.086544514E0,-2.021904439E-1,5.282301903E-1
3.663228964E1,-3.935383558E-1,1.568044901E0,-1.754658818E-1
3.665357932E1,3.272614181E-1,-2.675510943E-1,-2.756448388E-1
3.667486901E1,-1.525514722E0,-1.924168915E-1,-9.604809880E-1
3.669615875E1,-5.566345453E-1,-7.879929543E-1,-1.272089481E-1
3.671744849E1,-4.784461260E-1,-1.137473941E0,8.536590636E-2
3.673873818E1,-1.394793391E0,-5.882459283E-1,7.314895838E-2
3.676002792E1,-1.277510643E0,-1.598663688E0,-2.939702570E-1
3.678131760E1,-1.122355461E0,2.816005945E-1,-2.506000996E-1
3.680260734E1,-2.458660305E-2,-8.417475224E-1,4.146125913E-1
3.682389703E1,1.684411317E-1,9.840749502E-1,1.149461865E0
3.684518677E1,1.077381849E0,-6.572716236E-1,1.319888234E0
3.686647646E1,3.639122546E-1,7.837170362E-1,7.774558663E-1
3.688776620E1,9.949174523E-1,6.444438696E-1,6.589514613E-1
3.690905588E1,5.105155706E-1,-2.577775419E-1,2.122694254E-2
3.693034562E1,1.079825282E0,8.887827396E-1,4.207210541E-1
3.695163531E1,-4.107947648E-2,1.343863904E-1,-1.045388699E0
3.697292500E1,5.037962794E-1,-4.801259339E-1,-1.036226034E0
3.699421474E1,-2.615953386E-1,-3.005368412E-1,-1.460764885E0
3.701550443E1,-6.001574174E-2,-1.160075307E0,-8.407548666E-1
3.703679417E1,-1.797417998E-1,-2.632751763E-1,-5.268557742E-2
3.705808385E1,-5.737382770E-1,-1.144193292E0,-1.143811494E-1
3.707937359E1,-1.025841594E0,3.213056624E-1,-1.992889196E-1
3.710066328E1,7.742489129E-2,-9.510892034E-1,6.948387623E-2
3.712195302E1,2.643441558E-1,7.647807598E-1,6.276455522E-2
3.714324271E1,1.118308663E0,-2.254026383E-1,2.290677279E-3
3.716453240E1,4.176668227E-1,1.759316444E0,-1.534753740E-1
3.718582214E1,1.250251651E0,8.234221339E-1,4.677563012E-1
3.720711182E1,1.153126955E0,1.331647038E0,9.552124143E-1
3.722840151E1,9.087880254E-1,1.451373100E0,1.224596024E0
3.724969125E1,8.231166750E-2,-9.345962852E-2,8.666395545E-1
3.727098094E1,-3.141281903E-1,5.589252710E-1,3.413109183E-1
3.729227068E1,-1.001407743E0,-9.303203821E-1,-5.390727147E-2
3.731356036E1,-1.207263231E0,1.655396074E-1,-8.963419795E-1
3.733485010E1,-9.537616372E-1,-2.063518286E0,-7.821135521E-1
3.735613979E1,-1.714877367E0,-7.189671993E-1,-1.049053788E0
3.737742948E1,-9.226084352E-1,-1.640812039E0,-6.134433746E-1
3.739871917E1,-3.275668323E-1,-4.007157981E-1,-6.245913357E-2
3.742000891E1,2.521272004E-1,-3.298575282E-1,8.116632700E-1
3.744129859E1,5.477772951E-1,7.971556783E-1,1.376697063E0
3.746258833E1,8.079982400E-1,3.151971996E-1,1.564837933E0
3.748387802E1,4.494308829E-1,1.580872655E0,1.137244940E0
3.750516771E1,1.180004239E0,-1.478250325E-1,5.526640415E-1
3.752645745E1,4.518742561E-1,1.719611406E0,-3.037438095E-1
3.754774714E1,5.233433843E-1,-9.584193230E-1,-3.752129376E-1
3.756903682E1,-6.653653979E-1,-2.119639963E-1,-1.428389907E0
3.759032656E1,-1.067379236E0,-1.497873783E0,-1.499248266E0
3.761161625E1,-8.010498285E-1,-9.669712186E-1,-1.392960787E0
3.763290594E1,-4.631749392E-1,-1.463666439E0,-8.260945678E-1
3.765419562E1,-3.293993771E-1,-9.236010313E-1,-4.350759685E-1
3.767548536E1,-4.301891923E-1,-6.627692580E-1,-1.345391124E-1
3.769677505E1,-4.405735731E-1,6.224533319E-1,-5.329642445E-2
3.771806474E1,7.695148587E-1,-5.198310018E-1,3.993414044E-1
3.773935448E1,3.975088596E-1,9.278770089E-1,3.449759781E-1
3.776064417E1,7.982246280E-1,3.646758199E-1,4.982986450E-1
3.778193385E1,8.055548072E-1,1.368908763E0,1.690519750E-1
3.780322354E1,1.060889006E0,1.142284393E0,1.885990947E-1
3.782451328E1,6.864396334E-1,8.331956863E-1,3.504736125E-1
3.784580297E1,8.399149403E-3,6.615476012E-1,4.170559645E-1
3.786709266E1,-6.916317940E-1,3.487937748E-1,4.243861437E-1
3.788838240E1,-3.361186981E-1,-3.603998721E-1,3.675773442E-1
3.790967208E1,-1.931804419E-1,-4.587462842E-1,-3.924693540E-2
3.793096177E1,-1.242081523E0,-7.751652002E-1,-3.917058110E-1
3.795225146E1,-9.525399208E-1,-1.516810060E0,-1.113269106E-1
3.797354115E1,-1.499859095E0,-6.963658929E-1,-9.116895497E-2
3.799483088E1,-6.030589342E-1,-3.268032968E-1,3.504736125E-1
3.801612057E1,-3.629959822E-1,5.680879578E-2,1.021183848E0
3.803741026E1,4.506525695E-1,3.555130959E-1,1.183058381E0
3.805869995E1,6.009209752E-1,3.787252903E-1,8.837432861E-1
3.807998964E1,8.141067028E-1,1.367686987E0,4.708105326E-1
3.810127938E1,5.477772951E-1,1.710372418E-2,1.837123185E-1
3.812256906E1,6.265766025E-1,1.164274931E0,-1.626380831E-1
3.814385875E1,1.139688253E0,-1.613934755E0,-7.466844320E-1
3.816514844E1,-1.029506683E0,1.041494608E0,-1.270791411E0
3.818643812E1,-3.965925872E-1,-9.309312105E-1,-8.395332098E-1
3.820772786E1,-8.670213223E-1,-1.944403172E0,-8.926768899E-1
3.822901755E1,-1.110749364E0,-3.530697227E-1,-1.370359421E0
3.825030724E1,-4.718795046E-2,-2.325571775E0,-1.061270714E0
3.827159693E1,-2.713688910E-1,5.650337338E-1,-6.036698222E-1
3.829288662E1,1.104106456E-1,-9.884272218E-1,-8.017370105E-2
3.831417630E1,-1.107160673E-1,1.123958945E0,3.260397315E-1
3.833546599E1,-3.098522723E-1,1.783674061E-1,3.529170156E-1
3.835675568E1,8.660287261E-1,1.383569002E0,1.431673288E0
3.837804542E1,1.318055630E0,1.344474792E0,1.290567517E0
3.839933510E1,1.754200578E0,1.276059866E0,1.294232607E0
3.842062479E1,1.179393291E0,8.777875304E-1,4.225535989E-1
3.844191448E1,-2.420482337E-1,9.168817401E-1,-4.558447599E-1
3.846320417E1,-6.995728016E-1,-1.026223376E-1,-7.595121861E-1
3.848449385E1,-2.628170252E-1,-9.077190161E-1,-9.384904504E-1
3.850578354E1,-1.155952096E0,-1.328669190E0,-9.409338236E-1
3.852707323E1,-8.731297851E-1,-9.718579650E-1,-4.094203711E-1
3.854836292E1,-1.527347207E0,-1.131976366E0,-6.171084642E-1
3.856965260E1,-1.163893104E0,-7.207997888E-2,2.771719396E-1
3.859094229E1,-4.191939235E-1,9.101624042E-2,1.005301833E0
3.861223198E1,8.257128000E-1,-7.525638342E-1,1.401741743E0
3.863352167E1,6.363501549E-1,1.698231697E0,7.554653287E-1
3.865481135E1,1.162289619E0,-4.514161348E-1,-8.322793990E-2
3.867610104E1,5.349494815E-1,3.127537966E-1,-5.425850749E-1
3.869739073E1,4.268295169E-1,3.445178568E-1,-2.469350100E-1
3.871868042E1,9.513945878E-2,2.241809368E-1,1.293469071E-1
3.873997010E1,3.547495604E-1,-8.979454637E-1,5.514423847E-1
3.876125979E1,-4.149180055E-1,6.920899153E-1,-6.415423155E-1
3.878254948E1,3.222219273E-2,-1.722665668E0,-1.049053788E0
3.880383917E1,-9.824714661E-1,1.035386086E0,-1.438163519E0
3.882512885E1,3.602471650E-1,-1.791080475E0,-7.087355256E-1
3.884641854E1,-6.397097707E-1,9.822424054E-1,-5.444176197E-1
3.886770818E1,1.831014603E-1,-6.230642200E-1,-2.641914412E-2
3.888899786E1,-5.818320066E-2,-5.057815313E-1,-2.670929730E-1
3.891028755E1,-9.922450185E-1,1.248571754E0,-7.007945180E-1
3.893157724E1,5.019637346E-1,-1.328058243E0,-1.669140160E-1
3.895286693E1,-1.534753740E-1,1.257734537E0,-2.829749882E-1
3.897415662E1,5.398362875E-1,-8.527427912E-1,4.909684956E-1
3.899544630E1,1.977618039E-1,1.561936498E0,6.430694461E-1
3.901673594E1,5.343386531E-1,-9.407047927E-2,8.379297256E-1
3.903802562E1,3.174878657E-1,1.371962905E0,8.605310917E-1
3.905931531E1,1.251473308E0,-1.122813582E0,6.113054156E-1
3.908060500E1,2.240282297E-1,2.859452486E0,6.168029904E-1
3.910189469E1,5.679352283E-1,-1.593165994E0,9.008470178E-1
3.912318432E1,-1.807115316E0,1.499019146E0,7.346965671E-1
3.914447401E1,-4.442386627E-1,-1.857662916E0,9.362761378E-1
3.916576370E1,-7.595121861E-1,1.205201626E0,-3.497100621E-2
3.918705339E1,2.672456764E-2,-1.254756570E0,-9.262735248E-1
3.920834302E1,-1.183440208E0,6.737645268E-1,-1.462597370E0
3.922963271E1,-4.057552814E-1,-2.073292017E0,-1.047221303E0
3.925092240E1,-1.104030013E0,2.480039895E-1,-4.265241027E-1
3.927221203E1,-6.244385839E-1,-7.403468490E-1,1.159082651E-1
3.929350172E1,-3.025220931E-1,6.084038615E-1,6.632274389E-1
3.931479141E1,6.449019909E-1,6.291726977E-2,1.042563558E0
3.933608104E1,1.752368093E0,3.561239541E-1,8.751913905E-1
3.935737073E1,1.219709277E0,1.215586066E-1,2.166980654E-1
3.937866042E1,8.513683677E-1,9.242119193E-1,-8.811471611E-2
3.939995005E1,-1.198711395E0,1.899735034E-1,-1.045388699E0
3.942123974E1,-4.149180055E-1,1.086697221E0,-4.167505503E-1
3.944252938E1,-1.693574041E-1,-1.627373457E0,-3.642176688E-1
3.946381906E1,-7.154548764E-1,4.349232614E-1,2.338017821E-1
3.948510875E1,-2.029540092E-1,-1.013471961E0,6.003101468E-1
3.950639839E1,-7.839460969E-1,5.460974574E-1,4.469874799E-1
3.952768807E1,4.805840850E-1,-1.273692846E0,5.251759291E-1
3.954897771E1,3.474193811E-1,3.946073353E-1,2.747285664E-1
3.957026740E1,1.099372387E0,-4.312581718E-1,2.997733057E-1
3.959155703E1,4.946335554E-1,3.603998721E-1,-4.230117425E-2
3.961284672E1,2.325800955E-1,3.787253052E-2,-2.060082406E-1
3.963413635E1,4.262186885E-1,-4.813476503E-1,-8.322793990E-2
3.965542604E1,-5.163186193E-1,3.726168275E-1,-3.758237660E-1
3.967671568E1,-2.701472044E-1,-1.136175916E-1,-3.941491842E-1
3.969800536E1,-1.009425074E-1,1.863084137E-1,-2.841966748E-1
3.971929500E1,3.730749488E-1,-1.777565479E-1,-2.108950168E-1
3.974058469E1,2.099787444E-1,-1.136175916E-1,-2.072299272E-1
3.976187432E1,-4.289674759E-1,-3.359659761E-2,-4.894413650E-1
3.978316396E1,5.092939138E-1,2.571666837E-1,8.292251825E-2
3.980445365E1,2.338017821E-1,1.943792343E0,-1.815743446E-1
3.982574328E1,9.546015263E-1,2.437280566E-1,3.468085229E-1
3.984703297E1,1.572931744E-2,1.235743999E0,-2.780882120E-1
3.986832260E1,1.061499834E0,-1.144193292E0,6.581879407E-2
3.988961224E1,-2.732014358E-1,1.880264163E0,-1.937913001E-1
3.991090193E1,1.228261113E0,-1.216884136E0,3.071034551E-1
3.993219156E1,-4.912739098E-1,9.058864713E-1,-4.155288339E-1
3.995348120E1,-2.041756958E-1,-8.979454637E-1,-5.254813433E-1
3.997477089E1,-1.152287006E0,2.247917950E-1,-8.627454042E-1
3.999606052E1,-2.512109280E-1,-6.755970716E-1,-5.207473040E-2
4.001735016E1,4.231644273E-1,-1.502684206E-1,2.893888950E-1
4.003863979E1,-2.548760176E-1,2.706053257E-1,-3.680354729E-2
4.005992948E1,-4.527905285E-1,6.682668924E-1,-3.049654961E-1
4.008121912E1,-3.680354729E-2,1.022558331E0,-4.112529159E-1
4.010250875E1,1.273463845E0,-5.583143830E-1,3.352024257E-1
4.012379838E1,-3.990359604E-1,-2.993151546E-2,-4.442386627E-1
4.014508802E1,-5.370874405E-1,-9.089407325E-1,-1.510319859E-1
4.016637771E1,-7.424085140E-1,-1.685938388E-1,2.221956849E-1
4.018766734E1,-3.898732662E-1,-6.303943992E-1,3.771981969E-2
4.020895698E1,1.023169141E-2,-1.533226669E-1,4.634803534E-1
4.023024662E1,4.811949134E-1,-7.574506104E-2,5.086830258E-1
4.025153625E1,3.620797098E-1,4.227063060E-1,2.961082160E-1
4.027282588E1,5.115845799E-2,-3.793361485E-1,-3.776563108E-1
4.029411557E1,-3.680354729E-2,1.508792788E-1,-3.037438095E-1
4.031540521E1,3.303156495E-1,-3.432961702E-1,-1.815743446E-1
4.033669484E1,1.085781008E-1,9.565867782E-1,-2.817533016E-1
4.035798448E1,2.160872221E-1,1.747023165E-1,1.476723254E-1
4.037927412E1,4.097257853E-1,1.356080920E-1,6.003101468E-1
4.040056375E1,-3.202366829E-1,-5.351021886E-1,2.967190444E-1
4.042185339E1,-3.336753249E-1,-9.773556143E-2,2.356343269E-1
4.044314302E1,8.353336155E-2,-1.102044821E0,4.127800465E-1
4.046443266E1,5.380037427E-1,1.236965656E0,2.478512824E-1
4.048572229E1,-9.972081333E-2,-1.033629894E0,-3.886515796E-1
4.050701193E1,6.948387623E-2,1.209477559E-1,-1.003316641E-1
4.052830156E1,-5.486935377E-1,-6.529957056E-1,-4.967715442E-1
4.054959120E1,-4.253024161E-1,7.696675509E-2,-2.896943092E-1
4.057088083E1,-1.840177327E-1,-6.719320081E-3,-3.680354729E-2
4.059217047E1,6.632274389E-1,-4.795151055E-1,5.068505406E-1
4.061346005E1,-2.310529798E-1,5.674771070E-1,1.238492802E-1
4.063474969E1,-3.342861533E-1,4.740174711E-1,-2.890834510E-1
4.065603932E1,3.649812192E-2,-6.377245188E-1,-1.760767251E-1
4.067732896E1,5.337277651E-1,-1.221694518E-2,1.745496094E-1
4.069861859E1,3.064926267E-1,1.563768983E-1,1.939439960E-2
4.071990823E1,3.095468581E-1,1.062874198E0,3.602471650E-1
4.074119787E1,2.356343269E-1,6.273401380E-1,2.912214398E-1
4.076248745E1,9.827005267E-1,-2.351761907E-1,5.056288242E-1
4.078377708E1,-3.941491842E-1,-1.313321590E-1,-3.037438095E-1
4.080506672E1,2.428117767E-2,-5.766398311E-1,-1.589729935E-1
4.082635635E1,-4.063661397E-1,7.953231335E-1,-3.092414141E-1
4.084764594E1,-3.252761811E-2,-3.713951409E-1,-7.467607409E-2
4.086893557E1,6.601731777E-1,-6.597150564E-1,5.996993184E-1
4.089022521E1,-2.689255178E-1,3.683409095E-1,4.787515402E-1
4.091151484E1,-3.446705639E-1,-2.205158621E-1,2.997733057E-1
4.093280443E1,-5.664080977E-1,7.024743557E-1,-5.181511641E-1
4.095409406E1,2.557922900E-1,-8.674030900E-1,-3.947600424E-1
4.097538370E1,-2.939702570E-1,3.439069986E-1,-4.900522232E-1
4.099667328E1,-5.572454333E-1,3.390202224E-1,-3.752129376E-1
4.101796292E1,-7.406523079E-2,-6.273401380E-1,1.763821393E-1
4.103925255E1,-8.322793990E-2,-6.291726977E-2,3.040492237E-1
4.106054214E1,-2.127275616E-1,-7.458444834E-1,2.460187376E-1
4.108183177E1,-6.665870547E-1,-3.622324169E-1,-3.764346242E-1
4.110312141E1,-9.476531744E-1,4.294256270E-1,-3.208475113E-1
4.112441099E1,1.837123185E-1,1.588202864E-1,1.635543555E-1
4.114570062E1,6.076403260E-1,3.103103936E-1,3.052709103E-1
4.116699021E1,8.312104344E-1,2.046338320E-1,1.878355257E-2
4.118827984E1,-7.711946964E-2,1.203369126E-1,-3.465031087E-1
4.120956943E1,-5.879404768E-2,1.221694518E-3,-3.361186981E-1
4.123085906E1,-4.352286831E-2,-1.210775614E0,-1.320957243E-1
4.125214865E1,-5.034908652E-1,1.693344951E0,-2.519745007E-2
4.127343828E1,4.993676394E-2,3.701734245E-1,1.446180940E-1
4.129472787E1,1.690519750E-1,3.323009014E-1,3.639122546E-1
4.131601750E1,6.485670805E-1,5.228852630E-1,3.193204105E-1
4.133730708E1,1.487260342E0,-1.098990560E0,5.673243999E-1
4.135859672E1,6.467345357E-1,3.341334462E-1,-5.818320066E-2
4.137988630E1,-7.834116369E-2,-4.117110670E-1,-3.067980409E-1
4.140117594E1,-3.080197275E-1,1.472141892E-1,-3.770454824E-1
4.142246552E1,3.283303976E-2,-2.443388999E-1,7.788302377E-3
4.144375510E1,6.826218218E-2,-1.795890927E-1,-1.766875684E-1
4.146504474E1,-7.148439884E-1,7.653915882E-1,-5.560237169E-1
4.148633432E1,-1.479777545E-1,-2.425063550E-1,-1.803526580E-1
4.150762396E1,2.069245130E-1,-1.692046970E-1,-1.284306347E-1
4.152891354E1,3.527642787E-2,-3.103103936E-1,-3.837648034E-1
4.155020312E1,-4.350759685E-1,9.223793745E-1,-4.020902216E-1
4.157149276E1,5.257867575E-1,-7.611156702E-1,2.948864996E-1
4.159278234E1,6.901046634E-1,8.350282311E-1,2.936648130E-1
4.161407193E1,7.585195899E-1,-5.485408306E-1,3.405473381E-2
4.163536151E1,-8.523610234E-1,2.382304370E-1,-3.776563108E-1
4.165665115E1,3.771981969E-2,-1.138695598E0,-2.371614426E-1
4.167794073E1,-8.053257465E-1,1.114185452E0,-6.476507783E-1
4.169923031E1,1.605001241E-1,8.209787011E-1,-1.705790907E-1
4.172051995E1,9.900307059E-1,-2.852656841E-1,1.495048702E-1
4.174180953E1,1.892099380E-1,4.960079789E-1,-1.626380831E-1
4.176309912E1,4.714213610E-1,-6.389462352E-1,9.208522737E-2
4.178438870E1,-2.615953386E-1,1.048213840E0,8.536590636E-2
4.180567833E1,-6.311579347E-1,-5.906893015E-1,2.893888950E-1
4.182696792E1,-1.287284255E0,1.028055906E0,-1.192679256E-1
4.184825750E1,-4.735593498E-1,-3.720059693E-1,1.281252056E-1
4.186954708E1,-2.762556672E-1,-5.277720094E-1,-8.933641016E-2
4.189083667E1,-1.919587553E-1,-7.879929990E-2,-4.753918648E-1
4.191212630E1,-1.473668963E-1,-7.030851841E-1,-7.223268598E-2
4.193341588E1,-1.374635458E0,9.956810474E-1,-3.593308926E-1
4.195470547E1,3.455868363E-1,-5.992411375E-1,4.085040987E-1
4.197599505E1,2.386885732E-1,-1.386623234E-1,5.838172436E-1
4.199728464E1,4.188885093E-1,2.418955117E-1,7.988355160E-1
4.201857422E1,2.290677279E-3,3.420744836E-2,4.311054647E-1
4.203986380E1,-1.992889196E-1,7.165238261E-1,1.055238619E-1
4.206115344E1,3.773508966E-1,-1.138084769E0,-8.093725890E-3
4.208244302E1,4.123218823E-3,1.215586066E0,-5.207473040E-2
4.210373260E1,-1.675248593E-1,3.830012381E-1,-1.198787764E-1
4.212502219E1,-4.143071473E-1,2.272351831E-1,3.083251417E-1
4.214631177E1,3.761292100E-1,-2.589992285E-1,7.670714259E-1
4.216760135E1,2.124221325E-1,-6.108472589E-4,7.786775231E-1
4.218889094E1,9.680401683E-1,-4.935645759E-1,7.090409398E-1
4.221018052E1,-7.301915288E-1,9.828532338E-1,-3.947600424E-1
4.223147010E1,-2.396048307E-1,-6.389462352E-1,-2.548760176E-1
4.225275969E1,-2.481566966E-1,-1.252236813E-1,-3.843756318E-1
4.227404927E1,-1.394258887E-1,5.253286287E-2,-3.019112647E-1
4.229533885E1,-4.772244096E-1,5.253286362E-1,-3.184041381E-1
4.231662849E1,1.470614821E-1,-1.826433241E-1,-1.565296054E-1
4.233791807E1,-3.862081766E-1,2.363978922E-1,-4.405735731E-1
4.235920766E1,-9.605573118E-2,-1.637070626E-1,-4.692834020E-1
4.238049724E1,-3.746020794E-1,1.991362125E-1,-5.193728805E-1
4.240178682E1,-4.802786708E-1,5.167768002E-1,-1.046075895E-1
4.242307641E1,3.461976945E-1,6.676560640E-1,-9.849911928E-2
4.244436599E1,8.025006056E-1,1.064706802E0,4.701996744E-1
4.246565557E1,9.619317055E-1,5.680879354E-1,3.150444627E-1
4.248694510E1,9.020686746E-1,-3.976615667E-1,2.733541466E-2
4.250823474E1,-1.149232745E0,7.812736630E-1,-1.120522976E0
4.252952432E1,-4.625640810E-1,-1.267584443E0,-6.604785919E-1
