"Time (s)","Acceleration x (m/s^2)","Acceleration y (m/s^2)","Acceleration z (m/s^2)"
0.000000000E0,-4.416851521E0,4.144668102E0,7.507182121E0
2.139026100E-2,-4.043272018E0,3.799802303E0,7.978867054E0
4.267802100E-2,-4.246662140E0,3.845266104E0,8.383553505E0
6.396744800E-2,-4.160520554E0,3.783052683E0,8.591729164E0
8.525692700E-2,-4.016951084E0,3.792623997E0,8.464909554E0
1.065463550E-1,-3.487838030E0,3.773481369E0,8.455337524E0
1.278358340E-1,-2.965903759E0,3.751945972E0,8.450551987E0
1.491252610E-1,-2.807977438E0,3.565006733E0,8.464909554E0
1.704147400E-1,-2.927618504E0,3.533900023E0,8.563014984E0
1.917041670E-1,-3.061616659E0,3.543471336E0,8.457730293E0
2.129936460E-1,-3.337090254E0,3.792623997E0,8.424231529E0
2.342830730E-1,-2.851048231E0,3.732803345E0,7.873582840E0
2.555725520E-1,-2.621337175E0,3.596412420E0,7.301399231E0
2.768620320E-1,-2.204686880E0,3.972085476E0,8.800203323E0
2.981514590E-1,-2.070688963E0,3.804588079E0,9.001200676E0
3.194409380E-1,-2.522932291E0,4.065405846E0,9.037093163E0
3.407304170E-1,-2.494218588E0,4.144668102E0,8.326125145E0
3.620198440E-1,-2.800798893E0,4.505984306E0,8.862417221E0
3.833093230E-1,-3.054438114E0,4.367200375E0,9.484849930E0
4.045988020E-1,-3.243770123E0,4.168596268E0,9.573384285E0
4.258882300E-1,-3.516551971E0,4.283451557E0,9.523135185E0
4.471777090E-1,-3.191128016E0,4.283451557E0,9.336494446E0
4.684671880E-1,-2.781656265E0,4.137190342E0,8.594121933E0
4.897566150E-1,-2.774477959E0,4.352843285E0,8.067401886E0
5.110460940E-1,-2.709871531E0,4.295415878E0,7.806583881E0
5.323355730E-1,-2.848655462E0,4.264308929E0,7.880761147E0
5.536250520E-1,-3.080759048E0,4.209274292E0,8.189435959E0
5.749145320E-1,-2.932404041E0,4.046263218E0,8.223234177E0
5.962039590E-1,-2.748156786E0,4.019941807E0,8.551051140E0
6.174934380E-1,-2.827120066E0,3.938585997E0,8.467302322E0
6.387829170E-1,-3.150151014E0,4.079762459E0,8.429017067E0
6.600723960E-1,-2.973082066E0,4.063013077E0,8.297411919E0
6.813618750E-1,-2.714657307E0,4.079762459E0,8.187042236E0
7.026513550E-1,-2.817548752E0,4.166203499E0,7.856832981E0
7.239407820E-1,-3.054438114E0,4.249952316E0,7.962117195E0
7.452302610E-1,-3.083152056E0,4.271487713E0,8.452944756E0
7.665197400E-1,-2.891726255E0,4.247559071E0,8.848059654E0
7.878092190E-1,-2.973082066E0,4.094119549E0,8.862417221E0
8.090986980E-1,-2.932404041E0,4.048655987E0,8.907880783E0
8.303881770E-1,-2.997010469E0,4.127619267E0,8.991629601E0
8.516776570E-1,-2.860619545E0,4.182952881E0,8.838488579E0
8.729671360E-1,-2.522932291E0,4.264308929E0,8.574978828E0
8.942566150E-1,-2.314756870E0,4.257130623E0,8.304590225E0
9.155460940E-1,-2.331506491E0,4.242773533E0,8.268697739E0
9.368355730E-1,-2.566003084E0,4.235595226E0,8.452944756E0
9.581250520E-1,-2.621337175E0,4.223630905E0,8.756834030E0
9.794145320E-1,-2.499004126E0,4.180560112E0,8.783453941E0
1.000704011E0,-2.467897415E0,4.082155228E0,8.637192726E0
1.021993542E0,-2.595016241E0,4.113262177E0,8.457730293E0
1.043283021E0,-2.657229662E0,4.185346127E0,8.541479111E0
1.064572500E0,-2.796013355E0,4.134797573E0,8.515158653E0
1.085861980E0,-2.834298372E0,4.096512318E0,8.407481194E0
1.107151459E0,-2.788834810E0,4.084548473E0,8.359624863E0
1.128440990E0,-2.784049034E0,4.137190342E0,8.417053223E0
1.149730469E0,-2.762513638E0,4.089334011E0,8.699405670E0
1.171019948E0,-2.769692183E0,4.060619831E0,8.732905388E0
1.192309480E0,-2.922832966E0,4.173381805E0,8.632407188E0
1.213598959E0,-2.709871531E0,4.115654945E0,8.546265602E0
1.234888438E0,-2.755335331E0,4.053441525E0,8.601300240E0
1.256177969E0,-2.874976397E0,4.063013077E0,8.673085213E0
1.277467448E0,-2.803191662E0,4.007977962E0,8.790632248E0
1.298756980E0,-2.705085993E0,4.017549038E0,8.704191208E0
1.320046459E0,-2.712264538E0,4.130012035E0,8.421838760E0
1.341335990E0,-2.681157827E0,4.089334011E0,8.350053787E0
1.362625469E0,-2.736192703E0,3.996013880E0,8.503194809E0
1.383915000E0,-2.786442041E0,3.895515203E0,8.670691490E0
1.405204480E0,-2.829512835E0,3.943371773E0,8.804988861E0
1.426494011E0,-2.738585472E0,4.034298897E0,8.812167168E0
1.447783542E0,-2.410469770E0,4.012763500E0,8.639585495E0
1.469073021E0,-2.458326101E0,3.998406649E0,8.409873962E0
1.490362552E0,-2.638087034E0,4.036691666E0,8.393124580E0
1.511652084E0,-2.714657307E0,4.029513359E0,8.687441826E0
1.532941615E0,-2.577967405E0,3.957728624E0,8.974879265E0
1.554231146E0,-2.475075960E0,3.962514400E0,8.989236832E0
1.575520677E0,-2.348256350E0,3.936193228E0,8.491230011E0
1.596810157E0,-2.465504646E0,4.034298897E0,8.302197456E0
1.618099688E0,-2.439183474E0,3.981656790E0,8.433802605E0
1.639389219E0,-2.549253464E0,3.962514400E0,8.685049057E0
1.660678750E0,-2.642872572E0,3.967299938E0,8.601300240E0
1.681968282E0,-2.702693224E0,3.960121393E0,8.362017632E0
1.703257813E0,-2.604587555E0,4.063013077E0,8.433802605E0
1.724547396E0,-2.554039001E0,3.897907972E0,8.776275635E0
1.745836927E0,-2.762513638E0,3.907479286E0,8.838488579E0
1.767126459E0,-2.688336134E0,3.850051641E0,9.053842545E0
1.788415990E0,-2.506182671E0,3.859622955E0,8.919844627E0
1.809705521E0,-2.499004126E0,3.960121393E0,8.670691490E0
1.830995052E0,-2.475075960E0,4.012763500E0,8.529515266E0
1.852284636E0,-2.338685036E0,3.838087559E0,8.584549904E0
1.873574167E0,-2.508575439E0,3.873979807E0,8.809774399E0
1.894863698E0,-2.556432009E0,3.940979004E0,8.819346428E0
1.916153282E0,-2.369791746E0,3.871587038E0,8.833703041E0
1.937442813E0,-2.384148598E0,3.929014683E0,8.747262001E0
1.958732396E0,-2.604587555E0,3.926621914E0,8.369195938E0
1.980021927E0,-2.556432009E0,3.919443607E0,8.108079910E0
2.001311459E0,-2.484647274E0,3.962514400E0,8.132007599E0
2.022601042E0,-2.558824778E0,4.027120590E0,7.959724426E0
2.043890625E0,-2.855833769E0,4.247559071E0,7.837690353E0
2.065180157E0,-2.690729141E0,3.792623997E0,7.808976650E0
2.086469740E0,-3.016152859E0,3.696911097E0,6.173781395E0
2.107759271E0,-2.772084951E0,3.893122435E0,8.570193291E0
2.129048855E0,-2.906083107E0,3.732803345E0,8.589336395E0
2.150338438E0,-3.085544825E0,4.012763500E0,9.573384285E0
2.171627969E0,-4.237090588E0,4.733601570E0,9.887143135E0
2.192917552E0,-3.583550930E0,4.460520744E0,9.269196510E0
2.214207136E0,-1.991426587E0,3.096013308E0,9.056235313E0
2.235496719E0,8.359923959E-1,9.340981245E-1,1.250608730E1
2.256786250E0,1.845464408E-1,2.260320187E0,9.444171906E0
2.278075834E0,4.193421602E-1,2.267498493E0,8.122436523E0
2.299365417E0,1.999502420E0,8.168498278E-1,7.947760582E0
2.320655000E0,2.844467878E0,1.271187067E-1,7.847261906E0
2.341944584E0,1.841277003E0,4.767699242E-1,7.844869137E0
2.363234167E0,9.675976634E-1,1.465603828E0,1.042313576E1
2.384523750E0,4.648058116E-1,2.253141642E0,1.173051357E1
2.405813334E0,-1.504487246E-1,1.080060363E0,1.189083290E1
2.427102865E0,-1.074676514E0,1.822134495E0,1.087567806E1
2.448392448E0,-5.742774606E-1,2.636292458E0,8.242376328E0
2.469682032E0,-1.120140076E0,3.002394199E0,9.159127235E0
2.490971615E0,-2.405683994E0,4.034298897E0,9.309874535E0
2.512261250E0,-5.886343718E-1,2.755933523E0,7.179365158E0
2.533550834E0,4.097708762E-1,2.509472847E0,8.771489143E0
2.554840417E0,-8.662018180E-1,2.892324448E0,1.200090313E1
2.576130000E0,-1.737787485E0,1.084846020E0,1.072014427E1
2.597419584E0,-5.154139996E0,4.357629299E0,7.564609528E0
2.618709167E0,-3.835096598E0,4.163810730E0,9.082556725E0
2.639998750E0,-2.484647274E0,4.214059830E0,1.074407291E1
2.661288334E0,-1.225424290E0,3.148655415E0,1.091635609E1
2.682577969E0,-2.731407166E0,4.675874710E0,9.848558426E0
2.703867552E0,-2.372184515E0,5.604887962E0,8.740083694E0
2.725157136E0,-2.546860695E0,4.891527653E0,8.167900085E0
2.746446719E0,-1.242174029E0,3.964907169E0,9.252447128E0
2.767736302E0,-2.326720953E0,6.021538258E0,1.146221828E1
2.789025938E0,-1.555932879E0,5.921039581E0,1.095703411E1
2.810315521E0,-2.242972136E0,4.324129581E0,1.129711437E1
2.831605105E0,-2.654836655E0,2.954537868E0,1.315962696E1
2.852894740E0,-1.402493119E0,2.229213476E0,1.285813141E1
2.874184323E0,-1.246959686E0,2.150250196E0,1.272413349E1
2.895473907E0,-1.084247708E0,1.269093275E0,1.226919842E1
2.916763490E0,-1.301994562E0,2.147857428E0,1.042552853E1
2.938053125E0,-1.323530078E0,2.609971285E0,7.509574890E0
2.959342709E0,-6.909275055E-2,3.155833960E0,4.845166683E0
2.980632344E0,3.371187925E0,3.040978432E0,3.272184849E0
3.001921927E0,2.430210590E0,2.700898647E0,4.828117847E0
3.023211511E0,-3.035893738E-1,3.349652529E0,6.621538639E0
3.044501146E0,-3.756731451E-1,3.043371201E0,8.093722343E0
3.065790730E0,7.304090858E-1,2.901895761E0,7.296613693E0
3.087080365E0,2.456531525E0,3.227618694E0,7.547860146E0
3.108369948E0,2.569293261E0,2.305783749E0,8.347661018E0
3.129659584E0,1.649851203E0,2.930609465E0,9.482457161E0
3.150949167E0,2.028216362E0,3.060121059E0,8.737690926E0
3.172238750E0,3.220440149E0,3.129513025E0,7.614859104E0
3.193528386E0,3.890729666E0,3.502793312E0,8.440980911E0
3.214817969E0,3.167798042E0,3.775874138E0,9.230911255E0
3.236107605E0,2.042573214E0,4.216452599E0,8.481658936E0
3.257397188E0,1.968395710E0,4.477270126E0,8.467302322E0
3.278686823E0,2.897109985E0,4.501198292E0,9.027522087E0
3.299976407E0,3.668197155E0,4.003192425E0,9.669096947E0
3.321266042E0,3.337688446E0,3.751945972E0,9.175876617E0
3.342555625E0,2.892324448E0,3.651447296E0,9.101698875E0
3.363845261E0,2.765504837E0,3.330509901E0,1.137846947E1
3.385134844E0,3.285046339E0,3.251546860E0,1.330828094E1
3.406424480E0,3.651447296E0,3.167798042E0,1.043509960E1
3.427714115E0,3.716053486E0,2.913859844E0,7.547860146E0
3.449003698E0,2.916252613E0,2.538186550E0,7.966903210E0
3.470293334E0,2.267498493E0,2.143071890E0,9.199805260E0
3.491582917E0,2.123929262E0,2.432603359E0,9.233304024E0
3.512872552E0,3.502793312E0,2.389532566E0,8.613264084E0
3.534162136E0,3.277868032E0,2.459223509E0,7.787441254E0
3.555451771E0,1.508674622E0,2.758326292E0,7.222435951E0
3.576741355E0,5.748756528E-1,3.328117132E0,6.836892605E0
3.598030990E0,1.039382339E0,3.462115288E0,6.305386543E0
3.619320625E0,2.210070848E0,3.454936743E0,7.186543941E0
3.640610209E0,2.353640079E0,3.586841106E0,8.201698303E0
3.661899844E0,1.341177106E0,4.015156269E0,7.856832981E0
3.683189427E0,1.168594718E0,4.556233406E0,7.289434910E0
3.704479063E0,2.260320187E0,4.570590496E0,7.363612652E0
3.725768698E0,3.230011463E0,4.321736813E0,8.754440308E0
3.747058282E0,3.864408493E0,4.288237095E0,9.719346046E0
3.768347917E0,3.289832115E0,4.281058788E0,9.676275253E0
3.789637500E0,1.034596682E0,4.929812908E0,9.029914856E0
3.810927136E0,-3.080759197E-2,4.980062008E0,9.273982048E0
3.832216771E0,2.518445849E-1,3.945764542E0,1.219023514E1
3.853506355E0,8.623134494E-1,3.873979807E0,1.292991638E1
3.874795990E0,-2.150549293E-1,4.300201416E0,1.058136082E1
3.896085625E0,-5.096712112E-1,2.906681299E0,9.096913338E0
3.917375209E0,-5.431707501E-1,1.932503343E0,1.130429268E1
3.938664844E0,-1.435992718E0,1.999502420E0,1.305912876E1
3.959954427E0,-1.278066397E0,1.427318692E0,1.043270683E1
3.981244063E0,-1.986641049E0,1.580459356E0,7.342077255E0
4.002533698E0,-7.627122104E-2,1.463211060E0,7.025925636E0
4.023823282E0,2.037787676E0,-1.432702541E-1,7.018746853E0
4.045112917E0,3.905086517E0,-1.211067319E0,8.273483276E0
4.066402552E0,1.518245935E0,-7.106683254E-1,1.141436195E1
4.087692136E0,-5.479564071E-1,-1.600200087E-1,1.275045490E1
4.108981771E0,-5.455635786E-1,5.653043389E-1,1.163001537E1
4.130271355E0,6.346961856E-1,3.714857101E-1,9.693025589E0
4.151560990E0,6.801598072E-1,3.044866920E-1,9.688240051E0
4.172850625E0,-5.473581702E-2,6.442674994E-1,9.025128365E0
4.194140209E0,1.031904742E-1,8.144569993E-1,8.091329575E0
4.215429844E0,7.477570791E-3,4.480560422E-1,9.532706261E0
4.236719480E0,7.785646915E-1,2.781656384E-1,9.925428391E0
4.258009063E0,2.207378894E-1,-1.169492081E-1,1.182144070E1
4.279298698E0,-1.012463093E0,-9.311071038E-1,1.124207878E1
4.300588334E0,-1.364207983E0,-6.508477330E-1,1.034417248E1
4.321877917E0,-9.981061220E-1,9.197412133E-1,9.681061745E0
4.343167552E0,-5.647061467E-1,8.431708813E-1,1.213759327E1
4.364457136E0,-4.163511395E-1,2.422732860E-2,1.093789101E1
4.385746771E0,-2.820539773E-1,-1.182353497E0,1.047846985E1
4.407036407E0,-2.171187401E0,-1.967498422E0,1.349492168E1
4.428325990E0,-2.558824778E0,-1.294816136E0,1.393789291E1
4.449615625E0,-9.167501926E-1,-1.086640596E0,1.265922832E1
4.470905261E0,1.290628672E0,-5.575276613E-1,1.005942631E1
4.492194844E0,1.249950767E0,-3.798605874E-2,8.033902168E0
4.513484480E0,3.068794906E-1,7.423732281E-1,6.583253384E0
4.534774115E0,-5.216353536E-1,1.328913927E0,5.637490273E0
4.556063698E0,-7.154539824E-1,1.118345499E0,6.549753666E0
4.577353334E0,-6.699903607E-1,1.242772222E0,6.970890522E0
4.598642969E0,-3.493520916E-1,1.635494232E0,7.868797302E0
4.619932552E0,-3.370888829E-1,2.169392824E0,7.844869137E0
4.641222188E0,-6.340979934E-1,1.826920033E0,7.571788311E0
4.662511771E0,-8.279166222E-1,2.167000055E0,8.833703041E0
4.683801407E0,6.490531564E-2,2.468794823E0,1.010249710E1
4.705091042E0,3.882354796E-1,2.303390980E0,1.115593719E1
4.726380625E0,-1.983051747E-1,2.377568483E0,1.201047421E1
4.747670261E0,-9.478568435E-1,2.662613392E0,1.180947685E1
4.768959896E0,-1.919641972E0,3.011965513E0,1.193629646E1
4.790249480E0,-1.938784599E0,3.466900826E0,1.289641666E1
4.811539115E0,-1.005284667E0,3.335295677E0,1.241516018E1
4.832828698E0,-8.733802438E-1,3.256332397E0,1.079192924E1
4.854118334E0,-2.073081732E0,3.902693748E0,9.218947411E0
4.875407969E0,-2.544467688E0,3.893122435E0,9.326923370E0
4.896697552E0,-2.860619545E0,3.230011463E0,9.690632820E0
4.917987188E0,-2.772084951E0,2.923431158E0,1.020060253E1
4.939276823E0,-2.360220432E0,2.801397085E0,1.045932674E1
4.960566407E0,-9.717850685E-1,2.842075109E0,9.353244781E0
4.981856042E0,9.628120065E-1,2.492722988E0,7.526324749E0
5.003145677E0,1.453639746E0,2.176571369E0,6.781857491E0
5.024435261E0,6.705885530E-1,1.980359793E0,6.492026806E0
5.045724896E0,-1.313061416E-1,1.846062660E0,8.012366295E0
5.067014480E0,-5.712864175E-2,1.901396751E0,8.785846710E0
5.088304115E0,3.690928817E-1,2.001895189E0,8.143971443E0
5.109593698E0,7.710871100E-1,2.425424814E0,7.025925636E0
5.130883334E0,2.255235314E-1,2.760719061E0,6.487241268E0
5.152172969E0,-5.072783828E-1,3.096013308E0,7.344470024E0
5.173462552E0,-2.054836452E-1,3.153441191E0,8.498408318E0
5.194752188E0,1.677966863E-1,2.815753937E0,9.297910690E0
5.216041771E0,-4.259224236E-1,2.897109985E0,9.080163956E0
5.237331407E0,-1.220638633E0,2.911466837E0,9.128020287E0
5.258621042E0,-1.816750646E0,2.550150633E0,1.072253704E1
5.279910625E0,-1.931606054E0,2.446960211E0,1.274327564E1
5.301200261E0,-1.474576950E0,2.722434044E0,1.264247799E1
5.322489844E0,-7.369893789E-1,2.214856386E0,1.124925709E1
5.343779480E0,-8.518448472E-1,2.571686029E0,1.095703411E1
5.365069063E0,-1.110568762E0,2.423032045E0,1.171137142E1
5.386358698E0,-1.577468276E0,2.507079840E0,1.240798187E1
5.407648334E0,-5.312066078E-1,1.977967024E0,1.192672539E1
5.428937917E0,6.275177598E-1,1.654636860E0,1.045214844E1
5.450227552E0,6.969096065E-1,1.635494232E0,9.764810562E0
5.471517136E0,5.030909777E-1,1.628315806E0,9.156734467E0
5.492806771E0,1.127617657E-1,1.611566067E0,9.238089561E0
5.514096355E0,-6.245267391E-1,1.779063582E0,8.704191208E0
5.535385990E0,-8.494520187E-1,2.269891262E0,7.208079338E0
5.556675625E0,-6.364908218E-1,2.887538671E0,5.434100151E0
5.577965209E0,-6.269195080E-1,3.258725405E0,4.703691006E0
5.599254844E0,-9.358927608E-1,3.270689487E0,6.135496140E0
5.620544427E0,-7.369893789E-1,3.383152008E0,6.688537598E0
5.641834063E0,-1.863410622E-1,3.397509098E0,7.232007504E0
5.663123646E0,-4.498506486E-1,3.608376503E0,8.333304405E0
5.684413282E0,-3.613162339E-1,3.230011463E0,8.977272034E0
5.705702865E0,-7.130611539E-1,2.875574589E0,1.003789139E1
5.726992500E0,-1.821536183E0,3.081656456E0,1.103151035E1
5.748282084E0,-2.369791746E0,3.189333439E0,1.131386375E1
5.769571719E0,-2.544467688E0,3.332902908E0,1.183819103E1
5.790861302E0,-2.295614243E0,3.024228811E0,1.255394363E1
5.812150938E0,-2.764906645E0,3.232404232E0,1.190040398E1
5.833440521E0,-3.126222849E0,3.311367512E0,1.126122189E1
5.854730157E0,-2.534896374E0,2.755933523E0,1.073210907E1
5.876019740E0,-2.901297569E0,2.531008244E0,1.058853912E1
5.897309375E0,-3.449553013E0,2.648256540E0,1.010728264E1
5.918598959E0,-2.393719912E0,2.248355865E0,9.688240051E0
5.939888594E0,-1.419242978E0,2.016252279E0,9.762416840E0
5.961178177E0,-7.848458290E-1,1.534995675E0,9.975677490E0
5.982467813E0,-1.336989701E-1,1.410568953E0,9.539884567E0
6.003757396E0,-1.169492081E-1,1.733600020E0,8.931808472E0
6.025047032E0,-1.241276711E-1,1.918146491E0,8.167900085E0
6.046336615E0,7.208377868E-2,2.367997169E0,7.334898949E0
6.067626250E0,-2.437688112E-1,2.844467878E0,6.872784615E0
6.088915834E0,-6.580262184E-1,3.117548704E0,6.777071953E0
6.110205469E0,-6.317051649E-1,3.500400543E0,6.154638767E0
6.131495052E0,-9.526425004E-1,3.938585997E0,7.102795124E0
6.152784688E0,-1.668395638E0,3.723232031E0,8.134400368E0
6.174074271E0,-2.058724880E0,3.677768469E0,8.412266731E0
6.195363907E0,-1.895713687E0,3.634697676E0,8.689834595E0
6.216653490E0,-1.366600871E0,3.411865950E0,1.050000477E1
6.237943125E0,-8.781659007E-1,3.007179976E0,1.174487114E1
6.259232709E0,-3.924229145E-1,2.626721144E0,1.227398396E1
6.280522344E0,-8.446664214E-1,3.170190811E0,1.222373486E1
6.301811927E0,1.821536273E-1,2.928216696E0,1.197218895E1
6.323101511E0,9.939187169E-1,2.111965179E0,1.137607670E1
6.344391146E0,-6.879365072E-3,1.410568953E0,1.237926769E1
6.365680730E0,-1.134497046E0,1.328913927E0,1.263290691E1
6.386970365E0,-4.139583111E-1,1.283450246E0,1.055264664E1
6.408259948E0,1.053739309E0,1.697707653E0,8.093722343E0
6.429549584E0,1.293021560E0,2.016252279E0,7.643871784E0
6.450839167E0,1.151545867E-1,1.906182289E0,8.208877563E0
6.472128750E0,-4.498506486E-1,1.980359793E0,8.596514702E0
6.493418386E0,-3.131606579E-1,2.181356907E0,7.631608486E0
6.514707969E0,-5.473581702E-2,2.533401012E0,6.238387585E0
6.535997605E0,-5.096712112E-1,2.930609465E0,5.522634506E0
6.557287188E0,-9.837492108E-1,3.251546860E0,5.840879917E0
6.578576771E0,-9.574281573E-1,3.414258718E0,6.195316792E0
6.599866407E0,-5.431707501E-1,3.720839262E0,6.820142746E0
6.621155990E0,1.965105534E-1,3.780659676E0,7.385148048E0
6.642445625E0,5.605186820E-1,3.392723322E0,8.788239479E0
6.663735209E0,1.989033818E-1,3.275475025E0,1.016949654E1
6.685024792E0,-4.163511395E-1,3.361616611E0,1.070578766E1
6.706314427E0,-1.017248750E0,3.620340586E0,1.030827999E1
6.727604011E0,-1.129711390E0,3.943371773E0,9.803094864E0
6.748893646E0,-1.158425212E0,4.115654945E0,1.045932674E1
6.770183230E0,-9.287142754E-1,3.823730469E0,1.144786167E1
6.791472813E0,-6.293123364E-1,3.483650684E0,1.161087322E1
6.812762448E0,-8.159525394E-1,3.026621580E0,1.218066406E1
6.834052032E0,-1.316351533E0,2.595614433E0,1.292752361E1
6.855341667E0,-1.685145378E0,1.575673699E0,1.194347477E1
6.876631250E0,-1.811964989E0,1.590030670E0,8.991629601E0
6.897920834E0,1.438684613E-1,1.858026743E0,7.665407181E0
6.919210469E0,7.710871100E-1,1.635494232E0,6.757929325E0
6.940500052E0,3.714857101E-1,7.040880919E-1,8.335697174E0
6.961789636E0,-3.996013701E-1,6.777670383E-1,9.346066475E0
6.983079271E0,4.289134443E-1,5.365904570E-1,8.443373680E0
7.004368855E0,1.245165110E0,9.149555564E-1,8.915059090E0
7.025658490E0,6.442674994E-1,1.029811025E0,8.812167168E0
7.046948073E0,-6.317051649E-1,1.372283816E0,8.630014420E0
7.068237657E0,-6.915257573E-1,1.791027784E0,8.378767967E0
7.089527292E0,-4.115654826E-1,2.679363251E0,8.656334877E0
7.110816875E0,-2.174477577E-1,2.856431961E0,8.065009117E0
7.132106459E0,3.332005441E-1,2.770290375E0,8.362017632E0
7.153396094E0,9.840483218E-2,2.753540754E0,1.098814106E1
7.174685677E0,-1.062712312E0,2.315355062E0,1.174247837E1
7.195975261E0,-1.811964989E0,1.618744493E0,1.110090256E1
7.217264896E0,4.959124923E-1,8.192426562E-1,1.075364399E1
7.238554480E0,1.872383714E0,1.942074656E0,1.349492168E1
7.259844063E0,1.721635938E0,1.963610053E0,1.307348537E1
7.281133698E0,2.911466837E0,-1.220638633E0,1.037049294E1
7.302423282E0,5.246263742E-1,1.111167073E0,1.059571743E1
7.323712865E0,-1.333101273E0,3.619144112E-2,1.122532940E1
7.345002448E0,-1.821536183E0,-5.838487148E-1,1.316441250E1
7.366292084E0,-1.576271951E-1,-9.550353289E-1,1.212293720E1
7.387581667E0,1.640279889E0,-5.527420044E-1,1.046411228E1
7.408871250E0,9.197412133E-1,-6.604190469E-1,9.973284721E0
7.430160886E0,-1.026820064E0,9.870393202E-3,1.189322567E1
7.451450469E0,-2.126621157E-1,1.869392693E-1,1.010967541E1
7.472740052E0,6.610172391E-1,4.767699242E-1,8.574978828E0
7.494029688E0,8.623134494E-1,9.149555564E-1,7.117151737E0
7.515319271E0,1.127617657E-1,1.597209096E0,5.687739372E0
7.536608855E0,-1.791625917E-1,2.248355865E0,5.828916073E0
7.557898490E0,1.077667475E0,2.741576433E0,5.757131100E0
7.579188073E0,3.282653570E0,2.401496649E0,6.197709560E0
7.600477657E0,5.578567028E0,3.179762125E0,3.844368696E0
7.621767240E0,4.302594185E0,3.050549746E0,4.459623337E0
7.643056875E0,3.811766386E0,3.249154091E0,6.769893646E0
7.664346459E0,3.287439108E0,2.954537868E0,1.016231823E1
7.685636042E0,4.355236530E0,2.231606245E0,1.042074299E1
7.706925677E0,5.590530872E0,1.508674622E0,8.328517914E0
7.728215261E0,3.931407690E0,2.425424814E0,1.077517986E1
7.749504844E0,3.201297522E0,2.526222467E0,1.037767220E1
7.770794427E0,4.058227062E0,1.769492388E0,9.673882484E0
7.792084063E0,5.178666592E0,8.862416744E-1,1.020538902E1
7.813373646E0,3.682554007E0,-9.780662507E-2,1.223569870E1
7.834663230E0,2.674577475E0,-8.805587292E-1,1.486660671E1
7.855952813E0,3.009572744E0,-9.044869542E-1,1.143350506E1
7.877242448E0,5.200201988E0,-9.574281573E-1,6.432206154E0
7.898532032E0,5.090131760E0,-1.749751568E0,6.463313103E0
7.919821615E0,3.589233875E0,-1.677966833E0,9.755238533E0
7.941111250E0,5.267499924E0,-1.553540111E0,1.127797127E1
7.962400834E0,6.198606968E0,-8.494520187E-1,9.647562027E0
7.983690417E0,4.510769844E0,-1.600200087E-1,5.740381718E0
8.004980000E0,3.730410576E0,2.662015148E-2,4.313661098E0
8.026269636E0,3.871587038E0,-1.313061416E-1,5.931807518E0
8.047559219E0,4.328915119E0,-1.097707376E-1,8.151150703E0
8.068848802E0,5.885147095E0,1.226321608E-2,8.115258217E0
8.090138386E0,6.615257263E0,-4.755735025E-2,7.047461033E0
8.111428021E0,5.516353607E0,-4.402793646E-1,8.958129883E0
8.132717605E0,4.575376034E0,-5.599204898E-1,1.163240814E1
8.154007188E0,5.303392410E0,-9.789635539E-1,1.279352570E1
8.175296771E0,5.204987526E0,-8.901300430E-1,1.232901859E1
8.196586407E0,5.025525570E0,-7.489534616E-1,1.084696388E1
8.217875990E0,4.908277512E0,-8.494520187E-1,1.051436138E1
8.239165573E0,5.619245052E0,-1.151246786E0,9.336494446E0
8.260455157E0,6.045466423E0,-1.553540111E0,8.261519432E0
8.281744740E0,5.468497276E0,-1.476969719E0,8.266304970E0
8.303034375E0,4.939383984E0,-1.156032443E0,9.427422523E0
8.324323959E0,5.892325878E0,-1.955534339E0,9.429815292E0
8.345613542E0,6.059823513E0,-2.259721994E0,6.667002201E0
8.366903177E0,5.255236626E0,-2.056331873E0,3.609572887E0
8.388192761E0,3.890729666E0,-1.459920883E0,2.484348059E0
8.409482344E0,4.398307323E0,-1.469492197E0,2.912962437E0
8.430771927E0,5.123631477E0,-1.258923769E0,2.563311338E0
8.452061511E0,4.592125893E0,-1.069890857E0,2.972783089E0
8.473351094E0,4.074976921E0,-8.350951076E-1,4.019044876E0
8.494640730E0,4.757529736E0,-6.340979934E-1,2.977568626E0
8.515930313E0,5.834897995E0,-7.034898400E-1,3.281756163E0
8.537219896E0,6.081358910E0,-6.795616150E-1,6.159424782E0
8.558509480E0,7.469794273E0,-4.331009090E-1,8.732905388E0
8.579799115E0,9.162417412E0,-2.841476910E-2,8.886344910E0
8.601088698E0,9.021240234E0,2.303091735E-1,8.744869232E0
8.622378282E0,8.010870934E0,4.935196638E-1,9.755238533E0
8.643667865E0,7.199405193E0,1.013061285E0,1.030827999E1
8.664957448E0,7.309474945E0,1.053739309E0,9.322137833E0
8.686247084E0,8.020442009E0,9.556335211E-1,9.163912773E0
8.707536667E0,8.307880402E0,7.375875711E-1,8.869595528E0
8.728826250E0,8.714959145E0,4.480560422E-1,8.548658371E0
8.750115834E0,9.766006470E0,-8.159525394E-1,8.146365166E0
8.771405417E0,9.282357216E0,-2.343470573E0,7.363612652E0
8.792695052E0,7.802695751E0,-2.120938063E0,8.555836678E0
8.813984636E0,7.989335537E0,-2.683550596E0,9.781559944E0
8.835274219E0,7.843373299E0,-3.521337509E0,9.290732384E0
8.856563802E0,6.895217419E0,-3.727419376E0,7.732406139E0
8.877853386E0,6.064609051E0,-3.578765392E0,6.178566933E0
8.899142969E0,6.045466423E0,-3.337090254E0,5.539384365E0
8.920432605E0,5.887540340E0,-3.073580742E0,5.551348686E0
8.941722188E0,5.858826160E0,-2.760120869E0,5.474778175E0
8.963011771E0,5.473282814E0,-2.374577284E0,4.746761799E0
8.984301355E0,5.379962444E0,-2.223829508E0,4.148257256E0
9.005590938E0,5.277071476E0,-2.154437780E0,3.556930780E0
9.026880573E0,5.861218929E0,-2.309971094E0,2.845963478E0
9.048170157E0,6.622435570E0,-2.513360977E0,2.383849621E0
9.069459740E0,5.997610092E0,-2.740978241E0,2.529811859E0
9.090749323E0,5.573781013E0,-3.258127213E0,3.513859987E0
9.112038907E0,5.655137062E0,-3.516551971E0,3.308077335E0
9.133328490E0,6.557829380E0,-3.823132277E0,2.209173441E0
9.154618073E0,7.549056530E0,-4.229912281E0,2.419741869E0
9.175907709E0,8.118846893E0,-5.034498692E0,3.209971666E0
9.197197292E0,8.585447311E0,-5.702395439E0,3.779762506E0
9.218486875E0,9.066703796E0,-6.142973900E0,3.418147087E0
9.239776459E0,9.701101303E0,-6.863512516E0,2.398206472E0
9.261066042E0,9.916754723E0,-7.938488007E0,1.241874933E0
9.282355625E0,9.425926208E0,-8.141878128E0,1.093519926E0
9.303645209E0,8.317451477E0,-7.368697166E0,1.778166294E0
9.324934792E0,8.537590981E0,-7.794919014E0,2.795714140E0
9.346224427E0,1.018953609E1,-8.745168686E0,3.324826956E0
9.367514011E0,1.156869888E1,-8.436494827E0,3.193221807E0
9.388803594E0,1.146580791E1,-7.371089935E0,2.472383976E0
9.410093177E0,9.521639824E0,-5.891428471E0,1.531705618E0
9.431382761E0,7.283154011E0,-4.876572609E0,6.314060688E-1
9.452672344E0,5.837290764E0,-4.263411522E0,-3.430709541E-1
9.473961927E0,5.597709656E0,-4.222733974E0,-9.607182741E-1
9.495251563E0,5.075775146E0,-4.357030869E0,-7.067800164E-1
9.516541146E0,4.712066174E0,-4.392923355E0,2.003988922E-1
9.537830730E0,4.695017338E0,-4.586741924E0,2.458625287E-1
9.559120313E0,5.015954494E0,-4.993820667E0,-1.657029688E-1
9.580409896E0,5.755635738E0,-5.233103275E0,-1.128215909E0
9.601699480E0,6.588936329E0,-5.790929794E0,-1.535294771E0
9.622989063E0,7.053442955E0,-5.836393356E0,-1.470688581E0
9.644278646E0,7.151548862E0,-5.817250729E0,-1.216750264E0
9.665568230E0,7.776374340E0,-6.044867992E0,-5.177469850E-1
9.686857865E0,8.923134804E0,-6.593123913E0,2.051845491E-1
9.708147448E0,1.008664513E1,-7.308876991E0,5.204389244E-2
9.729437032E0,9.938289642E0,-8.108378410E0,-3.550350666E-1
9.750726615E0,8.710173607E0,-8.048558235E0,-8.171489239E-1
9.772016198E0,9.217751503E0,-9.171390533E0,-9.008977413E-1
9.793305782E0,9.748957634E0,-1.010040379E1,-3.861417472E-1
9.814595365E0,9.512067795E0,-8.563314438E0,2.219343036E-1
9.835884948E0,1.048176003E1,-8.237890244E0,3.296113312E-1
9.857174532E0,1.125494003E1,-9.240781784E0,4.519443810E-1
9.878464167E0,1.107069302E1,-1.034447098E1,1.148554921E0
9.899753750E0,9.792327881E0,-1.037557793E1,1.536491275E0
9.921043334E0,8.082955360E0,-9.274281502E0,1.301695466E0
9.942332917E0,6.909574509E0,-7.665706635E0,1.294517040E0
9.963622500E0,6.694220543E0,-6.477969170E0,9.332008362E-1
9.984912084E0,6.517151356E0,-5.726323605E0,4.639084935E-1
1.000620167E1,6.045466423E0,-5.132604599E0,3.152543902E-1
1.002749125E1,5.604887962E0,-5.060820103E0,1.740778536E-1
1.004878083E1,5.054239750E0,-5.355136871E0,-3.287140131E-1
1.007007042E1,4.601696968E0,-5.606682777E0,-4.938187599E-1
1.009136000E1,4.328915119E0,-5.989833355E0,-9.176474810E-1
1.011264958E1,4.000799656E0,-6.547659874E0,-1.180858016E0
1.013393917E1,3.218047380E0,-7.028617382E0,-1.293320656E0
1.015522880E1,2.483151674E0,-7.045367241E0,-1.532902002E0
1.017651839E1,2.169392824E0,-7.349554539E0,-1.980658889E0
1.019780797E1,2.844467878E0,-7.833203793E0,-2.210369825E0
1.021909755E1,3.325724363E0,-8.915358543E0,-2.263011932E0
1.024038714E1,5.284249783E0,-9.748359680E0,-1.046859860E0
1.026167672E1,6.770790577E0,-9.992726326E0,-7.956135273E-2
1.028296630E1,8.705388069E0,-1.076112175E1,-6.469594240E-1
1.030425589E1,8.880064011E0,-9.482755661E0,-1.226321578E0
1.032554547E1,8.939884186E0,-7.744669437E0,-1.422832131E0
1.034683505E1,1.019432163E1,-7.682456017E0,-1.611865163E0
1.036812464E1,1.030439186E1,-8.534600258E0,-2.047657967E0
1.038941422E1,8.655138969E0,-8.759525299E0,-1.468295813E0
1.041070380E1,6.632007122E0,-7.983952045E0,-1.417747438E-1
1.043199339E1,5.387141228E0,-6.257829189E0,7.677969933E-1
1.045328297E1,5.128417015E0,-4.821238518E0,5.452644825E-1
1.047457255E1,5.118845940E0,-4.297210217E0,-6.278168559E-1
1.049586214E1,4.687838554E0,-3.756133318E0,-1.116251707E0
1.051715172E1,4.379164696E0,-3.945166349E0,-9.559326172E-1
1.053844130E1,3.842873096E0,-4.071985722E0,-1.221535921E0
1.055973089E1,3.387937784E0,-4.818845749E0,-1.408475280E0
1.058102047E1,2.746362209E0,-5.123033047E0,-1.051645517E0
1.060231005E1,4.012763500E0,-6.267400742E0,-1.113858938E0
1.062359969E1,6.055037498E0,-7.119843960E0,-1.458724499E0
1.064488927E1,7.927122116E0,-7.194021225E0,-1.290927768E0
1.066617886E1,9.392427444E0,-6.810870647E0,-7.259225845E-1
1.068746844E1,1.077607632E1,-6.810870647E0,-5.847460628E-1
1.070875802E1,1.202842045E1,-7.651349545E0,-1.393819153E-1
1.073004761E1,1.216481113E1,-8.469993591E0,3.729812205E-1
1.075133719E1,1.137218857E1,-8.924929619E0,5.380859971E-1
1.077262677E1,1.080957603E1,-9.092427254E0,5.667998791E-1
1.079391636E1,1.147777176E1,-1.136680508E1,5.596213937E-1
1.081520594E1,1.037647533E1,-1.031097221E1,9.188438654E-1
1.083649552E1,9.923933029E0,-8.627920151E0,1.608275890E0
1.085778511E1,1.003639507E1,-8.869894028E0,1.332802176E0
1.087907469E1,9.823433876E0,-1.011476040E1,8.324031830E-1
1.090036427E1,8.700602531E0,-1.060080242E1,1.225125194E0
1.092165386E1,7.644769192E0,-9.942477226E0,1.782951951E0
1.094294344E1,7.522735119E0,-8.944071770E0,1.502991676E0
1.096423302E1,7.529913902E0,-7.823632717E0,7.893323898E-1
1.098552260E1,7.072585583E0,-6.693622112E0,2.650051117E-1
1.100681219E1,6.806683064E0,-6.020939827E0,2.171486616E-1
1.102810177E1,6.370890141E0,-5.860321522E0,2.267199457E-1
1.104939136E1,5.842076302E0,-6.040082455E0,6.553342938E-1
1.107068094E1,5.315356255E0,-6.523731709E0,8.587242365E-1
1.109197052E1,4.786243439E0,-7.047760010E0,6.481558084E-1
1.111326010E1,4.194917202E0,-7.809275627E0,4.187439568E-3
1.113454969E1,3.565006733E0,-8.257032394E0,-1.039681435E0
1.115583927E1,2.708076954E0,-8.074878693E0,-2.253440619E0
1.117712886E1,1.901396751E0,-7.694420338E0,-2.997907639E0
1.119841844E1,1.860419631E0,-7.256234646E0,-3.151347399E0
1.121970802E1,2.542972326E0,-7.735098362E0,-3.220739365E0
1.124099760E1,2.968894720E0,-8.659027100E0,-3.158525944E0
1.126228719E1,3.011965513E0,-8.469993591E0,-1.920838356E0
1.128357677E1,4.070191383E0,-9.408578873E0,-7.570292354E-1
1.130486636E1,5.418247700E0,-1.125194931E1,-1.094716311E0
1.132615594E1,5.830112457E0,-1.148644638E1,-8.195417523E-1
1.134744552E1,5.650351524E0,-1.011954594E1,3.128615618E-1
1.136873510E1,6.715755939E0,-9.161818504E0,6.864410043E-1
1.139002469E1,9.547960281E0,-9.384650230E0,1.605883121E0
1.141131427E1,1.030199909E1,-8.881858826E0,1.498206019E0
1.143260386E1,1.077847004E1,-7.438089371E0,1.988734722E0
1.145389344E1,8.432307243E0,-6.928118706E0,-3.981058598E-1
1.147518302E1,6.105287075E0,-6.205187321E0,-2.796910524E0
1.149647261E1,4.675874710E0,-5.649753571E0,-2.973979473E0
1.151776219E1,4.829314232E0,-5.518147945E0,-2.212762833E0
1.153905177E1,3.917050600E0,-5.376672268E0,-1.247856975E0
1.156034130E1,4.415056705E0,-5.635396481E0,-9.511470199E-1
1.158163089E1,4.678267479E0,-5.573183060E0,-2.641077936E-1
1.160292047E1,5.451747417E0,-5.496612549E0,-1.295713425E0
1.162421005E1,7.534699440E0,-6.727121830E0,-1.834397674E0
1.164549964E1,8.937491417E0,-6.834798813E0,-1.657029688E-1
1.166678922E1,1.010100174E1,-6.961618423E0,2.467598438E0
1.168807880E1,1.017039394E1,-6.327221394E0,1.864308000E0
1.170936839E1,1.017278671E1,-6.949654102E0,1.847558141E0
1.173065797E1,1.133629608E1,-7.572087288E0,2.640180588E0
1.175194755E1,1.241845036E1,-9.480362892E0,1.170090318E0
1.177323714E1,1.074975586E1,-7.380661488E0,1.689631939E0
1.179452672E1,1.028764153E1,-8.113163948E0,2.319243431E0
1.181581630E1,1.138654518E1,-9.937691689E0,-1.425225019E0
1.183710589E1,1.113769245E1,-8.371888161E0,-1.944766641E0
1.185839547E1,1.228684521E1,-7.639086246E0,3.993022740E-1
1.187968505E1,1.088405323E1,-8.893822670E0,2.120639086E0
1.190097464E1,8.137989998E0,-9.805787086E0,1.213161111E0
1.192226422E1,7.549056530E0,-9.671789169E0,1.094716340E-1
1.194355380E1,6.232106686E0,-9.207282066E0,-6.397809386E-1
1.196484333E1,5.820241928E0,-7.991130352E0,-1.214357495E0
1.198613292E1,7.606483936E0,-7.035795689E0,-4.579264224E-1
1.200742250E1,8.396414757E0,-7.091129780E0,1.363908887E0
1.202871208E1,6.928717136E0,-5.855535984E0,3.887439489E0
1.205000167E1,5.353641510E0,-6.078367710E0,3.987937927E0
1.207129125E1,4.618446827E0,-6.379863262E0,2.450848579E0
1.209258083E1,3.933800459E0,-7.153343201E0,1.292124271E0
1.211387042E1,3.500400543E0,-7.646564007E0,7.677969933E-1
1.213516000E1,4.055834293E0,-7.763812065E0,-4.363910258E-1
1.215644958E1,3.196511984E0,-7.806882858E0,-3.357130051E0
1.217773917E1,2.559721947E0,-8.276175499E0,-2.622234583E0
1.219902875E1,2.717648268E0,-8.137092590E0,-1.238285661E0
1.222031833E1,4.046263218E0,-8.125128746E0,-1.820040703E0
1.224160786E1,4.412663937E0,-8.230711937E0,-1.702792406E0
1.226289745E1,3.850051641E0,-8.292924881E0,-7.043871880E-1
1.228418703E1,2.959323406E0,-8.196912766E0,-9.535398483E-1
1.230547662E1,4.180560112E0,-9.109176636E0,-1.456331730E0
1.232676620E1,5.449354649E0,-9.884750366E0,-1.995015860E0
1.234805578E1,5.269892693E0,-8.968000412E0,-1.140179992E0
1.236934537E1,5.576174259E0,-8.110771179E0,-6.999006122E-2
1.239063495E1,7.180262566E0,-8.709276199E0,8.922237158E-1
1.241192453E1,8.681459427E0,-9.197710991E0,1.730309844E0
1.243321412E1,9.425926208E0,-8.319246292E0,1.907378793E0
1.245450365E1,6.981658459E0,-6.777370930E0,1.033699393E0
1.247579323E1,6.782754898E0,-6.499504566E0,9.978070259E-1
1.249708281E1,5.482853889E0,-5.757430553E0,1.237089276E0
1.251837240E1,3.629911900E0,-4.447957993E0,1.296909928E0
1.253966198E1,4.953741074E0,-5.628218174E0,-2.159522474E-1
1.256095156E1,5.492425442E0,-5.836393356E0,-2.143370867E0
1.258224115E1,4.838885784E0,-5.994618893E0,-2.717947483E0
1.260353073E1,5.133202553E0,-6.413362980E0,-2.191227436E0
1.262482031E1,4.666303158E0,-7.122236729E0,-1.932802439E0
1.264610984E1,5.827719688E0,-7.816454411E0,-1.453938842E0
1.266739943E1,8.147561073E0,-8.249854088E0,-1.106680512E0
1.268868901E1,9.579067230E0,-7.782954693E0,-5.273182988E-1
1.270997859E1,9.641280174E0,-6.645765781E0,1.782951951E0
1.273126818E1,1.070668507E1,-7.873881817E0,1.589133382E0
1.275255776E1,1.138415241E1,-8.834002495E0,-1.393819153E-1
1.277384734E1,1.088644600E1,-9.916155815E0,-2.469093800E0
1.279513693E1,1.178405285E1,-1.004776096E1,-1.999801517E0
1.281642646E1,1.237298679E1,-1.090229797E1,-9.726824164E-1
1.283771604E1,1.170030499E1,-1.056730270E1,6.840481758E-1
1.285900562E1,1.085743237E1,-9.264710426E0,5.979065299E-1
1.288029521E1,1.089362431E1,-9.736394882E0,-3.693920076E-1
1.290158479E1,1.119033432E1,-1.099083233E1,-9.152546525E-1
1.292287438E1,1.041954613E1,-1.220728397E1,-8.243274093E-1
1.294416396E1,9.057132721E0,-1.243460178E1,-6.708876491E-1
1.296545349E1,7.896015644E0,-1.124237823E1,1.692921966E-1
1.298674307E1,7.077371120E0,-9.332008362E0,1.110269666E0
1.300803266E1,6.696613312E0,-7.914559841E0,8.539385796E-1
1.302932224E1,6.287141323E0,-6.851548672E0,8.371888399E-1
1.305061182E1,5.545067310E0,-6.343971252E0,1.213161111E0
1.307190141E1,5.193023205E0,-6.655336857E0,1.186840057E0
1.309319099E1,4.810171604E0,-7.182057381E0,6.984050870E-1
1.311448057E1,4.065405846E0,-7.802097321E0,2.554338276E-1
1.313577010E1,3.359223843E0,-8.534600258E0,-8.027920127E-1
1.315705969E1,2.935395241E0,-9.034998894E0,-2.253440619E0
1.317834927E1,2.286641121E0,-8.843573570E0,-2.871088028E0
1.319963886E1,1.886740685E0,-7.881060600E0,-2.952444077E0
1.322092844E1,2.324926376E0,-7.464410305E0,-3.012264490E0
1.324221797E1,2.810968399E0,-7.974380493E0,-2.607877493E0
1.326350755E1,2.569293261E0,-8.424530029E0,-1.980658889E0
1.328479714E1,1.951645970E0,-8.345566750E0,-1.073180914E0
1.330608672E1,3.615555048E0,-8.829216003E0,-1.082752272E-1
1.332737630E1,6.004788399E0,-9.614361763E0,-4.148556292E-1
1.334866589E1,6.849753857E0,-9.602396965E0,-1.528116345E0
1.336995542E1,5.209773064E0,-8.520243645E0,-1.314856052E0
1.339124500E1,4.951348305E0,-7.696813107E0,6.580262445E-3
1.341253458E1,7.350152969E0,-7.866703510E0,7.319046259E-1
1.343382417E1,9.171988487E0,-7.871489048E0,1.094716340E-1
1.345511375E1,8.415556908E0,-7.311269760E0,2.333002165E-2
1.347640333E1,6.615257263E0,-6.470790863E0,-4.651049078E-1
1.349769287E1,5.212165833E0,-5.790929794E0,-1.547258973E0
1.351898245E1,4.829314232E0,-5.386243820E0,-2.449652195E0
1.354027203E1,5.734100342E0,-5.673681736E0,-2.181656122E0
1.356156162E1,6.256034851E0,-5.879464149E0,-1.221535921E0
1.358285115E1,6.529115677E0,-6.159723759E0,-5.536393523E-1
1.360414073E1,6.880860806E0,-6.219544411E0,-5.057829022E-1
1.362543031E1,7.433901787E0,-6.336792469E0,-1.039681435E0
1.364671990E1,8.489734650E0,-6.489933014E0,-1.686042666E0
1.366800948E1,9.655637741E0,-6.186044693E0,-2.184048891E0
1.368929901E1,1.097498035E1,-5.740680695E0,-1.911267042E0
1.371058859E1,1.180558872E1,-5.230710506E0,-1.564008713E0
1.373187818E1,1.203081322E1,-5.530112267E0,-1.456331730E0
1.375316776E1,1.156391335E1,-6.016154289E0,-1.370190024E0
1.377445734E1,1.111137104E1,-6.588337898E0,-1.520937920E0
1.379574693E1,1.138654518E1,-7.064509869E0,-1.475474238E0
1.381703646E1,1.262213898E1,-8.879466057E0,-1.326820135E0
1.383832604E1,1.302174091E1,-9.944869995E0,-1.293320656E0
1.385961562E1,1.247109222E1,-8.410173416E0,-1.221535921E0
1.388090521E1,1.355085373E1,-8.603992462E0,-1.049252748E0
1.390219474E1,1.395314693E1,-1.007408237E1,-8.626125455E-1
1.392348432E1,1.344796276E1,-1.126391315E1,-9.008977413E-1
1.394477391E1,1.216720390E1,-1.165424252E1,-1.449153185E0
1.396606349E1,9.370891571E0,-1.056012440E1,-1.006181955E0
1.398735307E1,7.268796921E0,-9.168996811E0,7.414759398E-1
1.400864260E1,5.868397713E0,-7.830811024E0,2.709572554E0
1.402993219E1,5.621637821E0,-7.095915318E0,2.953640461E0
1.405122177E1,5.808278084E0,-6.839584351E0,2.154138565E0
1.407251136E1,5.676672459E0,-7.263412952E0,9.786644578E-1
1.409380089E1,4.738387108E0,-7.421339512E0,-1.896311939E-1
1.411509047E1,3.728017569E0,-7.550551891E0,-1.324427366E0
1.413638005E1,3.110370398E0,-7.971987724E0,-2.286940336E0
1.415766964E1,2.727219582E0,-8.280961037E0,-2.839981318E0
1.417895917E1,2.272284269E0,-7.806882858E0,-3.314059258E0
1.420024875E1,2.473580360E0,-7.773383617E0,-2.990729094E0
1.422153833E1,3.344866991E0,-7.823632717E0,-2.090728760E0
1.424282792E1,4.007977962E0,-8.211568832E0,-1.274178028E0
1.426411745E1,4.204488277E0,-8.213961601E0,-4.794618487E-1
1.428540703E1,4.048655987E0,-8.132307053E0,4.184448719E-1
1.430669662E1,4.484448910E0,-9.159425735E0,4.208376706E-1
1.432798615E1,5.197809219E0,-1.004058266E1,-1.154536903E-1
1.434927573E1,5.252843857E0,-9.544969559E0,-9.272187948E-1
1.437056531E1,5.954539299E0,-9.427721024E0,-7.259225845E-1
1.439185490E1,7.125227451E0,-1.012672424E1,-4.100699723E-1
1.441314443E1,7.563413143E0,-1.027747250E1,-3.622135222E-1
1.443443401E1,7.488936901E0,-9.128319740E0,2.171486616E-1
1.445572359E1,7.362117290E0,-7.531409264E0,5.045864582E-1
1.447701313E1,7.149155617E0,-5.903392792E0,1.860419661E-1
1.449830271E1,6.734898567E0,-4.953142643E0,-5.488536954E-1
1.451959229E1,6.265605927E0,-4.648955345E0,-1.056431174E0
1.454088188E1,5.815456390E0,-4.900500774E0,-1.188036442E0
1.456217141E1,5.518746376E0,-5.778965950E0,-1.351047516E0
1.458346099E1,5.420640469E0,-6.109474182E0,-9.343972206E-1
1.460475057E1,6.198606968E0,-6.643373013E0,-7.522436380E-1
1.462604016E1,6.876074791E0,-7.229913712E0,-5.033900738E-1
1.464732969E1,7.637590885E0,-7.232306480E0,-3.167499006E-1
1.466861927E1,8.805886269E0,-6.940083027E0,-2.808575630E-1
1.468990886E1,1.057507992E1,-6.092724800E0,9.990034252E-2
1.471119839E1,1.265563869E1,-6.200401783E0,6.577271223E-1
1.473248797E1,1.358913898E1,-7.210771084E0,1.459621787E0
1.475377755E1,1.247348499E1,-8.043772697E0,1.119840980E0
1.477506708E1,1.147298622E1,-8.350353241E0,6.400800496E-2
1.479635667E1,1.100848007E1,-7.885846138E0,-9.750752449E-1
1.481764625E1,1.282313633E1,-9.690931320E0,-7.785646915E-1
1.483893578E1,1.325892925E1,-9.339186668E0,1.429711580E-1
1.486022537E1,1.263410378E1,-7.976773262E0,7.797610760E-1
1.488151495E1,1.220309639E1,-8.089236259E0,6.481558084E-1
1.490280453E1,1.134586811E1,-9.430113792E0,2.913261652E-1
1.492409406E1,1.046261692E1,-1.070847988E1,2.673979402E-1
1.494538365E1,9.064311028E0,-1.056251717E1,5.428716540E-1
1.496667323E1,8.056334496E0,-9.549755096E0,5.955137610E-1
1.498796276E1,7.831409454E0,-8.486743927E0,1.048056364E0
1.500925234E1,7.362117290E0,-7.737491131E0,1.524527073E0
1.503054193E1,6.636792660E0,-7.148557663E0,1.512562990E0
1.505183146E1,6.299105644E0,-7.091129780E0,8.419744968E-1
1.507312104E1,6.165107727E0,-7.306483746E0,-9.391828626E-2
1.509441057E1,5.947360516E0,-7.840382576E0,-7.860422134E-1
1.511570016E1,5.418247700E0,-8.216354370E0,-7.956135273E-1
1.513698974E1,4.783850670E0,-8.855537415E0,-8.602197170E-1
1.515827927E1,4.371985912E0,-9.078069687E0,-9.008977413E-1
1.517956886E1,3.917050600E0,-8.759525299E0,-1.379761338E0
1.520085844E1,3.627519131E0,-8.335995674E0,-1.963909149E0
1.522214797E1,3.457329512E0,-8.261817932E0,-1.904088616E0
1.524343755E1,3.093620539E0,-8.261817932E0,-1.482652783E0
1.526472714E1,2.863610506E0,-8.367102623E0,-1.085145116E0
1.528601667E1,2.403889418E0,-8.113163948E0,-7.450651526E-1
1.530730625E1,3.081656456E0,-8.393424034E0,-5.464608669E-1
1.532859583E1,4.592125893E0,-8.757132530E0,-3.023929596E-1
1.534988536E1,5.451747417E0,-8.515457153E0,-4.172484577E-1
1.537117495E1,6.272784710E0,-8.003094673E0,-4.794618487E-1
1.539246448E1,7.383652687E0,-8.505886078E0,-1.125823021E0
1.541375406E1,8.116454124E0,-9.078069687E0,-1.475474238E0
1.543504365E1,7.836194992E0,-8.465208054E0,-9.391828775E-1
1.545633318E1,7.175477028E0,-7.383054256E0,-5.823532343E-1
1.547762276E1,6.610471725E0,-6.221937180E0,-7.402794957E-1
1.549891234E1,6.620042801E0,-5.470291615E0,-9.080761671E-1
1.552020188E1,6.442974091E0,-5.065605640E0,-9.726824164E-1
1.554149146E1,5.803492069E0,-5.079962254E0,-1.018146038E0
1.556278099E1,5.183452129E0,-5.369493961E0,-1.068395257E0
1.558407057E1,5.047060966E0,-5.865107536E0,-8.793623447E-1
1.560536016E1,5.351248741E0,-6.526124477E0,-6.780661345E-1
1.562664969E1,6.227321148E0,-7.289734364E0,-8.578268886E-1
1.564793927E1,7.445865631E0,-7.883453369E0,-6.780661345E-1
1.566922880E1,8.257631302E0,-7.814061642E0,-2.617149651E-1
1.569051839E1,9.246464729E0,-7.124629498E0,1.286142170E-1
1.571180797E1,1.122383404E1,-6.437291145E0,-2.015953064E-1
1.573309750E1,1.299063396E1,-6.655336857E0,-4.674977362E-1
1.575438708E1,1.365135193E1,-7.241877556E0,3.415754437E-1
1.577567662E1,1.298584843E1,-7.660920620E0,1.253839016E0
1.579696620E1,1.151366425E1,-7.337590694E0,4.830510616E-1
1.581825578E1,1.192283726E1,-8.359924316E0,-2.760719061E-1
1.583954531E1,1.228205967E1,-9.384650230E0,-8.099704385E-1
1.586083490E1,1.172662544E1,-7.854739666E0,-8.554341197E-1
1.588212443E1,1.231316662E1,-8.278568268E0,-1.054038405E0
1.590341401E1,1.221984577E1,-9.899406433E0,-7.570292354E-1
1.592470354E1,1.149930763E1,-1.099801064E1,-4.674977362E-1
1.594599313E1,1.057507992E1,-1.084008503E1,-4.722833633E-1
1.596728266E1,9.816255569E0,-1.038514900E1,-1.992024779E-1
1.598857224E1,8.691030502E0,-9.384650230E0,4.471587241E-1
1.600986182E1,7.704589844E0,-8.441280365E0,1.414158225E0
1.603115136E1,6.988836765E0,-7.727920055E0,1.723131418E0
1.605244094E1,6.533901215E0,-7.447660446E0,1.086341500E0
1.607373047E1,6.191428661E0,-7.615158081E0,4.088735580E-1
1.609502005E1,5.652744293E0,-7.957630634E0,1.692921966E-1
1.611630958E1,4.992026329E0,-8.388637543E0,-2.213360928E-2
1.613759917E1,4.288237095E0,-8.532207489E0,-3.693920076E-1
1.615888870E1,3.737588882E0,-8.829216003E0,-8.027920127E-1
1.618017828E1,2.985644341E0,-8.596813202E0,-1.125823021E0
1.620146781E1,2.427817583E0,-8.058129311E0,-1.238285661E0
1.622275740E1,2.195713997E0,-7.450053215E0,-1.573580027E0
1.624404698E1,2.483151674E0,-7.514659405E0,-1.712363720E0
1.626533651E1,2.755933523E0,-7.866703510E0,-1.477867126E0
1.628662609E1,2.897109985E0,-7.940881252E0,-9.104689956E-1
1.630791562E1,3.615555048E0,-8.036594391E0,-2.306082845E-1
1.632920521E1,4.549055099E0,-8.984749794E0,-3.861417472E-1
1.635049474E1,4.814957142E0,-9.291030884E0,-3.191427290E-1
1.637178432E1,4.546662331E0,-8.627920151E0,6.400800496E-2
1.639307386E1,5.425426006E0,-8.192127228E0,5.859424472E-1
1.641436344E1,6.809075832E0,-8.391031265E0,4.184448719E-1
1.643565297E1,7.996514320E0,-8.503493309E0,-5.982056609E-4
1.645694255E1,8.506484032E0,-8.194519997E0,-3.287140131E-1
1.647823208E1,7.943871975E0,-7.531409264E0,-8.315058947E-1
1.649952167E1,6.830611229E0,-6.664908409E0,-7.378866673E-1
1.652081120E1,6.334998131E0,-6.279364586E0,-5.536393523E-1
1.654210078E1,5.964110374E0,-6.147759438E0,-1.872383654E-1
1.656339031E1,5.769992828E0,-6.157330990E0,6.879365444E-2
1.658467990E1,5.995217323E0,-6.698407650E0,1.286142170E-1
1.660596943E1,6.330212116E0,-6.956832886E0,6.400800496E-2
1.662725896E1,7.082156658E0,-7.308876991E0,-4.220340848E-1
1.664854854E1,8.063512802E0,-7.572087288E0,-4.866403043E-1
1.666983807E1,8.966205597E0,-7.366304398E0,-8.362914920E-1
1.669112766E1,9.928718567E0,-7.088737011E0,-1.125823021E0
1.671241719E1,1.096062279E1,-6.265007973E0,-1.351047516E0
1.673370677E1,1.214566898E1,-6.008975983E0,-1.032503009E0
1.675499630E1,1.278006554E1,-6.535696030E0,-2.111666054E-1
1.677628583E1,1.206192017E1,-7.217949390E0,3.272185028E-1
1.679757542E1,1.079043388E1,-7.505088329E0,-1.657029688E-1
1.681886495E1,1.068036366E1,-7.615158081E0,-1.018146038E0
1.684015453E1,1.286142159E1,-1.005494022E1,-1.482652783E0
1.686144406E1,1.320150185E1,-9.848857880E0,-1.463510156E0
1.688273365E1,1.305524063E1,-8.491529465E0,-1.422832131E0
1.690402318E1,1.350299740E1,-9.279067039E0,-1.406082392E0
1.692531271E1,1.280399418E1,-1.105573750E1,-6.254240274E-1
1.694660229E1,1.084546852E1,-1.185523987E1,3.681955934E-1
1.696789182E1,8.710173607E0,-1.112273693E1,1.016949654E0
1.698918136E1,7.252047062E0,-9.772287369E0,1.756630898E0
1.701047094E1,6.533901215E0,-8.613563538E0,2.338385820E0
1.703176047E1,6.009573936E0,-7.739883900E0,2.599502802E0
1.705305005E1,5.358427048E0,-7.150950432E0,2.168495417E0
1.707433958E1,5.147559643E0,-6.961618423E0,1.220339537E0
1.709562912E1,5.212165833E0,-7.385447025E0,1.453639716E-1
1.711691865E1,4.920241356E0,-7.660920620E0,-3.813561201E-1
1.713820823E1,4.170989037E0,-7.600800991E0,-9.966106415E-1
1.715949776E1,3.936193228E0,-7.979166031E0,-1.638186216E0
1.718078729E1,3.684946775E0,-8.079665184E0,-1.812862277E0
1.720207688E1,3.464508057E0,-7.921738625E0,-1.755434513E0
1.722336641E1,3.795016766E0,-7.658527851E0,-1.645364642E0
1.724465594E1,4.436592102E0,-7.794919014E0,-1.497009635E0
1.726594552E1,4.625625134E0,-8.414958954E0,-1.444367528E0
1.728723505E1,4.094119549E0,-8.391031265E0,-1.228714466E0
1.730852458E1,3.692125320E0,-8.053343773E0,-2.353939265E-1
1.732981417E1,5.296213627E0,-9.463613510E0,1.956132501E-1
1.735110370E1,6.431009769E0,-1.009561825E1,-2.425723970E-1
1.737239323E1,5.671886921E0,-9.212067604E0,-1.147358418E0
1.739368276E1,5.250451088E0,-8.436494827E0,-7.354938388E-1
1.741497234E1,5.846862316E0,-8.326424599E0,6.888338327E-1
1.743626188E1,6.548258305E0,-8.472386360E0,1.385444283E0
1.745755141E1,6.969694138E0,-7.998308659E0,1.083948612E0
1.747884094E1,6.777969360E0,-7.117451191E0,-1.968096644E-1
1.750013047E1,6.117250919E0,-5.860321522E0,-1.374975681E0
1.752142005E1,5.260022163E0,-5.036891460E0,-2.193620205E0
1.754270958E1,4.724030018E0,-4.703989983E0,-2.270190477E0
1.756399912E1,4.381557465E0,-4.855037212E0,-1.743470430E0
1.758528865E1,4.247559071E0,-5.460720539E0,-1.855933070E0
1.760657823E1,4.963312149E0,-6.597909451E0,-2.588735104E0
1.762786776E1,5.549852848E0,-7.234699249E0,-2.315654039E0
1.764915729E1,7.067800045E0,-7.847560883E0,-1.709970832E0
1.767044682E1,8.051548958E0,-8.096414566E0,-1.370190024E0
1.769173641E1,1.001486015E1,-7.916952610E0,-6.421737671E-1
1.771302594E1,1.237059402E1,-7.100701332E0,-4.722833633E-1
1.773431547E1,1.397229004E1,-6.346364021E0,-6.780661345E-1
1.775560500E1,1.463300800E1,-6.688836575E0,2.572284266E-2
1.777689453E1,1.331635666E1,-6.849155903E0,1.112662554E0
1.779818406E1,1.236820126E1,-7.363911629E0,-1.848455518E-1
1.781947365E1,1.263171101E1,-7.505088329E0,-1.252642632E0
1.784076318E1,1.403211021E1,-1.017936707E1,-1.803290963E0
1.786205271E1,1.351256847E1,-1.018893814E1,-1.202393413E0
1.788334224E1,1.299302673E1,-8.029415131E0,1.118644550E-1
1.790463177E1,1.296670628E1,-8.065307617E0,4.208376706E-1
1.792592130E1,1.221266747E1,-9.865608215E0,2.530409992E-1
1.794721089E1,1.083350468E1,-1.125912762E1,3.729812205E-1
1.796850042E1,8.992527008E0,-1.120648575E1,4.495515525E-1
1.798978995E1,7.445865631E0,-1.006451130E1,9.017950296E-1
1.801107948E1,6.911967278E0,-8.498707771E0,1.495813251E0
1.803236901E1,7.070192814E0,-7.749455452E0,1.270588875E0
1.805365854E1,6.677470684E0,-7.165307522E0,6.792625189E-1
1.807494807E1,5.765207291E0,-6.961618423E0,1.573280841E-1
1.809623761E1,5.382355213E0,-7.136593342E0,3.272185028E-1
1.811752719E1,4.953741074E0,-7.469195843E0,6.984050870E-1
1.813881672E1,4.281058788E0,-7.711170197E0,3.849453330E-1
1.816010625E1,3.888336897E0,-7.680063248E0,-4.100699723E-1
1.818139578E1,3.605983734E0,-7.660920620E0,-9.822536707E-1
1.820268531E1,3.414258718E0,-7.907381535E0,-1.463510156E0
1.822397484E1,3.653840065E0,-8.017451286E0,-1.621436477E0
1.824526438E1,3.730410576E0,-7.754240990E0,-1.980658889E0
1.826655391E1,3.905086517E0,-8.007880211E0,-2.437688112E0
1.828784344E1,3.881158352E0,-8.175377846E0,-2.203191519E0
1.830913297E1,3.500400543E0,-7.361518860E0,-1.164108157E0
1.833042255E1,4.903491974E0,-7.770990849E0,5.922235921E-2
1.835171208E1,6.081358910E0,-8.663812637E0,-5.703890920E-1
1.837300162E1,5.387141228E0,-8.328817368E0,-1.101894855E0
1.839429115E1,4.620839596E0,-7.505088329E0,-9.367900491E-1
1.841558068E1,5.209773064E0,-7.471588612E0,-5.802594870E-2
1.843687021E1,6.897610188E0,-8.259425163E0,1.615155302E-2
1.845815974E1,7.963014603E0,-8.503493309E0,-5.201398134E-1
1.847944927E1,8.240880966E0,-7.723134041E0,-9.655039310E-1
1.850073880E1,8.183453560E0,-6.667301178E0,-1.130608678E0
1.852202833E1,7.754838943E0,-5.807679653E0,-1.001396298E0
1.854331787E1,6.986443996E0,-5.101497650E0,-4.435695112E-1
1.856460740E1,6.660720825E0,-4.727918625E0,-7.238288224E-2
1.858589693E1,6.837790012E0,-4.984249592E0,-5.823532343E-1
1.860718646E1,6.155536175E0,-5.443970680E0,-1.434796333E0
1.862847599E1,5.597709656E0,-6.188437462E0,-1.422832131E0
1.864976552E1,5.224130154E0,-6.674479485E0,-9.870393276E-1
1.867105505E1,5.449354649E0,-6.614659309E0,-6.589235067E-1
1.869234458E1,6.950551510E0,-6.712764740E0,-3.646063507E-1
1.871363412E1,8.099704742E0,-6.293721676E0,-7.283154130E-1
1.873492365E1,9.176774025E0,-6.195616245E0,-1.247856975E0
1.875621318E1,9.842576981E0,-6.276971817E0,-1.176072359E0
1.877750271E1,1.066361427E1,-6.889833927E0,-7.019943595E-1
1.879879229E1,1.157109165E1,-7.696813107E0,-6.541379094E-1
1.882008177E1,1.239930820E1,-8.362317085E0,-2.015953064E-1
1.884137136E1,1.309352589E1,-8.343173981E0,1.621137410E-1
1.886266089E1,1.467607880E1,-1.046680450E1,-5.324030295E-2
1.888395042E1,1.433629799E1,-1.011954594E1,7.414759398E-1
1.890523990E1,1.294277763E1,-7.440482140E0,1.534098387E0
1.892652948E1,1.335464191E1,-8.608778000E0,7.271189690E-1
1.894781901E1,1.287338543E1,-1.060319519E1,-2.521436810E-1
1.896910854E1,1.140090275E1,-1.146251774E1,-5.991029739E-1
1.899039802E1,9.667601585E0,-1.077069283E1,-3.167499006E-1
1.901168761E1,8.382058144E0,-9.583254814E0,-1.513460279E-1
1.903297708E1,7.594520092E0,-8.462815285E0,2.506481707E-1
1.905426662E1,6.852146626E0,-7.545766354E0,8.084749579E-1
1.907555615E1,6.019145489E0,-6.796513557E0,1.043270707E0
1.909684568E1,5.382355213E0,-6.494719028E0,8.802596331E-1
1.911813521E1,4.946562767E0,-6.535696030E0,5.356931686E-1
1.913942474E1,4.546662331E0,-6.758228302E0,1.884347796E-1
1.916071427E1,3.984049797E0,-7.165307522E0,-5.201398134E-1
1.918200380E1,3.476472139E0,-7.409375191E0,-1.322034478E0
1.920329333E1,3.182155132E0,-7.596015453E0,-2.105085611E0
1.922458287E1,2.576471806E0,-7.311269760E0,-2.552842617E0
1.924587240E1,2.344068766E0,-6.918547630E0,-2.564806700E0
1.926716193E1,3.158226728E0,-7.234699249E0,-2.488236427E0
1.928845146E1,4.429413795E0,-8.230711937E0,-2.117049932E0
1.930974099E1,4.338486671E0,-8.472386360E0,-1.855933070E0
1.933103052E1,4.180560112E0,-8.379066467E0,-9.607182741E-1
1.935232005E1,4.731208801E0,-9.164211273E0,2.721835673E-1
1.937360958E1,5.387141228E0,-9.542576790E0,1.155733347E0
1.939489912E1,5.638387680E0,-9.020642281E0,1.445264935E0
1.941618865E1,6.483652115E0,-8.778966904E0,1.217946768E0
1.943747813E1,7.486543655E0,-9.142676353E0,7.199404836E-1
1.945876766E1,8.135597229E0,-9.185747147E0,1.836491376E-1
1.948005719E1,8.216953278E0,-8.517850876E0,1.286142170E-1
1.950134672E1,7.860123158E0,-7.387839794E0,2.793620527E-1
1.952263625E1,7.326224804E0,-6.198009014E0,2.410768867E-1
1.954392578E1,7.094120979E0,-5.201996326E0,-2.258226424E-1
1.956521531E1,6.471687794E0,-4.457529545E0,-6.804589629E-1
1.958650484E1,5.588138103E0,-4.378566265E0,-1.358225942E0
1.960779438E1,4.951348305E0,-4.703989983E0,-1.724327803E0
1.962908391E1,4.654339314E0,-5.130211830E0,-1.504188180E0
1.965037344E1,4.779065132E0,-5.707180977E0,-1.439581871E0
1.967166292E1,5.231308460E0,-6.284150600E0,-1.626222134E0
1.969295245E1,6.236892223E0,-6.513861656E0,-1.413260818E0
1.971424198E1,7.460222721E0,-6.286543369E0,-1.118644595E0
1.973553151E1,8.621339798E0,-6.104688644E0,-1.358225942E0
1.975682104E1,1.043150997E1,-6.413362980E0,-8.673982024E-1
1.977811057E1,1.212652588E1,-7.237092018E0,4.040879309E-1
1.979940010E1,1.275135231E1,-7.766204834E0,7.438687682E-1
1.982068964E1,1.331875038E1,-8.290532112E0,5.333003402E-1
1.984197912E1,1.262931824E1,-7.814061642E0,1.057627559E0
1.986326865E1,1.323978710E1,-8.958429337E0,1.641775489E0
1.988455818E1,1.331635666E1,-9.506684303E0,1.964806437E0
1.990584771E1,1.244477177E1,-8.395816803E0,1.550848126E0
1.992713724E1,1.218873978E1,-9.798608780E0,-5.383851007E-3
1.994842677E1,1.184148121E1,-1.188156128E1,-3.598206937E-1
1.996971630E1,1.045065308E1,-1.184806156E1,-1.513460279E-1
1.999100578E1,9.492925644E0,-1.054098225E1,1.525424421E-1
2.001229531E1,9.299106598E0,-9.566504478E0,4.016951025E-1
2.003358484E1,8.628518105E0,-8.829216003E0,7.055835724E-1
2.005487438E1,7.352545738E0,-8.182556152E0,1.115055323E0
2.007616391E1,6.210571289E0,-7.440482140E0,1.330409408E0
2.009745344E1,5.664708614E0,-7.110272408E0,1.359123230E0
2.011874297E1,5.490032673E0,-7.445267677E0,8.826524615E-1
2.014003245E1,5.075775146E0,-8.084450722E0,3.873381615E-1
2.016132198E1,4.166203499E0,-8.340781212E0,2.889333367E-1
2.018261151E1,2.906681299E0,-8.331210136E0,3.514458239E-1
2.020390104E1,1.618744493E0,-7.878667831E0,-4.366901144E-2
2.022519057E1,8.551349640E-1,-7.265805721E0,-8.410771489E-1
2.024648010E1,1.106381416E0,-6.643373013E0,-1.614257932E0
2.026776958E1,1.927717686E0,-5.762216091E0,-1.666900039E0
2.028905912E1,3.330509901E0,-6.279364586E0,-2.047657967E0
2.031034865E1,4.015156269E0,-6.662515640E0,-1.449153185E0
2.033163818E1,4.764708042E0,-7.174878597E0,-6.134598851E-1
2.035292771E1,5.842076302E0,-7.725526810E0,-3.239283562E-1
2.037421719E1,6.162714481E0,-8.606385231E0,-9.032905698E-1
2.039550672E1,5.638387680E0,-7.900203228E0,-1.573580027E0
2.041679625E1,5.827719688E0,-7.847560883E0,-6.996015310E-1
2.043808578E1,7.022336483E0,-9.324530602E0,3.050848842E-2
2.045937531E1,7.668697357E0,-1.056490993E1,6.580262445E-3
2.048066479E1,7.654340744E0,-9.918548584E0,7.677969933E-1
2.050195432E1,7.275975227E0,-8.359924316E0,1.514955878E0
2.052324386E1,7.034300327E0,-6.763014317E0,1.711167336E0
2.054453339E1,7.125227451E0,-5.771787167E0,1.560419440E0
2.056582286E1,7.027122021E0,-5.429613590E0,1.849951029E0
2.058711240E1,6.323033810E0,-5.503791332E0,2.137388945E0
2.060840193E1,5.300999641E0,-5.951249123E0,8.922237158E-1
2.062969146E1,4.881956577E0,-6.267400742E0,-3.119642437E-1
2.065098099E1,4.743172646E0,-6.588337898E0,-1.190429211E0
2.067227047E1,4.707280159E0,-6.813263416E0,-1.803290963E0
2.069356000E1,5.657529831E0,-7.473981380E0,-1.528116345E0
2.071484953E1,7.520342350E0,-7.213163853E0,2.027917206E-1
2.073613906E1,1.117358398E1,-6.839584351E0,4.304089844E-1
2.075742854E1,1.356281757E1,-6.468397617E0,2.333002165E-2
2.077871807E1,1.288774300E1,-6.691229343E0,3.032902777E-1
2.080000760E1,1.157587814E1,-7.162914753E0,1.275374413E0
2.082129708E1,1.147537899E1,-7.940881252E0,1.572383523E0
2.084258662E1,1.152323532E1,-7.816454411E0,1.174875975E0
2.086387615E1,1.290209961E1,-9.480362892E0,-1.322034448E-1
2.088516568E1,1.261017513E1,-1.038514900E1,-1.121037364E0
2.090645516E1,1.151844978E1,-8.922536850E0,-6.206383705E-1
2.092774469E1,1.172662544E1,-9.123533249E0,-6.206383705E-1
2.094903422E1,1.149452209E1,-1.009561825E1,-5.153541565E-1
2.097032375E1,1.035972595E1,-1.045484066E1,7.836493850E-2
2.099161323E1,9.208179474E0,-9.980762482E0,5.117649436E-1
2.101290276E1,8.041977882E0,-9.030213356E0,7.510471940E-1
2.103419229E1,6.993622303E0,-7.699205875E0,1.225125194E0
2.105548182E1,6.217749596E0,-6.511468410E0,1.814058661E0
2.107677130E1,5.645565987E0,-5.848357677E0,1.806880236E0
2.109806083E1,5.293820858E0,-5.692824364E0,1.505384564E0
2.111935031E1,4.975276470E0,-6.092724800E0,1.060020447E0
2.114063984E1,4.460520744E0,-6.605087757E0,5.907281041E-1
2.116192938E1,3.940979004E0,-6.947261333E0,2.147558331E-1
2.118321891E1,3.423830032E0,-6.928118706E0,-5.991029739E-1
2.120450839E1,3.299403429E0,-6.990332127E0,-1.619043589E0
2.122579792E1,2.971287489E0,-6.631408691E0,-2.152942181E0
2.124708745E1,4.125226021E0,-7.189235687E0,-2.286940336E0
2.126837693E1,5.015954494E0,-7.706384659E0,-1.961516380E0
2.128966646E1,5.439783096E0,-8.901000977E0,-1.678864241E0
2.131095599E1,5.358427048E0,-1.005972576E1,-1.166501045E0
2.133224547E1,4.551447868E0,-8.745168686E0,7.357929647E-2
2.135353500E1,6.739684105E0,-9.609575272E0,6.481558084E-1
2.137482453E1,8.226524353E0,-1.090947628E1,8.075776696E-2
2.139611401E1,6.811468601E0,-1.023440170E1,5.356931686E-1
2.141740354E1,5.339284420E0,-8.369495392E0,2.032104731E0
2.143869307E1,6.165107727E0,-7.598408222E0,2.676073074E0
2.145998255E1,7.929515362E0,-7.703991413E0,1.699203134E0
2.148127208E1,8.578269005E0,-7.196413994E0,2.985046208E-1
2.150256162E1,8.010870934E0,-6.355935097E0,-1.020538807E0
2.152385109E1,6.337390900E0,-4.981856823E0,-1.430010676E0
2.154514063E1,5.195415974E0,-4.229912281E0,-1.571187139E0
2.156643016E1,4.685445786E0,-3.887738705E0,-1.712363720E0
2.158771964E1,4.345664978E0,-4.222733974E0,-1.698006749E0
2.160900917E1,3.682554007E0,-4.701597214E0,-1.207179070E0
2.163029865E1,3.486043453E0,-5.345565796E0,-4.148556292E-1
2.165158818E1,4.877170563E0,-5.992226124E0,3.176472187E-1
2.167287771E1,6.256034851E0,-6.308078766E0,-5.919244885E-1
2.169416719E1,7.141977310E0,-6.650551319E0,-1.642971873E0
2.171545672E1,7.299903870E0,-6.463612080E0,-1.156929731E0
2.173674620E1,7.587341309E0,-6.372684956E0,-1.824527234E-1
2.175803573E1,8.415556908E0,-6.475576401E0,-1.633101404E-1
2.177932526E1,9.900004387E0,-7.205985546E0,-5.273182988E-1
2.180061474E1,1.065882874E1,-7.936095238E0,-4.722833633E-1
2.182190427E1,1.032861900E1,-8.015058517E0,-1.609173268E-1
2.184319375E1,1.015364361E1,-7.708777428E0,-6.373881102E-1
2.186448328E1,1.120947647E1,-8.343173981E0,-1.278963685E0
2.188577281E1,1.199462128E1,-1.028704357E1,-1.264606714E0
2.190706229E1,1.041715336E1,-7.998308659E0,4.950151742E-1
2.192835182E1,1.085025406E1,-7.619943619E0,1.241874933E0
2.194964130E1,1.145623684E1,-8.168199539E0,6.361917257E-1
2.197093083E1,1.211695480E1,-1.038993549E1,1.262213886E-1
2.199222036E1,1.072104168E1,-1.030379295E1,1.788634956E-1
2.201350984E1,9.962218285E0,-9.391828537E0,2.889333367E-1
2.203479938E1,9.109774590E0,-8.062914848E0,4.974080026E-1
2.205608886E1,8.260024071E0,-6.975975513E0,9.762716293E-1
2.207737839E1,7.208976269E0,-6.279364586E0,7.654041648E-1
2.209866787E1,6.023931026E0,-5.958427429E0,4.591228366E-1
2.211995740E1,5.437390327E0,-5.819643974E0,6.529414654E-1
2.214124688E1,5.547460079E0,-6.578766823E0,8.132606149E-1
2.216253641E1,5.049454212E0,-6.940083027E0,8.563314080E-1
2.218382589E1,4.288237095E0,-7.323233604E0,5.237290859E-1
2.220511542E1,3.349652529E0,-7.481160164E0,1.716850251E-1
2.222640495E1,2.782254457E0,-7.399804115E0,-4.603192508E-1
2.224769443E1,2.775076151E0,-7.210771084E0,-1.097109199E0
2.226898396E1,3.002394199E0,-6.731907368E0,-1.329213023E0
2.229027344E1,3.960121393E0,-7.100701332E0,-1.302891970E0
2.231156297E1,4.795814991E0,-8.082057953E0,-1.046859860E0
2.233285245E1,4.695017338E0,-8.254639626E0,-1.166501045E0
2.235414198E1,5.231308460E0,-8.877073288E0,-1.437189102E0
2.237543146E1,6.842575550E0,-1.062951660E1,-1.935195327E0
2.239672099E1,6.337390900E0,-1.083529949E1,-2.330011129E0
2.241801047E1,4.345664978E0,-8.642276764E0,-8.099704385E-1
2.243930000E1,4.836492538E0,-6.940083027E0,1.546062589E0
2.246058948E1,7.213762283E0,-7.665706635E0,2.192423820E0
2.248187901E1,1.037886810E1,-8.156234741E0,2.510669231E0
2.250316849E1,1.177687454E1,-7.761419296E0,2.905783892E0
2.252445802E1,1.010818005E1,-6.389434814E0,2.611466885E0
2.254574750E1,7.292725086E0,-5.283352375E0,7.366902828E-1
2.256703703E1,5.810670853E0,-4.596313000E0,-8.554341197E-1
2.258832651E1,5.387141228E0,-4.469493389E0,-1.985444546E0
2.260961599E1,5.147559643E0,-4.641777039E0,-2.112264156E0
2.263090552E1,4.987240791E0,-4.759025097E0,-8.961120844E-1
2.265219500E1,4.558626175E0,-5.010570526E0,-1.680957973E-1
2.267348453E1,4.235595226E0,-5.381458282E0,-5.105685592E-1
2.269477401E1,4.898705959E0,-5.752644539E0,-1.422832131E0
2.271606354E1,6.311069489E0,-6.035296917E0,-2.095514536E0
2.273735302E1,7.608876705E0,-5.822036743E0,-1.283749342E0
2.275864250E1,9.128917694E0,-5.848357677E0,-7.956135273E-1
2.277993203E1,1.021585751E1,-6.554838657E0,-5.129613280E-1
2.280122151E1,9.861719131E0,-6.999903679E0,2.793620527E-1
2.282251104E1,9.220144272E0,-7.318448067E0,1.071984529E0
2.284380052E1,9.411569595E0,-7.454838753E0,1.239482164E0
2.286509000E1,1.073539925E1,-8.680562019E0,6.026921868E-1
2.288637953E1,1.228684521E1,-1.064148045E1,-1.130608693E-1
2.290766901E1,1.167159081E1,-9.384650230E0,-1.369891018E-1
2.292895849E1,1.216720390E1,-9.271888733E0,2.195414752E-1
2.295024802E1,1.301695538E1,-1.048833942E1,3.658027649E-1
2.297153750E1,1.243519974E1,-1.125434208E1,7.247261405E-1
2.299282698E1,1.050329494E1,-1.063669491E1,1.430907965E0
2.301411651E1,8.700602531E0,-9.425328255E0,1.991127491E0
2.303540599E1,7.101299286E0,-8.072485924E0,2.829213619E0
2.305669547E1,5.976074696E0,-6.987939358E0,2.656930447E0
2.307798495E1,5.468497276E0,-6.269793510E0,1.787737608E0
2.309927448E1,5.401497841E0,-5.896214008E0,9.930213690E-1
2.312056396E1,5.348855972E0,-5.953641891E0,5.715855360E-1
2.314185344E1,4.752744198E0,-6.018547058E0,2.865405083E-1
2.316314292E1,4.159024715E0,-6.358327866E0,-1.680957973E-1
2.318443245E1,3.548256874E0,-6.705586433E0,-8.338986635E-1
2.320572193E1,2.964108944E0,-7.009474754E0,-1.365404367E0
2.322701141E1,2.679363251E0,-6.932904720E0,-1.834397674E0
2.324830094E1,2.949752092E0,-6.985546589E0,-2.361117840E0
2.326959042E1,3.639483213E0,-7.339983463E0,-2.588735104E0
2.329087990E1,4.364807606E0,-8.189734459E0,-2.507379055E0
2.331216938E1,4.953741074E0,-8.642276764E0,-1.729113460E0
2.333345886E1,5.423033237E0,-8.704490662E0,-9.894321561E-1
2.335474833E1,6.536293983E0,-1.001665497E1,-6.493522525E-1
2.337603786E1,6.694220543E0,-1.066540909E1,-1.226321608E-1
2.339732734E1,5.521139145E0,-9.250352859E0,8.754739761E-1
2.341861682E1,5.604887962E0,-7.873881817E0,1.902593136E0
2.343990630E1,7.235297680E0,-8.259425163E0,2.017448664E0
2.346119578E1,9.311071396E0,-8.865108490E0,1.392622828E0
2.348248526E1,9.794720650E0,-8.383852005E0,8.682954907E-1
2.350377474E1,8.439485550E0,-7.127022266E0,4.064807594E-1
2.352506422E1,6.387938976E0,-5.676074505E0,-5.129613280E-1
2.354635375E1,5.669494152E0,-4.821238518E0,-1.099501967E0
2.356764323E1,5.772385597E0,-4.464707851E0,-1.343868971E0
2.358893271E1,5.470890045E0,-4.481457710E0,-1.006181955E0
2.361022219E1,5.044668198E0,-5.024927616E0,-4.196412563E-1
2.363151167E1,4.316951275E0,-5.230710506E0,-2.210369855E-1
2.365280115E1,4.118047714E0,-5.463113308E0,-6.780661345E-1
2.367409062E1,5.231308460E0,-5.939284801E0,-1.223928809E0
2.369538010E1,7.074978352E0,-6.241079807E0,-1.121037364E0
2.371666958E1,8.286344528E0,-6.226722717E0,-6.541379094E-1
2.373795906E1,8.932705879E0,-5.857928753E0,2.554338276E-1
2.375924854E1,9.883255005E0,-5.869893074E0,6.098706722E-1
2.378053802E1,1.132433224E1,-6.729514599E0,2.530409992E-1
2.380182750E1,1.165962696E1,-7.629515171E0,7.749754190E-1
2.382311698E1,1.138654518E1,-7.938488007E0,9.332008362E-1
2.384440646E1,1.166201973E1,-8.273782730E0,1.142572835E-1
2.386569594E1,1.319910908E1,-1.092861938E1,-9.918249846E-1
2.388698542E1,1.235145092E1,-9.731609344E0,-1.214357495E0
2.390827490E1,1.152562809E1,-7.663313389E0,3.290131316E-2
2.392956438E1,1.223181057E1,-8.582456589E0,3.825525343E-1
2.395085386E1,1.210020542E1,-1.030379295E1,6.768696904E-1
2.397214328E1,1.061575794E1,-1.073001480E1,9.906286001E-1
2.399343276E1,9.071489334E0,-9.971191406E0,1.110269666E0
2.401472224E1,7.632805347E0,-8.575278282E0,1.280160069E0
2.403601172E1,6.871289253E0,-7.385447025E0,1.541276932E0
2.405730120E1,6.440581322E0,-6.451648235E0,1.572383523E0
2.407859068E1,6.019145489E0,-6.028118610E0,1.086341500E0
2.409988016E1,5.899504185E0,-5.963512421E0,4.399802685E-1
2.412116958E1,5.439783096E0,-6.126224041E0,2.811566554E-2
2.414245906E1,4.958526611E0,-6.432505608E0,-3.478565812E-1
2.416374854E1,4.436592102E0,-6.734300137E0,-8.267202377E-1
2.418503802E1,3.974478483E0,-7.042974472E0,-1.492223978E0
2.420632750E1,3.610769272E0,-7.368697166E0,-2.062014818E0
2.422761693E1,3.186940670E0,-7.179664135E0,-2.322832584E0
2.424890641E1,3.416651726E0,-7.294519901E0,-2.624627352E0
2.427019589E1,4.257130623E0,-8.038987160E0,-2.942872763E0
2.429148536E1,4.608875751E0,-8.582456589E0,-2.739482880E0
2.431277479E1,4.872385025E0,-9.078069687E0,-1.638186216E0
2.433406427E1,5.051846981E0,-8.912964821E0,-4.986044168E-1
2.435535375E1,5.769992828E0,-9.784252167E0,3.529413417E-2
2.437664318E1,5.583352566E0,-9.391828537E0,7.223333120E-1
2.439793266E1,5.226522923E0,-8.335995674E0,1.785344839E0
2.441922214E1,5.909075737E0,-8.172985077E0,2.431705952E0
2.444051156E1,7.309474945E0,-8.627920151E0,1.998306036E0
2.446180104E1,8.063512802E0,-8.596813202E0,8.084749579E-1
2.448309052E1,7.912765503E0,-7.747062206E0,-1.776670814E-1
2.450437995E1,6.890431881E0,-6.360720634E0,-7.426723242E-1
2.452566943E1,6.313462734E0,-5.312066078E0,-7.737790346E-1
2.454695886E1,6.296712875E0,-4.663312435E0,-6.373881102E-1
2.456824833E1,6.150750637E0,-4.246662140E0,-7.860422134E-1
2.458953781E1,5.803492069E0,-4.447957993E0,-1.054038405E0
2.461082724E1,5.298606873E0,-4.881358147E0,-9.750752449E-1
2.463211672E1,5.135595798E0,-5.518147945E0,-7.666005492E-1
2.465340615E1,5.344070435E0,-6.068796635E0,-9.272187948E-1
2.467469563E1,6.136393547E0,-6.633801460E0,-1.415653706E0
2.469598505E1,7.347760201E0,-7.074080944E0,-1.176072359E0
2.471727453E1,7.994121552E0,-6.741478920E0,-4.627120793E-1
2.473856396E1,8.939884186E0,-6.095117569E0,3.873381615E-1
2.475985344E1,1.082393360E1,-6.064010620E0,2.267199457E-1
2.478114287E1,1.262931824E1,-6.968796730E0,1.980060786E-1
2.480243234E1,1.331157112E1,-7.881060600E0,6.146563292E-1
2.482372177E1,1.296431351E1,-8.153841972E0,2.051845491E-1
2.484501125E1,1.272503090E1,-8.458029747E0,-8.458628058E-1
2.486630068E1,1.352931786E1,-1.005254745E1,-1.733899117E0
2.488759010E1,1.213609695E1,-8.659027100E0,-1.266999602E0
2.490887958E1,1.143948650E1,-8.098807335E0,-4.268197417E-1
2.493016901E1,1.159262753E1,-9.710074425E0,-2.258226424E-1
2.495145844E1,1.111854935E1,-1.105334473E1,-1.609173268E-1
2.497274792E1,9.602995872E0,-1.080419254E1,-1.345962733E-1
2.499403734E1,8.525627136E0,-9.611968994E0,2.458625287E-1
2.501532682E1,7.864908695E0,-8.345566750E0,5.500500798E-1
2.503661625E1,7.146762848E0,-7.160521984E0,1.332802176E0
2.505790568E1,6.402296066E0,-6.291328907E0,1.639382601E0
2.507919516E1,5.793920994E0,-5.908178329E0,1.191625714E0
2.510048458E1,5.492425442E0,-5.994618893E0,6.912266612E-1
2.512177401E1,4.850849628E0,-6.253043652E0,2.506481707E-1
2.514306344E1,4.494019985E0,-6.815656185E0,-2.159522474E-1
2.516435292E1,3.814159393E0,-7.189235687E0,-1.001396298E0
2.518564234E1,3.196511984E0,-7.265805721E0,-1.736291885E0
2.520693177E1,2.854039192E0,-7.296912670E0,-2.105085611E0
2.522822120E1,3.141477108E0,-7.512266636E0,-2.452044964E0
2.524951068E1,3.795016766E0,-7.924131393E0,-2.780160904E0
2.527080011E1,4.707280159E0,-8.702097893E0,-2.562413931E0
2.529208953E1,5.135595798E0,-9.207282066E0,-1.326820135E0
2.531337896E1,5.169095039E0,-8.790931702E0,8.554340899E-2
2.533466839E1,6.301498413E0,-9.884750366E0,1.038485050E0
2.535595786E1,6.823432922E0,-1.065583706E1,1.198804140E0
2.537724729E1,5.540281773E0,-9.511469841E0,1.229910851E0
2.539853672E1,5.576174259E0,-8.462815285E0,1.351944804E0
2.541982615E1,6.679863453E0,-8.259425163E0,7.390831113E-1
2.544111557E1,7.553842068E0,-8.453244209E0,1.525424421E-1
2.546240500E1,7.508079052E0,-7.881060600E0,1.357926875E-1
2.548369443E1,7.122834682E0,-6.674479485E0,6.580262445E-3
2.550498386E1,6.452545166E0,-5.247459888E0,-6.732804775E-1
2.552627328E1,5.842076302E0,-4.165306091E0,-1.202393413E0
2.554756271E1,5.262415409E0,-3.799204111E0,-1.590329766E0
2.556885219E1,4.587339878E0,-4.052843571E0,-1.750648856E0
2.559014162E1,4.110869408E0,-4.651348114E0,-1.678864241E0
2.561143104E1,3.814159393E0,-5.314459324E0,-1.700399637E0
2.563272042E1,3.847658873E0,-6.016154289E0,-1.523330688E0
2.565400990E1,5.006382942E0,-6.861119747E0,-7.115656137E-1
2.567529932E1,6.818647385E0,-7.344769001E0,-1.298106313E-1
2.569658875E1,8.832207680E0,-7.158128738E0,1.238285750E-1
2.571787813E1,1.058943653E1,-6.983153820E0,1.980060786E-1
2.573916755E1,1.204277706E1,-7.066902637E0,4.486542568E-2
2.576045698E1,1.293799210E1,-7.869096279E0,1.094716340E-1
2.578174641E1,1.257667542E1,-8.381459236E0,7.582256794E-1
2.580303583E1,1.169073296E1,-8.163414001E0,8.754739761E-1
2.582432526E1,1.222463131E1,-8.400602341E0,4.016951025E-1
2.584561469E1,1.362263870E1,-1.033489990E1,-1.824527234E-1
2.586690412E1,1.221506023E1,-8.513064384E0,5.739783049E-1
2.588819354E1,1.200449181E1,-8.065307617E0,8.371888399E-1
2.590948297E1,1.256710434E1,-9.705288887E0,-2.691925503E-2
2.593077240E1,1.203081322E1,-1.110598755E1,-8.051848412E-1
2.595206177E1,1.090319538E1,-1.119452190E1,-9.966106415E-1
2.597335120E1,9.698708534E0,-1.028943634E1,-7.283154130E-1
2.599464063E1,8.537590981E0,-8.826823235E0,3.080759048E-1
2.601593005E1,7.539484978E0,-7.268198967E0,1.275374413E0
2.603721948E1,6.722934246E0,-6.343971252E0,1.670489311E0
2.605850886E1,6.114858150E0,-5.819643974E0,1.481456280E0
2.607979828E1,5.786742687E0,-6.202794552E0,1.014556766E0
2.610108771E1,5.140381336E0,-6.820441723E0,6.864410043E-1
2.612237708E1,4.494019985E0,-7.440482140E0,7.606185079E-1
2.614366651E1,3.661018610E0,-7.763812065E0,1.238285750E-1
2.616495594E1,3.112763166E0,-7.955237865E0,-1.223928809E0
2.618624536E1,2.988037348E0,-8.046165466E0,-2.234298229E0
2.620753479E1,2.822932482E0,-7.804490089E0,-2.758625507E0
2.622882417E1,3.438187122E0,-7.826025486E0,-2.782553673E0
2.625011359E1,4.661517620E0,-8.532207489E0,-2.248655081E0
2.627140297E1,4.898705959E0,-9.056534767E0,-1.520937920E0
2.629269240E1,4.628017902E0,-8.666205406E0,-1.872383654E-1
2.631398182E1,5.525924683E0,-9.781859398E0,8.491529226E-1
2.633527120E1,5.542674541E0,-1.027029419E1,1.272981644E0
2.635656062E1,4.474877357E0,-9.183354378E0,1.696810365E0
2.637785005E1,5.078167915E0,-8.654241562E0,2.099103689E0
2.639913943E1,6.521937370E0,-9.152247429E0,1.349551916E0
2.642042886E1,7.826623917E0,-9.573683739E0,5.524429083E-1
2.644171823E1,7.539484978E0,-8.446065903E0,-8.434699476E-2
2.646300766E1,6.734898567E0,-6.853941441E0,-3.957130313E-1
2.648429703E1,6.086144447E0,-5.333601475E0,-4.507479668E-1
2.650558646E1,5.669494152E0,-4.694418907E0,-7.139584422E-1
2.652687583E1,5.197809219E0,-4.359423637E0,-5.656034350E-1
2.654816526E1,4.407878399E0,-4.419244289E0,-6.278168559E-1
2.656945464E1,3.857230186E0,-4.979464054E0,-7.450651526E-1
2.659074406E1,3.282653570E0,-5.424828053E0,-7.115656137E-1
2.661203344E1,3.804588079E0,-6.071189404E0,-7.737790346E-1
2.663332286E1,6.050251961E0,-6.739085674E0,-4.866403043E-1
2.665461224E1,8.003692627E0,-7.004689217E0,-1.188036442E0
2.667590167E1,9.069096565E0,-6.887440681E0,-1.475474238E0
2.669719104E1,9.586245537E0,-6.530910492E0,-8.865407705E-1
2.671848047E1,1.038604641E1,-6.605087757E0,-6.613163352E-1
2.673976984E1,1.160459137E1,-7.198806763E0,-1.130608693E-1
2.676105927E1,1.230598736E1,-7.842775345E0,1.225125194E0
2.678234865E1,1.232513046E1,-7.864310741E0,1.368694544E0
2.680363802E1,1.236820126E1,-7.464410305E0,-7.163512707E-1
2.682492745E1,1.403928852E1,-8.879466057E0,-1.963909149E0
2.684621682E1,1.452772331E1,-1.034447098E1,-1.999801517E0
2.686750620E1,1.236341572E1,-8.917751312E0,-8.841479421E-1
2.688879562E1,1.188933754E1,-9.564111710E0,-6.421737671E-1
2.691008500E1,1.166919804E1,-1.118494987E1,-9.200403094E-1
2.693137438E1,1.022782135E1,-1.142423248E1,-9.296116233E-1
2.695266380E1,8.844171524E0,-1.092383385E1,-8.434699476E-2
2.697395318E1,7.625626564E0,-9.396614075E0,1.287338614E0
2.699524255E1,7.256833076E0,-8.082057953E0,2.491526604E0
2.701653193E1,6.782754898E0,-6.703193665E0,3.023032188E0
2.703782136E1,6.708577156E0,-6.080760479E0,2.474776745E0
2.705911073E1,6.370890141E0,-6.064010620E0,8.371888399E-1
2.708040011E1,5.528317451E0,-6.190830231E0,1.214357466E-1
2.710168948E1,5.015954494E0,-6.485147476E0,2.865405083E-1
2.712297891E1,4.553840637E0,-6.990332127E0,1.286142170E-1
2.714426828E1,4.022335052E0,-7.500302792E0,-4.770690203E-1
2.716555766E1,3.387937784E0,-7.964809418E0,-1.312463164E0
2.718684703E1,2.916252613E0,-7.790132999E0,-1.765005827E0
2.720813641E1,3.002394199E0,-7.668099403E0,-2.081157446E0
2.722942578E1,3.651447296E0,-8.053343773E0,-2.349153519E0
2.725071521E1,4.362414837E0,-8.881858826E0,-1.889432549E0
2.727200458E1,4.261916161E0,-9.104391098E0,-1.192822099E0
2.729329396E1,3.766302824E0,-8.278568268E0,-2.258226424E-1
2.731458333E1,4.898705959E0,-9.176176071E0,5.333003402E-1
2.733587271E1,5.401497841E0,-9.834501266E0,9.092726111E-1
2.735716208E1,5.279464245E0,-9.391828537E0,5.572285652E-1
2.737845146E1,5.849255085E0,-8.479565620E0,-1.585244983E-1
2.739974083E1,6.287141323E0,-8.443673134E0,-6.182455420E-1
2.742103021E1,6.351747513E0,-8.912964821E0,3.272185028E-1
2.744231958E1,6.474080563E0,-8.630312920E0,1.574776411E0
2.746360896E1,6.878467560E0,-7.694420338E0,2.120639086E0
2.748489833E1,6.849753857E0,-6.542874336E0,1.689631939E0
2.750618771E1,6.555436611E0,-5.489434242E0,8.754739761E-1
2.752747708E1,6.078966141E0,-4.785346031E0,3.290131316E-2
2.754876646E1,5.492425442E0,-4.656133652E0,-6.780661345E-1
2.757005583E1,5.063810825E0,-4.850251675E0,-1.142572761E0
2.759134521E1,5.140381336E0,-5.460720539E0,-1.559223056E0
2.761263458E1,5.396712303E0,-5.989833355E0,-1.944766641E0
2.763392396E1,5.365605831E0,-6.533303261E0,-2.413759947E0
2.765521333E1,5.236093998E0,-6.959225655E0,-1.944766641E0
2.767650271E1,6.076572895E0,-7.332805157E0,-8.434699774E-1
2.769779208E1,7.742875099E0,-7.332805157E0,8.554340899E-2
2.771908146E1,9.849755287E0,-7.141379356E0,-5.982056609E-4
2.774037078E1,1.150648594E1,-7.421339512E0,1.381855011E-1
2.776166016E1,1.192762280E1,-7.607979774E0,6.337988973E-1
2.778294953E1,1.202602768E1,-7.866703510E0,8.946165442E-1
2.780423891E1,1.202363491E1,-7.682456017E0,6.457630396E-1
2.782552828E1,1.270828152E1,-8.158627510E0,-7.776673418E-3
2.784681766E1,1.386939812E1,-1.014586735E1,-5.464608669E-1
2.786810703E1,1.278485107E1,-8.391031265E0,-3.430709541E-1
2.788939636E1,1.223898888E1,-7.909774303E0,6.337988973E-1
2.791068573E1,1.192283726E1,-9.027820587E0,9.954141974E-1
2.793197511E1,1.104915810E1,-1.060558796E1,5.787639618E-1
2.795326448E1,9.911968231E0,-1.143141079E1,8.075776696E-2
2.797455386E1,8.681459427E0,-1.088794136E1,4.830510616E-1
2.799584318E1,7.872087479E0,-9.894620895E0,1.337587833E0
2.801713255E1,7.419544697E0,-8.661419868E0,1.859522343E0
2.803842193E1,6.902396202E0,-7.610372543E0,1.536491275E0
2.805971125E1,6.246463299E0,-6.949654102E0,1.055234790E0
2.808100062E1,5.635994434E0,-6.693622112E0,4.926223755E-1
2.810229000E1,5.442175865E0,-6.983153820E0,1.026520967E0
2.812357932E1,4.881956577E0,-7.313662529E0,9.619147182E-1
2.814486870E1,4.517948151E0,-7.756633759E0,6.696912646E-1
2.816615807E1,4.048655987E0,-8.209176064E0,1.136590727E-2
2.818744745E1,3.529114246E0,-8.017451286E0,-6.828517914E-1
2.820873677E1,3.337688446E0,-8.156234741E0,-1.528116345E0
2.823002615E1,3.399901867E0,-8.312067986E0,-2.136192322E0
2.825131547E1,3.584448338E0,-8.807681084E0,-2.493022203E0
2.827260484E1,3.421437263E0,-8.996713638E0,-2.603091955E0
2.829389422E1,3.218047380E0,-8.999106407E0,-2.322832584E0
2.831518354E1,3.933800459E0,-9.104391098E0,-5.799604058E-1
2.833647292E1,4.838885784E0,-9.734002113E0,3.825525343E-1
2.835776224E1,4.781457901E0,-9.391828537E0,1.141376376E0
2.837905162E1,4.879563808E0,-8.125128746E0,1.900200248E0
2.840034094E1,6.215356827E0,-7.768597603E0,9.619147182E-1
2.842163031E1,7.015157700E0,-8.105985641E0,-2.712862790E-1
2.844291964E1,7.019943237E0,-8.077271461E0,-5.632106066E-1
2.846420901E1,6.694220543E0,-7.540980339E0,-7.956135273E-2
2.848549833E1,6.160321712E0,-6.547659874E0,3.080759048E-1
2.850678771E1,5.913861275E0,-5.790929794E0,3.391826153E-1
2.852807703E1,5.899504185E0,-5.321637630E0,-1.202393398E-1
2.854936641E1,5.612066269E0,-5.178068161E0,-7.378866673E-1
2.857065573E1,5.109274387E0,-5.451148987E0,-1.231107235E0
2.859194510E1,4.819743156E0,-6.023332596E0,-1.135394335E0
2.861323443E1,4.920241356E0,-6.648158550E0,-9.176474810E-1
2.863452380E1,5.358427048E0,-7.146164894E0,-8.482556343E-1
2.865581312E1,6.466902256E0,-7.617550850E0,-6.708876491E-1
2.867710245E1,7.785945892E0,-7.485945702E0,-4.842474759E-1
2.869839182E1,9.193822861E0,-6.942475796E0,-3.933202326E-1
2.871968115E1,1.001964569E1,-6.322435856E0,-6.326025128E-1
2.874097052E1,1.117837048E1,-6.753442764E0,-6.206383705E-1
2.876225984E1,1.201645660E1,-7.619943619E0,3.490529954E-1
2.878354917E1,1.222941780E1,-8.462815285E0,1.287338614E0
2.880483854E1,1.180080318E1,-8.649456024E0,1.062413216E0
2.882612786E1,1.247587776E1,-9.879964828E0,-5.802594870E-2
2.884741719E1,1.305284786E1,-1.136201954E1,-9.320043921E-1
2.886870656E1,1.206192017E1,-9.159425735E0,-4.339981973E-1
2.888999589E1,1.206670570E1,-8.010272980E0,2.769692242E-1
2.891128521E1,1.192523003E1,-8.812466621E0,3.562314808E-1
2.893257453E1,1.078564835E1,-9.997511864E0,1.932204217E-1
2.895386391E1,9.476176262E0,-1.030857944E1,1.549352705E-1
2.897515323E1,8.484949112E0,-9.932906151E0,-4.606183618E-2
2.899644255E1,7.249654293E0,-8.817252159E0,-7.238288224E-2
2.901773188E1,6.519544601E0,-7.759026527E0,3.490529954E-1
2.903902125E1,5.990431309E0,-6.820441723E0,7.558328509E-1
2.906031057E1,5.779563904E0,-6.322435856E0,8.180462122E-1
2.908159990E1,5.576174259E0,-6.300900459E0,5.644070506E-1
2.910288922E1,5.351248741E0,-6.516254425E0,4.136592150E-1
2.912417854E1,4.822135925E0,-6.832406044E0,7.118647546E-2
2.914546792E1,4.494019985E0,-7.177271366E0,-3.334996700E-1
2.916675724E1,4.316951275E0,-7.737491131E0,-6.254240274E-1
2.918804656E1,4.034298897E0,-8.022236824E0,-1.020538807E0
2.920933589E1,3.907479286E0,-8.003094673E0,-1.717149377E0
2.923062521E1,3.948157310E0,-8.146663666E0,-2.131406784E0
2.925191453E1,4.230809689E0,-9.195318222E0,-2.270190477E0
2.927320391E1,4.041477680E0,-1.002383327E1,-1.995015860E0
2.929449323E1,3.179762125E0,-9.382257462E0,-4.866403043E-1
2.931578255E1,4.031906128E0,-9.458827972E0,1.158126116E0
2.933707188E1,5.382355213E0,-9.954441071E0,1.620239973E0
2.935836120E1,5.540281773E0,-9.221639633E0,1.263410330E0
2.937965052E1,5.094917774E0,-7.802097321E0,8.443672657E-1
2.940093984E1,5.533103466E0,-8.005487442E0,3.729812205E-1
2.942222917E1,6.002395630E0,-8.953642845E0,4.160520434E-1
2.944351849E1,5.913861275E0,-8.996713638E0,7.845467329E-1
2.946480781E1,5.940182209E0,-8.137092590E0,8.324031830E-1
2.948609714E1,5.767600060E0,-6.672086716E0,3.897309899E-1
2.950738646E1,5.851647854E0,-5.621039391E0,-1.824527234E-1
2.952867578E1,5.913861275E0,-5.072783947E0,-6.828517914E-1
2.954996511E1,5.849255085E0,-4.965106964E0,-7.932206988E-1
2.957125443E1,5.724529266E0,-5.209175110E0,-8.769695163E-1
2.959254375E1,5.509174824E0,-5.759823322E0,-1.580758452E0
2.961383307E1,5.312963486E0,-6.542874336E0,-1.731506228E0
2.963512240E1,5.470890045E0,-7.452445984E0,-1.164108157E0
2.965641172E1,6.622435570E0,-7.715955734E0,-8.721838593E-1
2.967770104E1,7.785945892E0,-7.684848785E0,-1.192822099E0
2.969899031E1,8.190631866E0,-7.229913712E0,-6.756733060E-1
2.972027964E1,8.741280556E0,-6.672086716E0,5.045864582E-1
2.974156896E1,1.020149994E1,-6.964011192E0,1.213161111E0
2.976285828E1,1.158305645E1,-7.533802032E0,1.646561027E0
2.978414760E1,1.267478180E1,-8.120343208E0,1.440479279E0
2.980543693E1,1.281356525E1,-8.364709854E0,6.161518395E-2
2.982672625E1,1.318475151E1,-9.336793900E0,-1.336391449E0
2.984801557E1,1.379761314E1,-1.197966671E1,-1.571187139E0
2.986930484E1,1.176969624E1,-9.868000984E0,8.973085321E-3
2.989059417E1,1.134826088E1,-8.599205971E0,1.282552958E0
2.991188349E1,1.137936687E1,-9.384650230E0,1.893021822E0
2.993317193E1,1.033579731E1,-1.048833942E1,1.759023786E0
2.995446214E1,8.793922424E0,-1.081137085E1,1.406979680E0
2.997575141E1,7.268796921E0,-1.006211853E1,1.347159147E0
2.999704073E1,6.327819347E0,-8.996713638E0,9.164510965E-1
3.001833005E1,6.045466423E0,-8.060522079E0,7.462615371E-1
3.003961938E1,6.126822472E0,-7.198806763E0,5.548357368E-1
3.006090865E1,5.877968788E0,-6.573981285E0,3.272185028E-1
3.008219797E1,5.456532955E0,-6.279364586E0,5.682953820E-2
3.010348729E1,5.008776188E0,-6.351149559E0,1.190429255E-1
3.012477656E1,4.438984871E0,-6.554838657E0,-3.454637825E-1
3.014606589E1,4.190131664E0,-6.990332127E0,-3.430709541E-1
3.016735521E1,3.653840065E0,-7.493124008E0,-3.239283562E-1
3.018864448E1,3.299403429E0,-7.826025486E0,-5.321039557E-1
3.020993380E1,2.736790895E0,-7.548159122E0,-7.139584422E-1
3.023122313E1,2.906681299E0,-7.586444378E0,-1.463510156E0
3.025251240E1,3.576970816E0,-8.273782730E0,-1.891825438E0
3.027380172E1,4.374378681E0,-9.075676918E0,-1.609472275E0
3.029509104E1,4.556233406E0,-9.168996811E0,-8.650053740E-1
3.031638031E1,5.073382378E0,-9.549755096E0,1.375873014E-2
3.033766964E1,5.880361557E0,-1.062233829E1,4.187439568E-3
3.035895891E1,5.439783096E0,-1.004297543E1,2.602194548E-1
3.038024823E1,4.692624092E0,-8.350353241E0,1.510170221E0
3.040153755E1,5.506782055E0,-7.617550850E0,2.664108992E0
3.042282682E1,7.745267868E0,-8.381459236E0,2.539382935E0
3.044411615E1,9.095417976E0,-8.714061737E0,1.201196909E0
3.046540542E1,8.652746201E0,-8.024629593E0,-5.009972453E-1
3.048669474E1,6.770790577E0,-6.830013275E0,-1.473081470E0
3.050798401E1,5.451747417E0,-5.812465191E0,-1.633400559E0
3.052927333E1,5.075775146E0,-5.465506077E0,-1.333998680E0
3.055056261E1,4.874777794E0,-5.084748268E0,-4.794618487E-1
3.057185193E1,4.680660248E0,-5.053641319E0,-7.716853172E-2
3.059314120E1,4.417449474E0,-5.367101192E0,-7.477571070E-2
3.061443052E1,4.348057747E0,-5.738287926E0,-1.513460279E-1
3.063571979E1,4.230809689E0,-5.973083496E0,-5.321039557E-1
3.065700912E1,4.886742115E0,-6.499504566E0,-1.027717352E0
3.067829839E1,6.370890141E0,-6.928118706E0,-1.200000525E0
3.069958766E1,7.476972580E0,-6.916154861E0,-8.195417523E-1
3.072087698E1,8.643174171E0,-6.504290104E0,-4.435695112E-1
3.074216625E1,9.681958199E0,-6.487540245E0,-4.411766827E-1
3.076345557E1,1.094148064E1,-7.217949390E0,-3.789632916E-1
3.078474484E1,1.171226883E1,-8.012665749E0,-9.631111473E-2
3.080603417E1,1.236820126E1,-8.661419868E0,-1.441675574E-1
3.082732344E1,1.337857056E1,-9.607182503E0,-5.727819204E-1
3.084861271E1,1.465215015E1,-1.216660595E1,-1.681257010E0
3.086990203E1,1.284227943E1,-1.037079239E1,-1.123430252E0
3.089119130E1,1.164048386E1,-8.922536850E0,6.242275834E-1
3.091248057E1,1.149691486E1,-9.942477226E0,1.737488389E0
3.093376990E1,1.072821999E1,-1.119452190E1,1.579562068E0
3.095505917E1,9.069096565E0,-1.112034416E1,1.028913736E0
3.097634844E1,7.474579811E0,-9.879964828E0,7.486543655E-1
3.099763776E1,6.387938976E0,-8.295317650E0,6.074778438E-1
3.101892703E1,6.043073654E0,-7.021439075E0,6.912266612E-1
3.104021630E1,5.894718647E0,-6.068796635E0,5.524429083E-1
3.106150557E1,5.676672459E0,-5.676074505E0,4.854438901E-1
3.108279490E1,5.356034279E0,-5.721538067E0,3.490529954E-1
3.110408417E1,5.066203594E0,-5.944070339E0,1.645065546E-1
3.112537344E1,4.743172646E0,-6.408577442E0,-2.258226424E-1
3.114666276E1,4.395914078E0,-6.882655144E0,-5.775675774E-1
3.116795203E1,4.115654945E0,-7.593622684E0,-1.137787223E0
3.118924130E1,3.704089403E0,-8.053343773E0,-1.415653706E0
3.121053057E1,3.098406315E0,-7.720741272E0,-1.858325839E0
3.123181984E1,3.230011463E0,-7.775776386E0,-2.430509567E0
3.125310917E1,3.936193228E0,-8.472386360E0,-2.713161707E0
3.127439844E1,4.695017338E0,-9.214461327E0,-1.827219248E0
3.129568771E1,4.699802876E0,-9.197710991E0,-4.220340848E-1
3.131697698E1,5.525924683E0,-9.904191971E0,8.850452900E-1
3.133826826E1,5.686244011E0,-1.047637558E1,1.026520967E0
3.135955758E1,4.951348305E0,-9.200103760E0,1.146162033E0
3.138084685E1,4.774279594E0,-7.567301750E0,1.378265858E0
3.140213612E1,6.000002861E0,-7.610372543E0,1.469492197E0
3.142342540E1,7.723732471E0,-8.670990944E0,1.045663476E0
3.144471467E1,7.862515926E0,-8.922536850E0,4.232304990E-1
3.146600394E1,6.825825691E0,-8.062914848E0,-4.866403043E-1
3.148729326E1,6.220142365E0,-6.827620506E0,-9.774680734E-1
3.150858253E1,6.186643124E0,-5.800501347E0,-8.147560954E-1
3.152987180E1,6.153143406E0,-4.926821709E0,-3.933202326E-1
3.155116107E1,5.858826160E0,-4.598706245E0,-3.669991791E-1
3.157245034E1,5.260022163E0,-4.742275238E0,-6.421737671E-1
3.159373961E1,4.884349346E0,-5.175675392E0,-9.918249846E-1
3.161502888E1,4.561018944E0,-5.671288967E0,-8.745766878E-1
3.163631816E1,4.623232365E0,-6.121438503E0,-7.474579811E-1
3.165760748E1,5.516353607E0,-6.705586433E0,-8.530412912E-1
3.167889675E1,6.672685146E0,-6.786942482E0,-7.139584422E-1
3.170018602E1,7.659126282E0,-6.456433773E0,-5.656034350E-1
3.172147529E1,8.982954979E0,-6.276971817E0,-5.009972453E-1
3.174276456E1,1.057507992E1,-6.928118706E0,-7.785646915E-1
3.176405383E1,1.153280735E1,-7.847560883E0,-6.684948206E-1
3.178534310E1,1.202602768E1,-8.826823235E0,-6.206383705E-1
3.180663237E1,1.203559875E1,-9.137890816E0,-9.032905698E-1
3.182792165E1,1.325653648E1,-1.066540909E1,-1.195214868E0
3.184921092E1,1.378086376E1,-1.130219841E1,-1.008574724E0
3.187050019E1,1.205234814E1,-8.711668968E0,7.103692293E-1
3.189178946E1,1.197069359E1,-8.333602905E0,1.524527073E0
3.191307873E1,1.187976646E1,-9.942477226E0,1.093519926E0
3.193436800E1,1.091515923E1,-1.132134151E1,2.506481707E-1
3.195565727E1,9.073882103E0,-1.075394344E1,-2.401795685E-1
3.197694654E1,7.436294556E0,-9.068498611E0,-1.561316848E-1
3.199823586E1,6.864110947E0,-7.545766354E0,5.572285652E-1
3.201952513E1,6.447759628E0,-6.434898376E0,1.402194023E0
3.204081440E1,5.940182209E0,-5.805286884E0,1.749452472E0
3.206210368E1,5.427819252E0,-5.771787167E0,1.342373490E0
3.208339295E1,4.994419098E0,-6.131010056E0,6.481558084E-1
3.210468222E1,4.494019985E0,-6.554838657E0,-5.324030295E-2
3.212597149E1,3.895515203E0,-6.908976078E0,-5.775675774E-1
3.214726076E1,3.579363585E0,-7.416553974E0,-1.370190024E0
3.216855003E1,3.651447296E0,-7.869096279E0,-1.832004786E0
3.218983732E1,3.629911900E0,-7.821239948E0,-2.097907305E0
3.221112659E1,3.615555048E0,-7.462017536E0,-2.277369022E0
3.223241586E1,4.503591537E0,-7.799704552E0,-1.587936878E0
3.225370514E1,4.872385025E0,-9.006285667E0,-8.386843204E-1
3.227499440E1,4.690231323E0,-9.722038269E0,2.811566554E-2
3.229628368E1,4.060619831E0,-9.281459808E0,1.031306505E0
3.231757295E1,4.793421745E0,-9.118747711E0,1.512562990E0
3.233886222E1,5.097310543E0,-8.316853523E0,1.272981644E0
3.236015149E1,5.183452129E0,-7.596015453E0,1.201196909E0
3.238144076E1,5.681458473E0,-7.459624767E0,8.443672657E-1
3.240273003E1,6.940680981E0,-8.589634895E0,3.768695518E-2
3.242401930E1,7.103692055E0,-9.477970123E0,-9.152546525E-1
3.244530857E1,6.301498413E0,-8.960822105E0,-1.144965649E0
3.246659784E1,6.148357868E0,-7.931309700E0,-3.693920076E-1
3.248788711E1,6.272784710E0,-6.779763699E0,8.946165442E-1
3.250917638E1,6.459723949E0,-5.740680695E0,1.174875975E0
3.253046566E1,6.612864494E0,-5.022534847E0,9.188438654E-1
3.255175493E1,6.191428661E0,-4.603491783E0,1.956132501E-1
3.257304415E1,5.724529266E0,-4.886143684E0,-8.123632669E-1
3.259433347E1,5.228915691E0,-5.218746185E0,-1.302891970E0
3.261562269E1,5.116453171E0,-5.874678612E0,-1.501795292E0
3.263691196E1,5.365605831E0,-6.521039963E0,-1.564008713E0
3.265820123E1,6.131608009E0,-6.875476837E0,-1.575972795E0
3.267949050E1,6.943074226E0,-6.789335251E0,-1.183250785E0
3.270077977E1,7.666304588E0,-6.461219311E0,-3.071786165E-1
3.272206904E1,8.528019905E0,-6.219544411E0,7.031907439E-1
3.274335831E1,9.856933594E0,-6.956832886E0,5.428716540E-1
3.276464758E1,1.069232845E1,-7.658527851E0,1.836491376E-1
3.278593685E1,1.109940720E1,-8.694919586E0,-7.618148923E-1
3.280722612E1,1.120708370E1,-8.853144646E0,-1.858325839E0
3.282851540E1,1.238734341E1,-9.812965393E0,-2.167299032E0
3.284980467E1,1.311745358E1,-1.122084236E1,-2.490629196E0
3.287109394E1,1.162134171E1,-9.116354942E0,-1.190429211E0
3.289238321E1,1.138654518E1,-8.036594391E0,3.050848842E-2
3.291367248E1,1.167637634E1,-8.934500694E0,7.677969933E-1
3.293496175E1,1.081914711E1,-1.035643578E1,1.004985452E0
3.295625102E1,9.354142189E0,-1.055294609E1,1.908276081E-1
3.297754029E1,7.709375381E0,-9.418149948E0,-4.052843451E-1
3.299882956E1,6.639185429E0,-8.031807899E0,-8.673982322E-2
3.302011883E1,5.796313763E0,-6.705586433E0,1.004985452E0
3.304140810E1,5.348855972E0,-5.874678612E0,2.012662888E0
3.306269737E1,4.925027370E0,-5.556433201E0,2.546561480E0
3.308398664E1,4.685445786E0,-5.810072422E0,1.639382601E0
3.310527586E1,4.529912472E0,-6.176473618E0,6.529414654E-1
3.312656514E1,4.352843285E0,-6.581159592E0,-7.283154130E-1
3.314785441E1,4.412663937E0,-7.057331085E0,-1.370190024E0
3.316914368E1,4.249952316E0,-7.421339512E0,-1.913659930E0
3.319043295E1,3.905086517E0,-7.531409264E0,-2.136192322E0
3.321172222E1,4.060619831E0,-7.605587006E0,-2.047657967E0
3.323301149E1,4.611268520E0,-8.079665184E0,-1.305284739E0
3.325430076E1,4.453341961E0,-9.034998894E0,-3.574278951E-1
3.327559003E1,4.036691666E0,-9.561718941E0,5.811567903E-1
3.329687930E1,3.852444410E0,-9.264710426E0,1.467099428E0
3.331816857E1,4.865206718E0,-9.477970123E0,1.593919039E0
3.333945784E1,5.274678230E0,-9.643074989E0,4.615156651E-1
3.336074711E1,4.561018944E0,-8.376673698E0,-2.087737769E-1
3.338203638E1,5.013561726E0,-7.619943619E0,3.272185028E-1
3.340332566E1,6.411867142E0,-8.699705124E0,5.715855360E-1
3.342461493E1,7.089335442E0,-9.659825325E0,5.682953820E-2
3.344590414E1,7.472187042E0,-9.281459808E0,-3.574278951E-1
3.346719342E1,8.188239098E0,-7.830811024E0,-8.362914920E-1
3.348848269E1,8.350951195E0,-5.798108578E0,-8.913264275E-1
3.350977196E1,8.597412109E0,-4.304389000E0,-7.689933777E-1
3.353106123E1,8.786744118E0,-3.715455294E0,-2.976073027E-1
3.355235050E1,7.929515362E0,-3.533301830E0,9.272187948E-2
3.357363977E1,6.474080563E0,-4.569992065E0,-7.426723242E-1
3.359492904E1,4.987240791E0,-5.671288967E0,-1.403689623E0
3.361621831E1,3.261118174E0,-6.288936138E0,-1.034895778E0
3.363750758E1,2.169392824E0,-6.449255466E0,-3.717848063E-1
3.365879685E1,2.420639277E0,-6.461219311E0,-1.585244983E-1
3.368008612E1,4.819743156E0,-6.612266064E0,-4.127619043E-2
3.370137540E1,6.677470684E0,-6.377470493E0,6.400800496E-2
3.372266467E1,8.214560509E0,-6.047261238E0,-1.465603858E-1
3.374395394E1,9.837791443E0,-6.253043652E0,-6.541379094E-1
3.376524316E1,1.061097240E1,-7.165307522E0,-1.324427366E0
3.378653243E1,1.068036366E1,-8.134699821E0,-1.829612017E0
3.380782170E1,1.110419273E1,-8.659027100E0,-2.459223509E0
3.382911097E1,1.214806175E1,-9.966405869E0,-2.246262312E0
3.385040024E1,1.262931824E1,-1.129262733E1,-1.721935034E0
3.387168951E1,1.151844978E1,-9.645467758E0,-5.324030295E-2
3.389297878E1,1.111137104E1,-8.347960472E0,1.060020447E0
3.391426805E1,1.175773239E1,-9.281459808E0,8.108677864E-1
3.393555732E1,1.097258759E1,-1.050508976E1,1.854437590E-2
3.395684659E1,9.710672379E0,-1.084247780E1,-5.799604058E-1
3.397813586E1,7.891230106E0,-9.578469276E0,-6.708876491E-1
3.399942514E1,6.675077915E0,-8.074878693E0,-1.489532143E-1
3.402071440E1,5.791528225E0,-6.786942482E0,4.782654345E-1
3.404200368E1,4.843671322E0,-5.685645580E0,8.778668046E-1
3.406329290E1,3.921836376E0,-5.022534847E0,1.330409408E0
3.408458217E1,3.174976587E0,-4.773382187E0,1.660917997E0
3.410587144E1,3.021835804E0,-4.981856823E0,1.435693622E0
3.412716071E1,3.297010422E0,-5.597111225E0,6.529414654E-1
3.414844998E1,3.661018610E0,-6.154938221E0,-7.067800164E-1
3.416973925E1,4.067798615E0,-6.504290104E0,-1.930409670E0
3.419102852E1,4.848456860E0,-7.122236729E0,-3.017050266E0
3.421231779E1,5.647958755E0,-7.964809418E0,-2.684448004E0
3.423360706E1,5.291428089E0,-8.120343208E0,-1.544866085E0
3.425489633E1,5.226522923E0,-8.783752441E0,-2.736790776E-1
3.427618560E1,4.649553299E0,-9.573683739E0,5.309075117E-1
3.429747487E1,3.378366470E0,-9.817750931E0,1.603490233E0
3.431876409E1,1.762313843E0,-9.628718376E0,2.469991207E0
3.434005336E1,1.475175142E0,-1.061994553E1,2.633002281E0
3.436134264E1,2.128714800E0,-1.031097221E1,2.333600283E0
3.438263191E1,4.003192425E0,-9.166604042E0,1.050449133E0
3.440392118E1,8.267202377E0,-9.097212791E0,-1.728814393E-1
3.442521045E1,1.222223854E1,-1.007886791E1,-1.966302037E0
3.444649972E1,1.319671631E1,-1.022722340E1,-2.701197624E0
3.446778899E1,1.111615658E1,-8.771788597E0,-1.896611094E0
3.448907826E1,8.106883049E0,-7.490731239E0,-1.149751306E0
3.451036753E1,6.189035892E0,-6.176473618E0,-1.135394335E0
3.453165680E1,5.351248741E0,-5.860321522E0,-1.501795292E0
3.455294607E1,4.695017338E0,-5.515755177E0,-1.537687659E0
3.457423534E1,3.996013880E0,-5.345565796E0,-1.319641709E0
3.459552456E1,2.753540754E0,-5.398207664E0,-1.006181955E0
3.461681383E1,2.076072693E0,-5.513362408E0,-6.972087026E-1
3.463810310E1,3.404687405E0,-5.680860043E0,-8.913264424E-2
3.465939237E1,6.191428661E0,-6.377470493E0,6.337988973E-1
3.468068164E1,8.655138969E0,-6.131010056E0,5.117649436E-1
3.470197092E1,1.101087284E1,-6.284150600E0,-8.985049129E-1
3.472326019E1,1.177208900E1,-5.647360325E0,-2.353939295E0
3.474454946E1,1.146341515E1,-5.393422127E0,-3.256631613E0
3.476583873E1,1.043868923E1,-5.843572140E0,-3.500699520E0
3.478712800E1,8.760422707E0,-7.184450150E0,-3.452843189E0
3.480841727E1,7.455437183E0,-9.008678436E0,-2.117049932E0
3.482970649E1,6.069394588E0,-9.643074989E0,1.794616925E-3
3.485099576E1,6.327819347E0,-9.947262764E0,1.510170221E0
3.487228503E1,8.549555779E0,-1.084965611E1,1.522134304E0
3.489357430E1,1.045543861E1,-9.925727844E0,1.354337573E0
3.491486357E1,1.188215923E1,-8.577671051E0,1.286142170E-1
3.493615284E1,1.377129269E1,-8.393424034E0,-1.544866085E0
3.495744211E1,1.450140285E1,-9.389435768E0,-2.318047047E0
3.497873138E1,1.275374508E1,-1.050269699E1,-4.220340848E-1
3.500002066E1,1.007228756E1,-1.112752247E1,1.574776411E0
3.502130993E1,7.776374340E0,-1.009322548E1,1.881057739E0
3.504259920E1,6.469295025E0,-8.694919586E0,1.220339537E0
3.506388842E1,5.714957714E0,-7.775776386E0,8.802596331E-1
3.508517769E1,5.102096081E0,-7.141379356E0,1.356730461E0
3.510646696E1,4.427021027E0,-7.105486870E0,1.598704576E0
3.512775623E1,3.694518089E0,-6.875476837E0,1.306481123E0
3.514904550E1,3.282653570E0,-7.009474754E0,6.314060688E-1
3.517033477E1,2.767897606E0,-6.760621071E0,-3.239283562E-1
3.519162404E1,2.583650351E0,-6.660122871E0,-1.748256087E0
3.521291331E1,3.031407118E0,-6.758228302E0,-2.555235386E0
3.523420258E1,3.498007536E0,-7.138986588E0,-2.911766052E0
3.525549185E1,3.797409534E0,-7.440482140E0,-2.260619164E0
3.527678112E1,3.704089403E0,-8.038987160E0,-1.724327803E0
3.529807040E1,3.390330553E0,-8.525029182E0,-5.919244885E-1
3.531935961E1,3.273082256E0,-8.694919586E0,1.213161111E0
3.534064888E1,4.120440483E0,-8.625527382E0,2.510669231E0
3.536193816E1,5.983253002E0,-1.022722340E1,1.811665893E0
3.538322743E1,5.803492069E0,-1.064387321E1,5.476573110E-1
3.540451670E1,4.498805523E0,-9.748359680E0,-2.282154560E-1
3.542580597E1,5.047060966E0,-9.051749229E0,3.032902777E-1
3.544709524E1,6.246463299E0,-8.862715721E0,1.153340459E0
3.546838451E1,7.220940590E0,-8.443673134E0,2.010270119E0
3.548967378E1,8.142775536E0,-7.581658363E0,2.034497499E0
3.551096305E1,8.561519623E0,-6.777370930E0,1.201196909E0
3.553225227E1,8.111668587E0,-5.884250164E0,-2.931207791E-2
3.555354154E1,7.098906517E0,-5.087141037E0,-7.354938388E-1
3.557483081E1,6.294320107E0,-4.912465096E0,-1.336391449E0
3.559612008E1,6.162714481E0,-5.642574787E0,-1.949552298E0
3.561740935E1,5.978467464E0,-6.147759438E0,-2.119442701E0
3.563869862E1,5.499603748E0,-6.956832886E0,-1.997408748E0
3.565998790E1,4.697410107E0,-7.217949390E0,-6.732804775E-1
3.568127717E1,5.164309502E0,-6.971189499E0,6.816553473E-1
3.570256644E1,7.273582458E0,-6.444469452E0,8.276175261E-1
3.572385571E1,1.003639507E1,-5.867500305E0,-2.688934505E-1
3.574514498E1,1.243759346E1,-5.951249123E0,-1.614257932E0
3.576643425E1,1.280877972E1,-6.954440117E0,-2.200798512E0
3.578772347E1,1.043868923E1,-8.304888725E0,-1.733899117E0
3.580901274E1,8.331808090E0,-9.281459808E0,-1.331605792E0
3.583030201E1,7.063014030E0,-8.958429337E0,-1.171286702E0
3.585159128E1,7.115656376E0,-7.869096279E0,-1.480259895E0
3.587288055E1,9.344570160E0,-8.539385796E0,-8.721838593E-1
3.589416982E1,1.053679466E1,-9.964012146E0,-5.751747489E-1
3.591545909E1,9.473783493E0,-9.142676353E0,1.573280841E-1
3.593674836E1,8.920742035E0,-8.484351158E0,-1.010967568E-1
3.595803764E1,9.507282257E0,-9.623932838E0,-8.817551732E-1
3.597932685E1,8.813064575E0,-1.062951660E1,-8.003991842E-1
3.600061612E1,7.632805347E0,-1.064865875E1,3.008974493E-1
3.602190540E1,5.933003902E0,-9.267103195E0,1.943271041E0
3.604319467E1,4.874777794E0,-7.414160728E0,3.245863914E0
3.606448394E1,5.216951370E0,-6.238687038E0,3.683750391E0
3.608577321E1,5.877968788E0,-5.621039391E0,2.963211775E0
3.610706248E1,5.873183250E0,-5.261816978E0,1.670489311E0
3.612835175E1,6.153143406E0,-5.082355499E0,6.864410043E-1
3.614964102E1,7.012764931E0,-5.266602516E0,-2.330010980E-1
3.617093024E1,7.496115208E0,-6.415755749E0,-1.398903966E0
3.619221951E1,6.821040154E0,-7.945666790E0,-1.772184253E0
3.621350878E1,5.933003902E0,-9.233603477E0,-1.568794370E0
3.623479805E1,3.957728624E0,-9.178568840E0,-1.278963685E0
3.625608732E1,2.071287155E0,-8.115556717E0,-9.080761671E-1
3.627737659E1,1.532602906E0,-7.296912670E0,1.357926875E-1
3.629866586E1,3.191726208E0,-7.548159122E0,1.543669701E0
3.631995514E1,4.743172646E0,-8.314460754E0,2.111067772E0
3.634124441E1,5.406283855E0,-9.044570923E0,1.682453394E0
3.636253368E1,5.123631477E0,-8.879466057E0,8.012964725E-1
3.638382290E1,5.640780449E0,-8.879466057E0,-3.191427290E-1
3.640511217E1,6.160321712E0,-8.577671051E0,-1.111466169E0
3.642640144E1,6.732505798E0,-8.304888725E0,-1.444367528E0
3.644769071E1,7.067800045E0,-7.445267677E0,-7.884350419E-1
3.646897998E1,8.298309326E0,-8.319246292E0,-4.914259613E-1
3.649026925E1,8.051548958E0,-8.400602341E0,-4.674977362E-1
3.651155852E1,7.606483936E0,-8.204390526E0,-3.358924687E-1
3.653284774E1,7.402794838E0,-7.363911629E0,-1.010967568E-1
3.655413701E1,7.051050186E0,-6.188437462E0,2.410768867E-1
3.657542628E1,6.438188553E0,-5.175675392E0,-7.956135273E-2
3.659671555E1,5.691029549E0,-4.785346031E0,-6.948158741E-1
3.661800482E1,4.948955536E0,-4.986642361E0,-1.209571838E0
3.663929409E1,3.866801500E0,-5.008177757E0,-1.209571838E0
3.666058336E1,3.234797001E0,-5.388636589E0,-1.278963685E0
3.668187258E1,2.708076954E0,-5.510969639E0,-7.836494446E-1
3.670316185E1,3.442972660E0,-5.896214008E0,-5.225326419E-1
3.672445112E1,5.286642551E0,-6.138188362E0,-6.134598851E-1
3.674574040E1,6.512365818E0,-6.042475224E0,-8.315058947E-1
3.676702967E1,7.649554729E0,-5.951249123E0,-1.192822099E0
3.678831888E1,8.260024071E0,-5.869893074E0,-1.420439363E0
3.680960816E1,8.446663857E0,-5.948856354E0,-1.473081470E0
3.683089743E1,8.693424225E0,-7.076473713E0,-1.971087694E0
3.685218670E1,8.382058144E0,-8.398209572E0,-2.054836512E0
3.687347597E1,8.621339798E0,-9.257532120E0,-1.497009635E0
3.689476524E1,9.787542343E0,-8.991928101E0,-6.876373887E-1
3.691605446E1,1.176969624E1,-1.109402275E1,-1.351047516E0
3.693734373E1,1.230120182E1,-1.111555862E1,-7.307082415E-1
3.695863300E1,1.140329552E1,-8.848359108E0,3.897309899E-1
3.697992227E1,1.138654518E1,-7.761419296E0,6.816553473E-1
3.700121149E1,1.140568829E1,-9.013463974E0,8.754739761E-1
3.702250076E1,9.514460564E0,-1.016740227E1,5.285146832E-1
3.704379003E1,7.747660637E0,-1.046919727E1,1.980060786E-1
3.706507930E1,5.695815086E0,-8.917751312E0,9.272187948E-2
3.708636852E1,4.850849628E0,-7.342376232E0,1.405783296E-1
3.710765779E1,5.080560684E0,-6.085546017E0,9.044869542E-1
3.712894706E1,4.745565414E0,-5.036891460E0,1.852343798E0
3.715023633E1,4.336093903E0,-4.770989418E0,1.775773525E0
3.717152555E1,4.374378681E0,-5.247459888E0,1.208375454E0
3.719281482E1,4.556233406E0,-5.848357677E0,1.621137410E-1
3.721410409E1,4.817350388E0,-6.092724800E0,-1.109073281E0
3.723539331E1,5.257629395E0,-6.542874336E0,-2.062014818E0
3.725668258E1,5.564209938E0,-7.462017536E0,-2.923730135E0
3.727797185E1,4.999204636E0,-8.053343773E0,-3.232703447E0
3.729926112E1,3.972085476E0,-7.974380493E0,-2.306082726E0
3.732055034E1,2.899502754E0,-7.540980339E0,-6.565307379E-1
3.734183961E1,2.997608662E0,-7.897810459E0,1.004985452E0
3.736312888E1,4.180560112E0,-8.841180801E0,1.830808401E0
3.738441810E1,5.116453171E0,-9.082855225E0,1.857129455E0
3.740570737E1,5.954539299E0,-9.544969559E0,1.198804140E0
3.742699659E1,6.356533527E0,-1.063669491E1,-3.191427290E-1
3.744828586E1,6.095715523E0,-1.033729267E1,-1.262213945E0
3.746957514E1,6.141179085E0,-8.630312920E0,-8.267202377E-1
3.749086435E1,7.261618614E0,-7.828418255E0,9.990034252E-2
3.751215362E1,8.765208244E0,-8.007880211E0,6.601199508E-1
3.753344290E1,9.600603104E0,-8.079665184E0,1.893021822E0
3.755473211E1,8.820243835E0,-7.727920055E0,2.314457655E0
3.757602139E1,7.833802223E0,-7.368697166E0,1.308874011E0
3.759731060E1,6.797111988E0,-6.492326260E0,-7.474579811E-1
3.761859987E1,6.315855503E0,-5.731109142E0,-2.167299032E0
3.763988915E1,5.602495193E0,-5.072783947E0,-3.007478952E0
3.766117836E1,5.310570717E0,-5.125426292E0,-2.684448004E0
3.768246764E1,4.728815556E0,-5.213960648E0,-1.714756489E0
3.770375685E1,4.470091820E0,-5.676074505E0,-1.274178028E0
3.772504612E1,3.881158352E0,-5.812465191E0,-9.104689956E-1
3.774633534E1,3.732803345E0,-5.838786125E0,-6.708876491E-1
3.776762461E1,3.993621111E0,-5.865107536E0,-5.033900738E-1
3.778891383E1,5.317749023E0,-6.097510338E0,-1.680957973E-1
3.781020310E1,6.442974091E0,-5.874678612E0,1.854437590E-2
3.783149232E1,7.814659595E0,-5.872285843E0,-6.397809386E-1
3.785278159E1,8.951848984E0,-6.186044693E0,-1.415653706E0
3.787407081E1,1.020867825E1,-6.916154861E0,-1.995015860E0
3.789536008E1,1.063490009E1,-7.660920620E0,-2.885445118E0
3.791664930E1,9.600603104E0,-8.402995110E0,-3.079562664E0
3.793793857E1,8.427521706E0,-9.461220741E0,-1.540080428E0
3.795922779E1,7.651947498E0,-1.068933678E1,2.386840582E-1
3.798051706E1,6.598507404E0,-9.884750366E0,2.458027124E0
3.800180628E1,7.845766544E0,-8.606385231E0,3.985545158E0
3.802309555E1,1.087926769E1,-8.989535332E0,2.900998354E0
3.804438477E1,1.280399418E1,-9.326923370E0,8.395816684E-1
3.806567404E1,1.334267807E1,-8.958429337E0,-6.996015310E-1
3.808696326E1,1.259581852E1,-8.029415131E0,-3.909274042E-1
3.810825248E1,1.097976589E1,-7.576872826E0,6.864410043E-1
3.812954175E1,9.183952332E0,-7.644171238E0,8.252246976E-1
3.815083097E1,7.549056530E0,-7.627122402E0,1.716850251E-1
3.817212024E1,6.447759628E0,-7.495516777E0,-4.052843451E-1
3.819340946E1,5.842076302E0,-7.562515736E0,-9.152546525E-1
3.821469868E1,5.037489891E0,-7.505088329E0,-9.511470199E-1
3.823598795E1,4.285844326E0,-7.203592777E0,-8.554341197E-1
3.825727717E1,3.936193228E0,-7.385447025E0,-1.094716311E0
3.827856639E1,3.419044495E0,-7.452445984E0,-1.549651742E0
3.829985566E1,3.163012505E0,-7.770990849E0,-1.712363720E0
3.832114487E1,2.571686029E0,-7.349554539E0,-1.693221092E0
3.834243409E1,2.171785593E0,-6.796513557E0,-1.568794370E0
3.836372336E1,2.952144861E0,-7.141379356E0,-1.389332652E0
3.838501258E1,3.804588079E0,-7.816454411E0,-6.445665956E-1
3.840630180E1,4.594518661E0,-8.510671616E0,-3.311068416E-1
3.842759107E1,5.260022163E0,-8.896215439E0,-1.824527234E-1
3.844888029E1,6.134000778E0,-9.887442589E0,-2.712862790E-1
3.847016951E1,6.284748554E0,-1.015065289E1,-4.674977362E-1
3.849145873E1,6.179464340E0,-9.161818504E0,2.811566554E-2
3.851274800E1,6.526722908E0,-7.756633759E0,3.466601670E-1
3.853403722E1,7.915158272E0,-7.821239948E0,-1.920240223E-1
3.855532644E1,8.078168869E0,-8.233104706E0,-2.039881349E-1
3.857661566E1,6.399903297E0,-7.988737583E0,-5.225326419E-1
3.859790487E1,5.501996517E0,-7.466803074E0,-8.506484628E-1
3.861919414E1,5.111667156E0,-6.684051037E0,-1.583151340E0
3.864048336E1,5.463711262E0,-6.066403389E0,-2.198405743E0
3.866177258E1,5.767600060E0,-5.601896763E0,-1.760220170E0
3.868306180E1,5.650351524E0,-5.347958565E0,-9.870393276E-1
3.870435102E1,6.205785751E0,-5.616253853E0,-8.243274093E-1
3.872564029E1,6.581758022E0,-5.790929794E0,-1.255035520E0
3.874692951E1,6.605686188E0,-6.238687038E0,-1.841576099E0
3.876821873E1,6.653542519E0,-6.935297489E0,-1.726720691E0
3.878950795E1,6.844968319E0,-7.569694519E0,-6.326025128E-1
3.881079717E1,7.106084824E0,-7.881060600E0,3.248256743E-1
3.883208639E1,7.309474945E0,-7.809275627E0,7.486543655E-1
3.885337560E1,7.565805912E0,-7.074080944E0,1.471885085E0
3.887466482E1,8.362915039E0,-6.571588516E0,1.622632861E0
3.889595409E1,9.495318413E0,-6.999903679E0,1.062413216E0
3.891724331E1,1.044586754E1,-7.560122967E0,6.409773827E-1
3.893853253E1,1.107787132E1,-7.890631676E0,1.794616925E-3
3.895982175E1,1.212413311E1,-8.493922234E0,-8.889335990E-1
3.898111097E1,1.347189045E1,-1.031336498E1,-1.283749342E0
3.900240019E1,1.295952702E1,-1.115384388E1,-1.872383654E-1
3.902368940E1,1.035972595E1,-1.041864872E1,1.842772484E0
3.904497862E1,8.655138969E0,-1.005254745E1,2.273779631E0
3.906626784E1,7.575377464E0,-9.875179291E0,1.763809443E0
3.908755706E1,7.230511665E0,-9.475577354E0,2.106282234E0
3.910884628E1,7.405188084E0,-8.790931702E0,1.864308000E0
3.913013550E1,7.697411537E0,-8.115556717E0,6.361917257E-1
3.915142472E1,7.695018291E0,-7.447660446E0,-4.124628007E-1
3.917271394E1,7.577770233E0,-6.911369324E0,-7.666005492E-1
3.919400316E1,7.510771275E0,-6.858726978E0,-5.656034350E-1
3.921529237E1,7.180262566E0,-6.818048954E0,3.050848842E-2
3.923658159E1,6.737291336E0,-7.153343201E0,1.692921966E-1
3.925787081E1,6.145965099E0,-7.828418255E0,-2.111666054E-1
3.927916003E1,5.760421276E0,-8.608778000E0,-8.530412912E-1
3.930044920E1,5.233701229E0,-8.826823235E0,-1.391725421E0
3.932173842E1,4.467699051E0,-8.941679001E0,-1.372582912E0
3.934302764E1,3.821337700E0,-9.085248947E0,-1.156929731E0
3.936431685E1,3.184547901E0,-8.733204842E0,-4.818546474E-1
3.938560607E1,2.727219582E0,-7.969594955E0,5.261218548E-1
3.940689529E1,2.992822886E0,-7.629515171E0,1.519741535E0
3.942818451E1,3.481257915E0,-8.393424034E0,1.993520379E0
3.944947373E1,3.031407118E0,-8.742775917E0,1.701596022E0
3.947076295E1,2.403889418E0,-8.656634331E0,1.031306505E0
3.949205211E1,2.605185747E0,-9.149854660E0,3.873381615E-1
3.951334133E1,3.107977629E0,-9.482755661E0,-3.143570721E-1
3.953463055E1,3.665804386E0,-8.767003059E0,-4.387838542E-1
3.955591977E1,4.343272209E0,-7.395018578E0,1.884347796E-1
3.957720894E1,5.820241928E0,-7.182057381E0,9.954141974E-1
3.959849816E1,7.706982613E0,-8.055736542E0,7.725825906E-1
3.961978737E1,8.425128937E0,-8.288139343E0,1.908276081E-1
3.964107659E1,7.534699440E0,-7.641479015E0,-5.488536954E-1
3.966236581E1,6.186643124E0,-7.086344242E0,-9.128618240E-1
3.968365498E1,5.535496235E0,-6.688836575E0,-7.812566161E-1
3.970494420E1,5.741278648E0,-6.332006931E0,-5.895316601E-1
3.972623342E1,6.069394588E0,-6.212365627E0,-7.091727853E-1
3.974752258E1,5.837290764E0,-6.456433773E0,-9.511470199E-1
3.976881180E1,5.712564945E0,-6.667301178E0,-1.032503009E0
3.979010102E1,5.746064663E0,-6.593123913E0,-9.846464992E-1
3.981139024E1,6.275177479E0,-6.427719593E0,-1.202393413E0
3.983267940E1,6.996015072E0,-6.552445889E0,-1.054038405E0
3.985396862E1,8.082955360E0,-6.573981285E0,-5.703890920E-1
3.987525784E1,8.643174171E0,-6.425326824E0,-2.521436810E-1
3.989654701E1,8.753244400E0,-6.195616245E0,-1.256231871E-2
3.991783623E1,8.544769287E0,-6.198009014E0,4.725824669E-2
3.993912545E1,8.659924507E0,-6.853941441E0,-1.345962733E-1
3.996041461E1,8.947062492E0,-7.749455452E0,-2.688934505E-1
3.998170383E1,9.244071960E0,-8.312067986E0,-1.633101404E-1
4.000299300E1,9.624530792E0,-8.201698303E0,-1.369891018E-1
4.002428222E1,1.089840984E1,-9.159425735E0,-1.082752272E-1
4.004557144E1,1.187976646E1,-1.095733356E1,4.710869491E-1
4.006686060E1,1.143709373E1,-1.043779182E1,1.677667737E0
4.008814982E1,1.141047382E1,-9.829715729E0,2.201995134E0
4.010943899E1,1.171944714E1,-1.033968544E1,2.247458696E0
4.013072821E1,1.108026409E1,-1.095493984E1,1.864308000E0
4.015201737E1,9.648459435E0,-1.069890785E1,1.074377418E0
4.017330659E1,8.405985832E0,-9.523433685E0,6.505486369E-1
4.019459576E1,7.965407372E0,-8.489136696E0,4.184448719E-1
4.021588498E1,7.608876705E0,-7.727920055E0,3.849453330E-1
4.023717420E1,7.048657417E0,-7.220342159E0,2.338984162E-1
4.025846336E1,6.447759628E0,-7.179664135E0,2.572284266E-2
4.027975253E1,5.966503143E0,-7.411767960E0,-1.082752272E-1
4.030104175E1,5.552245617E0,-7.778169155E0,-4.339981973E-1
4.032233092E1,5.061418056E0,-7.981558800E0,-9.846464992E-1
4.034362014E1,4.889134884E0,-8.326424599E0,-1.602293849E0
4.036490930E1,4.936991215E0,-8.690134048E0,-2.081157446E0
4.038619852E1,5.142774105E0,-9.073284149E0,-2.353939295E0
4.040748769E1,4.663910389E0,-8.874680519E0,-2.193620205E0
4.042877690E1,4.178167343E0,-8.656634331E0,-1.504188180E0
4.045006607E1,3.931407690E0,-8.963214874E0,-5.703890920E-1
4.047135529E1,3.524328709E0,-9.295816422E0,2.530409992E-1
4.049264446E1,2.693720102E0,-8.915358543E0,7.893323898E-1
4.051393362E1,2.284248352E0,-8.599205971E0,1.033699393E0
4.053522284E1,2.545365095E0,-9.161818504E0,6.505486369E-1
4.055651201E1,2.686541557E0,-9.372686386E0,1.477568001E-1
4.057780118E1,2.643470764E0,-8.843573570E0,1.142572835E-1
4.059909040E1,3.208476067E0,-7.607979774E0,1.378265858E0
4.062037956E1,4.992026329E0,-7.976773262E0,2.264208317E0
4.064166873E1,6.339783669E0,-8.589634895E0,2.290529490E0
4.066295795E1,7.285546780E0,-8.759525299E0,1.826022744E0
4.068424711E1,7.513164043E0,-8.419744492E0,5.165506005E-1
4.070553628E1,7.158727169E0,-7.806882858E0,-9.918249846E-1
4.072682550E1,6.600900173E0,-7.162914753E0,-1.836790442E0
4.074811467E1,6.488437653E0,-6.624230385E0,-1.738684773E0
4.076940383E1,6.801897526E0,-6.626623154E0,-1.278963685E0
4.079069300E1,6.840182781E0,-6.729514599E0,-8.745766878E-1
4.081198222E1,6.301498413E0,-6.772585392E0,-8.817551732E-1
4.083327138E1,6.083751678E0,-6.954440117E0,-9.080761671E-1
4.085456055E1,6.088537216E0,-7.191628456E0,-7.378866673E-1
4.087584972E1,6.505187511E0,-7.387839794E0,-3.023929596E-1
4.089713889E1,7.661519051E0,-7.335197926E0,6.161518395E-2
4.091842810E1,8.614161491E0,-6.980761051E0,-2.617149651E-1
4.093971727E1,9.476176262E0,-6.475576401E0,-6.996015310E-1
4.096100644E1,1.021585751E1,-6.226722717E0,-1.068395257E0
4.098229560E1,1.084068298E1,-6.688836575E0,-1.099501967E0
4.100358477E1,1.106830025E1,-7.545766354E0,-1.384546995E0
4.102487399E1,1.062532902E1,-8.015058517E0,-1.647757530E0
4.104616316E1,1.040758228E1,-8.103592873E0,-1.619043589E0
4.106745232E1,1.124297619E1,-8.910572052E0,-1.152144074E0
4.108874149E1,1.185344505E1,-9.872786522E0,-4.531407952E-1
4.111003066E1,1.131236839E1,-8.556135178E0,4.974080026E-1
4.113131982E1,1.152562809E1,-7.471588612E0,5.548357368E-1
4.115260899E1,1.240887928E1,-8.472386360E0,4.208376706E-1
4.117389816E1,1.171226883E1,-9.887442589E0,4.998008311E-1
4.119518732E1,1.042193890E1,-1.058644581E1,-3.071786165E-1
4.121647654E1,9.045168877E0,-9.942477226E0,-6.326025128E-1
4.123776571E1,8.679066658E0,-9.283852577E0,-1.465603858E-1
4.125905487E1,8.441878319E0,-9.001500130E0,4.399802685E-1
4.128034404E1,7.862515926E0,-8.850751877E0,6.960122585E-1
4.130163321E1,7.307082176E0,-8.793324471E0,6.864410043E-1
4.132292237E1,6.521937370E0,-8.848359108E0,2.147558331E-1
4.134421154E1,6.045466423E0,-8.915358543E0,-1.657029688E-1
4.136550071E1,5.516353607E0,-8.829216003E0,-4.124628007E-1
4.138678987E1,4.953741074E0,-8.749954224E0,-6.565307379E-1
4.140807904E1,4.462913513E0,-8.699705124E0,-7.474579811E-1
4.142936821E1,3.900300980E0,-8.393424034E0,-8.027920127E-1
4.145065737E1,3.268296719E0,-7.854739666E0,-8.626125455E-1
4.147194654E1,2.485544443E0,-6.973582268E0,-4.722833633E-1
4.149323571E1,2.076072693E0,-6.707979202E0,-2.521436810E-1
4.151452487E1,1.937289000E0,-6.875476837E0,-1.010967568E-1
4.153581404E1,1.858026743E0,-7.237092018E0,-3.598206937E-1
4.155710321E1,1.709671736E0,-7.256234646E0,-8.291130662E-1
4.157839232E1,1.829312921E0,-7.562515736E0,-1.178465128E0
4.159968149E1,2.329711914E0,-8.594420433E0,-1.233500123E0
4.162097066E1,2.665006161E0,-9.099605560E0,-4.603192508E-1
4.164225982E1,2.844467878E0,-8.237890244E0,9.308080077E-1
4.166354899E1,4.534698009E0,-8.422137260E0,2.338385820E0
4.168483816E1,7.060621262E0,-9.633503914E0,2.082353830E0
4.170612732E1,9.301499367E0,-1.060080242E1,1.071984529E0
4.172741649E1,9.476176262E0,-1.029661465E1,-1.226321608E-1
4.174870560E1,7.747660637E0,-9.231210709E0,-1.310070395E0
4.176999477E1,6.694220543E0,-8.371888161E0,-1.087537885E0
4.179128394E1,7.316653252E0,-7.488338470E0,2.333002165E-2
4.181257310E1,7.924729347E0,-6.739085674E0,3.224328458E-1
4.183386227E1,7.845766544E0,-6.391827583E0,-6.520441920E-2
4.185515138E1,7.168298244E0,-6.523731709E0,-4.914259613E-1
4.187644055E1,6.655935287E0,-6.489933014E0,-5.273182988E-1
4.189772972E1,6.675077915E0,-6.080760479E0,-1.231107235E0
4.191901888E1,7.510771275E0,-6.241079807E0,-1.836790442E0
4.194030805E1,8.006085396E0,-6.365506649E0,-1.487438321E0
4.196159717E1,8.257631302E0,-6.638587475E0,-1.128215909E0
4.198288633E1,8.039585114E0,-6.643373013E0,-1.080359459E0
4.200417550E1,7.946264744E0,-6.241079807E0,-1.054038405E0
4.202546467E1,8.599804878E0,-6.241079807E0,-9.415757060E-1
4.204675378E1,9.270393372E0,-7.019046307E0,-1.118644595E0
4.206804295E1,9.766006470E0,-8.122735977E0,-1.209571838E0
4.208933211E1,1.017996502E1,-8.795717239E0,-1.142572761E0
4.211062128E1,1.109701443E1,-9.101998329E0,-1.027717352E0
4.213191040E1,1.306241894E1,-1.079940701E1,-1.324427366E0
4.215319956E1,1.352453232E1,-1.043779182E1,-8.554341197E-1
4.217448873E1,1.319910908E1,-9.128319740E0,4.758726060E-1
4.219577784E1,1.266999626E1,-9.101998329E0,1.529312730E0
4.221706701E1,1.082871914E1,-9.772287369E0,1.153340459E0
4.223835612E1,9.251250267E0,-1.019850922E1,3.897309899E-1
4.225964529E1,7.982157230E0,-9.865608215E0,1.238285750E-1
4.228093446E1,7.175477028E0,-9.178568840E0,-4.627120793E-1
4.230222357E1,7.525127888E0,-8.670990944E0,-5.632106066E-1
4.232351274E1,8.030014038E0,-8.240283012E0,-4.076771438E-1
4.234480191E1,7.697411537E0,-8.038987160E0,-5.225326419E-1
4.236609102E1,7.122834682E0,-8.261817932E0,-6.684948206E-1
4.238738019E1,6.531508446E0,-8.726025581E0,-8.913264275E-1
4.240866930E1,6.112465382E0,-9.341579437E0,-6.661019921E-1
4.242995847E1,5.401497841E0,-9.499505997E0,-4.531407952E-1
4.245124758E1,4.647160530E0,-9.408578873E0,-4.674977362E-1
4.247253675E1,3.589233875E0,-8.991928101E0,-1.393819153E-1
4.249382586E1,2.882753134E0,-8.659027100E0,2.267199457E-1
4.251511503E1,2.317747831E0,-8.091629028E0,5.333003402E-1
4.253640420E1,1.973181367E0,-7.569694519E0,7.989036441E-1
4.255769331E1,1.707278967E0,-7.481160164E0,7.773682475E-1
4.257898243E1,1.712064624E0,-8.015058517E0,4.710869491E-1
4.260027159E1,1.211665511E0,-8.132307053E0,2.530409992E-1
4.262156076E1,1.226022482E0,-8.312067986E0,1.980060786E-1
4.264284987E1,2.178964138E0,-9.358329773E0,-3.000001311E-1
4.266413899E1,2.621935368E0,-9.283852577E0,-3.598206937E-1
4.268542816E1,2.990430117E0,-8.213961601E0,5.787639618E-1
4.270671727E1,4.297808647E0,-7.665706635E0,1.567597985E0
4.272800644E1,6.438188553E0,-8.563314438E0,2.079961061E0
4.274929555E1,8.532805443E0,-9.652647018E0,1.677667737E0
4.277058472E1,9.488140106E0,-9.480362892E0,5.093721151E-1
4.279187383E1,9.220144272E0,-8.767003059E0,-1.386939883E0
4.281316300E1,8.324629784E0,-7.854739666E0,-2.303689957E0
4.283445211E1,7.869694710E0,-7.203592777E0,-2.200798512E0
4.285574123E1,7.745267868E0,-6.887440681E0,-1.456331730E0
4.287703040E1,7.034300327E0,-7.059724331E0,-1.137787223E0
4.289831951E1,6.110072613E0,-7.380661488E0,-7.642077208E-1
4.291960862E1,5.513960838E0,-7.435696602E0,1.980060786E-1
4.294089779E1,5.688636780E0,-7.287341595E0,6.337988973E-1
4.296218690E1,7.290332317E0,-7.220342159E0,2.961117923E-1
4.298347602E1,8.444271088E0,-6.827620506E0,-5.321039557E-1
4.300476519E1,9.736993790E0,-6.664908409E0,-1.580758452E0
4.302605430E1,1.066839981E1,-6.068796635E0,-2.059622049E0
4.304734342E1,1.119751263E1,-5.774179935E0,-2.088335991E0
4.306863258E1,1.157827091E1,-6.008975983E0,-1.750648856E0
4.308992170E1,1.213848972E1,-7.091129780E0,-1.798505306E0
4.311121081E1,1.173141098E1,-8.271389961E0,-1.997408748E0
4.313249998E1,1.060618591E1,-8.941679001E0,-1.161715388E0
4.315378909E1,1.142483044E1,-1.125673485E1,-7.785646915E-1
4.317507821E1,1.054875851E1,-1.078983593E1,-2.991028363E-3
4.319636732E1,1.010339451E1,-8.745168686E0,1.196411371E0
4.321765649E1,1.057986546E1,-8.211568832E0,1.718345761E0
4.323894560E1,1.074497032E1,-9.118747711E0,2.228316069E0
4.326023472E1,1.006510925E1,-1.009083176E1,2.635395050E0
4.328152383E1,8.834600449E0,-1.016740227E1,2.209173441E0
4.330281300E1,8.288737297E0,-9.947262764E0,1.282552958E0
4.332410211E1,8.389236450E0,-9.757930756E0,4.160520434E-1
4.334539123E1,8.142775536E0,-9.123533249E0,1.812563092E-1
4.336668034E1,7.790731430E0,-8.709276199E0,-6.110670567E-1
4.338796946E1,7.244868755E0,-8.556135178E0,-1.274178028E0
4.340925857E1,6.498009205E0,-8.654241562E0,-1.437189102E0
4.343054774E1,5.743671417E0,-8.948857307E0,-1.374975681E0
4.345183685E1,4.989633560E0,-9.056534767E0,-1.494616866E0
4.347312597E1,4.091726780E0,-8.968000412E0,-1.568794370E0
4.349441508E1,2.964108944E0,-8.177770615E0,-1.228714466E0
4.351570420E1,2.245963097E0,-7.265805721E0,-6.876373887E-1
4.353699331E1,2.566900492E0,-6.794120789E0,-2.641077936E-1
4.355828243E1,3.079263687E0,-7.059724331E0,1.549352705E-1
4.357957159E1,2.763111830E0,-7.644171238E0,-2.258226424E-1
4.360086071E1,2.444567442E0,-8.038987160E0,-8.985049129E-1
4.362214982E1,2.078465462E0,-7.780561924E0,-1.257428288E0
4.364343894E1,2.806182861E0,-8.481958389E0,-1.745863199E0
4.366472805E1,3.253939629E0,-9.243174553E0,-2.085943222E0
4.368601717E1,3.215654612E0,-9.676574707E0,-1.748256087E0
4.370730628E1,3.009572744E0,-8.675776482E0,-5.324030295E-2
4.372859540E1,4.422235489E0,-8.735597610E0,1.986341953E0
4.374988451E1,6.325426579E0,-9.149854660E0,3.408575773E0
4.377117362E1,8.279166222E0,-9.375079155E0,4.066901207E0
4.379246274E1,9.337391853E0,-8.817252159E0,3.444468260E0
4.381375185E1,8.207381248E0,-7.876275063E0,7.462615371E-1
4.383504097E1,6.890431881E0,-7.189235687E0,-1.626222134E0
4.385633008E1,6.215356827E0,-6.815656185E0,-2.579163790E0
4.387761920E1,5.916254044E0,-6.715157509E0,-2.442473650E0
4.389890831E1,5.801099300E0,-6.873084068E0,-1.607079506E0
4.392019743E1,5.726922035E0,-7.182057381E0,-7.474579811E-1
4.394148654E1,5.937789440E0,-7.521838188E0,2.673979402E-1
4.396277566E1,6.828218460E0,-7.576872826E0,9.547362328E-1
4.398406477E1,7.869694710E0,-7.629515171E0,4.950151742E-1
4.400535389E1,8.738887787E0,-7.507481098E0,1.136590727E-2
