"Time (s)","Linear Acceleration x (m/s^2)","Linear Acceleration y (m/s^2)","Linear Acceleration z (m/s^2)"
2.000000000E-3,-2.964999974E-1,1.098999977E-1,-4.093999863E-1
2.200625000E-2,-7.100999951E-1,2.620999813E-1,-4.408999979E-1
5.200000000E-2,3.506000042E-1,-4.775999784E-1,1.240999997E-1
7.200000000E-2,1.039899945E0,-9.149000049E-1,5.079999939E-2
9.200000000E-2,3.728999794E-1,-2.566999793E-1,-3.037000000E-1
1.120046880E-1,-4.732999802E-1,4.629999995E-1,-2.022999972E-1
1.420000000E-1,-4.478999972E-1,2.942999899E-1,-3.759000003E-1
1.620031250E-1,1.019799948E0,-2.754999995E-1,-1.844999939E-1
1.920000000E-1,-3.680999875E-1,2.075999975E-1,1.086499929E0
2.120000000E-1,-1.509999949E-2,-1.792999953E-1,6.960999966E-1
2.320000000E-1,2.377999872E-1,-3.508999944E-1,-2.034999877E-1
2.520015630E-1,5.986999869E-1,-1.070000008E-1,-8.975999951E-1
2.819984380E-1,9.684000015E-1,-2.736999989E-1,-1.060899973E0
3.020015630E-1,-8.587999940E-1,-4.864999950E-1,-2.592999935E-1
3.319984380E-1,-1.019799948E0,-1.419600010E0,-2.325799942E0
3.519984380E-1,-1.455299973E0,-2.261199951E0,-1.342299938E0
3.719984380E-1,-2.060299873E0,-5.508999825E-1,-1.784099936E0
3.920000000E-1,-1.763299942E0,-9.772999883E-1,-1.110299945E0
4.219984380E-1,-1.293299913E0,-5.708000064E-1,-8.874999881E-1
4.419984380E-1,-1.079100013E0,-3.017999828E-1,-8.403999805E-1
4.620000000E-1,-7.819999754E-2,-6.583999991E-1,-6.322999597E-1
4.919984380E-1,-3.127000034E-1,-3.111000061E-1,-2.019999921E-1
5.119984380E-1,6.109999865E-2,-3.071999848E-1,-5.849999934E-2
5.320000000E-1,8.949999511E-2,-3.951999843E-1,-2.320999950E-1
5.520046880E-1,9.339999408E-2,8.076999784E-1,-1.920899987E0
5.819984380E-1,-5.687999725E-1,1.435000002E-1,1.327799916E0
6.020000000E-1,-8.632999659E-1,4.720999897E-1,-6.593999863E-1
6.319984380E-1,5.260999799E-1,6.125999689E-1,-3.750000000E-1
6.519984380E-1,2.510200024E0,8.376999497E-1,-1.516999900E-1
6.720000000E-1,2.560499907E0,1.123999953E0,1.524399996E0
7.019984380E-1,3.639999926E-1,3.861799955E0,3.150599957E0
7.219984380E-1,6.559999585E-1,2.648499966E0,1.057199955E0
7.420000000E-1,3.429299831E0,-5.931999683E-1,8.152999878E-1
7.719984380E-1,1.702399969E0,5.033999681E-1,-3.513000011E-1
7.919984380E-1,-2.032999992E-1,1.109799981E0,2.246999890E-1
8.120000000E-1,9.811999798E-1,-7.572000027E-1,-1.439199924E0
8.419984380E-1,1.521799922E0,-1.466899991E0,-2.508100033E0
8.619984380E-1,9.840999842E-1,-1.841000021E-1,-1.288399935E0
8.820000000E-1,-5.044000149E-1,1.982999891E-1,-1.669999957E-1
9.119984380E-1,1.619099975E0,-6.870000064E-2,-3.271999955E-1
9.319984380E-1,2.441900015E0,4.084999859E-1,1.315899968E0
9.519984380E-1,3.214900017E0,2.529999986E-2,-5.343999863E-1
9.719984380E-1,1.982699990E0,-3.612000048E-1,1.495100021E0
9.919984380E-1,4.413999915E-1,5.989999697E-2,-1.098299980E0
1.011998438E0,2.467900038E0,-2.588799953E0,-2.305999994E0
1.032000000E0,2.620100021E0,-3.776099920E0,-2.215699911E0
1.061996875E0,-3.117199898E0,1.573699951E0,-1.771999896E-1
1.081998438E0,-6.937099934E0,5.879999697E-2,-2.833999991E-1
1.102000000E0,-5.344599724E0,-6.137999892E-1,-8.072999716E-1
1.131998438E0,-3.945499897E0,4.165000021E-1,-1.775999963E-1
1.151998438E0,-3.061199903E0,-9.335999489E-1,2.680399895E0
1.172000000E0,1.536999941E-1,-2.099499941E0,-3.912599802E0
1.201998438E0,-4.009999931E-1,-5.364999771E-1,-1.861499906E0
1.221998438E0,-1.299399972E0,-8.301999569E-1,1.939999908E-1
1.242000000E0,-4.690799713E0,-1.427199960E0,-5.586000085E-1
1.271998438E0,-6.049900055E0,-3.342899799E0,4.329999909E-2
1.291998438E0,-2.833600044E0,-1.941899896E0,2.701400042E0
1.312000000E0,-8.649999499E-1,-1.353999972E-1,2.537499905E0
1.341998438E0,-2.157700062E0,-7.131999731E-1,8.449999690E-1
1.361998438E0,-1.647899985E0,-5.096499920E0,-2.109200001E0
1.382000000E0,-3.612000048E-1,-6.864399910E0,-2.538899899E0
1.402000000E0,-1.608099937E0,-2.898000002E0,-1.301299930E0
1.431998438E0,-4.392199993E0,1.001299977E0,2.005300045E0
1.451998438E0,-2.793799877E0,-3.070999861E0,8.553999662E-1
1.471998438E0,-1.512999982E-1,-3.183199883E0,-3.179999813E-2
1.492000000E0,2.739000022E-1,2.392799854E0,6.567800045E0
1.512000000E0,-3.891499996E0,2.033599854E0,3.263299942E0
1.532000000E0,-1.803699970E0,-4.817100048E0,-3.775899887E0
1.552000000E0,-3.430299997E0,-3.503599882E0,-7.030200005E0
1.572000000E0,-3.422999859E0,-1.570400000E0,5.859999657E-1
1.592000000E0,-2.336400032E0,3.719999790E0,-3.697299957E0
1.612000000E0,-3.273999929E0,6.203000069E0,2.989899874E0
1.632000000E0,-1.487299919E0,2.611299992E0,3.017899990E0
1.652000000E0,1.016000032E0,8.624999523E-1,-2.431599855E0
1.672000000E0,3.702099800E0,3.666100025E0,2.683300018E0
1.692000000E0,3.510499954E0,4.977900028E0,4.923699856E0
1.712000000E0,8.129999787E-2,9.309800148E0,3.740999937E0
1.732000000E0,-2.443099976E0,4.878999710E0,1.255800009E0
1.752000000E0,9.215999842E-1,-3.436499834E0,-8.003600121E0
1.772000000E0,-1.297500014E0,2.739799976E0,-3.151700020E0
1.792000000E0,3.128199816E0,3.206399918E0,-1.438499928E0
1.812000000E0,2.665099859E0,4.205599785E0,-1.543900013E0
1.832000000E0,2.666199923E0,1.764599919E0,-5.078499794E0
1.852000000E0,6.091499805E0,-2.373199940E0,-4.566800117E0
1.872000000E0,2.983500004E0,-4.340899944E0,-3.800599813E0
1.892000000E0,1.745799899E0,-2.681200027E0,-3.988499880E0
1.912000000E0,-2.946899891E0,4.663999975E-1,-1.222499967E0
1.932000000E0,-5.766999722E-1,-1.768899918E0,3.330899954E0
1.952000000E0,-4.778999805E0,2.021499872E0,1.361699939E0
1.972000000E0,-6.959499836E0,2.949999809E0,2.757999897E0
1.992000000E0,-7.483199596E0,2.554999828E0,-3.998999894E-1
2.012000000E0,-4.078000069E0,5.693199635E0,2.279399872E0
2.032000000E0,6.033999920E-1,4.726999760E0,4.805900097E0
2.052000000E0,1.139219952E1,-2.527999878E0,1.004440022E1
2.081998438E0,-1.406599998E0,3.548300028E0,-3.073999882E-1
2.101998438E0,3.155400038E0,1.297799945E0,-6.409999728E-2
2.122000000E0,2.226399899E0,3.577499866E0,-5.870000124E-1
2.142000000E0,2.358799934E0,4.407099724E0,-9.989999980E-2
2.162000000E0,6.825000048E-1,3.925999880E0,-1.619599938E0
2.182000000E0,1.067999959E0,2.035099983E0,5.952000022E-1
2.202000000E0,2.485999823E0,2.060099840E0,1.029299974E0
2.222000000E0,3.137300014E0,3.028699875E0,3.455199957E0
2.242000000E0,6.367399693E0,1.958699942E0,4.593899727E0
2.262000000E0,-4.514999986E-1,-9.565999508E-1,7.319999933E-1
2.282000000E0,-8.206999898E-1,-4.722099781E0,3.012999892E-1
2.302000000E0,-8.395599365E0,-4.473400116E0,-2.313400030E0
2.322000000E0,-8.793799400E0,-3.279500008E0,-1.312299967E0
2.342000000E0,-6.488699913E0,1.703199983E0,1.302299976E0
2.362000000E0,-4.224499702E0,-3.887999952E-1,2.431900024E0
2.382000000E0,-2.402899981E0,-1.048300028E0,1.403100014E0
2.402000000E0,-2.620100021E0,3.048599958E0,3.492899895E0
2.422000000E0,9.265999794E-1,1.704299927E0,4.113100052E0
2.442000000E0,1.425300002E0,-1.623999923E-1,8.065999746E-1
2.462000000E0,2.563799858E0,-8.213999867E-1,-2.700599909E0
2.482000000E0,2.801699877E0,-5.319999903E-2,-3.426899910E0
2.502000000E0,1.456499934E0,-2.551999986E-1,-4.254099846E0
2.522000000E0,1.381299973E0,1.788899899E0,-2.414299965E0
2.542000000E0,5.263999701E-1,1.615299940E0,-4.217999876E-1
2.562000000E0,1.365499973E0,-2.517799854E0,5.255499840E0
2.582000000E0,-1.643499970E0,2.780299902E0,6.934499741E0
2.602000000E0,8.499999531E-3,2.139299870E0,3.376399994E0
2.622000000E0,1.316200018E0,-2.701499939E0,5.476999879E-1
2.642000000E0,-1.219200015E0,9.049999714E-1,-2.757000029E-1
2.662000000E0,-8.034999967E-1,3.349200010E0,5.988000035E-1
2.682000000E0,-2.569999918E-2,1.192299962E0,-9.789999574E-2
2.702000000E0,-8.289999515E-2,1.414399981E0,1.884000003E-1
2.722000000E0,8.999999845E-4,3.558799982E0,1.754999906E-1
2.742000000E0,4.487999976E-1,2.092000008E0,-1.297999918E-1
2.762000000E0,-1.577000022E-1,8.619999886E-2,-1.678099990E0
2.782000000E0,-4.285999835E-1,-8.930999637E-1,-2.498600006E0
2.802000000E0,5.343999863E-1,-1.169999968E-2,-2.567999840E0
2.822000000E0,7.116000056E-1,1.063899994E0,-1.349299908E0
2.842000000E0,1.239699960E0,-6.222000122E-1,-2.118999958E0
2.862000000E0,1.356199980E0,-3.942899942E0,-2.806999922E0
2.882000000E0,-1.931599975E0,-7.008999586E-1,-1.392399907E0
2.911998438E0,-6.635999680E-1,-5.453000069E-1,4.917999804E-1
2.931998438E0,1.302999973E0,-1.513799906E0,1.357499957E0
2.951998438E0,-3.308999836E-1,6.324999928E-1,-1.256699920E0
2.972000000E0,-2.526199818E0,1.058699965E0,2.513999939E-1
3.001998438E0,-3.251099825E0,3.871699810E0,-5.661999583E-1
3.021998438E0,3.199999779E-2,1.986699939E0,-7.649999857E-1
3.042000000E0,-1.524099946E0,2.902899981E0,-6.387999654E-1
3.071998438E0,-1.086599946E0,1.230799913E0,1.583999991E-1
3.091998438E0,1.794299960E0,-8.799999952E-3,1.476799965E0
3.112000000E0,7.114999890E-1,1.229999959E-1,5.924999714E-1
3.141998438E0,1.724999994E-1,4.740999937E-1,-3.329999745E-2
3.161998438E0,4.438999891E-1,-2.509000003E-1,-2.971999943E-1
3.181998438E0,-3.260999918E-1,-6.110000014E-1,-1.855999976E-1
3.201998438E0,2.127999961E-1,-3.483999968E-1,1.481999904E-1
3.221998438E0,3.394999802E-1,2.879999951E-2,-5.541999936E-1
3.242000000E0,4.189999774E-2,-7.880000025E-2,-4.688999951E-1
3.271998438E0,-8.993999958E-1,8.823999763E-1,-1.018399954E0
3.291998438E0,4.532999992E-1,3.736999929E-1,-2.261999995E-1
3.312000000E0,2.236500025E0,3.188999891E-1,-6.412999630E-1
3.341998438E0,1.484599948E0,-9.425999522E-1,-1.220899940E0
3.361998438E0,1.039799929E0,-1.091899991E0,2.017000020E-1
3.382000000E0,1.855299950E0,-9.118999839E-1,-1.252000034E-1
3.411998438E0,5.850999951E-1,1.374000013E-1,1.801999956E-1
3.431998438E0,3.231999874E-1,6.539999843E-1,2.841999829E-1
3.451998438E0,-2.075999975E-1,1.442799926E0,4.624999762E-1
3.472000000E0,-2.766000032E-1,2.191499949E0,1.534699917E0
3.501998438E0,-2.871399879E0,3.568799973E0,1.913800001E0
3.521998438E0,-3.196399927E0,4.955599785E0,2.932899952E0
3.542000000E0,-2.054299831E0,1.697899938E0,1.473199964E0
3.571998438E0,-2.835899830E0,2.240000010E0,1.144500017E0
3.591998438E0,-1.283699989E0,6.786999702E-1,-6.157999635E-1
3.612000000E0,-1.762399912E0,-3.959999979E-2,2.492999882E-1
3.632000000E0,3.235999942E-1,7.012999654E-1,-1.024699926E0
3.652000000E0,5.478499889E0,-1.471000016E-1,-8.315999508E-1
3.672000000E0,5.916499615E0,-1.418099999E0,1.050699949E0
3.692000000E0,2.240299940E0,-1.193400025E0,-3.537999988E-1
3.712000000E0,1.742100000E0,-4.017999768E-1,-1.084100008E0
3.732000000E0,1.649099946E0,1.043599963E0,-5.131999850E-1
3.752000000E0,-7.660000026E-2,2.026099920E0,8.417999744E-1
3.772000000E0,-3.425999880E-1,1.480299950E0,-1.440400004E0
3.792000000E0,-1.941199899E0,8.066999912E-1,-2.214400053E0
3.812000000E0,-3.906599998E0,1.079699993E0,-2.018699884E0
3.832000000E0,-3.687099934E0,1.084999919E0,-1.289999932E-1
3.852000000E0,-1.211199999E0,-5.503999591E-1,8.007999659E-1
3.872000000E0,1.753899932E0,-1.732800007E0,7.029999793E-2
3.892000000E0,1.919999957E0,-8.791999817E-1,5.209000111E-1
3.912000000E0,1.349699974E0,-1.548799992E0,-5.424000025E-1
3.932000000E0,1.653399944E0,-6.696000099E-1,-1.685899973E0
3.952000000E0,7.404999733E-1,-1.108199954E0,5.371999741E-1
3.972000000E0,-5.269999802E-2,-1.788999915E0,1.136799932E0
4.001998438E0,-1.495999992E-1,-1.585899949E0,-9.307999611E-1
4.021998438E0,-2.340999991E-1,-2.028199911E0,-3.766999841E-1
4.042000000E0,-3.480000049E-2,-1.260200024E0,2.511000037E-1
4.071998438E0,3.055000007E-1,-1.276600003E0,2.839999795E-1
4.091998438E0,9.099999443E-3,-1.203699946E0,-2.307000011E-1
4.112000000E0,-1.491599917E0,-2.539700031E0,-9.309999645E-2
4.132000000E0,-2.283099890E0,-3.804999888E-1,-1.330500007E0
4.152000000E0,-1.594499946E0,-9.609999508E-2,5.379999802E-2
4.172000000E0,-1.256399989E0,4.510999918E-1,1.548999995E-1
4.201998438E0,4.506999850E-1,1.740700006E0,2.380999923E-1
4.221998438E0,7.499999832E-3,-9.019999951E-2,1.208699942E0
4.242000000E0,-2.316000015E-1,-1.083400011E0,4.368000031E-1
4.271998438E0,-5.243999958E-1,7.669999599E-1,-1.057799935E0
4.291998438E0,4.334999919E-1,9.067999721E-1,7.705000043E-1
4.312000000E0,-3.597999811E-1,1.747999936E-1,4.830999970E-1
4.332000000E0,-1.791999936E0,-1.246500015E0,3.690099955E0
4.361998438E0,-1.882499933E0,3.954399824E0,-6.309799671E0
4.381998438E0,7.868999839E-1,-1.202799916E0,-7.985799789E0
4.402000000E0,-1.979900002E0,3.274999857E-1,-2.275899887E0
4.431998438E0,-2.330999970E-1,-4.479999840E-2,2.913599968E0
4.451998438E0,1.863899946E0,6.133999825E-1,-2.122799873E0
4.472000000E0,1.694499969E0,1.325799942E0,3.456999958E-1
4.501998438E0,-1.852999926E-1,1.049000025E0,-1.218699932E0
4.521998438E0,1.493899941E0,3.075999916E-1,-3.597800016E0
4.542000000E0,1.436100006E0,1.012899995E0,3.712499857E0
4.571998438E0,1.328699946E0,-1.029999971E0,-3.643999994E-1
4.591998438E0,-7.180000097E-2,-9.889999628E-1,-2.459800005E0
4.612000000E0,-3.076499939E0,-2.849999964E-1,2.328699827E0
4.642000000E0,-6.964499950E0,4.200999737E0,1.353699923E0
4.672000000E0,3.965999782E-1,-2.103100061E0,-1.308899999E0
4.701998438E0,4.309099674E0,-4.617199898E0,-2.177299976E0
4.721998438E0,1.854099989E0,5.401999950E-1,-2.109999955E-1
4.742040625E0,-2.296999991E-1,7.488999963E-1,-1.674399972E0
4.771998438E0,1.278999895E-1,-6.125000119E-1,-1.137899995E0
4.791998438E0,-1.097999960E-1,-3.112999797E-1,-1.128999963E-1
4.812000000E0,2.228000015E-1,-1.167999983E0,-1.585399985E0
4.841998438E0,1.562299967E0,-1.157299995E0,-2.968999863E0
4.861998438E0,2.464499950E0,-6.934999824E-1,3.834999800E-1
4.881998438E0,1.360599995E0,-2.374300003E0,3.181599855E0
4.901998438E0,-1.797899961E0,-2.478600025E0,3.739999831E-1
4.921998438E0,-1.449299932E0,-2.335599899E0,-2.088000059E0
4.941998438E0,-7.660000026E-2,-2.112499952E0,-2.590999901E-1
4.962000000E0,-2.728999853E-1,-1.169299960E0,2.193000019E-1
4.991998438E0,-8.768999577E-1,-9.999999311E-4,9.962999821E-1
5.011998438E0,-1.118399978E0,-1.796000004E-1,-8.750000000E-1
5.032000000E0,-2.698999941E-1,6.674999595E-1,-2.206999958E-1
5.061998438E0,-5.866999626E-1,1.158699989E0,3.461999893E-1
5.081998438E0,-1.646499991E0,1.397799969E0,-5.866999626E-1
5.102000000E0,-1.459599972E0,2.698000073E-1,-4.589999840E-2
5.122000000E0,5.582999587E-1,-1.670699954E0,-6.585999727E-1
5.142000000E0,8.664000034E-1,2.355599880E0,1.572999954E-1
5.162000000E0,1.124599934E0,1.753499985E0,2.563000023E-1
5.182000000E0,2.558199883E0,7.087999582E-1,-1.800799966E0
5.202000000E0,3.218600035E0,1.224099994E0,-2.682999849E0
5.222000000E0,2.280599833E0,1.974599957E0,-2.770699978E0
5.242000000E0,1.087899923E0,1.634499907E0,3.226999938E-1
5.262000000E0,-1.929999888E-1,1.743999958E0,3.147999942E-1
5.282000000E0,-1.081099987E0,1.217399955E0,-7.100999951E-1
5.302000000E0,-1.156899929E0,8.648999929E-1,-1.586199999E0
5.322000000E0,-6.117999554E-1,4.478999972E-1,-2.290999889E0
5.342000000E0,1.955000013E-1,-1.782999933E-1,-2.269999981E-1
5.362000000E0,1.107900023E0,-8.950999975E-1,1.458999991E0
5.382000000E0,1.254699945E0,-1.275200009E0,8.000999689E-1
5.402000000E0,8.650999665E-1,-8.434999585E-1,-7.039999962E-2
5.422000000E0,8.725000024E-1,-6.816999912E-1,-1.439199924E0
5.442000000E0,5.464000106E-1,-1.588299990E0,-1.169799924E0
5.462000000E0,1.024299979E0,-1.866099954E0,-9.300999641E-1
5.482000000E0,1.515100002E0,-1.366999984E0,-1.665000021E-1
5.502000000E0,1.080999970E0,-6.459000111E-1,9.362999797E-1
5.522000000E0,-4.842999876E-1,6.344999671E-1,8.758999705E-1
5.542000000E0,-1.456799984E0,1.113999963E0,-6.790000200E-2
5.562000000E0,-1.237299919E0,4.779999703E-2,-3.057000041E-1
5.582000000E0,-1.459599972E0,-5.744000077E-1,8.998000026E-1
5.602000000E0,-1.114199996E0,-1.505999923E0,1.907299995E0
5.622000000E0,-6.999999750E-3,-4.500999749E-1,1.241299987E0
5.642000000E0,1.617900014E0,1.090000011E-2,-1.250000000E0
5.662000000E0,1.929999888E-2,-1.104599953E0,-1.233600020E0
5.682000000E0,-2.170799971E0,-7.924999595E-1,1.176499963E0
5.702000000E0,-1.504699945E0,4.179999977E-2,1.060199976E0
5.722000000E0,5.212000012E-1,1.598999947E-1,-1.642099977E0
5.742000000E0,7.763999701E-1,-4.299999774E-1,-2.119299889E0
5.762000000E0,2.962000072E-1,-2.780999839E-1,-1.121099949E0
5.782000000E0,1.735000014E-1,-2.386999875E-1,-4.299999680E-3
5.802000000E0,-1.559999958E-2,-1.309099913E0,1.903599977E0
5.822000000E0,8.863999844E-1,-3.655999899E-1,1.740999967E-1
5.842000000E0,6.351000071E-1,1.892899990E0,1.179600000E0
5.862000000E0,2.811999917E-1,-2.466999888E-1,-5.160999894E-1
5.882000000E0,-1.073599935E0,-7.087999582E-1,5.590000004E-2
5.902000000E0,-2.250999957E-1,-9.791999459E-1,-2.604300022E0
5.922000000E0,1.049700022E0,-6.984999776E-1,-3.150399923E0
5.942000000E0,1.861400008E0,-1.576900005E0,-2.982999980E-1
5.962000000E0,2.956599951E0,-1.764299989E0,-5.918999910E-1
5.982000000E0,2.044399977E0,2.978999913E-1,-7.200999856E-1
6.002000000E0,2.215899944E0,-4.035999775E-1,-3.999999724E-3
6.022000000E0,1.276499987E0,-1.317899942E0,-5.929999948E-1
6.042000000E0,-3.061999977E-1,-1.304099917E0,1.712999940E-1
6.062000000E0,-4.690499783E0,-5.497999787E-1,-2.367799997E0
6.082000000E0,-4.462899685E0,4.069999978E-2,-1.143999934E0
6.102000000E0,-6.949999928E-1,7.299999893E-2,2.970499992E0
6.122000000E0,1.088099957E0,-5.121999979E-1,1.186900020E0
6.142000000E0,2.590399981E0,1.832999885E-1,2.358700037E0
6.162000000E0,1.049299955E0,7.173999548E-1,7.705000043E-1
6.182000000E0,4.642999768E-1,1.035899997E0,1.689899921E0
6.202000000E0,4.633999765E-1,2.449999936E-2,-2.101199865E0
6.222000000E0,-2.260999978E-1,1.353500009E0,-3.856400013E0
6.242000000E0,1.263499975E0,8.722999692E-1,-2.624399900E0
6.262000000E0,2.365599871E0,2.942199945E0,-2.047199965E0
6.282000000E0,7.594999671E-1,2.560899973E0,-1.158900023E0
6.302000000E0,-3.877999783E-1,8.619999886E-2,-5.148999691E-1
6.322000000E0,-1.205799937E0,-2.530799866E0,-3.951999843E-1
6.342000000E0,-2.074199915E0,-3.185099840E0,1.429099917E0
6.362000000E0,-4.563999772E-1,-3.401099920E0,7.336999774E-1
6.382000000E0,-9.697999954E-1,-5.500000119E-1,1.855399966E0
6.402000000E0,-4.989999831E-1,8.527999520E-1,-1.123799920E0
6.422000000E0,-4.484999776E-1,1.340499997E0,-9.352999926E-1
6.442000000E0,-1.271199942E0,1.302299976E0,-4.763999879E-1
6.462000000E0,4.998999834E-1,-6.468999982E-1,-2.922699928E0
6.482000000E0,6.308999658E-1,-7.451999784E-1,9.508000016E-1
6.502000000E0,1.550799966E0,-1.167699933E0,-6.943999529E-1
6.522000000E0,1.946999907E0,-4.095000029E-1,-7.777999640E-1
6.542000000E0,1.439899921E0,-3.944999874E-1,1.632999927E-1
6.562000000E0,6.850000024E-1,-9.496999979E-1,-8.460999727E-1
6.582000000E0,1.869999915E-1,8.929999918E-2,-1.059100032E0
6.602000000E0,1.289999951E-2,2.795999944E-1,-4.217999876E-1
6.622000000E0,-1.127799988E0,-9.332000017E-1,1.142499924E0
6.642000000E0,-2.561100006E0,-5.949999690E-1,1.577700019E0
6.662000000E0,-2.185600042E0,2.613999844E-1,1.078999937E-1
6.682000000E0,-8.181999922E-1,1.495000005E0,-2.379999876E0
6.702000000E0,1.332999915E-1,-2.393999994E-1,-1.218899965E0
6.722000000E0,5.069999695E-1,-3.698999882E-1,-1.183799982E0
6.742000000E0,1.691000015E-1,1.162799954E0,-9.254999757E-1
6.762000000E0,-2.141999900E-1,7.487999797E-1,-9.696999788E-1
6.782000000E0,-3.299999982E-2,-8.217999935E-1,7.639999688E-2
6.802000000E0,6.291999817E-1,-3.153100014E0,-8.434000015E-1
6.822000000E0,-7.871999741E-1,-1.001899958E0,-5.794999599E-1
6.842000000E0,-3.333999813E-1,-6.659999490E-2,1.278999895E-1
6.862000000E0,5.309999585E-1,2.017000020E-1,4.504999816E-1
6.882000000E0,1.733999997E-1,4.449999705E-2,2.645999789E-1
6.902000000E0,-1.095799923E0,3.743000031E-1,-1.034999937E-1
6.931998438E0,-5.669999868E-2,1.074999943E-1,-8.276999593E-1
6.951998438E0,1.754999906E-1,-3.321000040E-1,-3.069999814E-1
6.971998438E0,-3.744999766E-1,-1.053200006E0,1.841000021E-1
6.991998438E0,-8.508999944E-1,-1.499799967E0,-6.053000093E-1
7.011998438E0,-5.067999959E-1,-1.246699929E0,-1.752999902E0
7.032000000E0,1.112999991E-1,-1.045199990E0,-1.230999947E0
7.061998438E0,-3.084000051E-1,2.872000039E-1,6.396999955E-1
7.081998438E0,9.332999587E-1,-3.944999874E-1,-1.717099905E0
7.102000000E0,7.319999486E-2,1.994999945E-1,3.261999786E-1
7.131998438E0,-4.386999905E-1,9.889999777E-2,-1.176800013E0
7.151998438E0,-2.978000045E-1,1.106999964E-1,-1.392099977E0
7.172000000E0,6.351999640E-1,-7.849999666E-1,-1.119599938E0
7.201998438E0,2.093600035E0,-5.937999725E0,9.736999869E-1
7.221998438E0,1.168999970E-1,-1.821999907E0,-3.900000080E-2
7.242000000E0,-7.817999721E-1,2.316999912E0,-2.399999946E-1
7.271998438E0,-2.601000071E-1,1.592499971E0,-1.754899979E0
7.291998438E0,-3.064199924E0,5.634399891E0,-2.055199862E0
7.312000000E0,5.959999934E-2,2.593400002E0,-1.166999936E0
7.332000000E0,4.500999749E-1,2.428299904E0,-1.333999991E0
7.352000000E0,8.950999975E-1,1.193799973E0,-8.398999572E-1
7.372000000E0,3.190999925E-1,1.011899948E0,1.411799908E0
7.392000000E0,5.080000162E-1,-6.826999784E-1,3.920999765E-1
7.412000000E0,1.299000025E0,-3.447799921E0,-2.672799826E0
7.432000000E0,2.019099951E0,-7.237599850E0,-1.156199932E0
7.452000000E0,-9.296999574E-1,-5.012000084E0,4.922999740E-1
7.472000000E0,-1.120599985E0,-3.467700005E0,-1.079999954E-1
7.492000000E0,-1.732299924E0,2.716699839E0,-1.950999945E-1
7.512000000E0,-1.256799936E0,4.677199841E0,-2.562099934E0
7.532000000E0,2.355799913E0,-3.054600000E0,-3.373600006E0
7.552000000E0,2.987099886E0,-6.458799839E0,-1.936800003E0
7.572000000E0,1.386999965E0,2.699999837E-3,-1.785599947E0
7.592000000E0,-1.395799994E0,8.145799637E0,-1.767399907E0
7.612000000E0,-2.439800024E0,9.834899902E0,-2.859099865E0
7.632000000E0,-1.200600028E0,6.823799610E0,-3.358199835E0
7.652000000E0,6.965999603E-1,-2.147699833E0,-3.560799837E0
7.672000000E0,2.606699944E0,-1.222909927E1,-4.199699879E0
7.692000000E0,2.166899920E0,-1.243579960E1,-2.033599854E0
7.712000000E0,2.485699892E0,-3.318799973E0,-1.776299953E0
7.732000000E0,3.796799898E0,6.373999715E-1,-3.469699860E0
7.752000000E0,3.612999916E0,5.119000077E-1,-1.257099986E0
7.772000000E0,1.457399964E0,-7.559999824E-1,-4.825999737E-1
7.792000000E0,-7.520999908E-1,-1.924699903E0,-1.488999963E0
7.812000000E0,-1.052500010E0,-1.912999988E0,-3.029999971E0
7.832000000E0,-4.809999838E-2,-3.813000023E-1,-2.085299969E0
7.852000000E0,6.674999595E-1,-4.143999815E-1,-2.274299860E0
7.872000000E0,6.272000074E-1,-1.721499920E0,-2.263599873E0
7.892000000E0,1.051200032E0,-2.067199945E0,-1.391499996E0
7.912000000E0,1.188799977E0,-1.611999989E0,-7.889999449E-2
7.932000000E0,-4.470000044E-2,-9.432999492E-1,3.313999772E-1
7.952000000E0,-1.649199963E0,7.299999706E-3,4.635999799E-1
7.972000000E0,-1.828899980E0,1.411899924E0,-5.604999661E-1
7.992000000E0,-1.598799944E0,1.928200006E0,-5.320000052E-1
8.012000000E0,-1.512899995E0,1.462899923E0,1.359999925E-2
8.042000000E0,-7.414999604E-1,-3.865999877E-1,1.232900023E0
8.072000000E0,1.535499930E0,-1.911799908E0,1.521999955E0
8.102000000E0,2.187399864E0,-1.005100012E0,-1.488199949E0
8.131998438E0,9.054999948E-1,-1.706999987E-1,-2.081899881E0
8.151998438E0,1.331799984E0,-8.046000004E-1,-1.252999902E-1
8.172000000E0,9.835000038E-1,-7.637000084E-1,1.273499966E0
8.192000000E0,2.999999851E-4,8.599999547E-2,-4.555999935E-1
8.221998438E0,-1.362999976E-1,9.711999893E-1,8.549999446E-2
8.242000000E0,-1.629199982E0,-5.264999866E-1,9.791999459E-1
8.262000000E0,-3.038100004E0,-1.253099918E0,2.029999942E-1
8.291998438E0,-1.197499990E0,-6.067999601E-1,-5.169999599E-1
8.311998438E0,1.152999997E0,7.224999666E-1,-8.537999988E-1
8.332000000E0,3.945599794E0,3.561999798E-1,-3.215999901E-1
8.361998438E0,4.014100075E0,-2.131999969E0,-2.060799837E0
8.381998438E0,3.831899881E0,-3.040099859E0,-1.390799999E0
8.402000000E0,2.416399956E0,-1.704699993E0,-1.159299970E0
8.431998438E0,-4.705999792E-1,-4.177999794E-1,-2.585500002E0
8.451998438E0,-1.627699971E0,4.048999846E-1,-4.089600086E0
8.472000000E0,-8.229999989E-2,1.269199967E0,-3.133499861E0
8.501998438E0,2.683399916E0,7.820999622E-1,-2.604699850E0
8.521998438E0,3.146699905E0,9.901999831E-1,-3.618099928E0
8.542000000E0,2.924399853E0,1.137300014E0,-3.287499905E0
8.571998438E0,1.708400011E0,-5.167999864E-1,-1.383999944E0
8.591998438E0,-8.422999978E-1,-1.028900027E0,-1.612399936E0
8.612000000E0,-1.352199912E0,-1.576999903E0,-1.950999975E0
8.641998438E0,-1.191399932E0,-9.768999815E-1,-8.743000031E-1
8.661998438E0,-1.589100003E0,-3.903999925E-1,-7.412999868E-1
8.682000000E0,-1.444800019E0,-3.930999935E-1,-1.723699927E0
8.711998438E0,-2.269999981E-1,-1.671999991E-1,-2.962999821E0
8.731998438E0,1.102599978E0,-6.261999607E-1,-3.083499908E0
8.752000000E0,2.102699995E0,-1.262399912E0,-3.320499897E0
8.781998438E0,2.720799923E0,-1.560099959E0,-4.229399681E0
8.801998438E0,2.425199986E0,-1.628700018E0,-1.275900006E0
8.822000000E0,1.032099962E0,-1.413999915E0,-8.838999867E-1
8.851998438E0,1.299999952E-1,1.975999922E-1,-2.092700005E0
8.871998438E0,-7.734999657E-1,5.238999724E-1,-1.501999944E-1
8.892000000E0,-1.357699990E0,-4.623999894E-1,1.501799941E0
8.921998438E0,-7.085999846E-1,-1.119899988E0,7.451999784E-1
8.941998438E0,-2.380999923E-1,-1.258799911E0,-3.619000018E-1
8.962000000E0,-1.261000037E-1,-7.216999531E-1,-6.371999979E-1
8.991998438E0,4.073999822E-1,-4.222999811E-1,-1.445000023E-1
9.011998438E0,2.136999965E-1,-3.082000017E-1,9.589999914E-2
9.032000000E0,-9.200000204E-3,1.339000016E-1,-3.280999959E-1
9.061998438E0,7.799999714E-1,1.123899937E0,-1.842000008E0
9.081998438E0,1.135699987E0,8.070999980E-1,-6.632999778E-1
9.102000000E0,1.012099981E0,-9.203999639E-1,3.470000029E-1
9.131998438E0,-5.909999833E-2,-8.673999906E-1,-1.036999971E-1
9.151998438E0,-2.524999976E-1,1.588999927E-1,-1.654599905E0
9.172000000E0,3.088999987E-1,7.448999882E-1,-1.813699961E0
9.201998438E0,4.606999755E-1,1.712999940E-1,-6.019999981E-1
9.222000000E0,3.434999883E-1,-7.289999723E-1,-7.543999553E-1
9.242000000E0,3.615999818E-1,-3.401999772E-1,-1.016600013E0
9.262000000E0,-1.300000004E-3,1.683000028E-1,-9.940999746E-1
9.292000000E0,-2.052999884E-1,-4.027999938E-1,-5.436999798E-1
9.322000000E0,5.073999763E-1,-1.222299933E0,-9.981999993E-1
9.351998438E0,4.657000005E-1,-1.204699993E0,-4.799000025E-1
9.371998438E0,1.648000032E-1,-1.100399971E0,-1.104099989E0
9.392000000E0,3.078999817E-1,-7.069999576E-1,-1.148699999E0
9.421998438E0,5.373099804E0,9.817000031E-1,-6.905999780E-1
9.441998438E0,3.101199865E0,3.031599998E0,-6.667999625E-1
9.462000000E0,-2.321199894E0,2.587699890E0,3.495000005E-1
9.492001563E0,-5.244800091E0,-2.436499834E0,2.668900013E0
9.521998438E0,-6.009999663E-2,-3.032500029E0,2.109599829E0
9.542000000E0,-2.662999928E-1,3.903999925E-1,3.605999947E-1
9.571998438E0,-1.026600003E0,1.900299907E0,-4.843999743E-1
9.591998438E0,-8.053999543E-1,4.118999839E-1,-1.655000001E-1
9.612000000E0,-4.226999879E-1,-7.703999877E-1,6.484000087E-1
9.641998438E0,2.867999971E-1,-6.329999566E-1,9.563999772E-1
9.661998438E0,-1.005200028E0,-1.797999889E-1,-4.497999847E-1
9.682000000E0,-2.129400015E0,-2.104000002E-1,-1.468099952E0
9.711998438E0,-1.006299973E0,-1.303099990E0,-1.837399960E0
9.732040625E0,1.390100002E0,-1.484599948E0,-1.164499998E0
9.762000000E0,1.098099947E0,-8.571999669E-1,4.839999974E-2
9.791998438E0,-3.021999896E-1,2.989999950E-1,-1.344399929E0
9.811998438E0,3.452000022E-1,5.850999951E-1,-2.061199903E0
9.832000000E0,1.134599924E0,7.559999824E-2,-1.678399920E0
9.861998438E0,5.406000018E-1,-5.566999912E-1,-4.652999938E-1
9.881998438E0,-1.195999980E-1,-7.407000065E-1,6.350000203E-2
9.902000000E0,-7.447999716E-1,-1.209499955E0,2.520000041E-1
9.932000000E0,-1.375699997E0,-2.874000072E-1,-1.025499940E0
9.962000000E0,-1.013299942E0,-1.216999963E-1,-3.799999878E-2
9.991998438E0,-2.889999934E-2,-4.982999861E-1,-5.613999963E-1
1.001199844E1,5.480999947E-1,-4.694999754E-1,-5.590000004E-2
1.003200000E1,3.510999978E-1,-6.694999933E-1,1.929999888E-2
1.006200000E1,-1.516999900E-1,-4.869999886E-1,-1.125599980E0
1.009199844E1,-7.218999863E-1,-3.337000012E-1,1.437000036E-1
1.011200000E1,2.029999942E-1,-1.435000002E-1,5.619999766E-2
1.013200000E1,-7.725999951E-1,2.265999913E-1,2.976999879E-1
1.015200000E1,-1.401099920E0,-9.415999651E-1,3.059999943E-1
1.017200000E1,-4.084999859E-1,-1.428499937E0,9.129999578E-2
1.019200000E1,8.880999684E-1,-1.282899976E0,-9.809999913E-2
1.021200000E1,1.971699953E0,-7.861999869E-1,5.022999644E-1
1.023200000E1,1.870700002E0,-3.955999911E-1,9.042999744E-1
1.025200000E1,-3.739999831E-1,-1.735999882E-1,5.773999691E-1
1.027200000E1,-9.325000048E-1,4.963999987E-1,-3.597199917E0
1.029200000E1,-1.470099926E0,-9.209999442E-2,-3.209399939E0
1.031200000E1,2.706199884E0,4.169999808E-2,2.183599949E0
1.033200000E1,3.946799994E0,3.384999931E-1,2.483899832E0
1.035200000E1,3.189599991E0,-1.574999988E-1,-4.113000035E-1
1.038199844E1,2.928200006E0,9.455999732E-1,-4.034100056E0
1.040200000E1,3.427699804E0,7.145999670E-1,-4.152599812E0
1.043199844E1,-2.491999865E-1,2.122599840E0,-7.448199749E0
1.045199844E1,-1.760699987E0,2.025199890E0,-1.070799947E0
1.047200000E1,2.751099825E0,-9.899999946E-3,-1.607199907E0
1.050199844E1,3.779299974E0,4.039999843E-2,-4.974099636E0
1.052199844E1,5.087999701E-1,2.372999936E-1,-2.350899935E0
1.054200000E1,-8.689000010E-1,-1.256699920E0,-2.778599977E0
1.057199844E1,6.437000036E-1,-5.210400105E0,-1.405200005E0
1.059199844E1,1.774199963E0,-5.208499908E0,8.957999945E-1
1.061200000E1,9.981999993E-1,-3.144699812E0,4.569999874E-1
1.064199844E1,1.570999920E-1,-2.446799994E0,3.298599958E0
1.066199844E1,-4.616699696E0,-5.312200069E0,7.834599972E0
1.068200000E1,-9.981399536E0,-1.074249935E1,5.810499668E0
1.071199844E1,-2.116999865E0,5.155999660E-1,-3.013900042E0
1.073199844E1,1.027599931E0,1.833999902E-1,1.133209991E1
1.075200000E1,-2.974599838E0,1.403999925E-1,5.716799736E0
1.078199844E1,-4.514499664E0,9.397999644E-1,3.446999788E-1
1.080199844E1,-4.083499908E0,1.867899895E0,-3.495599985E0
1.082200000E1,-1.858500004E0,6.947000027E-1,-1.841599941E0
1.085199844E1,1.907799959E0,-8.787999749E-1,-1.543699980E0
1.087200000E1,1.098299980E0,7.242999673E-1,-1.507300019E0
1.089200000E1,4.089999944E-2,6.376000047E-1,-2.635699987E0
1.092199844E1,2.298099995E0,-9.291999936E-1,-1.080999970E-1
1.094199844E1,2.246099949E0,-8.508999944E-1,-1.440999955E-1
1.096200000E1,-1.057899952E0,-9.919999838E-1,-6.751999855E-1
1.099199844E1,-2.403399944E0,-5.982999802E-1,1.229999959E-2
1.101199844E1,-1.346899986E0,9.099999443E-3,1.471499920E0
1.103200000E1,-1.219699979E0,-2.771999836E-1,3.034999967E-1
1.106199844E1,-1.261699915E0,2.856000066E-1,-1.267899990E0
1.108199844E1,1.517999917E-1,1.486999989E-1,-6.660999656E-1
1.110199844E1,1.113999963E0,2.240999937E-1,-9.999999404E-2
1.112200000E1,1.237900019E0,-1.719999909E-1,-5.709999800E-2
1.115199844E1,1.656000018E-1,-1.732299924E0,7.344999909E-1
1.117200000E1,-1.124300003E0,-1.654099941E0,1.547500014E0
1.120199844E1,2.173999995E-1,-1.306999922E0,4.135999680E0
1.122199844E1,6.667000055E-1,-2.057100058E0,4.551799774E0
1.124199844E1,-7.979999483E-2,-3.826999903E0,5.094899654E0
1.126199844E1,-2.710599899E0,-5.147799969E0,5.942499638E0
1.128199844E1,-3.101699829E0,-6.349099636E0,1.215899944E0
1.130199844E1,-1.394999981E0,-6.563399792E0,-2.312399864E0
1.132200000E1,-9.952999949E-1,-4.648399830E0,-3.207399845E0
1.135199844E1,-8.586999774E-1,-1.542899966E0,-2.323299885E0
1.137199844E1,8.168999553E-1,2.834999859E-1,-3.106099844E0
1.139200000E1,-5.120999813E-1,2.605900049E0,4.301999807E-1
1.142199844E1,-2.000699997E0,1.754099965E0,-2.579299927E0
1.144199844E1,-1.519199967E0,-5.041999817E-1,-2.977399826E0
1.146200000E1,-2.377000004E-1,-1.020200014E0,-3.659999847E0
1.149199844E1,7.128999829E-1,4.573999941E-1,-4.140599728E0
1.151199844E1,1.313300014E0,4.333999753E-1,-3.435899973E0
1.153200000E1,1.469299912E0,-1.405300021E0,-5.764800072E0
1.156199844E1,-7.617999911E-1,2.784299850E0,-3.378799915E0
1.158199844E1,-9.778999686E-1,3.028699875E0,-3.344300032E0
1.160200000E1,-1.813799977E0,9.817000031E-1,-2.032599926E0
1.162200000E1,-1.363299966E0,2.604999840E-1,1.405999959E-1
1.165199844E1,6.019999832E-2,9.488999844E-1,3.205799818E0
1.167200000E1,-4.420999885E-1,2.613499880E0,4.274999797E-1
1.169200000E1,2.973999977E-1,-1.092899919E0,3.016599894E0
1.172199844E1,-1.650999904E0,4.779999852E-1,8.999999613E-2
1.174199844E1,7.213000059E-1,2.316200018E0,-1.062600017E0
1.176200000E1,1.772199988E0,1.287899971E0,-1.467599988E0
1.179199844E1,-1.281899929E0,2.690699816E0,-1.120100021E0
1.181199844E1,-2.447799921E0,1.701099992E0,1.152300000E0
1.183200000E1,-2.000999928E0,9.023999572E-1,2.257699966E0
1.186199844E1,-3.802999854E-1,-1.412999928E-1,2.192999840E0
1.188199844E1,-5.686999559E-1,5.738999844E-1,1.957899928E0
1.190200000E1,-6.800999641E-1,1.096699953E0,1.118000031E0
1.193199844E1,-3.766999841E-1,1.045199990E0,5.849999934E-2
1.195199844E1,2.504999936E-1,7.762999535E-1,-4.061999917E-1
1.197200000E1,5.590000153E-1,6.341999769E-1,-7.527999878E-1
1.200199844E1,3.393999934E-1,-5.514000058E-1,7.464999557E-1
1.202199844E1,3.082999885E-1,-6.031999588E-1,9.918999672E-1
1.204200000E1,4.618999958E-1,-7.387999892E-1,4.964999855E-1
1.207199844E1,1.325999945E-1,-8.061999679E-1,-3.865000010E-1
1.209199844E1,6.069999933E-2,-9.251999855E-1,-9.470000118E-2
1.211200000E1,-2.189999968E-1,-8.154999614E-1,-2.172999978E-1
1.214199844E1,1.057399988E0,-1.083199978E0,-4.889999926E-1
1.216199844E1,1.027300000E0,-6.280999780E-1,-4.963999987E-1
1.218200000E1,1.114799976E0,-9.652999640E-1,-2.001999915E-1
1.221199844E1,1.024099946E0,-8.502999544E-1,-2.426199913E0
1.223199844E1,7.257999778E-1,-3.003999889E-1,-7.224000096E-1
1.225200000E1,2.377999872E-1,-8.276000023E-1,-1.509999949E-2
1.228199844E1,-9.935999513E-1,-7.860999703E-1,-3.048999906E-1
1.230199844E1,-9.102999568E-1,4.574999809E-1,-1.040000003E-2
1.232200000E1,2.969999984E-2,4.624999762E-1,5.404999852E-1
1.235199844E1,-4.777999818E-1,-6.830000132E-2,1.052000001E-1
1.237199844E1,-1.358099937E0,-2.721000016E-1,5.019999743E-1
1.239199844E1,-1.064700007E0,7.009999454E-2,1.172899961E0
1.241199844E1,-1.683799982E0,7.229999453E-2,3.291999996E-1
1.243199844E1,-2.120300055E0,-2.207999974E-1,-2.207999974E-1
1.245199844E1,-6.945999861E-1,6.759999692E-2,1.581399918E0
1.247200000E1,-9.978999496E-1,-7.407000065E-1,1.388899922E0
1.250199844E1,-3.094799995E0,-1.222800016E0,-2.521699905E0
1.252199844E1,-5.363999605E-1,-8.234999776E-1,-3.585199833E0
1.254199844E1,1.956399918E0,-4.978999794E-1,-2.047499895E0
1.256199844E1,2.226899862E0,8.560000062E-1,-1.449999958E-1
1.258199844E1,7.549999654E-2,7.924000025E-1,-1.059299946E0
1.260200000E1,-3.191399813E0,1.408800006E0,5.268999934E-1
1.262200000E1,-2.154299974E0,-1.486899972E0,1.308099985E0
1.265199844E1,3.358500004E0,-5.531099796E0,-7.660000026E-2
1.267199844E1,3.366299868E0,-2.303799868E0,2.182699919E0
1.269200000E1,-6.825999618E-1,-1.993099928E0,1.277499914E0
1.272199844E1,-8.040999770E-1,-1.318499923E0,1.082800031E0
1.274199844E1,6.434000134E-1,-8.087999821E-1,1.174999952E0
1.276199844E1,1.452399969E0,-3.155999780E-1,-4.184999764E-1
1.278199844E1,1.025900006E0,2.057999969E-1,-1.941199899E0
1.280199844E1,-1.679999948E0,-1.578999907E-1,-2.305500031E0
1.282200000E1,-2.324300051E0,-1.179799914E0,-1.762399912E0
1.285199844E1,7.390999794E-1,8.869999647E-2,-6.035000086E-1
1.287199844E1,1.187799931E0,1.388399959E0,-8.510999680E-1
1.289200000E1,3.173999786E-1,7.062999606E-1,-3.388999999E-1
1.292199844E1,2.328999937E-1,1.595999897E-1,4.704999924E-1
1.294199844E1,-4.730999768E-1,4.882999957E-1,8.741999865E-1
1.296200000E1,-1.970899940E0,1.170300007E0,3.290999830E-1
1.299199844E1,-1.855599999E0,-8.599999361E-3,1.536899924E0
1.301199844E1,-5.744999647E-1,-4.366999865E-1,1.065199971E0
1.303199844E1,4.311999977E-1,-2.349999920E-2,8.021999598E-1
1.305199844E1,5.184000134E-1,1.941999942E-1,8.343999982E-1
1.307199844E1,-4.034000039E-1,5.539000034E-1,-3.448999822E-1
1.309199844E1,-1.090600014E0,1.167999953E-1,-1.101599932E0
1.311200000E1,-4.481000006E-1,-3.400000036E-1,-5.443999767E-1
1.314199844E1,1.157400012E0,-4.316999912E-1,-6.326999664E-1
1.316199844E1,7.615999579E-1,-1.743000001E-1,-2.549999952E-2
1.318200000E1,-8.219999820E-2,2.759999931E-1,3.075999916E-1
1.321199844E1,-2.518000007E-1,5.909999609E-1,2.716000080E-1
1.323199844E1,-1.051299930E0,2.443999946E-1,-5.285999775E-1
1.325200000E1,-2.314999998E-1,-3.842999935E-1,-3.528999984E-1
1.328199844E1,6.071000099E-1,-6.563000083E-1,2.431999892E-1
1.330199844E1,7.069999725E-2,-5.924000144E-1,6.450999975E-1
1.332200000E1,-6.818000078E-1,-4.140999913E-1,1.076099992E0
1.335199844E1,-1.318499923E0,-2.439999953E-2,-9.142999649E-1
1.337199844E1,-5.051999688E-1,-2.006999999E-1,1.406999975E-1
1.339200000E1,-1.208999977E-1,-3.721999824E-1,1.375000030E-1
1.342199844E1,-5.490999818E-1,-8.460000157E-2,3.384999931E-1
1.344199844E1,-8.479999900E-1,-1.973000020E-1,5.363999605E-1
1.346200000E1,-7.141999602E-1,-5.436999798E-1,5.187999606E-1
1.349199844E1,-8.707000017E-1,-5.934999585E-1,8.199999928E-1
1.351199844E1,-1.049499989E0,-4.046999812E-1,1.004199982E0
1.353200000E1,-1.676699996E0,-2.960999906E-1,3.385999799E-1
1.355200000E1,-1.903899908E0,1.950000040E-2,2.964999974E-1
1.358199844E1,-1.381699920E0,-5.496000051E-1,5.225999951E-1
1.360200000E1,-2.276999950E-1,-1.075799942E0,5.297999978E-1
1.362200000E1,4.373999834E-1,-1.111099958E0,3.069999814E-1
1.365199844E1,2.739999890E-1,-7.006999850E-1,3.559999913E-2
1.367199844E1,-3.329999745E-2,-6.114000082E-1,-3.245999813E-1
1.369199844E1,1.550000012E-1,-5.690999627E-1,-6.133999825E-1
1.371199844E1,5.519999936E-2,-3.261999786E-1,-2.606999874E-1
1.373199844E1,-2.213999927E-1,-3.980000019E-1,-2.084999979E-1
1.375200000E1,-1.023999974E-1,-2.219000012E-1,9.899999946E-2
1.378199844E1,2.633000016E-1,-3.998999894E-1,4.086000025E-1
1.380199844E1,-4.177999794E-1,-8.320000023E-2,-1.669999957E-2
1.382200000E1,-4.528999925E-1,-7.889999449E-2,-1.929999888E-2
1.385199844E1,-1.319999993E-2,-9.089999646E-2,1.008999944E-1
1.387199844E1,2.539999969E-2,-3.294999897E-1,1.056999937E-1
1.389200000E1,1.495999992E-1,-3.991999924E-1,-8.399999700E-3
1.392199844E1,3.025999963E-1,-5.996999741E-1,6.520000100E-2
1.394199844E1,5.712000132E-1,-6.808999777E-1,-2.833999991E-1
1.396200000E1,5.257999897E-1,-5.048999786E-1,-4.723999798E-1
1.399199844E1,1.882999986E-1,-2.135999948E-1,-1.140000001E-1
1.401199844E1,-5.799999926E-3,-3.559999913E-2,-1.241999939E-1
1.403200000E1,-4.799000025E-1,-3.500000015E-2,-2.642000020E-1
1.406199844E1,-4.429999888E-1,-3.155999780E-1,3.229999915E-2
1.408199844E1,2.958999872E-1,-5.475000143E-1,4.633999765E-1
1.410199844E1,3.428999782E-1,-4.246999919E-1,3.350999951E-1
1.412199844E1,-4.354999959E-1,-2.570999861E-1,8.320000023E-2
1.414199844E1,-5.644999743E-1,-2.928999960E-1,-1.687999964E-1
1.416199844E1,-2.939999998E-1,-4.493999779E-1,-2.157999873E-1
1.418200000E1,-1.042999998E-1,-3.888999820E-1,-1.925999969E-1
1.421199844E1,-8.039999753E-2,-2.687000036E-1,-5.179999769E-2
1.423199844E1,-1.785999984E-1,-1.757999957E-1,5.769999698E-2
1.425200000E1,-2.386000007E-1,-2.610000074E-1,-1.072999984E-1
1.428199844E1,-1.806000024E-1,-2.529999912E-1,4.470000044E-2
1.430199844E1,-7.159999758E-2,-4.544999897E-1,1.749999970E-1
1.432200000E1,-2.825999856E-1,-4.417999983E-1,1.898999959E-1
1.435199844E1,-3.357000053E-1,-3.364000022E-1,-5.759999901E-2
1.437199844E1,-1.100999936E-1,-3.032000065E-1,-4.019999877E-2
1.439200000E1,8.349999785E-2,-3.763999939E-1,-1.579999924E-2
1.442199844E1,-2.753999829E-1,-3.475999832E-1,-1.879999936E-1
1.444199844E1,-5.633000135E-1,-3.237999976E-1,-1.884000003E-1
1.446200000E1,-2.373999953E-1,-3.563999832E-1,2.510000020E-2
1.449199844E1,-2.091999948E-1,-2.347999960E-1,2.249999940E-1
1.451199844E1,-2.228999883E-1,-2.405999899E-1,1.319999993E-1
1.453200000E1,-1.891999990E-1,-2.467999905E-1,1.572999954E-1
1.456199844E1,-1.790999919E-1,-1.524000019E-1,1.229999959E-1
1.458199844E1,-3.351999819E-1,-7.840000093E-2,1.429999992E-2
1.460200000E1,9.139999747E-2,-2.727999985E-1,2.588000000E-1
1.462200000E1,4.166999757E-1,-4.324999750E-1,-1.045999974E-1
1.465199844E1,3.446999788E-1,-5.309999585E-1,1.970999986E-1
1.467199844E1,1.429999918E-1,-4.056999981E-1,-6.416000128E-1
1.469200000E1,-2.989999950E-2,1.121999994E-1,-4.772000015E-1
1.472204063E1,-2.870999873E-1,-2.879999951E-2,1.580999941E-1
1.475200000E1,-4.718999863E-1,2.462999970E-1,2.040999979E-1
1.478199844E1,-9.129999876E-1,5.273000002E-1,-5.309999585E-1
1.480199844E1,-7.401999831E-1,2.628999949E-1,-4.028999805E-1
1.482200000E1,-1.030000001E-1,-1.312000006E-1,2.439999953E-2
1.485199844E1,-6.319999695E-2,-1.162999943E-1,2.478999943E-1
1.487199844E1,-4.378999770E-1,-1.569999903E-1,3.625999987E-1
1.489200000E1,-3.810999990E-1,-2.494999915E-1,1.374000013E-1
1.492199844E1,3.729999810E-2,-1.764999926E-1,2.989999950E-1
1.494199844E1,-2.210000008E-1,-2.818999887E-1,-2.999999933E-2
1.496200000E1,-1.560000032E-1,-3.842999935E-1,-2.346999943E-1
1.499199844E1,-5.700000003E-2,-3.427999914E-1,-2.976000011E-1
1.501199844E1,-1.938000023E-1,-5.011000037E-1,-4.209999740E-2
1.503200000E1,-1.678999960E-1,-4.470999837E-1,6.260000169E-2
1.505200000E1,-8.249999583E-2,-2.942000031E-1,-5.819999799E-2
1.508199844E1,-8.419999480E-2,-3.093000054E-1,-1.808999926E-1
1.510200000E1,-2.639999986E-1,-3.003999889E-1,-7.279999554E-2
1.513199844E1,-3.967999816E-1,-2.656999826E-1,1.818999946E-1
1.515199844E1,-3.998000026E-1,-1.466999948E-1,1.345999986E-1
1.517199844E1,-4.438000023E-1,-8.579999954E-2,-2.909999900E-2
1.519199844E1,-4.456999898E-1,-9.209999442E-2,-1.054999977E-1
1.521199844E1,-1.272999942E-1,-2.344999909E-1,-7.799999788E-3
1.523199844E1,-9.179999679E-2,-2.105000019E-1,6.939999759E-2
1.525200000E1,-1.433999985E-1,-2.256999910E-1,6.769999862E-2
1.528199844E1,-2.935000062E-1,-2.182999998E-1,-6.989999861E-2
1.530199844E1,-1.683999896E-1,-2.428999990E-1,-9.099999815E-2
1.532200000E1,-1.823000014E-1,-2.092999965E-1,-6.269999593E-2
1.535199844E1,-9.910000116E-2,-3.012000024E-1,-1.312000006E-1
1.537199844E1,-6.549999863E-2,-2.554999888E-1,-1.110999957E-1
1.539200000E1,-1.019999981E-1,-3.121999800E-1,-7.869999856E-2
1.542199844E1,8.259999752E-2,-3.179000020E-1,-2.796999812E-1
1.544199844E1,1.343999952E-1,-1.306999922E-1,5.199999735E-2
1.546200000E1,-9.279999882E-2,1.130999997E-1,1.103999987E-1
1.549199844E1,-3.003999889E-1,7.569999993E-2,-1.829999983E-1
1.551200313E1,-2.870000005E-1,-4.629999772E-2,-5.509999767E-2
1.554200000E1,-3.502999842E-1,-1.583999991E-1,1.310000010E-2
1.557199844E1,-2.773999870E-1,-2.884999812E-1,-1.820999980E-1
1.559199844E1,-2.052000016E-1,-4.291999936E-1,-1.812999994E-1
1.561200313E1,-2.481999993E-1,-3.467999995E-1,5.279999971E-2
1.564199844E1,-3.658999801E-1,-2.648999989E-1,3.145999908E-1
1.566199844E1,-2.773000002E-1,-3.416999876E-1,3.500999808E-1
1.568199844E1,-3.971000016E-1,-3.795000017E-1,1.118999943E-1
1.570199844E1,-4.567999840E-1,-2.682999969E-1,-9.649999440E-2
1.572199844E1,-3.465999961E-1,-1.968999952E-1,-1.105000004E-1
1.574199844E1,-2.617999911E-1,-1.534999907E-1,-7.660000026E-2
1.576200000E1,-3.028999865E-1,-1.572999954E-1,2.589999884E-2
1.579199844E1,-3.213999867E-1,-1.347000003E-1,-1.193999946E-1
1.581199844E1,-2.424999923E-1,-1.662999988E-1,-2.131999880E-1
1.583200000E1,-1.644999981E-1,-2.766000032E-1,-1.006999984E-1
1.586199844E1,-5.209999904E-2,-2.942000031E-1,1.585000008E-1
1.588199844E1,6.539999694E-2,-3.755999804E-1,4.919999838E-2
1.590200000E1,-9.300000034E-3,-3.328999877E-1,-6.279999763E-2
1.593199844E1,4.279999807E-2,-3.797000051E-1,-1.750999987E-1
1.595199844E1,2.458999902E-1,-3.684999943E-1,-5.969999731E-2
1.597200000E1,3.066000044E-1,-3.330999911E-1,1.649999991E-2
1.600199844E1,2.939999849E-2,-2.249999940E-1,-2.996999919E-1
1.602199844E1,1.765999943E-1,-3.158999979E-1,8.779999614E-2
1.604200000E1,-2.859999985E-2,-2.892999947E-1,2.694999874E-1
1.607199844E1,-3.146999776E-1,-3.493999839E-1,-1.279999968E-2
1.609199844E1,-1.046999991E-1,-3.010999858E-1,-2.891999781E-1
1.611200000E1,2.840000018E-2,-5.533999801E-1,-2.259999886E-2
1.614199844E1,-2.320999950E-1,8.619999886E-2,-1.856699944E0
1.616199844E1,-8.072999716E-1,2.470999956E-1,-9.595999718E-1
1.618200000E1,1.986999959E-1,-2.395999879E-1,-1.130999997E-1
1.621199844E1,2.617999911E-1,-4.763999879E-1,2.428999990E-1
1.623199844E1,2.831999958E-1,-4.890999794E-1,4.494999945E-1
1.625200000E1,8.379999548E-2,-2.282999903E-1,4.679999948E-1
1.628199844E1,-9.853999615E-1,5.163999796E-1,1.400000006E-1
1.630199844E1,-1.802099943E0,7.356999516E-1,2.074999958E-1
1.632200000E1,-1.622799993E0,6.707999706E-1,-3.470999897E-1
1.635199844E1,-1.288800001E0,7.770999670E-1,2.795999944E-1
1.637199844E1,-1.255100012E0,7.281000018E-1,5.859999657E-1
1.639200000E1,-1.564299941E0,4.187999964E-1,4.650999904E-1
1.642199844E1,-1.032899976E0,-2.881000042E-1,4.474999905E-1
1.644199844E1,-4.266999960E-1,-1.938000023E-1,1.054700017E0
1.646200000E1,-3.145999908E-1,1.819999889E-2,2.486999929E-1
1.649199844E1,7.148000002E-1,1.400699973E0,2.919999957E-1
1.651199844E1,7.130999565E-1,1.197099924E0,1.524299979E0
1.653200000E1,-1.349799991E0,3.998000026E-1,1.242200017E0
1.655200000E1,-2.637500048E0,-2.105999887E-1,8.215999603E-1
1.658199844E1,-2.163599968E0,-2.881999910E-1,1.222399950E0
1.660199844E1,-1.101300001E0,6.337000132E-1,8.287999630E-1
1.662200000E1,-1.019600034E0,1.352299929E0,-2.816999853E-1
1.665199844E1,-8.862999678E-1,1.366599917E0,-1.675999910E-1
1.667199844E1,-5.177000165E-1,8.435999751E-1,2.659999952E-2
1.669200000E1,-2.108999938E-1,1.810999960E-1,8.559999615E-2
1.672199844E1,-4.759999812E-1,-9.089999646E-2,-9.869999886E-1
1.674199844E1,-4.626999795E-1,3.929999843E-2,-1.298799992E0
1.676199844E1,5.489000082E-1,-3.780999780E-1,-5.196999907E-1
1.678199844E1,9.626999497E-1,-5.024999976E-1,-4.820000008E-2
1.680199844E1,5.094000101E-1,-5.374000072E-1,2.263999879E-1
1.682199844E1,4.835999906E-1,-9.630999565E-1,7.145999670E-1
1.684199844E1,1.174999997E-1,-6.523999572E-1,-3.907999992E-1
1.686199844E1,-3.707000017E-1,-6.700000167E-2,1.911000013E-1
1.688199844E1,-6.136999726E-1,4.284999967E-1,4.402999878E-1
1.690200000E1,-5.180999637E-1,1.929000020E-1,4.511999786E-1
1.693199844E1,-5.153999925E-1,-5.106999874E-1,1.938000023E-1
1.695199844E1,-7.633000016E-1,-2.197999954E-1,-4.618999958E-1
1.697200000E1,-4.805999994E-1,6.949999928E-2,-3.370999992E-1
1.700199844E1,3.750000000E-1,5.449999869E-2,-3.265999854E-1
1.702199844E1,1.448999941E-1,3.996999860E-1,-5.857999921E-1
1.704199844E1,1.284999996E-1,2.942999899E-1,-6.894999743E-1
1.706199844E1,2.915999889E-1,-5.599999800E-2,-2.780999839E-1
1.708199844E1,2.252999991E-1,-3.790999949E-1,2.825999856E-1
1.710199844E1,3.269000053E-1,-7.822999954E-1,2.456999868E-1
1.712200000E1,3.719999790E-1,-3.847999871E-1,-3.317999840E-1
1.715199844E1,-4.767999947E-1,2.703000009E-1,1.824999899E-1
1.717199844E1,-5.475000143E-1,1.576000005E-1,-1.485999972E-1
1.719199844E1,-1.524000019E-1,4.849999771E-2,-5.141000152E-1
1.721199844E1,-2.721000016E-1,2.832999825E-1,-1.098799944E0
1.723199844E1,-5.633999705E-1,3.391000032E-1,-4.193999767E-1
1.725200000E1,-3.420999944E-1,2.813999951E-1,3.098999858E-1
1.728199844E1,-2.848999798E-1,2.437999994E-1,-1.155999973E-1
1.730199844E1,-3.849000037E-1,-6.729999930E-2,2.498999983E-1
1.732200000E1,-4.512999952E-1,-4.003999829E-1,4.799999893E-1
1.735199844E1,-1.914999932E-1,-8.779999614E-1,3.756999969E-1
1.737199844E1,-1.915999949E-1,-5.435000062E-1,-8.599999547E-2
1.739200000E1,-5.350999832E-1,-1.599999964E-1,-6.689999998E-2
1.742199844E1,-7.628999949E-1,-3.097999990E-1,3.174999952E-1
1.744199844E1,-1.167099953E0,2.730000019E-2,-3.089999855E-1
1.746200000E1,-9.802999496E-1,2.116999924E-1,1.430999935E-1
1.749199844E1,-4.226999879E-1,4.048999846E-1,3.684999943E-1
1.751199844E1,-3.570999801E-1,3.570999801E-1,-3.639999777E-2
1.753200000E1,-5.022999644E-1,-1.089999974E-1,-3.689999878E-2
1.756199844E1,-7.917999625E-1,-7.314999700E-1,1.248799920E0
1.758199844E1,-1.329499960E0,-2.457999885E-1,4.519999772E-2
1.760199844E1,-1.404799938E0,3.017999828E-1,7.829999924E-2
1.762200000E1,-1.031000018E0,-4.209999740E-2,4.256999791E-1
1.765199844E1,-3.761000037E-1,-8.391999602E-1,-7.563999891E-1
1.767199844E1,2.049999870E-2,-1.060099959E0,5.419999734E-2
1.769199844E1,-1.252000034E-1,-7.572999597E-1,1.048000008E-1
1.771199844E1,-6.556000113E-1,1.009999961E-2,-3.348999918E-1
1.773199844E1,-9.138000011E-1,3.958999813E-1,8.049999923E-2
1.775200000E1,-1.163699985E0,4.306999743E-1,-2.441999912E-1
1.778199844E1,-1.185999990E0,2.585999966E-1,4.448999763E-1
1.780199844E1,-9.871999621E-1,-5.359999835E-2,1.037999988E-1
1.782200000E1,-7.856999636E-1,2.379999869E-2,7.656999826E-1
1.785199844E1,-6.803999543E-1,7.099999487E-2,7.777999640E-1
1.787199844E1,-6.385999918E-1,2.466999888E-1,4.879999757E-1
1.789200000E1,-9.067999721E-1,7.635999918E-1,7.167999744E-1
1.792199844E1,-1.490099907E0,7.048999667E-1,7.299999893E-2
1.794199844E1,-1.898699999E0,4.999999702E-2,1.169799924E0
1.796200000E1,-1.457000017E0,-7.168999910E-1,9.468999505E-1
1.799199844E1,-1.425300002E0,-3.210999966E-1,8.370000124E-2
1.801199844E1,-1.587299943E0,1.087999940E-1,2.435999960E-1
1.803200000E1,-2.153399944E0,1.380999982E-1,3.364999890E-1
1.806199844E1,-1.757699966E0,-5.044000149E-1,1.757999957E-1
1.808199844E1,-1.194100022E0,-7.429999709E-1,-2.854999900E-1
1.810199844E1,-1.402699947E0,8.479999751E-2,6.268999577E-1
1.812200000E1,-1.484200001E0,-2.669999935E-2,1.893999934E0
1.815199844E1,-1.744300008E0,-1.906999946E-1,-2.340999991E-1
1.817199844E1,-1.792599916E0,-2.254000008E-1,-4.099999964E-1
1.819200000E1,-1.554199934E0,-8.335999846E-1,4.106999934E-1
1.822199844E1,-1.074699998E0,-1.046100020E0,6.839999557E-2
1.824199844E1,-1.309999943E0,-7.181000113E-1,-1.226199985E0
1.826200000E1,-1.223500013E0,-3.813000023E-1,-1.433300018E0
1.829199844E1,-4.048999846E-1,-4.485999942E-1,-2.360499859E0
1.831199844E1,-3.847000003E-1,-6.094999909E-1,-2.587100029E0
1.833200000E1,-3.242999911E-1,-1.256500006E0,-8.807999492E-1
1.836199844E1,-1.396699905E0,-1.444599986E0,-3.333999872E0
1.838199844E1,-2.678999901E-1,-2.742499828E0,-1.373899937E0
1.840199844E1,6.351000071E-1,-2.592000008E0,3.488000035E-1
1.842199844E1,1.031499982E0,-1.611999989E0,-9.946999550E-1
1.844200000E1,7.358999848E-1,-7.471999526E-1,-1.135999918E0
1.846200000E1,8.285999894E-1,4.979999736E-2,1.314099908E0
1.849199844E1,-1.165899992E0,8.836999536E-1,1.226999983E-1
1.851199844E1,-3.332399845E0,1.922299981E0,-1.385499954E0
1.853199844E1,-4.062299728E0,2.265100002E0,-2.558699846E0
1.855199844E1,-3.747699976E0,8.222000003E-1,-1.135800004E0
1.857199844E1,-1.880899906E0,-1.173399925E0,-4.643999934E-1
1.859199844E1,3.504000008E-1,-1.734899998E0,2.096000016E-1
1.861200000E1,6.958999634E-1,-1.125800014E0,-5.216999650E-1
1.864199844E1,8.988999724E-1,-1.867799997E0,-1.388799906E0
1.866199844E1,1.261500001E0,-1.178200006E0,-3.619000018E-1
1.868200000E1,1.044099927E0,-3.607999980E-1,-5.667999983E-1
1.871199844E1,-3.328000009E-1,-1.449399948E0,1.313799977E0
1.873199844E1,-1.094200015E0,-8.032999635E-1,2.422600031E0
1.875200000E1,-2.544800043E0,1.117200017E0,5.245000124E-1
1.878199844E1,-3.171299934E0,1.372799993E0,-8.190000057E-2
1.880199844E1,-1.639899969E0,1.445799947E0,-7.440999746E-1
1.882200000E1,-8.623999953E-1,1.293099999E0,-1.250000000E0
1.885199844E1,-2.432499886E0,-1.174999997E-1,-1.117699981E0
1.887199844E1,-3.665399790E0,-7.935999632E-1,5.742999911E-1
1.889200000E1,-4.084799767E0,-8.154000044E-1,1.584299922E0
1.892199844E1,-1.979999900E0,-4.898999929E-1,-8.510999680E-1
1.894199844E1,6.010000110E-1,-1.408399940E0,-4.468400002E0
1.896200000E1,1.563499928E0,-3.006999791E-1,-6.369999796E-2
1.898200000E1,1.026799917E0,-1.764799953E0,3.189399958E0
1.901200000E1,-2.561599970E0,-7.504999638E-1,1.601499915E0
1.904200000E1,-3.604199886E0,8.089999557E-1,-2.190000005E-2
1.907199844E1,-1.296199918E0,1.019999944E-2,-5.232599735E0
1.909199844E1,6.396999955E-1,-5.210999846E-1,-2.908399820E0
1.911200000E1,-8.259999752E-2,1.413999945E-1,1.780999899E-1
1.914199844E1,-2.932499886E0,-3.163000047E-1,2.265199900E0
1.916199844E1,-2.355200052E0,-1.531299949E0,2.021100044E0
1.918200000E1,-7.055999637E-1,-7.577999830E-1,1.445000023E-1
1.921199844E1,-1.367900014E0,2.277999967E-1,-6.387000084E-1
1.923199844E1,-1.696099997E0,1.621000022E-1,-1.456999928E-1
1.925200000E1,-1.533800006E0,-3.799999831E-3,-1.259599924E0
1.928199844E1,-1.286399961E0,-2.439999953E-2,-1.589900017E0
1.930199844E1,-8.352999687E-1,-3.245999813E-1,2.304999977E-1
1.932200000E1,-2.897999883E-1,-6.852999926E-1,7.461999655E-1
1.935199844E1,1.165499926E0,-7.866999507E-1,-1.149999946E-1
1.937199844E1,1.344599962E0,-3.930999935E-1,1.301800013E0
1.939200000E1,-8.399999887E-2,2.619999945E-1,1.892399907E0
1.941200000E1,-1.248000026E0,3.023999929E-1,9.947999716E-1
1.944199844E1,-1.653899908E0,4.959999770E-2,1.560799956E0
1.946200000E1,-1.633899927E0,1.526999921E-1,9.469999671E-1
1.948200000E1,-1.063300014E0,8.292999864E-1,9.677000046E-1
1.950200000E1,-2.527299881E0,1.848499894E0,1.020300031E0
1.952200000E1,-2.952299833E0,1.677899957E0,-2.733999789E-1
1.954200000E1,-3.271799803E0,1.435299993E0,1.216599941E0
1.956200000E1,-4.217899799E0,1.251500010E0,2.366699934E0
1.958200000E1,-3.770499945E0,3.455999792E-1,1.539099932E0
1.960200000E1,-3.398499966E0,4.777999818E-1,1.523399949E0
1.962200000E1,-3.656299829E0,-6.149999797E-2,1.340399981E0
1.964200000E1,-2.997299910E0,-2.206999958E-1,4.589999914E-1
1.967199844E1,-1.715600014E0,-6.276999712E-1,7.629999518E-2
1.969199844E1,-8.697999716E-1,-8.906999826E-1,5.503999591E-1
1.971203906E1,-8.912000060E-1,-1.066799998E0,6.148999929E-1
1.974199844E1,-1.661999941E0,-1.230799913E0,1.297799945E0
1.976199844E1,-2.131299973E0,-7.701999545E-1,1.334800005E0
1.978199844E1,-2.394099951E0,-1.665999889E-1,6.632999778E-1
1.980199844E1,-2.577100039E0,4.165000021E-1,7.117999792E-1
1.982200000E1,-2.736999989E0,7.730999589E-1,5.231999755E-1
1.985199844E1,-2.247400045E0,8.122999668E-1,-7.694000006E-1
1.987199844E1,-2.594699860E0,4.366999865E-1,-8.319000006E-1
1.989200000E1,-2.534199953E0,6.496999860E-1,2.960999906E-1
1.992199844E1,-1.842000008E0,-5.886999965E-1,2.361999899E-1
1.994199844E1,-1.049700022E0,-1.286700010E0,1.861999929E-1
1.996200000E1,-1.028699994E0,-1.283299923E0,1.038599968E0
1.999199844E1,-8.606999516E-1,-1.278999925E0,1.626999974E-1
2.001199844E1,-1.119599938E0,-1.498999953E0,1.660999954E-1
2.003199844E1,-1.651199937E0,-1.869899988E0,5.116999745E-1
2.005199844E1,-1.821099997E0,-1.470899940E0,1.928799987E0
2.007199844E1,-1.381799936E0,-8.070999980E-1,5.518000126E-1
2.009199844E1,-1.797599912E0,-1.115199924E0,9.083999991E-1
2.011199844E1,-6.329999864E-2,-1.080500007E0,8.351999521E-1
2.013199844E1,-8.928999901E-1,-1.012499928E0,-7.775999904E-1
2.015199844E1,-7.269999981E-1,2.143999934E-1,-4.658999741E-1
2.017199844E1,1.376999974E0,1.108899951E0,-1.893499970E0
2.019199844E1,2.219000012E-1,1.046000004E0,-1.154399991E0
2.021199844E1,-1.555400014E0,1.276600003E0,-1.131600022E0
2.023199844E1,-1.183599949E0,9.891999960E-1,-3.700999916E-1
2.025200000E1,-2.982699871E0,4.887000024E-1,-5.691999793E-1
2.028199844E1,-3.017299891E0,2.991999984E-1,2.243999988E-1
2.030199844E1,-3.372499943E0,2.478999943E-1,1.128399968E0
2.032200000E1,-2.473399878E0,5.126999617E-1,2.737999856E-1
2.035199844E1,-2.728299856E0,5.561999679E-1,-2.601999938E-1
2.037199844E1,-2.420300007E0,5.658000112E-1,1.701699972E0
2.039199844E1,-2.283599854E0,4.923999906E-1,-1.321000010E-1
2.041199844E1,-1.637699962E0,9.494999647E-1,6.299999952E-1
2.043199844E1,-1.286000013E0,3.761999905E-1,-2.214999944E-1
2.045199844E1,1.041999981E-1,2.090999931E-1,-5.699999928E-1
2.047199844E1,3.867000043E-1,6.272000074E-1,5.399000049E-1
2.049199844E1,-1.225700021E0,6.171000004E-1,1.620000005E-1
2.051199844E1,-1.727999926E0,1.546999961E-1,4.212999940E-1
2.053199844E1,-1.104300022E0,-1.111999974E-1,9.510000050E-2
2.055199844E1,-1.434499979E0,6.869999766E-1,-9.510000050E-2
2.057199844E1,-1.385399938E0,8.216999769E-1,-2.266999930E-1
2.059199844E1,-1.733699918E0,6.287999749E-1,-6.568999887E-1
2.061200000E1,-1.745099902E0,6.295999885E-1,-1.391199946E0
2.064199844E1,-1.640399933E0,7.702999711E-1,-1.034999937E-1
2.066199844E1,-1.183899999E0,1.132499933E0,-6.732000113E-1
2.068200000E1,-1.235599995E0,1.691900015E0,1.278000027E-1
2.071199844E1,-1.750800014E0,2.502599955E0,5.828999877E-1
2.073199844E1,-2.022500038E0,1.983999968E0,4.483999908E-1
2.075200000E1,-1.754199982E0,-7.809999585E-2,5.072999597E-1
2.078199844E1,-2.748800039E0,-1.035200000E0,1.103899956E0
2.080199844E1,-2.807899952E0,-8.402000070E-1,1.800999999E0
2.082199844E1,-2.507900000E0,-1.182299972E0,1.094699979E0
2.084199844E1,-2.939599991E0,-4.217000008E-1,4.650999904E-1
2.086199844E1,-2.142400026E0,-2.137999982E-1,1.087999940E-1
2.088199844E1,-1.518999934E0,-5.778999925E-1,1.167899966E0
2.090199844E1,-2.027899981E0,-7.991999984E-1,1.350700021E0
2.092199844E1,-2.220099926E0,-9.027000070E-1,-6.747999787E-1
2.094199844E1,-2.085799932E0,-6.900999546E-1,4.663999975E-1
2.096199844E1,-2.867899895E0,-8.641999960E-1,2.301999927E-1
2.098199844E1,-2.581699848E0,-1.576999903E0,1.702899933E0
2.100199844E1,-3.785399914E0,-1.899099946E0,2.591399908E0
2.102199844E1,-4.817699909E0,-1.773999929E0,-8.165000081E-1
2.104200000E1,-3.986099958E0,-1.384999901E-1,-4.387899876E0
2.107199844E1,6.875999570E-1,-6.988999844E-1,6.060999632E-1
2.109199844E1,8.851000071E-1,-2.658200026E0,3.776499987E0
2.111199844E1,-1.111999974E-1,-3.469599962E0,7.687000036E-1
2.113199844E1,-2.481699944E0,-1.189499974E0,-1.235899925E0
2.115199844E1,-1.481799960E0,-6.866999865E-1,-2.260200024E0
2.117199844E1,-7.736999989E-1,-1.495000005E0,1.866099954E0
2.119199844E1,3.337000012E-1,-8.955999613E-1,1.699699998E0
2.121199844E1,-2.920999825E-1,7.167999744E-1,-5.252999663E-1
2.123199844E1,-2.217000008E0,1.395399928E0,-3.409999907E-1
2.125199844E1,-2.768399954E0,6.857999563E-1,-6.345999837E-1
2.127199844E1,-2.526000023E0,-7.278999686E-1,3.079999983E-1
2.129199844E1,-2.363399982E0,-1.371199965E0,1.240199924E0
2.131199844E1,-1.749199986E0,-1.389999986E0,1.769299984E0
2.133199844E1,-1.458899975E0,-1.530900002E0,1.736799955E0
2.135199844E1,-9.756000042E-1,-2.065399885E0,-3.434999883E-1
2.137199844E1,-2.789999843E-1,-7.315999866E-1,-9.534999728E-1
2.139200000E1,-1.425999999E0,8.938999772E-1,-5.719000101E-1
2.142199844E1,-2.924599886E0,-2.432999909E-1,1.314700007E0
2.144199844E1,-3.678299904E0,-1.054299951E0,2.357300043E0
2.146199844E1,-4.855499744E0,-8.874999881E-1,1.694199920E0
2.148199844E1,-4.169300079E0,-5.651999712E-1,8.049999923E-2
2.150199844E1,-2.663899899E0,1.999000013E-1,7.265999913E-1
2.152199844E1,-2.400999963E-1,1.684999913E-1,1.119599938E0
2.154199844E1,5.044000149E-1,3.447999954E-1,1.733999997E-1
2.156199844E1,-9.242999554E-1,2.990999818E-1,-1.616999954E-1
2.158199844E1,-2.139499903E0,-3.607999980E-1,7.224999666E-1
2.160199844E1,-2.802399874E0,-5.202000141E-1,2.104500055E0
2.162200000E1,-2.476300001E0,-5.139999986E-1,2.251899958E0
2.165199844E1,-1.421800017E0,8.246999979E-1,2.408999950E-1
2.167199844E1,-1.528499961E0,1.505599976E0,5.006999969E-1
2.169199844E1,-1.399999976E0,5.141999722E-1,4.668999910E-1
2.171199844E1,-8.989999890E-1,-4.940999746E-1,1.072999984E-1
2.173199844E1,-1.719799995E0,-4.393000007E-1,4.662999809E-1
2.175199844E1,-2.123899937E0,-3.357999921E-1,2.796999812E-1
2.177199844E1,-1.620700002E0,-2.011999935E-1,-1.039600015E0
2.179199844E1,-1.385399938E0,1.617999971E-1,-2.155699968E0
2.181199844E1,-1.150499940E0,1.819999963E-1,-2.751799822E0
2.183199844E1,-1.477699995E0,-2.513999939E-1,-1.599599957E0
2.185199844E1,-1.770499945E0,-5.302999616E-1,1.729999930E-1
2.187199844E1,-1.243999958E0,-1.337899923E0,1.814000010E-1
2.189200000E1,-1.015200019E0,-2.384500027E0,4.650999904E-1
2.192199844E1,-8.524000049E-1,-2.136399984E0,-1.255999953E-1
2.194199844E1,-3.858999908E-1,-7.738999724E-1,-5.866999626E-1
2.196199844E1,9.096999764E-1,5.126999617E-1,1.509999931E-1
2.198199844E1,2.781299829E0,8.332999945E-1,-2.812999785E-1
2.200199844E1,1.309599996E0,-4.550999999E-1,-1.241999984E0
2.202199844E1,2.702899933E0,-7.486000061E-1,-6.347000003E-1
2.204199844E1,8.125000000E-1,-7.518000007E-1,3.129999936E-1
2.206199844E1,9.188999534E-1,7.637000084E-1,1.286299944E0
2.208199844E1,9.631999731E-1,8.651999831E-1,3.229999840E-1
2.210199844E1,2.346999943E-1,-3.409999982E-2,-2.982899904E0
2.212199844E1,-2.723000050E-1,1.671099901E0,-7.603999972E-1
2.214199844E1,3.107999861E-1,1.112200022E0,-1.358299971E0
2.216199844E1,2.168999910E-1,1.605899930E0,-3.084499836E0
2.218199844E1,-4.230999947E-1,1.946599960E0,-9.645999670E-1
2.220199844E1,-4.726999998E-1,2.175400019E0,-1.768499970E0
2.222199844E1,-2.117999941E-1,2.406599998E0,-2.875399828E0
2.224199844E1,1.826999933E-1,2.099799871E0,-1.338500023E0
2.226199844E1,1.380699992E0,1.727800012E0,-7.936999798E-1
2.228199844E1,1.963400006E0,1.100899935E0,-1.672699928E0
2.230199844E1,1.505299926E0,1.192899942E0,-4.330999851E-1
2.232200000E1,8.088999987E-1,1.190500021E0,-1.380999982E-1
2.235199844E1,1.407999992E-1,1.028100014E0,-1.031999946E0
2.237199844E1,-6.159999967E-2,8.901999593E-1,-2.626999915E-1
2.239199844E1,-7.522000074E-1,1.676999927E-1,7.998999953E-1
2.241199844E1,-1.521899939E0,-1.256899953E0,1.340000033E-1
2.243199844E1,-1.631599903E0,-1.873199940E0,4.857999980E-1
2.245199844E1,-1.426999927E0,-1.254599929E0,2.082999945E0
2.247199844E1,-1.109099984E0,-3.071999848E-1,2.410899878E0
2.249199844E1,-8.001999855E-1,3.809999824E-1,2.633199930E0
2.251199844E1,-1.119199991E0,-1.438999921E-1,1.648800015E0
2.253199844E1,-1.346799970E0,-7.749999762E-1,-6.644999981E-1
2.255199844E1,2.793999910E-1,-1.611899972E0,-6.588000059E-1
2.257199844E1,2.258100033E0,-2.543200016E0,-2.766999900E-1
2.259199844E1,3.176399946E0,-3.044600010E0,3.646999896E-1
2.261199844E1,2.753700018E0,-2.767999887E0,1.163900018E0
2.263199844E1,1.115999937E0,-1.792999983E0,1.069899917E0
2.265199844E1,7.329999655E-2,-9.789999723E-1,1.195299983E0
2.267199844E1,-4.645999968E-1,2.481999993E-1,1.727899909E0
2.269199844E1,-3.994999826E-1,5.067999959E-1,1.264299989E0
2.271199844E1,3.479999900E-1,5.916999578E-1,6.972999573E-1
2.273199844E1,7.455999851E-1,6.615999937E-1,1.382399917E0
2.275199844E1,1.202799916E0,1.225000024E0,8.797000051E-1
2.277199844E1,6.444000006E-1,1.527799964E0,9.399999976E-1
2.279199844E1,1.297999918E-1,5.299999937E-2,1.801199913E0
2.281199844E1,-4.048999846E-1,-6.184999943E-1,5.735999942E-1
2.283199844E1,-8.639000058E-1,2.561999857E-1,-1.562999934E-1
2.285199844E1,-3.407000005E-1,5.608999729E-1,3.122999966E-1
2.287199844E1,8.410000056E-2,9.466999769E-1,-3.819999844E-2
2.289199844E1,-1.000999957E-1,1.178799987E0,-1.701200008E0
2.291199844E1,-6.854000092E-1,6.635000110E-1,-1.832899928E0
2.293199844E1,-6.942999959E-1,-6.750000119E-1,-4.384000003E-1
2.295199844E1,-9.109999985E-2,-1.440500021E0,1.230799913E0
2.297199844E1,-3.859999776E-2,-1.767499924E0,1.350099921E0
2.299199844E1,6.624000072E-1,-3.199599981E0,-5.629000068E-1
2.301199844E1,-2.820000052E-1,-1.252499938E0,-4.939999804E-2
2.303199844E1,2.239999920E-1,1.415499926E0,-6.491999626E-1
2.305199844E1,1.507900000E0,1.035699964E0,-7.210999727E-1
2.307199844E1,1.219499946E0,3.701999784E-1,-7.838999629E-1
2.309199844E1,2.061000019E-1,1.294999957E0,1.117699981E0
2.311199844E1,-2.401999980E-1,1.853500009E0,5.645999908E-1
2.313199844E1,-2.351999879E-1,2.901399851E0,-3.534999788E-1
2.315199844E1,1.459999941E-2,3.914299965E0,-7.795999646E-1
2.317199844E1,5.144000053E-1,2.507400036E0,8.009999990E-2
2.319199844E1,4.395999908E-1,-3.739999980E-2,-3.005999923E-1
2.321199844E1,-5.781999826E-1,-1.615799904E0,-7.166999578E-1
2.323199844E1,-3.473999798E-1,-2.027099848E0,2.800999880E-1
2.325199844E1,9.400999546E-1,-1.550400019E0,-2.098999918E-1
2.327199844E1,2.219300032E0,-1.772300005E0,4.364999831E-1
2.329199844E1,1.618299961E0,-1.808299899E0,2.819399834E0
2.331199844E1,9.910000116E-2,-2.268800020E0,2.226500034E0
2.333199844E1,-8.809999824E-1,-1.525499940E0,1.690400004E0
2.335199844E1,-1.186299920E0,7.644000053E-1,4.441999793E-1
2.337199844E1,-1.899999939E-2,2.244899988E0,-1.427099943E0
2.339199844E1,8.177999854E-1,2.532199860E0,-2.045500040E0
2.341199844E1,5.880999565E-1,1.485700011E0,-8.872999549E-1
2.343199844E1,5.879999697E-2,3.452000022E-1,1.292999983E-1
2.345199844E1,-4.059999883E-1,-2.947999835E-1,-6.668999791E-1
2.347200000E1,-2.280000001E-1,-7.999999449E-3,3.329999745E-2
2.350199844E1,-5.868999958E-1,-1.712999940E0,1.587099910E0
2.352199844E1,-3.840999901E-1,-8.894000053E-1,6.920000166E-2
2.354199844E1,-5.889999866E-2,-4.779999852E-1,-7.457000017E-1
2.356199844E1,-1.028999984E-1,-5.755999684E-1,-4.514999986E-1
2.358199844E1,-2.172999978E-1,-4.141999781E-1,-4.163999856E-1
2.360199844E1,-2.899999917E-1,-1.371999979E-1,-7.959999889E-2
2.362200000E1,-1.376999915E-1,-2.260999978E-1,-1.050499916E0
2.365199844E1,-2.199999988E-1,-3.012000024E-1,-1.065999985E0
2.367199844E1,-2.189999968E-1,-3.596999943E-1,-1.299899936E0
2.369199844E1,3.726999760E-1,-4.039999843E-2,-1.136899948E0
2.371199844E1,1.568000019E-1,-8.029999733E-1,-3.204999864E-1
2.373200000E1,-2.836000025E-1,-1.370199919E0,-1.297999918E-1
2.375200000E1,-3.576999903E-1,-1.303699970E0,-7.979999483E-2
2.377200000E1,-3.321999907E-1,-1.129199982E0,-6.981999874E-1
2.379200000E1,6.060000062E-1,-7.505999804E-1,-1.329899907E0
2.381200000E1,4.460999966E-1,-1.017699957E0,7.719999552E-2
2.383200000E1,-4.848999977E-1,-1.939799905E0,8.587999940E-1
2.385200000E1,-5.200999975E-1,-5.878999829E-1,8.064999580E-1
2.387200000E1,-4.224999845E-1,8.791999817E-1,-3.944999874E-1
2.389200000E1,-1.000200033E0,9.651999474E-1,-5.389999971E-2
2.391200000E1,-1.174999952E0,5.313999653E-1,3.078999817E-1
2.393200000E1,-9.643999934E-1,4.104000032E-1,4.635999799E-1
2.395200000E1,-1.200899959E0,1.195699930E0,1.630000025E-2
2.397200000E1,-8.021000028E-1,6.742999554E-1,-8.330999613E-1
2.399200000E1,-3.208000064E-1,5.672000051E-1,-1.690199971E0
2.401200000E1,2.040999979E-1,4.720999897E-1,-1.360000014E0
2.403200000E1,-1.358000040E-1,-1.533800006E0,3.711999953E-1
2.405200000E1,-6.096000075E-1,-2.360999823E0,5.058000088E-1
2.407200000E1,-4.098999798E-1,-1.081699967E0,3.247999847E-1
2.410199844E1,-3.012000024E-1,-4.569000006E-1,-1.088699937E0
2.412200000E1,-7.017999887E-1,-1.788000017E-1,1.101999953E-1
2.415199844E1,-8.441999555E-1,2.707999945E-1,-2.109999955E-2
2.417199844E1,-4.707999825E-1,5.292999744E-1,-1.556999981E-1
2.419200000E1,-3.562999964E-1,4.803999960E-1,-4.492999911E-1
2.421200000E1,-6.154999733E-1,-1.735999882E-1,-8.371999860E-1
2.423200000E1,1.564999968E-1,3.019999862E-1,-1.193199992E0
2.425200000E1,5.205000043E-1,-9.131999612E-1,3.059999943E-1
2.427200000E1,-1.051100016E0,-3.521299839E0,2.476899862E0
2.429200000E1,-1.543599963E0,-3.089999914E0,1.091799974E0
2.431200000E1,-1.041399956E0,7.608999610E-1,-1.617299914E0
2.433200000E1,-7.712999582E-1,2.524299860E0,-3.070299864E0
2.436199844E1,-1.460399985E0,9.828999639E-1,-1.493699908E0
2.438199844E1,-1.373899937E0,1.031700015E0,2.199999988E-2
2.440200000E1,-5.515999794E-1,9.200000204E-3,8.679999709E-1
2.443199844E1,-1.157899976E0,-1.747599959E0,4.029999971E-1
2.445199844E1,-7.297999859E-1,-1.304799914E0,-7.425000072E-1
2.447200000E1,-2.175999880E-1,-1.234399915E0,-7.319999933E-1
2.450199844E1,6.340000033E-2,-1.030799985E0,-5.677999854E-1
2.452199844E1,-1.453000009E-1,-4.194999933E-1,-5.325999856E-1
2.454200000E1,-3.049999848E-2,-7.929999828E-1,-7.350999713E-1
2.457199844E1,-6.645999551E-1,4.508999884E-1,-7.688999772E-1
2.459199844E1,-7.207999825E-1,7.490999699E-1,-1.172099948E0
2.461200000E1,4.859999940E-2,5.146999955E-1,-7.953000069E-1
2.464199844E1,-1.394899964E0,-1.871199965E0,1.344299912E0
2.466199844E1,-1.786399961E0,-1.307899952E0,1.190199971E0
2.468200000E1,-1.406999946E0,-4.302999973E-1,1.497000009E-1
2.470204063E1,-1.914499998E0,-1.167500019E0,1.586899996E0
2.473199844E1,-1.995099902E0,1.139999926E-2,8.551999927E-1
2.475200000E1,-1.023499966E0,-1.219999976E-2,3.152999878E-1
2.478199844E1,-1.597599983E0,-3.461000025E-1,-3.332999945E-1
2.480199844E1,-1.571699977E0,-3.324999809E-1,-8.819999695E-1
2.482200000E1,-9.029999971E-1,-5.180000067E-1,-5.442000031E-1
2.485199844E1,-1.174899936E0,-4.842000008E-1,-1.798999906E-1
2.487199844E1,-1.634599924E0,-5.528999567E-1,-1.053999960E-1
2.489199844E1,-2.099200010E0,-5.652999878E-1,-1.602999926E0
2.491199844E1,-1.920699954E0,-2.277999967E-1,-2.380599976E0
2.493199844E1,-1.302999973E0,1.697999984E-1,-2.539999962E0
2.495199844E1,-8.452999592E-1,-1.819999889E-2,-2.428099871E0
2.497200000E1,-8.953999877E-1,-4.506999850E-1,-1.744499922E0
2.500199844E1,-1.836999953E-1,-5.002999902E-1,-1.372999907E0
2.502199844E1,8.309999853E-2,-8.024999499E-1,-8.829999566E-1
2.504200000E1,-7.164999843E-1,-1.376799941E0,-6.717000008E-1
2.507199844E1,-7.592999935E-1,-4.939999878E-1,-8.909999579E-2
2.509199844E1,5.230999589E-1,-9.343999624E-1,1.664099932E0
2.511200000E1,-3.781999946E-1,-2.865700006E0,2.980099916E0
2.514199844E1,-2.093499899E0,-5.525999665E-1,1.226300001E0
2.516199844E1,-2.288300037E0,-3.369999826E-1,9.709999561E-1
2.518200000E1,-2.841399908E0,-1.818999946E-1,7.163999677E-1
2.521199844E1,-2.275599957E0,-1.073699951E0,5.164999962E-1
2.523199844E1,-2.094599962E0,-1.405099988E0,4.205999970E-1
2.525200000E1,-1.690299988E0,-1.313799977E0,-5.399999768E-2
2.528199844E1,-1.447399974E0,-8.017999530E-1,-2.759000063E-1
2.530199844E1,-1.432399988E0,-1.075500011E0,-2.160999924E-1
2.532200000E1,-1.754599929E0,-9.196999669E-1,-1.017999947E-1
2.534200000E1,-1.513700008E0,-6.511999965E-1,-9.267999530E-1
2.537199844E1,-1.751799941E0,-1.649999991E-2,-1.081200004E0
2.539199844E1,-1.720299959E0,1.665000021E-1,-3.535999954E-1
2.541200000E1,-1.924399972E0,-2.992999852E-1,1.280599952E0
2.544199844E1,-2.035099983E0,-9.902999997E-1,3.113600016E0
2.546199844E1,-2.542899847E0,-2.028199911E0,2.692299843E0
2.548200000E1,-2.887199879E0,-2.326799870E0,9.861999750E-1
2.551199844E1,-3.390899897E0,3.980000019E-1,4.949999973E-2
2.553199844E1,-2.337499857E0,4.290999770E-1,1.147300005E0
2.555200000E1,-1.998299956E0,1.491999924E-1,1.443499923E0
2.558199844E1,-2.199899912E0,-7.608000040E-1,3.391000032E-1
2.560199844E1,-3.003599882E0,-6.843000054E-1,6.143999696E-1
2.562200000E1,-2.448699951E0,-9.009999633E-1,1.140799999E0
2.565200000E1,-1.096300006E0,-6.420999765E-1,7.271999717E-1
2.568200000E1,-2.564399958E0,1.025300026E0,-4.963999987E-1
2.571199844E1,-2.521199942E0,-7.505999804E-1,-3.445999920E-1
2.573199844E1,-2.443899870E0,-1.832099915E0,-9.809999913E-2
2.575200000E1,-1.518199921E0,-2.264199972E0,-8.238999844E-1
2.577200000E1,-2.089599848E0,-2.192800045E0,-1.025499940E0
2.580199844E1,-2.326900005E0,-2.628799915E0,-6.805999875E-1
2.582200000E1,-2.713199854E0,-2.458999872E0,5.486999750E-1
2.584200000E1,-2.759500027E0,-2.376299858E0,-3.883999884E-1
2.587199844E1,-2.575000048E0,-8.613999486E-1,-2.377699852E0
2.589199844E1,-1.827699900E0,-1.051399946E0,-9.981999993E-1
2.591199844E1,-1.793900013E0,-1.517599940E0,-3.696999848E-1
2.593199844E1,-1.650299907E0,-9.325999618E-1,-2.610699892E0
2.595199844E1,-1.626899958E0,-5.051000118E-1,-3.643999994E-1
2.597200000E1,-1.219200015E0,-7.773999572E-1,4.122000039E-1
2.600199844E1,-1.696200013E0,-7.874999642E-1,1.979599953E0
2.602199844E1,-1.371599913E0,-1.374799967E0,2.988999784E-1
2.604200000E1,1.774799943E0,-7.566999793E-1,-1.163999915E0
2.607199844E1,2.569299936E0,7.035999894E-1,-1.029899955E0
2.609199844E1,2.802500010E0,7.312999964E-1,-3.455199957E0
2.611200000E1,1.178599954E0,7.971999645E-1,-1.748799920E0
2.614199844E1,-1.485099912E0,1.125199914E0,-3.252499819E0
2.616199844E1,-1.520699978E0,1.630699992E0,-1.604599953E0
2.618199844E1,-9.659999609E-1,1.793099999E0,1.189999934E-2
2.620199844E1,-1.598999977E0,1.953999996E0,-1.368499994E0
2.622199844E1,-1.777999997E0,1.882900000E0,-8.454999924E-1
2.624199844E1,-1.872499943E0,1.706999898E0,1.367499948E0
2.626199844E1,-2.169899940E0,4.716999829E-1,1.372900009E0
2.628199844E1,-2.622699976E0,7.924999595E-1,2.128900051E0
2.630199844E1,-2.511899948E0,8.399999738E-1,1.668900013E0
2.632200000E1,-2.510900021E0,2.261999995E-1,6.995999813E-1
2.634200000E1,-3.024499893E0,1.486999989E-1,2.911999822E-1
2.637199844E1,-2.781299829E0,1.581299901E0,3.480999768E-1
2.639199844E1,-1.636799932E0,5.565999746E-1,-1.444999933E0
2.641200000E1,-1.304499984E0,-2.168999910E-1,-3.201999962E-1
2.644199844E1,-5.570999980E-1,-3.388499975E0,4.765999913E-1
2.646199844E1,5.144999623E-1,-4.759399891E0,2.043900013E0
2.648200000E1,-3.879999742E-2,-2.188600063E0,9.378999472E-1
2.651199844E1,-1.018499970E0,-1.181299925E0,8.460999727E-1
2.653199844E1,-7.138999701E-1,-2.486599922E0,1.740199924E0
2.655200000E1,-2.075700045E0,-3.180999994E0,1.678499937E0
2.658199844E1,-1.724699974E0,-3.662400007E0,3.754099846E0
2.660199844E1,-1.413599968E0,-1.457199931E0,5.442699909E0
2.662200000E1,-3.348599911E0,-5.119999871E-2,2.666800022E0
2.665199844E1,-1.699999928E0,4.689999819E-1,-4.569299698E0
2.667199844E1,-1.307399988E0,-6.310999990E-1,-4.321399689E0
2.669200000E1,-1.121899962E0,-1.780299902E0,-2.430999875E-1
2.672199844E1,-1.106899977E0,-4.107999802E0,-5.249999836E-2
2.674199844E1,-4.762000084E0,-2.246599913E0,2.825799942E0
2.676200000E1,-5.340600014E0,-1.868600011E0,2.977299929E0
2.679199844E1,-4.085499763E0,5.069999695E-1,3.235499859E0
2.681199844E1,-1.343299985E0,2.282099962E0,2.936199903E0
2.683200000E1,-3.599999845E-2,1.969399929E0,5.780999660E-1
2.686199844E1,-2.367300034E0,2.044199944E0,-6.259999871E-1
2.688199844E1,-9.863999486E-1,5.773000121E-1,8.920999765E-1
2.690200000E1,-3.060699940E0,-5.598999858E-1,1.549099922E0
2.693199844E1,-2.360999823E0,-1.545899987E0,1.005800009E0
2.695199844E1,-1.441999912E0,-1.501199961E0,-5.507999659E-1
2.697200000E1,-3.465999961E-1,3.283999860E-1,-4.942299843E0
2.700199844E1,-5.074999928E-1,3.713899851E0,-3.503599882E0
2.702199844E1,-2.926899910E0,9.266999960E-1,6.995999813E-1
2.704200000E1,-9.585999846E-1,-3.469899893E0,1.141799927E0
2.707199844E1,-2.986799955E0,-7.987899780E0,6.572799683E0
2.709199844E1,-4.049799919E0,-7.838999748E0,5.735099792E0
2.711200000E1,-2.997799873E0,-2.937799931E0,2.381099939E0
2.714199844E1,-8.649999648E-2,9.309999645E-2,-7.252599716E0
2.716199844E1,2.213999987E0,1.312199950E0,-3.696299791E0
2.718200000E1,-1.613999963E0,1.001699924E0,-4.782399654E0
2.721199844E1,-2.728999853E-1,1.095099926E0,-2.573400021E0
2.723199844E1,-1.199000001E0,6.300000008E-3,-3.401799917E0
2.725200000E1,-7.076999545E-1,-1.416499972E0,-1.958999991E0
2.728199844E1,7.872999907E-1,-1.230599999E0,-2.081899881E0
2.730199844E1,6.900999546E-1,-7.750000060E-2,-2.950999975E0
2.732199844E1,1.167299986E0,3.158399820E0,-5.286200047E0
2.734199844E1,1.890699983E0,2.919499874E0,-3.205799818E0
2.736199844E1,7.310000062E-1,2.763099909E0,-1.401000023E0
2.738199844E1,8.560999632E-1,2.629499912E0,-1.159500003E0
2.740200000E1,1.366699934E0,3.335999846E-1,5.572999716E-1
2.743200156E1,-6.651999950E-1,-5.582999587E-1,-4.949999750E-1
2.746199844E1,-2.747499943E0,7.089999914E-1,-1.211799979E0
2.748200000E1,-2.944099903E0,1.749300003E0,2.072999924E-1
2.751199844E1,-1.483799934E0,1.874300003E0,1.297999978E0
2.753199844E1,-3.249000013E-1,9.509999752E-1,3.551699877E0
2.755200000E1,8.147000074E-1,-1.001099944E0,2.071300030E0
2.758199844E1,5.867999792E-1,-2.073400021E0,8.579999804E-1
2.760199844E1,3.206999898E-1,-1.793699980E0,-4.560000002E-1
2.762200000E1,3.861999810E-1,-2.559999943E0,1.553799987E0
2.765199844E1,6.164999604E-1,-1.386099935E0,1.873499990E0
2.767199844E1,-9.508999586E-1,-1.394999921E-1,2.292299986E0
2.769200000E1,-6.229000092E-1,-1.669999957E0,2.603799820E0
2.772199844E1,-9.639999866E-1,-6.256700039E0,3.133299828E0
2.774199844E1,-3.770000041E-1,-4.132499695E0,5.224499702E0
2.776200000E1,-2.168099880E0,-2.672999859E0,3.010200024E0
2.779199844E1,-2.934199810E0,-3.043999970E-1,-1.481199980E0
2.781199844E1,-2.477599859E0,9.369999766E-1,-2.115799904E0
2.783200000E1,-1.264099956E0,7.404999733E-1,-2.508199930E0
2.786199844E1,-1.589100003E0,2.188999951E-1,1.335699916E0
2.788199844E1,-3.087299824E0,1.364300013E0,3.153800011E0
2.790200000E1,-3.452499866E0,-1.318099976E0,5.412199974E0
2.793199844E1,-3.633399963E0,1.017199993E0,2.273099899E0
2.795199844E1,2.431999892E-1,-8.858999610E-1,-2.661299944E0
2.797200000E1,1.846499920E0,2.445999980E-1,-2.295899868E0
2.800199844E1,1.531399965E0,1.602299929E0,-2.633000016E-1
2.802199844E1,2.919399977E0,1.074599981E0,2.681999803E-1
2.804199844E1,1.302099943E0,8.942999840E-1,4.649999738E-2
2.806199844E1,-6.197999716E-1,1.389400005E0,-1.669199944E0
2.808199844E1,-2.338299990E0,6.717000008E-1,-2.503499985E0
2.810199844E1,-4.286399841E0,-8.766999841E-1,-3.813000023E-1
2.812200000E1,-3.886699915E0,-3.389999866E0,3.031199932E0
2.815199844E1,-3.263700008E0,-5.131000042E0,2.990299940E0
2.817199844E1,-1.520699978E0,-3.676999807E0,-1.924699903E0
2.819200000E1,1.055400014E0,-1.103500009E0,-5.061100006E0
2.822199844E1,3.337000012E-1,-1.321200013E0,-1.982199907E0
2.824199844E1,1.598299980E0,-3.242999911E-1,-4.271800041E0
2.826199844E1,-1.557799935E0,1.339699984E0,-1.130100012E0
2.828199844E1,-1.667599916E0,-1.679399967E0,-4.044600010E0
2.830199844E1,1.347399950E0,-1.260200024E0,1.589999907E-2
2.832199844E1,4.553999901E-1,1.121399999E0,-5.034299850E0
2.834200000E1,9.706999660E-1,1.909999922E-2,-6.003299713E0
2.837199844E1,2.888000011E0,6.967999935E-1,-6.073599815E0
2.839199844E1,4.172299862E0,2.486099958E0,-6.235899925E0
2.841200000E1,2.529999971E0,2.674499989E0,2.516999841E-1
2.844199844E1,2.524699926E0,9.728999734E-1,2.091799974E0
2.846199844E1,1.123399973E0,-2.723999918E-1,3.945899963E0
2.848200000E1,1.204999983E-1,-1.187699914E0,-3.729999810E-2
2.851199844E1,-4.101999760E0,1.944999993E-1,2.407899857E0
2.853199844E1,-4.336400032E0,-7.929999828E-1,2.404599905E0
2.855200000E1,-2.742300034E0,-1.963699937E0,9.684000015E-1
2.858200000E1,-1.292999983E-1,2.680999935E-1,-7.471999526E-1
2.861200000E1,9.338999987E-1,-1.197299957E0,-2.151000023E0
2.864199844E1,1.211300015E0,-7.045499802E0,4.912199974E0
2.866199844E1,-1.133199930E0,-7.403100014E0,5.100100040E0
2.868200000E1,-2.240499973E0,-3.676800013E0,3.522699833E0
2.871199844E1,-1.405699968E0,-2.032099962E0,2.140100002E0
2.873199844E1,-2.038499832E0,-2.509999990E0,2.919600010E0
2.875200000E1,-1.619599938E0,-2.558099985E0,1.863899946E0
2.878199844E1,-7.297999859E-1,-1.306800008E0,-1.751799941E0
2.880200000E1,-9.350999594E-1,9.710999727E-1,-2.556200027E0
2.883200000E1,1.243999973E-1,4.139999747E-1,-1.395599961E0
2.886199844E1,-6.645999551E-1,1.420499921E0,7.803999782E-1
2.888199844E1,-3.237999916E0,1.106799960E0,1.849200010E0
2.890200000E1,-2.958899975E0,3.215000033E-1,1.242299914E0
2.893199844E1,-3.019299984E0,-3.650999963E-1,1.520099998E0
2.895199844E1,-7.922999859E-1,5.976999998E-1,-2.295999974E-1
2.897200000E1,1.839699984E0,-8.779000044E-1,-1.830699921E0
2.900199844E1,2.140300035E0,-3.739999980E-2,-1.402799964E0
2.902199844E1,3.538499832E0,-5.149999857E-1,-5.260999799E-1
2.904200000E1,1.779899955E0,6.829999685E-1,1.453799963E0
2.907199844E1,-1.784999967E-1,-2.034299850E0,-1.119400024E0
2.909199844E1,-2.721599817E0,-2.647599936E0,-7.519999892E-2
2.911199844E1,-5.352699757E0,-4.391200066E0,2.893199921E0
2.913199844E1,-3.916999817E0,-4.522900105E0,4.609999955E-1
2.915199844E1,-1.114400029E0,-2.075399876E0,-9.343500137E0
2.917199844E1,5.601999760E-1,2.110300064E0,-3.406599998E0
2.919200000E1,1.164899945E0,1.221599936E0,-5.181699753E0
2.922199844E1,5.679999590E-1,-5.900000036E-2,-6.201999664E0
2.924199844E1,3.106899977E0,-1.514999986E0,-4.073699951E0
2.926200000E1,1.092899919E0,-4.099999964E-1,-1.493499994E0
2.929199844E1,1.370700002E0,-6.380000114E-1,-1.554499984E0
2.931199844E1,1.565400004E0,5.940999985E-1,-1.582700014E0
2.933200000E1,3.353899956E0,3.929999843E-2,-3.825099945E0
2.936199844E1,3.997999907E0,2.156299829E0,-1.362299919E0
2.938199844E1,4.296999931E0,3.288699865E0,1.134699941E0
2.940200000E1,3.426399946E0,2.071300030E0,-9.860999584E-1
2.943199844E1,1.500000000E0,-1.170400023E0,-1.251000017E-1
2.945199844E1,1.158000007E-1,-2.861699820E0,-1.945599914E0
2.947200000E1,-1.109899998E0,-3.171799898E0,-9.283999801E-1
2.950199844E1,-1.817999959E0,-5.269999802E-2,4.160999954E-1
2.952199844E1,-8.930000067E-1,3.921999931E-1,1.696299911E0
2.954200000E1,-8.869999647E-2,3.019999862E-1,1.062999964E0
2.957199844E1,1.543699980E0,-2.714799881E0,5.917999744E-1
2.959199844E1,2.135999918E0,-5.572099686E0,3.939799786E0
2.961200000E1,1.847599983E0,-6.995999813E0,6.487199783E0
2.964199844E1,-3.125299931E0,-2.150899887E0,3.102099895E0
2.966199844E1,-3.180099964E0,-7.066999674E-1,1.860000007E-2
2.968199844E1,-1.847099900E0,-1.545799971E0,1.601599932E0
2.970199844E1,-1.100899935E0,-1.845600009E0,3.526999950E-1
2.972199844E1,-1.868999898E-1,-8.007000089E-1,9.053999782E-1
2.974199844E1,7.272999883E-1,8.399999738E-1,6.035999656E-1
2.976200000E1,1.773499966E0,3.872999847E-1,9.544000030E-1
2.979199844E1,1.032599926E0,3.941999972E-1,-1.028200030E0
2.981199844E1,1.215999946E-1,5.131999850E-1,-1.980699897E0
2.983200000E1,-4.321999848E-1,1.075699925E0,2.888000011E-1
2.986199844E1,-8.018999696E-1,5.354999900E-1,3.715999842E0
2.988199844E1,-2.020900011E0,-3.540999889E-1,4.071000099E0
2.990200000E1,-1.645399928E0,-1.700500011E0,1.793099999E0
2.993199844E1,-8.174999952E-1,-1.379499912E0,1.085799932E0
2.995199844E1,-5.449999869E-2,-8.713999987E-1,2.231999934E-1
2.997200000E1,2.142999917E-1,-7.741000056E-1,-5.216999650E-1
3.000199844E1,1.010999978E-1,-4.779999703E-2,-1.764899969E0
3.002199844E1,7.889999747E-1,-1.548999995E-1,-1.421399951E0
3.004200000E1,3.368999958E-1,-6.350000203E-2,-3.652999997E-1
3.007199844E1,-1.413200021E0,-8.887999654E-1,-4.104000032E-1
3.009199844E1,-2.665999889E0,-8.684999943E-1,8.456999660E-1
3.011200000E1,-2.496799946E0,-1.486799955E0,-3.598999977E-1
3.014199844E1,-9.097999930E-1,-1.630000025E-1,-4.121799946E0
3.016199844E1,2.530099869E0,1.099999994E-3,-4.244599819E0
3.018200000E1,2.695600033E0,-7.770999670E-1,-4.170799732E0
3.021199844E1,5.351999998E-1,2.633999884E-1,-3.547999859E0
3.023199844E1,-1.312000006E-1,-1.300999969E-1,-4.228699684E0
3.025199844E1,6.829000115E-1,-4.989999905E-2,-3.078500032E0
3.027200000E1,2.123399973E0,4.395999908E-1,-2.363499880E0
3.030199844E1,2.962499857E0,4.256999791E-1,-2.862599850E0
3.032199844E1,2.987499952E0,6.214999557E-1,-3.642499924E0
3.034200000E1,3.207399845E0,1.439799905E0,-6.022999883E-1
3.036200000E1,3.706199884E0,2.112799883E0,1.810199976E0
3.038200000E1,4.170099735E0,1.610000014E0,-1.945099950E0
3.040200000E1,3.788299799E0,4.872999787E-1,-3.132699966E0
3.042200000E1,3.390799999E0,-1.076599956E0,4.933999777E-1
3.044200000E1,1.197600007E0,-1.968699932E0,-5.489999652E-1
3.047200000E1,-1.849099994E0,-2.851899862E0,8.879999518E-1
3.050199844E1,-1.549399972E0,-2.895299911E0,1.811800003E0
3.052199844E1,-1.546499968E0,-2.163100004E0,7.014999986E-1
3.054200000E1,5.604999661E-1,-4.166299820E0,1.425599933E0
3.057199844E1,2.760799885E0,-5.586899757E0,5.842599869E0
3.059199844E1,-8.810000122E-2,-2.941699982E0,3.479399920E0
3.061200000E1,-1.519899964E0,-1.253999949E0,2.148000002E-1
3.064199844E1,-2.199100018E0,-2.631899834E0,2.711799860E0
3.066199844E1,-1.103399992E0,-9.404999614E-1,2.592399836E0
3.068200000E1,-1.728799939E0,-1.365000010E0,3.882699966E0
3.070200000E1,-9.059999585E-1,-6.456999779E-1,2.166999876E-1
3.073199844E1,-2.660999894E-1,5.878999829E-1,-1.327000022E0
3.075199844E1,8.445000052E-1,1.746399999E0,-2.782099962E0
3.077199844E1,1.223099947E0,2.391799927E0,9.893999696E-1
3.079199844E1,1.048099995E0,-4.696999788E-1,3.417099953E0
3.081199844E1,-3.567000031E-1,-1.566299915E0,3.637099981E0
3.083200000E1,-4.894999862E-1,-8.876999617E-1,1.878999949E0
3.086199688E1,-1.887099981E0,-1.714699984E0,1.138000011E0
3.088199844E1,-1.080500007E0,-1.217700005E0,-1.322000027E-1
3.090200000E1,-2.545999885E-1,-2.518000007E-1,-2.378399849E0
3.093199844E1,-1.845999956E-1,1.093999967E-1,1.337000012E0
3.095199844E1,-9.905999899E-1,3.791999817E-1,2.286000013E0
3.097200000E1,-3.633999825E-1,2.066999972E-1,1.754199982E0
3.100199844E1,2.175000012E-1,-9.865999818E-1,-2.170399904E0
3.102199844E1,1.322000027E-1,-6.117999554E-1,-2.698099852E0
3.104199844E1,1.086999997E-1,-4.554999769E-1,1.093699932E0
3.106199844E1,-4.869000018E-1,-4.260999858E-1,-6.247000098E-1
3.108201406E1,4.905999899E-1,-4.944999814E-1,-4.365600109E0
3.111200000E1,2.037400007E0,4.855999947E-1,-4.024099827E0
3.113200000E1,1.467299938E0,-1.706200004E0,-4.287499905E0
3.116199844E1,2.103399992E0,-1.754599929E0,-5.025499821E0
3.118200000E1,1.036999941E0,-6.103000045E-1,-2.733700037E0
3.120200000E1,2.819000006E0,-1.050400019E0,-5.217099667E0
3.122200156E1,2.461899996E0,1.171499968E0,-2.417999953E-1
3.125199844E1,1.794499993E0,6.601999998E-1,-4.054500103E0
3.127200000E1,3.272899866E0,6.782999635E-1,-2.398399830E0
3.130199844E1,3.696199894E0,2.045899868E0,1.388899922E0
3.132199844E1,3.319199800E0,1.463400006E0,-1.810099959E0
3.134200000E1,1.963400006E0,1.111099958E0,1.142599940E0
3.137199844E1,3.458999991E-1,-7.246999741E-1,9.516999722E-1
3.139199844E1,-1.259000003E-1,-2.220200062E0,-1.126699924E0
3.141199844E1,-7.461999655E-1,-1.846199989E0,1.262300014E0
3.143199844E1,-1.919199944E0,-2.284699917E0,9.388999939E-1
3.145199844E1,-2.013799906E0,-4.015299797E0,3.691000044E-1
3.147200000E1,-1.248499990E0,-4.841000080E0,1.711499929E0
3.150199844E1,1.568300009E0,-4.407099724E0,4.960599899E0
3.152199844E1,3.885000050E-1,-2.034699917E0,3.650799990E0
3.154200000E1,2.750999928E-1,-2.915000021E-1,1.976199985E0
3.157199844E1,-1.746399999E0,-1.409199953E0,3.037099838E0
3.159199844E1,-5.480999947E-1,-1.550099969E0,1.916700006E0
3.161200000E1,2.865000069E-1,-1.248099923E0,1.499699950E0
3.163200000E1,1.029299974E0,-7.067999840E-1,1.441200018E0
3.166199844E1,1.369499922E0,-3.213999867E-1,-1.145999953E-1
3.168200000E1,-2.536000013E-1,-6.861999631E-1,1.191200018E0
3.170200000E1,-1.502099991E0,-3.271999955E-1,1.082399964E0
3.173199844E1,-8.100999594E-1,-2.946999967E-1,1.346799970E0
3.175199844E1,-1.147999987E-1,-1.134199977E0,3.671000004E0
3.177199844E1,-7.918999791E-1,-1.964899898E0,2.808799982E0
3.179199844E1,-9.986999631E-1,-1.827999949E0,4.193999767E-1
3.181199844E1,-1.669999957E-2,-1.019500017E0,-1.403100014E0
3.183200000E1,1.731999964E-1,-1.018399954E0,-2.413899899E0
3.186199844E1,4.835999906E-1,-9.132999778E-1,5.625999570E-1
3.188199844E1,7.649999857E-1,-3.870999813E-1,6.730999947E-1
3.190199844E1,5.417999625E-1,1.312000006E-1,-3.384000063E-1
3.192199844E1,5.852000117E-1,2.974999845E-1,-1.308699965E0
3.194199844E1,-6.015999913E-1,-4.019999877E-2,-1.750999928E0
3.196199844E1,-2.531999826E0,-1.284899950E0,1.082700014E0
3.198200000E1,-1.636299968E0,-2.695499897E0,-2.890000045E-1
3.201199844E1,1.052799940E0,2.481999993E-1,-5.681499958E0
3.203199844E1,2.790499926E0,9.862999916E-1,-3.443399906E0
3.205199844E1,1.729999900E0,4.999999655E-4,-4.830299854E0
3.207199844E1,4.201000035E-1,6.529999524E-2,-2.680599928E0
3.209199844E1,5.859999657E-1,1.246999949E-1,-3.578899860E0
3.211200000E1,2.465800047E0,2.279999852E-2,-4.088200092E0
3.213200000E1,2.388999939E0,1.005699992E0,-1.311299920E0
3.216199844E1,2.827800035E0,7.866999507E-1,-5.439099789E0
3.218199844E1,3.570799828E0,1.074299932E0,-3.233700037E0
3.220200000E1,3.904999971E0,1.421899915E0,-1.861599922E0
3.223200000E1,2.166699886E0,1.369199991E0,-1.885999918E0
3.226200000E1,8.012999892E-1,3.718999922E-1,4.479999840E-1
3.229199844E1,-8.899999782E-3,-3.335099936E0,-6.557999849E-1
3.231199844E1,-8.497999907E-1,-5.531899929E0,-5.857999921E-1
3.233200000E1,-1.796799898E0,-5.500099659E0,2.655499935E0
3.236199844E1,-1.818499923E0,-3.383499861E0,1.082000017E0
3.238199844E1,-7.540999651E-1,-1.575699925E0,2.496099949E0
3.240200000E1,1.892599940E0,-1.365199924E0,3.045500040E0
3.243199844E1,1.077700019E0,-1.376899958E0,3.333699942E0
3.245199844E1,4.292999804E-1,-2.004799843E0,3.346599817E0
3.247200000E1,-2.542999983E0,-3.866199970E0,2.821199894E0
3.250199844E1,-1.579399943E0,-6.026999950E-1,2.042999983E0
3.252199844E1,-7.698999643E-1,-9.345999956E-1,2.129400015E0
3.254200000E1,-3.328000009E-1,-1.123600006E0,2.809099913E0
3.257199844E1,1.262999922E-1,-9.393000007E-1,-2.719999850E-1
3.259199844E1,-4.600000102E-3,-6.480000019E-1,-2.568999827E-1
3.261200000E1,4.942999780E-1,-1.946000010E-1,-2.987000048E-1
3.264199844E1,3.005000055E-1,5.288999677E-1,-2.743999958E-1
3.266199844E1,-1.067999959E0,-8.609999716E-2,1.778399944E0
3.268200000E1,-1.563799977E0,-1.641299963E0,2.517099857E0
3.271199844E1,-2.937700033E0,-7.494999766E-1,9.915999770E-1
3.273199844E1,-1.721599936E0,-1.677999973E0,1.106199980E0
3.275199844E1,-3.240000084E-2,-1.862399936E0,3.375999928E-1
3.277200000E1,1.365199924E0,-1.303799987E0,-4.095000029E-1
3.280199844E1,8.520999551E-1,-9.770999551E-1,-6.481999755E-1
3.282199844E1,6.297000051E-1,-1.113799930E0,-1.102499962E0
3.284200000E1,-5.949999690E-1,-1.315299988E0,-2.684399843E0
3.287199844E1,-4.079699993E0,-9.478999972E-1,2.467999905E-1
3.289199844E1,-1.888899922E0,-8.876999617E-1,-5.374000072E-1
3.291199844E1,-9.439999610E-2,-4.903999865E-1,-5.425999641E0
3.293199844E1,2.250399828E0,-1.952899933E0,-6.037600040E0
3.295199844E1,2.504400015E0,-9.459999800E-1,-2.054800034E0
3.297200000E1,5.971999764E-1,-7.802000046E-1,-5.668200016E0
3.300199844E1,5.040000081E-1,6.837999821E-1,-4.861499786E0
3.302199844E1,8.330999613E-1,1.971599936E0,-3.064399958E0
3.304200000E1,1.002699971E0,1.079800010E0,-5.043299675E0
3.307199844E1,1.103500009E0,1.562799931E0,-4.562999725E0
3.309199844E1,2.587899923E0,1.452099919E0,-1.619699955E0
3.311199844E1,5.945000052E-1,8.725000024E-1,-1.611000001E-1
3.313199844E1,2.435099840E0,-1.963000000E-1,-1.426599979E0
3.315199844E1,1.881199956E0,1.521899939E0,1.639199972E0
3.317199844E1,2.360499859E0,5.758999586E-1,-1.227699995E0
3.319200000E1,1.440999955E-1,2.969999984E-2,-2.469999939E-1
3.322199844E1,-1.404099941E0,-2.731799841E0,3.093899965E0
3.324199844E1,-2.655599833E0,-5.199800014E0,8.631999493E-1
3.326199844E1,-1.827299953E0,-4.641099930E0,1.733500004E0
3.328199844E1,-5.742999911E-1,-2.990499973E0,3.634699821E0
3.330199844E1,5.013999939E-1,-2.211499929E0,3.826599836E0
3.332199844E1,-8.879999518E-1,-1.283599973E0,2.546499968E0
3.334200000E1,-1.183099985E0,-1.745999932E0,2.282699823E0
3.337199844E1,-3.553499937E0,-3.490199804E0,2.199399948E0
3.339199844E1,-3.978199959E0,-1.676399946E0,-1.375999898E-1
3.341200156E1,-2.927500010E0,-1.637399912E0,1.677500010E0
3.344199844E1,-1.615599990E0,-2.127500057E0,1.402099967E0
3.346199844E1,-2.967000008E-1,-1.319999933E0,1.728999913E-1
3.348200000E1,-2.829999849E-2,-1.165099978E0,1.047500014E0
3.351199844E1,-9.047999978E-1,-1.515799999E0,2.224900007E0
3.353199844E1,-1.333799958E0,-1.394899964E0,5.674999952E-1
3.355200000E1,-2.469399929E0,-4.240999818E-1,4.729999974E-2
3.358199844E1,-1.427599907E0,-1.818999946E-1,-4.576900005E0
3.360199844E1,-9.277999997E-1,3.583000004E-1,-1.134199977E0
3.362200000E1,-6.251999736E-1,-7.881999612E-1,1.665499926E0
3.365199844E1,-4.837999940E-1,-2.376399994E0,-7.279999852E-1
3.367199844E1,-7.185999751E-1,-1.398999929E0,-8.761999607E-1
3.369200000E1,-2.276999950E-1,-1.657400012E0,-5.194999576E-1
3.372199844E1,5.209999681E-1,-9.179999679E-2,-1.123999953E0
3.374199844E1,-6.836000085E-1,-6.388999820E-1,-1.733599901E0
3.376200000E1,-1.558599949E0,-1.941399932E0,-7.699999809E-1
3.379199844E1,5.554999709E-1,-2.360800028E0,-2.967000008E0
3.381199844E1,1.645299911E0,-1.651899934E0,-7.295099735E0
3.383200000E1,1.015399933E0,3.439999744E-2,-1.781499982E0
3.386199844E1,5.534999967E-1,-2.188899994E0,-8.884699821E0
3.388199844E1,1.757299900E0,-2.198999971E-1,-3.888799906E0
3.390200000E1,1.706599951E0,1.727000028E-1,-5.938099861E0
3.393199844E1,1.320099950E0,4.165999889E-1,-7.021999836E0
3.395199844E1,7.742999792E-1,1.090499997E0,-6.004999638E0
3.397200000E1,1.454999924E0,1.117200017E0,-1.282299995E0
3.400199844E1,2.162299871E0,2.694999874E-1,-1.314199924E0
3.402199844E1,2.502699852E0,-8.064999580E-1,3.205799818E0
3.404200000E1,7.463999987E-1,-2.485999823E0,-4.645999968E-1
3.407199844E1,-3.203399897E0,-2.877199888E0,3.138099909E0
3.409199844E1,-3.643699884E0,-2.261999846E0,3.293699980E0
3.411200000E1,-1.980899930E0,-2.825000048E0,5.101699829E0
3.413200000E1,-3.261499882E0,-1.172799945E0,4.290599823E0
3.416199844E1,-2.696399927E0,-2.092700005E0,2.723700047E0
3.418199844E1,-1.384999990E0,-3.042999983E0,3.654899836E0
3.420199844E1,9.300000034E-3,-3.900599957E0,4.273399830E0
3.422199844E1,-9.734999537E-1,-4.731699944E0,3.707499981E0
3.424199844E1,-6.071000099E-1,-3.154899836E0,4.993799686E0
3.426200000E1,-4.314000010E-1,-1.705999970E0,1.896699905E0
3.429199844E1,-1.814000010E-1,-9.307000041E-1,-1.440400004E0
3.431199844E1,4.667999744E-1,-8.039000034E-1,-1.881299973E0
3.433200000E1,1.417099953E0,-3.486999869E-1,-2.253000021E0
3.436199844E1,3.827999830E-1,3.157999814E-1,3.777999878E-1
3.438199844E1,2.353999913E-1,6.042999625E-1,1.878600001E0
3.440200000E1,-4.254999757E-1,-1.533999890E-1,4.356499672E0
3.443199844E1,-3.383800030E0,-4.848999977E0,3.975799799E0
3.445199844E1,-2.063400030E0,-3.956299782E0,-2.139099836E0
3.447199844E1,-1.537499905E0,2.989999950E-1,-2.131799936E0
3.449199844E1,-8.021999598E-1,1.381799936E0,-2.881700039E0
3.451199844E1,-2.243999988E-1,1.875899911E0,-3.032399893E0
3.453199844E1,3.269999921E-1,2.061100006E0,-1.559599996E0
3.455200000E1,1.008800030E0,8.471999764E-1,-3.074199915E0
3.458199844E1,3.728999794E-1,-1.463599920E0,-2.362099886E0
3.460199844E1,-1.181900024E0,-2.362999916E0,-1.685499907E0
3.462200000E1,-1.585899949E0,-2.544199944E0,-1.958199978E0
3.465199844E1,3.411999941E-1,-3.282999992E-1,-2.763900042E0
3.467199844E1,-8.118000031E-1,-1.447799921E0,-2.277400017E0
3.469200000E1,1.123999953E-1,-2.003099918E0,-3.631500006E0
3.472199844E1,6.688999534E-1,-1.149600029E0,-5.093199730E0
3.474199844E1,2.378200054E0,1.912999988E0,-4.970999718E0
3.476200000E1,4.007999897E-1,2.490999937E0,-3.531799793E0
3.479199844E1,8.420999646E-1,1.316599965E0,-6.168999672E0
3.481199844E1,4.783999920E-1,1.045899987E0,-2.444999933E0
3.483200000E1,3.610000014E-1,3.270999789E-1,2.775999904E-1
3.486199844E1,-2.432999909E-1,-2.510599852E0,-5.909000039E-1
3.488199844E1,8.269999921E-2,-3.340899944E0,1.280999929E-1
3.490200000E1,-5.868999958E-1,-3.462699890E0,1.999199986E0
3.493199844E1,-1.249199986E0,-4.137300014E0,8.165999651E-1
3.495199844E1,-9.959999919E-1,-1.931899905E0,1.592499971E0
3.497200000E1,-7.662999630E-1,-3.109000027E-1,2.004600048E0
3.500199844E1,-9.019999504E-1,1.338000000E-1,1.026899934E0
3.502199844E1,-1.279600024E0,2.541999817E-1,9.057999849E-1
3.504200000E1,-4.892999828E-1,-5.970000029E-1,1.475299954E0
3.507199844E1,-2.178999931E-1,-2.278199911E0,2.474499941E0
3.509199844E1,-4.862999916E-1,-3.762099981E0,3.271299839E0
3.511200000E1,-6.929999590E-1,-4.864399910E0,4.201600075E0
3.514199844E1,-6.420999765E-1,-2.021399975E0,1.836499929E0
3.516199844E1,1.797000021E-1,-7.238999605E-1,-4.108999968E-1
3.518199844E1,7.480999827E-1,-3.156999946E-1,-1.081599951E0
3.520200000E1,1.138100028E0,-4.972999990E-1,4.223999977E-1
3.523199844E1,-1.517899990E0,-2.440399885E0,1.320599914E0
3.525199844E1,3.520999849E-1,-2.957000017E0,-1.961799979E0
3.527199844E1,8.777999878E-1,3.524299860E0,-9.213999510E-1
3.529199844E1,-1.088999987E0,2.723099947E0,2.806299925E0
3.531199844E1,-2.150500059E0,-2.121700048E0,4.914400101E0
3.533200000E1,-2.544800043E0,-3.585699797E0,1.319299936E0
3.536199844E1,-9.534999728E-1,-2.716799974E0,1.039000005E-1
3.538199844E1,-4.795999825E-1,-1.260200024E0,-2.487999916E0
3.540200000E1,1.637599945E0,-5.499999970E-3,-2.178099871E0
3.543199844E1,4.606999755E-1,3.980000019E-1,-3.841699839E0
3.545199844E1,1.047399998E0,-4.594999850E-1,-2.749099970E0
3.547200000E1,1.995299935E0,-9.842999578E-1,-4.588099957E0
3.550199844E1,3.215199947E0,-5.656999946E-1,-2.851399899E0
3.552199844E1,1.509499907E0,-1.923999935E-1,-1.246799946E0
3.554199844E1,7.572000027E-1,-1.953399897E0,-4.332699776E0
3.556200000E1,6.775999665E-1,-9.583999515E-1,-5.188399792E0
3.559199844E1,9.874999523E-1,-1.675099969E0,-1.894699931E0
3.561200000E1,9.099999443E-3,-2.595999956E0,-1.126500010E0
3.563200000E1,3.185499907E0,-4.828999937E-1,-3.822399855E0
3.566199844E1,1.723599911E0,1.142199993E0,-8.544999957E-1
3.568199844E1,5.130999684E-1,-2.527999878E-1,-3.433099985E0
3.570200000E1,2.638399839E0,2.190999985E-1,-4.694399834E0
3.573199844E1,1.714100003E0,2.344999909E-1,1.146700025E0
3.575199844E1,1.554700017E0,-8.449999690E-1,1.481999904E-1
3.577200000E1,5.385999680E-1,-1.840099931E0,2.324000001E-1
3.580199844E1,-5.575999618E-1,-3.859799862E0,1.056200027E0
3.582199844E1,-3.075000048E-1,-3.112699986E0,7.443000078E-1
3.584200000E1,-5.658000112E-1,-1.212199926E0,9.802999496E-1
3.587199844E1,-5.551999807E-1,1.691999912E0,2.012199879E0
3.589199844E1,-1.970899940E0,4.069999754E-1,2.728399992E0
3.591200000E1,-2.298199892E0,-1.633599997E0,3.068300009E0
3.594199844E1,-8.109999448E-2,-3.838799953E0,1.916799903E0
3.596199844E1,1.110999957E-1,-3.615399837E0,3.581399918E0
3.598200000E1,-4.574999809E-1,-1.544499993E0,3.820199966E0
3.601199844E1,-2.674999833E-1,-3.678999841E-1,2.206399918E0
3.603199844E1,-2.719999850E-1,-1.590199947E0,2.577999830E0
3.605200000E1,8.650999665E-1,-1.031199932E0,8.942999840E-1
3.608199844E1,1.081599951E0,-8.865000010E-1,7.224000096E-1
3.610199844E1,-5.177000165E-1,1.614999920E-1,2.278100014E0
3.612199844E1,-7.968999743E-1,2.926999927E-1,6.189999580E-1
3.614199844E1,-5.970999599E-1,3.696999848E-1,-6.650000066E-2
3.616199844E1,-9.350000024E-1,3.660999835E-1,2.760599852E0
3.618200000E1,-2.295500040E0,-1.909599900E0,3.485899925E0
3.621199844E1,-1.061999917E0,-3.152400017E0,1.067399979E0
3.623199844E1,-7.225999832E-1,-2.494299889E0,-2.877999842E-1
3.625199844E1,5.099999905E-1,-1.071099997E0,-1.927799940E0
3.627199844E1,1.867799997E0,8.677999973E-1,-2.705699921E0
3.629199844E1,2.204699993E0,1.125999928E0,-1.885699987E0
3.631199844E1,2.341699839E0,-2.669000030E-1,-9.885999560E-1
3.633200000E1,1.181200027E0,-1.826799989E0,8.700999618E-1
3.636199844E1,2.451299906E0,-2.098700047E0,-5.052700043E0
3.638199844E1,2.972100019E0,-1.708000004E-1,-3.042599916E0
3.640200000E1,3.660399914E0,-5.123000145E-1,-2.820999861E0
3.643199844E1,7.261999846E-1,-1.320299983E0,-4.682099819E0
3.645199844E1,1.357199907E0,-9.147999883E-1,-4.066899776E0
3.647200000E1,-6.613999605E-1,-5.728999972E-1,-1.696900010E0
3.650199844E1,1.458699942E0,-4.145999849E-1,-3.271499872E0
3.652199844E1,1.007099986E0,3.772999942E-1,-1.713599920E0
3.654200000E1,4.564999938E-1,1.019999981E-1,-1.627799988E0
3.657199844E1,1.321799994E0,6.952999830E-1,-2.808099985E0
3.659199844E1,1.520299911E0,2.812999785E-1,-3.327499866E0
3.661199844E1,2.680299997E0,8.474999666E-1,-1.907999992E0
3.663199844E1,2.105999947E0,3.801999986E-1,1.729999930E-1
3.665199844E1,1.621599913E0,2.759999968E-2,2.425999939E-1
3.667199844E1,3.743999898E-1,-1.166899920E0,1.388399959E0
3.669200156E1,1.741999984E-1,-2.872299910E0,1.016899943E0
3.672199844E1,-4.954999983E-1,-2.866299868E0,1.437999964E0
3.674199844E1,-1.074199915E0,-1.823799968E0,2.202199936E0
3.676200000E1,-9.524999857E-1,-1.611999989E0,1.918099999E0
3.679199844E1,-8.859999776E-1,-1.689999938E0,9.093999863E-1
3.681199844E1,-7.071999907E-1,-7.725999951E-1,9.120000005E-1
3.683200000E1,3.883999884E-1,-5.130000114E-1,4.792999923E-1
3.686199844E1,2.035199881E0,-2.148200035E0,3.959399939E0
3.688199844E1,1.164999977E-1,-4.083399773E0,3.669299841E0
3.690200000E1,-1.314999908E-1,-3.706399918E0,4.125099659E0
3.693199844E1,-7.476999760E-1,-7.155999541E-1,2.472800016E0
3.695199844E1,-1.137599945E0,1.496899962E0,2.199999988E-1
3.697200000E1,-1.239699960E0,8.341000080E-1,-7.019999623E-1
3.700200000E1,-1.854399920E0,3.292999864E-1,4.151999950E-1
3.702200000E1,-5.550999641E-1,-2.058999985E-1,8.736000061E-1
3.704200000E1,-1.186800003E0,-4.074999988E-1,2.670500040E0
3.706200000E1,-1.925899982E0,-8.820999861E-1,4.010900021E0
3.709200000E1,-1.980299950E0,-2.023799896E0,1.174999997E-1
3.712200000E1,-1.629799962E0,-1.668900013E0,4.413999915E-1
3.715199844E1,-2.067800045E0,-1.102599978E0,2.036999911E-1
3.717199844E1,-1.725899935E0,-1.381399989E0,3.509999812E-2
3.719200000E1,-1.661799908E0,-1.101999998E0,3.281999826E-1
3.721200000E1,-1.329499960E0,-1.294799924E0,-1.252799988E0
3.723200000E1,3.048999906E-1,-8.300999999E-1,-3.372699976E0
3.725200000E1,8.463999629E-1,-4.812999964E-1,-1.712199926E0
3.727200000E1,6.345999837E-1,-1.145200014E0,-9.357999563E-1
3.729200000E1,2.769999951E-2,-2.259799957E0,-2.188099861E0
3.731200000E1,1.406199932E0,-1.171899915E0,-3.820599794E0
3.733200000E1,1.462799907E0,-2.988999784E-1,-3.577099800E0
3.735200000E1,1.582700014E0,-1.134500027E0,-4.169099808E0
3.737200000E1,1.757999957E-1,-1.558699965E0,-5.556999683E0
3.739200000E1,-2.694000006E-1,-8.039000034E-1,-5.379399776E0
3.741200000E1,2.720899820E0,-1.231999993E-1,-2.801599979E0
3.743200000E1,1.113699913E0,3.863999844E-1,-2.495800018E0
3.745200000E1,1.143800020E0,5.619999766E-2,-6.707499981E0
3.747200000E1,1.690799952E0,3.425999880E-1,-5.048099995E0
3.749200000E1,1.156499982E0,-4.380000010E-2,-3.713099957E0
3.751200000E1,2.523299932E0,3.481999934E-1,-3.762599945E0
3.753200000E1,4.608999789E-1,-6.430000067E-2,6.363999844E-1
3.755200000E1,-4.244999886E-1,-1.273499966E0,-1.059199929E0
3.757200000E1,-4.131999910E-1,-1.697499990E0,-5.227000117E-1
3.759200000E1,-5.681999922E-1,-2.724900007E0,1.366599917E0
3.761200000E1,-1.263999939E-1,-3.332499981E0,1.520599961E0
3.763200000E1,1.650999933E-1,-2.390499830E0,8.639999628E-1
3.765200000E1,1.432999969E-1,-1.657299995E0,1.179399967E0
3.767200000E1,-1.476999968E-1,-1.012499928E0,2.171000004E0
3.769200000E1,-1.454199910E0,-1.542199969E0,2.357300043E0
3.771200000E1,-3.572899818E0,-1.937599897E0,1.589800000E0
3.773200000E1,-2.713599920E0,-2.577800035E0,1.996799946E0
3.775200000E1,6.031999588E-1,-3.788999796E0,2.935299873E0
3.777200000E1,1.402899981E0,-5.069699764E0,5.699299812E0
3.779200000E1,1.065199971E0,-4.593299866E0,3.685899973E0
3.782199844E1,-2.937999964E-1,-5.704999566E-1,2.163899899E0
3.784200000E1,-1.330799937E0,-5.651999712E-1,2.354300022E0
3.787199844E1,-7.903999686E-1,1.947299957E0,-7.779999971E-1
3.789199844E1,2.804999948E-1,2.498899937E0,-3.549499989E0
3.791200000E1,-1.073699951E0,2.027699947E0,-4.237999916E-1
3.794199844E1,-8.323999643E-1,-4.532999992E-1,2.733000040E0
3.796199844E1,6.744999886E-1,-3.049700022E0,1.262099981E0
3.798200000E1,-1.253899932E0,-3.466199875E0,3.459800005E0
3.800200000E1,-3.518999815E0,-2.591500044E0,3.812899828E0
3.802200000E1,5.462999940E-1,-2.894799948E0,5.776999593E-1
3.804200000E1,1.329499960E0,-1.643499970E0,-1.507300019E0
3.807199844E1,1.291999966E-1,1.018999934E0,-1.202000022E0
3.809199844E1,2.124300003E0,6.159999967E-1,2.239999920E-2
3.811199844E1,2.205499887E0,-1.926599979E0,5.241000056E-1
3.813200000E1,-8.901999593E-1,-1.991699934E0,-9.664999843E-1
3.816199844E1,1.709800005E0,2.596199989E0,-4.078700066E0
3.818199844E1,1.306900024E0,1.041100025E0,-2.172899961E0
3.820200000E1,8.387999535E-1,-2.015100002E0,-2.867999971E-1
3.823199844E1,-2.078999877E-1,-2.143199921E0,1.990700006E0
3.825199844E1,-1.505299926E0,-3.251199961E0,-3.152199984E0
3.827200000E1,4.179999828E0,-2.757699966E0,-7.814899921E0
3.830199844E1,3.445000052E-1,-3.321000040E-1,-5.518599987E0
3.832199844E1,1.904199958E0,-2.302999973E0,-5.056600094E0
3.834199844E1,1.875499964E0,-1.488000005E-1,-7.658399582E0
3.836199844E1,4.130799770E0,3.240399837E0,-4.868299961E0
3.838199844E1,-7.846999764E-1,2.106299877E0,3.694000006E0
3.840200000E1,-3.309599876E0,-3.053099871E0,-3.739699841E0
3.843199844E1,3.009199858E0,-1.142799973E0,-3.978499889E0
3.845199844E1,3.029999971E0,1.002999991E-1,1.028179932E1
3.847200000E1,2.349499941E0,-9.520999789E-1,3.660899878E0
3.849200000E1,-5.073999763E-1,-1.361099958E0,-3.795000017E-1
3.852199844E1,9.079999477E-2,-4.043099880E0,-3.287699938E0
3.854200000E1,2.170399904E0,-1.679600000E0,-1.585099936E0
3.856200000E1,2.880599976E0,8.107999563E-1,1.413999915E0
3.859199844E1,1.009999990E0,6.650999784E-1,1.693300009E0
3.861199844E1,-6.209999919E-1,1.924999952E-1,2.004999876E0
3.863200000E1,-1.329800010E0,-1.366899967E0,3.257999897E0
3.866199844E1,-9.790999889E-1,-4.185499668E0,2.608299971E0
3.868199844E1,-4.463000000E-1,-3.811800003E0,5.609999895E-1
3.870199844E1,2.334999889E-1,-3.172499895E0,2.098099947E0
3.872199844E1,-5.729999766E-2,-4.051000118E0,4.437399864E0
3.874199844E1,-6.949999928E-1,-1.344099998E0,4.226900101E0
3.876200000E1,-8.546999693E-1,5.963000059E-1,2.395900011E0
3.879199844E1,-5.749999881E-1,1.288299918E0,1.729999930E-1
3.881199844E1,3.940999806E-1,1.131399989E0,-2.132999897E-1
3.883200000E1,2.466999888E-1,-8.743000031E-1,1.368899941E0
3.886199844E1,6.173999906E-1,-2.032299995E0,2.077899933E0
3.888199844E1,1.228799939E0,-5.641999841E-1,1.430999994E0
3.890200000E1,1.225600004E0,-7.775999904E-1,3.142400026E0
3.893199844E1,-1.448499918E0,-3.330999851E0,3.064399958E0
3.895199844E1,-2.417199850E0,-1.978299975E0,-2.556999922E0
3.897200000E1,-3.879999816E-1,4.670999944E-1,-2.371999979E0
3.899200000E1,-7.409999520E-2,7.749999762E-1,-6.506999731E-1
3.902199844E1,-7.730999589E-1,-7.267999649E-1,1.209900022E0
3.904199844E1,-1.648000032E-1,-1.655299902E0,1.868999898E-1
3.906199844E1,7.037999630E-1,-1.699699998E0,-1.433699965E0
3.908199844E1,1.238899946E0,-5.633999705E-1,-2.711999893E0
3.910199844E1,2.185600042E0,2.601999938E-1,-2.962999821E0
3.912200000E1,2.806200027E0,2.269999981E-1,-1.187299967E0
3.915199844E1,1.233299971E0,-2.510299921E0,-3.918599844E0
3.917199844E1,1.936499953E0,-4.869999886E-1,-3.187500000E0
3.919200000E1,1.056399941E0,-2.736999989E-1,-2.097399950E0
3.922199844E1,2.802799940E0,-5.958999991E-1,-4.595799923E0
3.924199844E1,1.182299972E0,9.248999953E-1,-1.789799929E0
3.926200000E1,1.783999950E-1,-1.917400002E0,-2.440399885E0
3.929199844E1,1.901899934E0,-6.189999729E-2,-3.618599892E0
3.931199844E1,8.422999978E-1,2.723000050E-1,-2.229699850E0
3.933200000E1,1.670799971E0,2.399999881E-3,-7.402999997E-1
3.936199844E1,4.380000010E-2,-5.485999584E-1,-5.263999701E-1
3.938199844E1,1.254499912E0,1.656999886E-1,-1.122900009E0
3.940200000E1,2.205999941E-1,-1.941999942E-1,2.399999881E-3
3.943199844E1,5.852999687E-1,-2.317600012E0,-6.626999974E-1
3.945199844E1,1.054600000E0,-2.062099934E0,-7.807999849E-1
3.947200000E1,6.936999559E-1,-1.786700010E0,1.864999980E-1
3.949200000E1,5.002999902E-1,-1.343699932E0,4.688999951E-1
3.952199844E1,5.224999785E-1,4.122000039E-1,3.339999914E-1
3.954199844E1,9.690999985E-1,-7.745999694E-1,2.079400063E0
3.956199844E1,1.663100004E0,-2.612999916E0,1.975899935E0
3.958199844E1,1.191200018E0,-2.926699877E0,7.937999964E-1
3.960199844E1,5.734999776E-1,-1.764499903E0,2.015399933E0
3.962200000E1,6.268000007E-1,-8.179999590E-1,2.801599979E0
3.965199844E1,1.257399917E0,6.474999785E-1,1.614199996E0
3.967204062E1,2.578299999E0,-5.018000007E-1,1.324800014E0
3.970200000E1,3.061999977E-1,-1.021799922E0,1.975699902E0
3.973199844E1,-1.086999997E-1,-5.051000118E-1,1.097999960E-1
3.975199844E1,3.592000008E-1,8.969999552E-1,5.095999837E-1
3.977200000E1,1.497499943E0,2.172999978E-1,-8.449999988E-2
3.980199844E1,1.010399938E0,-4.231999815E-1,7.057999969E-1
3.982199844E1,8.582999706E-1,-1.652799964E0,1.338599920E0
3.984200000E1,-9.391999841E-1,-1.911799908E0,1.384799957E0
3.987199844E1,1.787999988E0,5.281000137E-1,-1.470199943E0
3.989199844E1,1.779500008E0,3.003999889E-1,-3.218999803E-1
3.991200000E1,7.044999599E-1,-1.062099934E0,7.199999690E-1
3.994199844E1,8.105999827E-1,-1.176100016E0,-5.787999630E-1
3.996199844E1,1.155900002E0,-2.486299992E0,1.494799972E0
3.998200000E1,1.177899957E0,-2.557899952E0,8.209999800E-1
4.001199844E1,1.854999900E0,7.005999684E-1,-1.056299925E0
4.003200000E1,1.967799902E0,7.347999811E-1,1.999999949E-4
4.005200000E1,1.599999905E0,-4.138000011E-1,7.699999958E-3
4.008199844E1,2.939999998E-1,3.254999816E-1,-4.372999966E-1
4.010199844E1,1.278800011E0,3.576000035E-1,-8.894999623E-1
4.012200000E1,1.424999952E0,1.522499919E0,-3.483999968E-1
4.015199844E1,2.348500013E0,2.456999868E-1,-6.915000081E-1
4.017199844E1,1.606199980E0,-3.788000047E-1,2.530900002E0
4.019200000E1,-2.469999902E-2,-3.108199835E0,3.500299931E0
4.022199844E1,3.146999776E-1,1.054999948E0,9.690999985E-1
4.024199844E1,1.939700007E0,2.434599876E0,6.725999713E-1
4.026200000E1,1.761999965E0,1.232299924E0,2.547999918E-1
4.029199844E1,1.452899933E0,7.583000064E-1,-1.088099957E0
4.031199844E1,1.871499896E0,9.089999646E-2,-1.598099947E0
4.033200156E1,1.308899999E0,3.375999928E-1,-9.170999527E-1
4.036199844E1,5.891000032E-1,2.478999943E-1,-1.450799942E0
4.038199844E1,8.129999638E-1,2.545000017E-1,-1.346499920E0
4.040200000E1,6.700999737E-1,-1.789999940E-2,1.000100017E0
4.042200000E1,-7.520999908E-1,-1.661899924E0,9.271999598E-1
4.045199844E1,3.638999760E-1,-2.029500008E0,1.000599980E0
4.047200000E1,-2.471999973E-1,-2.021800041E0,1.549499989E0
4.049200000E1,7.189999521E-2,-1.250299931E0,1.287999898E-1
4.052199844E1,9.552999735E-1,8.980999589E-1,-1.519400001E0
4.054199844E1,2.864899874E0,3.587999940E-1,-1.467399955E0
4.056199844E1,1.670199990E0,6.164000034E-1,-5.103999972E-1
4.058199844E1,7.540999651E-1,5.460000038E-2,3.119999915E-2
4.060199844E1,1.082999945E0,-8.657999635E-1,5.399999619E-1
4.062200000E1,6.782000065E-1,-1.538900018E0,1.417199969E0
4.065199844E1,1.398599982E0,-8.621000051E-1,-6.098999977E-1
4.067199844E1,1.854099989E0,-9.799999744E-2,-1.225499988E0
4.069200000E1,2.440700054E0,-8.708999753E-1,2.076999992E-1
4.072199844E1,1.187600017E0,-1.664999962E0,1.784599900E0
4.074200000E1,1.464100003E0,-7.213000059E-1,1.766399980E0
4.076200000E1,4.171999991E-1,-9.524999857E-1,2.907699823E0
4.079199844E1,4.302999973E-1,3.050999939E-1,-5.101000071E-1
4.081199844E1,1.773199916E0,1.686199903E0,-1.283200026E0
4.083200000E1,1.978500009E0,8.962000012E-1,-8.975999951E-1
4.086199844E1,8.033999801E-1,-7.679999620E-2,-5.895000100E-1
4.088199844E1,1.064000010E0,2.088999897E-1,-5.155999660E-1
4.090200000E1,1.868899941E0,-7.310000062E-2,-4.663999975E-1
4.093199844E1,4.778999984E-1,-2.638399839E0,3.448400021E0
4.095199844E1,-1.549799919E0,-4.802899837E0,3.221499920E0
4.097200000E1,2.349999920E-2,-3.721999884E0,5.880999565E-1
4.099200000E1,1.813599944E0,-9.088999629E-1,-1.080999970E-1
4.102199844E1,2.253499985E0,2.026000023E0,-7.039999962E-1
4.104199844E1,1.518199921E0,6.617999673E-1,-3.700000048E-1
4.106200000E1,2.195099831E0,5.062000155E-1,-7.488999963E-1
4.109199844E1,2.683499813E0,9.043999910E-1,-3.908999860E-1
4.111199844E1,2.651999950E0,1.480799913E0,-6.649000049E-1
4.113199844E1,1.458699942E0,6.305999756E-1,4.215999842E-1
4.115199844E1,7.980999947E-1,-6.969999671E-1,6.477000117E-1
4.117199844E1,6.979999542E-1,-3.883000016E-1,1.017699957E0
4.119200000E1,-3.664000034E-1,-5.921999812E-1,1.222199917E0
4.122199844E1,2.254000008E-1,3.790000081E-2,6.899999920E-3
4.124199844E1,9.741999507E-1,2.435999960E-1,7.069000006E-1
4.126200000E1,-9.190999866E-1,1.758999974E-1,8.536999822E-1
4.129199844E1,4.316999912E-1,-1.323300004E0,-8.200999498E-1
4.131199844E1,6.237999797E-1,9.179999679E-2,-6.955999732E-1
4.133200000E1,1.394799948E0,1.617699981E0,-1.572299957E0
4.136199844E1,1.343899965E0,1.717299938E0,-9.698999524E-1
4.138199844E1,1.033599973E0,7.793999910E-1,-2.454999983E-1
4.140200000E1,-2.637999952E-1,5.109999776E-1,5.902999640E-1
4.142200000E1,-1.656299949E0,5.807999969E-1,3.631999791E-1
4.145199844E1,7.188999653E-1,-1.231400013E0,-1.346099973E0
4.147200000E1,8.761999607E-1,-1.417299986E0,-1.155900002E0
4.149200000E1,5.047000051E-1,-3.833999932E-1,-2.723099947E0
4.152199844E1,-3.455999792E-1,-1.160999984E-1,6.152999997E-1
4.154199844E1,-1.487699986E0,1.585699916E0,1.052199960E0
4.156200000E1,-8.262000084E-1,1.485199928E0,-6.757000089E-1
4.159199844E1,-2.637999952E-1,-3.088599920E0,4.006400108E0
4.161199844E1,-2.396499872E0,-6.207699776E0,3.457999945E0
4.163200000E1,-1.935799956E0,-3.338599920E0,5.924999714E0
4.166199844E1,-2.243199825E0,1.277400017E0,2.210299969E0
4.168199844E1,-2.127399921E0,1.667999983E0,3.206999898E-1
4.170200000E1,-1.688399911E0,9.098999500E-1,-2.666800022E0
4.172200000E1,-2.226899862E0,7.087999582E-1,-2.537799835E0
4.174200000E1,-2.573699951E0,8.619999886E-1,-2.029799938E0
4.176200000E1,-3.310599804E0,6.387000084E-1,1.901699901E0
4.178200000E1,-6.094599724E0,-1.526399970E0,4.882999897E0
4.180200000E1,-7.245999813E0,-4.364900112E0,5.860399723E0
4.182200000E1,-4.623199940E0,-3.845699787E0,1.125999928E0
4.184200000E1,-2.020599842E0,-2.098000050E0,-2.371099949E0
4.186200000E1,-3.063199997E0,-6.098999977E-1,4.488500118E0
4.188200000E1,-5.317299843E0,-4.917699814E0,5.213500023E0
4.190200000E1,-4.612800121E0,-6.568299770E0,1.582599998E0
4.192200000E1,-4.463599682E0,-4.152800083E0,-3.864499807E0
4.194200000E1,-4.784800053E0,-1.570199966E0,-3.760999918E0
4.196200000E1,-2.054100037E0,-9.368999600E-1,-1.103399992E0
4.198200000E1,-9.478999972E-1,6.260000169E-2,-2.686199903E0
4.200200000E1,-1.407599926E0,3.091999888E-1,-4.078599930E0
4.202200000E1,-2.479300022E0,-2.048799992E0,-1.400799990E0
4.204200000E1,-2.157199860E0,-4.650799751E0,-3.752699852E0
4.206200000E1,-7.408999801E-1,-3.590899944E0,-8.041500092E0
4.208200000E1,4.213999808E-1,-1.083000004E-1,-6.467400074E0
4.211199844E1,-1.074399948E0,-1.476999968E-1,-6.346999645E0
4.213199844E1,4.699999839E-2,-1.016299963E0,-4.692899704E0
4.215199844E1,4.463000000E-1,-5.599999800E-2,-3.153699875E0
4.217199844E1,-7.142999768E-1,2.208999991E-1,-2.670799971E0
4.219200000E1,-8.560999632E-1,1.595000029E-1,-1.195799947E0
4.222199844E1,1.062299967E0,-7.139999866E-1,-4.731999934E-1
4.224199844E1,1.466399908E0,-8.812999725E-1,-6.371999979E-1
4.226200000E1,7.322999835E-1,-7.240999937E-1,-1.175499916E0
4.229199844E1,-2.375999987E-1,-1.419000030E-1,-1.171899915E0
4.231199844E1,-5.649999902E-2,7.364000082E-1,-8.619999886E-1
4.233200000E1,3.546999991E-1,8.926999569E-1,-1.152400017E0
4.236199844E1,1.187799931E0,-1.229999959E-1,-6.626999974E-1
4.238199844E1,1.382900000E0,-1.209999919E0,-1.049700022E0
4.240200000E1,9.226999879E-1,-1.856899977E0,-1.030099988E0
4.242200000E1,1.033200026E0,-1.846699953E0,-3.714999855E-1
4.245199844E1,9.807999730E-1,-8.105999827E-1,2.538000047E-1
4.247199844E1,7.102999687E-1,-1.059399962E0,1.164799929E0
4.249199844E1,1.013800025E0,-2.175299883E0,1.936499953E0
4.251199844E1,7.050999999E-1,-3.254099846E0,3.889699936E0
4.253199844E1,-7.053999901E-1,-3.936299801E0,3.945799828E0
4.255200000E1,-2.626499891E0,-4.338099957E0,3.888000011E0
4.258199844E1,-2.579399824E0,-1.682500005E0,1.823899984E0
4.260199844E1,-1.111299992E0,-6.759999990E-1,5.967000127E-1
4.262200000E1,6.839999557E-2,-4.197999835E-1,3.779000044E-1
4.265199844E1,1.027799964E0,-3.480999768E-1,2.840000018E-2
4.267199844E1,9.418999553E-1,-7.963999510E-1,1.103699923E0
4.269200000E1,6.800000072E-1,-4.222999811E-1,7.818999887E-1
4.272199844E1,6.055999994E-1,5.225999951E-1,4.226999879E-1
4.274199844E1,4.296999872E-1,1.736999899E-1,7.827000022E-1
4.276200000E1,4.088999927E-1,-4.984999895E-1,1.597199917E0
4.279199844E1,-1.158399940E0,-7.635999918E-1,3.184700012E0
4.281199844E1,-1.456900001E0,-1.198599935E0,3.926599979E0
4.283200000E1,-1.756999969E0,-1.919799924E0,4.732599735E0
4.286199844E1,-4.495999813E-1,-2.882499933E0,2.651799917E0
4.288199844E1,1.128499985E0,-1.335399985E0,1.048000008E-1
4.290200000E1,1.701399922E0,-1.797000021E-1,-5.753999949E-1
4.293199844E1,1.446799994E0,1.097999930E0,-1.198599935E0
4.295199844E1,9.855999947E-1,1.607899904E0,-1.556999981E-1
4.297199844E1,5.782999992E-1,1.785200000E0,-7.558000088E-1
4.299200000E1,-2.514999807E-1,9.537999630E-1,-2.654899836E0
4.302199844E1,-1.166899920E0,-2.176800013E0,-2.685999870E-1
4.304199844E1,-1.287400007E0,-2.203699827E0,5.877999663E-1
4.306199844E1,1.338099957E0,-1.169600010E0,-4.066999853E-1
4.308199844E1,3.213999987E0,-1.384199977E0,-5.896699905E0
4.310199844E1,2.435600042E0,-1.337499976E0,-3.032199860E0
4.312199844E1,-1.145999953E-1,-7.589999586E-2,-1.844299912E0
4.314199844E1,5.137999654E-1,5.289999843E-1,-2.948599815E0
4.316199844E1,1.523999929E0,1.456999928E-1,-4.718400002E0
4.318199844E1,1.447899938E0,1.503999949E0,-5.790000036E-2
4.320200000E1,1.251600027E0,-4.959999770E-2,-3.151999950E0
4.323199844E1,3.263999939E0,-4.366999865E-1,-6.308999658E-1
4.325199844E1,4.421799660E0,-5.651999712E-1,-4.087399960E0
4.327200000E1,4.957099915E0,7.364999652E-1,-4.104700089E0
4.330199844E1,5.043699741E0,3.777199984E0,2.875900030E0
4.332199844E1,2.534199953E0,5.376999974E-1,-2.089400053E0
4.334200000E1,9.530999660E-1,-1.037999988E0,4.720900059E0
4.337199844E1,-1.659999937E-1,-3.552500010E0,4.190299988E0
4.339199844E1,-1.712199926E0,-3.560699940E0,1.108500004E0
4.341200000E1,-9.946999550E-1,-4.392899990E0,-8.933999538E-1
4.344199844E1,1.300999999E0,1.026799917E0,-1.280499935E0
4.346199844E1,1.311999917E0,3.371599913E0,-2.942699909E0
4.348200000E1,7.096999884E-1,3.491400003E0,-3.357599974E0
4.351199844E1,3.445000052E-1,9.884999990E-1,-1.190899968E0
4.353200000E1,9.025999904E-1,-2.267699957E0,1.965299964E0
4.355200000E1,1.318799973E0,-5.301899910E0,3.523099899E0
4.357200000E1,-1.222700000E0,-6.190499783E0,5.793699741E0
4.359200000E1,-3.714200020E0,-6.131799698E0,6.247799873E0
4.361200000E1,-3.544600010E0,-3.486899853E0,5.956599712E0
4.363200000E1,-1.091699958E0,-2.213099957E0,3.898899794E0
4.366200000E1,5.979999900E-1,-5.493000150E-1,9.829999804E-1
4.368200000E1,7.827000022E-1,1.610000014E0,-7.963999510E-1
4.370200000E1,5.034999847E-1,2.511800051E0,-4.194999933E-1
4.372200000E1,5.268999934E-1,1.152099967E0,-5.119000077E-1
4.375199844E1,-7.683999538E-1,1.230499983E0,5.674999952E-1
4.377200000E1,-3.199999928E-1,3.102999926E-1,1.475999951E-1
4.380199844E1,-2.525599957E0,5.882999897E-1,1.649299979E0
4.382199844E1,-2.913699865E0,8.959999681E-2,-2.161999941E-1
4.384199844E1,-2.326699972E0,3.317999840E-1,-7.044999599E-1
4.386199844E1,-2.101599932E0,-6.674000025E-1,1.219699979E0
4.388199844E1,-1.974199891E0,-2.200500011E0,2.351899862E0
4.390200000E1,-2.538199902E0,-2.816099882E0,8.508999944E-1
4.393199844E1,-1.580199957E0,-1.722999930E0,-1.909999996E-1
4.395199844E1,-5.548999906E-1,-1.521499991E0,-1.265999913E0
4.397199844E1,2.345999926E-1,-1.133599997E0,-2.770599842E0
4.399200000E1,1.341300011E0,-1.992799997E0,-2.242300034E0
4.402199844E1,-1.768799901E0,-2.669299841E0,-3.953999877E-1
4.404199844E1,-2.793099880E0,2.295999974E-1,8.249999881E-1
4.406200000E1,-4.105299950E0,1.630800009E0,3.178200006E0
4.409199844E1,7.976999879E-1,-6.574999690E-1,-4.793299675E0
4.411199844E1,4.820199966E0,3.465999842E0,-5.513199806E0
4.413200000E1,5.007199764E0,8.899999410E-2,-4.717499733E0
4.416199844E1,3.724399805E0,-1.771000028E-1,-1.389799953E0
4.418199844E1,6.431999803E-1,1.028399944E0,-3.965600014E0
4.420200000E1,-1.200399995E0,-1.145399928E0,-6.144199848E0
4.423199844E1,-5.543000102E-1,-9.663999677E-1,-2.016399860E0
4.425199844E1,4.707999825E-1,1.571699977E0,-4.019599915E0
4.427200000E1,-1.381799936E0,2.129999876E0,-1.996599913E0
4.430199844E1,1.993999958E0,-2.475199938E0,-1.947299957E0
4.432199844E1,1.626799941E0,-7.921999693E-1,-2.832299948E0
4.434200000E1,3.536099911E0,1.225499988E0,1.679999948E0
4.437199844E1,2.610699892E0,6.659999490E-2,-1.894299984E0
4.439199844E1,6.143999696E-1,-1.593799949E0,-1.233299971E0
4.441200000E1,-1.153299928E0,-2.994299889E0,-9.605000019E-1
4.444199844E1,-1.934499979E0,-2.831199884E0,3.405999839E-1
4.446199844E1,-2.282599926E0,-1.598099947E0,7.032999992E-1
4.448200000E1,-3.121899843E0,-1.335099936E0,6.513999701E-1
4.451199844E1,-1.996999979E0,-2.378700018E0,1.974799991E0
4.453199844E1,-9.338999987E-1,-3.307299852E0,1.816499949E0
4.455200000E1,-8.302999735E-1,-4.040899754E0,1.817299962E0
4.458199844E1,-2.141599894E0,-1.366999984E0,1.047899961E0
4.460199844E1,-2.564299822E0,-1.284699917E0,2.565599918E0
4.462200000E1,-5.489000082E-1,-1.762999892E-1,3.229999840E-1
4.465199844E1,1.534999967E0,5.314999819E-1,4.871999919E-1
4.467199844E1,6.480999589E-1,7.365999818E-1,7.523999810E-1
4.469200000E1,1.141999960E-1,-4.998999834E-1,1.202499986E0
4.472199844E1,-3.409999907E-1,2.648999989E-1,-6.030000001E-2
4.474199844E1,-1.817999929E-1,8.460999727E-1,-3.662999868E-1
4.476200000E1,-6.703999639E-1,7.493000031E-1,1.888099909E0
4.479199844E1,-2.961599827E0,-1.142999977E-1,5.688099861E0
4.481199844E1,-3.378199816E0,-1.422399998E0,5.593199730E0
4.483200000E1,-4.374000072E0,-2.729399920E0,4.394199848E0
4.485200000E1,-2.907599926E0,-3.458899975E0,-2.994000018E-1
4.488200000E1,1.195999980E-1,-1.701599956E0,-3.095700026E0
4.491200000E1,1.855099916E0,-1.269899964E0,-4.615999758E-1
4.494199844E1,-1.409999933E-2,-1.466099977E0,-2.094799995E0
4.496199844E1,-2.754999995E-1,-9.961999655E-1,-3.271299839E0
4.498200000E1,1.489999890E-1,-1.161299944E0,-3.596499920E0
4.501199844E1,-9.653999805E-1,-1.645999998E-1,-3.503700018E0
4.503199844E1,-5.946999788E-1,9.697999954E-1,-9.696999788E-1
4.505200000E1,-2.087999880E-1,-6.777999997E-1,-1.097100019E0
4.508199844E1,2.210299969E0,-4.192000031E-1,-9.899999499E-1
4.510199844E1,7.426999807E-1,-1.847000003E0,-2.329399824E0
