"Time (s)","Gyroscope x (rad/s)","Gyroscope y (rad/s)","Gyroscope z (rad/s)"
2.844750000E-3,-2.541199327E-2,4.530874640E-2,-5.951572675E-3
2.284475000E-2,-4.040437192E-2,-1.678483188E-1,9.913469665E-3
4.284475000E-2,-6.614797562E-2,-5.041732788E-1,1.153313592E-1
6.284475000E-2,-4.918337986E-2,-8.732405901E-1,2.428625673E-1
8.285568800E-2,3.478441015E-2,-9.336115122E-1,3.067241609E-1
1.048541250E-1,1.130449772E-1,-6.559121609E-1,2.241177261E-1
1.268447500E-1,7.592181861E-2,-4.418824613E-1,8.923868090E-2
1.468463130E-1,3.481931984E-2,-4.864232540E-1,4.799655639E-3
1.668510000E-1,1.388234943E-1,-7.033502460E-1,-2.003637888E-2
1.888447500E-1,2.104168981E-1,-8.401317000E-1,1.221730490E-3
2.088541250E-1,-1.761037298E-2,-5.874080062E-1,4.930555075E-2
2.308447500E-1,-5.307022929E-1,-1.997354776E-1,-2.949606441E-2
2.528431880E-1,-7.869166136E-1,-2.620088160E-1,-5.857324973E-2
2.728431880E-1,-6.209183335E-1,-6.022258401E-1,-6.042329967E-2
2.928463130E-1,-1.217018068E-1,-7.833212018E-1,-3.078760765E-2
3.148431880E-1,1.758768260E-1,-3.998025656E-1,-1.163436472E-1
3.348447500E-1,1.313185692E-1,6.202900037E-2,-1.857553869E-1
3.568447500E-1,-1.123992074E-2,7.471754402E-2,-2.993937731E-1
3.768447500E-1,-2.120575011E-1,-3.824365437E-1,-3.592760265E-1
3.968447500E-1,-3.000220954E-1,-6.298718452E-1,-3.214721978E-1
4.168510000E-1,-2.101899981E-1,-6.215815544E-1,-2.641032338E-1
4.388431880E-1,1.672025397E-2,-2.927266359E-1,-2.070135027E-1
4.588447500E-1,1.419301778E-1,-7.319910824E-2,-2.637890577E-1
4.808447500E-1,2.029817849E-1,1.607797295E-1,-2.916096151E-1
5.008463130E-1,1.238311082E-1,-1.414065808E-1,-4.409923553E-1
5.228431880E-1,9.836675972E-2,-4.875053763E-1,-7.437546253E-1
5.428431880E-1,-1.925621778E-1,2.750638872E-2,-7.433007956E-1
5.628447500E-1,-5.119225383E-1,-2.138901055E-1,1.630137488E-2
5.828447500E-1,-1.060235143E0,-1.737579942E0,8.500800729E-1
6.048431880E-1,-1.187626719E0,-2.167594194E0,9.150412083E-1
6.248447500E-1,-1.009306431E0,-1.926756263E0,6.515313983E-1
6.468447500E-1,-1.155844331E0,-2.209674120E0,1.780934036E-1
6.668447500E-1,-1.452689886E0,-1.687977672E0,-2.458121777E-1
6.868447500E-1,-1.455011129E0,-9.694082141E-1,-4.532794654E-1
7.068447500E-1,-1.115666866E0,-9.927956462E-1,-6.006376147E-1
7.268447500E-1,-7.722558379E-1,-1.078840375E0,-6.457543969E-1
7.468447500E-1,-6.560343504E-1,-1.080603123E0,-6.632251143E-1
7.688447500E-1,-6.812369227E-1,-1.158741593E0,-6.103242040E-1
7.908447500E-1,-5.127428174E-1,-1.687995195E0,-2.514146864E-1
8.108447500E-1,-2.177821845E-1,-2.297149897E0,-2.652900480E-2
8.328431880E-1,4.555309191E-3,-2.726588249E0,1.754055917E-1
8.528431880E-1,-1.348615885E-1,-3.284308195E0,4.055446982E-1
8.728431880E-1,-3.086789250E-1,-3.080977440E0,4.313581288E-1
8.928822500E-1,-5.021486878E-1,-2.703724384E0,8.376533389E-1
9.148447500E-1,-1.199023724E0,-6.270619035E-1,1.689653277E0
9.368447500E-1,-1.732693076E0,2.319018990E-1,1.758122563E0
9.588447500E-1,-8.687027097E-1,6.295402646E-1,1.064197063E0
9.788447500E-1,6.834185719E-1,1.048105121E0,6.655289531E-1
9.988447500E-1,1.560464025E0,1.249184489E0,-2.724808156E-1
1.018844750E0,2.094080925E0,3.167074323E-1,-4.294557273E-1
1.038844750E0,2.380332470E0,-3.508111835E-1,-1.011523008E0
1.060844750E0,2.510935307E0,-6.028716564E-1,-2.105634928E0
1.080844750E0,2.554778099E0,-7.677703351E-2,-2.649409771E0
1.100844750E0,2.723132610E0,-3.607071936E-1,-2.944370508E0
1.120844750E0,2.607033253E0,-9.638755322E-1,-2.837661028E0
1.140844750E0,2.100800514E0,-4.519529939E-1,-2.077517748E0
1.162844750E0,1.392266631E0,1.724926353E0,-4.130670726E-1
1.184844750E0,1.223301291E-1,9.548521638E-1,4.567526579E-1
1.206847875E0,-1.295208782E-1,7.631626725E-1,7.247828841E-1
1.228843188E0,-1.413542181E-1,1.103589177E0,2.522873282E-1
1.248844750E0,-6.211626902E-2,1.738976240E0,-2.614503205E-1
1.268844750E0,3.506017327E-1,1.281455636E0,-6.484421492E-1
1.288844750E0,9.791820645E-1,8.257327080E-1,-6.825459003E-1
1.308844750E0,1.048960328E0,7.036643624E-1,-4.030139744E-1
1.328844750E0,6.485818028E-1,5.007175207E-1,2.993239649E-2
1.348844750E0,2.013237327E-1,1.387536824E-1,3.773750961E-1
1.368844750E0,1.385267824E-1,-1.551772207E-1,3.994011581E-1
1.388844750E0,3.585779071E-1,-1.348965019E-1,2.783800066E-1
1.410844750E0,4.892157912E-1,1.940457076E-1,5.251695588E-2
1.432844750E0,-3.577925032E-3,7.840716839E-1,1.499935985E-1
1.452844750E0,-8.562061787E-1,6.280916333E-1,1.783202887E-1
1.472844750E0,-1.791545510E0,1.707106531E-1,2.272069603E-1
1.492852563E0,-2.215084553E0,-9.723228961E-2,3.596251011E-1
1.514843188E0,-2.141257286E0,-1.355771720E-1,5.932025313E-1
1.534843188E0,-1.929007649E0,-2.001020014E-1,8.839219809E-1
1.554844750E0,-1.881063461E0,-6.787410975E-1,1.105700970E0
1.574849438E0,-2.017565727E0,-1.516883135E0,1.332855582E0
1.596851000E0,-2.237895966E0,-1.631097436E0,1.427818894E0
1.616851000E0,-2.253551722E0,-1.453196049E0,1.406578302E0
1.638844750E0,-2.225923061E0,-9.088802338E-1,1.435864925E0
1.660843188E0,-2.031266451E0,-1.632406414E-1,1.326101184E0
1.680844750E0,-1.653542399E0,3.097435832E-1,1.089993000E0
1.700846313E0,-1.333396673E0,3.943396807E-1,8.498356938E-1
1.722844750E0,-1.318055153E0,3.013660014E-1,8.249124289E-1
1.742844750E0,-1.656230211E0,7.171208858E-1,1.574391723E0
1.764844750E0,-1.863104105E0,6.941348910E-1,2.895413876E0
1.786844750E0,-8.770803213E-1,4.348313212E-1,4.458897114E0
1.806844750E0,-6.815510988E-2,2.195798755E-1,5.852874279E0
1.828843188E0,-7.094065547E-1,7.433357090E-2,7.125341415E0
1.848843188E0,-1.643890738E0,1.322086900E-1,7.463551521E0
1.868843188E0,-2.161642551E0,1.652303189E-1,6.883944988E0
1.888844750E0,-2.521529436E0,1.467123777E-1,5.533008099E0
1.908844750E0,-2.864521742E0,1.702917814E-1,3.879605055E0
1.928844750E0,-2.759923935E0,3.491182029E-1,2.430615425E0
1.950843188E0,-2.050360441E0,5.066341758E-1,1.491907477E0
1.970843188E0,-1.265939713E0,4.715879560E-1,1.034159899E0
1.990851000E0,-7.073295712E-1,1.854935884E-1,8.263261318E-1
2.012844750E0,-5.145928860E-1,-1.981123239E-1,8.004080057E-1
2.034843188E0,-8.025373220E-1,-7.829546928E-2,8.739387393E-1
2.054844750E0,-1.296395659E0,-1.158200502E-1,9.247452617E-1
2.076844750E0,-1.587499142E0,-2.472084314E-1,9.704903364E-1
2.096844750E0,-1.506236553E0,-7.275928855E-1,1.003756285E0
2.116844750E0,-1.182809591E0,-1.160609007E0,8.816879988E-1
2.136844750E0,-2.924299240E-1,-1.013058901E0,9.412385821E-1
2.156851000E0,4.497713447E-1,-7.977899909E-1,9.710837603E-1
2.176852563E0,3.612133265E-1,-6.676408052E-1,6.355267167E-1
2.198843188E0,-3.097435832E-1,-2.488490492E-1,1.169370562E-1
2.218844750E0,-1.188569188E0,6.672393531E-2,-4.766319692E-1
2.238844750E0,-1.724071145E0,6.341304779E-1,-8.948128223E-1
2.258844750E0,-1.428045869E0,1.065087199E0,-1.167206407E0
2.278844750E0,-6.595424414E-1,1.052258968E0,-1.445184946E0
2.298844750E0,2.335774153E-1,9.541191459E-1,-1.852457523E0
2.318844750E0,1.242150784E0,6.119124293E-1,-2.201505899E0
2.338844750E0,1.831531048E0,1.532399058E-1,-2.416268826E0
2.358844750E0,1.918099403E0,-2.466499358E-1,-2.625184536E0
2.378844750E0,1.644553900E0,-4.283910692E-1,-2.984094143E0
2.398844750E0,1.412634611E0,-3.693116605E-1,-3.578989506E0
2.420844750E0,1.342734098E0,2.698104382E-1,-4.162645340E0
2.440844750E0,1.541649342E0,8.889485598E-1,-4.655822754E0
2.460844750E0,1.676877379E0,1.262972593E0,-4.950870514E0
2.480844750E0,1.485554457E0,1.702865362E0,-4.848280430E0
2.500844750E0,1.685481906E0,1.927873254E0,-4.614511013E0
2.522844750E0,1.963268518E0,2.088234186E0,-4.471795559E0
2.544844750E0,2.480077982E0,1.833154202E0,-4.374999523E0
2.566844750E0,2.859756947E0,1.836295843E0,-4.302917480E0
2.586855688E0,2.431941748E0,2.407297611E0,-4.348348141E0
2.608843188E0,1.831984878E0,2.930198431E0,-4.274503231E0
2.628844750E0,1.920211196E0,3.296455622E0,-4.228356838E0
2.648844750E0,2.283606291E0,3.989997149E0,-4.064749718E0
2.668844750E0,2.426217079E0,4.321557522E0,-3.522475958E0
2.690851000E0,2.677038431E0,3.994727135E0,-2.637262344E0
2.712843188E0,3.151052237E0,3.306683302E0,-1.618967414E0
2.732844750E0,2.894558668E0,2.574866772E0,-7.289541960E-1
2.754844750E0,2.286259174E0,2.223567009E0,-3.036872856E-2
2.776851000E0,1.505032301E0,2.069052935E0,-1.734857261E-1
2.798843188E0,1.150241733E0,1.940893412E0,-6.699795127E-1
2.818844750E0,1.162493944E0,1.886421680E0,-1.125091553E0
2.838844750E0,1.206406474E0,1.860206842E0,-1.059955955E0
2.858844750E0,1.675306678E0,1.377920032E0,-4.248654842E-1
2.878844750E0,2.485820055E0,2.915223539E-1,1.794372946E-1
2.898844750E0,3.128869295E0,-6.691243052E-1,5.237035155E-1
2.920844750E0,3.201440096E0,-1.078055024E0,3.903254271E-1
2.942844750E0,2.563033342E0,-9.338558912E-1,-2.137853801E-1
2.964844750E0,1.406281590E0,-1.266794920E0,-5.262342095E-1
2.984846313E0,-3.071604967E-1,-1.647294044E0,9.517280012E-2
3.006847875E0,-2.742069244E0,-2.335006237E0,1.651133776E0
3.028844750E0,-4.104281425E0,-3.056734800E0,3.042073965E0
3.048844750E0,-3.770487070E0,-3.283261061E0,3.522353649E0
3.068844750E0,-3.012927055E0,-3.211772442E0,3.518845558E0
3.088844750E0,-2.530203819E0,-3.015213251E0,3.444686413E0
3.108844750E0,-2.282366991E0,-2.782019854E0,3.358572006E0
3.130844750E0,-2.225853205E0,-2.417769670E0,3.312146187E0
3.152844750E0,-2.741947174E0,-2.045211792E0,3.095009804E0
3.174843188E0,-3.557155609E0,-1.643611431E0,2.787412882E0
3.194844750E0,-4.042531490E0,-1.308490753E0,2.524130106E0
3.216858813E0,-4.169609070E0,-1.032152772E0,2.500777483E0
3.238844750E0,-4.183205128E0,-1.034666061E0,2.794481516E0
3.258844750E0,-4.379135609E0,-1.179249167E0,3.339704990E0
3.280844750E0,-4.736963272E0,-1.532783031E0,3.915838242E0
3.300844750E0,-5.112174034E0,-1.979726911E0,4.307612419E0
3.322843188E0,-5.234347343E0,-2.104360819E0,4.601351261E0
3.342843188E0,-4.371421337E0,-1.786222339E0,4.541294575E0
3.362844750E0,-2.937301874E0,-1.592630386E0,4.017224312E0
3.382844750E0,-1.447680831E0,-1.576782823E0,3.093386650E0
3.404843188E0,-3.023259342E-1,-1.415479422E0,2.012242556E0
3.424843188E0,5.466371179E-1,-9.317091107E-1,9.791820645E-1
3.444844750E0,1.230509520E0,-2.655692995E-1,1.553343050E-2
3.464844750E0,1.559800744E0,3.890862465E-1,-6.564357877E-1
3.484844750E0,1.311248422E0,7.374016047E-1,-9.297019839E-1
3.506844750E0,4.588470459E-1,5.983337760E-1,-7.404209971E-1
3.528844750E0,-5.575803518E-1,1.183333248E-2,-3.186622262E-1
3.548844750E0,-1.055627465E0,-6.010913849E-1,-7.410667837E-2
3.568844750E0,-9.677850604E-1,-9.692686200E-1,7.504915702E-4
3.590846313E0,-6.775542498E-1,-9.358280897E-1,1.518087387E-1
3.612843188E0,-3.256609738E-1,-7.307519317E-1,2.039068192E-1
3.632843188E0,1.315629184E-1,-5.139471292E-1,-5.969025940E-2
3.652844750E0,5.986828208E-1,-2.094918638E-1,-5.630606413E-1
3.674843188E0,8.611279726E-1,4.158596098E-1,-8.002334833E-1
3.694844750E0,9.317789078E-1,6.328040361E-1,-6.017022729E-1
3.716851000E0,1.324931741E0,1.038558125E0,-3.503923118E-1
3.738844750E0,2.002171993E0,1.232621312E0,-3.094992340E-1
3.760843188E0,2.548302889E0,1.146786094E0,-1.669581980E-1
3.780846313E0,2.738613605E0,8.044222593E-1,1.210734919E-1
3.802844750E0,1.900349379E0,3.184178770E-1,6.706078649E-1
3.824844750E0,3.546159863E-1,-1.788264364E-1,1.035050035E0
3.844844750E0,-5.517858267E-1,-5.326046944E-1,1.103170276E0
3.864844750E0,-7.456395626E-1,-5.221676230E-1,8.867843151E-1
3.884844750E0,-9.207310081E-1,-5.406855345E-1,4.629834890E-1
3.904844750E0,-1.141619802E0,-7.753276229E-1,-1.945169419E-1
3.926844750E0,-1.078334212E0,-1.007945061E0,-1.145215273E0
3.946844750E0,-5.578770638E-1,-6.335719824E-1,-1.758576274E0
3.968844750E0,4.953418970E-1,1.444609016E-1,-1.704034805E0
3.988844750E0,1.325053930E0,5.462008119E-1,-1.185305476E0
4.008844750E0,1.424572587E0,4.978551567E-1,-6.865776181E-1
4.028844750E0,6.001139879E-1,-4.845033959E-2,-4.070805907E-1
4.048844750E0,-6.626316905E-1,-7.092319727E-1,-3.591364026E-1
4.068844750E0,-1.791563034E0,-1.144360065E0,-5.053775311E-1
4.090852563E0,-2.404731989E0,-1.380049229E0,-8.120842576E-1
4.112843188E0,-2.512645721E0,-1.171499848E0,-1.093640804E0
4.132843188E0,-2.087431192E0,-5.039114356E-1,-1.302033067E0
4.152844750E0,-1.290496469E0,2.861118317E-1,-1.233581305E0
4.172844750E0,-4.763352573E-1,9.934239388E-1,-9.256004691E-1
4.192877563E0,2.042907923E-1,1.388165116E0,-4.907167852E-1
4.214843188E0,5.925043821E-1,1.157031059E0,1.467298269E-1
4.234843188E0,5.558873415E-1,6.768386960E-1,6.369928122E-1
4.254844750E0,5.257629752E-1,1.039692611E-1,9.169610739E-1
4.274847875E0,8.196066022E-1,-3.335149586E-1,1.013006568E0
4.296857250E0,1.340884089E0,-5.508608222E-1,8.886518478E-1
4.318844750E0,1.727526903E0,-5.639333129E-1,5.537056923E-1
4.338844750E0,1.842962980E0,-4.294382632E-1,2.538581491E-1
4.358844750E0,1.895724297E0,-2.666688561E-1,1.423490494E-1
4.380843188E0,2.013324499E0,-5.358160660E-2,1.402197480E-1
4.400844750E0,2.077884197E0,-7.278022822E-3,-3.829252347E-2
4.420844750E0,1.998000503E0,-4.513421282E-2,-3.545112908E-1
4.442844750E0,1.810133338E0,-4.258603323E-3,-8.526806235E-1
4.464843188E0,1.648184180E0,3.568325639E-1,-1.382021546E0
4.484843188E0,1.517493963E0,6.814463735E-1,-1.810464978E0
4.504844750E0,1.291316748E0,8.384386897E-1,-2.066365004E0
4.526843188E0,1.029866457E0,6.162408590E-1,-2.095843792E0
4.546851000E0,1.081231475E0,2.508561611E-1,-2.144451141E0
4.568844750E0,1.363416314E0,-6.059783325E-2,-2.250898838E0
4.588844750E0,1.495782018E0,-1.750914305E-1,-2.362041235E0
4.608844750E0,1.535697699E0,-1.792802215E-1,-2.443548203E0
4.630844750E0,1.467245936E0,-7.967428118E-2,-2.456166983E0
4.652844750E0,1.346922994E0,2.738421597E-2,-2.469693184E0
4.674844750E0,1.331005573E0,1.181064323E-1,-2.527062178E0
4.694844750E0,1.283462763E0,2.134363204E-1,-2.530779839E0
4.716852563E0,1.203037977E0,3.454704583E-1,-2.382479191E0
4.738844750E0,1.058664322E0,4.346742630E-1,-2.075877190E0
4.758844750E0,8.858418465E-1,2.927964330E-1,-1.701608777E0
4.780844750E0,4.893030524E-1,1.274264902E-1,-1.205010176E0
4.800844750E0,-9.251990169E-2,5.148721114E-2,-5.329537392E-1
4.822843188E0,-9.420065284E-1,5.183627829E-2,2.543817461E-1
4.842844750E0,-1.414519548E0,8.368853480E-2,9.114807248E-1
4.862844750E0,-1.523428082E0,-5.532693863E-2,1.391324162E0
4.882844750E0,-1.430157661E0,-2.109230459E-1,1.775732875E0
4.904844750E0,-1.437261224E0,-2.776818871E-1,2.099561214E0
4.926844750E0,-1.852178335E0,-3.011391163E-1,2.416251183E0
4.946844750E0,-2.180282831E0,-2.429672778E-1,2.579457045E0
4.968844750E0,-2.042436600E0,-1.708677262E-1,2.492941141E0
4.988844750E0,-1.633174419E0,-2.380105555E-1,2.275403261E0
5.008844750E0,-1.476531148E0,-2.186897546E-1,2.108933687E0
5.028844750E0,-1.877782226E0,-2.111848444E-3,2.095686674E0
5.048844750E0,-2.428765297E0,1.612335145E-1,2.219954014E0
5.068844750E0,-2.690966129E0,1.517389268E-1,2.341271877E0
5.088844750E0,-2.686026812E0,-1.560498923E-1,2.314149618E0
5.108844750E0,-2.586892128E0,-6.781476736E-1,2.161468029E0
5.130844750E0,-2.217336178E0,-1.156908989E0,2.010217905E0
5.152844750E0,-1.540689349E0,-1.278994679E0,1.907435417E0
5.174843188E0,-7.496712804E-1,-1.284701943E0,1.658725977E0
5.194844750E0,3.260274976E-2,-1.148548841E0,1.308228970E0
5.216851000E0,9.247627258E-1,-3.036000133E-1,9.691289663E-1
5.238844750E0,1.701120019E0,7.322354317E-1,8.163952231E-1
5.258844750E0,1.769222856E0,1.026044130E0,9.003455639E-1
5.280844750E0,1.058489799E0,6.185272336E-1,1.116068244E0
5.300844750E0,1.365022063E-1,1.295034289E-1,1.462341547E0
5.322843188E0,-3.922452927E-1,-3.883706629E-1,1.657085419E0
5.342885375E0,-4.670850039E-1,-5.723283887E-1,1.439111233E0
5.364843188E0,-3.518932760E-1,-4.971046746E-1,8.152607679E-1
5.384843188E0,-1.529082954E-1,-2.792352140E-1,1.249481216E-1
5.404844750E0,1.008451208E-1,-1.416858286E-1,-4.229805470E-1
5.426844750E0,4.313755631E-1,2.392846346E-2,-8.342150450E-1
5.446844750E0,6.567499638E-1,1.003913358E-1,-1.155407906E0
5.466849438E0,7.744724154E-1,8.426449448E-2,-1.507318735E0
5.486849438E0,6.684610844E-1,8.799950033E-2,-1.751734614E0
5.508843188E0,2.665117681E-1,2.405412793E-1,-1.831915021E0
5.528844750E0,-2.644348443E-1,4.950975478E-1,-1.816241980E0
5.550843188E0,-7.666532993E-1,4.535063505E-1,-1.988139391E0
5.570844750E0,-9.425999522E-1,3.683517277E-1,-2.182813406E0
5.590868188E0,-5.958554149E-1,5.604252219E-2,-2.259346247E0
5.612843188E0,3.796440065E-1,-6.885323673E-2,-2.206637144E0
5.632843188E0,1.239236116E0,-2.554813027E-1,-2.134258509E0
5.652844750E0,1.792470574E0,-2.474702299E-1,-2.124205351E0
5.672844750E0,2.020393133E0,-2.345722541E-2,-2.121430159E0
5.692844750E0,1.949829459E0,2.521477044E-1,-2.177612305E0
5.714843188E0,1.880120993E0,6.474298835E-1,-2.128655910E0
5.734843188E0,2.067132950E0,7.663740516E-1,-2.506153107E0
5.754844750E0,1.940474510E0,8.973610401E-1,-2.615009308E0
5.776843188E0,1.629875660E0,7.791848183E-1,-2.525351763E0
5.796844750E0,1.300130606E0,7.401068807E-1,-2.264477491E0
5.816844750E0,1.085664630E0,6.972590089E-1,-1.905847192E0
5.836852563E0,9.834581017E-1,5.709320903E-1,-1.425759435E0
5.858844750E0,8.066039085E-1,3.355744481E-1,-8.486489058E-1
5.880843188E0,5.731661320E-1,2.212204784E-1,-1.996831149E-1
5.900844750E0,3.084520400E-1,5.536184460E-2,3.457671702E-1
5.920844750E0,-7.506661117E-2,-1.480562836E-1,7.204544544E-1
5.942844750E0,-4.670501053E-1,-2.025629133E-1,1.038732648E0
5.964843188E0,-7.493920326E-1,-7.377506793E-2,1.197959065E0
5.984844750E0,-1.005937934E0,6.103416532E-2,1.242569685E0
6.004844750E0,-1.484908700E0,1.484577060E-1,1.488695979E0
6.026843188E0,-2.157663345E0,2.434734255E-2,1.686651230E0
6.046843188E0,-2.201994658E0,-1.918640435E-1,1.591548324E0
6.066844750E0,-2.039487123E0,-3.075270057E-1,1.398514867E0
6.086851000E0,-2.125269890E0,-2.816263139E-1,1.598704100E0
6.106852563E0,-2.618953705E0,-2.198067605E-1,1.999728441E0
6.128844750E0,-3.344557047E0,-3.101275563E-1,2.277148485E0
6.148844750E0,-3.771359682E0,-6.264859438E-1,2.281860828E0
6.168844750E0,-3.881559849E0,-9.059655070E-1,2.049365520E0
6.190843188E0,-3.524325848E0,-1.064825416E0,1.877642632E0
6.210844750E0,-2.834362268E0,-1.264281631E0,1.786361933E0
6.230844750E0,-2.028892994E0,-1.485118151E0,1.602421641E0
6.252843188E0,-1.174868345E0,-1.490005016E0,1.567096233E0
6.272843188E0,-7.358133793E-1,-1.358529329E0,1.749099135E0
6.292857250E0,-5.152561069E-1,-1.129611969E0,1.936756968E0
6.314843188E0,-4.610112607E-1,-7.874751091E-1,2.055264711E0
6.334844750E0,-4.082848728E-1,-3.029716909E-1,1.997791171E0
6.356854125E0,-2.969677746E-1,-5.834635720E-2,1.777600408E0
6.378843188E0,-3.257308006E-1,1.003040746E-1,1.413472295E0
6.398844750E0,-3.190810978E-1,3.238458335E-1,1.010737658E0
6.420844750E0,-2.453932911E-1,6.162583232E-1,5.775119662E-1
6.442844750E0,-9.902998060E-2,5.759412050E-1,2.184279561E-1
6.464843188E0,3.591538668E-1,9.175195545E-2,-5.604426861E-1
6.484844750E0,1.006845593E0,-1.998227388E-1,-1.249184489E0
6.506846313E0,1.454138517E0,-2.094569653E-1,-1.807672381E0
6.528844750E0,1.454819202E0,-6.250023842E-2,-2.140541553E0
6.548844750E0,1.459095240E0,2.710321844E-1,-2.444211483E0
6.568844750E0,1.692393422E0,9.842435122E-1,-2.715278625E0
6.588844750E0,2.038527012E0,1.765156150E0,-2.879217386E0
6.608844750E0,2.308878660E0,2.049435377E0,-2.955470800E0
6.628844750E0,2.572597742E0,1.541143179E0,-3.068515778E0
6.648844750E0,2.798635483E0,7.559893727E-1,-3.094957352E0
6.668844750E0,2.931524754E0,1.171639487E-1,-3.076544285E0
6.688844750E0,2.824222088E0,-1.717229486E-1,-3.034411907E0
6.710844750E0,2.532228470E0,-1.106538773E-1,-3.064937830E0
6.730844750E0,2.299017429E0,1.429599226E-1,-3.128799438E0
6.752843188E0,2.254843235E0,4.860916436E-1,-3.320209742E0
6.772843188E0,2.370017529E0,7.886618972E-1,-3.507727861E0
6.792847875E0,2.530500412E0,1.073080778E0,-3.534902573E0
6.814843188E0,2.644854546E0,1.266707659E0,-3.337715387E0
6.834844750E0,2.686812162E0,1.293637991E0,-2.954999447E0
6.854844750E0,2.537062883E0,1.214888811E0,-2.394958258E0
6.874844750E0,2.191051483E0,1.055278420E0,-1.663054466E0
6.894844750E0,1.716164827E0,8.813214302E-1,-7.543138266E-1
6.914844750E0,1.203561544E0,7.242592573E-1,2.607696354E-1
6.936844750E0,6.939254403E-1,4.689525068E-1,1.242028594E0
6.956844750E0,1.455953717E-1,1.763131618E-1,1.915952682E0
6.976851000E0,-4.986754656E-1,-6.209881604E-2,2.324377060E0
6.998844750E0,-1.230945826E0,-3.341083825E-1,2.591168165E0
7.018844750E0,-1.828127623E0,-5.308942795E-1,2.690093517E0
7.038844750E0,-2.457615614E0,-4.864058197E-1,2.808775902E0
7.060844750E0,-2.881049871E0,-4.440117478E-1,2.897403717E0
7.082844750E0,-2.744355679E0,-3.767642379E-1,2.821219921E0
7.102844750E0,-2.396494150E0,-2.356369048E-1,2.675537348E0
7.124844750E0,-2.635865927E0,-5.211552978E-2,2.602146387E0
7.146844750E0,-3.740432501E0,-1.352630183E-2,2.830644846E0
7.166854125E0,-4.523230076E0,-1.672374457E-1,3.026540518E0
7.188844750E0,-4.595853329E0,-4.059810340E-1,2.884191513E0
7.210844750E0,-4.235146046E0,-4.555134773E-1,2.387767553E0
7.230844750E0,-3.940883636E0,-6.118426323E-1,1.811058402E0
7.252843188E0,-3.702576399E0,-7.440513372E-1,1.307356358E0
7.272843188E0,-3.402589083E0,-7.341727614E-1,1.048279643E0
7.292866625E0,-2.845288038E0,-6.193475127E-1,9.125628471E-1
7.314843188E0,-2.014773130E0,-5.232496858E-1,9.003455639E-1
7.334844750E0,-1.276621103E0,-4.540823102E-1,1.022885084E0
7.356844750E0,-6.286501288E-1,-3.137229383E-1,1.348982453E0
7.376844750E0,-3.192905188E-1,-2.600715160E-1,1.647590756E0
7.396844750E0,-2.610488832E-1,-4.414984882E-1,1.795490026E0
7.416849438E0,-3.666936755E-1,-7.729365230E-1,1.856087804E0
7.438844750E0,-4.849746227E-1,-9.633693695E-1,1.856035471E0
7.458844750E0,-4.059286714E-1,-8.942019939E-1,1.650226235E0
7.480844750E0,-1.537635028E-1,-4.994608760E-1,1.151149392E0
7.500844750E0,1.706757396E-1,-1.955990493E-1,4.490208626E-1
7.522844750E0,6.462779641E-1,-2.231228948E-1,-3.852639794E-1
7.544844750E0,1.138827324E0,-3.641629517E-1,-1.095804930E0
7.566844750E0,1.425951481E0,-5.336693525E-1,-1.435079575E0
7.586851000E0,1.442078233E0,-5.340533257E-1,-1.494298577E0
7.608844750E0,1.587394357E0,-7.183775306E-2,-1.922131062E0
7.630844750E0,2.156249523E0,8.931722641E-1,-2.604729414E0
7.652844750E0,2.977444410E0,1.621026874E0,-3.176202536E0
7.672844750E0,3.644805908E0,1.363904953E0,-3.545392036E0
7.692854125E0,3.789214611E0,6.116157174E-1,-3.573387146E0
7.714843188E0,3.679415941E0,-2.415535748E-1,-3.451563120E0
7.734843188E0,3.603947878E0,-6.907663941E-1,-3.292389154E0
7.754844750E0,3.490204811E0,-8.964360356E-1,-3.236922503E0
7.774851000E0,3.363336802E0,-6.862111092E-1,-3.165538549E0
7.796851000E0,3.117506981E0,-2.803696990E-1,-3.195575714E0
7.816852563E0,2.884174109E0,4.446575344E-1,-3.235962629E0
7.838844750E0,2.650718689E0,1.213684559E0,-3.369846821E0
7.858844750E0,2.488333464E0,1.480370760E0,-3.425784588E0
7.878844750E0,2.412812948E0,1.629003048E0,-3.252124310E0
7.898844750E0,2.182638884E0,1.232900620E0,-3.038251638E0
7.920844750E0,1.762520790E0,8.642870188E-1,-2.709466457E0
7.942844750E0,1.082470655E0,1.166892171E0,-2.142129898E0
7.964843188E0,7.288494706E-2,1.043898821E0,-1.573850632E0
7.984843188E0,-1.144220352E0,1.033688664E0,-7.454126477E-1
8.004844750E0,-2.260812283E0,6.256482005E-1,1.725607067E-1
8.026847875E0,-2.605689287E0,-3.290992677E-1,9.030159116E-1
8.046849438E0,-2.180928469E0,-5.447696447E-1,1.507510662E0
8.068844750E0,-1.451834679E0,-4.274834991E-1,2.026327372E0
8.088844750E0,-1.111582756E0,-4.196993113E-1,2.363280535E0
8.108844750E0,-1.105927825E0,-4.853760600E-1,2.771303654E0
8.130844750E0,-1.196911931E0,-9.010087848E-1,2.970812082E0
8.152844750E0,-1.286743999E0,-9.648180008E-1,3.040712595E0
8.172844750E0,-1.543726206E0,-8.069180846E-1,3.125046968E0
8.192849438E0,-2.023430109E0,-7.871260643E-1,3.312443018E0
8.214843188E0,-2.544497967E0,-7.906690836E-1,3.554939032E0
8.234843188E0,-2.848394871E0,-1.073290229E0,3.585517168E0
8.254844750E0,-3.087958574E0,-1.463755250E0,3.401873589E0
8.274851000E0,-3.382081509E0,-1.869736314E0,3.059562206E0
8.296847875E0,-3.585936069E0,-1.910245419E0,2.693374634E0
8.318844750E0,-3.452365875E0,-1.560045123E0,2.480182648E0
8.338844750E0,-3.029263258E0,-1.070253372E0,2.368865490E0
8.358844750E0,-2.397139788E0,-5.069483519E-1,2.268002987E0
8.380844750E0,-1.595824361E0,-1.882337630E-1,2.046014547E0
8.400844750E0,-1.065575838E0,-9.276425093E-2,1.770706296E0
8.420844750E0,-9.272759557E-1,-5.902703479E-2,1.682916284E0
8.442844750E0,-1.023077130E0,-1.497492474E-2,1.737230897E0
8.464843188E0,-1.060514450E0,2.110103145E-2,1.759030104E0
8.484843188E0,-8.912000060E-1,1.478293911E-2,1.558107734E0
8.504843188E0,-7.628136277E-1,-1.800830662E-1,1.207087159E0
8.524843188E0,-6.145304441E-1,-2.803522348E-1,7.817329764E-1
8.544844750E0,-2.714859545E-1,-2.665466964E-1,3.487167954E-1
8.564844750E0,1.990722567E-1,-4.667184949E-1,-1.816189587E-1
8.586844750E0,8.121017218E-1,-6.350729465E-1,-9.019687176E-1
8.606847875E0,1.202008247E0,-6.053848863E-1,-1.502449274E0
8.628844750E0,1.308804989E0,-3.666238487E-1,-2.041686058E0
8.648844750E0,1.467106342E0,8.826129884E-2,-2.570904970E0
8.668844750E0,1.775156975E0,8.611454368E-1,-3.102444887E0
8.688844750E0,2.246046782E0,1.444800973E0,-3.650583029E0
8.710844750E0,2.748649120E0,1.647381425E0,-4.256456375E0
8.730844750E0,2.975821257E0,1.243389964E0,-4.522130489E0
8.750844750E0,2.994985104E0,6.718121171E-1,-4.264938831E0
8.770844750E0,3.079773188E0,1.929112375E-1,-3.645137548E0
8.792855688E0,3.272666931E0,-2.483079880E-1,-3.058340549E0
8.814843188E0,3.405416727E0,-4.135034084E-1,-2.775248051E0
8.834843188E0,3.350456238E0,-2.946639359E-1,-2.731265783E0
8.854843188E0,3.220167398E0,-4.384266958E-2,-2.845968723E0
8.874851000E0,3.078813076E0,2.068389654E-1,-3.062110424E0
8.896846313E0,2.863980532E0,4.493001103E-1,-3.317731380E0
8.916851000E0,2.575425386E0,5.880537629E-1,-3.480762482E0
8.938844750E0,2.157453775E0,7.056889534E-1,-3.414631844E0
8.958844750E0,1.748592973E0,7.774569392E-1,-3.121154785E0
8.978844750E0,1.355056167E0,8.644266725E-1,-2.595793247E0
8.998844750E0,1.057058692E0,9.848020077E-1,-1.899284720E0
9.018844750E0,7.683113813E-1,9.570512772E-1,-1.093501091E0
9.038844750E0,3.733782768E-1,8.138644695E-1,-1.866804212E-1
9.060844750E0,-2.088810056E-1,4.246734977E-1,7.873878479E-1
9.082844750E0,-8.410916328E-1,2.277654596E-2,1.648568153E0
9.102844750E0,-1.298385382E0,-1.553343087E-1,2.118672609E0
9.124843188E0,-1.963861942E0,7.759733498E-2,2.307238102E0
9.144843188E0,-2.765823364E0,2.599667907E-1,2.183878183E0
9.164843188E0,-3.401158094E0,3.730815649E-1,1.926529288E0
9.184844750E0,-3.740257978E0,4.484449029E-1,1.709200978E0
9.204844750E0,-4.022913933E0,1.757022887E-1,1.631987572E0
9.226851000E0,-4.350564957E0,-3.456275463E-1,1.890889764E0
9.248844750E0,-4.346795082E0,-8.022929430E-1,2.493831158E0
9.270844750E0,-3.750223875E0,-1.179947257E0,3.245561838E0
9.292877563E0,-2.938017368E0,-1.636822104E0,3.974969864E0
9.314843188E0,-2.396965265E0,-1.953390002E0,4.561016560E0
9.334886938E0,-2.160386086E0,-1.975468397E0,4.765202522E0
9.356847875E0,-1.981472254E0,-1.623941541E0,4.789672375E0
9.376857250E0,-1.766796827E0,-1.023234129E0,4.692631721E0
9.398844750E0,-1.444678783E0,-3.143861592E-1,4.329166889E0
9.420843188E0,-1.333291888E0,2.363001257E-1,3.767118692E0
9.440843188E0,-1.445289731E0,5.868669748E-1,3.138328791E0
9.460843188E0,-1.634797573E0,7.289891243E-1,2.487600327E0
9.480843188E0,-1.754387498E0,5.291489363E-1,1.810953617E0
9.500852563E0,-1.757145166E0,3.289945796E-2,1.210874557E0
9.522844750E0,-1.629037976E0,-5.614026189E-1,8.836951256E-1
9.544844750E0,-1.358232617E0,-6.949900985E-1,6.485818028E-1
9.566844750E0,-8.244760633E-1,-7.988546491E-1,-1.302015595E-2
9.586844750E0,-1.043357849E-1,-9.321280122E-1,-7.577172518E-1
9.608844750E0,8.522093892E-1,-1.066291451E0,-1.486200213E0
9.628844750E0,1.230561852E0,-8.548098803E-1,-1.841915727E0
9.648844750E0,1.119471669E0,-3.591364026E-1,-2.169985294E0
9.668844750E0,9.439613223E-1,6.619161367E-1,-2.572021961E0
9.688844750E0,1.188132882E0,1.944925070E0,-3.144943714E0
9.710844750E0,1.898220062E0,2.760447741E0,-3.881682158E0
9.732844750E0,2.618430138E0,2.913931847E0,-4.455022812E0
9.754844750E0,2.731562376E0,2.137207985E0,-4.668406487E0
9.774844750E0,2.565442085E0,1.360990286E0,-4.449944019E0
9.796851000E0,2.259101868E0,7.092669010E-1,-3.999718666E0
9.818844750E0,2.036432743E0,3.465700150E-1,-3.912050724E0
9.838844750E0,2.045246601E0,2.576455176E-1,-4.075675488E0
9.858844750E0,2.188049555E0,3.919660449E-1,-4.242092609E0
9.880843188E0,2.394696474E0,7.203846574E-1,-4.189767361E0
9.900844750E0,2.547081232E0,9.880134463E-1,-3.850807190E0
9.920844750E0,2.561515093E0,1.187050819E0,-3.282301188E0
9.942844750E0,2.384521246E0,1.237717628E0,-2.590312958E0
9.964843188E0,1.896073341E0,1.162720919E0,-1.838215709E0
9.984844750E0,1.289012909E0,9.850114584E-1,-1.117604136E0
1.000484475E1,1.184310555E0,6.961070895E-1,-4.755847752E-1
1.002484475E1,1.953320146E0,4.967381656E-1,2.885727286E-1
1.004484475E1,3.301970959E0,4.199087620E-1,1.361618638E0
1.006684319E1,4.093163490E0,6.690894365E-1,2.769017220E0
1.008684475E1,3.613791466E0,1.148601174E0,4.106113911E0
1.010884475E1,2.297481537E0,1.393802524E0,4.789358139E0
1.012884475E1,7.190756202E-1,1.392510891E0,4.631004333E0
1.014884475E1,-1.158532143E0,1.265049577E0,4.189662933E0
1.016884475E1,-2.880247116E0,9.184620380E-1,3.689311981E0
1.018884475E1,-4.263385773E0,3.891037107E-1,3.144437551E0
1.020884475E1,-5.278049946E0,-9.761626273E-2,2.674629688E0
1.022884475E1,-5.635179520E0,-3.293436393E-2,2.366038084E0
1.024884475E1,-5.182545662E0,3.426779509E-1,2.250637054E0
1.027084475E1,-4.365609646E0,2.453758419E-1,2.292716742E0
1.029084475E1,-3.914598942E0,-5.846503973E-1,2.387627840E0
1.031284475E1,-3.362952709E0,-1.088020802E0,2.934038162E0
1.033288694E1,-2.515089273E0,-8.870810270E-1,3.800908327E0
1.035484319E1,-1.672130108E0,-7.114660144E-1,4.466663837E0
1.037485100E1,-1.236059666E0,-6.314077377E-1,4.525813103E0
1.039684319E1,-9.819048047E-1,-1.832770258E-1,4.054644108E0
1.041684475E1,-1.107777953E0,5.736024380E-1,3.390406847E0
1.043684475E1,-1.451852083E0,1.273811102E0,2.582947731E0
1.045685100E1,-1.795874000E0,1.687209725E0,1.754352570E0
1.047685569E1,-1.943354249E0,1.889022231E0,1.121827841E0
1.049686506E1,-1.836784482E0,1.591269016E0,6.212848425E-1
1.051885412E1,-1.277423978E0,6.625269651E-1,1.092750654E-1
1.054084475E1,-1.108807698E-1,3.792600334E-2,-2.837207317E-1
1.056084475E1,1.239777207E0,-4.163832068E-1,-7.135604024E-1
1.058084475E1,2.275420666E0,-8.909382224E-1,-1.049641013E0
1.060084475E1,2.635360003E0,-1.595946550E0,-1.200018525E0
1.062284319E1,2.416129112E0,-2.284164667E0,-1.343100667E0
1.064284319E1,1.865198493E0,-2.275228739E0,-1.487526655E0
1.066284475E1,1.304738283E0,-1.640941143E0,-1.913578987E0
1.068484475E1,1.053480744E0,-2.393544465E-1,-2.778634071E0
1.070684319E1,1.190733433E0,6.689323187E-1,-4.045184612E0
1.072684944E1,1.423368335E0,1.133573890E0,-5.329956055E0
1.074884475E1,1.329085708E0,1.087776423E0,-6.275593281E0
1.077084475E1,1.197156191E0,6.868917942E-1,-6.447734833E0
1.079084944E1,1.370484829E0,3.899938166E-1,-6.152791500E0
1.081284475E1,1.757005453E0,1.733984649E-1,-5.560985565E0
1.083484319E1,2.115269184E0,4.480260238E-2,-4.909070015E0
1.085484319E1,2.298808098E0,-5.689773243E-3,-4.402122021E0
1.087484631E1,2.276851892E0,2.617993951E-2,-4.035759926E0
1.089684631E1,2.152566910E0,2.250078470E-1,-3.748722792E0
1.091884319E1,2.078634739E0,5.383468270E-1,-3.516628981E0
1.093884475E1,1.987179518E0,7.934615612E-1,-3.255213499E0
1.095884475E1,1.758087635E0,9.710488319E-1,-2.863439560E0
1.097884475E1,1.410609961E0,1.494001865E0,-2.222729206E0
1.099884475E1,1.029290438E0,1.829401731E0,-1.428918481E0
1.101884475E1,8.900655508E-1,1.875844955E0,-7.257951498E-1
1.103884475E1,1.039500594E0,1.606505752E0,-2.544864714E-1
1.106084475E1,1.197784543E0,1.231050491E0,2.685538232E-1
1.108084475E1,9.536827803E-1,7.828325033E-1,9.595471025E-1
1.110084475E1,2.528982162E-1,2.740865052E-1,1.813624024E0
1.112284319E1,-9.225112200E-1,-1.420348883E-1,2.810660839E0
1.114284475E1,-2.135288239E0,-5.604775548E-1,3.361364603E0
1.116284475E1,-2.926306248E0,-9.275203347E-1,3.535792589E0
1.118284475E1,-3.209538221E0,-9.909107089E-1,3.435907602E0
1.120284475E1,-3.176708698E0,-9.061924219E-1,3.294047117E0
1.122484319E1,-3.146671534E0,-7.284829617E-1,3.334154844E0
1.124484319E1,-3.461616278E0,-5.626766682E-1,3.651019335E0
1.126484475E1,-3.898018360E0,-3.206518888E-1,4.070910454E0
1.128685256E1,-4.056023121E0,-2.830575109E-1,4.347580433E0
1.130685881E1,-4.081609726E0,-8.249298930E-1,4.393517494E0
1.132884475E1,-4.169992924E0,-1.416893244E0,4.636432171E0
1.135084475E1,-3.807104111E0,-1.330673933E0,5.437398911E0
1.137284475E1,-2.762053251E0,-1.368844271E0,5.897851467E0
1.139286506E1,-1.489551187E0,-2.054514408E0,5.508381367E0
1.141484475E1,-2.752209604E-1,-2.760255575E0,4.412977695E0
1.143684475E1,2.892185152E-1,-2.748736382E0,3.327749491E0
1.145684475E1,3.269350827E-1,-2.028840542E0,2.570992231E0
1.147684788E1,9.136798233E-2,-8.901353478E-1,1.954088092E0
1.149685100E1,-7.038912922E-2,1.707630157E-1,1.295208812E0
1.151884319E1,4.478514940E-2,7.687651515E-1,5.770931244E-1
1.153884475E1,1.260476708E-1,9.626188874E-1,1.698030829E-1
1.156084475E1,1.056273282E-1,8.695055842E-1,-2.658136375E-2
1.158084475E1,-9.953612834E-2,4.999844730E-1,1.980948634E-2
1.160084475E1,-2.581516504E-1,4.981169850E-2,8.684758097E-2
1.162084475E1,-2.631607354E-1,-6.377432942E-1,-2.326523885E-2
1.164084475E1,-3.405312002E-1,-1.007840395E0,-3.332880735E-1
1.166284319E1,-3.783350289E-1,-8.754047751E-1,-9.862331748E-1
1.168284319E1,-3.213849366E-1,-1.528210342E-1,-1.766395330E0
1.170284319E1,-2.511528693E-2,6.678327918E-1,-2.765997887E0
1.172284319E1,6.860889196E-1,1.063551307E0,-3.884038210E0
1.174284319E1,1.537652493E0,8.987049460E-1,-4.930747032E0
1.176284319E1,2.028020144E0,3.487516940E-1,-5.576902866E0
1.178284319E1,2.334063768E0,-1.797689125E-3,-5.831703663E0
1.180284475E1,2.762419939E0,3.621558100E-2,-5.718152523E0
1.182484319E1,3.252525806E0,1.654921174E-1,-5.412877083E0
1.184484475E1,3.484200716E0,1.337620318E-1,-5.087634563E0
1.186685100E1,3.536997080E0,-4.927064478E-2,-4.741500854E0
1.188884475E1,3.374088049E0,-1.719149351E-1,-4.472999573E0
1.191084319E1,2.930669546E0,-8.731882274E-2,-4.211811066E0
1.193084475E1,2.366422176E0,1.589820385E-1,-3.943955421E0
1.195284319E1,1.897713900E0,4.801749885E-1,-3.627562046E0
1.197284319E1,1.693719864E0,7.594276667E-1,-3.301621914E0
1.199285725E1,1.487544060E0,9.773494601E-1,-2.880997419E0
1.201484475E1,1.058228016E0,1.110046864E0,-2.267025709E0
1.203684475E1,6.276553273E-1,1.184921503E0,-1.472551703E0
1.205684944E1,9.339256585E-2,1.107638240E0,-5.376486778E-1
1.207884631E1,-5.769011378E-1,9.636137486E-1,5.309466124E-1
1.209884631E1,-1.053288698E0,8.530296683E-1,1.450473309E0
1.212084319E1,-1.344723821E0,7.513118982E-1,2.394836187E0
1.214084475E1,-1.627624273E0,6.520375609E-1,3.001058817E0
1.216284475E1,-2.168746233E0,4.418300986E-1,3.282370806E0
1.218484475E1,-2.536155462E0,1.319468915E-1,3.180565834E0
1.220484475E1,-2.436113119E0,-1.755277663E-1,2.798652887E0
1.222684319E1,-1.928274632E0,-4.254938066E-1,2.332667351E0
1.224684475E1,-1.591932297E0,-5.298644900E-1,2.146737576E0
1.226684475E1,-1.847169161E0,-4.959527552E-1,2.365671635E0
1.228684475E1,-2.333801985E0,-4.168893397E-1,2.741929770E0
1.230684788E1,-2.848255157E0,-4.523544312E-1,3.049544096E0
1.232888850E1,-3.137944937E0,-6.409372687E-1,3.105673790E0
1.235084475E1,-3.188158035E0,-8.697499037E-1,2.947110653E0
1.237284475E1,-3.169884443E0,-1.038418531E0,2.689779282E0
1.239484319E1,-3.042283297E0,-9.769131541E-1,2.352913380E0
1.241484475E1,-2.733464956E0,-7.377157807E-1,2.167297602E0
1.243684475E1,-2.126631260E0,-4.659505486E-1,1.879143596E0
1.245684944E1,-1.527355075E0,-2.295631617E-1,1.735625267E0
1.247884475E1,-9.348332286E-1,4.871213809E-2,1.755522013E0
1.250084944E1,-7.998843789E-1,3.836408257E-1,1.921607494E0
1.252284475E1,-8.650200963E-1,6.020687819E-1,2.078966379E0
1.254484475E1,-7.689222693E-1,6.328215003E-1,2.066871166E0
1.256684475E1,-7.030360699E-1,3.594156504E-1,1.857990265E0
1.258684475E1,-6.420019269E-1,-6.998770405E-3,1.504491210E0
1.260684475E1,-4.091051817E-1,-2.623404264E-1,1.040111542E0
1.262884475E1,3.693116829E-2,-7.615220547E-1,3.427477479E-1
1.264884475E1,2.621833682E-1,-1.121740580E0,-3.538655043E-1
1.267084319E1,2.160717547E-1,-1.244908452E0,-1.053306222E0
1.269084319E1,2.104867063E-2,-7.950673103E-1,-1.753375173E0
1.271084475E1,2.361430526E-1,2.269626111E-1,-2.435065985E0
1.273284475E1,9.359153509E-1,1.759449005E0,-3.036611080E0
1.275484475E1,1.981786489E0,2.673739672E0,-3.474549055E0
1.277484475E1,2.700600386E0,2.797012329E0,-3.694966793E0
1.279685100E1,2.997672796E0,2.221769333E0,-3.735126734E0
1.281884475E1,2.898101807E0,1.343135595E0,-3.512335539E0
1.284084475E1,2.595199823E0,5.362524390E-1,-3.177145004E0
1.286084475E1,2.451576710E0,2.364921197E-2,-2.947355032E0
1.288084475E1,2.515508175E0,-2.112546563E-1,-2.875255346E0
1.290084475E1,2.535858631E0,-2.668433785E-1,-2.987672091E0
1.292084475E1,2.432866812E0,-1.758070141E-1,-3.189187765E0
1.294284475E1,2.395656347E0,1.377239376E-1,-3.391139746E0
1.296484475E1,2.440999985E0,4.660727084E-1,-3.424615145E0
1.298484475E1,2.366701365E0,7.816107869E-1,-3.126321077E0
1.300684475E1,2.063345671E0,1.033269763E0,-2.486273766E0
1.302684475E1,1.795210719E0,1.156629682E0,-1.792243719E0
1.304684631E1,1.612335205E0,1.083814502E0,-1.114462495E0
1.306884319E1,1.476565957E0,8.212646842E-1,-4.671199322E-1
1.308884319E1,1.358162880E0,4.955164194E-1,9.047786891E-2
1.310884475E1,1.029534817E0,6.810274720E-2,4.558276534E-1
1.313084475E1,4.227536619E-1,-3.056944311E-1,7.973710895E-1
1.315084475E1,-1.666265875E-1,-5.739689469E-1,1.038627982E0
1.317284475E1,-8.751080632E-1,-6.391744614E-1,1.264386296E0
1.319284788E1,-1.384848952E0,-6.545333862E-1,1.396926641E0
1.321484319E1,-1.545471549E0,-6.502922177E-1,1.354009032E0
1.323484319E1,-1.464593053E0,-5.710368156E-1,1.214365125E0
1.325484319E1,-1.250057220E0,-3.336545825E-1,1.240964055E0
1.327484475E1,-1.346870542E0,-7.157595456E-2,1.596871495E0
1.329686194E1,-1.860835195E0,-7.365289330E-2,2.156022787E0
1.331884475E1,-2.317552805E0,-2.628640234E-1,2.550362349E0
1.333884475E1,-2.446864367E0,-5.286602378E-1,2.688208580E0
1.335884475E1,-2.410509109E0,-7.559719086E-1,2.745368004E0
1.337884475E1,-2.344815016E0,-9.122138023E-1,2.770500660E0
1.339884475E1,-2.270062447E0,-9.450957775E-1,2.751668692E0
1.342084475E1,-2.127940416E0,-8.203047514E-1,2.686497927E0
1.344284475E1,-1.991211176E0,-5.896420479E-1,2.496134996E0
1.346284475E1,-1.988261580E0,-3.636218905E-1,2.173161745E0
1.348484475E1,-2.185344219E0,-1.993340552E-1,1.729394436E0
1.350684631E1,-2.463095903E0,9.412560612E-2,1.286272764E0
1.352884475E1,-2.607713938E0,4.116010070E-1,9.289515018E-1
1.354884475E1,-2.493883610E0,5.722061992E-1,7.361973524E-1
1.357084475E1,-2.191784382E0,5.839347839E-1,6.778684258E-1
1.359085569E1,-1.770043135E0,4.015129805E-1,7.282211781E-1
1.361284319E1,-1.236443639E0,-8.649851382E-2,7.929379940E-1
1.363284319E1,-7.651348710E-1,-5.742831230E-1,9.016196132E-1
1.365284319E1,-2.074323744E-1,-1.005117655E0,1.033601403E0
1.367284319E1,5.155353546E-1,-1.381096482E0,9.894446135E-1
1.369287288E1,1.053480744E0,-1.432129860E0,7.334746122E-1
1.371484475E1,1.086537242E0,-1.095560670E0,2.543991804E-1
1.373684475E1,8.965930939E-1,-2.491981089E-1,-4.244291782E-1
1.375684788E1,8.560141921E-1,7.916988134E-1,-1.149700761E0
1.377685100E1,9.368054867E-1,1.606767535E0,-1.818528414E0
1.379884475E1,1.255170941E0,2.145114422E0,-2.337886095E0
1.381884475E1,1.576311588E0,2.140716076E0,-2.589056253E0
1.383884475E1,1.926773667E0,1.669267774E0,-2.800991535E0
1.386084475E1,2.305911541E0,9.380970001E-1,-2.995438814E0
1.388284475E1,2.474353313E0,2.346420586E-1,-3.126076698E0
1.390484475E1,2.442710400E0,-2.133315951E-1,-3.144926310E0
1.392684788E1,2.526119709E0,-3.666064143E-1,-3.128520012E0
1.394884475E1,2.717355490E0,-3.112445772E-1,-3.057223320E0
1.396884475E1,2.890945911E0,-1.019795910E-1,-2.949152708E0
1.398884475E1,2.962713957E0,1.651954204E-1,-2.799001932E0
1.400884475E1,2.897455931E0,4.183205068E-1,-2.573103905E0
1.402884475E1,2.721736193E0,6.399075389E-1,-2.249415159E0
1.404884475E1,2.525439024E0,8.085587025E-1,-1.850747108E0
1.407084319E1,2.291233301E0,8.813214302E-1,-1.375494003E0
1.409084475E1,2.112459183E0,8.845328689E-1,-9.405055642E-1
1.411284319E1,1.973740458E0,7.748563886E-1,-5.085191131E-1
1.413284319E1,1.814042807E0,6.309365034E-1,-8.145451546E-2
1.415284319E1,1.503252029E0,4.419348240E-1,3.515791297E-1
1.417284319E1,1.042991281E0,2.980847955E-1,8.873777390E-1
1.419284475E1,4.597720802E-1,3.564136922E-1,1.526412606E0
1.421484319E1,-3.440916538E-1,3.717027605E-1,2.194751501E0
1.423484319E1,-1.305872798E0,3.362202346E-1,2.599650383E0
1.425484319E1,-2.194891214E0,8.468337357E-2,2.632986307E0
1.427484319E1,-2.623666286E0,-2.332632542E-1,2.294095755E0
1.429484319E1,-2.582616091E0,-2.667910159E-1,1.753759146E0
1.431484319E1,-2.373874664E0,1.063254550E-1,1.369123578E0
1.433484319E1,-2.591691732E0,4.188964665E-1,1.453981400E0
1.435484319E1,-3.149394274E0,4.114090204E-1,1.660610914E0
1.437484944E1,-3.632134914E0,8.042477071E-2,1.708956599E0
1.439684319E1,-3.756018400E0,-3.046297729E-1,1.528472066E0
1.441684319E1,-3.639744520E0,-6.358932853E-1,1.289780855E0
1.443684319E1,-3.382168770E0,-8.254883885E-1,9.635090232E-1
1.445685725E1,-3.087661982E0,-8.634842038E-1,6.024352908E-1
1.447884475E1,-2.674525023E0,-7.776489258E-1,3.834139407E-1
1.450084319E1,-2.141449213E0,-5.817880630E-1,3.593283892E-1
1.452084319E1,-1.672828317E0,-4.302585721E-1,5.172806978E-1
1.454084319E1,-1.374603868E0,-3.044203222E-1,8.186641335E-1
1.456084475E1,-1.085647106E0,-2.947337627E-1,1.107830286E0
1.458284319E1,-8.813563585E-1,-4.015129805E-1,1.378251553E0
1.460284319E1,-8.922472000E-1,-4.279896319E-1,1.597377658E0
1.462284319E1,-1.037737846E0,-4.605051279E-1,1.701696038E0
1.464284475E1,-1.239881873E0,-4.540823102E-1,1.624046326E0
1.466284475E1,-1.395565271E0,-3.746349216E-1,1.386681557E0
1.468484475E1,-1.266934514E0,-1.981297731E-1,9.154949784E-1
1.470484475E1,-8.471130133E-1,-8.070402592E-2,3.827332556E-1
1.472484475E1,-3.556282818E-1,8.681267500E-2,-1.330289990E-1
1.474684788E1,5.764822662E-2,4.486194253E-1,-6.391221285E-1
1.476685725E1,4.941027164E-1,9.359502792E-1,-1.184624791E0
1.478884475E1,1.034125090E0,1.627362490E0,-1.767809033E0
1.480884475E1,1.599681497E0,2.007425308E0,-2.184558868E0
1.482884475E1,1.975433469E0,2.270411491E0,-2.348340511E0
1.485084475E1,2.213601112E0,2.048283577E0,-2.384852886E0
1.487284475E1,2.428276539E0,1.459915519E0,-2.318233490E0
1.489287912E1,2.614450932E0,8.740260005E-1,-2.223811150E0
1.491484475E1,2.807658911E0,4.053178132E-1,-2.128394127E0
1.493685256E1,2.949606419E0,7.909832150E-2,-2.098461628E0
1.495884475E1,2.964930534E0,2.220058814E-2,-2.127067566E0
1.498084475E1,2.952835321E0,1.567131132E-1,-2.220547438E0
1.500084475E1,2.920808554E0,3.614053130E-1,-2.330956936E0
1.502084475E1,2.797710419E0,5.249775648E-1,-2.373141527E0
1.504284319E1,2.497792959E0,7.035422325E-1,-2.189463139E0
1.506284475E1,1.983095407E0,7.387105823E-1,-1.815613627E0
1.508484319E1,1.552191138E0,7.426899672E-1,-1.381515384E0
1.510485413E1,1.526534796E0,7.586422563E-1,-1.053061843E0
1.512685100E1,1.666963935E0,6.268699169E-1,-6.522295475E-1
1.514884475E1,1.659389257E0,5.376486778E-1,-1.983741224E-1
1.517084319E1,1.409737349E0,3.237934709E-1,2.758492827E-1
1.519084475E1,9.270839691E-1,1.647939831E-1,8.100945950E-1
1.521084631E1,3.828554153E-1,2.949606441E-2,1.422303677E0
1.523284475E1,-3.923500180E-1,-7.778932154E-2,1.946722746E0
1.525284475E1,-1.269535065E0,-1.221032366E-1,2.291442871E0
1.527284475E1,-1.889074564E0,-2.500009537E-1,2.465521812E0
1.529286975E1,-2.050796747E0,-2.651154995E-1,2.441052437E0
1.531484319E1,-1.801424146E0,-1.178446338E-1,2.308355093E0
1.533484475E1,-1.620904684E0,-4.974188283E-2,2.260986805E0
1.535684475E1,-1.858827949E0,-2.289872058E-2,2.441925049E0
1.537684788E1,-2.201837540E0,-8.131489158E-2,2.730672359E0
1.539884475E1,-2.453845739E0,-1.746725440E-1,2.964825630E0
1.542084475E1,-2.468488932E0,-3.510904312E-1,3.020222425E0
1.544084475E1,-2.228244305E0,-4.587772489E-1,2.897106886E0
1.546084475E1,-1.989849925E0,-4.243942499E-1,2.744320869E0
1.548084475E1,-1.901693344E0,-2.471909821E-1,2.579928160E0
1.550084475E1,-1.918535709E0,-4.658283666E-2,2.404365540E0
1.552284475E1,-1.941469312E0,8.637634665E-2,2.453077793E0
1.554484475E1,-1.791475773E0,4.669453800E-1,2.402777433E0
1.556684319E1,-1.469567180E0,4.028219879E-1,2.436357498E0
1.558684475E1,-1.427609563E0,9.522516280E-2,2.448086023E0
1.560684944E1,-1.407660365E0,-3.004758954E-1,2.378517151E0
1.562884319E1,-1.263077378E0,-6.269222498E-1,2.205328226E0
1.564884475E1,-1.111652613E0,-9.009738564E-1,1.877153993E0
1.567084319E1,-8.594874144E-1,-9.850638509E-1,1.290740848E0
1.569085100E1,-5.030911565E-1,-9.058084488E-1,7.176444530E-1
1.571284319E1,6.440265104E-3,-8.780577183E-1,1.157153323E-1
1.573284475E1,3.494498134E-1,-9.141336679E-1,-3.696956336E-1
1.575284475E1,4.167322516E-1,-9.040107131E-1,-8.785463572E-1
1.577284475E1,2.285857648E-1,-5.552939773E-1,-1.438482881E0
1.579284475E1,1.433787942E-1,6.524040550E-2,-2.165691853E0
1.581284631E1,2.517462969E-1,9.860063195E-1,-2.835514307E0
1.583484319E1,5.140867233E-1,1.929391623E0,-3.254236221E0
1.585484319E1,7.067885399E-1,2.551810980E0,-3.294727802E0
1.587485100E1,7.525510788E-1,2.365165472E0,-3.409395933E0
1.589684475E1,8.874999285E-1,1.464209080E0,-3.596024036E0
1.591684475E1,1.268627524E0,6.144955158E-1,-3.499297857E0
1.593686194E1,1.838843942E0,-1.375319436E-2,-2.977950573E0
1.595884475E1,2.478105783E0,-3.955963254E-1,-2.173807621E0
1.597884475E1,2.878431797E0,-5.272639394E-1,-1.641988277E0
1.600084475E1,3.058515072E0,-4.577125907E-1,-1.413454890E0
1.602284475E1,3.064414263E0,-1.423316002E-1,-1.406246662E0
1.604484475E1,2.959991217E0,1.154709831E-1,-1.511908889E0
1.606684788E1,2.600505590E0,3.290469348E-1,-1.662199259E0
1.608884319E1,1.927908182E0,3.869569600E-1,-1.804391146E0
1.610884475E1,1.243913651E0,1.091528907E-1,-1.986638427E0
1.612884475E1,3.980048895E-1,-3.144036233E-1,-2.111412048E0
1.614884475E1,-2.085493952E-1,-8.354018331E-1,-2.049051523E0
1.617084319E1,-1.447401494E-1,-1.476653218E0,-1.722779632E0
1.619084319E1,2.010619342E-1,-1.833119273E0,-1.278052211E0
1.621084475E1,6.719168425E-1,-2.056835651E0,-7.408398986E-1
1.623284475E1,8.777958751E-1,-2.286259174E0,-8.264134079E-2
1.625484319E1,4.842067063E-1,-2.442047119E0,5.105262399E-1
1.627484475E1,-7.243116200E-2,-2.669830084E0,7.046766877E-1
1.629686038E1,-4.468915462E-1,-2.698767662E0,4.229107201E-1
1.631884475E1,-6.455449462E-1,-2.472363710E0,2.145358771E-1
1.633884475E1,-9.511695504E-1,-2.134206057E0,2.431767285E-1
1.635884475E1,-1.162947774E0,-2.099840641E0,1.023461074E-1
1.637884475E1,-9.244834185E-1,-2.060239077E0,-3.239156604E-1
1.639884475E1,-7.867246270E-1,-2.008210659E0,-5.504768491E-1
1.641884475E1,-8.626987934E-1,-1.909268022E0,-4.812047184E-1
1.643884475E1,-9.557946324E-1,-1.662862420E0,-4.663170576E-1
1.645884475E1,-1.056255817E0,-1.448920012E0,-5.972167850E-1
1.647884475E1,-1.292171955E0,-1.103257537E0,-8.448964357E-1
1.649884475E1,-1.355789185E0,-8.700990081E-1,-1.108860016E0
1.651884475E1,-1.256183267E0,-1.082208872E0,-1.431885600E0
1.653884475E1,-1.090411901E0,-6.024527550E-1,-1.404850364E0
1.655884475E1,-6.334148645E-1,-3.968355060E-1,-6.574306488E-1
1.657884475E1,1.340482712E0,2.988125801E0,-7.718893290E-1
1.660084475E1,3.220324516E0,2.729014158E0,-5.732010603E-1
1.662284319E1,1.738173366E0,1.099156022E0,2.021789402E-1
1.664284475E1,1.474454105E-1,-1.849525422E-1,-2.633003592E-1
1.666284475E1,-1.790934682E0,-1.317077756E0,-6.743428707E-1
1.668484319E1,-2.588829517E0,-1.475414038E0,1.638515145E-1
1.670484319E1,-2.665571451E0,-1.128076077E0,1.277092338E0
1.672484319E1,-1.840606809E0,-3.458195329E-1,1.957666039E0
1.674484319E1,-9.468411207E-1,-3.680201173E-1,1.887137294E0
1.676484475E1,-6.945537925E-1,-1.345648803E-2,1.406037211E0
1.678684475E1,-9.845227599E-1,4.323354959E-1,1.078962564E0
1.680684944E1,-1.279535770E0,1.088945866E0,1.408393383E0
1.682884475E1,-1.545122504E0,3.033242702E0,2.014860392E0
1.685084475E1,-1.688536286E0,5.715795994E0,1.588808060E0
1.687284475E1,-1.394168973E0,6.108722210E0,6.352474689E-1
1.689286194E1,-1.777635336E0,1.222323895E0,-6.887592673E-1
1.691484475E1,-1.736846924E0,-1.595702171E0,-1.837587357E0
1.693685100E1,-1.506899834E0,-8.544957638E-1,-2.225277424E0
1.695685100E1,-1.684713960E0,8.631700277E-1,-1.097148895E0
1.697884475E1,-2.148482800E0,1.489935160E0,-1.646369100E-1
1.700084475E1,-2.388134003E0,1.790655494E0,6.606071442E-2
1.702084475E1,-2.073363781E0,1.475553751E0,1.569050997E-1
1.704284319E1,-1.458624005E0,2.408205271E-1,2.292838991E-1
1.706284319E1,-6.930179000E-1,-5.537754893E-1,-2.722539008E-1
1.708284319E1,4.832816496E-2,-7.653617859E-1,-7.024775743E-1
1.710284475E1,7.744200230E-1,-6.236759424E-1,-7.416602373E-1
1.712484475E1,1.534266591E0,2.492330223E-1,-6.868568659E-1
1.714684944E1,2.072543621E0,-2.761285305E-1,-5.378581285E-1
1.716884319E1,1.775663018E0,-2.617295742E0,-7.632673979E-1
1.718884475E1,2.297342062E0,3.070906699E-1,-2.362826765E-1
1.720884475E1,2.127294540E0,3.499210477E-1,5.062502027E-1
1.722884475E1,1.695761919E0,1.609368026E-1,6.300812960E-1
1.724884475E1,1.595632315E0,-2.939308882E-1,6.632425785E-1
1.726884475E1,1.907976508E0,-1.108598232E0,7.183775306E-1
1.728884475E1,2.446567535E0,-2.029398918E0,7.077659369E-1
1.731084319E1,3.179361582E0,-3.122271776E0,8.600633740E-1
1.733084475E1,3.905540705E0,-3.948563099E0,8.185070753E-1
1.735084475E1,4.638544083E0,-4.450642109E0,3.702541590E-1
1.737284475E1,5.064893246E0,-3.936136246E0,3.644945621E-1
1.739285100E1,4.622382164E0,-2.841413498E0,1.061928153E0
1.741484475E1,3.367595434E0,-1.671205163E0,1.747877479E0
1.743684475E1,2.317099094E0,-5.002113581E-1,1.514771223E0
1.745684475E1,1.433089852E0,1.760688126E-1,6.478836536E-1
1.747684475E1,1.017369866E0,8.147895336E-1,2.765474319E-1
1.749884475E1,8.671144843E-1,8.205316663E-1,6.080029011E-1
1.751884475E1,6.175673008E-1,1.574985087E-1,1.243093252E0
1.753884475E1,3.303035498E-1,-7.339283824E-1,1.948066711E0
1.756084475E1,2.921506763E-1,-1.438849449E0,2.272855043E0
1.758084475E1,4.151614606E-1,-1.833468318E0,2.345652580E0
1.760084475E1,5.130220652E-1,-1.995539665E0,2.380210161E0
1.762084475E1,3.089756370E-1,-1.848006964E0,2.357032299E0
1.764084475E1,-7.391469181E-2,-1.608495474E0,2.846055984E0
1.766084475E1,-1.048436761E0,-8.600459099E-1,3.174055815E0
1.768084475E1,-2.641712904E0,7.393214852E-2,3.651089191E0
1.770085256E1,-3.846391439E0,1.018975616E0,3.957115173E0
1.772284319E1,-4.141037941E0,1.758733392E0,3.749752522E0
1.774284475E1,-3.999264956E0,2.039277554E0,3.393443584E0
1.776484475E1,-3.752178669E0,2.020724773E0,3.449119568E0
1.778684475E1,-3.489995241E0,2.100852728E0,3.641105890E0
1.780684475E1,-3.274045706E0,2.309000731E0,2.876058340E0
1.782884475E1,-3.133354664E0,2.361413002E0,1.884030581E0
1.785084475E1,-3.233676195E0,2.697546005E0,1.680158615E0
1.787284319E1,-3.173497200E0,2.290954113E0,1.622021675E0
1.789284475E1,-2.939658165E0,1.736532807E0,1.263618350E0
1.791484475E1,-2.334517479E0,1.355893970E0,7.327590585E-1
1.793684631E1,-1.646002531E0,3.494847417E-1,1.656841040E-1
1.795884475E1,-1.075733662E0,-6.998072267E-1,-2.606823742E-1
1.797884475E1,-7.668802142E-1,-8.597491980E-1,-4.500156939E-1
1.800084475E1,-6.872059107E-1,-5.463404059E-1,-4.103094637E-1
1.802284475E1,-4.386535883E-1,-1.486496925E-1,1.581791937E-1
1.804484475E1,-9.056513757E-2,-1.003389806E-1,7.155675292E-1
1.806684631E1,2.536312342E-1,-1.776570678E-1,8.298342228E-1
1.808684788E1,6.513394117E-1,-9.079203010E-2,6.520200968E-1
1.810884475E1,1.065488577E0,2.443286479E-1,-4.875402749E-1
1.813084475E1,1.668517351E0,3.328692019E-1,-2.093714476E0
1.815084475E1,2.562440157E0,8.358032703E-1,-2.312892914E0
1.817284475E1,3.535077095E0,1.324547768E0,-1.526238084E0
1.819484788E1,3.898926020E0,2.421295196E-1,-1.429756284E0
1.821685412E1,4.097805977E0,-1.476967454E0,-2.201959848E0
1.823884319E1,4.293702126E0,-2.798111916E0,-3.228370428E0
1.825884475E1,4.250976086E0,-3.054238796E0,-3.787957907E0
1.828084944E1,4.164547443E0,-2.317064285E0,-3.731810570E0
1.830284475E1,4.218094349E0,-2.359213829E0,-3.361713648E0
1.832484319E1,4.118278980E0,-2.626999855E0,-3.163775682E0
1.834484475E1,3.939260483E0,-2.959973574E0,-2.999068975E0
1.836484475E1,3.781622410E0,-3.270869255E0,-3.483747005E0
1.838685569E1,3.706119299E0,-2.676881313E0,-4.210938454E0
1.840884475E1,3.470534801E0,-1.879580021E0,-4.313057423E0
1.842884475E1,2.838673353E0,-1.570796371E0,-3.958651066E0
1.844884475E1,1.815159917E0,-1.456267834E0,-3.561414242E0
1.846884475E1,6.782174706E-1,-1.363311529E0,-3.314118385E0
1.849084475E1,-2.964965403E-1,-1.089382172E0,-3.150633335E0
1.851084475E1,-7.229153514E-1,-1.060095549E0,-2.827171564E0
1.853284475E1,-6.774669886E-1,-8.781798482E-1,-2.295736313E0
1.855484319E1,-4.613254368E-1,-9.640325904E-1,-1.595108747E0
1.857484944E1,-1.687907875E-1,-7.132113576E-1,-9.220923185E-1
1.859486506E1,9.014625847E-2,-5.158669949E-1,-3.867126107E-1
1.861684788E1,3.541622162E-1,-2.476447672E-1,3.696607351E-1
1.863685100E1,5.699721575E-1,1.713913307E-2,1.140398145E0
1.865685413E1,6.033952236E-1,3.627492189E-1,2.424838305E0
1.867884475E1,3.167248964E-1,7.924318314E-1,3.807732344E0
1.869884475E1,3.668681905E-2,1.104007959E0,4.762270451E0
1.871884475E1,7.909832150E-2,1.280286312E0,5.561805725E0
1.874084319E1,1.724385321E-1,1.197993994E0,5.572382450E0
1.876084475E1,4.188790172E-2,9.236631393E-1,5.033581734E0
1.878084475E1,-3.951599896E-1,5.064945295E-2,4.976928711E0
1.880284475E1,-8.292757273E-1,-2.861816287E-1,5.325872421E0
1.882284475E1,-1.079067230E0,-1.991420612E-2,5.701135635E0
1.884284475E1,-9.634740949E-1,4.523893446E-2,5.841599464E0
1.886484319E1,-5.946860313E-1,9.407324344E-2,5.341161251E0
1.888484319E1,-2.172934860E-1,3.221354187E-1,4.540927887E0
1.890484475E1,1.548106968E-1,8.319112062E-1,3.881996155E0
1.892684475E1,4.952371716E-1,1.652791858E0,3.496278524E0
1.894684475E1,4.713261724E-1,2.683024883E0,3.236992359E0
1.896684631E1,8.689994365E-2,3.116791487E0,2.991319895E0
1.898884475E1,-3.807959259E-1,2.978613853E0,2.440999985E0
1.900884631E1,-8.707273006E-1,2.176111460E0,1.826312542E0
1.903084319E1,-1.485449672E0,1.032379746E0,1.365336180E0
1.905084319E1,-1.959079742E0,5.022010207E-1,1.255659699E0
1.907084475E1,-2.349440098E0,1.364672929E-1,1.397450209E0
1.909284475E1,-2.574988842E0,-1.526813954E-1,1.613626719E0
1.911484319E1,-2.567902803E0,-6.097482443E-1,1.478381157E0
1.913484475E1,-2.333121300E0,-1.084966421E0,9.696176648E-1
1.915684319E1,-1.774807811E0,-1.247823119E0,8.262388408E-2
1.917685100E1,-1.101372600E0,-4.380252659E-1,-9.881530404E-1
1.919685100E1,-3.641454875E-1,6.966656446E-1,-1.987092257E0
1.921884475E1,6.945014000E-1,1.040338397E0,-2.505437613E0
1.924084475E1,1.712394834E0,5.803394318E-1,-2.783014774E0
1.926084475E1,2.137784004E0,-3.449992239E-1,-3.253503084E0
1.928084475E1,1.959900022E0,-1.324704885E0,-3.985162735E0
1.930284475E1,1.343641758E0,-2.131099463E0,-4.824299335E0
1.932284475E1,1.005135059E0,-2.209848642E0,-5.235603809E0
1.934284475E1,8.639205098E-1,-1.907924175E0,-5.496722698E0
1.936284475E1,7.505439520E-1,-1.332332015E0,-5.696440697E0
1.938284475E1,5.704608560E-1,-7.687302828E-1,-5.773130417E0
1.940484475E1,2.604031265E-1,-3.134436905E-1,-5.801509380E0
1.942684475E1,-7.330382941E-4,6.389650702E-2,-5.857290268E0
1.944884319E1,-2.164208293E-1,3.712838888E-1,-5.957419395E0
1.946884475E1,-3.766769469E-1,4.184601307E-1,-5.921448231E0
1.949084475E1,-3.913726211E-1,3.550872207E-1,-5.537755013E0
1.951084788E1,-3.281916976E-1,2.272767723E-1,-4.926244259E0
1.953284475E1,-1.719149351E-1,1.264665574E-1,-4.210153103E0
1.955284631E1,7.932521403E-2,1.414763927E-1,-3.716050386E0
1.957484319E1,9.002408385E-2,-1.134987622E-1,-3.243694305E0
1.959484475E1,-1.288227588E-1,-5.805314183E-1,-2.815495253E0
1.961484475E1,-5.620833039E-1,-5.507910252E-1,-2.364188194E0
1.963484475E1,-7.652745247E-1,-1.999798268E-1,-1.818563223E0
1.965685100E1,-5.737420917E-1,-4.466821253E-1,-8.818625212E-1
1.967884944E1,-3.187145591E-1,-2.729520500E-1,3.676012456E-1
1.970084319E1,-2.091253549E-1,-1.242674440E-1,1.512641907E0
1.972084475E1,-5.098106712E-2,-6.806784123E-2,2.755770206E0
1.974084631E1,6.536258012E-2,1.149299294E-1,3.277868032E0
1.976085100E1,-1.033583954E-1,2.263168395E-1,3.373930931E0
1.978284475E1,-3.961897492E-1,3.745650947E-1,3.217304945E0
1.980284944E1,-5.016949177E-1,3.920009434E-1,3.191474199E0
1.982484319E1,-3.045075834E-1,5.249950290E-2,3.466223955E0
1.984484475E1,-3.906745017E-1,-2.396511585E-1,3.993627548E0
1.986484475E1,-2.923077345E-1,-4.323005974E-1,4.752217293E0
1.988485256E1,3.642502055E-2,-5.856451988E-1,5.142542839E0
1.990685881E1,4.616395831E-1,-6.883054972E-1,5.011119366E0
1.992686819E1,8.645662665E-1,-6.652497053E-1,4.622504711E0
1.994884319E1,1.283951402E0,-5.888217092E-1,3.967150927E0
1.996884944E1,1.318072677E0,-6.140940785E-1,3.077574015E0
1.999084475E1,8.773595691E-1,-5.270021558E-1,2.436566830E0
2.001084788E1,2.750639021E-1,-5.216789246E-2,2.366177797E0
2.003284475E1,-2.650980651E-1,5.852263570E-1,2.549838781E0
2.005486819E1,-6.342177391E-1,9.835453629E-1,2.534759045E0
2.007685256E1,-8.013504744E-1,5.946685672E-1,2.209429741E0
2.009884319E1,-8.456469178E-1,2.106612474E-1,1.975817442E0
2.011884475E1,-9.656732082E-1,9.485864639E-2,2.150228262E0
2.014084475E1,-1.044073462E0,3.403392062E-2,2.416635275E0
2.016284475E1,-9.589013457E-1,-1.382475346E-1,2.452763557E0
2.018484319E1,-9.192474484E-1,-3.511427939E-1,2.096768856E0
2.020484475E1,-9.627236128E-1,-3.862064481E-1,1.544651270E0
2.022684475E1,-9.611179233E-1,7.129669935E-2,6.729640365E-1
2.024684475E1,-6.613401771E-1,3.930656016E-1,-3.551745117E-1
2.026684475E1,6.756169349E-2,3.524168730E-1,-1.249830246E0
2.028684944E1,9.233838916E-1,-3.934495747E-1,-1.945152044E0
2.030884319E1,1.631202221E0,-1.281961799E0,-2.641171932E0
2.032884475E1,1.947002053E0,-1.733984590E0,-3.325934410E0
2.035084475E1,1.976899505E0,-1.646979928E0,-4.068013191E0
2.037284475E1,1.657783508E0,-1.160452008E0,-4.638107777E0
2.039284631E1,1.040425658E0,-6.444453597E-1,-4.877165318E0
2.041484475E1,2.486047000E-1,-1.051560864E-1,-4.959614754E0
2.043484475E1,-2.770012021E-1,4.259127080E-1,-4.947659492E0
2.045686194E1,-6.315473914E-1,8.029038310E-1,-4.861282825E0
2.047884475E1,-8.467465043E-1,8.758411407E-1,-4.783196926E0
2.049884475E1,-8.763821721E-1,8.628384471E-1,-4.622347355E0
2.051884475E1,-7.920653224E-1,8.218581080E-1,-4.324332237E0
2.053884475E1,-6.389650106E-1,8.040731549E-1,-4.039232731E0
2.056084475E1,-4.986056685E-1,8.683187366E-1,-3.777904749E0
2.058084475E1,-4.606272876E-1,9.177464843E-1,-3.531935453E0
2.060284475E1,-5.457121134E-1,7.417823672E-1,-3.007498980E0
2.062484475E1,-6.127153039E-1,3.109304011E-1,-2.274041891E0
2.064684788E1,-5.650852323E-1,-1.561720669E-1,-1.478241563E0
2.066884319E1,-4.097858667E-1,-4.530176520E-1,-9.782919288E-1
2.068884475E1,-1.514247656E-1,-4.711865485E-1,-6.442883015E-1
2.071084475E1,2.577676773E-1,-3.688927889E-1,-2.323731333E-1
2.073084475E1,5.261818767E-1,-2.858500183E-1,4.195422530E-1
2.075284319E1,4.790928662E-1,-3.146130443E-1,1.304982662E0
2.077284319E1,1.584584415E-1,-4.288623035E-1,2.217789888E0
2.079284944E1,-1.720371097E-1,-4.037470222E-1,3.095009804E0
2.081484319E1,-3.713187873E-1,-3.040363453E-2,3.691877604E0
2.083484475E1,-4.497713447E-1,3.702366948E-1,3.851941586E0
2.085684944E1,-3.046123087E-1,3.751934171E-1,3.942419529E0
2.087884475E1,8.011060953E-2,5.693263933E-2,4.273141861E0
2.089884475E1,5.946336687E-2,-7.956956327E-2,4.434811592E0
2.092084475E1,-4.460538030E-1,-9.990264475E-2,4.286493778E0
2.094284319E1,-8.858418465E-1,1.260476708E-1,3.955369949E0
2.096284475E1,-9.935810566E-1,4.037470222E-1,3.730501652E0
2.098484475E1,-7.612253428E-1,6.354394555E-1,3.533750772E0
2.100684475E1,-3.589967787E-1,5.082049966E-1,3.279159546E0
2.102884319E1,-1.589820385E-1,2.000147253E-1,2.807850838E0
2.104884475E1,-2.371902466E-1,1.084373072E-1,2.458435774E0
2.106884475E1,-3.811275363E-1,3.533244431E-1,2.478245258E0
2.108884475E1,-4.772079289E-1,6.174451113E-1,2.682187080E0
2.110884475E1,-6.060481071E-1,5.463578701E-1,2.490881443E0
2.112884475E1,-7.225139737E-1,-9.321803600E-2,1.991560340E0
2.114884475E1,-7.654315829E-1,-4.593706429E-1,1.800237298E0
2.116884475E1,-8.621228337E-1,-5.731137395E-1,1.750582695E0
2.118884475E1,-9.607164860E-1,-5.113989115E-1,1.741297483E0
2.120884475E1,-9.065763950E-1,-4.459141791E-1,1.669582009E0
2.122884475E1,-8.491201401E-1,-5.299692154E-1,1.405688167E0
2.124884475E1,-8.810421824E-1,-6.026796699E-1,1.009638071E0
2.127084319E1,-8.589637876E-1,-4.540474117E-1,4.302062094E-1
2.129084475E1,-5.530948639E-1,1.414763927E-1,-3.099704683E-1
2.131088694E1,7.656759769E-2,4.956560433E-1,-9.210451245E-1
2.133284319E1,9.752900004E-1,1.713738739E-1,-1.360588908E0
2.135284319E1,1.401063085E0,-4.636467099E-1,-1.898708820E0
2.137284319E1,1.353764653E0,-1.246374488E0,-2.458348513E0
2.139284788E1,9.039933085E-1,-1.393872261E0,-3.102916241E0
2.141484475E1,2.939134538E-1,-8.418944478E-1,-3.808884382E0
2.143684475E1,5.721189082E-2,-4.787437990E-2,-4.149066448E0
2.145884319E1,1.288053021E-2,7.874227166E-1,-4.241394520E0
2.147884475E1,5.693263933E-2,1.313255548E0,-4.218216419E0
2.149884475E1,2.090206295E-1,1.488573909E0,-4.175036907E0
2.151884475E1,4.301363826E-1,1.402057886E0,-4.097195148E0
2.153884475E1,6.524738669E-1,1.106154799E0,-3.994622231E0
2.155884475E1,8.556302190E-1,6.636614203E-1,-3.847508430E0
2.157884475E1,1.036236882E0,1.380031854E-1,-3.719697952E0
2.159884475E1,1.126505256E0,-3.508460820E-1,-3.593528271E0
2.161884475E1,1.109436035E0,-6.901206374E-1,-3.364750385E0
2.163884475E1,1.102873564E0,-8.640077710E-1,-2.967740297E0
2.166084319E1,1.061753631E0,-8.810247779E-1,-2.357067108E0
2.168084475E1,1.089451909E0,-8.027991056E-1,-1.699741244E0
2.170284319E1,1.081004620E0,-6.937509179E-1,-1.090272307E0
2.172284319E1,9.823585749E-1,-5.826432705E-1,-6.673091650E-1
2.174284475E1,8.740608692E-1,-4.793721437E-1,-3.224495649E-1
2.176284475E1,6.669950485E-1,-3.328342736E-1,6.269222498E-2
2.178484319E1,4.053876102E-1,-2.158797681E-1,6.653020382E-1
2.180484475E1,1.644972861E-1,-9.562659264E-2,1.222097039E0
2.182484475E1,-2.200511098E-1,1.240929123E-2,1.759571075E0
2.184484475E1,-4.387059510E-1,1.703266799E-1,2.352738619E0
2.186684475E1,-3.837106228E-1,1.019272283E-1,2.915607452E0
2.188884475E1,-3.708301187E-1,5.070181563E-2,3.143355370E0
2.190884475E1,-1.890366077E-1,1.818982214E-1,3.228998661E0
2.193084475E1,1.721418202E-1,4.181459844E-1,3.209276438E0
2.195284475E1,3.639883995E-1,5.879141688E-1,3.313542366E0
2.197484475E1,4.144633412E-1,8.204443455E-1,3.069562912E0
2.199484475E1,5.245237947E-1,1.044073462E0,2.647280455E0
2.201484475E1,7.500727177E-1,1.159980774E0,2.293589592E0
2.203484475E1,1.042938948E0,1.227123499E0,2.106437922E0
2.205484475E1,1.269988775E0,1.134237170E0,2.097589016E0
2.207484475E1,1.391812801E0,8.660148978E-1,2.015174627E0
2.209484475E1,1.302818418E0,5.123239756E-1,1.851183414E0
2.211684475E1,9.811193943E-1,2.457423508E-1,1.874640703E0
2.213684475E1,5.443332791E-1,3.090454638E-1,2.120574951E0
2.215685569E1,1.091877967E-1,5.123937726E-1,2.349998474E0
2.217884475E1,-2.871066630E-1,5.507386327E-1,2.207579613E0
2.219884475E1,-7.274008989E-1,3.869918585E-1,1.840222836E0
2.221884475E1,-1.150887609E0,2.102074474E-1,1.781283021E0
2.223884475E1,-1.279640555E0,1.938362718E-1,2.170002699E0
2.225884475E1,-1.315070629E0,2.296155095E-1,2.524164915E0
2.227884475E1,-1.496811867E0,3.739018738E-1,2.407018423E0
2.229884475E1,-1.832962275E0,7.164227366E-1,1.961575508E0
2.231884475E1,-2.141780853E0,9.636835456E-1,1.361304402E0
2.233884475E1,-2.174942017E0,1.281263709E0,5.423261523E-1
2.235884475E1,-1.797340035E0,1.209059358E0,-2.911907434E-1
2.238084475E1,-1.016008496E0,4.738045335E-1,-1.008765340E0
2.240284475E1,-3.251723051E-1,-5.495692492E-1,-1.682724237E0
2.242484319E1,-1.176526472E-1,-1.218972802E0,-2.509696245E0
2.244484319E1,-1.119105145E-1,-1.156228304E0,-3.346389532E0
2.246484319E1,1.364323944E-1,-7.498458028E-1,-4.084576607E0
2.248484475E1,6.113190055E-1,-1.857553869E-1,-4.613306522E0
2.250684475E1,8.578293324E-1,4.219507873E-1,-4.982740402E0
2.252684788E1,5.805314183E-1,9.005549550E-1,-5.270597458E0
2.254685100E1,8.098327555E-3,1.475344300E0,-5.511278629E0
2.256884319E1,-6.321582794E-1,2.372426033E0,-5.577095032E0
2.258884475E1,-9.677152634E-1,3.161716223E0,-4.895561218E0
2.260884475E1,-9.636137486E-1,3.316561937E0,-3.736976862E0
2.262884475E1,-7.310485840E-1,2.434507370E0,-2.441523552E0
2.264884475E1,-2.905100584E-1,9.514836669E-1,-1.753532290E0
2.266884475E1,3.193254471E-1,-5.917364359E-1,-1.824322820E0
2.268884475E1,9.309411645E-1,-1.468327999E0,-2.296713591E0
2.271084475E1,1.462585926E0,-1.771439314E0,-2.559490442E0
2.273084475E1,1.690752745E0,-1.733391166E0,-2.296783447E0
2.275084475E1,1.524719596E0,-1.282764673E0,-1.581250787E0
2.277284319E1,7.513991594E-1,-5.478937626E-1,-5.281540751E-1
2.279284319E1,-1.838878840E-1,6.511823088E-2,3.830474019E-1
2.281284475E1,-1.008049846E0,5.836904645E-1,1.080114484E0
2.283484475E1,-1.517022729E0,8.328187466E-1,1.669407368E0
2.285484475E1,-1.623383045E0,7.344694734E-1,2.097815990E0
2.287484944E1,-1.754893661E0,3.620859981E-1,2.435554504E0
2.289684788E1,-1.992799520E0,-1.533620805E-1,3.032177925E0
2.291884319E1,-2.019398212E0,-7.628834248E-1,3.562426329E0
2.293884475E1,-2.010933399E0,-1.313726783E0,3.772948027E0
2.296084319E1,-1.922305584E0,-1.418394208E0,3.942611456E0
2.298084788E1,-1.340116143E0,-1.112647414E0,4.060630798E0
2.300284475E1,-2.762332559E-1,-5.375439525E-1,4.196626663E0
2.302284475E1,6.049660444E-1,2.525491454E-2,4.026841164E0
2.304484319E1,1.158148170E0,3.178942800E-1,3.197251081E0
2.306484475E1,1.526046038E0,2.995159626E-1,2.489694834E0
2.308684475E1,1.803693056E0,2.132617831E-1,2.083050489E0
2.310684631E1,1.693056583E0,7.768460363E-2,2.057376623E0
2.312884475E1,9.307317138E-1,-2.490410358E-1,2.335582256E0
2.314884475E1,-9.896016680E-3,-3.196744919E-1,2.682728052E0
2.317084319E1,-6.925815344E-1,4.471533373E-2,2.880596161E0
2.319084475E1,-9.112538695E-1,3.557155430E-1,2.808880568E0
2.321084475E1,-9.888337255E-1,2.499486059E-1,2.479379892E0
2.323084475E1,-1.158514619E0,2.515019476E-2,2.203181505E0
2.325284319E1,-1.425742030E0,1.579522900E-2,2.150716782E0
2.327284319E1,-1.738382816E0,2.512924969E-1,2.140175104E0
2.329284319E1,-1.997546792E0,5.082922578E-1,1.928676128E0
2.331284475E1,-2.137731552E0,6.599090099E-1,1.563308835E0
2.333484475E1,-2.166442394E0,5.991889834E-1,1.087287784E0
2.335484475E1,-2.124414682E0,7.123561502E-1,4.896171987E-1
2.337484944E1,-1.865634799E0,1.099557400E0,-2.991319895E-1
2.339684475E1,-1.034264684E0,1.252692580E0,-1.168480515E0
2.341684944E1,-9.183922410E-2,8.160112500E-1,-1.882110715E0
2.343884475E1,4.708549380E-1,1.549154222E-1,-2.747130871E0
2.345884475E1,7.582408190E-1,1.499237865E-2,-3.511584997E0
2.347884475E1,1.165932298E0,9.082693607E-2,-3.978163958E0
2.349884475E1,1.626315236E0,4.951324463E-1,-4.350878716E0
2.351884475E1,1.976218820E0,7.893775105E-1,-4.788153648E0
2.353884475E1,2.150437593E0,7.526558042E-1,-5.131809235E0
2.355884475E1,2.201122046E0,5.161636472E-1,-5.334162712E0
2.357884475E1,2.235958815E0,2.169793248E-1,-5.265239239E0
2.359884475E1,2.233009100E0,-1.055924222E-2,-4.894426823E0
2.361884475E1,2.126718521E0,-3.363772929E-1,-4.430448532E0
2.364084475E1,1.873785496E0,-6.694210172E-1,-3.983190298E0
2.366284475E1,1.510722041E0,-9.168040156E-1,-3.598746777E0
2.368484319E1,1.126330733E0,-1.033357143E0,-3.209992170E0
2.370484475E1,8.713381886E-1,-9.833010435E-1,-2.772298336E0
2.372684631E1,6.682342291E-1,-8.876395226E-1,-2.275158882E0
2.374685725E1,4.861265421E-1,-6.849021316E-1,-1.847186685E0
2.376884319E1,1.382126212E-1,-4.612032473E-1,-1.461608529E0
2.378884319E1,-2.359510660E-1,-2.264739275E-1,-1.042136073E0
2.380884319E1,-4.637514353E-1,3.363249451E-2,-3.903952539E-1
2.382884475E1,-4.687256217E-1,2.064724565E-1,4.990245402E-1
2.384884475E1,-4.316199124E-1,2.903529704E-1,1.356190681E0
2.386884475E1,-3.774623573E-1,2.311514020E-1,2.051896334E0
2.388884475E1,-1.381078959E-1,1.582315564E-1,2.594938040E0
2.390884475E1,2.034704834E-1,4.206243530E-2,2.809159756E0
2.393084475E1,4.806636870E-1,-6.487388909E-2,2.754321575E0
2.395284475E1,8.084015846E-1,-1.083674952E-1,2.996328831E0
2.397484475E1,1.197976589E0,5.796238407E-2,3.591189384E0
2.399484475E1,1.220857859E0,3.754377663E-1,3.944618702E0
2.401484475E1,7.993608117E-1,7.835655808E-1,3.927060604E0
2.403684944E1,6.140068173E-2,1.022361517E0,3.461808205E0
2.405685100E1,-6.797184944E-1,1.160259962E0,2.915188551E0
2.407685100E1,-1.220334172E0,1.285365224E0,2.589632273E0
2.409884319E1,-1.566083908E0,1.164815307E0,2.472468376E0
2.411884475E1,-1.654659390E0,7.449938059E-1,2.522245169E0
2.414084475E1,-1.636333466E0,3.388382196E-1,2.602914333E0
2.416084475E1,-1.611898780E0,2.417106479E-1,2.700896978E0
2.418084475E1,-1.238625288E0,2.774026394E-1,2.901243448E0
2.420284319E1,-5.910034180E-1,2.045525797E-2,3.184039116E0
2.422284319E1,-3.334800601E-1,-4.936663806E-1,3.131731510E0
2.424284475E1,-3.585779071E-1,-7.311707735E-1,2.950828075E0
2.426484475E1,-3.872711062E-1,-6.567499638E-1,2.829213619E0
2.428684475E1,-4.365068376E-1,-3.624874353E-1,2.554411411E0
2.430685100E1,-4.410621524E-1,2.087588310E-1,1.946687937E0
2.432884475E1,-1.655444801E-1,7.023728490E-1,1.107219458E0
2.435084475E1,3.150319159E-1,4.429121912E-1,3.060085773E-1
2.437284319E1,6.735051274E-1,-2.441017479E-1,-7.243814468E-1
2.439284475E1,7.882953882E-1,-1.195341110E0,-1.685830951E0
2.441484475E1,6.828600764E-1,-1.698083162E0,-2.566244841E0
2.443684319E1,7.437371612E-1,-1.421291471E0,-3.111346006E0
2.445684475E1,8.492597342E-1,-7.155675292E-1,-3.407825232E0
2.447685100E1,9.003280997E-1,-6.178465486E-2,-3.690708160E0
2.449686663E1,8.687376380E-1,3.240552843E-1,-3.920498133E0
2.451884319E1,8.528376818E-1,4.522846341E-1,-4.006089211E0
2.453884475E1,8.522093892E-1,2.755176723E-1,-3.997205496E0
2.455884475E1,7.651174068E-1,-9.969320893E-2,-3.914302349E0
2.457884475E1,6.203423738E-1,-5.359905958E-1,-3.831137419E0
2.460084319E1,4.915894270E-1,-9.589188099E-1,-3.768113375E0
2.462084319E1,3.635869920E-1,-1.477822661E0,-3.578972101E0
2.464084475E1,2.338741161E-2,-2.124868631E0,-3.298201084E0
2.466084475E1,-1.925796270E-1,-2.273431063E0,-3.038112164E0
2.468084788E1,1.298175901E-1,-1.685813546E0,-2.995316505E0
2.470284319E1,8.168140650E-1,-1.031210303E0,-3.182154179E0
2.472284319E1,1.074372292E0,-6.536607146E-1,-3.142622471E0
2.474284475E1,9.970018864E-1,-2.671226263E-1,-2.652289629E0
2.476484475E1,6.981316805E-1,-7.984881103E-2,-1.592211485E0
2.478684475E1,4.388106763E-1,-1.176351868E-2,-1.173384860E-1
2.480685100E1,2.328792810E-1,2.413092256E-1,1.102838635E0
2.482884475E1,1.055924222E-2,6.342526674E-1,1.917750359E0
2.485084475E1,-1.939235330E-1,1.043671966E0,2.119353294E0
2.487084475E1,-3.643549383E-1,1.330255032E0,1.839978456E0
2.489284319E1,-5.258327723E-1,1.257562041E0,1.648934722E0
2.491284475E1,-6.038315296E-1,9.030507803E-1,1.976742506E0
2.493284475E1,-6.298718452E-1,6.014578938E-1,2.708000422E0
2.495284475E1,-4.505392909E-1,5.439842343E-1,3.436221600E0
2.497484319E1,-1.095194072E-1,9.301382899E-1,3.904720306E0
2.499486662E1,2.882585824E-1,9.082518816E-1,3.474531651E0
2.501686350E1,9.244136214E-1,8.538499475E-1,3.053558350E0
2.503884944E1,1.450124264E0,7.543487549E-1,2.920389652E0
2.506084475E1,1.659371734E0,7.417474985E-1,2.799089193E0
2.508084475E1,1.582926393E0,6.235886812E-1,2.606038332E0
2.510084475E1,1.416928053E0,4.617094100E-1,2.328216791E0
2.512284319E1,1.234261990E0,4.528082311E-1,2.158047199E0
2.514284475E1,1.010964513E0,3.631855547E-1,2.195938349E0
2.516284475E1,7.380473614E-1,1.531351954E-1,2.182586670E0
2.518284475E1,4.187044799E-1,-1.441467404E-1,2.031074524E0
2.520284475E1,6.522295624E-2,-3.887721002E-1,1.804391146E0
2.522484475E1,-1.826312542E-1,-4.183554053E-1,1.475483894E0
2.524684631E1,-3.190461993E-1,-3.411769569E-1,1.079363942E0
2.526686350E1,-5.174028277E-1,-2.103470862E-1,6.014578938E-1
2.528884319E1,-8.606218696E-1,2.370680720E-1,-3.577925032E-3
2.530884319E1,-9.699841738E-1,6.451958418E-1,-4.186695814E-1
2.532884475E1,-6.454750896E-1,6.157172322E-1,-7.288146019E-1
2.535084475E1,-1.898220032E-1,-1.530304700E-1,-1.110640287E0
2.537284319E1,-5.096361507E-3,-1.564565539E0,-1.373155236E0
2.539284475E1,3.492054641E-1,-2.335442543E0,-1.701748371E0
2.541484475E1,1.237159133E0,-2.881783009E0,-2.024721622E0
2.543684631E1,1.734804869E0,-3.093090057E0,-2.490584850E0
2.545684631E1,1.288559079E0,-2.484825134E0,-3.084886789E0
2.547884475E1,4.130321741E-1,-1.530898094E0,-3.484375238E0
2.549884475E1,-2.256710678E-1,-6.973986626E-1,-3.486836195E0
2.551884475E1,-4.287575781E-1,2.647664547E-1,-3.148137569E0
2.553884475E1,-2.944719493E-1,1.372875929E0,-2.604868889E0
2.555884475E1,2.508038096E-2,2.300413847E0,-1.844498873E0
2.557884475E1,3.031636775E-1,2.617697239E0,-1.177242041E0
2.559884475E1,1.462411433E-1,2.225958109E0,-8.828049898E-1
2.561884631E1,-4.323704243E-1,1.133713484E0,-1.065523505E0
2.564084475E1,-1.238119125E0,-2.725680768E-1,-1.929478884E0
2.566284319E1,-1.995609403E0,-1.178743005E0,-3.161541700E0
2.568284319E1,-2.610558748E0,-1.413646817E0,-3.953816414E0
2.570284319E1,-2.920110464E0,-1.300497174E0,-4.162278652E0
2.572284319E1,-2.517131329E0,-1.647241712E0,-3.983714104E0
2.574284319E1,-1.585998178E0,-1.804391146E0,-3.732456446E0
2.576284319E1,-5.058487654E-1,-1.327724338E0,-3.005561590E0
2.578284319E1,9.596168995E-1,-5.767091513E-1,-1.980041146E0
2.580284475E1,2.836770773E0,2.179916203E-2,-1.004768610E0
2.582284475E1,3.877702713E0,3.799581826E-1,-3.532371819E-1
2.584484475E1,3.407842636E0,-9.419541806E-2,3.937462717E-2
2.586684475E1,1.817603350E0,-8.611978292E-1,4.880289733E-1
2.588685413E1,4.836481810E-1,-1.099644661E0,9.509426355E-1
2.590884475E1,-3.942349553E-1,-6.490705013E-1,1.455412626E0
2.592884475E1,-7.997971177E-1,2.520255372E-2,1.945727944E0
2.594884475E1,-1.216703892E0,7.174350619E-1,2.253586531E0
2.596884475E1,-1.571442127E0,1.202671528E0,2.297743320E0
2.598884475E1,-1.580098867E0,1.536483169E0,2.186112165E0
2.600884475E1,-1.192653298E0,1.616070151E0,2.090084076E0
2.602884475E1,-5.745623708E-1,1.340412855E0,2.126037836E0
2.604884475E1,5.480333697E-3,8.506560326E-1,2.109684229E0
2.606884475E1,3.239505589E-1,4.287924767E-1,1.924853802E0
2.608884475E1,3.901334405E-1,1.246165112E-1,1.777356029E0
2.610884475E1,2.872462869E-1,1.953198016E-1,2.016710520E0
2.612884475E1,1.710597128E-1,5.586973429E-1,2.599109411E0
2.615084475E1,2.161066681E-1,1.096695065E0,3.489524126E0
2.617284475E1,6.814289093E-1,1.674416542E0,4.436661720E0
2.619285412E1,9.951692820E-1,1.287564278E0,4.427690983E0
2.621484475E1,1.100534797E0,-6.370452046E-2,3.636533022E0
2.623684788E1,8.217184544E-1,-1.599506974E0,2.816472769E0
2.625884475E1,9.648180008E-2,-2.178013802E0,2.275106430E0
2.627884475E1,-6.414783001E-1,-1.919827223E0,1.923073530E0
2.629884475E1,-1.310707331E0,-7.620980144E-1,1.621131659E0
2.631884475E1,-1.316763639E0,6.248627901E-1,1.125702500E0
2.633884475E1,-6.811321974E-1,1.120955110E0,3.561518788E-1
2.636084475E1,1.073901057E-1,5.299866796E-1,-7.110471129E-1
2.638084475E1,4.983438551E-1,-5.391147733E-1,-1.739482403E0
2.640284319E1,5.080478787E-1,-1.657888293E0,-2.641067028E0
2.642284319E1,4.527209401E-1,-2.089228868E0,-2.960898638E0
2.644284319E1,4.232597947E-1,-2.048248529E0,-3.004985809E0
2.646284475E1,1.614604145E-1,-1.468589783E0,-3.030799150E0
2.648484475E1,-3.074048460E-1,-5.397430658E-1,-3.196395874E0
2.650684475E1,-5.625370741E-1,3.273364902E-1,-3.436657906E0
2.652684475E1,-5.248903036E-1,8.924217224E-1,-3.578256607E0
2.654884475E1,-2.995683253E-1,1.249795318E0,-3.625642300E0
2.657084475E1,7.892379165E-2,1.375773191E0,-3.666378260E0
2.659284475E1,5.117480159E-1,1.140694857E0,-3.635311365E0
2.661484319E1,8.476715088E-1,6.782523990E-1,-3.551291227E0
2.663484475E1,9.456542730E-1,1.277581006E-1,-3.417598963E0
2.665685100E1,8.145451546E-1,-3.369881809E-1,-3.250693083E0
2.667685413E1,5.193401575E-1,-5.275083184E-1,-2.930372953E0
2.669884319E1,3.066368997E-1,-6.237457395E-1,-2.253010511E0
2.671884319E1,1.777617782E-1,-6.624746323E-1,-1.422024488E0
2.673884475E1,1.172163114E-1,-5.792573094E-1,-6.534337997E-1
2.675884475E1,-1.783726551E-2,-5.740911365E-1,-2.344326228E-1
2.678084475E1,-1.495747119E-1,-4.628089666E-1,7.216936350E-2
2.680284475E1,-1.308822334E-1,-2.629163861E-1,4.979773462E-1
2.682284475E1,-2.156528831E-1,-8.292059600E-2,1.004541755E0
2.684484475E1,-3.162885606E-1,7.852236181E-2,1.773743153E0
2.686685100E1,-1.608844548E-1,1.631882787E-2,2.619704247E0
2.688884319E1,7.124433666E-2,1.434486061E-1,3.051254511E0
2.690884475E1,1.082453206E-1,4.514468610E-1,3.025563240E0
2.693084475E1,8.196066320E-2,6.881833076E-1,2.950845718E0
2.695084475E1,8.019787818E-2,8.968374133E-1,3.179640770E0
2.697084475E1,4.392993823E-2,9.055989981E-1,3.437129259E0
2.699084475E1,-7.728318125E-2,9.393536448E-1,3.447775841E0
2.701084475E1,-1.629439443E-1,1.028819203E0,3.231651545E0
2.703284475E1,-1.377937496E-1,1.153941870E0,2.856632710E0
2.705484475E1,4.101523664E-3,1.238154054E0,2.449290276E0
2.707684631E1,1.847256422E-1,1.133748412E0,2.157087326E0
2.709884319E1,1.950405389E-1,9.185318947E-1,2.000653505E0
2.711884475E1,5.344198272E-2,7.719591260E-1,2.020148754E0
2.714084475E1,-4.977678880E-2,5.746322274E-1,2.224753618E0
2.716284475E1,1.384569705E-1,4.170987904E-1,2.523588896E0
2.718284475E1,3.922627568E-1,3.767991364E-1,2.636162758E0
2.720484475E1,4.145157039E-1,3.600265086E-1,2.595374346E0
2.722684475E1,3.913028166E-2,4.723559022E-1,2.463776588E0
2.724884475E1,-5.066691041E-1,6.449165940E-1,2.283780813E0
2.726884475E1,-1.045714021E0,7.807555795E-1,2.075789928E0
2.729084475E1,-1.644623756E0,9.350776076E-1,1.642983198E0
2.731284475E1,-2.075440884E0,1.259464502E0,1.070043921E0
2.733284475E1,-2.009153128E0,1.466198683E0,4.902629852E-1
2.735484475E1,-1.424398065E0,1.147292137E0,-2.334552407E-1
2.737484944E1,-5.989446640E-1,3.916344345E-1,-1.020528913E0
2.739684475E1,4.991641734E-3,-6.032904983E-1,-1.993392944E0
2.741684944E1,9.489355236E-2,-1.190820694E0,-2.745786905E0
2.743884475E1,-1.139700040E-2,-1.098004103E0,-3.364087105E0
2.746084319E1,-7.140141726E-2,-7.216063738E-1,-3.643514395E0
2.748084475E1,-2.286206782E-1,-1.863313466E-1,-3.842935801E0
2.750084631E1,-4.673991799E-1,3.676361442E-1,-3.999893188E0
2.752284475E1,-6.548300982E-1,8.842186928E-1,-4.045830250E0
2.754484319E1,-6.336592436E-1,1.220543623E0,-3.902870417E0
2.756484475E1,-4.585154355E-1,1.320760489E0,-3.630913258E0
2.758684475E1,-1.866455078E-1,1.214208126E0,-3.296211243E0
2.760684475E1,3.200933710E-2,9.642769694E-1,-3.094748020E0
2.762685725E1,2.013586313E-1,5.881759524E-1,-3.019419670E0
2.764884319E1,3.459417224E-1,1.372003257E-1,-3.012734890E0
2.766884319E1,4.070282280E-1,-1.950580031E-1,-2.901714563E0
2.768884475E1,4.114264548E-1,-3.841818869E-1,-2.596299410E0
2.770884475E1,4.255810976E-1,-5.367760062E-1,-2.024128199E0
2.772884475E1,3.975859880E-1,-5.741609335E-1,-1.293568254E0
2.774884475E1,3.788237274E-1,-6.183527112E-1,-5.817182660E-1
2.776884475E1,2.826211751E-1,-6.277600527E-1,-2.617993858E-3
2.779084475E1,1.727875918E-1,-5.690820813E-1,5.831668377E-1
2.781084475E1,1.713040620E-1,-5.599365234E-1,1.251470923E0
2.783084475E1,2.035752088E-1,-4.924795628E-1,1.871638775E0
2.785084475E1,1.099557430E-1,-5.320810676E-1,2.436427355E0
2.787284319E1,2.506292798E-2,-5.669353008E-1,2.887612343E0
2.789284475E1,2.002590746E-1,-6.992312670E-1,3.073524714E0
2.791484475E1,5.226388574E-1,-6.130992770E-1,2.763938189E0
2.793685256E1,6.283185482E-1,-3.251723051E-1,2.192133427E0
2.795685256E1,6.127327681E-1,-4.550073296E-2,1.990321159E0
2.797884475E1,5.184674859E-1,2.231927067E-1,2.342737913E0
2.800084475E1,2.160019428E-1,4.448320568E-1,2.678434610E0
2.802284475E1,-1.546187252E-1,7.530571818E-1,2.489380598E0
2.804484475E1,-3.012612760E-1,9.747489095E-1,1.989134312E0
2.806484475E1,-2.006430477E-1,1.039011955E0,1.751629829E0
2.808685100E1,2.221804112E-2,9.497732520E-1,1.785419464E0
2.810884475E1,2.969677746E-1,6.503969431E-1,1.871830702E0
2.812884475E1,3.479313850E-1,2.470862567E-1,1.804670453E0
2.815084475E1,2.557256520E-1,-1.079486161E-1,1.756551743E0
2.817284475E1,1.910088360E-1,-2.665641308E-1,1.835492969E0
2.819485256E1,2.502453029E-1,-2.252347320E-1,2.001386404E0
2.821684475E1,3.103020787E-1,-1.666789502E-1,2.078512669E0
2.823684475E1,2.740690410E-1,-1.436929554E-1,2.025384665E0
2.825884475E1,6.850416958E-2,-1.870992929E-1,1.779467940E0
2.828084944E1,-2.630734742E-1,-4.813618213E-2,1.449251652E0
2.830284319E1,-6.213023067E-1,1.816364080E-1,1.138932109E0
2.832284475E1,-9.666680694E-1,3.403566480E-1,8.310210705E-1
2.834484475E1,-1.228991032E0,6.775019169E-1,2.761808932E-1
2.836484475E1,-1.212078810E0,1.014874101E0,-4.028045237E-1
2.838684788E1,-8.385608792E-1,9.546601772E-1,-1.166002154E0
2.840884475E1,-4.555483758E-1,4.937885404E-1,-1.958957553E0
2.842884475E1,-3.252770007E-1,-1.419825405E-1,-2.677143097E0
2.844884475E1,-1.919513047E-1,-5.896769166E-1,-3.210114241E0
2.846884475E1,8.751080930E-2,-7.454650402E-1,-3.534256935E0
2.848884475E1,4.195073247E-1,-5.996427536E-1,-3.629953146E0
2.850884475E1,5.299866796E-1,-2.656390965E-1,-3.612203121E0
2.853084475E1,3.966958821E-1,1.468869150E-1,-3.598816633E0
2.855284319E1,2.757096589E-1,3.842691481E-1,-3.448822975E0
2.857284319E1,2.788687050E-1,4.437499642E-1,-3.201876402E0
2.859284475E1,4.122293293E-1,3.942873180E-1,-2.919935942E0
2.861284475E1,5.831319690E-1,3.087312877E-1,-2.678801060E0
2.863484475E1,7.839844227E-1,8.728391677E-2,-2.521721601E0
2.865684788E1,8.868890405E-1,-2.417455465E-1,-2.476115942E0
2.867884475E1,8.607265949E-1,-5.554684997E-1,-2.427212000E0
2.869884475E1,7.206988335E-1,-6.765943170E-1,-2.262644768E0
2.872084475E1,5.210331678E-1,-7.991164327E-1,-1.793500304E0
2.874284475E1,2.936865389E-1,-8.562061787E-1,-1.166787505E0
2.876484475E1,-6.543239206E-2,-7.860614061E-1,-5.897293091E-1
2.878484475E1,-4.569272101E-1,-6.577796936E-1,-1.484402567E-1
2.880684475E1,-8.273035288E-1,-4.255810976E-1,4.154930711E-1
2.882684475E1,-8.742703199E-1,-3.040538132E-1,1.079311609E0
2.884685569E1,-6.579018831E-1,-1.724210829E-1,1.777006984E0
2.886884475E1,-3.759788275E-1,-3.520328924E-2,2.374258757E0
2.888884475E1,-1.142318025E-1,1.047197497E-3,2.652900457E0
2.890884475E1,1.450368613E-1,-2.408554405E-2,2.590312958E0
2.893084475E1,1.868724078E-1,1.106538773E-1,2.166302681E0
2.895084475E1,4.441862926E-2,2.702816725E-1,1.906615138E0
2.897084944E1,5.291838199E-2,3.694163859E-1,2.145882368E0
2.899284319E1,3.486818671E-1,4.624947906E-1,2.821412086E0
2.901284319E1,4.600513279E-1,6.715328693E-1,3.155956745E0
2.903284475E1,3.996804059E-1,9.164723754E-1,2.909428835E0
2.905484475E1,3.804643154E-1,1.018993020E0,2.363472462E0
2.907485100E1,4.439594150E-1,1.026672482E0,2.049138784E0
2.909485881E1,5.666560531E-1,9.554106593E-1,1.987162113E0
2.911684788E1,6.320535541E-1,9.055640697E-1,1.994370222E0
2.913685100E1,4.142364562E-1,8.372169733E-1,1.954524398E0
2.915884475E1,-1.206546128E-1,5.225864649E-1,1.842491746E0
2.917884475E1,-6.127851009E-1,2.730393112E-1,1.745591044E0
2.919884475E1,-8.371995091E-1,1.578824818E-1,1.824811578E0
2.922084475E1,-7.718544006E-1,1.865407825E-1,1.895462513E0
2.924284475E1,-6.066764593E-1,2.668433785E-1,1.885147572E0
2.926484475E1,-5.239652991E-1,4.158596098E-1,1.847343683E0
2.928484475E1,-4.690048695E-1,4.420569837E-1,1.750512838E0
2.930684475E1,-3.981096148E-1,8.112290502E-2,1.343397379E0
2.932684475E1,-3.323805034E-1,-2.157052457E-1,7.436324358E-1
2.934684475E1,-3.403566480E-1,-1.222952232E-1,2.999697328E-1
2.936684475E1,-1.278802752E-1,-9.389871731E-3,8.344419301E-2
2.938684475E1,3.803595901E-1,-2.465801090E-1,-2.269451618E-1
2.940884475E1,7.292683721E-1,-9.328261018E-1,-9.380272031E-1
2.943084475E1,6.122789383E-1,-1.507475734E0,-1.705256462E0
2.945084475E1,1.136558428E-1,-1.424153805E0,-2.185169697E0
2.947284319E1,-4.301014841E-1,-9.258622527E-1,-2.459221363E0
2.949284319E1,-8.341103196E-1,-3.660828173E-1,-2.630891800E0
2.951284319E1,-9.359502792E-1,8.932594955E-2,-2.815704823E0
2.953284475E1,-7.703359723E-1,3.540051281E-1,-2.932955980E0
2.955484475E1,-3.565533161E-1,2.812598050E-1,-2.977845907E0
2.957685412E1,9.793042392E-2,4.522148147E-2,-3.071360588E0
2.959884319E1,4.039040804E-1,-2.334203273E-1,-3.187686682E0
2.961884475E1,4.058065116E-1,-3.138974607E-1,-3.203237772E0
2.964084475E1,2.166477144E-1,-3.258704245E-1,-3.035336971E0
2.966284319E1,-7.782422751E-2,-2.913303673E-1,-2.784393549E0
2.968284319E1,-3.338814974E-1,-1.047023013E-1,-2.555825233E0
2.970284319E1,-5.922949314E-1,1.390678287E-1,-2.240426779E0
2.972284319E1,-8.112988472E-1,3.992964327E-1,-1.817812800E0
2.974284475E1,-9.642595053E-1,5.734453797E-1,-1.223981977E0
2.976484475E1,-1.015188217E0,5.392718315E-1,-4.364021122E-1
2.978484475E1,-9.030857086E-1,4.202927351E-1,2.538057864E-1
2.980684475E1,-6.750235558E-1,1.731192023E-1,9.352521300E-1
2.982884475E1,-3.637615144E-1,-1.324879378E-1,1.527704120E0
2.984884475E1,-3.743033111E-1,-1.819156706E-1,1.980320334E0
2.986884475E1,-5.834984779E-1,-7.689920813E-2,2.239798546E0
2.989084319E1,-7.500552535E-1,1.590693146E-1,2.269730806E0
2.991084319E1,-8.828573227E-1,3.224495649E-1,1.910053372E0
2.993084475E1,-1.104845762E0,5.713509917E-1,1.281246185E0
2.995284475E1,-1.136296630E0,7.517831326E-1,1.099592328E0
2.997485100E1,-8.124333024E-1,8.029561639E-1,1.549311280E0
2.999684475E1,-5.552765131E-1,8.259770870E-1,2.130837679E0
3.001684475E1,-5.298994184E-1,8.278969526E-1,2.246587753E0
3.003685100E1,-4.481830895E-1,8.344942927E-1,2.007879019E0
3.005686194E1,-1.740965992E-1,8.522791862E-1,1.669582009E0
3.007884319E1,2.726204395E-1,8.160985112E-1,1.457646608E0
3.009884319E1,6.603627801E-1,6.352649331E-1,1.442374945E0
3.011884631E1,8.196763992E-1,2.871241271E-1,1.557549238E0
3.014084475E1,7.268772721E-1,-1.187347472E-1,1.721138954E0
3.016084475E1,5.368632674E-1,-4.401894808E-1,1.867921114E0
3.018085413E1,3.801676035E-1,-5.782101154E-1,2.034809589E0
3.020284475E1,1.960702837E-1,-5.390973091E-1,2.207230568E0
3.022484319E1,-2.082701325E-1,-3.042283356E-1,2.437701464E0
3.024484475E1,-8.615468740E-1,-2.223549411E-2,2.559001684E0
3.026484475E1,-1.547496200E0,3.785095513E-1,2.441680670E0
3.028484475E1,-1.876612902E0,6.402915120E-1,2.172725439E0
3.030484475E1,-1.820291162E0,7.267027497E-1,1.768734097E0
3.032484475E1,-1.552086353E0,6.231872439E-1,1.124515653E0
3.034484475E1,-1.134638548E0,9.457939267E-1,2.344500721E-1
3.036684475E1,-1.881290376E-1,1.109488368E0,-5.987352133E-1
3.038684788E1,1.063498974E0,5.623625517E-1,-1.154151320E0
3.040684788E1,1.938694239E0,-3.398854136E-1,-1.837569952E0
3.042884475E1,2.009031057E0,-1.367168784E0,-2.569892645E0
3.044884475E1,1.334496140E0,-1.733827472E0,-3.127787113E0
3.046884475E1,6.686705351E-1,-1.480213761E0,-3.526210785E0
3.048884475E1,4.581140280E-1,-1.082715034E0,-3.788045168E0
3.050884475E1,5.227435827E-1,-5.785940886E-1,-3.911282778E0
3.052884475E1,7.318339944E-1,1.436406001E-2,-4.006054401E0
3.054884475E1,8.100771308E-1,2.103470862E-1,-4.157915115E0
3.057084475E1,7.847698331E-1,2.332632542E-1,-4.378158569E0
3.059084475E1,8.118224740E-1,6.880088151E-2,-4.489876747E0
3.061084475E1,8.585623503E-1,-7.712610066E-2,-4.393028736E0
3.063284319E1,8.865574598E-1,-2.312037647E-1,-4.074802876E0
3.065284319E1,8.490503430E-1,-4.603655040E-1,-3.629150391E0
3.067284475E1,7.145028710E-1,-6.595773697E-1,-3.121119976E0
3.069285100E1,4.802971482E-1,-7.681543231E-1,-2.658345938E0
3.071484319E1,2.412743121E-1,-8.036368489E-1,-2.246308565E0
3.073484319E1,9.721484035E-2,-8.712683320E-1,-1.827062964E0
3.075484319E1,-2.787290886E-2,-8.635190725E-1,-1.301230192E0
3.077485100E1,-2.337519526E-1,-7.377681136E-1,-7.967602611E-1
3.079487288E1,-4.610461593E-1,-4.886398315E-1,-1.687384248E-1
3.081684475E1,-6.692639589E-1,-3.558202684E-1,5.958902836E-1
3.083884475E1,-9.530719519E-1,-1.107935011E-1,1.224645138E0
3.086084475E1,-1.177172184E0,1.314581931E-1,1.755871058E0
3.088284475E1,-1.336328745E0,2.668608427E-1,2.108253002E0
3.090484319E1,-1.378164291E0,2.588148713E-1,2.235347986E0
3.092484475E1,-1.362787962E0,2.643126547E-1,2.316470861E0
3.094684475E1,-1.199460030E0,1.911310107E-1,2.640054941E0
3.096685569E1,-8.014551997E-1,9.836675972E-2,3.073699236E0
3.098884475E1,-3.079109788E-1,8.574802428E-2,3.508530617E0
3.100884475E1,-1.021366641E-1,1.683544517E-1,3.671684027E0
3.102884475E1,-1.195375994E-1,2.167349905E-1,3.653881788E0
3.104884475E1,-1.905725002E-1,2.267357260E-1,3.495004416E0
3.107084475E1,-2.008699477E-1,3.146479428E-1,3.499681950E0
3.109084475E1,-5.380849913E-2,3.843040466E-1,3.498669624E0
3.111084475E1,1.736427993E-1,3.578448594E-1,3.378625870E0
3.113284319E1,5.258677006E-1,2.501405776E-1,3.209049702E0
3.115284319E1,1.026532888E0,2.328269184E-1,3.138416052E0
3.117284475E1,1.295627713E0,1.830501258E-1,2.960636854E0
3.119486194E1,9.182700515E-1,2.216742635E-1,2.724930286E0
3.121684319E1,-2.694439292E-1,2.512575984E-1,2.580905676E0
3.123684631E1,-1.605388761E0,2.337344885E-1,2.433407784E0
3.125884788E1,-2.540588617E0,3.356093466E-1,2.214683294E0
3.128084475E1,-2.887437820E0,5.020090342E-1,2.034268618E0
3.130084788E1,-2.892289877E0,5.677207112E-1,1.795559764E0
3.132284475E1,-2.562701941E0,7.609286308E-1,1.304319501E0
3.134484475E1,-1.809941292E0,9.522516131E-1,6.367135644E-1
3.136684475E1,-5.956808925E-1,8.260119557E-1,-1.125737373E-2
3.138684475E1,5.639507771E-1,2.076418251E-1,-5.800601840E-1
3.140684631E1,1.347132325E0,-7.142061591E-1,-1.166770101E0
3.142686506E1,1.691049457E0,-1.713791132E0,-1.689810276E0
3.144884475E1,1.700596452E0,-2.278038740E0,-2.322544575E0
3.146884475E1,1.584724069E0,-1.957927823E0,-2.861624479E0
3.148884475E1,1.404344320E0,-1.330150366E0,-3.321727991E0
3.150884475E1,1.124567986E0,-5.932374001E-1,-3.678473473E0
3.152884475E1,8.357334733E-1,8.674286306E-3,-3.858539104E0
3.154884475E1,6.380749345E-1,3.603232205E-1,-3.877458334E0
3.157084475E1,4.953767955E-1,3.862937093E-1,-3.832725525E0
3.159284631E1,4.088259339E-1,2.135933936E-1,-3.791727781E0
3.161484319E1,3.449992239E-1,-7.852236181E-2,-3.733398914E0
3.163484475E1,3.267081678E-1,-4.606796503E-1,-3.656918526E0
3.165684475E1,3.223797679E-1,-9.190729260E-1,-3.604261875E0
3.167684475E1,2.635796368E-1,-1.265206575E0,-3.531569004E0
3.169684788E1,1.346870512E-1,-1.565769792E0,-3.439310789E0
3.171684788E1,-6.297148019E-2,-1.451956868E0,-3.242804289E0
3.173685100E1,-2.613455951E-1,-1.131252646E0,-2.909585953E0
3.175884475E1,-2.575233281E-1,-7.393214703E-1,-2.298755646E0
3.177884475E1,-9.037315100E-2,-3.809704781E-1,-1.780043840E0
3.179884475E1,2.591813914E-2,-7.862707973E-2,-1.195794821E0
3.181884475E1,9.129817039E-2,6.030112505E-2,-5.250124931E-1
3.183884475E1,4.769985005E-2,1.791231334E-1,8.412487060E-2
3.185884475E1,-1.002342552E-1,1.823520064E-1,7.127226591E-1
3.187884475E1,-2.264564633E-1,2.426531315E-1,1.296640038E0
3.189884475E1,-2.043955028E-1,2.763903439E-1,1.778856993E0
3.191884475E1,-3.122393973E-2,3.117507100E-1,1.883908391E0
3.193884475E1,6.178465486E-2,4.351280332E-1,1.563814998E0
3.196084788E1,-2.139424533E-1,1.778315902E-1,9.426697493E-1
3.198284319E1,-1.057669520E0,-8.185594529E-2,7.014652491E-1
3.200284631E1,-1.848216414E0,-7.005751878E-2,1.159020782E0
3.202484475E1,-2.317448139E0,3.548777997E-1,1.850450397E0
3.204684475E1,-2.379267693E0,9.076235890E-1,2.432273388E0
3.206884475E1,-2.018455744E0,1.510809302E0,3.010047197E0
3.208884475E1,-1.373783588E0,1.759623528E0,3.430514336E0
3.210884475E1,-7.043625116E-1,1.472202659E0,3.415836334E0
3.212884475E1,-2.835636437E-1,9.833010435E-1,2.981668234E0
3.215084475E1,6.370451767E-3,3.911108375E-1,2.515124083E0
3.217284475E1,1.618967354E-1,-8.161159605E-2,2.588532686E0
3.219285100E1,2.772979140E-1,-7.010464072E-1,2.764653921E0
3.221484475E1,3.102671802E-1,-1.297791958E0,2.656111956E0
3.223484475E1,3.314031065E-1,-1.526971102E0,2.456428766E0
3.225684319E1,5.135631561E-1,-1.630992770E0,2.264407635E0
3.227684475E1,7.750134468E-1,-1.546361685E0,1.971925378E0
3.229684475E1,8.075463772E-1,-1.489621043E0,1.568265557E0
3.231684475E1,5.887868404E-1,-1.355317950E0,9.919927716E-1
3.233684475E1,2.069611400E-1,-9.896366000E-1,2.587974072E-1
3.235684631E1,-1.805368513E-1,-3.575656116E-1,-4.228758216E-1
3.237686194E1,-3.137578368E-1,2.038893551E-1,-1.014507532E0
3.239884475E1,-2.792526782E-2,4.934569299E-1,-1.511385322E0
3.241884475E1,5.912302732E-1,3.564660549E-1,-1.914154887E0
3.243884475E1,1.164535999E0,-3.871140257E-2,-2.329124451E0
3.246084319E1,1.532224536E0,-6.393664479E-1,-2.786871910E0
3.248084475E1,1.601758480E0,-9.040281773E-1,-3.116040945E0
3.250084475E1,1.418638468E0,-9.004328251E-1,-3.265633106E0
3.252084475E1,1.044754028E0,-6.960896850E-1,-3.277204752E0
3.254084475E1,5.614549518E-1,-3.861890137E-1,-3.308114529E0
3.256284319E1,7.991862297E-2,-5.384340882E-2,-3.240291119E0
3.258284319E1,-1.770461947E-1,2.350260317E-1,-3.099373102E0
3.260284475E1,-2.788861692E-1,3.569721878E-1,-2.951334238E0
3.262284475E1,-2.395115346E-1,4.149171114E-1,-2.809910297E0
3.264484319E1,-5.726425350E-2,3.831346631E-1,-2.700966835E0
3.266484319E1,1.509360671E-1,1.600641459E-1,-2.646495104E0
3.268484319E1,3.389429450E-1,-8.023278415E-2,-2.595182419E0
3.270484475E1,4.696331918E-1,-3.531324565E-1,-2.423703909E0
3.272684475E1,5.068959594E-1,-5.620833039E-1,-2.117747545E0
3.274684475E1,4.046720266E-1,-6.723706126E-1,-1.726322651E0
3.276684475E1,1.716880351E-1,-6.047216654E-1,-1.227280617E0
3.278884475E1,-1.123293936E-1,-4.593183100E-1,-6.735051274E-1
3.280884475E1,-4.040088058E-1,-2.699675262E-1,-1.129402518E-1
3.282884475E1,-6.114062667E-1,-4.766494036E-2,4.572762549E-1
3.285084475E1,-6.627538800E-1,8.723155409E-2,1.000492573E0
3.287084475E1,-5.782799125E-1,8.108799905E-2,1.471731424E0
3.289285100E1,-5.436351299E-1,1.163785532E-1,1.737998843E0
3.291484475E1,-4.976806343E-1,3.543018550E-2,1.861620545E0
3.293684475E1,-3.269525170E-1,2.541199327E-2,2.039626598E0
3.295684475E1,-1.216319948E-1,-9.829694033E-2,2.173772573E0
3.297684788E1,8.107054234E-2,-1.069537774E-1,2.152951002E0
3.299685100E1,1.853016019E-1,1.030267850E-1,2.041913033E0
3.301884475E1,3.369707167E-1,3.975336552E-1,2.107345343E0
3.303884631E1,4.443433583E-1,5.629559755E-1,2.312194824E0
3.306084475E1,2.561619878E-1,8.213170171E-1,2.510917902E0
3.308084475E1,-8.550368249E-2,1.149700761E0,2.545178652E0
3.310284475E1,-4.450764060E-1,1.749919415E0,2.606998205E0
3.312484475E1,-8.783718348E-1,2.404871702E0,2.839458704E0
3.314484475E1,-1.139228702E0,2.584902525E0,2.917876244E0
3.316684475E1,-1.197679877E0,2.338828564E0,2.775911331E0
3.318684475E1,-1.079538465E0,1.722727180E0,2.408292532E0
3.320684475E1,-8.263784647E-1,9.861284494E-1,1.997127891E0
3.322684475E1,-6.227858067E-1,3.401821256E-1,1.918413520E0
3.324684475E1,-3.458893597E-1,-1.343903542E-1,1.999676108E0
3.326684475E1,-3.778637946E-2,-6.141988039E-1,1.929740787E0
3.328688694E1,2.089682668E-1,-1.044963479E0,1.616157413E0
3.330884319E1,3.374943137E-1,-1.392772794E0,1.152126789E0
3.332884475E1,3.096388578E-1,-1.549276471E0,8.455771208E-1
3.334884475E1,6.279694289E-2,-1.493548036E0,6.213372350E-1
3.336884475E1,-4.661774337E-1,-1.204085231E0,3.484898806E-1
3.339084319E1,-1.143452406E0,-7.934441566E-1,5.059709400E-2
3.341084475E1,-1.601217389E0,1.092401594E-1,-1.678657681E-1
3.343084475E1,-1.777862191E0,1.100604653E0,-4.176049232E-1
3.345284475E1,-1.558561563E0,1.623243451E0,-7.391469479E-1
3.347485100E1,-9.106429815E-1,1.580901742E0,-1.052381158E0
3.349485100E1,-3.327644765E-1,1.085367918E0,-1.550602913E0
3.351684631E1,1.078438908E-1,4.659505486E-1,-2.253220081E0
3.353684788E1,4.552865922E-1,2.110975683E-1,-2.902238131E0
3.355685100E1,7.817853093E-1,3.490309417E-1,-3.343474865E0
3.357686194E1,1.005135059E0,7.346963286E-1,-3.580403328E0
3.359884319E1,1.153138995E0,1.084512711E0,-3.769562006E0
3.361884475E1,1.363555908E0,1.120449066E0,-3.948161602E0
3.363884475E1,1.602840543E0,1.036428809E0,-4.162121773E0
3.365884475E1,1.838948727E0,7.549421787E-1,-4.302620411E0
3.368084475E1,2.116647959E0,2.674717009E-1,-4.330650330E0
3.370084475E1,2.228924990E0,-1.576381326E-1,-4.181477070E0
3.372084475E1,2.147627592E0,-4.311661422E-1,-3.900112629E0
3.374084475E1,1.940544367E0,-5.507735610E-1,-3.494847298E0
3.376084475E1,1.696704388E0,-5.188863873E-1,-2.980917692E0
3.378084475E1,1.378094554E0,-4.076740146E-1,-2.395621538E0
3.380084475E1,9.007120728E-1,-3.214023709E-1,-1.774598360E0
3.382284475E1,3.290992677E-1,-1.945867538E-1,-1.083779693E0
3.384284475E1,-4.979424179E-2,-1.022239327E-1,-4.931253195E-1
3.386284475E1,-2.442239225E-1,-5.103342608E-2,1.427504718E-1
3.388284475E1,-2.792526782E-1,-7.077310234E-2,8.657007813E-1
3.390284475E1,-2.400351316E-1,-1.777792424E-1,1.587307096E0
3.392484475E1,-2.199812979E-1,-4.164355695E-1,2.242398977E0
3.394484475E1,-4.206243455E-1,-6.239726543E-1,2.693182707E0
3.396484475E1,-6.264684796E-1,-7.327764630E-1,3.126931906E0
3.398484475E1,-6.124360561E-1,-8.042826056E-1,3.540138483E0
3.400484475E1,-4.977329969E-1,-7.940549850E-1,3.694355965E0
3.402684475E1,-4.082674086E-1,-6.545159221E-1,3.530818462E0
3.404684475E1,-3.355046511E-1,-4.421617091E-1,3.364034891E0
3.406685100E1,-2.868972123E-1,-1.958782971E-1,3.442906380E0
3.408884475E1,-2.535265386E-1,-1.067966968E-1,3.717184782E0
3.410884475E1,-3.161489367E-1,3.204424679E-2,3.751148939E0
3.412884475E1,-3.644596636E-1,1.440943778E-1,3.476538897E0
3.414884475E1,-2.262470275E-1,1.663298756E-1,3.127089024E0
3.417084319E1,1.532399096E-2,1.588424146E-1,2.805302620E0
3.419084475E1,1.022762898E-2,5.487314984E-2,2.530151367E0
3.421084475E1,-2.517113984E-1,-1.720894575E-1,2.337397337E0
3.423084475E1,-5.687504411E-1,-2.846632004E-1,2.328339100E0
3.425084475E1,-7.052177191E-1,-1.101651788E-1,2.468593597E0
3.427084475E1,-6.713060141E-1,1.918814927E-1,2.619198084E0
3.429084475E1,-5.116432905E-1,2.602984011E-1,2.629897118E0
3.431084475E1,-3.328517377E-1,1.108982190E-1,2.448714495E0
3.433084475E1,-1.239183769E-1,-1.303411871E-1,2.137923717E0
3.435084475E1,5.602506921E-3,-3.372674286E-1,1.827953100E0
3.437084475E1,-4.000294581E-2,-3.441091180E-1,1.466844559E0
3.439284475E1,-1.584409922E-1,-4.672246426E-2,1.027632356E0
3.441484475E1,-2.593210340E-1,2.532472610E-1,4.284608662E-1
3.443685100E1,-4.045847654E-1,7.901803851E-1,-3.862064481E-1
3.445884319E1,-4.330336452E-1,1.227716923E0,-1.199547291E0
3.447884475E1,-1.060462072E-1,1.036219478E0,-1.591199279E0
3.449884475E1,4.817806780E-1,4.074122012E-1,-1.946635485E0
3.451884475E1,9.224762917E-1,-4.965287149E-1,-2.421138287E0
3.453884631E1,1.075489283E0,-1.235291719E0,-2.942084074E0
3.456084475E1,1.179842591E0,-1.562156916E0,-3.437530756E0
3.458084475E1,1.270529866E0,-1.324059129E0,-3.746069908E0
3.460284475E1,1.117097974E0,-7.355690002E-1,-4.043945312E0
3.462284475E1,7.412936687E-1,-3.262020350E-1,-4.151335239E0
3.464284475E1,3.825587034E-1,5.825908855E-2,-4.257189751E0
3.466484319E1,3.103195429E-1,3.647040129E-1,-4.455144882E0
3.468484319E1,5.311385989E-1,5.200906396E-1,-4.609745979E0
3.470484475E1,7.013605833E-1,5.823465586E-1,-4.712772846E0
3.472684475E1,6.339210272E-1,5.834984779E-1,-4.712319374E0
3.474684475E1,4.593706429E-1,5.911604762E-1,-4.531467915E0
3.476684475E1,2.239781022E-1,5.709844828E-1,-4.234605312E0
3.478685881E1,2.558652684E-2,5.200732350E-1,-3.787451744E0
3.480884475E1,-5.628686771E-2,4.307821691E-1,-3.113911629E0
3.482884475E1,-1.413716655E-2,1.830675900E-1,-2.389704704E0
3.484884475E1,8.134979755E-2,-1.324006766E-1,-1.611724257E0
3.486884475E1,2.738596201E-1,-3.827681541E-1,-8.776213527E-1
3.488884475E1,5.526061654E-1,-5.899212956E-1,-2.665990293E-1
3.490884475E1,8.720712066E-1,-6.874852180E-1,3.147003055E-1
3.493084475E1,1.215796351E0,-7.099126577E-1,9.528799653E-1
3.495084475E1,1.365580559E0,-6.136752367E-1,1.598197937E0
3.497284319E1,1.294214010E0,-4.994608760E-1,2.414244175E0
3.499284631E1,1.148356795E0,-3.896796703E-1,3.022439003E0
3.501484475E1,9.571909308E-1,-1.174257547E-1,3.248267174E0
3.503684319E1,5.908637643E-1,2.538930476E-1,3.057450294E0
3.505685100E1,3.815988004E-1,2.738421559E-1,3.130160809E0
3.507685100E1,4.909960330E-1,1.077915356E-1,3.463972330E0
3.509685881E1,5.753477812E-1,-1.703441329E-2,3.732788086E0
3.511884475E1,3.683866560E-1,2.124065720E-2,3.658751249E0
3.513884475E1,5.286602303E-2,2.210459560E-1,3.313856602E0
3.515884475E1,-1.674294323E-1,4.563512504E-1,2.889898777E0
3.518084475E1,-2.525666058E-1,6.877818704E-1,2.672221184E0
3.520284475E1,-2.626895010E-1,8.742179871E-1,2.723219872E0
3.522484319E1,-2.391799241E-1,9.439613223E-1,2.832372665E0
3.524484319E1,-2.346769720E-1,7.925016284E-1,2.824239492E0
3.526484319E1,-1.644100100E-1,5.395685434E-1,2.730061531E0
3.528484475E1,-1.867502346E-3,2.332283407E-1,2.652045250E0
3.530684631E1,3.604803085E-1,-1.470963508E-1,2.502138853E0
3.532884475E1,6.255260110E-1,-4.785692692E-1,2.226097584E0
3.534884475E1,6.130120158E-1,-7.089178562E-1,1.855127931E0
3.536884475E1,2.588148713E-1,-7.201752067E-1,1.470666766E0
3.538884475E1,-1.382475346E-1,-2.064026296E-1,1.154482961E0
3.540884475E1,-2.462136000E-1,4.519704580E-1,9.636660814E-1
3.542884475E1,-2.885727286E-1,7.380473614E-1,6.474996805E-1
3.544884475E1,-5.908463001E-1,8.058184981E-1,1.016828790E-1
3.546884475E1,-9.446594715E-1,9.579937458E-1,-3.779161274E-1
3.548884475E1,-1.126278400E0,1.346067786E0,-6.757565737E-1
3.551084475E1,-9.549045563E-1,1.419476271E0,-6.950773597E-1
3.553284475E1,-4.900884628E-1,6.912550926E-1,-5.392718315E-1
3.555484475E1,-7.862707973E-2,-3.913377225E-1,-9.623396397E-1
3.557684475E1,9.740682691E-2,-1.347830534E0,-1.927384496E0
3.559685569E1,2.237861156E-1,-1.672287226E0,-2.671994448E0
3.561884475E1,3.519107401E-1,-1.702620983E0,-3.214547396E0
3.563884475E1,3.139323592E-1,-1.520792603E0,-3.516489267E0
3.565884475E1,9.091419727E-2,-1.061753631E0,-3.760154724E0
3.567884788E1,-1.129228026E-1,-4.522671700E-1,-3.985214949E0
3.570085881E1,-1.971873045E-1,2.918888628E-1,-4.143132210E0
3.572284319E1,-7.405432314E-2,1.069310904E0,-4.142067909E0
3.574284475E1,1.495049000E-1,1.545715928E0,-3.919957161E0
3.576484319E1,4.114962816E-1,1.710911393E0,-3.661002636E0
3.578484475E1,6.389824748E-1,1.524806857E0,-3.554537535E0
3.580684788E1,8.168839216E-1,1.016305208E0,-3.476678371E0
3.582884475E1,9.209753275E-1,3.873234689E-1,-3.381889582E0
3.584884475E1,8.570264578E-1,-1.936093718E-1,-3.256435394E0
3.586884475E1,6.019117236E-1,-6.752853394E-1,-3.059056044E0
3.588884475E1,2.568252087E-1,-9.412037134E-1,-2.585373640E0
3.590884475E1,4.548327997E-2,-1.029080987E0,-1.867781520E0
3.592884475E1,-5.756095797E-2,-8.772373796E-1,-1.064860225E0
3.594884475E1,-5.747369304E-2,-6.111270189E-1,-3.324677646E-1
3.596884475E1,3.495894372E-2,-2.960253060E-1,3.178942800E-1
3.598884475E1,1.416858286E-1,-4.522148147E-2,8.891056180E-1
3.600884475E1,5.014330894E-2,3.450515866E-2,1.505852580E0
3.602884475E1,-2.301565707E-1,-8.011061698E-3,2.120086432E0
3.604884475E1,-4.315850139E-1,-3.099704720E-2,2.674455166E0
3.606884475E1,-6.191904545E-1,-3.466223925E-2,3.003205538E0
3.608884475E1,-7.606843114E-1,-2.492330223E-2,2.980411530E0
3.611084319E1,-8.255931139E-1,1.312313080E-1,2.798810005E0
3.613084475E1,-5.230751634E-1,1.629962921E-1,2.904332638E0
3.615084475E1,2.218313515E-2,6.180210784E-2,3.181700230E0
3.617284475E1,3.883183002E-1,3.340560198E-2,3.349583626E0
3.619284475E1,2.761983573E-1,1.933650225E-1,3.203325033E0
3.621284475E1,1.024159193E-1,3.838851750E-1,2.713986874E0
3.623484319E1,1.531700939E-1,5.021835566E-1,2.283344507E0
3.625484319E1,3.918438554E-1,5.525363088E-1,2.247320890E0
3.627484475E1,6.219655275E-1,5.211552978E-1,2.379163027E0
3.629484944E1,6.556853056E-1,4.399625957E-1,2.445852041E0
3.631684319E1,4.500156939E-1,2.348340452E-1,2.411242247E0
3.633684319E1,1.627170444E-1,1.064650808E-2,2.368237257E0
3.635684475E1,-8.304276317E-2,-1.037074625E-1,2.387453318E0
3.637684475E1,-1.857204884E-1,-1.697332710E-1,2.445415735E0
3.639684475E1,-2.089508176E-1,-3.020641208E-1,2.438399553E0
3.641684788E1,-3.082949519E-1,-4.608716369E-1,2.349928856E0
3.643685100E1,-4.926889837E-1,-5.097757578E-1,2.232782364E0
3.645884475E1,-8.415977359E-1,-2.101899981E-1,2.015279293E0
3.647885256E1,-1.216372371E0,1.444434524E-1,1.830483913E0
3.650084475E1,-1.488853097E0,5.864830017E-1,1.508819699E0
3.652084475E1,-1.428517103E0,8.301658630E-1,9.798452854E-1
3.654084475E1,-1.021576166E0,1.155407906E0,3.350159526E-1
3.656284319E1,-3.272666931E-1,1.010283828E0,-3.210358620E-1
3.658284319E1,2.731789351E-1,3.713537157E-1,-9.676977992E-1
3.660284475E1,5.474748611E-1,-3.707428277E-1,-1.728888273E0
3.662484475E1,4.888667166E-1,-1.142492533E0,-2.536487103E0
3.664484475E1,2.222153246E-1,-1.535191655E0,-3.104853392E0
3.666684475E1,-6.857398897E-2,-1.340622306E0,-3.639866590E0
3.668685412E1,-1.600641459E-1,-8.115431666E-1,-4.268604279E0
3.670884475E1,-7.997098565E-2,2.335250564E-2,-4.954902649E0
3.672884475E1,1.842893213E-1,9.065763950E-1,-5.148337364E0
3.675084319E1,4.346219003E-1,1.504316688E0,-4.837982655E0
3.677084319E1,5.709495544E-1,1.676964641E0,-4.275131702E0
3.679084475E1,6.920579672E-1,1.479882121E0,-3.710674763E0
3.681284475E1,8.425751328E-1,1.065052271E0,-3.376077652E0
3.683484319E1,9.359328151E-1,5.281366110E-1,-3.304466724E0
3.685484475E1,9.526879787E-1,-6.534512341E-2,-3.270589828E0
3.687485100E1,8.505687714E-1,-4.518657327E-1,-2.974896193E0
3.689684788E1,6.214419603E-1,-7.138745785E-1,-2.358271360E0
3.691884475E1,3.343003690E-1,-7.345043421E-1,-1.680298328E0
3.693884475E1,5.340707675E-2,-6.543239355E-1,-1.114829063E0
3.695884475E1,-2.375567704E-1,-5.593954921E-1,-5.184674859E-1
3.697884475E1,-4.769461155E-1,-4.131194353E-1,1.693841964E-1
3.700084475E1,-4.946961105E-1,-3.644770980E-1,9.743475318E-1
3.702084475E1,-4.724606276E-1,-3.001093566E-1,1.513287663E0
3.704084475E1,-5.646139979E-1,-2.973866463E-1,1.913718581E0
3.706284788E1,-5.426577926E-1,-3.154682517E-1,2.348898888E0
3.708484475E1,-1.906946748E-1,-4.106585085E-1,2.741371155E0
3.710484475E1,2.051809132E-1,-2.445031703E-1,2.691105604E0
3.712484475E1,4.877322614E-1,4.042182490E-2,2.376265764E0
3.714484475E1,5.919807553E-1,2.693043053E-1,2.048074007E0
3.716484475E1,3.406358957E-1,5.329188108E-1,1.830187201E0
3.718684475E1,-4.933173060E-1,7.696029544E-1,1.897155404E0
3.720884475E1,-1.485030890E0,9.434202909E-1,2.226481676E0
3.722884475E1,-2.013167381E0,1.093693137E0,2.500184059E0
3.724884475E1,-2.096454620E0,1.240527630E0,2.675729275E0
3.726884631E1,-1.818859935E0,1.356068492E0,2.739678144E0
3.729084475E1,-1.279308915E0,1.303010464E0,2.687405586E0
3.731084475E1,-1.016985893E0,9.913644791E-1,2.526521206E0
3.733084475E1,-9.038013220E-1,6.133435965E-1,2.453461647E0
3.735084475E1,-6.980269551E-1,6.696828455E-2,2.405325413E0
3.737084475E1,-4.180936217E-1,-3.898716569E-1,2.242207050E0
3.739084475E1,-2.143264264E-1,-7.757639289E-1,2.078181028E0
3.741084631E1,-2.537185252E-1,-9.748187661E-1,1.858391643E0
3.743284475E1,-2.956587672E-1,-8.666955829E-1,1.695081234E0
3.745284475E1,-1.937315464E-1,-4.850095510E-1,1.593136549E0
3.747284475E1,-1.874134541E-1,-1.296430528E-1,1.380852103E0
3.749484475E1,-4.006228745E-1,1.245641485E-1,1.085402846E0
3.751684475E1,-6.277949214E-1,3.896447420E-1,8.345291615E-1
3.753684475E1,-6.686705351E-1,8.680918813E-1,4.664916098E-1
3.755684475E1,-4.337841272E-1,1.022466183E0,5.131267942E-3
3.757884475E1,-4.141666368E-2,6.134657860E-1,-6.142860651E-1
3.759886038E1,1.300793886E-1,-1.208815053E-1,-1.305209517E0
3.762084319E1,1.866280586E-1,-8.626987934E-1,-1.959097147E0
3.764084631E1,2.347293347E-1,-1.008782864E0,-2.455433846E0
3.766284475E1,3.489611149E-1,-5.872160196E-1,-2.938733101E0
3.768284475E1,3.815464377E-1,2.743657529E-1,-3.602464199E0
3.770287444E1,2.877000868E-1,1.216005802E0,-4.139955997E0
3.772484475E1,3.144210577E-1,1.870731115E0,-4.379205704E0
3.774484475E1,4.534365237E-1,1.907348156E0,-4.325780869E0
3.776484475E1,6.519328356E-1,1.575910091E0,-4.127476692E0
3.778484475E1,8.059930205E-1,1.021349192E0,-4.014379501E0
3.780484475E1,9.087929130E-1,3.880739510E-1,-4.015304565E0
3.782484475E1,9.392140508E-1,-1.503077596E-1,-4.017137051E0
3.784484475E1,9.212895036E-1,-4.698251784E-1,-3.930289507E0
3.786484475E1,8.217009902E-1,-5.188863873E-1,-3.652101517E0
3.788484475E1,6.004979610E-1,-3.593981862E-1,-3.183812141E0
3.790484475E1,3.271096051E-1,-1.665916741E-1,-2.575145960E0
3.792484475E1,3.408627957E-2,-2.204350755E-2,-1.891675115E0
3.794484475E1,-1.644274741E-1,6.291911751E-2,-1.141410470E0
3.796484475E1,-2.109230459E-1,4.246386141E-2,-4.172558486E-1
3.798484475E1,-1.004786044E-1,-3.569198400E-2,2.318146378E-1
3.800484475E1,8.281587064E-2,-1.642354876E-1,6.335719824E-1
3.802484475E1,1.466774642E-1,-3.165154457E-1,8.401142359E-1
3.804484475E1,-6.988298148E-2,-2.806140482E-1,1.198884130E0
3.806484475E1,-2.893232405E-1,-2.106088847E-1,1.850101352E0
3.808484475E1,-4.306599796E-1,-7.740534842E-2,2.536679029E0
3.810484475E1,-4.695110321E-1,6.274458766E-2,2.829457998E0
3.812484475E1,-5.426054001E-1,2.079210728E-1,2.743238688E0
3.814484475E1,-4.920955896E-1,1.212305725E-1,2.857365847E0
3.816484475E1,-3.544414639E-1,-1.579697430E-1,3.296700001E0
3.818684475E1,-3.156078756E-1,-3.967482448E-1,3.727133036E0
3.820684475E1,-3.873409331E-1,-4.583409131E-1,3.745912790E0
3.822684475E1,-4.424235225E-1,-3.496941626E-1,3.590927601E0
3.824684475E1,-4.122467637E-1,-2.420597076E-1,3.441509962E0
3.826884475E1,-3.124139309E-1,-1.450368613E-1,3.273487091E0
3.828884475E1,-2.805267572E-1,-1.349314004E-1,3.053453445E0
3.830884475E1,-3.786317408E-1,-1.330464482E-1,2.830487728E0
3.832884475E1,-4.600862563E-1,-1.076169983E-1,2.530343533E0
3.835084319E1,-4.745201170E-1,-2.145882249E-1,2.268107653E0
3.837084475E1,-3.006155193E-1,-2.661801577E-1,2.150908947E0
3.839284475E1,1.502728462E-2,-2.215171903E-1,1.936652184E0
3.841484475E1,2.708750963E-1,-2.082701325E-1,1.615319729E0
3.843684475E1,3.976558149E-1,-4.638910592E-1,1.463336349E0
3.845684475E1,4.629834890E-1,-8.074940443E-1,1.350623012E0
3.847684788E1,5.332155228E-1,-9.534035325E-1,1.195690155E0
3.849685725E1,5.253615379E-1,-7.993956804E-1,9.304001331E-1
3.851884475E1,2.955889702E-1,-5.712985992E-1,4.698077142E-1
3.853884475E1,2.571917176E-1,-1.849350929E-1,-2.385690510E-1
3.855884475E1,6.565579772E-1,1.892460436E-1,-1.103641510E0
3.858084475E1,1.487858295E0,-1.479864717E-1,-1.683125734E0
3.860084475E1,2.146999359E0,-1.074128032E0,-1.512205601E0
3.862084475E1,2.345565319E0,-2.011177778E0,-1.028993726E0
3.864085100E1,2.572929382E0,-2.444752455E0,-8.524711728E-1
3.866284475E1,2.864870787E0,-2.353105307E0,-1.196370840E0
3.868284475E1,2.318233490E0,-2.195554495E0,-1.713668942E0
3.870484475E1,1.024543166E0,-1.820343494E0,-2.033989191E0
3.872684475E1,4.785692692E-2,-1.341704369E0,-1.970092773E0
3.874684475E1,-3.574608862E-1,-7.116230726E-1,-1.707944274E0
3.876884475E1,-7.611555457E-1,-3.460115194E-1,-1.514038205E0
3.879084475E1,-1.178132176E0,-3.428524733E-1,-1.651325822E0
3.881284475E1,-1.522555470E0,-1.134464052E-2,-1.973024845E0
3.883484319E1,-1.791597962E0,1.035887837E0,-2.139441967E0
3.885484475E1,-1.578842282E0,2.044321537E0,-2.087413788E0
3.887484475E1,-1.031402349E0,2.475033998E0,-2.251212835E0
3.889685569E1,-3.680899441E-1,2.563731670E0,-2.888432741E0
3.891884475E1,3.789982498E-1,2.342720509E0,-3.359025717E0
3.893884475E1,9.624443650E-1,1.753130913E0,-3.381837130E0
3.895884475E1,1.297530174E0,1.034247160E0,-2.908119917E0
3.897884475E1,1.272746444E0,3.430269957E-1,-2.120295763E0
3.899885256E1,9.102240801E-1,-1.634849906E-1,-1.774615884E0
3.902084319E1,3.760660887E-1,-5.605648756E-1,-1.639614701E0
3.904084319E1,2.758667469E-1,-3.933972120E-1,-1.193124533E0
3.906084319E1,6.364168525E-1,1.160643995E-2,-2.318320870E-1
3.908084475E1,1.210246205E0,4.018271565E-1,1.099679589E0
3.910284475E1,2.103976965E0,3.774972558E-1,2.245523214E0
3.912484475E1,3.199258327E0,-4.622679055E-1,2.548198223E0
3.914484475E1,3.829985380E0,-1.714995384E0,2.079804182E0
3.916684475E1,3.587594032E0,-2.047131538E0,1.175915599E0
3.918684475E1,2.576088428E0,-2.059575796E0,8.421213627E-1
3.920684944E1,4.837529063E-1,-1.338231206E0,7.358133793E-1
3.922884475E1,-1.723966360E0,4.839798063E-2,1.115579605E0
3.925084319E1,-3.005038023E0,1.124672771E0,1.284475088E0
3.927084475E1,-3.358886242E0,1.582472563E0,1.050304174E0
3.929084475E1,-2.950409174E0,1.870870829E0,8.614072204E-1
3.931284475E1,-1.902758002E0,1.956461668E0,1.038907290E0
3.933284475E1,-8.312479854E-1,1.436946988E0,1.346888065E0
3.935484475E1,1.815491468E-1,4.904375076E-1,1.291718125E0
3.937684475E1,9.293354750E-1,-5.854881406E-1,9.190205932E-1
3.939884475E1,1.416491747E0,-1.587970376E0,5.083271265E-1
3.941884475E1,1.584636807E0,-1.977074027E0,2.492504716E-1
3.943884475E1,1.553936481E0,-1.917366385E0,1.692271233E-1
3.946084319E1,1.388444304E0,-1.495642424E0,3.523470759E-1
3.948084475E1,1.063778162E0,-1.010755062E0,7.484669685E-1
3.950084475E1,3.239156604E-1,-3.309667706E-1,1.304790735E0
3.952084475E1,-7.673165202E-1,3.587175310E-1,2.008245707E0
3.954284475E1,-1.865320683E0,1.111181259E0,2.712154388E0
3.956484319E1,-2.390874147E0,1.538856745E0,2.992611408E0
3.958484319E1,-2.196915627E0,1.647346497E0,2.832145691E0
3.960484475E1,-1.361199737E0,1.325978994E0,2.451402187E0
3.962684319E1,-5.689773243E-3,4.261570275E-1,1.926337361E0
3.964684475E1,1.069153786E0,-4.445353448E-1,1.366749883E0
3.966684475E1,1.419249415E0,-8.806756735E-1,9.569465518E-1
3.968884475E1,1.135912657E0,-6.580764055E-1,8.044047952E-1
3.970884631E1,7.765842676E-1,-1.114043668E-1,8.799775243E-1
3.973084475E1,7.215016484E-1,5.230926275E-1,1.051717997E0
3.975284319E1,9.929003716E-1,8.469384909E-1,1.009219170E0
3.977284319E1,1.420750380E0,8.569741249E-1,1.113572359E0
3.979284475E1,1.949236035E0,7.067012787E-1,1.443265080E0
3.981284475E1,2.384783030E0,7.126353979E-1,2.084708452E0
3.983284475E1,2.432832003E0,8.400967717E-1,2.936917782E0
3.985484475E1,1.949777126E0,7.341203690E-1,3.406900167E0
3.987684475E1,1.183856845E0,1.742536724E-1,2.898031950E0
3.989684788E1,6.562961340E-1,-2.790955901E-1,1.967125654E0
3.991884475E1,3.016627133E-1,-5.415931344E-1,9.103462696E-1
3.993884475E1,-3.549999744E-2,-7.659028172E-1,1.369734406E-1
3.996084319E1,-4.560545385E-1,-8.808327913E-1,-6.616892219E-1
3.998084475E1,-9.605244994E-1,-8.924566507E-1,-1.365248919E0
4.000084475E1,-1.537181258E0,-6.732956767E-1,-1.801825523E0
4.002284319E1,-2.045019627E0,-4.251796603E-1,-1.745329261E0
4.004284475E1,-2.458924532E0,-7.180458903E-1,-1.497859001E0
4.006484475E1,-2.678120375E0,-1.021715760E0,-1.332471609E0
4.008684475E1,-2.288720131E0,-1.111722350E0,-1.351757526E0
4.010685100E1,-1.479637742E0,-1.066169262E0,-1.585963249E0
4.012884475E1,-5.896943808E-1,-1.035556197E0,-1.872179747E0
4.015084475E1,-2.686061561E-1,-7.728841305E-1,-1.904852390E0
4.017284475E1,-8.843234181E-1,-5.706703067E-1,-1.539327979E0
4.019484319E1,-1.737737060E0,-2.309768796E-1,-9.771400094E-1
4.021484475E1,-1.790899754E0,3.049090207E-1,-3.097610474E-1
4.023684788E1,-1.160521746E0,8.442506790E-1,4.577649534E-1
4.025884475E1,-4.883605838E-1,9.358630180E-1,7.639829516E-1
4.027884475E1,5.400048569E-2,1.276586175E0,8.112988472E-1
4.029884475E1,4.477991164E-1,1.053131700E0,7.894822359E-1
4.031884475E1,4.854633212E-1,4.825311899E-1,4.272391498E-1
4.033884475E1,2.691297829E-1,-1.551946700E-1,-1.151219159E-1
4.035884475E1,1.319294423E-1,-4.384965301E-1,-4.786565602E-1
4.037884475E1,3.368834555E-1,-5.324301124E-1,-6.811671257E-1
4.039884475E1,6.208485365E-1,-4.749913514E-1,-8.399222493E-1
4.041884475E1,7.406828403E-1,-2.805616856E-1,-7.997971177E-1
4.044084475E1,4.929507971E-1,4.907865822E-2,-6.113364697E-1
4.046084475E1,3.820525855E-2,1.794896573E-1,-5.047317743E-1
4.048085100E1,-1.527861208E-1,2.346769720E-1,-3.857526779E-1
4.050085100E1,-3.541273177E-1,1.755626649E-1,-2.409252524E-1
4.052284319E1,-4.549898803E-1,3.722787276E-2,-2.733360231E-1
4.054284475E1,-3.138101995E-1,1.677785069E-1,-4.381299913E-1
4.056284475E1,-1.662426144E-1,5.329188108E-1,-5.551892519E-1
4.058484319E1,-4.408701509E-2,8.291535378E-1,-8.609185815E-1
4.060484319E1,-1.076693609E-1,9.671741724E-1,-1.373399615E0
4.062484319E1,-2.475400418E-1,5.594827533E-1,-1.967073321E0
4.064484475E1,-4.475024045E-1,-1.019446775E-1,-2.325127602E0
4.066684475E1,-5.742831230E-1,-5.804964900E-1,-2.454945326E0
4.068684475E1,-3.692942262E-1,-4.819901288E-1,-2.443583012E0
4.070684475E1,1.140747219E-1,-2.395638973E-1,-2.356962442E0
4.072684475E1,4.543441236E-1,2.944370359E-2,-2.366509438E0
4.074685100E1,5.459913611E-1,5.136852860E-1,-2.648432493E0
4.076884475E1,6.845355630E-1,9.142209291E-1,-2.872689724E0
4.079084475E1,9.658303261E-1,9.841562510E-1,-2.675886393E0
4.081084944E1,1.088945866E0,7.392342091E-1,-2.342214346E0
4.083284475E1,1.005606294E0,5.457644537E-2,-1.933493137E0
4.085484475E1,8.997521400E-1,-8.521395326E-1,-1.654327750E0
4.087484944E1,8.243364692E-1,-1.431972861E0,-1.658481717E0
4.089684319E1,7.029662728E-1,-1.803064704E0,-1.833154202E0
4.091685725E1,5.080478787E-1,-1.876071811E0,-1.923597217E0
4.093685725E1,2.421644330E-1,-1.544145107E0,-1.743252277E0
4.095884475E1,-1.686162651E-1,-1.057215691E0,-1.170121074E0
4.097884631E1,-5.767964125E-1,-5.341929197E-1,-4.598244429E-1
4.100084475E1,-8.515810370E-1,-1.108982190E-1,4.179016352E-1
4.102084475E1,-8.425751328E-1,1.015258059E-1,1.203840852E0
4.104284475E1,-8.241793513E-1,5.108578876E-2,1.804024696E0
4.106284475E1,-9.289515018E-1,8.333947510E-2,1.984613895E0
4.108284475E1,-8.160810471E-1,1.966462433E-1,2.240287066E0
4.110284475E1,-3.447199762E-1,2.519208193E-1,2.431313515E0
4.112284475E1,2.728996873E-1,1.465902030E-1,2.320502520E0
4.114284475E1,6.110048890E-1,7.777187228E-2,1.861777663E0
4.116484319E1,5.326220989E-1,-1.811651699E-2,1.513095737E0
4.118484319E1,3.226764798E-1,3.347541392E-1,1.602508903E0
4.120484475E1,2.772630155E-1,6.651973128E-1,2.123943567E0
4.122685256E1,2.122669369E-1,9.821665883E-1,2.509556532E0
4.124884319E1,8.101818711E-2,1.210839629E0,2.180125713E0
4.126884475E1,4.763003439E-2,1.188010693E0,1.655165553E0
4.128884475E1,1.096066758E-1,1.069851875E0,1.364934683E0
4.130884475E1,1.927192509E-1,9.092990756E-1,1.298978686E0
4.132884475E1,1.982519478E-1,6.401343942E-1,1.303377032E0
4.135084319E1,2.420771681E-2,2.768266797E-1,1.294545650E0
4.137084475E1,-1.973094642E-1,5.462880712E-3,1.255921483E0
4.139284475E1,-3.130597174E-1,-3.693116829E-2,1.162232161E0
4.141484319E1,-3.081902266E-1,4.948008433E-2,1.198377967E0
4.143484319E1,-2.569997311E-1,7.496189326E-2,1.290217161E0
4.145484319E1,-2.446427941E-1,1.307251584E-2,1.344531894E0
4.147484319E1,-2.343802601E-1,6.300638430E-3,1.365981936E0
4.149484475E1,-2.307150662E-1,1.535889693E-3,1.376820445E0
4.151684475E1,-2.619564533E-1,8.813912980E-3,1.216564298E0
4.153684788E1,-4.609938264E-1,9.880308807E-2,9.237155318E-1
4.155884475E1,-7.376633883E-1,8.333947510E-2,4.809778333E-1
4.158084788E1,-9.804387093E-1,6.262939572E-1,-7.260569930E-2
4.160284475E1,-9.850463867E-1,9.610131979E-1,-7.015525699E-1
4.162484319E1,-5.608964562E-1,7.763224244E-1,-1.152039528E0
4.164484475E1,-9.477137774E-2,1.504124701E-1,-1.496445298E0
4.166684475E1,2.371727973E-1,-8.236557841E-1,-1.827289939E0
4.168884475E1,3.759788275E-1,-1.470614433E0,-2.091951609E0
4.171084319E1,3.046821356E-1,-1.614534259E0,-2.273012161E0
4.173084475E1,2.658834457E-1,-1.441641927E0,-2.294462204E0
4.175284475E1,2.728822231E-1,-1.142911434E0,-2.291477680E0
4.177484475E1,2.950304449E-1,-6.948505044E-1,-2.422517061E0
4.179484944E1,3.276157379E-1,-2.981196940E-1,-2.658817053E0
4.181684475E1,3.387683928E-1,-1.012290921E-2,-2.936708450E0
4.183684475E1,3.188542128E-1,3.375466913E-2,-3.110246420E0
4.185685413E1,2.664070427E-1,-6.955137104E-2,-3.134628773E0
4.187884475E1,1.965415329E-1,-3.462035060E-1,-3.012473106E0
4.189885725E1,1.207418740E-1,-5.892056823E-1,-2.803941250E0
4.192084319E1,-5.410520826E-3,-7.300886512E-1,-2.507514477E0
4.194084475E1,-1.189441904E-1,-7.013779879E-1,-2.101707935E0
4.196284475E1,-1.681973785E-1,-5.936388373E-1,-1.501855850E0
4.198484475E1,-7.930775732E-2,-5.039986968E-1,-7.425503135E-1
4.200484475E1,4.508185387E-2,-4.315675497E-1,-4.129448906E-2
4.202684475E1,9.644689411E-2,-3.622954488E-1,4.955338836E-1
4.204884475E1,2.207317948E-1,-2.999522984E-1,9.272585511E-1
4.207084475E1,5.032308102E-1,-2.009048462E-1,1.357743979E0
4.209084475E1,6.395584345E-1,-8.683013171E-2,1.612317681E0
4.211284475E1,4.385314286E-1,-2.426007763E-3,1.694208503E0
4.213284475E1,2.924648225E-1,1.451066732E-1,1.790515780E0
4.215484319E1,4.264886677E-1,2.338915765E-1,1.897277594E0
4.217485100E1,6.244438887E-1,2.938261926E-1,1.705064535E0
4.219485100E1,5.640729666E-1,3.111922145E-1,1.349942327E0
4.221685413E1,2.154434472E-1,4.530351162E-1,1.172180533E0
