"Time (s)","Acceleration x (m/s^2)","Acceleration y (m/s^2)","Acceleration z (m/s^2)"
0.000000000E0,-3.525761366E0,2.077867746E0,8.358158112E0
2.180286400E-2,-3.702932119E0,2.041954756E0,8.746018410E0
4.204083100E-2,-3.695749521E0,1.764227390E0,9.572018623E0
6.209713300E-2,-4.404433250E0,1.599027514E0,1.030943298E1
8.214286200E-2,-4.006995678E0,1.807322979E0,1.056800652E1
1.022214560E-1,-2.776376247E0,1.527201414E0,9.466673851E0
1.222813520E-1,-2.563292265E0,1.656488299E0,8.762778282E0
1.423412480E-1,-2.845808029E0,1.941398263E0,8.240841866E0
1.624011440E-1,-3.252822399E0,2.271798134E0,7.979874134E0
1.824611440E-1,-3.331830978E0,2.384325504E0,8.212111473E0
2.025215600E-1,-3.429993153E0,2.417844534E0,8.846575737E0
2.225819770E-1,-3.477877140E0,2.413056135E0,9.512163162E0
2.426423940E-1,-3.236062765E0,2.482487917E0,9.873687744E0
2.627028100E-1,-2.580051661E0,2.468122721E0,9.751583099E0
2.827632270E-1,-1.988683820E0,2.527977705E0,9.210494041E0
3.028235390E-1,-1.627159357E0,2.640505314E0,9.002198219E0
3.228834350E-1,-1.624765158E0,2.750638485E0,9.157821655E0
3.429433310E-1,-2.122759104E0,2.951751471E0,9.464279175E0
3.630032270E-1,-2.292747498E0,3.030760050E0,9.531316757E0
3.830631230E-1,-2.192190886E0,2.994847059E0,9.629479408E0
4.031234870E-1,-1.991078019E0,2.944568872E0,9.677363396E0
4.231839040E-1,-1.665466547E0,2.855983257E0,9.301473618E0
4.432443210E-1,-1.430834770E0,2.810493469E0,8.772355080E0
4.633047370E-1,-1.459565163E0,2.851194859E0,8.566453934E0
4.833651540E-1,-1.339855075E0,2.836829662E0,8.559270859E0
5.034254660E-1,-1.011849523E0,2.815281868E0,8.506598473E0
5.234853620E-1,-9.950900674E-1,2.858377457E0,8.552088737E0
5.435452580E-1,-1.062127709E0,2.879925251E0,8.609549522E0
5.636051540E-1,-1.265634894E0,2.997241259E0,8.571242332E0
5.836650500E-1,-1.330278277E0,3.073855639E0,8.588001251E0
6.037253620E-1,-1.490689874E0,3.162441254E0,8.652645111E0
6.237857790E-1,-1.627159357E0,3.145681858E0,8.655038834E0
6.438461960E-1,-1.655889750E0,3.061884642E0,8.659827232E0
6.639066120E-1,-1.562515855E0,2.985270262E0,8.633491516E0
6.839670290E-1,-1.600823164E0,3.049913645E0,8.746018410E0
7.040271850E-1,-1.531391263E0,3.049913645E0,9.028534889E0
7.240870810E-1,-1.440411568E0,3.049913645E0,9.021351814E0
7.441469770E-1,-1.610399961E0,3.061884642E0,9.435548782E0
7.642072370E-1,-1.459565163E0,2.858377457E0,9.785101891E0
7.842678100E-1,-1.466747761E0,2.590226889E0,1.019929886E1
8.043277060E-1,-1.502660871E0,2.310105324E0,1.052012253E1
8.243876020E-1,-1.265634894E0,2.085050344E0,1.080982113E1
8.444474980E-1,-1.102829099E0,2.101809740E0,1.114261436E1
8.645083310E-1,-1.359008789E0,2.231096745E0,1.103487587E1
8.845686440E-1,-1.584063649E0,2.211943150E0,1.141794777E1
9.046285390E-1,-1.397315979E0,2.027589560E0,1.177468395E1
9.246884350E-1,-1.145924807E0,1.723526001E0,1.153286934E1
9.447483310E-1,-7.149685025E-1,1.048361063E0,1.142273617E1
9.648083310E-1,-2.026093155E-1,1.888426542E-1,1.185369301E1
9.848687480E-1,3.767874837E-1,-4.863222241E-1,1.210029507E1
1.004929164E0,7.478887439E-1,-6.515221596E-1,1.118570995E1
1.024989581E0,7.574655414E-1,-2.660556734E-1,9.555258751E0
1.045049998E0,7.431003451E-1,3.133411407E-1,8.334216118E0
1.065110362E0,8.604162335E-1,7.634510398E-1,7.750030994E0
1.085170258E0,8.795698285E-1,1.079485655E0,7.845798969E0
1.105230154E0,6.736685038E-1,1.103427768E0,8.535328865E0
1.125277237E0,2.259527892E-1,9.166799784E-1,9.030928612E0
1.145333435E0,-1.164180562E-1,7.921814919E-1,9.732429504E0
1.165411039E0,-2.600701451E-1,6.126163602E-1,1.060631371E1
1.185470935E0,-1.547252834E-1,5.551555157E-1,1.094389629E1
1.205530831E0,2.115875781E-1,6.772598028E-1,1.053209305E1
1.225590727E0,4.438251257E-1,9.334393740E-1,9.181763649E0
1.245650623E0,5.419874191E-1,1.316511631E0,8.140285492E0
1.265711456E0,3.672106862E-1,1.608604312E0,7.762001991E0
1.285771873E0,6.793547422E-2,1.824082375E0,7.771578789E0
1.305831769E0,4.399345443E-2,1.840841889E0,8.061277390E0
1.325891664E0,2.235585898E-1,1.776198387E0,8.312667847E0
1.345951560E0,2.498947978E-1,1.814505577E0,8.312667847E0
1.366013904E0,4.638765752E-2,1.859995484E0,8.451532364E0
1.386067289E0,-2.050035149E-1,1.869572282E0,8.513781548E0
1.406132966E0,-5.473743677E-1,1.816899776E0,8.995016098E0
1.426192862E0,-9.352350235E-1,1.649305701E0,1.010113716E1
1.446252758E0,-1.375768185E0,1.460163713E0,1.112824917E1
1.466313435E0,-1.986289620E0,1.388337731E0,1.178426075E1
1.486373331E0,-2.680608034E0,1.510442019E0,1.168370438E1
1.506433227E0,-2.893692017E0,1.694795489E0,1.124556541E1
1.526493123E0,-2.716521025E0,1.986888170E0,1.040520096E1
1.546553019E0,-2.817077637E0,2.264615536E0,9.502586365E0
1.566614164E0,-2.742857218E0,2.396296740E0,9.988609314E0
1.586674112E0,-2.510619640E0,1.924638867E0,1.130063248E1
1.606734008E0,-2.632724047E0,1.543960810E0,1.248097324E1
1.626793904E0,-3.075651407E0,8.400655389E-1,1.356315231E1
1.646853800E0,-3.197755575E0,-1.945288852E-2,1.409227085E1
1.666913696E0,-2.704550028E0,-6.036381125E-1,1.374032402E1
1.686973904E0,-1.983895421E0,-6.180033088E-1,1.185369301E1
1.707034321E0,-1.849820137E0,-1.942296177E-1,8.858546257E0
1.727094737E0,-2.146701097E0,4.115034044E-1,6.327875137E0
1.747155154E0,-2.666242838E0,9.525930285E-1,5.159504890E0
1.767215571E0,-2.824260235E0,1.156100154E0,4.838681698E0
1.787271612E0,-2.833837032E0,1.022024870E0,5.226542473E0
1.807335779E0,-2.503437042E0,9.190741777E-1,6.330269337E0
1.827395675E0,-2.201767683E0,1.029207468E0,7.376535416E0
1.847455571E0,-1.924040318E0,1.215955138E0,8.058882713E0
1.867516196E0,-1.423652172E0,1.290175438E0,7.888894558E0
1.887576144E0,-1.370979786E0,1.383549333E0,8.458714485E0
1.907636039E0,-1.390133381E0,1.529595613E0,9.375694275E0
1.927695935E0,-1.684620142E0,1.804928780E0,9.387664795E0
1.947755831E0,-2.328660488E0,2.192789555E0,9.205705643E0
1.967816873E0,-2.359785080E0,2.475305319E0,9.291896820E0
1.987876769E0,-1.983895421E0,2.630928278E0,8.887276649E0
2.007936664E0,-1.667860746E0,2.834435463E0,8.365341187E0
2.027996560E0,-1.655889750E0,2.937386274E0,8.767566681E0
2.048056456E0,-1.373373985E0,2.836829662E0,9.758766174E0
2.068117498E0,-6.479308605E-1,2.791339874E0,1.016578007E1
2.088176404E0,-2.169745266E-1,2.765003681E0,1.029506683E1
2.108236716E0,-3.486556113E-1,2.748244286E0,1.068053341E1
2.128297133E0,-9.726444632E-2,2.427421331E0,1.182975101E1
2.148357550E0,4.486135542E-1,1.919850469E0,1.280419064E1
2.168417966E0,4.270657301E-1,1.632546306E0,1.298136139E1
2.188476821E0,3.600280881E-1,1.819293976E0,1.356554699E1
2.208537758E0,4.414309263E-1,1.974917173E0,1.333330917E1
2.228598487E0,4.270657301E-1,2.381931305E0,1.231816769E1
2.248658383E0,1.972223669E-1,2.113780737E0,1.119049835E1
2.268718644E0,3.049614429E-1,1.113004565E0,1.118810463E1
2.288777550E0,6.066308618E-1,3.947440088E-1,1.142513084E1
2.308838331E0,7.383119464E-1,3.636193871E-1,1.037168217E1
2.328899112E0,3.672106862E-1,7.969698906E-1,8.777143478E0
2.348959008E0,3.202244639E-2,1.175253749E0,7.785943985E0
2.369019008E0,-2.720411718E-1,1.378760934E0,7.453149796E0
2.389077654E0,-6.718728542E-1,1.282992840E0,7.738059998E0
2.409139581E0,-6.838438511E-1,1.060332060E0,8.540117264E0
2.429199477E0,-6.383540034E-1,8.975263834E-1,8.853757858E0
2.449259373E0,-6.479308605E-1,9.094973803E-1,8.346187592E0
2.469319581E0,-7.772177458E-1,1.089062452E0,7.948749542E0
2.489377706E0,-9.352350235E-1,1.302146435E0,7.615955830E0
2.509440206E0,-1.045368314E0,1.699583888E0,7.687781811E0
2.529500102E0,-1.047762513E0,1.996464968E0,7.343016624E0
2.549559998E0,-1.028608918E0,2.441786528E0,6.773196697E0
2.569620466E0,-1.059733510E0,2.721908092E0,6.976703644E0
2.589679841E0,-8.155249357E-1,2.942174673E0,7.513004780E0
2.609739581E0,-7.987655401E-1,3.138499260E0,8.118738174E0
2.629799998E0,-6.479308605E-1,3.315670013E0,8.901641846E0
2.649860414E0,-7.820061445E-1,3.277362823E0,9.842563629E0
2.669920935E0,-1.533785462E0,3.107374430E0,1.066616821E1
2.689979841E0,-2.108393908E0,2.736273289E0,1.174116516E1
2.710041300E0,-2.323872089E0,2.475305319E0,1.261744308E1
2.730101300E0,-2.371756077E0,2.592621088E0,1.254561710E1
2.750161196E0,-2.481889248E0,2.824858665E0,1.187284660E1
2.770221091E0,-2.350208282E0,3.140893459E0,1.120965195E1
2.790280987E0,-2.410063267E0,3.219902039E0,1.043153667E1
2.810340883E0,-3.279158592E0,2.709937096E0,1.035971069E1
2.830400831E0,-3.858555317E0,1.740285397E0,1.178665543E1
2.850461248E0,-3.719691515E0,7.012017965E-1,1.329260826E1
2.870521664E0,-2.987065792E0,5.455787182E-1,1.213142014E1
2.890582081E0,-2.769193649E0,8.735843301E-1,9.184157372E0
2.910642498E0,-2.508225441E0,1.213560939E0,6.354211330E0
2.930702446E0,-1.895309925E0,1.498471022E0,4.697423935E0
2.950762341E0,-1.698985338E0,1.338059425E0,4.896142483E0
2.970822237E0,-1.574486852E0,1.007659674E0,6.646304131E0
2.990882133E0,-1.378162384E0,1.215955138E0,8.714894295E0
3.010942029E0,-1.272817492E0,1.690007091E0,9.308655739E0
3.031001925E0,-9.088988304E-1,2.159270763E0,8.360552788E0
3.051062341E0,-5.210381746E-1,2.480093718E0,7.501033783E0
3.071122966E0,-9.965864569E-2,2.516006708E0,7.419631004E0
3.091182237E0,-3.740940243E-2,2.391508341E0,8.267178535E0
3.111243644E0,-2.457049489E-1,2.338835716E0,9.289502144E0
3.131303539E0,-5.186439157E-1,2.525583506E0,9.763554573E0
3.151363435E0,-6.000468135E-1,2.915838480E0,9.217676163E0
3.171423904E0,-4.492121041E-1,3.217507839E0,8.566453934E0
3.191483800E0,-3.558382392E-1,3.382707834E0,8.734047890E0
3.211543696E0,-1.786673069E-1,3.437774420E0,9.411606789E0
3.231603591E0,1.708861440E-1,3.579032183E0,1.007480049E1
3.251663487E0,1.900397539E-1,3.380313635E0,1.038365269E1
3.271724477E0,4.486135542E-1,3.234267235E0,1.102769279E1
3.291784373E0,8.604162335E-1,3.064278841E0,1.126950741E1
3.311844269E0,5.755062103E-1,2.908655882E0,1.106599998E1
3.331904164E0,5.563526154E-1,2.834435463E0,1.216493893E1
3.351964060E0,8.939350843E-1,2.834435463E0,1.298614979E1
3.372024998E0,8.077437878E-1,2.906261683E0,1.212902546E1
3.392084894E0,4.701613486E-1,2.314893723E0,1.194946098E1
3.412144789E0,3.648164868E-1,1.160888553E0,1.318247414E1
3.432204685E0,2.953846455E-1,4.040215537E-2,1.359906578E1
3.452264581E0,2.834136188E-1,1.385644227E-1,1.108275986E1
3.472324477E0,4.749497473E-1,8.424597383E-1,8.161833763E0
3.492384373E0,5.994482636E-1,1.529595613E0,6.069301128E0
3.512444789E0,5.443816185E-1,1.678036094E0,5.449203014E0
3.532505206E0,1.828571558E-1,1.383549333E0,6.440402508E0
3.552565623E0,-2.385223508E-1,9.454103708E-1,8.195352554E0
3.572626039E0,-7.389104962E-1,5.671265125E-1,9.761159897E0
3.592685987E0,-1.155501604E0,5.192424655E-1,1.010831928E1
3.612745883E0,-1.141136408E0,8.424597383E-1,8.973467827E0
3.632805779E0,-1.040579915E0,1.302146435E0,7.553706169E0
3.652865675E0,-8.562263846E-1,1.694795489E0,6.938396454E0
3.672925571E0,-8.658031821E-1,1.946186662E0,6.928819656E0
3.692985466E0,-1.021426320E0,2.111386538E0,7.524975777E0
3.713045623E0,-1.031003118E0,2.211943150E0,8.008605003E0
3.733106039E0,-9.807248712E-1,2.264615536E0,8.250418663E0
3.753166456E0,-9.065046310E-1,2.288557529E0,8.844181061E0
3.773226873E0,-7.269394994E-1,2.341229916E0,9.404424667E0
3.793287029E0,-8.298901916E-1,2.312499523E0,9.995792389E0
3.813346925E0,-1.153107405E0,2.008435965E0,1.106121159E1
3.833406821E0,-1.895309925E0,1.606210113E0,1.214099693E1
3.853466716E0,-2.496254444E0,1.488894224E0,1.294305420E1
3.873527446E0,-2.762011051E0,1.436221719E0,1.297417927E1
3.893587341E0,-1.998260617E0,1.620575309E0,1.296939087E1
3.913647237E0,-1.361402988E0,1.711554885E0,1.231577396E1
3.933707133E0,-1.818695426E0,1.333271027E0,1.158075333E1
3.953767029E0,-2.065298319E0,4.665700495E-1,1.247379112E1
3.973827914E0,-1.837849021E0,-4.025251567E-1,1.374990082E1
3.993887810E0,-2.132335901E0,-4.863222241E-1,1.266772079E1
4.013947706E0,-2.805106640E0,1.265934110E-1,9.425971985E0
4.034007602E0,-2.515408278E0,7.299322486E-1,6.921637058E0
4.054067498E0,-2.180219889E0,1.079485655E0,6.062118530E0
4.074128071E0,-2.072480917E0,1.196801543E0,6.088454723E0
4.094187237E0,-1.928828716E0,1.366789937E0,6.665457726E0
4.114247654E0,-1.526602864E0,1.587056398E0,7.335834026E0
4.134308071E0,-1.004666924E0,1.819293976E0,7.431602001E0
4.154368487E0,-4.970961213E-1,1.962946177E0,6.979097843E0
4.174427289E0,-6.853402406E-2,2.061108351E0,6.794744492E0
4.194486925E0,4.399345443E-2,2.240673542E0,7.340622425E0
4.214549060E0,-1.451484710E-1,2.420238733E0,8.288725853E0
4.234608956E0,-3.893570602E-1,2.592621088E0,9.105149269E0
4.254668852E0,-5.282207727E-1,2.640505314E0,9.861717224E0
4.274728748E0,-8.777741790E-1,2.659658909E0,1.036210537E1
4.294788644E0,-7.484872937E-1,2.805705070E0,1.093910789E1
4.314848539E0,-1.523310840E-1,3.023577452E0,1.077630138E1
4.334908435E0,4.399345443E-2,3.193565845E0,1.032379818E1
4.354968435E0,-1.547252834E-1,2.958934069E0,1.076433086E1
4.375029685E0,1.780687571E-1,2.812887669E0,1.183214474E1
4.395089581E0,7.311293483E-1,2.465728521E0,1.254801083E1
4.415149477E0,8.125321865E-1,2.278980732E0,1.273475838E1
4.435209373E0,9.490016699E-1,2.709937096E0,1.319683933E1
4.455269269E0,1.063923359E0,3.095403433E0,1.221521664E1
4.475329946E0,7.502829432E-1,2.650082111E0,1.084333992E1
4.495361821E0,1.188421845E0,1.041178465E0,1.219127464E1
4.515450206E0,1.727117300E0,-3.474585116E-1,1.335246277E1
4.535510102E0,1.296160936E0,-3.043628931E-1,1.156399441E1
4.555569998E0,6.976104975E-1,6.628946066E-1,8.552088737E0
4.575630154E0,2.498947978E-1,1.338059425E0,6.631938934E0
4.595688800E0,2.546831965E-1,1.558326006E0,6.289567947E0
4.615750675E0,-1.107318327E-2,1.263839245E0,7.048529625E0
4.635810571E0,-7.532756925E-1,1.017236471E0,8.597578049E0
4.655870466E0,-1.550544858E0,8.137292862E-1,9.744400978E0
4.675930362E0,-1.742081046E0,7.778162956E-1,9.466673851E0
4.695990258E0,-1.047762513E0,1.017236471E0,8.238448143E0
4.716050154E0,-4.037222564E-1,1.409885526E0,6.885724068E0
4.736110050E0,-2.543839253E-2,1.819293976E0,6.421248913E0
4.756169946E0,-1.164180562E-1,2.113780737E0,6.471527100E0
4.776230987E0,-3.486556113E-1,2.379537106E0,6.885724068E0
4.796291144E0,-7.125743032E-1,2.544737101E0,7.297526836E0
4.816351039E0,-8.251017332E-1,2.587832689E0,7.967903137E0
4.836410935E0,-4.947019219E-1,2.535160303E0,8.913613319E0
4.856470831E0,-1.403600723E-1,2.628534079E0,9.691728592E0
4.876530727E0,-1.666962951E-1,2.662053108E0,1.018493366E1
4.896590623E0,-9.065046310E-1,2.298134327E0,1.091995430E1
4.916650519E0,-1.840243340E0,2.037166357E0,1.205241108E1
4.936710571E0,-2.307112694E0,2.018012762E0,1.304839897E1
4.956770987E0,-2.714126825E0,2.077867746E0,1.304600525E1
4.976831404E0,-2.639906645E0,2.539948702E0,1.281616211E1
4.996891821E0,-2.357390881E0,2.645293713E0,1.166694450E1
5.016951873E0,-2.522590876E0,2.238279343E0,1.073320580E1
5.037011769E0,-2.343025684E0,9.717466235E-1,1.227267838E1
5.057071664E0,-1.502660871E0,-1.343745738E-1,1.392946529E1
5.077131144E0,-1.382950783E0,-1.128267571E-1,1.253843403E1
5.097189998E0,-2.192190886E0,7.371148467E-1,8.973467827E0
5.117252237E0,-2.422034264E0,1.359607339E0,5.908889771E0
5.137312133E0,-2.273593903E0,1.694795489E0,4.893748283E0
5.157372029E0,-2.165854692E0,1.613392711E0,5.281609058E0
5.177431925E0,-1.924040318E0,1.436221719E0,6.330269337E0
5.197491821E0,-1.349431992E0,1.488894224E0,8.216899872E0
5.217551716E0,-8.849567771E-1,1.488894224E0,9.093177795E0
5.237611612E0,-6.096236110E-1,1.771409988E0,8.449137688E0
5.257671508E0,-1.906383038E-1,2.108992338E0,7.783549786E0
5.277732602E0,1.589151323E-1,2.401085138E0,7.335834026E0
5.297792498E0,1.876455545E-1,2.614168882E0,7.721300602E0
5.317852394E0,-6.853402406E-2,2.762609482E0,8.607154846E0
5.337912289E0,-4.156932831E-1,2.954145670E0,9.330204010E0
5.357972185E0,-6.120178103E-1,3.025971651E0,9.938331604E0
5.378032810E0,-6.622960567E-1,3.035548449E0,1.047463226E1
5.398092706E0,-2.433107495E-1,3.148076057E0,1.075235939E1
5.418152602E0,3.959411085E-1,3.258209229E0,1.087446404E1
5.438212498E0,4.055179060E-1,3.002029657E0,1.103726959E1
5.458272394E0,4.510077536E-1,2.834435463E0,1.176510715E1
5.478332289E0,7.574655414E-1,2.664447308E0,1.193509579E1
5.498392185E0,6.952162981E-1,2.410661936E0,1.163821411E1
5.518452081E0,9.011176825E-1,2.556708097E0,1.253604031E1
5.538511977E0,1.224334836E0,2.844012260E0,1.255040550E1
5.558572029E0,9.035118818E-1,2.650082111E0,1.167173290E1
5.578633019E0,8.843582273E-1,1.311723232E0,1.288798809E1
5.598692394E0,1.018433571E0,-3.330933154E-1,1.446816063E1
5.618752081E0,8.268973827E-1,-8.526350856E-1,1.307712936E1
5.638812498E0,6.616975069E-1,1.553238332E-1,8.954314232E0
5.658872914E0,5.324106216E-1,1.309329033E0,5.477933407E0
5.678931925E0,4.079121053E-1,2.085050344E0,4.132391930E0
5.698990258E0,4.127005041E-1,1.915062070E0,5.046977043E0
5.719053383E0,-2.289455384E-1,1.546355009E0,6.720524311E0
5.739113279E0,-1.222539186E0,1.390731931E0,8.537723541E0
5.759173175E0,-2.015019894E0,1.292569637E0,9.524134636E0
5.779233071E0,-1.847425938E0,1.328482628E0,9.471462250E0
5.799292966E0,-1.272817492E0,1.587056398E0,8.547300339E0
5.819352862E0,-9.879074693E-1,1.915062070E0,7.910442352E0
5.839412758E0,-1.069310308E0,2.226308346E0,7.441178799E0
5.859472654E0,-1.066916108E0,2.554313898E0,7.235277653E0
5.879532550E0,-8.729857802E-1,2.688389301E0,7.259219646E0
5.899592446E0,-8.873509765E-1,2.726696491E0,7.666234016E0
5.919652446E0,-7.460930943E-1,2.652476311E0,8.480262756E0
5.939712862E0,-3.462614119E-1,2.664447308E0,9.069235802E0
5.959773279E0,1.765723713E-2,2.645293713E0,9.560047150E0
5.979833175E0,-4.109048545E-1,2.398690939E0,1.035013390E1
5.999892550E0,-1.433228970E0,2.056319952E0,1.174355888E1
6.019953487E0,-2.129941702E0,1.809717178E0,1.303164005E1
6.040013644E0,-2.692579031E0,1.728314400E0,1.312740803E1
6.060073539E0,-2.726097822E0,1.876754880E0,1.302445698E1
6.080133383E0,-2.144306898E0,2.097021341E0,1.269405746E1
6.100192498E0,-1.974318624E0,2.104203939E0,1.144188976E1
6.120252862E0,-2.204161882E0,1.115398765E0,1.135809326E1
6.140313279E0,-1.897704124E0,-1.702875942E-1,1.288559341E1
6.160373696E0,-1.639130354E0,-6.132149100E-1,1.372116947E1
6.180432029E0,-2.256834269E0,-3.621229902E-2,1.090798283E1
6.200491769E0,-2.608782053E0,6.245873570E-1,7.141903877E0
6.220553748E0,-2.472312450E0,1.242291451E0,4.946420670E0
6.240613644E0,-2.122759104E0,1.287781239E0,4.589684486E0
6.260673539E0,-1.734898448E0,1.165676951E0,5.489904404E0
6.280731821E0,-1.359008789E0,1.390731931E0,7.194576263E0
6.300792237E0,-1.057339311E0,1.711554885E0,8.169015884E0
6.320853800E0,-8.059481382E-1,1.958157659E0,8.085219383E0
6.340913696E0,-3.510498106E-1,2.034772158E0,7.659051418E0
6.360973591E0,1.900397539E-1,1.979705572E0,7.687781811E0
6.381032133E0,3.001730442E-1,1.895908475E0,8.614337921E0
6.401091873E0,3.073556423E-1,1.804928780E0,9.801861763E0
6.421153748E0,-1.496376004E-3,2.065896749E0,1.054645824E1
6.441213644E0,-5.976526141E-1,2.506429911E0,1.072841740E1
6.461273539E0,-1.179443598E0,2.846406460E0,1.069968700E1
6.481333435E0,-9.376292229E-1,3.035548449E0,1.091037750E1
6.501393331E0,-1.523310840E-1,3.116951227E0,1.089601231E1
6.521453227E0,-3.262099996E-2,3.104980230E0,1.033816338E1
6.541513123E0,-2.097919285E-1,2.851194859E0,1.081460953E1
6.561573019E0,-7.092822343E-2,2.563890696E0,1.221042824E1
6.581632394E0,1.062427014E-1,2.008435965E0,1.307712936E1
6.601691925E0,2.642600238E-1,1.654094100E0,1.369962215E1
6.621753696E0,1.030404568E0,2.094627142E0,1.387918758E1
6.641813591E0,1.061529160E0,2.846406460E0,1.202368069E1
6.661873487E0,7.646481395E-1,2.484882116E0,1.084573364E1
6.681933383E0,9.226654768E-1,9.549872279E-1,1.208114147E1
6.701993279E0,1.197998643E0,-2.181716263E-1,1.290953541E1
6.722053175E0,6.257844567E-1,-1.870470047E-1,1.082658005E1
6.742113071E0,2.067991644E-1,7.993640900E-1,7.630321026E0
6.762172966E0,2.020107657E-1,1.682824492E0,5.298368454E0
6.782232862E0,5.156511664E-1,2.073079348E0,4.704606533E0
6.802292758E0,4.749497473E-1,1.713949084E0,5.635950565E0
6.822352654E0,-3.510498106E-1,1.306934834E0,7.216124058E0
6.842412550E0,-1.469141960E0,9.454103708E-1,9.054870605E0
6.862472446E0,-2.015019894E0,6.245873570E-1,1.024957752E1
6.882532341E0,-1.509843469E0,6.605004072E-1,1.017535686E1
6.902592394E0,-7.700351477E-1,1.000477076E0,8.817844391E0
6.922652810E0,-4.013280571E-1,1.570297003E0,7.182605267E0
6.942713227E0,-3.151367903E-1,2.209548950E0,6.040570736E0
6.962773435E0,-3.845686615E-1,2.685995102E0,5.700594425E0
6.982826612E0,-5.425859690E-1,2.863165855E0,6.282385349E0
7.002889894E0,-7.604582906E-1,2.899079084E0,7.412448406E0
7.022953331E0,-7.820061445E-1,2.820070267E0,8.913613319E0
7.043013227E0,-6.694786549E-1,2.712331295E0,1.038365269E1
7.063073123E0,-4.683656991E-1,2.743455887E0,1.107078838E1
7.083130779E0,-9.831190705E-1,2.697966099E0,1.061349583E1
7.103192185E0,-1.277605891E0,2.501641512E0,1.110670185E1
7.123253175E0,-1.655889750E0,2.401085138E0,1.215536213E1
7.143313071E0,-2.486677647E0,2.429815531E0,1.300769806E1
7.163372966E0,-2.975094795E0,2.563890696E0,1.363976669E1
7.183432862E0,-2.565686464E0,2.705148697E0,1.329500198E1
7.203492758E0,-2.264016867E0,2.604592085E0,1.153526402E1
7.223552654E0,-2.374150276E0,1.958157659E0,1.075475407E1
7.243612550E0,-2.412457466E0,7.131728530E-1,1.191594219E1
7.263672446E0,-2.067692518E0,8.110358566E-2,1.275391293E1
7.283732185E0,-2.575263262E0,5.096656680E-1,1.058716011E1
7.303791873E0,-3.250428200E0,1.005265474E0,7.117961884E0
7.323852289E0,-2.864961624E0,1.414673924E0,5.209783077E0
7.343912706E0,-2.168248892E0,1.433827519E0,5.279214859E0
7.363972810E0,-1.976712823E0,1.261445045E0,6.045359135E0
7.384030727E0,-1.792359233E0,1.508047819E0,7.153874874E0
7.404091560E0,-1.313518882E0,1.534384012E0,8.250418663E0
7.424152706E0,-7.700351477E-1,1.658882499E0,8.719682693E0
7.444212602E0,-4.540005028E-1,1.982099771E0,8.135497093E0
7.464272498E0,-1.523310840E-1,2.226308346E0,7.788338184E0
7.484331769E0,1.804629564E-1,2.391508341E0,8.061277390E0
7.504391456E0,2.546831965E-1,2.539948702E0,8.746018410E0
7.524451873E0,1.182137057E-1,2.839223862E0,9.169792175E0
7.544512289E0,3.202244639E-2,3.143287659E0,8.963891029E0
7.564572394E0,-2.289455384E-1,3.217507839E0,8.599972725E0
7.584631300E0,-4.611831009E-1,3.028365850E0,9.715670586E0
7.604691456E0,3.292027395E-3,2.803310871E0,1.134851646E1
7.624752289E0,7.933785915E-1,2.757821083E0,1.153765774E1
7.644812185E0,5.036801696E-1,2.427421331E0,1.155920601E1
7.664872081E0,5.515642166E-1,2.537554502E0,1.209071827E1
7.684928591E0,9.681553245E-1,2.609380484E0,1.180820274E1
7.704990779E0,9.609727263E-1,2.621351480E0,1.159033012E1
7.725051977E0,9.849147201E-1,2.867954254E0,1.308431244E1
7.745111873E0,9.035118818E-1,3.459322214E0,1.317529202E1
7.765171769E0,5.300164223E-1,3.495235205E0,1.180580902E1
7.785231664E0,4.845265746E-1,2.314893723E0,1.197819138E1
7.805291560E0,8.843582273E-1,6.892307997E-1,1.324951267E1
7.825351456E0,1.272218943E0,-3.426701128E-1,1.271799946E1
7.845411352E0,1.504456520E0,4.040215537E-2,9.684545517E0
7.865471248E0,1.439813018E0,8.999205828E-1,6.665457726E0
7.885531144E0,9.777321219E-1,1.531989813E0,5.343858242E0
7.905591039E0,4.174889326E-1,1.814505577E0,5.449203014E0
7.925650935E0,-1.307832748E-1,1.752256393E0,6.323086739E0
7.945710831E0,-7.006032467E-1,1.582268000E0,7.307103634E0
7.965770727E0,-9.735422730E-1,1.304540634E0,8.319850922E0
7.985830623E0,-1.157895803E0,1.287781239E0,9.095572472E0
8.005890519E0,-1.100434899E0,1.531989813E0,9.124302864E0
8.025950414E0,-9.496002197E-1,1.924638867E0,8.233659744E0
8.046010310E0,-5.234323740E-1,2.240673542E0,7.551311970E0
8.066070206E0,-3.414730132E-1,2.520795107E0,7.151480675E0
8.086130102E0,-4.803367257E-1,2.690783501E0,7.309497833E0
8.106189998E0,-9.400234222E-1,2.829647064E0,8.063671112E0
8.126249894E0,-1.069310308E0,2.678812504E0,8.743624687E0
8.146309789E0,-7.628524899E-1,2.786551476E0,9.210494041E0
8.166369685E0,-6.024410129E-1,2.879925251E0,9.260771751E0
8.186430466E0,-1.047762513E0,2.384325504E0,1.038365269E1
8.206490362E0,-1.380556583E0,1.891120076E0,1.169806957E1
8.226550258E0,-2.117970705E0,1.821688175E0,1.210508347E1
8.246610154E0,-2.809895039E0,1.919850469E0,1.209790134E1
8.266670050E0,-2.469918251E0,2.164059162E0,1.261744308E1
8.286726300E0,-1.789965034E0,2.329258919E0,1.221521664E1
8.306789894E0,-2.041356325E0,2.111386538E0,1.118810463E1
8.326849946E0,-2.501042843E0,8.424597383E-1,1.171004009E1
8.346909841E0,-2.082057714E0,-2.828150690E-1,1.351287460E1
8.366969737E0,-2.208950281E0,-5.796960592E-1,1.460702419E1
8.387029633E0,-3.221697569E0,1.720832437E-1,1.180580902E1
8.407089529E0,-3.441964149E0,8.999205828E-1,8.202534676E0
8.427149425E0,-2.972700596E0,1.610998511E0,6.351817131E0
8.447209321E0,-2.623147249E0,1.883937478E0,5.401319027E0
8.467269216E0,-2.594416857E0,1.974917173E0,5.604825974E0
8.487329112E0,-2.290353298E0,1.927033067E0,6.806715488E0
8.507389008E0,-1.687014341E0,1.757044792E0,8.281543732E0
8.527448904E0,-1.090858102E0,1.678036094E0,8.154650688E0
8.547508800E0,-8.586205840E-1,1.800140381E0,7.450755596E0
8.567568696E0,-4.468179047E-1,1.917456269E0,7.354987621E0
8.587626404E0,-1.571194828E-1,2.020406961E0,7.891288757E0
8.607687914E0,-7.092822343E-2,2.319682121E0,8.207323074E0
8.627748644E0,-7.269394994E-1,2.973299265E0,8.015787125E0
8.647808539E0,-1.284788489E0,3.365948200E0,8.391676903E0
8.667868435E0,-1.418863773E0,3.485658407E0,8.951920509E0
8.687928331E0,-9.711480737E-1,3.456928015E0,9.567230225E0
8.707988227E0,1.637035459E-1,3.392284632E0,1.008198357E1
8.728048123E0,7.000046968E-1,3.143287659E0,1.028309631E1
8.748108019E0,1.349731237E-1,3.045125246E0,1.047223854E1
8.768167914E0,-3.773860335E-1,2.901473284E0,1.143470764E1
8.788227810E0,-4.827309251E-1,2.429815531E0,1.247379112E1
8.808287706E0,-3.740940243E-2,2.137722731E0,1.345541382E1
8.828347602E0,9.681553245E-1,2.516006708E0,1.336443424E1
8.848407498E0,1.300949335E0,2.930203676E0,1.156159973E1
8.868467394E0,8.245031834E-1,2.408267736E0,1.094150162E1
8.888527289E0,3.384802639E-1,7.897872925E-1,1.275391293E1
8.908587185E0,-1.379658729E-1,-4.695627987E-1,1.423592377E1
8.928647081E0,-3.151367903E-1,-2.062006146E-1,1.210747814E1
8.948706977E0,-1.346738450E-2,7.131728530E-1,8.185775757E0
8.968766873E0,3.265092671E-1,1.570297003E0,5.027823448E0
8.988826769E0,3.169324398E-1,1.824082375E0,4.343081951E0
9.008886664E0,-3.414730132E-1,1.567902803E0,5.700594425E0
9.028946560E0,-1.320701480E0,1.211166739E0,7.778761387E0
9.049006456E0,-1.617582560E0,7.203554511E-1,1.016099167E1
9.069066352E0,-1.047762513E0,3.037643433E-1,1.120965195E1
9.089126144E0,-3.893570602E-1,4.450222552E-1,1.007240677E1
9.109185519E0,-1.140238568E-1,8.879495263E-1,8.401253700E0
9.129244894E0,-1.523310840E-1,1.393126130E0,6.983886242E0
9.149304633E0,-3.414730132E-1,1.883937478E0,6.418854713E0
9.169364529E0,-5.761047602E-1,2.257432938E0,6.495469093E0
9.189424425E0,-7.652466893E-1,2.537554502E0,7.220912457E0
9.209484321E0,-7.748235464E-1,2.635716915E0,8.054094315E0
9.229544216E0,-6.838438511E-1,2.444180727E0,9.054870605E0
9.249604112E0,-4.923077226E-1,2.269403934E0,9.923966408E0
9.269664008E0,-4.396352768E-1,2.223914146E0,1.069011021E1
9.289723904E0,-6.503250599E-1,1.895908475E0,1.176031876E1
9.309783800E0,-8.801683784E-1,1.577479601E0,1.252885723E1
9.329843696E0,-1.031003118E0,1.663670897E0,1.264138508E1
9.349903591E0,-1.284788489E0,1.804928780E0,1.219127464E1
9.369963487E0,-1.323095679E0,1.979705572E0,1.203325748E1
9.390024425E0,-9.879074693E-1,2.166453362E0,1.202846909E1
9.410083852E0,-8.681973815E-1,1.855207086E0,1.162863731E1
9.430143227E0,-1.809118629E0,9.813234210E-1,1.121922874E1
9.450202758E0,-2.824260235E0,1.218050122E-1,1.250491524E1
9.470262654E0,-3.226485968E0,-4.504092038E-1,1.391270638E1
9.490322550E0,-3.796306133E0,-2.325368375E-1,1.245942593E1
9.510382446E0,-3.813065529E0,1.265934110E-1,8.597578049E0
9.530442341E0,-3.224091768E0,5.360019207E-1,6.366182327E0
9.550502237E0,-2.685396433E0,5.551555157E-1,6.387730122E0
9.570562133E0,-2.685396433E0,5.695207119E-1,7.161057472E0
9.590622966E0,-2.764405251E0,8.328829408E-1,7.706935406E0
9.610682341E0,-2.223315477E0,1.338059425E0,7.060500622E0
9.630741716E0,-1.337460876E0,1.656488299E0,6.009446144E0
9.650801456E0,-7.844003439E-1,1.898302674E0,5.437232018E0
9.670862185E0,-5.162497163E-1,1.977311373E0,5.904101372E0
9.690922133E0,-2.217629254E-1,1.929427266E0,6.986280441E0
9.710981508E0,1.756745428E-1,2.046743155E0,7.879317760E0
9.731040883E0,1.708861440E-1,2.223914146E0,8.671798706E0
9.751100779E0,1.110311002E-1,2.381931305E0,9.651026726E0
9.771161300E0,-6.853402406E-2,2.482487917E0,1.063743782E1
9.791221716E0,-3.342904150E-1,2.774580479E0,1.129584408E1
9.811281091E0,2.962824516E-2,2.939780474E0,1.142034245E1
9.831340466E0,3.384802639E-1,2.832041264E0,1.165257931E1
9.851399998E0,1.182137057E-1,2.681206703E0,1.218409252E1
9.871459894E0,8.080430329E-3,2.664447308E0,1.259350109E1
9.891519789E0,4.390367270E-1,2.542342901E0,1.271321106E1
9.911579685E0,7.718307972E-1,2.391508341E0,1.320402241E1
9.931639581E0,9.777321219E-1,2.310105324E0,1.386482239E1
9.951699477E0,9.250596762E-1,2.001253366E0,1.354878712E1
9.971759373E0,9.274538755E-1,9.118915796E-1,1.340274143E1
9.991819269E0,1.006462574E0,-5.246294737E-1,1.443943024E1
1.001187916E1,1.118990064E0,-1.324292779E0,1.351047993E1
1.003193906E1,9.944915175E-1,-8.741828799E-1,1.000297451E1
1.005199896E1,6.976104975E-1,5.237316340E-2,6.342240334E0
1.007205885E1,2.427121997E-1,9.166799784E-1,4.091690540E0
1.009211875E1,2.498947978E-1,1.345242023E0,3.885789394E0
1.011217864E1,3.504512608E-1,1.249474049E0,4.999093056E0
1.013223854E1,-2.121861279E-1,9.789292216E-1,6.378153324E0
1.015229844E1,-1.031003118E0,7.658452392E-1,8.015787125E0
1.017235864E1,-1.608005762E0,7.371148467E-1,8.406042099E0
1.019241849E1,-1.449988365E0,8.280945420E-1,8.329427719E0
1.021247786E1,-7.891887426E-1,9.310451746E-1,8.116343498E0
1.023253724E1,-3.749918342E-1,1.165676951E0,7.958326340E0
1.025259703E1,-6.853402406E-2,1.385943532E0,8.025363922E0
1.027265807E1,-1.259948611E-1,1.704372287E0,7.982268333E0
1.029271786E1,-6.407482028E-1,1.974917173E0,8.470685959E0
1.031277724E1,-1.356614590E0,2.140116930E0,9.414001465E0
1.033283661E1,-1.835454822E0,2.125751734E0,1.041238308E1
1.035289625E1,-1.505055070E0,2.197577953E0,1.086728191E1
1.037295729E1,-7.963713408E-1,2.056319952E0,1.135091019E1
1.039301719E1,-1.095646501E0,1.740285397E0,1.164779091E1
1.041307656E1,-1.897704124E0,1.608604312E0,1.206917095E1
1.043313594E1,-2.659060240E0,1.584662199E0,1.225831223E1
1.045319547E1,-2.824260235E0,1.505653620E0,1.240675354E1
1.047325536E1,-2.522590876E0,1.534384012E0,1.276348972E1
1.049331526E1,-2.144306898E0,1.587056398E0,1.259110641E1
1.051337515E1,-2.580051661E0,1.192013144E0,1.213381386E1
1.053343505E1,-2.668637037E0,1.026513949E-1,1.339076996E1
1.055349495E1,-2.156277895E0,-1.159092903E0,1.527979565E1
1.057355484E1,-1.952770710E0,-1.446397066E0,1.437478733E1
1.059361474E1,-2.443582058E0,-7.448959947E-1,1.000536919E1
1.061367463E1,-2.350208282E0,2.295440882E-1,6.191405773E0
1.063373453E1,-1.892915726E0,1.122581363E0,4.539406300E0
1.065379443E1,-1.907280922E0,1.429039121E0,4.113238335E0
1.067385505E1,-1.821089625E0,1.682824492E0,4.601655483E0
1.069391443E1,-1.179443598E0,1.723526001E0,5.667075634E0
1.071397380E1,-4.994903207E-1,1.670853496E0,7.149086475E0
1.073403333E1,-3.127425909E-1,1.807322979E0,7.551311970E0
1.075409323E1,1.526303589E-2,1.831264973E0,7.455543995E0
1.077415312E1,4.725555480E-1,1.747467995E0,7.568071365E0
1.079421302E1,5.898714662E-1,1.840841889E0,8.214506149E0
1.081427291E1,2.522889972E-1,2.214337349E0,8.614337921E0
1.083433281E1,-2.552817464E-1,2.731484890E0,8.784325600E0
1.085439271E1,-5.880758166E-1,3.066673040E0,9.169792175E0
1.087445260E1,-4.324526787E-1,3.262997627E0,9.749189377E0
1.089451250E1,5.835866556E-2,3.330035210E0,1.031661510E1
1.091457239E1,7.047930956E-1,3.205536842E0,1.097023201E1
1.093463229E1,2.331353873E-1,2.939780474E0,1.122641182E1
1.095469218E1,-1.259948611E-1,2.990058661E0,1.179144382E1
1.097475286E1,4.821323752E-1,2.867954254E0,1.201410389E1
1.099481234E1,8.867524266E-1,2.539948702E0,1.234929276E1
1.101487172E1,1.162085652E0,2.544737101E0,1.373792934E1
1.103493120E1,1.032798767E0,3.002029657E0,1.342189503E1
1.105499109E1,5.419874191E-1,2.767397881E0,1.179862595E1
1.107505213E1,2.331353873E-1,9.166799784E-1,1.257913589E1
1.109511177E1,-2.241571397E-1,-8.262988329E-1,1.376187134E1
1.111517114E1,-3.821744323E-1,-1.192611694E0,1.186326981E1
1.113523052E1,-4.731540978E-1,-4.456208050E-1,7.347805023E0
1.115529036E1,-1.834557056E-1,4.450222552E-1,3.794809580E0
1.117535026E1,5.108627677E-1,7.538742423E-1,2.636016130E0
1.119541015E1,9.801263213E-1,5.647323132E-1,3.873818398E0
1.121547005E1,5.874772668E-1,4.905120730E-1,6.358999729E0
1.123552995E1,-4.132990539E-1,4.498106539E-1,9.282320023E0
1.125558984E1,-1.215356588E0,7.610568404E-1,1.076193619E1
1.127565073E1,-1.105223417E0,1.156100154E0,1.037886429E1
1.129571036E1,-4.994903207E-1,1.431433320E0,9.569623947E0
1.131576974E1,-1.547252834E-1,1.613392711E0,9.390059471E0
1.133582911E1,-6.135141850E-2,1.675641894E0,9.485827446E0
1.135588890E1,-2.648585737E-1,1.778592587E0,9.569623947E0
1.137594880E1,-4.635773003E-1,1.713949084E0,9.437943459E0
1.139600870E1,-7.149685025E-1,1.716343403E0,9.165003777E0
1.141606859E1,-6.862380505E-1,1.785775185E0,9.078812599E0
1.143612849E1,-2.337339371E-1,1.797746181E0,8.990227699E0
1.145618838E1,3.292027395E-3,1.601421714E0,8.896853447E0
1.147624828E1,-5.593453646E-1,1.443404317E0,9.191340446E0
1.149630818E1,-1.670254946E0,1.407491326E0,1.037407589E1
1.151636807E1,-2.407669067E0,8.999205828E-1,1.148738003E1
1.153642797E1,-2.436399460E0,6.030395627E-1,1.261983681E1
1.155648786E1,-2.208950281E0,4.258686304E-1,1.340992355E1
1.157654859E1,-2.393303871E0,5.431845188E-1,1.351526833E1
1.159660797E1,-3.678990126E0,7.921814919E-1,1.232295609E1
1.161666734E1,-3.963900089E0,7.754220963E-1,1.156159973E1
1.163672687E1,-3.262399197E0,2.917933464E-1,1.137724686E1
1.165678677E1,-2.778770447E0,3.181295395E-1,1.037168217E1
1.167684666E1,-2.479495049E0,4.426280260E-1,8.652645111E0
1.169690656E1,-2.177825689E0,5.695207119E-1,7.663839817E0
1.171696646E1,-2.192190886E0,6.389525533E-1,7.661445618E0
1.173702635E1,-2.072480917E0,8.280945420E-1,7.762001991E0
1.175708625E1,-1.572092652E0,8.185176849E-1,8.300697327E0
1.177714583E1,-4.061164558E-1,9.861118197E-1,8.020575523E0
1.179720177E1,4.438251257E-1,1.256656647E0,7.534552574E0
1.181726682E1,8.556278348E-1,1.565508604E0,7.395689011E0
1.183732625E1,1.087865353E0,1.699583888E0,7.752425194E0
1.185738562E1,1.174056649E0,1.778592587E0,8.418013573E0
1.187744635E1,1.028010368E0,2.006041765E0,8.923190117E0
1.189750599E1,9.705495238E-1,2.142511129E0,9.435548782E0
1.191756536E1,6.162076592E-1,2.353200912E0,9.576807022E0
1.193762474E1,-3.980360180E-2,2.614168882E0,9.703699112E0
1.195768453E1,-1.762731075E-1,2.824858665E0,9.646238327E0
1.197774443E1,3.025672436E-1,2.944568872E0,9.351752281E0
1.199780432E1,8.628104329E-1,2.949357271E0,9.210494041E0
1.201786422E1,1.202787042E0,2.611774683E0,1.008437729E1
1.203792411E1,1.535581112E0,2.106598139E0,1.175792408E1
1.205798401E1,1.456572413E0,1.864783883E0,1.345780754E1
1.207804390E1,8.053495884E-1,1.984493971E0,1.435323906E1
1.209810380E1,7.239467502E-1,2.681206703E0,1.443703651E1
1.211816370E1,1.066317558E0,3.270180225E0,1.243308926E1
1.213822359E1,1.212363839E0,2.276586533E0,1.082418633E1
1.215828349E1,6.784569025E-1,3.013701439E-1,1.272996998E1
1.217834338E1,4.079121053E-1,-1.511040568E0,1.465251446E1
1.219840328E1,5.994482636E-1,-1.554136157E0,1.238520527E1
1.221846318E1,5.228338242E-1,-7.999626398E-1,8.485051155E0
1.223852307E1,5.515642166E-1,-1.227028389E-2,5.839457989E0
1.225858297E1,4.031237066E-1,6.485294104E-1,5.133168221E0
1.227864286E1,-2.457049489E-1,8.999205828E-1,6.150704384E0
1.229870276E1,-1.110011816E0,6.724714041E-1,7.924807549E0
1.231876265E1,-1.825878024E0,3.755903840E-1,9.493009567E0
1.233882255E1,-2.077269316E0,3.396773636E-1,9.823410034E0
1.235888245E1,-1.737292647E0,5.982511640E-1,8.686163902E0
1.237894135E1,-1.454776764E0,1.038784266E0,7.314286232E0
1.239900041E1,-1.239298701E0,1.510442019E0,6.435614109E0
1.241906229E1,-8.801683784E-1,1.816899776E0,6.069301128E0
1.243912182E1,-7.628524899E-1,2.003647566E0,6.277596951E0
1.245918120E1,-1.102829099E0,2.161664963E0,6.952761650E0
1.247924057E1,-1.222539186E0,2.192789555E0,7.659051418E0
1.249930047E1,-1.335066676E0,2.298134327E0,8.346187592E0
1.251936036E1,-1.153107405E0,2.278980732E0,9.682151794E0
1.253942026E1,-9.567828774E-1,2.056319952E0,1.135330486E1
1.255948015E1,-1.172261000E0,1.369184136E0,1.325908947E1
1.257954005E1,-1.727715850E0,1.309329033E0,1.464293766E1
1.259959995E1,-2.850596428E0,2.068290949E0,1.387439919E1
1.261965984E1,-3.030161619E0,2.504035711E0,1.282095051E1
1.263971974E1,-2.378938675E0,2.844012260E0,1.278982544E1
1.265977963E1,-2.517802477E0,2.800916672E0,1.190875912E1
1.267983953E1,-3.116352797E0,2.477699518E0,1.069968700E1
1.269989942E1,-2.819471836E0,1.448192716E0,1.046505547E1
1.271995932E1,-2.038962126E0,4.138976336E-1,1.054645824E1
1.274001922E1,-1.873762131E0,-3.067570925E-1,1.001973438E1
1.276007911E1,-1.615188360E0,-3.953425586E-1,9.052476883E0
1.278013901E1,-9.735422730E-1,-1.343745738E-1,7.850587368E0
1.280019890E1,-8.179191351E-1,3.348889649E-1,6.871358871E0
1.282025880E1,-9.065046310E-1,6.269815564E-1,6.536170483E0
1.284031870E1,-8.634089828E-1,1.022024870E0,7.060500622E0
1.286037859E1,-8.897452354E-1,1.364395738E0,7.723694801E0
1.288043896E1,-8.394669890E-1,1.601421714E0,8.085219383E0
1.290049885E1,-5.018845201E-1,1.795351982E0,7.929595947E0
1.292055828E1,4.638765752E-2,1.943792462E0,8.044517517E0
1.294061765E1,4.629787505E-1,2.082656145E0,8.331821442E0
1.296067719E1,5.419874191E-1,2.441786528E0,8.391676903E0
1.298073646E1,2.786252201E-1,2.853589058E0,8.291120529E0
1.300079578E1,-2.783259563E-2,3.191171646E0,8.860940933E0
1.302085802E1,-2.648585737E-1,3.301304817E0,9.531316757E0
1.304091739E1,-2.145803273E-1,3.370736599E0,1.016578007E1
1.306097677E1,3.696048856E-1,3.332429409E0,1.072123528E1
1.308103765E1,6.545149088E-1,3.176806450E0,1.120486355E1
1.310109755E1,2.163759768E-1,3.133710861E0,1.184650993E1
1.312115698E1,1.253963113E-1,3.358765602E0,1.227267838E1
1.314121635E1,3.360860646E-1,3.476081610E0,1.178186703E1
1.316127594E1,6.186018586E-1,3.255815029E0,1.171722317E1
1.318133583E1,1.025616169E0,3.172018051E0,1.177229023E1
1.320139573E1,9.657611251E-1,2.585438490E0,1.174834728E1
1.322145562E1,5.539584160E-1,1.163282752E0,1.351766300E1
1.324151552E1,1.469441354E-1,-7.760206461E-1,1.584961510E1
1.326157541E1,-9.965864569E-2,-1.623568058E0,1.545217800E1
1.328163640E1,-3.821744323E-1,-8.550292850E-1,1.140358257E1
1.330169630E1,-5.066729188E-1,1.888426542E-1,7.165845871E0
1.332175583E1,-4.085106552E-1,1.282992840E0,4.378994942E0
1.334181521E1,-1.738788933E-1,2.013224363E0,3.825934410E0
1.336187468E1,-2.193687260E-1,1.941398263E0,5.035006046E0
1.338193203E1,-9.017162323E-1,1.713949084E0,6.995857239E0
1.340199213E1,-1.646312952E0,1.520018816E0,9.217676163E0
1.342205557E1,-1.854608536E0,1.381155133E0,1.000297451E1
1.344211505E1,-1.411681175E0,1.567902803E0,9.131484985E0
1.346217442E1,-7.508814931E-1,1.819293976E0,8.113949776E0
1.348223396E1,-3.740940243E-2,2.032377958E0,7.754819393E0
1.350229385E1,1.756745428E-1,2.199972153E0,7.606379032E0
1.352235375E1,7.751227915E-2,2.417844534E0,8.264783859E0
1.354241364E1,2.005143836E-2,2.664447308E0,8.659827232E0
1.356247354E1,5.686229095E-3,2.908655882E0,8.585607529E0
1.358253344E1,-1.547252834E-1,3.183989048E0,8.755595207E0
1.360259333E1,-3.151367903E-1,3.306093216E0,9.718064308E0
1.362265323E1,-7.173627019E-1,3.076249838E0,1.118092155E1
1.364271312E1,-1.349431992E0,2.681206703E0,1.164539719E1
1.366277302E1,-2.249651670E0,2.518400908E0,1.198537350E1
1.368283234E1,-3.075651407E0,2.547131300E0,1.227028370E1
1.370289213E1,-3.197755575E0,2.458545923E0,1.190157700E1
1.372295370E1,-2.697367430E0,2.578255892E0,1.170764637E1
1.374301359E1,-2.996642590E0,2.865560055E0,1.087685871E1
1.376307302E1,-3.846584320E0,2.925415277E0,9.713275909E0
1.378312771E1,-4.210503101E0,2.199972153E0,1.022563553E1
1.380319010E1,-3.559280157E0,8.903437853E-1,1.158075333E1
1.382325307E1,-2.714126825E0,-7.212532312E-2,1.212663174E1
1.384331281E1,-2.139518499E0,-1.466448512E-2,1.034774017E1
1.386337219E1,-1.955164909E0,6.964133978E-1,8.154650688E0
1.388343192E1,-1.629553556E0,1.508047819E0,6.397306919E0
1.390349140E1,-1.452382565E0,2.046743155E0,5.245696068E0
1.392355182E1,-1.172261000E0,2.468122721E0,5.197812080E0
1.394361224E1,-8.658031821E-1,2.647687912E0,6.198588371E0
1.396367198E1,-6.982090473E-1,2.731484890E0,7.436390400E0
1.398373099E1,-2.864063680E-1,2.719513893E0,7.556100368E0
1.400379083E1,1.325789243E-1,2.724302292E0,8.013393402E0
1.402385177E1,3.217208385E-1,2.762609482E0,8.760383606E0
1.404391125E1,3.025672436E-1,2.848800659E0,9.023746490E0
1.406397062E1,-1.762731075E-1,3.066673040E0,9.136273384E0
1.408403135E1,-9.041104317E-1,3.495235205E0,9.059659004E0
1.410409109E1,-1.339855075E0,3.717895985E0,9.354146004E0
1.412415047E1,-1.038185716E0,3.923797369E0,9.674968719E0
1.414420984E1,-1.331774741E-1,4.203918934E0,9.172186852E0
1.416426958E1,6.066308618E-1,4.285321712E0,9.033323288E0
1.418432948E1,6.521207094E-1,3.909432173E0,9.550470352E0
1.420438937E1,5.779004097E-1,3.686771393E0,1.106839466E1
1.422444927E1,4.677671492E-1,3.322852612E0,1.175074196E1
1.424450916E1,2.905962169E-1,3.342006207E0,1.220324612E1
1.426456906E1,7.574655414E-1,3.409044027E0,1.311543655E1
1.428462896E1,1.092653751E0,3.389890432E0,1.261265469E1
1.430468885E1,1.085471153E0,2.870348454E0,1.195664310E1
1.432474875E1,7.838017941E-1,1.644517303E0,1.266053867E1
1.434480864E1,9.442132711E-1,5.886743665E-1,1.326387787E1
1.436486854E1,1.075894356E0,5.575497150E-1,1.150413895E1
1.438492844E1,9.154828787E-1,1.165676951E0,8.877699852E0
1.440498833E1,4.079121053E-1,1.606210113E0,7.132327080E0
1.442504823E1,-2.304419130E-2,1.603815913E0,7.110779285E0
1.444510812E1,-2.600701451E-1,1.414673924E0,7.592013359E0
1.446516802E1,-6.287772059E-1,1.340453625E0,7.910442352E0
1.448522260E1,-9.998784661E-1,1.395520329E0,8.628703117E0
1.450528666E1,-8.514379859E-1,1.620575309E0,7.912836552E0
1.452534807E1,-5.665279627E-1,1.895908475E0,6.715735912E0
1.454540745E1,-3.079541922E-1,2.154482365E0,5.983109951E0
1.456546682E1,-1.643020958E-1,2.319682121E0,6.270414352E0
1.458552755E1,-1.714846939E-1,2.472911119E0,7.139509678E0
1.460558692E1,-3.390788138E-1,2.671629906E0,8.018181801E0
1.462564630E1,-9.998784661E-1,2.911050081E0,8.513781548E0
1.464570599E1,-1.342249274E0,2.906261683E0,9.416395187E0
1.466576588E1,-8.921394348E-1,2.815281868E0,1.021845245E1
1.468582578E1,-4.156932831E-1,2.851194859E0,1.045787334E1
1.470588568E1,-7.317278981E-1,2.695571899E0,1.055842972E1
1.472594557E1,-1.179443598E0,2.501641512E0,1.135569859E1
1.474600547E1,-1.727715850E0,2.489670515E0,1.151132202E1
1.476606536E1,-2.208950281E0,2.484882116E0,1.155441761E1
1.478612583E1,-2.455553055E0,2.374748707E0,1.251928043E1
1.480618521E1,-2.718915224E0,2.422632933E0,1.344823074E1
1.482624458E1,-3.468300343E0,2.571073294E0,1.309628296E1
1.484630432E1,-3.892074108E0,2.120963335E0,1.247618484E1
1.486636422E1,-3.044526815E0,1.294963837E0,1.246421432E1
1.488642500E1,-2.359785080E0,1.024419069E0,1.117373943E1
1.490648437E1,-2.199373484E0,1.225531936E0,8.762778282E0
1.492654375E1,-2.110788107E0,1.529595613E0,6.576871872E0
1.494660349E1,-2.316689491E0,1.879149079E0,5.920860767E0
1.496666338E1,-2.683002234E0,2.154482365E0,5.968744755E0
1.498672427E1,-2.560898066E0,2.235885143E0,6.038176537E0
1.500678364E1,-2.015019894E0,2.202366352E0,6.478709698E0
1.502684302E1,-1.133953810E0,2.022801161E0,6.708553314E0
1.504690260E1,-5.761047602E-1,2.123357534E0,6.921637058E0
1.506696250E1,-6.072294116E-1,2.348412514E0,6.825869083E0
1.508702349E1,-7.580640912E-1,2.578255892E0,6.947973251E0
1.510708286E1,-8.418611884E-1,2.793734074E0,7.594407558E0
1.512714224E1,-9.184756279E-1,3.076249838E0,8.336610794E0
1.514720172E1,-1.138742208E0,3.308487415E0,8.662221909E0
1.516726161E1,-1.394921780E0,3.547907591E0,9.222464561E0
1.518732151E1,-1.540968060E0,3.562272787E0,1.018253994E1
1.520738140E1,-1.284788489E0,3.471293211E0,1.122401714E1
1.522744130E1,-7.149685025E-1,3.397073030E0,1.129823780E1
1.524750120E1,-5.689221621E-1,3.255815029E0,1.111627865E1
1.526756109E1,-7.987655401E-1,3.128922462E0,1.190636539E1
1.528762099E1,-7.580640912E-1,3.021183252E0,1.264377880E1
1.530768031E1,-6.239888072E-1,2.642899513E0,1.296699619E1
1.532774073E1,-3.414730132E-1,2.420238733E0,1.334288597E1
1.534780114E1,1.972223669E-1,2.451363325E0,1.374511242E1
1.536786057E1,2.594715953E-1,2.664447308E0,1.257674122E1
1.538792047E1,-3.501519933E-2,2.247856140E0,1.205959415E1
1.540797984E1,-1.547252834E-1,1.086668253E0,1.242830086E1
1.542803922E1,5.596446618E-2,4.043208063E-1,1.163103199E1
1.544809901E1,4.270657301E-1,6.652888060E-1,9.023746490E0
1.546815890E1,4.534019530E-1,1.436221719E0,6.526593685E0
1.548821880E1,1.972223669E-1,1.986888170E0,5.315127850E0
1.550827870E1,-4.219780490E-2,1.910273671E0,5.911283970E0
1.552833859E1,-2.409165502E-1,1.486500025E0,7.022193432E0
1.554839849E1,-8.993220329E-1,1.223137736E0,8.429984093E0
1.556845838E1,-1.313518882E0,1.215955138E0,9.215282440E0
1.558851828E1,-1.186626196E0,1.314117432E0,8.894459724E0
1.560857818E1,-3.965396583E-1,1.625363708E0,7.551311970E0
1.562863807E1,9.187749028E-2,1.917456269E0,6.536170483E0
1.564869797E1,2.570773959E-1,2.233490944E0,6.519411087E0
1.566875786E1,3.839701116E-1,2.458545923E0,6.967126846E0
1.568881755E1,3.648164868E-1,2.705148697E0,7.259219646E0
1.570887692E1,-1.978209168E-1,2.994847059E0,7.836222172E0
1.572893630E1,-9.879074693E-1,3.112162828E0,9.057265282E0
1.574899614E1,-1.129165411E0,3.131316662E0,1.021366405E1
1.576905604E1,-1.186626196E0,2.994847059E0,1.099417400E1
1.578911666E1,-1.667860746E0,2.707542896E0,1.173877048E1
1.580917604E1,-2.223315477E0,2.365171909E0,1.279461384E1
1.582923541E1,-2.331054688E0,2.053925753E0,1.336203957E1
1.584929510E1,-1.876156330E0,2.068290949E0,1.278024864E1
1.586935500E1,-1.722927451E0,2.312499523E0,1.184890461E1
1.588941489E1,-2.103605509E0,2.776974678E0,1.122641182E1
1.590947479E1,-2.879326820E0,2.932597876E0,1.042195988E1
1.592953468E1,-3.365349770E0,2.219125748E0,1.032858658E1
1.594959458E1,-2.893692017E0,1.230320454E0,1.151611042E1
1.596965448E1,-2.127547503E0,4.737526476E-1,1.203804588E1
1.598971370E1,-2.285564899E0,4.953004718E-1,1.033337498E1
1.600977344E1,-2.268805504E0,7.323264480E-1,8.429984093E0
1.602983333E1,-1.926434517E0,1.024419069E0,7.790732384E0
1.604989323E1,-1.639130354E0,1.282992840E0,6.916848660E0
1.606995312E1,-1.260846496E0,1.704372287E0,6.172252178E0
1.609001364E1,-8.059481382E-1,1.996464968E0,6.191405773E0
1.611007302E1,-5.473743677E-1,2.178424358E0,7.022193432E0
1.613013239E1,-4.683656991E-1,2.166453362E0,8.044517517E0
1.615019192E1,-3.558382392E-1,2.367566109E0,8.482656479E0
1.617025182E1,-3.247136176E-1,2.729090691E0,8.482656479E0
1.619031239E1,-1.499368846E-1,3.047519445E0,8.353369713E0
1.621037177E1,2.044049650E-1,3.229478836E0,8.429984093E0
1.623043114E1,2.738368213E-1,3.380313635E0,9.006986618E0
1.625049083E1,-1.451484710E-1,3.373131037E0,9.753977776E0
1.627055166E1,-3.965396583E-1,3.440168619E0,1.039322948E1
1.629061125E1,2.905962169E-1,3.557484388E0,1.018253994E1
1.631067062E1,7.119757533E-1,3.660435200E0,9.703699112E0
1.633073000E1,7.622539401E-1,3.370736599E0,9.940725327E0
1.635078974E1,7.957727909E-1,3.310881615E0,1.098459721E1
1.637084963E1,9.442132711E-1,3.255815029E0,1.145146656E1
1.639090953E1,1.102230549E0,3.104980230E0,1.201889229E1
1.641096942E1,1.035192966E0,3.353977203E0,1.302924538E1
1.643102932E1,6.593033075E-1,3.483264208E0,1.270363426E1
1.645108922E1,5.204395652E-1,2.829647064E0,1.244266605E1
1.647114911E1,7.383119464E-1,1.479317427E0,1.356075859E1
1.649120901E1,7.407061458E-1,9.307458997E-2,1.450167942E1
1.651126890E1,7.407061458E-1,2.079962790E-1,1.211466026E1
1.653132880E1,5.156511664E-1,9.741408229E-1,8.671798706E0
1.655138828E1,2.475005984E-1,1.608604312E0,6.275202751E0
1.657144765E1,-6.284779403E-3,1.915062070E0,5.422866821E0
1.659150703E1,-1.044470519E-1,1.778592587E0,6.078877926E0
1.661156666E1,-5.401917696E-1,1.486500025E0,7.307103634E0
1.663162656E1,-1.035791516E0,1.187224746E0,8.588001251E0
1.665168646E1,-1.004666924E0,1.045966864E0,8.942343712E0
1.667174666E1,-7.700351477E-1,1.247079849E0,8.200140953E0
1.669180521E1,-6.048352122E-1,1.666065097E0,7.158663273E0
1.671186614E1,-7.580640912E-1,2.173635960E0,6.505045891E0
1.673192625E1,-8.634089828E-1,2.616563082E0,6.615179062E0
1.675198562E1,-1.167472601E0,2.961328268E0,7.015010834E0
1.677204500E1,-1.459565163E0,3.210325241E0,7.539340973E0
1.679210437E1,-1.320701480E0,3.234267235E0,8.135497093E0
1.681216427E1,-7.700351477E-1,3.289333820E0,8.954314232E0
1.683222416E1,-3.031657934E-1,3.397073030E0,9.672574997E0
1.685228406E1,-4.540005028E-1,3.164835453E0,1.048420906E1
1.687234484E1,-1.081281304E0,2.882319689E0,1.100853920E1
1.689240265E1,-1.833060622E0,2.781763077E0,1.146104336E1
1.691246380E1,-2.036567926E0,2.721908092E0,1.162145519E1
1.693252364E1,-1.974318624E0,2.781763077E0,1.161666679E1
1.695258302E1,-1.706167936E0,3.011606455E0,1.187763500E1
1.697264344E1,-1.991078019E0,3.097797632E0,1.152568722E1
1.699270182E1,-3.245639563E0,2.508824110E0,1.159033012E1
1.701276166E1,-3.250428200E0,1.156100154E0,1.334528065E1
1.703282156E1,-2.558503866E0,1.936310679E-1,1.461181259E1
1.705288146E1,-2.297535896E0,5.312135220E-1,1.184172153E1
1.707294203E1,-2.369361877E0,1.187224746E0,7.872135162E0
1.709300140E1,-2.252045870E0,1.967734575E0,4.996698856E0
1.711306078E1,-2.369361877E0,2.513612509E0,3.706224203E0
1.713312015E1,-2.376544476E0,2.551919699E0,3.794809580E0
1.715317968E1,-1.399710178E0,2.209548950E0,5.504269600E0
1.717323958E1,-4.659714997E-1,1.759438992E0,7.213729858E0
1.719329948E1,1.526303589E-2,1.601421714E0,8.504204750E0
1.721335937E1,2.522889972E-1,1.656488299E0,8.750806808E0
1.723341927E1,2.091933787E-1,1.795351982E0,8.865729332E0
1.725347916E1,1.373673230E-1,2.001253366E0,9.076418877E0
1.727353927E1,-1.523310840E-1,2.250250340E0,9.404424667E0
1.729359651E1,-6.982090473E-1,2.508824110E0,1.025915432E1
1.731365870E1,-1.184231997E0,2.784157276E0,1.084573364E1
1.733371818E1,-1.026214719E0,3.169623852E0,1.066616821E1
1.735377755E1,-4.899135232E-1,3.497629404E0,9.485827446E0
1.737383786E1,-2.385223508E-1,3.763385773E0,9.196128845E0
1.739389729E1,-1.762731075E-1,3.365948200E0,1.060631371E1
1.741395666E1,-1.427542716E-1,3.016394854E0,1.234689808E1
1.743401604E1,1.086369008E-1,2.870348454E0,1.280658531E1
1.745407547E1,-1.307832748E-1,3.076249838E0,1.211466026E1
1.747413536E1,1.038485020E-1,3.418620825E0,1.252885723E1
1.749419526E1,4.964975715E-1,3.691559792E0,1.222479343E1
1.751425515E1,4.821323752E-1,3.143287659E0,1.180102062E1
1.753431505E1,4.653729498E-1,1.630152106E0,1.281376743E1
1.755437495E1,7.119757533E-1,2.463034987E-1,1.372116947E1
1.757443484E1,7.454945445E-1,2.008136660E-1,1.151611042E1
1.759449458E1,5.204395652E-1,1.199195743E0,7.817068577E0
1.761455396E1,4.246715307E-1,2.039560556E0,5.147533417E0
1.763461333E1,4.342483282E-1,2.422632933E0,4.824316502E0
1.765467271E1,-7.811082900E-2,2.025195360E0,5.765237808E0
1.767473349E1,-8.394669890E-1,1.536778212E0,7.546523571E0
1.769479286E1,-1.610399961E0,9.621698260E-1,1.004607010E1
1.771485224E1,-1.591246247E0,5.503671169E-1,1.092953110E1
1.773491161E1,-8.753799796E-1,6.581062078E-1,9.526528358E0
1.775497104E1,-3.462614119E-1,9.956886172E-1,7.517793179E0
1.777503094E1,-8.768763393E-2,1.476923227E0,6.653486729E0
1.779509083E1,-3.941454589E-1,1.867178082E0,6.677428722E0
1.781515073E1,-9.088988304E-1,2.171241760E0,7.271190643E0
1.783521062E1,-1.234510303E0,2.317287922E0,7.738059998E0
1.785527052E1,-1.540968060E0,2.489670515E0,7.982268333E0
1.787533041E1,-1.787570834E0,2.765003681E0,8.628703117E0
1.789538989E1,-1.603217363E0,2.908655882E0,9.454702377E0
1.791544927E1,-1.433228970E0,2.611774683E0,1.089840603E1
1.793550864E1,-1.612794161E0,2.130540133E0,1.208832455E1
1.795556802E1,-2.254440069E0,2.197577953E0,1.198537350E1
1.797562885E1,-2.908057213E0,2.551919699E0,1.168609810E1
1.799568823E1,-2.831442833E0,2.719513893E0,1.156159973E1
1.801574760E1,-2.264016867E0,2.729090691E0,1.178186703E1
1.803580698E1,-1.653495550E0,2.781763077E0,1.190397072E1
1.805586635E1,-2.062904119E0,2.750638485E0,1.150892735E1
1.807592640E1,-2.886509418E0,2.432209730E0,1.189918232E1
1.809598682E1,-3.157054186E0,1.778592587E0,1.226549530E1
1.811604646E1,-2.841019630E0,1.026813269E0,1.216015053E1
1.813610583E1,-2.268805504E0,6.293757558E-1,1.035971069E1
1.815616521E1,-1.430834770E0,8.065466881E-1,8.583212852E0
1.817622458E1,-1.370979786E0,1.134552360E0,7.335834026E0
1.819628422E1,-1.713350534E0,1.464952111E0,6.907271862E0
1.821634411E1,-1.907280922E0,1.792957783E0,6.596025467E0
1.823640401E1,-2.034173727E0,2.178424358E0,6.263231754E0
1.825646390E1,-1.751657844E0,2.384325504E0,6.023811340E0
1.827652380E1,-1.057339311E0,2.381931305E0,6.703764915E0
1.829658370E1,-4.707598984E-1,2.353200912E0,7.175422668E0
1.831664323E1,8.978256374E-4,2.393902540E0,7.441178799E0
1.833670260E1,2.283469886E-1,2.494458914E0,7.814674377E0
1.835676198E1,-3.740940243E-2,2.913444281E0,8.188169479E0
1.837682198E1,-5.593453646E-1,3.270180225E0,8.731653214E0
1.839687969E1,-7.413046956E-1,3.456928015E0,9.299078941E0
1.841694177E1,-3.917512596E-1,3.600579977E0,1.063264942E1
1.843700114E1,4.988917708E-1,3.595791578E0,1.116655636E1
1.845706052E1,4.150947332E-1,3.284545422E0,1.156638813E1
1.847712068E1,-1.403600723E-1,3.188777447E0,1.218888092E1
1.849718005E1,5.357026309E-2,3.150470257E0,1.258152962E1
1.851723942E1,-1.571194828E-1,2.934992075E0,1.235408115E1
1.853729880E1,-4.994903207E-1,3.085826635E0,1.351526833E1
1.855735818E1,-2.121861279E-1,3.284545422E0,1.376187134E1
1.857741901E1,2.259527892E-1,3.356371403E0,1.180580902E1
1.859747838E1,9.370306730E-1,2.355595112E0,1.063504410E1
1.861753776E1,1.339256525E0,9.932944179E-1,1.183214474E1
1.863759713E1,1.159691453E0,1.457470357E-1,1.210029507E1
1.865765651E1,6.952162981E-1,4.354454279E-1,1.034055710E1
1.867771734E1,4.438251257E-1,9.310451746E-1,8.255207062E0
1.869777672E1,3.049614429E-1,1.180042148E0,6.691793919E0
1.871783609E1,2.666542232E-1,1.256656647E0,6.385335922E0
1.873789547E1,-4.061164558E-1,1.201589942E0,6.928819656E0
1.875795484E1,-1.028608918E0,1.203984141E0,7.615955830E0
1.877801443E1,-1.150713205E0,1.041178465E0,8.049305916E0
1.879807432E1,-8.251017332E-1,1.010053873E0,7.469909191E0
1.881813422E1,-4.587889016E-1,1.093850851E0,6.833051682E0
1.883819411E1,-2.888005674E-1,1.316511631E0,6.473921299E0
1.885825401E1,-3.845686615E-1,1.575085402E0,6.442796707E0
1.887831323E1,-5.210381746E-1,1.915062070E0,7.096413612E0
1.889837187E1,-7.652466893E-1,2.233490944E0,7.680599213E0
1.891843312E1,-8.945336342E-1,2.267009735E0,8.291120529E0
1.893849250E1,-9.639654756E-1,2.178424358E0,9.162610054E0
1.895855187E1,-9.974842668E-1,2.365171909E0,1.016338634E1
1.897861156E1,-1.004666924E0,2.405873537E0,1.108036518E1
1.899867031E1,-1.531391263E0,2.171241760E0,1.189678860E1
1.901873125E1,-2.242469072E0,2.094627142E0,1.242590714E1
1.903879073E1,-2.498648643E0,2.070685148E0,1.229183197E1
1.905885010E1,-2.536956072E0,2.006041765E0,1.245942593E1
1.907890875E1,-2.302324295E0,2.020406961E0,1.313937855E1
1.909896682E1,-2.266411066E0,2.274192333E0,1.323035812E1
1.911902942E1,-3.461117744E0,2.075473547E0,1.273954678E1
1.913908880E1,-4.057273865E0,1.019630671E0,1.344344234E1
1.915914818E1,-3.456329346E0,-1.559223831E-1,1.446576691E1
1.917920599E1,-3.142688990E0,-4.384381771E-1,1.306755257E1
1.919926370E1,-3.248033762E0,1.170166060E-1,9.253589630E0
1.921932755E1,-2.556109667E0,9.262567759E-1,6.399701118E0
1.923938692E1,-2.005443096E0,1.476923227E0,4.824316502E0
1.925944630E1,-1.947982311E0,1.709160686E0,3.885789394E0
1.927950614E1,-1.531391263E0,1.833659172E0,4.481945515E0
1.929956495E1,-9.567828774E-1,1.824082375E0,6.263231754E0
1.931962484E1,-2.576759458E-1,1.737891197E0,7.117961884E0
1.933968474E1,1.517325342E-1,1.785775185E0,7.424419403E0
1.935974463E1,2.714426219E-1,1.900696874E0,7.625532627E0
1.937980453E1,3.576338887E-1,1.862389684E0,8.161833763E0
1.939986411E1,2.642600238E-1,1.924638867E0,8.832210541E0
1.941992349E1,-2.289455384E-1,2.077867746E0,9.624691010E0
1.943998286E1,-8.777741790E-1,2.544737101E0,1.019929886E1
1.946004224E1,-1.356614590E0,3.002029657E0,1.013944435E1
1.948010161E1,-1.076492906E0,3.413832426E0,9.725247383E0
1.950016120E1,-5.473743677E-1,3.780145168E0,9.267954826E0
1.952022109E1,-6.670844555E-1,3.890278578E0,9.739612579E0
1.954028099E1,-1.227327704E0,3.478475809E0,1.134851646E1
1.956034088E1,-1.418863773E0,3.421015024E0,1.294066048E1
1.958040078E1,-7.413046956E-1,3.255815029E0,1.265335560E1
1.960046021E1,2.283469886E-1,2.877531052E0,1.308431244E1
1.962051958E1,1.310526133E0,2.688389301E0,1.435084534E1
1.964057896E1,1.798943281E0,2.999635458E0,1.346499062E1
1.966063833E1,1.705569386E0,2.674024105E0,1.171961689E1
1.968069875E1,1.655291200E0,1.290175438E0,1.212663174E1
1.970075812E1,1.482908726E0,-2.424129285E-2,1.302685165E1
1.972081750E1,1.214758039E0,-5.054758191E-1,1.186087513E1
1.974087687E1,9.418190718E-1,2.486976981E-1,9.088389397E0
1.976093625E1,7.861959934E-1,1.136946559E0,6.387730122E0
1.978099682E1,6.521207094E-1,1.783380985E0,4.946420670E0
1.980105620E1,3.935469091E-1,1.903091073E0,4.718971729E0
1.982111557E1,-1.978209168E-1,1.699583888E0,5.980715752E0
1.984117495E1,-1.129165411E0,1.594239116E0,7.587224960E0
1.986123432E1,-1.653495550E0,1.481711626E0,8.803479195E0
1.988129385E1,-1.387739182E0,1.541566610E0,9.085995674E0
1.990135297E1,-7.413046956E-1,1.651699901E0,8.528146744E0
1.992141401E1,-6.168062091E-1,2.058714151E0,7.546523571E0
1.994147338E1,-9.950900674E-1,2.516006708E0,6.940790653E0
1.996153276E1,-1.119588614E0,2.781763077E0,7.007828236E0
1.998159213E1,-9.352350235E-1,2.841618061E0,7.443572998E0
2.000165151E1,-5.282207727E-1,2.717119694E0,8.391676903E0
2.002171088E1,-1.834557056E-1,2.645293713E0,9.251194954E0
2.004177052E1,4.638765752E-2,2.853589058E0,9.481039047E0
2.006183041E1,-3.630208373E-1,3.188777447E0,8.987833023E0
2.008189031E1,-9.950900674E-1,3.045125246E0,9.536105156E0
2.010195021E1,-1.440411568E0,2.772186279E0,1.112106705E1
2.012200995E1,-1.947982311E0,2.731484890E0,1.251209831E1
2.014206932E1,-2.383727074E0,2.765003681E0,1.322317600E1
2.016212870E1,-2.410063267E0,2.946963072E0,1.307234097E1
2.018218729E1,-2.132335901E0,3.119345427E0,1.203565216E1
2.020224640E1,-2.601599455E0,2.743455887E0,1.125993061E1
2.022230786E1,-2.781164646E0,1.615786910E0,1.271321106E1
2.024236724E1,-2.589628458E0,3.995324075E-1,1.480095482E1
2.026242661E1,-2.771587849E0,1.313818246E-1,1.360624790E1
2.028248599E1,-2.953547001E0,6.269815564E-1,9.560047150E0
2.030254510E1,-2.261622667E0,1.340453625E0,6.241683960E0
2.032260552E1,-1.801936030E0,1.800140381E0,5.334281445E0
2.034266531E1,-2.225709677E0,1.857601285E0,5.868188381E0
2.036272468E1,-2.436399460E0,1.826476574E0,6.792350292E0
2.038277885E1,-2.110788107E0,1.934215665E0,7.589619160E0
2.040284114E1,-1.550544858E0,2.188001156E0,7.627926826E0
2.042290359E1,-8.011597395E-1,2.417844534E0,6.880935669E0
2.044296297E1,-2.361281365E-1,2.695571899E0,6.042964935E0
2.046302234E1,1.134253070E-1,2.800916672E0,5.983109951E0
2.048308094E1,7.272387296E-2,2.855983257E0,7.024587631E0
2.050314104E1,-2.193687260E-1,3.023577452E0,8.003816605E0
2.052320151E1,-7.987655401E-1,3.160047054E0,9.088389397E0
2.054326088E1,-9.950900674E-1,3.294122219E0,9.837775230E0
2.056332026E1,-6.670844555E-1,3.413832426E0,1.015380955E1
2.058337818E1,-1.523310840E-1,3.818452358E0,9.909601212E0
2.060343880E1,-1.523310840E-1,3.854365349E0,9.952696800E0
2.062349937E1,-1.026214719E0,3.634099007E0,1.075475407E1
2.064355875E1,-1.488295674E0,3.413832426E0,1.207395935E1
2.066361812E1,-1.155501604E0,3.375525236E0,1.309867764E1
2.068367781E1,-8.514379859E-1,3.274968624E0,1.266293240E1
2.070373666E1,-2.217629254E-1,3.332429409E0,1.304600525E1
2.072379625E1,5.563526154E-1,3.490446806E0,1.239717674E1
2.074385614E1,1.152508855E0,3.488052607E0,1.082179165E1
2.076391604E1,1.408688426E0,2.369960308E0,1.087685871E1
2.078397427E1,1.358410239E0,8.065466881E-1,1.243787766E1
2.080403390E1,1.109413266E0,-3.953425586E-1,1.320162773E1
2.082409510E1,3.456628621E-1,3.561374918E-2,1.082179165E1
2.084415448E1,-9.247604012E-2,9.478045702E-1,7.762001991E0
2.086421385E1,-6.374561787E-2,1.350030541E0,5.784391403E0
2.088427375E1,3.292027395E-3,1.443404317E0,5.370194435E0
2.090433312E1,-4.324526787E-1,1.170465350E0,5.695806026E0
2.092439250E1,-9.998784661E-1,8.568249345E-1,6.502651691E0
2.094445187E1,-1.232116103E0,4.833294749E-1,7.809885979E0
2.096451125E1,-8.274959922E-1,2.439092994E-1,8.470685959E0
2.098457062E1,-2.816179693E-1,3.684077859E-1,7.967903137E0
2.100463000E1,6.075286865E-2,6.724714041E-1,7.256825447E0
2.102468969E1,1.828571558E-1,1.007659674E0,6.761225700E0
2.104474958E1,1.349731237E-1,1.290175438E0,6.789956093E0
2.106480948E1,-3.247136176E-1,1.412279725E0,6.845022678E0
2.108486937E1,-7.700351477E-1,1.510442019E0,7.886500359E0
2.110492885E1,-1.086069703E0,1.534384012E0,8.954314232E0
2.112498823E1,-1.126771212E0,1.474529028E0,1.054645824E1
2.114504760E1,-4.875193238E-1,1.278204441E0,1.136527538E1
2.116510698E1,-4.875193238E-1,1.333271027E0,1.206677628E1
2.118516635E1,-1.086069703E0,1.314117432E0,1.300290966E1
2.120522573E1,-1.782782435E0,1.388337731E0,1.408987713E1
2.122528510E1,-2.331054688E0,1.429039121E0,1.462378407E1
2.124534489E1,-2.742857218E0,1.694795489E0,1.494939518E1
2.126540479E1,-2.943970203E0,1.970128775E0,1.504755783E1
2.128546468E1,-3.063680410E0,2.278980732E0,1.422395229E1
2.130552453E1,-3.410839558E0,2.566284895E0,1.274433517E1
2.132558390E1,-4.342184067E0,1.965340376E0,1.116895103E1
2.134564328E1,-3.896862507E0,7.083844543E-1,1.093910789E1
2.136570265E1,-2.745251417E0,-7.688380480E-1,1.141555405E1
2.138576203E1,-1.883338928E0,-1.843834639E0,1.104445267E1
2.140582140E1,-1.112406015E0,-2.021005392E0,9.301473618E0
2.142588078E1,-4.731540978E-1,-1.467944860E0,6.461950302E0
2.144594015E1,-2.983773947E-1,-6.994061470E-1,4.309563160E0
2.146600005E1,-3.606266379E-1,-2.205658257E-1,3.526659012E0
2.148606041E1,1.765723713E-2,3.588309884E-1,3.823540211E0
2.150611979E1,4.797381759E-1,5.264251232E-1,4.888959885E0
2.152616182E1,7.957727909E-1,4.617816508E-1,6.265625954E0
2.154623916E1,1.406294227E0,5.192424655E-1,7.642292023E0
2.156629854E1,1.985691071E0,7.514800429E-1,8.386888504E0
2.158635541E1,2.277783632E0,1.108216166E0,8.255207062E0
2.160641698E1,2.349609613E0,1.639728904E0,8.508993149E0
2.162647724E1,2.052728653E0,2.080261946E0,9.351752281E0
2.164653661E1,1.341650724E0,2.496853113E0,1.042195988E1
2.166659599E1,4.342483282E-1,2.954145670E0,1.133175659E1
2.168665468E1,-5.832874179E-1,3.358765602E0,1.224155331E1
2.170671484E1,-1.198597193E0,3.614945173E0,1.251928043E1
2.172677500E1,-4.635773003E-1,3.476081610E0,1.190636539E1
2.174683437E1,-1.586158574E-2,2.946963072E0,1.167652130E1
2.176689375E1,-1.571194828E-1,2.403479338E0,1.299333286E1
2.178695172E1,-1.499368846E-1,2.020406961E0,1.436042213E1
2.180701187E1,-7.915829420E-1,2.288557529E0,1.406593513E1
2.182707276E1,-1.552939057E0,2.678812504E0,1.259110641E1
2.184713213E1,-6.072294116E-1,2.798522472E0,1.182017422E1
2.186719151E1,3.911527097E-1,1.345242023E0,1.095347309E1
2.188725088E1,9.178770781E-1,-1.094449401E0,1.248097324E1
2.190731026E1,8.364742398E-1,-2.988262892E0,1.469561005E1
2.192736963E1,2.498947978E-1,-3.234865665E0,1.403241634E1
2.194742901E1,-3.271078169E-1,-2.459144354E0,1.061828423E1
2.196748838E1,-5.138555169E-1,-1.649904251E0,6.938396454E0
2.198754906E1,-6.694786549E-1,-4.168903828E-1,4.333505154E0
2.200760844E1,-1.124377012E0,1.960252672E-1,3.332728863E0
2.202766781E1,-1.469141960E0,-1.705868728E-2,4.659116745E0
2.204772719E1,-1.490689874E0,-7.281365991E-1,7.046135426E0
2.206778656E1,-1.380556583E0,-1.180640697E0,9.129091263E0
2.208784677E1,-1.454776764E0,-6.203975081E-1,9.097966194E0
2.210790614E1,-1.809118629E0,4.091092050E-1,7.371747017E0
2.212796552E1,-1.801936030E0,1.294963837E0,6.323086739E0
2.214802489E1,-1.579275250E0,1.666065097E0,6.789956093E0
2.216808427E1,-8.873509765E-1,1.503259420E0,8.401253700E0
2.218814448E1,-2.026093155E-1,1.124975562E0,9.502586365E0
2.220820385E1,2.594715953E-1,9.358335733E-1,9.703699112E0
2.222826323E1,-1.586158574E-2,1.431433320E0,9.696516991E0
2.224832260E1,-6.359598041E-1,2.068290949E0,9.782708168E0
2.226838198E1,-1.936011314E0,2.578255892E0,9.579200745E0
2.228844135E1,-3.755604744E0,3.318064213E0,1.020408726E1
2.230850073E1,-4.840178013E0,3.363554001E0,1.227028370E1
2.232856010E1,-5.417180538E0,3.327641010E0,1.412818432E1
2.234862000E1,-5.704484940E0,3.538330793E0,1.487756920E1
2.236867989E1,-5.733215332E0,3.749020576E0,1.463336086E1
2.238873036E1,-6.853701591E0,4.012382984E0,1.304839897E1
2.240879958E1,-7.507318497E0,2.882319689E0,1.164300251E1
2.242885896E1,-6.166565895E0,7.610568404E-1,1.235886955E1
2.244891833E1,-4.145859718E0,-1.163881302E0,1.224873543E1
2.246897771E1,-1.931222916E0,-2.351405382E0,9.967061996E0
2.248903635E1,-1.117194414E0,-2.059312820E0,7.000645638E0
2.250909677E1,-7.796119452E-1,-1.379359484E0,4.898536682E0
2.252915677E1,-7.820061445E-1,-7.257423997E-1,4.082113743E0
2.254921614E1,-6.575076580E-1,-4.647744000E-1,4.273650169E0
2.256927552E1,-4.276642799E-1,-3.067570925E-1,5.355829239E0
2.258933541E1,-4.492121041E-1,1.074398011E-1,6.567295074E0
2.260939479E1,-6.072294116E-1,5.767033100E-1,7.256825447E0
2.262945416E1,-7.460930943E-1,9.837176204E-1,7.436390400E0
2.264951354E1,-9.232640266E-1,1.464952111E0,7.723694801E0
2.266957291E1,-9.041104317E-1,1.876754880E0,8.403648376E0
2.268963229E1,-6.455366611E-1,2.044348955E0,9.153033257E0
2.270969166E1,-8.107365370E-1,2.262221336E0,9.816226959E0
2.272975125E1,-1.442805767E0,2.592621088E0,1.015380955E1
2.274981114E1,-1.531391263E0,2.846406460E0,1.018014526E1
2.276987104E1,-7.724293470E-1,2.903867483E0,9.878476143E0
2.278993094E1,1.804629564E-1,3.104980230E0,9.373299599E0
2.280999052E1,9.322422743E-1,3.449745417E0,8.492233276E0
2.283004989E1,1.305737734E0,3.294122219E0,9.306262016E0
2.285010927E1,1.329679728E0,2.671629906E0,1.173158836E1
2.287016864E1,7.598597407E-1,2.269403934E0,1.420958710E1
2.289022802E1,5.117605999E-2,1.678036094E0,1.651520348E1
2.291028739E1,1.613093466E-1,1.177647948E0,1.765963173E1
2.293034677E1,5.084685683E-1,1.211166739E0,1.736753845E1
2.295040651E1,-5.449801683E-1,1.139340758E0,1.564371395E1
2.297046640E1,-1.083675504E0,1.002571955E-1,1.394143677E1
2.299052630E1,-7.700351477E-1,-9.579799771E-1,1.239478207E1
2.301058620E1,-2.783259563E-2,-1.506252170E0,1.028549004E1
2.303064562E1,6.664859056E-1,-1.144727707E0,7.546523571E0
2.305070500E1,3.408744633E-1,-2.373252362E-1,5.444414616E0
2.307076510E1,-2.145803273E-1,4.498106539E-1,4.314351559E0
2.309082307E1,-4.899135232E-1,7.873930931E-1,4.431667328E0
2.311088333E1,-6.838438511E-1,3.708019853E-1,5.485116005E0
2.313094359E1,-6.790554523E-1,-3.259107172E-1,7.146692276E0
2.315100297E1,-4.300584793E-1,-1.058536410E0,8.983044624E0
2.317106328E1,-1.307832748E-1,-1.331475377E0,9.526528358E0
2.319111942E1,1.756745428E-1,-8.167220354E-1,8.365341187E0
2.321118187E1,3.336918652E-1,1.218050122E-1,6.629544735E0
2.323124125E1,4.342483282E-1,1.139340758E0,5.276820660E0
2.325130062E1,3.624222875E-1,1.785775185E0,4.575319290E0
2.327136000E1,3.193266392E-1,2.314893723E0,5.291185856E0
2.329141937E1,1.038485020E-1,2.365171909E0,6.773196697E0
2.331147875E1,-9.487023950E-2,2.154482365E0,9.172186852E0
2.333153812E1,-8.678981103E-3,1.745073795E0,1.170764637E1
2.335159765E1,-2.064999007E-2,1.610998511E0,1.313698483E1
2.337165755E1,-1.403600723E-1,1.558326006E0,1.286643982E1
2.339171745E1,-4.683656991E-1,1.168071151E0,1.316092682E1
2.341177734E1,-6.192004085E-1,6.605004072E-1,1.436042213E1
2.343183703E1,-9.088988304E-1,1.720832437E-1,1.483686829E1
2.345189640E1,-1.885733128E0,-9.876081720E-3,1.495897198E1
2.347195677E1,-2.694973230E0,-2.184708975E-2,1.595735455E1
2.349201291E1,-3.396474361E0,-4.982932210E-1,1.580173111E1
2.351207536E1,-4.150648117E0,-1.558924556E0,1.400847435E1
2.353213474E1,-4.234445095E0,-3.021781921E0,1.426944256E1
2.355219411E1,-3.525761366E0,-3.572448254E0,1.454238129E1
2.357225422E1,-3.178601980E0,-3.194164276E0,1.069729328E1
2.359231218E1,-3.063680410E0,-2.363376379E0,5.738901615E0
2.361237245E1,-2.264016867E0,-1.434426069E0,2.566584110E0
2.363243271E1,-1.248875499E0,-7.305307984E-1,1.757344007E0
2.365249208E1,-5.952584147E-1,-8.071452379E-1,2.607285738E0
2.367255229E1,-6.215946078E-1,-8.909423351E-1,4.091690540E0
2.369260896E1,-4.827309251E-1,-7.855974436E-1,5.657498837E0
2.371267036E1,-9.735422730E-1,-7.329249978E-1,7.328651428E0
2.373273041E1,-8.705915809E-1,-6.036381125E-1,8.492233276E0
2.375278979E1,1.158195063E-1,-7.520785928E-1,8.473079681E0
2.377284916E1,1.121384263E0,-6.132149100E-1,9.437943459E0
2.379290854E1,1.116595864E0,-2.181716263E-1,1.015620327E1
2.381296791E1,5.117605999E-2,5.767033100E-1,1.113782597E1
2.383302729E1,-1.471536279E0,1.467346311E0,1.091755962E1
2.385308666E1,-2.572869062E0,2.405873537E0,1.063743782E1
2.387314745E1,-3.257610798E0,2.820070267E0,9.943120003E0
2.389320682E1,-2.975094795E0,2.930203676E0,9.832986832E0
2.391326620E1,-1.857002735E0,2.602197886E0,9.871294022E0
2.393332557E1,-1.145924807E0,2.221519947E0,1.030224991E1
2.395338495E1,-6.383540034E-1,1.445798516E0,1.174834728E1
2.397344432E1,3.441664949E-2,1.005265474E0,1.278982544E1
2.399350370E1,9.346364737E-1,9.501988292E-1,1.298375607E1
2.401356307E1,1.463755012E0,1.007659674E0,1.248097324E1
2.403362291E1,1.442207217E0,1.237503052E0,1.306276417E1
2.405368281E1,9.035118818E-1,1.472134829E0,1.463575459E1
2.407374271E1,2.211643755E-1,1.302146435E0,1.469082165E1
2.409380250E1,2.546831965E-1,3.588309884E-1,1.312980175E1
2.411386187E1,6.353612542E-1,-1.022623420E0,1.313937855E1
2.413392125E1,1.571494102E0,-2.121562004E0,1.258392429E1
2.415398062E1,2.155679464E0,-2.145503998E0,1.010831928E1
2.417404062E1,2.177227259E0,-1.309927583E0,6.574477673E0
2.419410015E1,1.786972284E0,-3.139396906E-1,4.125209332E0
2.421415953E1,1.133355260E0,3.636193871E-1,3.567360640E0
2.423421890E1,7.885901928E-1,3.516483605E-1,4.472368717E0
2.425427828E1,1.301847100E-1,-6.733692437E-2,6.428431511E0
2.427433844E1,-3.462614119E-1,-6.108207107E-1,8.477868080E0
2.429439729E1,-3.917512596E-1,-1.130362511E0,9.346963882E0
2.431445630E1,-2.983773947E-1,-1.204582691E0,8.726864815E0
2.433451620E1,-2.121861279E-1,-7.520785928E-1,7.424419403E0
2.435457609E1,-3.414730132E-1,-1.466448512E-2,6.634333134E0
2.437463599E1,-4.444237053E-1,5.862801671E-1,6.660669327E0
2.439469562E1,-3.989338577E-1,7.035959959E-1,6.981492043E0
2.441475500E1,-3.821744323E-1,9.023147821E-1,7.206547260E0
2.443481437E1,-9.903016686E-1,1.017236471E0,8.018181801E0
2.445487375E1,-1.670254946E0,1.275810242E0,9.483432770E0
2.447493312E1,-1.916857719E0,1.484105825E0,1.062546730E1
2.449499250E1,-1.545756459E0,1.582268000E0,1.116416264E1
2.451505187E1,-1.533785462E0,1.345242023E0,1.178186703E1
2.453511125E1,-1.866579533E0,9.118915796E-1,1.362300777E1
2.455517104E1,-2.434005260E0,7.227496505E-1,1.532049656E1
2.457523156E1,-3.231274366E0,1.192013144E0,1.559822369E1
2.459529094E1,-4.040514469E0,1.718737602E0,1.505713463E1
2.461535031E1,-4.236839294E0,1.541566610E0,1.518881512E1
2.463540969E1,-3.894468307E0,5.767033100E-1,1.532767963E1
2.465546906E1,-3.456329346E0,-8.741828799E-1,1.455674648E1
2.467552922E1,-2.747645617E0,-2.569277763E0,1.382412052E1
2.469558510E1,-1.442805767E0,-3.910030603E0,1.322556973E1
2.471564828E1,-7.173627019E-1,-4.108749390E0,1.125035381E1
2.473570765E1,-7.772177458E-1,-3.330633879E0,7.362170219E0
2.475576703E1,-1.033397317E0,-2.243666172E0,3.770867586E0
2.477582640E1,-1.011849523E0,-1.161487103E0,1.680729628E0
2.479588578E1,-7.413046956E-1,-5.940613151E-1,1.240196466E0
2.481594515E1,-5.689221621E-1,-4.958990216E-1,2.063801765E0
2.483600453E1,1.206079125E-1,-1.343745738E-1,4.254496574E0
2.485606390E1,5.755062103E-1,3.561374918E-2,6.428431511E0
2.487612328E1,7.191583514E-1,4.040215537E-2,8.432378769E0
2.489618302E1,4.270657301E-1,2.319382876E-1,9.730035782E0
2.491624291E1,7.574655414E-1,3.564367890E-1,1.024478912E1
2.493630281E1,1.739088297E0,3.708019853E-1,1.072602367E1
2.495636255E1,1.837250471E0,5.455787182E-1,1.122880554E1
2.497642192E1,7.933785915E-1,1.170465350E0,1.124317074E1
2.499648130E1,-3.127425909E-1,1.986888170E0,1.068771648E1
2.501654068E1,-9.903016686E-1,2.597409487E0,9.662998199E0
2.503660005E1,-9.831190705E-1,2.844012260E0,9.162610054E0
2.505665943E1,-2.145803273E-1,2.731484890E0,9.627084732E0
2.507671968E1,5.802946091E-1,2.556708097E0,1.023760605E1
2.509677906E1,6.760627031E-1,2.314893723E0,1.097023201E1
2.511683844E1,9.873089194E-1,2.120963335E0,1.266053867E1
2.513689781E1,1.435024619E0,1.737891197E0,1.322317600E1
2.515695719E1,1.413476825E0,1.041178465E0,1.354639339E1
2.517701724E1,2.002450466E0,6.365583539E-1,1.555512810E1
2.519707661E1,2.059911251E0,5.360019207E-1,1.702756310E1
2.521713599E1,1.195604444E0,7.466916442E-1,1.495657825E1
2.523719536E1,1.162085652E0,1.816600561E-1,1.227028370E1
2.525725474E1,1.652897000E0,-8.215104342E-1,1.118570995E1
2.527731411E1,2.110189438E0,-1.496675372E0,1.032379818E1
2.529737349E1,1.739088297E0,-1.115997314E0,7.879317760E0
2.531743286E1,9.130886793E-1,-6.539163589E-1,5.487510204E0
2.533749224E1,3.049614429E-1,-3.570353389E-1,4.537012100E0
2.535755161E1,-5.162497163E-1,-2.732382715E-1,5.559336185E0
2.537761151E1,-1.282394290E0,-6.323685050E-1,7.520187378E0
2.539766833E1,-1.045368314E0,-1.348234773E0,9.272743225E0
2.541773130E1,-3.462614119E-1,-1.690605640E0,9.428366661E0
2.543779068E1,-4.938041046E-2,-1.364994287E0,8.152256966E0
2.545785005E1,-5.952584147E-1,-5.844845176E-1,6.732495308E0
2.547790942E1,-1.028608918E0,2.702455223E-1,6.035782337E0
2.549796880E1,-1.514631867E0,7.969698906E-1,6.445190907E0
2.551802818E1,-1.359008789E0,1.062726259E0,7.079654217E0
2.553808755E1,-9.256582260E-1,1.069908857E0,7.587224960E0
2.555814693E1,-8.562263846E-1,1.189618945E0,8.006210327E0
2.557820630E1,-1.093252301E0,1.405097127E0,8.975862503E0
2.559826568E1,-1.399710178E0,1.804928780E0,9.339780807E0
2.561832531E1,-1.411681175E0,1.967734575E0,1.004607010E1
2.563838521E1,-1.294365287E0,1.685218692E0,1.150174522E1
2.565844510E1,-1.493084073E0,1.450586915E0,1.240675354E1
2.567850333E1,-1.459565163E0,1.350030541E0,1.276109505E1
2.569856140E1,-1.806724429E0,1.464952111E0,1.233492756E1
2.571862385E1,-2.541744471E0,1.424250722E0,1.233253288E1
2.573868323E1,-2.062904119E0,1.002871275E0,1.295263100E1
2.575874260E1,-1.715744734E0,-5.270236731E-1,1.413297272E1
2.577879854E1,-2.948758602E0,-2.243666172E0,1.583046150E1
2.579885573E1,-4.457105637E0,-3.625120640E0,1.790144539E1
2.581892130E1,-3.305494785E0,-4.161421776E0,1.799721336E1
2.583898068E1,-1.280000091E0,-4.333804131E0,1.347456741E1
2.585904005E1,-3.390788138E-1,-3.519775867E0,7.697358608E0
2.587909984E1,-1.690904945E-1,-2.042553425E0,3.852270603E0
2.589915922E1,-5.186439157E-1,-7.736264467E-1,2.717418909E0
2.591921859E1,-1.347037673E0,-2.109890282E-1,3.469198227E0
2.593927797E1,-1.792359233E0,3.321954980E-2,5.166687489E0
2.595933734E1,-1.919251919E0,2.941875458E-1,6.952761650E0
2.597939672E1,-1.768417239E0,5.048772693E-1,7.735665798E0
2.599945609E1,-1.291971087E0,7.634510398E-1,7.611167431E0
2.601951547E1,-1.042974114E0,8.472481370E-1,7.453149796E0
2.603957484E1,-5.593453646E-1,8.041524887E-1,7.869740963E0
2.605963422E1,-3.510498106E-1,7.562684417E-1,8.403648376E0
2.607969359E1,-3.893570602E-1,1.002871275E0,9.136273384E0
2.609975323E1,-5.713163614E-1,1.318905830E0,9.828198433E0
2.611981312E1,-1.138742208E0,1.673247695E0,1.011071396E1
2.613987302E1,-1.840243340E0,2.101809740E0,9.768342972E0
2.615993276E1,-1.730110049E0,2.544737101E0,9.588777542E0
2.617999073E1,-8.825625777E-1,2.568679094E0,9.911994934E0
2.620004984E1,-3.295020163E-1,2.317287922E0,1.044829655E1
2.622011125E1,-9.726444632E-2,2.034772158E0,1.077869606E1
2.624017062E1,3.959411085E-1,1.828870773E0,1.170525169E1
2.626023000E1,7.861959934E-1,1.654094100E0,1.155681133E1
2.628028974E1,3.600280881E-1,1.472134829E0,1.098220348E1
2.630034911E1,3.552396894E-1,1.692401290E0,1.218169785E1
2.632040849E1,4.581903517E-1,1.517624617E0,1.364216137E1
2.634046786E1,2.858078182E-1,1.012448072E0,1.445858383E1
2.636052724E1,7.032967359E-2,-2.325368375E-1,1.438196945E1
2.638058661E1,5.731120110E-1,-1.455973864E0,1.423592377E1
2.640064599E1,1.344044924E0,-1.798344731E0,1.227028370E1
2.642070536E1,1.521215916E0,-1.202188492E0,8.815450668E0
2.644076474E1,1.028010368E0,-2.923918962E-1,6.598419666E0
2.646082411E1,1.493383348E-1,4.857236743E-1,5.932831764E0
2.648088463E1,-3.821744323E-1,7.610568404E-1,6.313509941E0
2.650094401E1,-4.444237053E-1,6.557120085E-1,7.386112213E0
2.652100338E1,-5.330091715E-1,5.503671169E-1,7.917624950E0
2.654106276E1,-7.844003439E-1,7.203554511E-1,7.493851185E0
2.656112213E1,-9.448118210E-1,1.050755262E0,7.012616634E0
2.658118193E1,-1.014243722E0,1.352424741E0,6.744466305E0
2.660124078E1,-7.676409483E-1,1.515230417E0,6.634333134E0
2.662130000E1,-5.856816173E-1,1.510442019E0,6.672640324E0
2.664135989E1,-6.287772059E-1,1.505653620E0,7.235277653E0
2.666141979E1,-4.468179047E-1,1.424250722E0,8.061277390E0
2.668147963E1,-3.797802329E-1,1.139340758E0,8.882488251E0
2.670153901E1,-8.586205840E-1,9.454103708E-1,9.648633003E0
2.672159838E1,-1.485901475E0,1.177647948E0,1.079545593E1
2.674165776E1,-1.974318624E0,1.381155133E0,1.136767006E1
2.676171713E1,-2.539350271E0,1.170465350E0,1.159272480E1
2.678177651E1,-2.639906645E0,6.245873570E-1,1.276109505E1
2.680183588E1,-2.445976257E0,1.002571955E-1,1.367568016E1
2.682189526E1,-2.536956072E0,-5.087678786E-3,1.342428875E1
2.684195463E1,-2.800318241E0,3.947440088E-1,1.302206326E1
2.686201401E1,-2.991854191E0,6.365583539E-1,1.298136139E1
2.688207453E1,-3.178601980E0,4.929062724E-1,1.206917095E1
2.690213390E1,-3.135506392E0,-4.982932210E-1,1.180341434E1
2.692219328E1,-2.378938675E0,-1.561318755E0,1.266053867E1
2.694225265E1,-1.512237668E0,-2.253242970E0,1.301727486E1
2.696231203E1,-1.584063649E0,-1.882141829E0,1.030943298E1
2.698237140E1,-2.146701097E0,-1.118391514E0,6.895300865E0
2.700243078E1,-2.266411066E0,-3.019686937E-1,4.905719280E0
2.702249015E1,-2.156277895E0,1.529296339E-1,4.438849926E0
2.704254953E1,-1.770811439E0,4.545990527E-1,3.950432777E0
2.706260890E1,-9.687538743E-1,8.807669282E-1,3.864241600E0
2.708266510E1,-1.475426853E-1,1.146523356E0,5.200206280E0
2.710272640E1,-2.304419130E-2,9.142857790E-1,6.703764915E0
2.712278833E1,9.906009585E-2,8.185176849E-1,8.123526573E0
2.714284771E1,1.996165663E-1,7.035959959E-1,8.798690796E0
2.716290708E1,2.858078182E-1,5.814917088E-1,9.938331604E0
2.718296573E1,3.983353078E-1,4.498106539E-1,1.147062016E1
2.720302521E1,2.570773959E-1,5.934627652E-1,1.228704357E1
2.722308578E1,-3.702034354E-1,1.146523356E0,1.207156467E1
2.724314515E1,-1.057339311E0,1.725920200E0,1.120965195E1
2.726320453E1,-1.215356588E0,2.149693966E0,1.033816338E1
2.728326390E1,-9.017162323E-1,2.571073294E0,9.782708168E0
2.730332328E1,-8.203133345E-1,2.566284895E0,9.598354340E0
2.732338265E1,-4.779425263E-1,2.094627142E0,1.095586681E1
2.734344203E1,-4.938041046E-2,1.886331677E0,1.229901409E1
2.736350140E1,2.451063991E-1,1.512836218E0,1.254322243E1
2.738356161E1,5.204395652E-1,1.306934834E0,1.321120453E1
2.740362099E1,7.526771426E-1,1.108216166E0,1.465490818E1
2.742368036E1,3.073556423E-1,1.077091455E0,1.522472858E1
2.744373974E1,-2.959831953E-1,3.444657624E-1,1.458547688E1
2.746379911E1,-3.031657934E-1,-8.023568392E-1,1.414254951E1
2.748385849E1,5.300164223E-1,-1.491886973E0,1.312740803E1
2.750391786E1,1.559523106E0,-1.692999840E0,1.014662647E1
2.752397724E1,1.875557780E0,-1.092055202E0,6.641515732E0
2.754403661E1,1.657685399E0,-3.929483593E-1,4.424484730E0
2.756409599E1,1.384746432E0,7.870937884E-2,4.074931145E0
2.758415536E1,8.508394361E-1,5.955576897E-2,5.240907669E0
2.760421474E1,1.325789243E-1,-2.492962480E-1,6.859387875E0
2.762427422E1,-3.630208373E-1,-6.132149100E-1,8.432378769E0
2.764433411E1,-5.761047602E-1,-8.813654780E-1,9.014169693E0
2.766439401E1,-8.203133345E-1,-6.491279602E-1,8.386888504E0
2.768445130E1,-9.448118210E-1,-2.923918962E-1,7.553706169E0
2.770451219E1,-2.153883696E0,4.067150056E-1,8.051700592E0
2.772457271E1,-4.868908405E0,1.223137736E0,1.047463226E1
2.774463208E1,-5.390844345E0,1.206378341E0,1.253364563E1
2.776469146E1,-1.473930478E0,5.671265125E-1,1.137964058E1
2.778474859E1,1.753453493E0,7.706336975E-1,9.284713745E0
2.780480984E1,2.804507971E0,1.543960810E0,8.334216118E0
2.782487010E1,2.088641644E0,2.662053108E0,9.176975250E0
2.784492948E1,-5.832874179E-1,3.792116165E0,1.055364132E1
2.786498885E1,-3.034950018E0,4.187159538E0,1.073799419E1
2.788504661E1,-3.398868561E0,3.758597374E0,1.019451046E1
2.790510651E1,-3.260004997E0,3.775356770E0,1.050336266E1
2.792516745E1,-3.070863008E0,3.796904564E0,1.110670185E1
2.794522682E1,-2.752434015E0,3.588608980E0,1.207156467E1
2.796528620E1,-2.244863272E0,3.045125246E0,1.321359921E1
2.798534557E1,-1.560121655E0,2.156876564E0,1.312740803E1
2.800540495E1,-9.448118210E-1,5.360019207E-1,1.247857952E1
2.802546432E1,6.314706802E-2,-1.561318755E0,1.303164005E1
2.804552370E1,1.104624867E0,-2.696170330E0,1.276588345E1
2.806558307E1,1.573888302E0,-2.978686094E0,1.051293945E1
2.808564224E1,8.340800405E-1,-2.504634142E0,7.704541206E0
2.810570161E1,-6.853402406E-2,-1.386542082E0,5.659893036E0
2.812576151E1,-5.258265734E-1,-3.067570925E-1,4.388571739E0
2.814582140E1,-7.724293470E-1,4.402338266E-1,3.679888010E0
2.816588109E1,-7.413046956E-1,1.033995867E0,3.916913986E0
2.818594047E1,-5.737105608E-1,1.297358036E0,5.250484467E0
2.820599984E1,-1.714846939E-1,1.352424741E0,7.019799232E0
2.822605922E1,1.421557218E-1,1.318905830E0,8.264783859E0
2.824611859E1,3.025672436E-1,1.426644921E0,8.722076416E0
2.826617797E1,3.432686627E-1,1.752256393E0,8.705317497E0
2.828623599E1,1.589151323E-1,2.108992338E0,9.239224434E0
2.830629609E1,-2.026093155E-1,2.355595112E0,1.013944435E1
2.832635677E1,-6.479308605E-1,2.544737101E0,1.125993061E1
2.834641614E1,-1.368585587E0,2.695571899E0,1.175074196E1
2.836647552E1,-1.581669450E0,2.848800659E0,1.163821411E1
2.838653489E1,-8.059481382E-1,2.834435463E0,1.083376312E1
2.840659427E1,4.773439765E-1,2.832041264E0,1.018972206E1
2.842665364E1,1.344044924E0,2.630928278E0,9.974244118E0
2.844671302E1,1.549946308E0,2.408267736E0,1.188960552E1
2.846677239E1,1.854009986E0,1.759438992E0,1.555273438E1
2.848682620E1,1.775001287E0,6.126163602E-1,1.713530159E1
2.850689156E1,2.186804056E0,8.400655389E-1,1.697488976E1
2.852695140E1,2.289754629E0,1.670853496E0,1.597890186E1
2.854701078E1,1.729511499E0,2.025195360E0,1.373314095E1
2.856707015E1,1.485302925E0,9.262567759E-1,1.254561710E1
2.858712953E1,1.992873669E0,-3.570353389E-1,1.200213337E1
2.860718890E1,2.359186411E0,-8.813654780E-1,9.612719536E0
2.862724828E1,2.196380854E0,-3.043628931E-1,6.378153324E0
2.864730765E1,1.803731680E0,6.365583539E-1,4.247313976E0
2.866736703E1,1.169268250E0,1.436221719E0,3.608062029E0
2.868742505E1,5.060743690E-1,1.790563583E0,3.744531393E0
2.870748568E1,-9.487023950E-2,1.522413015E0,4.505887508E0
2.872754599E1,-3.654150367E-1,6.796540022E-1,6.505045891E0
2.874760536E1,-5.330091715E-1,-2.253542393E-1,8.748413086E0
2.876766474E1,-3.797802329E-1,-6.060323119E-1,9.926360130E0
2.878772104E1,-2.911947966E-1,-6.733692437E-2,8.757989883E0
2.880778338E1,-3.438672125E-1,8.448539376E-1,7.108384609E0
2.882784328E1,-3.558382392E-1,1.567902803E0,6.342240334E0
2.884790265E1,-2.145803273E-1,1.946186662E0,6.172252178E0
2.886796203E1,-4.707598984E-1,2.171241760E0,6.478709698E0
2.888802140E1,-9.759364724E-1,2.329258919E0,7.213729858E0
2.890808078E1,-1.457170963E0,2.487276316E0,8.365341187E0
2.892814015E1,-1.426046371E0,2.575861692E0,9.799467087E0
2.894819953E1,-1.100434899E0,2.147299767E0,1.135330486E1
2.896825890E1,-1.280000091E0,1.831264973E0,1.273715305E1
2.898831786E1,-9.280524254E-1,1.543960810E0,1.416409683E1
2.900837745E1,-7.413046956E-1,1.220743537E0,1.518163300E1
2.902843734E1,-1.373373985E0,1.591844797E0,1.426704788E1
2.904849724E1,-2.273593903E0,2.264615536E0,1.319683933E1
2.906855677E1,-2.740463018E0,2.793734074E0,1.269166279E1
2.908861349E1,-2.754828215E0,2.391508341E0,1.151850414E1
2.910867526E1,-2.508225441E0,1.151311755E0,1.118570995E1
2.912873510E1,-2.024596930E0,-6.395511031E-1,1.256716442E1
2.914879448E1,-1.069310308E0,-2.059312820E0,1.349850941E1
2.916885385E1,-3.318962157E-1,-2.236483574E0,1.109951878E1
2.918891323E1,-4.228758812E-1,-1.623568058E0,7.568071365E0
2.920897260E1,-4.348468781E-1,-7.592611909E-1,5.377377033E0
2.922903198E1,-5.713163614E-1,-4.339490458E-2,4.709394932E0
2.924909135E1,-7.221511006E-1,3.085527420E-1,4.843470097E0
2.926915073E1,-6.982090473E-1,8.520365357E-1,5.367800236E0
2.928920916E1,-5.425859690E-1,1.280598640E0,6.234501362E0
2.930926979E1,-1.786673069E-1,1.261445045E0,7.333439827E0
2.932932963E1,2.163759768E-1,1.000477076E0,8.372523308E0
2.934938901E1,6.688801050E-1,7.849988937E-1,8.525752068E0
2.936944838E1,1.028010368E0,5.264251232E-1,9.121908188E0
2.938950500E1,1.171662450E0,5.000888705E-1,1.035252857E1
2.940956750E1,9.825205207E-1,7.826046944E-1,1.113543224E1
2.942962687E1,6.616975069E-1,1.285387039E0,1.088164711E1
2.944968625E1,2.259527892E-1,1.900696874E0,1.008916569E1
2.946974562E1,-4.219780490E-2,2.456151724E0,9.919178009E0
2.948980500E1,2.005143836E-2,2.875136852E0,9.976638794E0
2.950986437E1,-1.188122630E-1,2.674024105E0,1.041238308E1
2.952992375E1,2.020107657E-1,2.252644539E0,1.201889229E1
2.954998312E1,1.485302925E0,1.661276698E0,1.372835255E1
2.957004250E1,2.220322847E0,1.318905830E0,1.350808620E1
2.959010250E1,2.074276447E0,1.493682623E0,1.359188271E1
2.961016187E1,1.334468126E0,1.867178082E0,1.427901936E1
2.963022125E1,7.646481395E-1,1.709160686E0,1.406593513E1
2.965028062E1,1.277007341E0,3.708019853E-1,1.321120453E1
2.967034000E1,2.246659040E0,-1.056142211E0,1.285446930E1
2.969039838E1,2.921823978E0,-2.025794029E0,1.170046329E1
2.971045864E1,2.835632563E0,-1.556530356E0,9.821015358E0
2.973051870E1,1.672050595E0,-9.723451734E-1,7.742848396E0
2.975057807E1,7.167641521E-1,-5.222352743E-1,6.495469093E0
2.977063838E1,2.187701762E-1,-1.104325503E-1,6.074089527E0
2.979069323E1,-3.890577704E-3,1.649006456E-1,6.272808552E0
2.981075651E1,-1.619078964E-1,1.337760240E-1,6.646304131E0
2.983081588E1,-3.414730132E-1,-1.128267571E-1,7.022193432E0
2.985087526E1,-6.096236110E-1,-1.750759929E-1,7.206547260E0
2.987093463E1,-7.652466893E-1,-1.705868728E-2,7.108384609E0
2.989099083E1,-9.663596749E-1,1.385644227E-1,7.156269073E0
2.991105375E1,-1.038185716E0,2.056020647E-1,7.314286232E0
2.993111312E1,-9.424176216E-1,2.678513229E-1,8.006210327E0
2.995117250E1,-9.735422730E-1,2.343324870E-1,8.413225174E0
2.997123265E1,-1.787570834E0,4.617816508E-1,8.456320763E0
2.999128880E1,-2.158672094E0,8.400655389E-1,9.033323288E0
3.001135104E1,-2.000654697E0,9.813234210E-1,9.684545517E0
3.003141041E1,-1.100434899E0,6.269815564E-1,1.019451046E1
3.005146979E1,-8.346785903E-1,3.947440088E-1,1.045787334E1
3.007152916E1,-1.531391263E0,3.564367890E-1,1.103487587E1
3.009158854E1,-2.955941200E0,3.755903840E-1,1.335246277E1
3.011164791E1,-4.018966675E0,-1.990180165E-1,1.444182491E1
3.013170729E1,-3.595193148E0,-3.378817141E-1,1.566765594E1
3.015176666E1,-2.788347244E0,-8.598176837E-1,1.602678680E1
3.017182604E1,-2.213738680E0,-1.724124551E0,1.544499493E1
3.019188541E1,-1.421257973E0,-2.435202360E0,1.509304714E1
3.021194479E1,-7.317278981E-1,-2.447173357E0,1.399171448E1
3.023200416E1,-1.011849523E0,-1.743278146E0,1.044111347E1
3.025206354E1,-1.521814466E0,-8.023568392E-1,6.636727333E0
3.027212375E1,-1.359008789E0,-1.056441516E-1,4.673481941E0
3.029218333E1,-1.016637921E0,2.032078654E-1,4.477157116E0
3.031224271E1,-9.424176216E-1,4.545990527E-1,4.618414879E0
3.033230208E1,-6.263830066E-1,7.155670524E-1,5.195417881E0
3.035236146E1,3.887585104E-1,8.951321840E-1,5.997475147E0
3.037242083E1,1.142932057E0,9.525930285E-1,6.607996464E0
3.039248021E1,1.140537858E0,1.093850851E0,6.816292286E0
3.041253958E1,5.563526154E-1,1.000477076E0,6.962338448E0
3.043259896E1,7.957727909E-1,1.113004565E0,8.123526573E0
3.045265833E1,9.178770781E-1,7.754220963E-1,9.011775017E0
3.047271849E1,8.747814298E-1,6.700772047E-1,1.016817474E1
3.049277786E1,4.701613486E-1,6.700772047E-1,1.129105568E1
3.051283724E1,-2.050035149E-1,9.669582248E-1,1.173398209E1
3.053289661E1,-7.939771414E-1,1.769015789E0,1.149456215E1
3.055295599E1,-7.053917050E-1,2.420238733E0,1.049618053E1
3.057301536E1,-4.037222564E-1,2.702754498E0,9.835380554E0
3.059307474E1,1.110311002E-1,2.384325504E0,1.028788471E1
3.061313411E1,8.053495884E-1,2.015618563E0,1.171004009E1
3.063319349E1,1.028010368E0,1.522413015E0,1.284489250E1
3.065325286E1,2.546831965E-1,1.065120459E0,1.393185997E1
3.067331224E1,4.638765752E-2,1.290175438E0,1.580891418E1
3.069337161E1,-5.416881293E-2,1.563114405E0,1.629972458E1
3.071343099E1,-3.582324386E-1,1.132158160E0,1.433169174E1
3.073349036E1,9.187749028E-2,-1.945288852E-2,1.344344234E1
3.075355005E1,9.466074705E-1,-9.627683759E-1,1.286165142E1
3.077361052E1,1.449389815E0,-8.741828799E-1,1.075235939E1
3.079366885E1,8.699930310E-1,-1.463455856E-1,7.920019150E0
3.081372844E1,7.032967359E-2,5.479729176E-1,6.241683960E0
3.083378833E1,-3.438672125E-1,8.879495263E-1,5.985504150E0
3.085384823E1,-2.480991483E-1,9.094973803E-1,6.777985096E0
3.087390791E1,-5.425859690E-1,7.778162956E-1,7.520187378E0
3.089396448E1,-1.203385592E0,7.849988937E-1,8.066065788E0
3.091402687E1,-1.414075375E0,8.089408875E-1,7.879317760E0
3.093408625E1,-1.280000091E0,1.120187163E0,6.936002254E0
3.095414562E1,-9.687538743E-1,1.589450598E0,6.088454723E0
3.097420536E1,-6.694786549E-1,1.972522974E0,6.004657745E0
3.099426198E1,-5.258265734E-1,2.058714151E0,6.663063526E0
3.101432432E1,-5.401917696E-1,2.001253366E0,7.615955830E0
3.103438370E1,-5.928642154E-1,1.941398263E0,8.245630264E0
3.105444307E1,-7.604582906E-1,2.061108351E0,8.236053467E0
3.107450281E1,-8.131307364E-1,2.324470520E0,8.425195694E0
3.109455943E1,-8.227075338E-1,2.477699518E0,8.834604263E0
3.111462177E1,-1.382950783E0,2.537554502E0,9.560047150E0
3.113468114E1,-2.266411066E0,2.410661936E0,1.032140350E1
3.115474052E1,-2.623147249E0,2.199972153E0,1.132217979E1
3.117479989E1,-2.958335400E0,2.264615536E0,1.177468395E1
3.119485802E1,-3.305494785E0,2.434603930E0,1.210747814E1
3.121491922E1,-3.212120771E0,2.642899513E0,1.241393566E1
3.123497859E1,-3.197755575E0,2.147299767E0,1.217212105E1
3.125503797E1,-3.178601980E0,8.735843301E-1,1.262223148E1
3.127509771E1,-2.781164646E0,-5.701192617E-1,1.391749477E1
3.129515708E1,-1.801936030E0,-1.044171214E0,1.454716969E1
3.131521646E1,-1.936011314E0,-4.360439777E-1,1.178186703E1
3.133527583E1,-2.232892275E0,4.689642489E-1,8.283937454E0
3.135533521E1,-2.165854692E0,1.378760934E0,5.793968201E0
3.137539479E1,-2.204161882E0,1.867178082E0,4.795586109E0
3.139545234E1,-2.386121273E0,2.061108351E0,4.876988888E0
3.141551416E1,-2.026991129E0,2.061108351E0,5.985504150E0
3.143557354E1,-1.466747761E0,1.931821465E0,7.445967197E0
3.145563291E1,-1.016637921E0,1.912667871E0,8.700529099E0
3.147569250E1,-6.575076580E-1,1.991676569E0,8.667010307E0
3.149575083E1,-5.234323740E-1,2.235885143E0,8.207323074E0
3.151581125E1,-4.372410774E-1,2.518400908E0,7.886500359E0
3.153587114E1,-5.545569658E-1,2.772186279E0,8.219294548E0
3.155593052E1,-8.131307364E-1,2.939780474E0,8.822632790E0
3.157598989E1,-1.337460876E0,3.069067240E0,9.370905876E0
3.159604927E1,-1.550544858E0,3.164835453E0,9.792284966E0
3.161610864E1,-1.105223417E0,3.413832426E0,9.725247383E0
3.163616802E1,-3.654150367E-1,3.574243784E0,9.703699112E0
3.165622739E1,8.469488472E-2,3.315670013E0,9.797073364E0
3.167628771E1,-4.459200799E-2,3.322852612E0,1.036449909E1
3.169634708E1,-1.475426853E-1,3.684377193E0,1.100853920E1
3.171640646E1,-1.810615063E-1,3.574243784E0,1.127190113E1
3.173646583E1,-3.223194182E-1,3.552695990E0,1.223197651E1
3.175652521E1,-2.576759458E-1,3.478475809E0,1.326627159E1
3.177658515E1,-2.169745266E-1,2.803310871E0,1.310585976E1
3.179664349E1,-1.164180562E-1,1.558326006E0,1.360864258E1
3.181670323E1,3.887585104E-1,3.109469414E-1,1.464054298E1
3.183676312E1,6.473323107E-1,-5.536591262E-2,1.295981407E1
3.185682302E1,3.767874837E-1,7.586626410E-1,9.473855972E0
3.187688276E1,4.159925506E-2,1.634940505E0,6.596025467E0
3.189694213E1,-3.318962157E-1,2.132934332E0,5.379771233E0
3.191700151E1,-5.784989595E-1,2.195183754E0,5.726930618E0
3.193706088E1,-6.982090473E-1,2.063502550E0,7.311892033E0
3.195712026E1,-8.442553878E-1,1.836053371E0,8.949525833E0
3.197717906E1,-8.969278336E-1,1.563114405E0,9.689333916E0
3.199723448E1,-9.807248712E-1,1.637334704E0,9.196128845E0
3.201729927E1,-8.777741790E-1,1.955763459E0,8.176198959E0
3.203735864E1,-7.245453000E-1,2.240673542E0,7.359776020E0
3.205741802E1,-6.383540034E-1,2.568679094E0,7.218518257E0
3.207747739E1,-8.059481382E-1,2.791339874E0,7.438784599E0
3.209753677E1,-9.950900674E-1,3.018789053E0,7.321468830E0
3.211759614E1,-1.071704507E0,3.155258656E0,7.369352818E0
3.213765552E1,-1.062127709E0,3.334823608E0,7.580042362E0
3.215771489E1,-1.064521909E0,3.535936594E0,8.082824707E0
3.217777427E1,-1.325489879E0,3.686771393E0,8.444349289E0
3.219783364E1,-1.871367931E0,3.492841005E0,8.880094528E0
3.221789344E1,-2.220921278E0,3.227084637E0,9.473855972E0
3.223795333E1,-2.354996681E0,3.227084637E0,1.024957752E1
3.225801323E1,-2.742857218E0,3.251026630E0,1.047702694E1
3.227807286E1,-2.917634010E0,3.397073030E0,1.125993061E1
3.229813224E1,-3.157054186E0,3.121739626E0,1.204044056E1
3.231819161E1,-3.171419382E0,2.192789555E0,1.253604031E1
3.233825099E1,-3.403656960E0,8.304887414E-1,1.274194145E1
3.235831036E1,-3.312677383E0,1.385644227E-1,1.309628296E1
3.237837010E1,-3.094805002E0,3.588309884E-1,1.224394703E1
3.239842870E1,-3.317465782E0,7.562684417E-1,9.730035782E0
3.241848911E1,-3.106775999E0,1.280598640E0,7.311892033E0
3.243854890E1,-2.551321268E0,1.658882499E0,5.911283970E0
3.245860828E1,-2.173037291E0,1.735496998E0,5.430049419E0
3.247866745E1,-1.744475245E0,1.654094100E0,6.224924564E0
3.249872609E1,-9.759364724E-1,1.642123103E0,7.206547260E0
3.251878698E1,-4.731540978E-1,1.711554885E0,7.556100368E0
3.253884635E1,-3.318962157E-1,1.864783883E0,7.647080421E0
3.255890573E1,-5.545569658E-1,2.070685148E0,7.881711960E0
3.257896432E1,-1.019032121E0,2.288557529E0,8.329427719E0
3.259902265E1,-1.066916108E0,2.532766104E0,8.987833023E0
3.261908448E1,-1.263240695E0,2.685995102E0,9.782708168E0
3.263914385E1,-1.459565163E0,2.867954254E0,1.022563553E1
3.265920323E1,-1.833060622E0,2.994847059E0,1.037647057E1
3.267926260E1,-1.775599837E0,3.260603428E0,9.950302124E0
3.269932198E1,-1.291971087E0,3.552695990E0,9.368511200E0
3.271938135E1,-1.222539186E0,3.523965597E0,9.667786598E0
3.273944073E1,-1.081281304E0,3.047519445E0,1.205719948E1
3.275950010E1,-5.354033709E-1,2.872742653E0,1.287122822E1
3.277955948E1,-3.869628608E-1,2.750638485E0,1.184172153E1
3.279961885E1,9.666589648E-2,2.863165855E0,1.192073059E1
3.281967854E1,2.929904461E-1,3.183989048E0,1.254561710E1
3.283973844E1,4.638765752E-2,3.057096243E0,1.212663174E1
3.285979833E1,-3.989338577E-1,1.804928780E0,1.178186703E1
3.287985807E1,-8.729857802E-1,4.545990527E-1,1.294066048E1
3.289991745E1,-5.162497163E-1,-4.935048223E-1,1.355597019E1
3.291997682E1,1.660977453E-1,-2.469020486E-1,1.105881786E1
3.294003620E1,5.204395652E-1,5.120598674E-1,7.651868820E0
3.296009557E1,4.103063047E-1,1.311723232E0,5.236119270E0
3.298015495E1,2.962824516E-2,1.620575309E0,4.314351559E0
3.300021432E1,-3.223194182E-1,1.321300030E0,5.149928093E0
3.302027370E1,-1.153107405E0,8.687959313E-1,7.213729858E0
3.304033307E1,-1.636736155E0,4.976946712E-1,9.074024200E0
3.306039245E1,-1.414075375E0,2.965817451E-1,9.600749016E0
3.308045229E1,-9.472060204E-1,5.910685658E-1,8.760383606E0
3.310051218E1,-7.436988950E-1,1.065120459E0,7.563282967E0
3.312057208E1,-7.820061445E-1,1.460163713E0,7.146692276E0
3.314063166E1,-8.418611884E-1,1.601421714E0,7.287950039E0
3.316069104E1,-1.131559610E0,1.687612891E0,7.963114738E0
3.318074901E1,-1.651101351E0,1.728314400E0,8.566453934E0
3.320080870E1,-2.105999708E0,1.709160686E0,9.270348549E0
3.322086974E1,-2.031779528E0,1.725920200E0,9.615114212E0
3.324092911E1,-2.058115721E0,1.790563583E0,9.789890289E0
3.326098849E1,-2.180219889E0,1.570297003E0,1.064462090E1
3.328104833E1,-1.720533252E0,8.687959313E-1,1.241154194E1
3.330110771E1,-1.775599837E0,5.671265125E-1,1.312501335E1
3.332116708E1,-2.807500839E0,7.466916442E-1,1.251688671E1
3.334122646E1,-3.343801975E0,1.055543661E0,1.238999367E1
3.336128583E1,-2.723703623E0,1.491288424E0,1.246660805E1
3.338134588E1,-2.896086216E0,1.203984141E0,1.170046329E1
3.340140526E1,-2.970306396E0,4.234744310E-1,1.198776817E1
3.342146463E1,-2.627935648E0,-8.789712787E-1,1.287601662E1
3.344152401E1,-2.536956072E0,-1.554136157E0,1.359667110E1
3.346158338E1,-3.394080162E0,-1.278802991E0,1.185848141E1
3.348164276E1,-3.820248127E0,-5.413888693E-1,8.444349289E0
3.350170213E1,-3.413233757E0,4.138976336E-1,5.980715752E0
3.352176151E1,-2.860173225E0,1.055543661E0,4.575319290E0
3.354182088E1,-2.266411066E0,1.417068124E0,4.041412354E0
3.356188057E1,-1.268029094E0,1.481711626E0,4.766855717E0
3.358194109E1,-6.527192593E-1,1.457769513E0,6.651092529E0
3.360200047E1,-1.954267174E-1,1.405097127E0,7.647080421E0
3.362205984E1,4.941033721E-1,1.452981114E0,8.171410561E0
3.364211922E1,1.104624867E0,1.467346311E0,8.978256226E0
3.366217859E1,1.147720456E0,1.673247695E0,9.222464561E0
3.368223870E1,7.119757533E-1,1.898302674E0,9.200917244E0
3.370229807E1,2.786252201E-1,2.053925753E0,9.727641106E0
3.372235745E1,-3.980360180E-2,2.041954756E0,1.036928749E1
3.374241682E1,-1.331774741E-1,1.996464968E0,1.103248119E1
3.376247620E1,2.475005984E-1,2.219125748E0,1.128866100E1
3.378253630E1,6.186018586E-1,2.305316925E0,1.089601231E1
3.380259568E1,6.186018586E-1,2.173635960E0,1.059913063E1
3.382265505E1,2.235585898E-1,2.001253366E0,1.135569859E1
3.384271443E1,-3.390788138E-1,1.599027514E0,1.288319969E1
3.386277380E1,-7.820061445E-1,1.153705955E0,1.459026527E1
3.388283318E1,-6.024410129E-1,1.141734958E0,1.569878101E1
3.390289255E1,-7.245453000E-1,1.673247695E0,1.442985344E1
3.392295192E1,-1.057339311E0,1.227926254E0,1.256716442E1
3.394301130E1,-6.622960567E-1,-2.421136498E-1,1.248097324E1
3.396307109E1,1.972223669E-1,-1.060930610E0,1.243069553E1
3.398313099E1,7.239467502E-1,-8.143278360E-1,1.001255131E1
3.400319088E1,6.832453012E-1,-1.176151559E-1,6.335057735E0
3.402325057E1,5.970540643E-1,7.035959959E-1,4.070142746E0
3.404330995E1,3.887585104E-1,1.160888553E0,3.469198227E0
3.406336932E1,5.835866556E-2,9.885060191E-1,4.402936935E0
3.408342687E1,-6.718728542E-1,5.360019207E-1,5.963956356E0
3.410348750E1,-1.203385592E0,-3.860650212E-2,8.803479195E0
3.412354818E1,-1.464353561E0,-5.030816197E-1,1.071165848E1
3.414360755E1,-1.445199966E0,-2.660556734E-1,1.034774017E1
3.416366692E1,-1.241692901E0,1.553238332E-1,8.264783859E0
3.418372630E1,-9.352350235E-1,6.676830053E-1,7.419631004E0
3.420378568E1,-1.026214719E0,1.024419069E0,7.524975777E0
3.422384505E1,-1.248875499E0,1.326088428E0,7.790732384E0
3.424390443E1,-1.689408541E0,1.622969508E0,7.991845131E0
3.426396380E1,-1.921646118E0,1.824082375E0,8.401253700E0
3.428402333E1,-1.842637539E0,1.982099771E0,8.561665535E0
3.430408323E1,-1.916857719E0,2.264615536E0,8.719682693E0
3.432414312E1,-1.332672477E0,2.082656145E0,9.730035782E0
3.434420302E1,-6.814496517E-1,1.237503052E0,1.134851646E1
3.436426245E1,-7.317278981E-1,6.820482016E-1,1.317529202E1
3.438431974E1,-1.627159357E0,4.545990527E-1,1.435563374E1
3.440438041E1,-2.529773474E0,4.953004718E-1,1.515529633E1
3.442444109E1,-2.831442833E0,7.466916442E-1,1.534683323E1
3.444450047E1,-2.802712440E0,1.019630671E0,1.442506504E1
3.446455984E1,-3.003825426E0,6.748656034E-1,1.308910084E1
3.448461922E1,-3.683778524E0,-6.802525520E-1,1.316092682E1
3.450467859E1,-3.738845348E0,-2.155080795E0,1.423831749E1
3.452473797E1,-2.984671593E0,-2.835034132E0,1.378102493E1
3.454479734E1,-2.429216862E0,-2.289156199E0,9.935936928E0
3.456485672E1,-1.854608536E0,-1.501463771E0,5.693411827E0
3.458491620E1,-1.533785462E0,-6.587047577E-1,3.263296843E0
3.460497609E1,-1.459565163E0,-2.636614740E-1,2.856282711E0
3.462503599E1,-1.538573861E0,-5.536591262E-2,3.169923067E0
3.464509588E1,-1.248875499E0,1.649006456E-1,4.364629745E0
3.466515536E1,-6.096236110E-1,4.306570292E-1,6.268020153E0
3.468521088E1,-4.683656991E-1,7.490858436E-1,7.546523571E0
3.470527375E1,-1.762731075E-1,9.956886172E-1,7.541735172E0
3.472533396E1,2.091933787E-1,1.105821967E0,7.393294811E0
3.474539333E1,4.438251257E-1,1.311723232E0,7.553706169E0
3.476545271E1,5.156511664E-1,1.431433320E0,8.501810074E0
3.478551026E1,4.964975715E-1,1.524807215E0,9.955090523E0
3.480557125E1,-7.811082900E-2,1.608604312E0,1.124556541E1
3.482563161E1,-6.000468135E-1,1.680430293E0,1.263420200E1
3.484569099E1,-4.420294762E-1,1.776198387E0,1.300530338E1
3.486575036E1,5.970540643E-1,2.008435965E0,1.208592987E1
3.488580974E1,9.777321219E-1,2.041954756E0,1.104684639E1
3.490586911E1,8.699930310E-1,1.948580861E0,1.120965195E1
3.492592849E1,9.753379226E-1,1.771409988E0,1.222718811E1
3.494598786E1,9.490016699E-1,1.362001538E0,1.263420200E1
3.496604724E1,7.526771426E-1,1.491288424E0,1.288559341E1
3.498610786E1,7.550713420E-1,1.960551858E0,1.315853214E1
3.500616724E1,5.922656655E-1,2.417844534E0,1.245224285E1
3.502622661E1,-9.247604012E-2,1.804928780E0,1.192073059E1
3.504628599E1,2.283469886E-1,1.720832437E-1,1.326148319E1
3.506634536E1,1.485302925E0,-1.317110181E0,1.409227085E1
3.508640541E1,2.272995234E0,-1.520617366E0,1.169328117E1
3.510646479E1,1.877951980E0,-5.366004705E-1,8.020575523E0
3.512652416E1,9.801263213E-1,4.306570292E-1,5.367800236E0
3.514658354E1,1.014542952E-1,8.280945420E-1,4.922478676E0
3.516664291E1,-6.551134586E-1,4.929062724E-1,6.184223175E0
3.518670302E1,-1.157895803E0,-9.846154600E-2,8.327033043E0
3.520676239E1,-1.114800215E0,-6.970119476E-1,1.056321812E1
3.522682177E1,-1.078887105E0,-8.239046335E-1,1.059434223E1
3.524688114E1,-1.359008789E0,-3.426701128E-1,8.712499619E0
3.526694052E1,-1.560121655E0,2.151788771E-1,7.082048416E0
3.528699937E1,-1.370979786E0,4.857236743E-1,6.167463779E0
3.530705927E1,-1.047762513E0,7.227496505E-1,6.335057735E0
3.532711968E1,-9.088988304E-1,8.951321840E-1,6.143521786E0
3.534717906E1,-1.378162384E0,1.244685650E0,6.066906929E0
3.536723844E1,-1.864185333E0,1.716343403E0,6.789956093E0
3.538729781E1,-1.631947756E0,1.917456269E0,7.958326340E0
3.540735718E1,-1.268029094E0,1.833659172E0,8.829815865E0
3.542741656E1,-1.172261000E0,1.716343403E0,1.020887566E1
3.544747594E1,-1.090858102E0,1.352424741E0,1.232295609E1
3.546753531E1,-1.380556583E0,8.592191339E-1,1.338119316E1
3.548759568E1,-1.981501222E0,9.334393740E-1,1.299333286E1
3.550765505E1,-2.338237286E0,1.187224746E0,1.236605167E1
3.552771442E1,-1.933617115E0,1.397914529E0,1.218888092E1
3.554777380E1,-1.749263644E0,1.357213140E0,1.182735634E1
3.556783318E1,-2.872144222E0,6.293757558E-1,1.103726959E1
3.558789323E1,-4.825812817E0,-8.717886806E-1,1.017775154E1
3.560795260E1,-4.775534630E0,-2.791938543E0,1.156399441E1
3.562801198E1,-2.558503866E0,-4.549282551E0,1.439394093E1
3.564807135E1,-9.807248712E-1,-4.781519890E0,1.490390587E1
3.566813073E1,-1.318307281E0,-3.622726440E0,1.124795914E1
3.568819010E1,-2.841019630E0,-2.009034395E0,7.335834026E0
3.570824948E1,-4.380491257E0,-4.216787815E-1,4.639962673E0
3.572830885E1,-5.165789604E0,5.479729176E-1,4.283226967E0
3.574836823E1,-4.837783813E0,1.019630671E0,5.966350555E0
3.576842760E1,-3.951929092E0,1.033995867E0,7.678205013E0
3.578848823E1,-3.360561371E0,8.999205828E-1,8.145073891E0
3.580854760E1,-2.838625431E0,9.047089815E-1,8.025363922E0
3.582860698E1,-2.259228468E0,7.586626410E-1,7.891288757E0
3.584866635E1,-1.897704124E0,4.785410762E-1,8.130708694E0
3.586872573E1,-1.706167936E0,2.364274114E-2,8.825027466E0
3.588878510E1,-1.495478272E0,-1.607107818E-1,1.000058079E1
3.590884448E1,-1.689408541E0,1.170166060E-1,1.047463226E1
3.592890385E1,-2.096422911E0,7.442974448E-1,1.008437729E1
3.594896323E1,-2.362179279E0,1.429039121E0,9.275136948E0
3.596902260E1,-2.350208282E0,1.893514276E0,8.693346024E0
3.598908198E1,-2.129941702E0,2.065896749E0,9.009381294E0
3.600914156E1,-1.830666423E0,2.118569136E0,9.864110947E0
3.602920146E1,-1.698985338E0,2.199972153E0,1.046984386E1
3.604926135E1,-1.734898448E0,2.243067741E0,1.074757099E1
3.606932109E1,-1.706167936E0,1.994070768E0,1.128866100E1
3.608938047E1,-1.289576888E0,1.491288424E0,1.246900272E1
3.610943984E1,-8.298901916E-1,1.362001538E0,1.270363426E1
3.612949922E1,-9.041104317E-1,1.373972535E0,1.187763500E1
3.614955859E1,-9.160814285E-1,1.244685650E0,1.199016190E1
3.616961797E1,-8.466495872E-1,6.221931577E-1,1.255998230E1
3.618967656E1,-4.899135232E-1,-1.631049961E-1,1.257674122E1
3.620973682E1,-3.103483915E-1,-9.316437244E-1,1.190636539E1
3.622979698E1,-2.768295705E-1,-1.465550661E0,1.120246983E1
3.624985635E1,-1.379658729E-1,-1.293168187E0,1.007240677E1
3.626991573E1,-3.175309896E-1,-7.832032442E-1,8.315062523E0
3.628997172E1,3.456628621E-1,-5.102642179E-1,6.754043102E0
3.631003469E1,8.867524266E-1,-3.860650212E-2,5.983109951E0
3.633009427E1,9.609727263E-1,1.385644227E-1,6.191405773E0
3.635015364E1,8.197147846E-1,-1.607107818E-1,7.508216381E0
3.637021302E1,4.414309263E-1,-5.102642179E-1,9.296685219E0
3.639026974E1,3.312976658E-1,-6.922235489E-1,1.005085850E1
3.641033229E1,2.283469886E-1,-4.168903828E-1,9.327810287E0
3.643039166E1,-2.145803273E-1,5.955576897E-2,8.358158112E0
3.645045104E1,-4.324526787E-1,4.115034044E-1,8.214506149E0
3.647051041E1,-5.473743677E-1,5.360019207E-1,8.362946510E0
3.649056713E1,-3.821744323E-1,5.000888705E-1,8.705317497E0
3.651062963E1,-4.492121041E-1,5.790975094E-1,8.283937454E0
3.653068901E1,-1.150713205E0,8.328829408E-1,8.588001251E0
3.655074838E1,-1.636736155E0,1.036390066E0,9.308655739E0
3.657080776E1,-1.785176635E0,1.256656647E0,9.605537415E0
3.659086401E1,-1.794753432E0,1.385943532E0,9.579200745E0
3.661092698E1,-1.780388236E0,1.318905830E0,9.852140427E0
3.663098635E1,-1.579275250E0,1.000477076E0,1.094629002E1
3.665104573E1,-1.799541831E0,8.304887414E-1,1.187284660E1
3.667110578E1,-2.417245865E0,6.533178091E-1,1.250730991E1
3.669116245E1,-3.274370193E0,3.492541611E-1,1.296220779E1
3.671122385E1,-3.690961123E0,4.665700495E-1,1.285925770E1
3.673128370E1,-3.822642326E0,4.474164546E-1,1.186566353E1
3.675134307E1,-3.499425173E0,6.269815564E-1,1.128626728E1
3.677140245E1,-3.039738417E0,3.348889649E-1,1.166933918E1
3.679145849E1,-2.644695044E0,-1.990180165E-1,1.219845772E1
3.681152146E1,-2.417245865E0,-8.286930919E-1,1.226070690E1
3.683158099E1,-1.876156330E0,-2.011428595E0,1.257195282E1
3.685164036E1,-9.639654756E-1,-3.119944096E0,1.317768574E1
3.687169974E1,-1.164180562E-1,-3.610755444E0,1.247618484E1
3.689175911E1,1.469441354E-1,-3.189375877E0,1.002212811E1
3.691181849E1,-1.107318327E-2,-2.126350403E0,7.465120792E0
3.693187786E1,-6.838438511E-1,-7.855974436E-1,5.612008572E0
3.695193724E1,-1.569698453E0,3.875614107E-1,4.879383087E0
3.697199708E1,-1.677437544E0,1.105821967E0,4.891354084E0
3.699205182E1,-1.189020395E0,1.321300030E0,5.489904404E0
3.701211620E1,-6.958148479E-1,1.373972535E0,6.864176273E0
3.703217557E1,-3.390788138E-1,1.172859550E0,7.888894558E0
3.705223495E1,-3.869628608E-1,9.166799784E-1,8.738836288E0
3.707229474E1,-7.245453000E-1,7.131728530E-1,9.564835548E0
3.709235255E1,-9.759364724E-1,6.700772047E-1,9.938331604E0
3.711241291E1,-7.628524899E-1,6.700772047E-1,9.900024414E0
3.713247286E1,-7.532756925E-1,8.328829408E-1,9.363722801E0
3.715253224E1,-9.496002197E-1,1.184830546E0,9.062053680E0
3.717259239E1,-1.078887105E0,1.572691202E0,9.205705643E0
3.719264828E1,-1.124377012E0,1.891120076E0,9.059659004E0
3.721271073E1,-1.303942084E0,2.207154751E0,8.657433510E0
3.723277010E1,-1.485901475E0,2.458545923E0,9.047688484E0
3.725282948E1,-1.433228970E0,2.623745680E0,9.823410034E0
3.727288906E1,-1.399710178E0,2.585438490E0,1.031661510E1
3.729294568E1,-1.198597193E0,2.314893723E0,1.075954247E1
3.731300797E1,-7.053917050E-1,1.929427266E0,1.166933918E1
3.733306734E1,-1.346738450E-2,1.685218692E0,1.248336792E1
3.735312672E1,-1.346738450E-2,1.749862194E0,1.212902546E1
3.737318630E1,-7.092822343E-2,2.080261946E0,1.171482849E1
3.739324349E1,-5.895721540E-2,2.334047318E0,1.139400578E1
3.741330495E1,1.517325342E-1,2.142511129E0,1.127190113E1
3.743336458E1,1.517325342E-1,1.639728904E0,1.129105568E1
3.745342396E1,3.408744633E-1,5.024830699E-1,1.190875912E1
3.747348333E1,1.135749459E0,-6.084265113E-1,1.290474701E1
3.749354271E1,1.885134578E0,-9.723451734E-1,1.208114147E1
3.751360208E1,1.638531804E0,-4.240729809E-1,9.349357605E0
3.753366146E1,1.169268250E0,1.936310679E-1,7.237671852E0
3.755372083E1,7.694365978E-1,6.652888060E-1,6.394912720E0
3.757378021E1,-1.586158574E-2,5.144540668E-1,6.612784863E0
3.759383958E1,-1.088463902E0,3.277063668E-1,7.620744228E0
3.761389896E1,-1.569698453E0,7.870937884E-2,8.815450668E0
3.763395833E1,-1.220144987E0,-1.870470047E-1,9.117119789E0
3.765401771E1,-4.468179047E-1,-6.733692437E-2,8.317456245E0
3.767407708E1,-1.346738450E-2,4.043208063E-1,7.503427982E0
3.769413646E1,-1.009455323E0,1.309329033E0,7.580042362E0
3.771419583E1,-3.774758339E0,2.535160303E0,7.869740963E0
3.773425521E1,-6.585551262E0,4.007594585E0,7.237671852E0
3.775431458E1,-6.487388611E0,4.524742126E0,6.150704384E0
3.777437396E1,-4.299088478E0,3.648464203E0,6.658275127E0
3.779443349E1,-2.218527079E0,2.556708097E0,8.353369713E0
3.781449338E1,-1.359008789E0,1.690007091E0,9.658209801E0
3.783455328E1,-8.274959922E-1,1.086668253E0,1.115458584E1
3.785461291E1,-6.527192593E-1,6.365583539E-1,1.227267838E1
3.787467151E1,-7.796119452E-1,3.324947655E-1,1.242351246E1
3.789472786E1,-1.047762513E0,8.828619123E-2,1.227267838E1
3.791479125E1,-1.390133381E0,2.364274114E-2,1.227267838E1
3.793485062E1,-1.284788489E0,3.561374918E-2,1.165736771E1
3.795491000E1,-1.624765158E0,2.606687248E-1,1.095586681E1
3.797496937E1,-1.969530225E0,5.360019207E-1,1.084333992E1
3.799502875E1,-2.287959099E0,3.612251878E-1,1.143231297E1
3.801508812E1,-2.745251417E0,-9.876081720E-3,1.227267838E1
3.803514750E1,-3.011008024E0,-7.425017953E-1,1.288080502E1
3.805520687E1,-2.252045870E0,-1.245284200E0,1.305797577E1
3.807526625E1,-1.220144987E0,-1.388936281E0,1.194946098E1
3.809532562E1,-1.404498577E0,-9.100959301E-1,9.952696800E0
3.811538500E1,-2.326266289E0,-1.726817936E-1,7.764396191E0
3.813544437E1,-3.056497812E0,4.474164546E-1,5.592854977E0
3.815550375E1,-3.001430988E0,6.748656034E-1,4.874594688E0
3.817556312E1,-2.486677647E0,4.450222552E-1,5.164293289E0
3.819562250E1,-1.713350534E0,7.392098010E-2,6.349422932E0
3.821568187E1,-1.229721904E0,1.816600561E-1,7.441178799E0
3.823574125E1,-1.409286976E0,3.301005661E-1,8.425195694E0
3.825580062E1,-1.962347627E0,5.503671169E-1,8.489839554E0
3.827586000E1,-2.311901093E0,6.628946066E-1,8.518569946E0
3.829591937E1,-1.746869445E0,6.221931577E-1,8.925583839E0
3.831597875E1,-1.234510303E0,6.772598028E-1,9.409213066E0
3.833603818E1,-1.385344982E0,1.091456652E0,9.725247383E0
3.835609807E1,-2.170643091E0,1.730708599E0,9.162610054E0
3.837615797E1,-2.517802477E0,2.173635960E0,8.731653214E0
3.839621765E1,-2.702155828E0,2.477699518E0,8.240841866E0
3.841627703E1,-2.441187859E0,2.669235706E0,8.140285492E0
3.843633640E1,-1.701379538E0,2.681206703E0,8.482656479E0
3.845639578E1,-9.903016686E-1,2.231096745E0,9.777919769E0
3.847645515E1,-8.562263846E-1,1.692401290E0,1.129584408E1
3.849651354E1,-4.061164558E-1,1.069908857E0,1.310107136E1
3.851657396E1,-1.643020958E-1,8.376713395E-1,1.377384281E1
3.853663364E1,-2.672527730E-1,7.083844543E-1,1.383369732E1
3.855669302E1,3.049614429E-1,6.772598028E-1,1.456632328E1
3.857675135E1,7.191583514E-1,7.131728530E-1,1.467645645E1
3.859680969E1,5.596446618E-2,7.610568404E-1,1.461660099E1
3.861687135E1,-1.093252301E0,2.103904784E-1,1.494460678E1
3.863693073E1,-9.472060204E-1,-5.557540655E-1,1.549766731E1
3.865699010E1,-5.177461356E-2,-8.885480762E-1,1.374990082E1
3.867704937E1,4.557961524E-1,-4.432265759E-1,9.928754807E0
3.869710760E1,7.359177470E-1,1.696890444E-1,7.141903877E0
3.871716844E1,7.454945445E-1,5.934627652E-1,6.423643112E0
3.873722781E1,5.922656655E-1,5.407903194E-1,6.768408298E0
3.875728718E1,1.684919447E-1,2.822165191E-1,7.467514992E0
3.877734656E1,-2.552817464E-1,1.385644227E-1,7.647080421E0
3.879740594E1,-3.893570602E-1,1.888426542E-1,7.376535416E0
3.881746531E1,-4.396352768E-1,3.324947655E-1,6.519411087E0
3.883752469E1,-3.486556113E-1,4.881178737E-1,6.009446144E0
3.885758406E1,-1.714846939E-1,5.264251232E-1,5.896918774E0
3.887764291E1,-3.890577704E-3,6.293757558E-1,6.373364925E0
3.889770094E1,2.546831965E-1,6.940191984E-1,6.655880928E0
3.891776260E1,1.996165663E-1,9.621698260E-1,6.263231754E0
3.893782198E1,-3.630208373E-1,1.426644921E0,6.047753334E0
3.895788135E1,-8.753799796E-1,1.606210113E0,6.751648903E0
3.897794073E1,-1.100434899E0,1.690007091E0,7.867346764E0
3.899800010E1,-1.342249274E0,1.836053371E0,8.927978516E0
3.901805948E1,-2.501042843E0,1.759438992E0,9.900024414E0
3.903811885E1,-4.042908669E0,1.266233444E0,1.128626728E1
3.905817823E1,-4.914398193E0,9.909002185E-1,1.345062542E1
3.907823760E1,-5.096357822E0,4.234744310E-1,1.417127991E1
3.909829698E1,-4.399644852E0,2.654571235E-1,1.317289734E1
3.911835635E1,-4.038120270E0,6.197989583E-1,1.236844635E1
3.913841573E1,-4.493018627E0,1.182436347E0,1.217212105E1
3.915847510E1,-5.963058472E0,1.041178465E0,1.179862595E1
3.917853448E1,-5.929539680E0,-5.087678786E-3,1.235647488E1
3.919859385E1,-3.822642326E0,-9.867103696E-1,1.364694977E1
3.921865323E1,-2.038962126E0,-1.520617366E0,1.352245140E1
3.923871260E1,-2.556109667E0,-1.142333508E0,1.125035381E1
3.925877198E1,-3.935169697E0,-1.535281837E-1,8.418013573E0
3.927883135E1,-4.524143219E0,7.131728530E-1,6.323086739E0
3.929889073E1,-4.014178276E0,1.029207468E0,4.876988888E0
3.931895010E1,-2.750039816E0,8.927379847E-1,4.254496574E0
3.933900948E1,-1.411681175E0,8.161234856E-1,4.817133904E0
3.935906885E1,-5.521627665E-1,9.142857790E-1,6.088454723E0
3.937912823E1,-6.000468135E-1,9.621698260E-1,7.077260017E0
3.939918635E1,-5.856816173E-1,6.245873570E-1,7.879317760E0
3.941924765E1,-4.468179047E-1,1.002571955E-1,8.623914719E0
3.943930703E1,-1.427542716E-1,-2.708440721E-1,9.742006302E0
3.945936640E1,1.637035459E-1,-3.570353389E-1,1.052491093E1
3.947942578E1,1.325789243E-1,7.631517947E-2,1.046745014E1
3.949948515E1,-2.959831953E-1,9.645640254E-1,9.782708168E0
3.951954453E1,-8.227075338E-1,1.795351982E0,8.920795441E0
3.953960390E1,-9.903016686E-1,2.451363325E0,8.494627953E0
3.955966328E1,-7.676409483E-1,2.769792080E0,8.834604263E0
3.957972073E1,-5.545569658E-1,2.753032684E0,9.208099365E0
3.959977838E1,-5.018845201E-1,2.293345928E0,1.101332760E1
3.961984151E1,-5.425859690E-1,1.960551858E0,1.262701988E1
3.963990088E1,-9.017162323E-1,1.567902803E0,1.340274143E1
3.965996026E1,-1.124377012E0,1.309329033E0,1.438436413E1
3.968001833E1,-3.295020163E-1,7.466916442E-1,1.561258888E1
3.970007719E1,7.311293483E-1,4.282628298E-1,1.612015915E1
3.972013844E1,5.826888680E-1,2.271498889E-1,1.501643276E1
3.974019781E1,2.005143836E-2,-6.395511031E-1,1.454716969E1
3.976025718E1,-1.499368846E-1,-1.556530356E0,1.455195808E1
3.978031578E1,-1.346738450E-2,-1.364994287E0,1.262701988E1
3.980037484E1,-1.140238568E-1,-7.736264467E-1,8.554482460E0
3.982043531E1,1.397615224E-1,8.589198440E-2,4.786009312E0
3.984049468E1,4.725555480E-1,6.078279614E-1,3.186682463E0
3.986055406E1,3.863643110E-1,4.857236743E-1,3.770867586E0
3.988061161E1,-2.935889959E-1,1.313818246E-1,5.288791656E0
3.990067041E1,-8.969278336E-1,-3.642179370E-1,7.386112213E0
3.992073219E1,-1.469141960E0,-7.568669915E-1,8.992621422E0
3.994079156E1,-1.672649145E0,-7.065888047E-1,9.825803757E0
3.996085094E1,-1.622370958E0,-4.121019542E-1,8.980650902E0
3.998090739E1,-1.598428965E0,1.241992116E-1,7.347805023E0
4.000096661E1,-1.562515855E0,6.988075972E-1,6.229712963E0
4.002102896E1,-1.416469574E0,1.218349338E0,5.865794182E0
4.004108781E1,-1.567304254E0,1.622969508E0,5.911283970E0
4.006114666E1,-1.952770710E0,1.850418687E0,6.490680695E0
4.008120713E1,-2.347814083E0,1.982099771E0,7.675810814E0
4.010126651E1,-2.587234259E0,2.154482365E0,9.255983353E0
4.012132583E1,-2.278382301E0,2.152088165E0,1.060631371E1
4.014138469E1,-2.149095297E0,2.053925753E0,1.114022064E1
4.016144354E1,-2.347814083E0,1.692401290E0,1.165257931E1
4.018150271E1,-2.058115721E0,1.230320454E0,1.263899040E1
4.020156208E1,-2.297535896E0,9.118915796E-1,1.329739666E1
4.022162146E1,-2.967912197E0,8.496423364E-1,1.397016716E1
4.024168083E1,-3.216909170E0,8.496423364E-1,1.470758057E1
4.026174021E1,-3.475482941E0,8.161234856E-1,1.457350540E1
4.028180073E1,-3.848978519E0,7.631517947E-2,1.398213768E1
4.030186000E1,-3.640682936E0,-1.451185465E0,1.423113537E1
4.032191885E1,-2.757222414E0,-2.660257339E0,1.490390587E1
4.034197771E1,-2.316689491E0,-2.736871719E0,1.287122822E1
4.036203687E1,-2.438793659E0,-2.236483574E0,8.221688271E0
4.038209625E1,-2.323872089E0,-1.506252170E0,3.904942989E0
4.040215562E1,-1.777994037E0,-7.448959947E-1,1.786074519E0
4.042221500E1,-1.610399961E0,-5.294178724E-1,1.728613615E0
4.044227437E1,-1.749263644E0,-4.599860013E-1,2.978386879E0
4.046233375E1,-9.926958680E-1,-5.868787169E-1,5.056553841E0
4.048239406E1,4.878186062E-2,-2.995744944E-1,7.328651428E0
4.050245291E1,3.001730442E-1,1.385644227E-1,7.922413349E0
4.052251177E1,-4.698620737E-2,6.006453633E-1,8.030152321E0
4.054257104E1,-4.611831009E-1,1.050755262E0,8.255207062E0
4.056263041E1,-8.346785903E-1,1.199195743E0,9.050082207E0
4.058269094E1,-6.622960567E-1,1.373972535E0,1.086728191E1
4.060274979E1,-8.059481382E-1,1.577479601E0,1.226549530E1
4.062280864E1,-1.402104378E0,1.840841889E0,1.280179691E1
4.064286776E1,-1.928828716E0,1.824082375E0,1.292629528E1
4.066292713E1,-1.469141960E0,1.699583888E0,1.269166279E1
4.068298771E1,-6.646902561E-1,1.625363708E0,1.170764637E1
4.070304661E1,-6.335656047E-1,1.625363708E0,1.034295177E1
4.072310547E1,-9.256582260E-1,1.634940505E0,1.026873112E1
4.074316448E1,-3.318962157E-1,1.455375314E0,1.122880554E1
4.076322385E1,1.349731237E-1,8.472481370E-1,1.178186703E1
4.078328437E1,3.145382404E-1,5.862801671E-1,1.283052731E1
4.080334375E1,8.987234831E-1,5.743091106E-1,1.427901936E1
4.082340260E1,8.915408850E-1,4.091092050E-1,1.428620148E1
4.084346146E1,5.395932198E-1,-6.970119476E-1,1.337879944E1
4.086352052E1,4.773439765E-1,-1.824680924E0,1.388397598E1
4.088357989E1,8.628104329E-1,-2.344222784E0,1.328781986E1
4.090363927E1,1.456572413E0,-1.953967810E0,1.001015759E1
4.092369864E1,1.456572413E0,-1.147121906E0,6.607996464E0
4.094375802E1,9.801263213E-1,-3.163338900E-1,4.541800499E0
4.096381739E1,3.169324398E-1,-1.227028389E-2,4.345476151E0
4.098387677E1,-7.317278981E-1,-2.588730454E-1,5.765237808E0
4.100393614E1,-1.811512828E0,-4.863222241E-1,8.025363922E0
4.102399552E1,-2.031779528E0,-7.903858423E-1,1.083615685E1
4.104405489E1,-1.758840442E0,-9.005191326E-1,1.053688145E1
4.106411427E1,-1.409286976E0,-3.977367580E-1,8.908824921E0
4.108417364E1,-1.215356588E0,2.079962790E-1,7.223306656E0
4.110423302E1,-1.114800215E0,8.400655389E-1,5.983109951E0
4.112429239E1,-9.615712762E-1,1.357213140E0,5.556941986E0
4.114435177E1,-9.112930298E-1,1.546355009E0,5.786785603E0
4.116441114E1,-1.169866800E0,1.606210113E0,6.619967937E0
4.118447062E1,-1.557727456E0,1.603815913E0,8.348581314E0
4.120452922E1,-1.622370958E0,1.563114405E0,9.660603523E0
4.122458859E1,-8.993220329E-1,1.376366735E0,1.034295177E1
4.124464797E1,-5.761047602E-1,8.664017320E-1,1.112106705E1
4.126470734E1,-1.636736155E0,5.168482661E-1,1.214099693E1
4.128476765E1,-2.742857218E0,3.731961846E-1,1.313937855E1
4.130482651E1,-3.252822399E0,2.774281204E-1,1.305079365E1
4.132488536E1,-3.094805002E0,3.324947655E-1,1.284010410E1
4.134494453E1,-2.869750023E0,5.671265125E-1,1.266053867E1
4.136500390E1,-2.934393406E0,4.426280260E-1,1.243069553E1
4.138506427E1,-3.379714966E0,-4.695627987E-1,1.327584839E1
4.140512312E1,-3.252822399E0,-1.685817242E0,1.480095482E1
4.142518198E1,-2.776376247E0,-2.356193781E0,1.598129654E1
4.144524120E1,-3.003825426E0,-1.800738931E0,1.288080502E1
4.146530057E1,-3.441964149E0,-9.100959301E-1,8.362946510E0
4.148535995E1,-3.418022156E0,1.720832437E-1,5.413290024E0
4.150541932E1,-3.238456964E0,5.790975094E-1,4.742913723E0
4.152547870E1,-3.226485968E0,6.413467526E-1,5.035006046E0
4.154553807E1,-2.493860245E0,6.605004072E-1,6.366182327E0
4.156559745E1,-1.761234641E0,5.862801671E-1,7.824251175E0
4.158565771E1,-1.500266671E0,6.150105596E-1,8.341399193E0
4.160571656E1,-1.121982813E0,7.514800429E-1,7.802703381E0
4.162577541E1,-5.114613175E-1,7.873930931E-1,7.249642849E0
