"Time (s)","Linear Acceleration x (m/s^2)","Linear Acceleration y (m/s^2)","Linear Acceleration z (m/s^2)"
7.010921600E-2,-1.200845242E0,-3.610054255E-1,1.756870270E0
9.017843500E-2,1.698811054E-1,-5.487676859E-1,1.228450775E0
1.102454140E-1,8.909714222E-1,-6.327278614E-1,2.688131332E-1
1.303053100E-1,7.489087582E-1,-6.098840237E-1,-3.713855743E-1
1.503652060E-1,3.266737461E-1,-3.079297543E-1,-7.977218628E-1
1.704251020E-1,3.484559059E-2,-8.170962334E-2,-8.998484612E-1
1.904853100E-1,1.521635056E-2,-5.982971191E-2,-4.669475555E-1
2.105457270E-1,-1.079370975E-1,1.021099091E-2,2.579183578E-1
2.306061440E-1,-5.697703362E-2,6.768560410E-2,8.019485474E-1
2.506665600E-1,3.330190182E-1,1.126804352E-1,9.825201035E-1
2.707269770E-1,1.031699657E0,8.112239838E-2,6.223287582E-1
2.907873940E-1,1.433196902E0,1.664867401E-1,1.371116638E-1
3.108474980E-1,1.605578780E0,2.275176048E-1,9.069442749E-2
3.309073940E-1,1.280836463E0,3.614490032E-1,3.016757965E-1
3.509672890E-1,7.644419670E-1,5.130903721E-1,5.300636292E-1
3.710271850E-1,6.686797142E-1,5.233995914E-1,5.360031128E-1
3.910872370E-1,7.659754753E-1,4.410996437E-1,6.589269638E-1
4.111476540E-1,9.245264530E-1,3.342332840E-1,5.496301651E-1
4.312080710E-1,1.160519958E0,1.898078918E-1,1.997756958E-2
4.512684870E-1,1.152686834E0,1.479134560E-1,-4.333095551E-1
4.713289040E-1,1.088046551E0,1.812248230E-1,-5.025119781E-1
4.913893210E-1,1.211652517E0,1.310451031E-1,-6.116800308E-1
5.114494250E-1,1.326168060E0,1.719799042E-1,-6.401767731E-1
5.315093210E-1,1.180587888E0,2.438571453E-1,-5.974693298E-1
5.515692160E-1,9.827387333E-1,3.252220154E-1,-6.531524658E-1
5.716291120E-1,6.874159575E-1,4.549252987E-1,-6.456737518E-1
5.916891120E-1,5.663015842E-1,5.788791180E-1,-6.937885284E-1
6.117495290E-1,2.981860638E-1,6.716976166E-1,-5.995845795E-1
6.318099460E-1,1.573687792E-1,6.543984413E-1,-6.887035370E-1
6.518703620E-1,8.733642101E-2,5.774590969E-1,-6.787023544E-1
6.719307790E-1,1.019468307E-1,6.149325371E-1,-7.295103073E-1
6.919911960E-1,-2.660989761E-3,7.010040283E-1,-5.051898956E-1
7.120511440E-1,7.079696655E-2,7.220768929E-1,-3.639144897E-1
7.321110390E-1,-5.556988716E-2,7.924246788E-1,-2.795858383E-1
7.521709350E-1,-1.712644100E-1,7.447547913E-1,1.338100433E-1
7.722318730E-1,-6.056702137E-2,5.717420578E-1,5.049257278E-1
7.922917690E-1,-1.692405939E-1,3.582546711E-1,8.748474121E-1
8.123516640E-1,-1.073443890E-1,9.819531441E-2,1.097565651E0
8.324115600E-1,1.321121454E-1,1.100802422E-2,1.499438286E0
8.524714560E-1,1.322530508E-1,1.531333923E-1,1.593886375E0
8.725327060E-1,-2.200560570E-1,2.715840340E-1,1.556790352E0
8.925926020E-1,-2.896250486E-1,2.072913647E-1,2.132082939E0
9.126524980E-1,-9.468030930E-2,2.526533604E-2,2.148620605E0
9.327123940E-1,1.604613662E-1,-3.767600060E-1,1.900253296E0
9.527722890E-1,5.811343789E-1,-1.136167288E0,1.966832161E0
9.728324980E-1,1.093665600E0,-1.903703451E0,2.479057312E0
9.928929140E-1,1.579202652E0,-2.382307291E0,2.296340942E0
1.012953331E0,1.676205277E0,-2.316237926E0,9.372692108E-1
1.033013748E0,1.490636110E0,-1.759578466E0,-6.434812546E-1
1.053074164E0,1.419487953E0,-1.313833952E0,-1.589552879E0
1.073134321E0,1.541619420E0,-1.002443671E0,-1.900043964E0
1.093194216E0,1.403491735E0,-8.625228405E-1,-1.483912468E0
1.113254112E0,1.135331392E0,-9.947357178E-1,-8.104839325E-1
1.133286508E0,7.094751000E-1,-1.173611164E0,-3.051061630E-1
1.153375050E0,4.468183219E-1,-1.219375610E0,5.065612793E-1
1.173434998E0,4.394609332E-1,-1.320131063E0,1.206212044E0
1.193494894E0,6.753574610E-1,-1.212991238E0,1.309496880E0
1.213554789E0,9.671161175E-1,-1.061933279E0,4.094552994E-1
1.233614685E0,1.019810438E0,-7.151175737E-1,-9.290037155E-1
1.253674581E0,1.071417570E0,-4.115518332E-1,-1.705663681E0
1.273735935E0,7.551918030E-1,-1.856415272E-1,-1.882614613E0
1.293795831E0,5.584952235E-1,-6.947481632E-2,-1.754883289E0
1.313855727E0,6.745705605E-1,-7.918822765E-2,-1.396396637E0
1.333915623E0,8.249555230E-1,-1.072953939E-1,-1.302617073E0
1.353975519E0,7.782168984E-1,-1.756775379E-2,-1.252774239E0
1.374033487E0,6.151150465E-1,2.662658691E-2,-1.108998299E0
1.394093591E0,3.688786924E-1,1.557683945E-2,-1.011489868E0
1.414156925E0,1.123986244E-1,1.706004143E-2,-1.829738617E-1
1.434216821E0,-2.004216909E-1,-1.361367702E-1,9.299764633E-1
1.454276716E0,-5.730133057E-1,-2.005399466E-1,1.809341431E0
1.474337394E0,-1.162753463E0,-1.070789099E-1,2.205362320E0
1.494397289E0,-1.625632048E0,1.175512075E-1,1.917943954E0
1.514457185E0,-1.580073357E0,3.153327703E-1,1.339471817E0
1.534517081E0,-1.358035207E0,6.596814394E-1,3.935918808E-1
1.554576977E0,-1.383284569E0,8.962255716E-1,-1.033000946E-1
1.574638175E0,-1.069568396E0,7.938327789E-1,9.482507706E-1
1.594698071E0,-8.672682047E-1,4.137591124E-1,2.184164047E0
1.614757966E0,-1.031502485E0,6.351995468E-2,3.379675865E0
1.634817862E0,-1.285931945E0,-6.500975490E-1,4.328722954E0
1.654877758E0,-1.167038679E0,-1.429544210E0,4.521707535E0
1.674937654E0,-4.591432810E-1,-1.781382918E0,3.619610786E0
1.694998071E0,7.228136063E-3,-1.711371183E0,1.166716576E0
1.715058487E0,-9.803509712E-2,-1.316291928E0,-1.831762314E0
1.735118904E0,-5.755715370E-1,-9.644071460E-1,-3.815423489E0
1.755179321E0,-9.446593523E-1,-7.081995010E-1,-4.502233982E0
1.775236456E0,-1.018585682E0,-8.310269117E-1,-4.534561157E0
1.795297602E0,-8.367364407E-1,-1.000476360E0,-3.780613899E0
1.815359737E0,-5.508975983E-1,-1.038724303E0,-2.695971489E0
1.835419633E0,-3.336162567E-1,-7.619520426E-1,-1.650619507E0
1.855479529E0,-6.557750702E-2,-5.769259930E-1,-1.517170906E0
1.875540206E0,2.778255939E-1,-4.432622194E-1,-1.511539459E0
1.895600102E0,1.427779198E-1,-2.457765341E-1,-6.564950943E-1
1.915659998E0,7.547950745E-2,-5.437135696E-3,-4.586410522E-2
1.935719894E0,-4.449547529E-1,3.635262251E-1,-2.837905884E-1
1.955779789E0,-8.825545311E-1,6.560467482E-1,-2.946853638E-1
1.975840831E0,-6.024576426E-1,7.562409639E-1,-3.338975906E-1
1.995900727E0,-2.145490646E-1,8.657752275E-1,-8.255548477E-1
2.015960623E0,-1.212215424E-2,1.002555847E0,-1.113971710E0
2.036020519E0,-1.015412807E-1,9.255077839E-1,-2.907600403E-1
2.056080414E0,3.850176334E-1,7.496423721E-1,4.986820221E-1
2.076141039E0,1.001304865E0,7.112860680E-1,7.813472748E-1
2.096200466E0,1.036183476E0,6.512334347E-1,8.653411865E-1
2.116260883E0,8.655118942E-1,4.610209465E-1,1.588699341E0
2.136321300E0,1.302331805E0,-2.887964249E-3,2.843776703E0
2.156381716E0,1.630832672E0,-5.635168552E-1,3.466259956E0
2.176441300E0,1.412735939E0,-6.147891283E-1,3.698282242E0
2.196501196E0,1.326395154E0,-4.886740446E-1,4.164833069E0
2.216562133E0,1.240076661E0,-2.312233448E-1,3.508688927E0
2.236622446E0,1.015403390E0,-7.552862167E-3,2.331515312E0
2.256682341E0,7.969120741E-1,-7.303421497E-1,1.583810806E0
2.276742185E0,9.976188540E-1,-1.695202351E0,1.883077621E0
2.296801769E0,1.259531260E0,-2.199177980E0,1.706390381E0
2.316862706E0,1.076690197E0,-1.934705496E0,2.332487106E-1
2.336923071E0,6.134068370E-1,-1.562133074E0,-1.183849335E0
2.356982966E0,3.973825276E-1,-1.379643440E0,-1.848854542E0
2.377041873E0,1.087461114E-1,-1.354731202E0,-1.872671604E0
2.397102498E0,-1.291276813E-1,-1.586497426E0,-1.362305641E0
2.417163539E0,1.322120428E-2,-1.799071550E0,-5.745916367E-1
2.437223435E0,5.717104673E-2,-1.881369352E0,-6.956729889E-1
2.457283331E0,1.856791973E-2,-1.803868055E0,-1.237195015E0
2.477342237E0,-7.429629564E-2,-1.621403813E0,-1.554265499E0
2.497402394E0,-1.976872683E-1,-1.352000594E0,-1.755004406E0
2.517464164E0,-2.423272729E-1,-1.034547329E0,-1.691135883E0
2.537524060E0,-2.000524998E-1,-7.012283802E-1,-2.258295536E0
2.557583956E0,-2.005779743E-1,-3.338708878E-1,-2.591963291E0
2.577644216E0,-1.338943839E-1,-9.081149101E-2,-2.135866165E0
2.597703591E0,1.068033576E-1,1.223952770E-1,-1.567573071E0
2.617763748E0,5.096262693E-2,3.609528542E-1,-9.476394653E-1
2.637824164E0,2.112355828E-1,4.670474529E-1,-7.829952240E-2
2.657884581E0,-2.166617513E-1,3.857960701E-1,8.447170258E-1
2.677944060E0,-9.449731708E-1,1.858415604E-1,1.698960304E0
2.698004425E0,-1.304455519E0,-1.836931705E-1,2.794723511E0
2.718065362E0,-1.384305358E0,-2.250204086E-1,3.337080002E0
2.738125258E0,-1.427548289E0,2.298283577E-2,2.950364113E0
2.758185154E0,-1.509093523E0,2.561123371E-1,2.185622215E0
2.778245050E0,-1.211827278E0,5.687437057E-1,1.541225433E0
2.798304946E0,-1.573622704E0,4.581553936E-1,8.351030350E-1
2.818364841E0,-2.301229000E0,-2.276077271E-1,1.403450966E0
2.838424998E0,-2.527349472E0,-1.162210464E0,3.177559853E0
2.858485414E0,-1.966419339E0,-1.796002150E0,3.789045334E0
2.878545831E0,-1.450826049E0,-1.638008714E0,1.539516449E0
2.898606248E0,-1.243026376E0,-1.316897631E0,-1.403957367E0
2.918666508E0,-7.586030960E-1,-1.212433100E0,-3.865600586E0
2.938726404E0,-1.266599894E-1,-1.151501179E0,-4.742536068E0
2.958786300E0,-3.110456467E-2,-1.530158877E0,-3.821016312E0
2.978846196E0,1.361427307E-1,-1.630573511E0,-1.806540489E0
2.998906091E0,2.565296888E-1,-1.059129834E0,-6.155014038E-2
3.018965987E0,3.269271851E-1,-4.606751204E-1,-4.504108429E-1
3.039026091E0,6.452210546E-1,1.970291138E-3,-1.426738262E0
3.059086508E0,9.687240720E-1,1.982622147E-1,-2.115299225E0
3.079146144E0,1.286550164E0,1.758739948E-1,-1.769885063E0
3.099206821E0,1.149274707E0,1.203825474E-1,-7.308588028E-1
3.119267602E0,7.685156465E-1,2.160079479E-1,3.167343140E-2
3.139327498E0,4.560080171E-1,5.454163551E-1,1.717309952E-1
3.159387394E0,4.958373308E-1,8.688206673E-1,-6.207447052E-1
3.179447862E0,5.833216906E-1,1.044233084E0,-9.634275436E-1
3.199507758E0,6.692735553E-1,1.076939344E0,-4.928026199E-1
3.219567654E0,8.616042733E-1,1.112444401E0,2.618150711E-1
3.239627550E0,1.026747108E0,1.065825939E0,6.920747757E-1
3.259687446E0,9.719761610E-1,7.782890797E-1,1.170001984E0
3.279748435E0,1.381306887E0,6.425590515E-1,1.791752815E0
3.299808331E0,1.467076302E0,3.978874683E-1,1.705734253E0
3.319868227E0,9.829794168E-1,2.945456505E-1,1.943163872E0
3.339928123E0,1.157119036E0,3.211061954E-1,3.136571884E0
3.359988019E0,1.186711073E0,4.338359833E-1,3.343214035E0
3.380048956E0,8.876967430E-1,3.480184078E-1,2.275630951E0
3.400108852E0,6.340637803E-1,-4.689263105E-1,2.899221420E0
3.420168748E0,5.081135035E-1,-1.599057078E0,4.042666435E0
3.440228644E0,4.356288314E-1,-2.344063520E0,3.302400589E0
3.460288539E0,4.159897864E-1,-1.888361096E0,3.153791428E-1
3.480348435E0,6.198953986E-1,-1.216177583E0,-2.327785969E0
3.500408539E0,6.976404786E-1,-8.979181051E-1,-3.835659027E0
3.520468956E0,5.681073666E-1,-1.046149850E0,-3.780272007E0
3.540529373E0,2.574463785E-1,-1.434223056E0,-2.319200516E0
3.560589789E0,-1.149042249E-1,-1.808371067E0,-5.657196045E-1
3.580650050E0,-4.955990911E-1,-1.842881203E0,5.775203705E-1
3.600709946E0,-6.525059938E-1,-1.577253103E0,2.573604584E-1
3.620769841E0,-5.005919337E-1,-1.104844332E0,-1.200136185E0
3.640829737E0,-3.338789344E-1,-6.817765236E-1,-2.341495514E0
3.660889633E0,-1.791213751E-1,-3.520543575E-1,-2.673960686E0
3.680949529E0,-2.487973571E-1,-1.531264782E-1,-2.438935757E0
3.701009425E0,-3.677111268E-1,4.364728928E-2,-1.732084274E0
3.721069789E0,-3.293719292E-1,1.919150352E-1,-1.500029564E0
3.741130206E0,-3.011370897E-1,3.001768589E-1,-1.133210182E0
3.761190623E0,-1.557318568E-1,3.529483080E-1,-5.065135956E-1
3.781251039E0,-9.569787979E-2,4.692306519E-1,-1.659107208E-2
3.801310987E0,-2.003520131E-1,3.458648920E-1,7.928504944E-1
3.821370883E0,-7.439358830E-1,5.663263798E-2,1.870995522E0
3.841430779E0,-1.380968094E0,-1.777819395E-1,2.913932800E0
3.861490675E0,-1.844636917E0,-1.714770794E-1,3.405520439E0
3.881551404E0,-1.764687538E0,-1.310675144E-1,3.327551842E0
3.901611300E0,-7.952641845E-1,1.763802767E-1,3.158626556E0
3.921671196E0,-6.322941184E-1,1.497751474E-1,2.239386559E0
3.941731091E0,-1.134116650E0,-4.639453292E-1,2.163370132E0
3.961790987E0,-1.052823424E0,-1.291885495E0,3.341808319E0
3.981851873E0,-9.014770389E-1,-1.888598800E0,4.116815567E0
4.001911769E0,-1.521634936E0,-1.579844713E0,1.753024101E0
4.021971664E0,-1.741093516E0,-1.125508070E0,-1.427311897E0
4.042031560E0,-1.149563313E0,-7.141367197E-1,-3.158577442E0
4.062091456E0,-8.773940802E-1,-6.544330120E-1,-3.568150043E0
4.082151612E0,-7.721208334E-1,-5.685042143E-1,-3.291283607E0
4.102211404E0,-6.061223745E-1,-3.555302620E-1,-2.617919445E0
4.122271821E0,-1.205675602E-1,-3.670251369E-2,-2.088775635E0
4.142332237E0,2.830110788E-1,1.585139036E-1,-2.328944683E0
4.162392654E0,7.318145037E-1,2.965191603E-1,-2.754988670E0
4.182450519E0,1.001335502E0,4.436600208E-1,-2.712341309E0
4.202512081E0,9.303691387E-1,6.718894243E-1,-1.920690536E0
4.222573019E0,6.526210308E-1,9.219406843E-1,-9.982862473E-1
4.242632914E0,3.588728607E-1,1.017275453E0,-2.139902115E-1
4.262692810E0,1.001966000E-1,9.905297756E-1,4.112462997E-1
4.282752706E0,-1.335785985E-1,1.048719168E0,9.756803513E-1
4.302812602E0,2.144394517E-1,1.196527362E0,1.335852623E0
4.322872498E0,7.220793962E-1,1.381849170E0,9.234781265E-1
4.342932394E0,5.949313641E-1,1.252014518E0,7.712831497E-1
4.362992602E0,4.804524183E-1,9.458414316E-1,1.550854683E0
4.383053644E0,1.055629849E0,6.690213680E-1,2.653736115E0
4.403113539E0,1.309501648E0,1.913373470E-1,3.032679558E0
4.423173435E0,1.349950671E0,2.758140564E-1,3.452220917E0
4.443233331E0,1.398553610E0,7.305886745E-1,3.432869911E0
4.463293227E0,1.168087482E0,7.622442245E-1,1.945275307E0
4.483328748E0,1.084547758E0,-1.829948425E-1,1.670383453E0
4.503404477E0,1.692317009E0,-1.825332761E0,3.301321983E0
4.523474164E0,1.779671907E0,-2.832586765E0,3.503557205E0
4.543534060E0,1.173897147E0,-2.143287420E0,7.725172043E-1
4.563593956E0,5.863641500E-1,-1.384366989E0,-1.935159683E0
4.583653019E0,4.155934751E-1,-1.048760176E0,-3.139770985E0
4.603713539E0,5.264843702E-1,-1.152445078E0,-2.910480976E0
4.623774633E0,9.166997671E-2,-1.535269618E0,-1.862746239E0
4.643834529E0,-5.618018508E-1,-1.671427846E0,-2.051181793E-1
4.663894425E0,-1.063422203E0,-1.584056139E0,2.856245041E-1
4.683954321E0,-7.131816149E-1,-1.358178854E0,-4.407863617E-1
4.704014216E0,3.674417734E-2,-1.021449447E0,-1.902947426E0
4.724074112E0,5.534734726E-1,-6.543576717E-1,-2.934316158E0
4.744134008E0,7.560175061E-1,-3.409546614E-1,-3.120778561E0
4.764193956E0,6.680136919E-1,-1.904249191E-2,-2.856706619E0
4.784255206E0,3.352149725E-1,1.988925934E-1,-2.463995457E0
4.804315102E0,2.407455444E-2,3.380932808E-1,-2.016002655E0
4.824374998E0,1.360828876E-1,3.957154751E-1,-1.141958237E0
4.844434894E0,5.076991320E-1,4.055240154E-1,-2.743415833E-1
4.864494789E0,6.639304161E-1,5.515902042E-1,3.418998718E-1
4.884554685E0,3.477146029E-1,4.712071419E-1,9.132394791E-1
4.904614581E0,-5.630403161E-1,1.460561752E-1,1.721604347E0
4.924674477E0,-1.296545744E0,1.647102833E-2,2.961359024E0
4.944734737E0,-1.650167108E0,1.417287588E-1,3.573784828E0
4.964795154E0,-1.968783617E0,3.385022879E-1,3.382936478E0
4.984855571E0,-1.684579849E0,8.181498051E-1,2.862407684E0
5.004915935E0,-1.515362024E0,7.230097055E-1,1.522335052E0
5.024975831E0,-1.655222178E0,9.700059891E-3,1.569094658E0
5.045035727E0,-1.069491625E0,-1.208694100E0,3.455130577E0
5.065095623E0,-3.598660231E-1,-1.925163984E0,4.233445168E0
5.085153748E0,-8.087030053E-1,-1.374772787E0,1.522914886E0
5.105215258E0,-1.454362035E0,-7.468286753E-1,-2.003283978E0
5.125276196E0,-1.323062062E0,-4.236397743E-1,-4.291889191E0
5.145336091E0,-1.133704901E0,-4.095751047E-1,-4.589159489E0
5.165395987E0,-9.595661163E-1,-5.738461018E-1,-3.885469913E0
5.185455883E0,-6.676295996E-1,-5.758587122E-1,-2.491046429E0
5.205515779E0,-6.111490726E-2,-4.089142084E-1,-7.821874619E-1
5.225575675E0,1.426936388E-1,-2.704855204E-1,-6.777706146E-1
5.245635571E0,4.590530992E-1,1.617257595E-1,-1.420462608E0
5.265695466E0,7.974438667E-1,4.986188412E-1,-2.046854019E0
5.285756560E0,9.438260794E-1,7.885656357E-1,-2.316246986E0
5.305816456E0,8.046196699E-1,1.014029026E0,-1.558863640E0
5.325876352E0,4.639253318E-1,1.193082213E0,-7.435770035E-1
5.345936248E0,1.594133377E-1,1.287172556E0,-3.864097595E-2
5.365996144E0,3.001230955E-2,1.296617389E0,5.471172333E-1
5.386056769E0,7.207214832E-2,1.306455731E0,9.710378647E-1
5.406116664E0,6.369447112E-1,1.415305853E0,1.199367523E0
5.426176560E0,1.035367727E0,1.289638638E0,1.288024902E0
5.446236456E0,8.688409328E-1,9.489802122E-1,1.706857681E0
5.466296352E0,1.100501180E0,7.235360146E-1,2.400381088E0
5.486356248E0,1.215822577E0,3.339753151E-1,2.179132462E0
5.506416144E0,1.055356264E0,1.853911877E-1,2.345808029E0
5.526476039E0,1.484700322E0,4.551334381E-1,3.291214943E0
5.546535935E0,1.343181372E0,6.271915436E-1,2.608786583E0
5.566596196E0,9.338761568E-1,6.425857544E-3,2.412360191E0
5.586656769E0,1.079622388E0,-1.567101717E0,4.026834488E0
5.606716144E0,1.071003795E0,-2.964307308E0,4.897967339E0
5.626776248E0,8.337145448E-1,-2.710916042E0,1.936318398E0
5.646836664E0,6.165088415E-1,-1.684727669E0,-2.174645424E0
5.666897081E0,5.105803013E-1,-8.283976316E-1,-4.811266899E0
5.686954008E0,5.191415548E-1,-5.403838158E-1,-5.142430305E0
5.707016144E0,4.926332235E-1,-9.775032997E-1,-3.745016098E0
5.727077341E0,-2.442970872E-1,-1.187619328E0,-1.991171837E0
5.747137237E0,-1.143568635E0,-1.210588217E0,-3.597726822E-1
5.767197133E0,-1.279080510E0,-1.027649403E0,1.153306961E-1
5.787257029E0,-6.374266148E-1,-7.873581648E-1,-3.177185059E-1
5.807316925E0,-1.303497553E-1,-4.626963139E-1,-1.317606926E0
5.827376821E0,5.890303850E-2,-1.461801529E-1,-1.761300087E0
5.847436716E0,-1.355099678E-2,2.212738991E-1,-2.193674088E0
5.867496612E0,9.207648039E-2,4.703655243E-1,-2.292956352E0
5.887556508E0,2.494763732E-1,6.219315529E-1,-2.093204021E0
5.907616404E0,2.155231833E-1,6.565706730E-1,-1.562650681E0
5.927676612E0,4.465407729E-1,6.043846607E-1,-8.333978653E-1
5.947737029E0,8.337221146E-1,6.631011963E-1,-2.402200699E-1
5.967797446E0,9.229820967E-1,5.933547020E-1,2.352142334E-1
5.987856508E0,-2.476543188E-2,2.659425735E-1,1.294178963E0
6.007916925E0,-8.537787199E-1,2.815926075E-2,2.776663780E0
6.027977706E0,-1.408620477E0,-1.057846546E-1,3.611984253E0
6.048037602E0,-1.870550156E0,-6.223106384E-2,3.458306313E0
6.068097498E0,-1.558207989E0,2.243686914E-1,3.414304733E0
6.088156925E0,-1.020979047E0,3.976222277E-1,2.648365021E0
6.108216612E0,-1.172556639E0,1.185699701E-1,1.423119545E0
6.128277029E0,-1.161810160E0,-1.085982442E0,2.265478134E0
6.148337446E0,-6.167244911E-1,-1.948952913E0,3.923859596E0
6.168397758E0,-8.613969088E-1,-1.839521646E0,3.284813881E0
6.188454737E0,-1.460960746E0,-1.251904249E0,-2.545270920E-1
6.208517394E0,-1.537740350E0,-7.779784203E-1,-3.651460648E0
6.228577706E0,-1.194342732E0,-5.229241848E-1,-4.892524242E0
6.248637602E0,-7.327691317E-1,-7.123577595E-1,-4.761301517E0
6.268697498E0,-4.314327240E-1,-6.739984751E-1,-3.405129910E0
6.288754946E0,-8.002376556E-2,-2.181819677E-1,-1.811850071E0
6.308817654E0,2.946954966E-2,1.792408228E-1,-1.412481308E0
6.328877758E0,2.810475230E-1,4.292320013E-1,-1.715605736E0
6.348937654E0,7.807164192E-1,5.274567604E-1,-2.079480648E0
6.368997550E0,1.098612428E0,4.784632921E-1,-1.695987701E0
6.389054841E0,1.073433876E0,5.057924986E-1,-5.681314468E-1
6.409117498E0,7.965694666E-1,5.645968914E-1,4.317750931E-1
6.429177706E0,3.759763837E-1,1.027110934E0,1.025698662E0
6.449237602E0,-3.036751747E-1,1.426550031E0,9.603414536E-1
6.469297498E0,-6.164353490E-1,1.633301854E0,1.083930016E0
6.489357394E0,-7.209098339E-2,1.736541390E0,1.287178993E0
6.509417289E0,5.200086832E-1,1.695386887E0,9.563045502E-1
6.529477185E0,3.580185771E-1,1.425163865E0,7.232551575E-1
6.549537081E0,2.179850787E-1,1.017868042E0,1.697770119E0
6.569596977E0,4.807125628E-1,6.136286259E-1,3.044694901E0
6.589655258E0,4.505110383E-1,-4.882645607E-2,3.661630630E0
6.609717133E0,8.272920847E-1,-1.675162315E-1,4.332348824E0
6.629777654E0,1.331274390E0,4.820798635E-1,3.649211884E0
6.649837550E0,1.000723481E0,8.119196892E-1,1.715405464E0
6.669897446E0,8.903694749E-1,-1.873151064E-1,1.661177635E0
6.689957341E0,1.146590352E0,-1.727548242E0,3.039965630E0
6.710017237E0,1.094129682E0,-2.549570799E0,2.928618431E0
6.730077133E0,4.013971984E-1,-1.935273051E0,-4.969024658E-2
6.750137029E0,1.988433152E-1,-1.234636188E0,-2.971462727E0
6.770196925E0,3.704082370E-1,-6.634198427E-1,-4.636428356E0
6.790256821E0,8.155733943E-1,-7.995243073E-1,-4.435983658E0
6.810316716E0,5.262404680E-1,-1.271177530E0,-3.202391624E0
6.830376612E0,-4.202361107E-1,-1.607791781E0,-1.411621571E0
6.850436508E0,-1.265080452E0,-1.767229795E0,1.897125244E-1
6.870496404E0,-1.217876673E0,-1.792418003E0,9.324102402E-1
6.890556300E0,-4.605806470E-1,-1.407497406E0,2.042036057E-1
6.910616560E0,1.439151168E-1,-9.713653326E-1,-1.453174591E0
6.930676977E0,3.733639121E-1,-3.284291029E-1,-2.813827038E0
6.950737394E0,3.283261955E-1,1.834897995E-1,-3.797048092E0
6.970797966E0,1.997937262E-1,5.747797489E-1,-3.643681526E0
6.990848435E0,3.453111649E-2,7.353949547E-1,-2.824075699E0
7.010917394E0,-1.967995167E-1,7.766189575E-1,-1.610520363E0
7.030977289E0,-1.255181432E-1,7.186996937E-1,-7.241344452E-2
7.051037185E0,5.385488272E-2,7.036786079E-1,1.288355827E0
7.071097914E0,2.817332745E-2,7.594035864E-1,1.317582130E0
7.091154321E0,-5.254627466E-1,6.445018053E-1,1.073860168E0
7.111217237E0,-6.728896499E-1,4.534026384E-1,1.938453674E0
7.131277133E0,-1.225260735E0,4.696854353E-1,2.955130577E0
7.151337029E0,-2.012140274E0,6.350902319E-1,3.677353859E0
7.171396925E0,-2.150060654E0,7.717039585E-1,4.127583504E0
7.191456821E0,-1.490772486E0,9.330551624E-1,3.063323021E0
7.211516716E0,-1.492297888E0,5.660958290E-1,1.341192245E0
7.231576612E0,-1.478456736E0,-3.294388056E-1,1.561345100E0
7.251636508E0,-1.300597668E0,-1.360730529E0,2.820284843E0
7.271697185E0,-1.154158354E0,-1.536638737E0,2.660159111E0
7.291755675E0,-1.864185095E0,-1.006120205E0,-4.162960052E-1
7.311816039E0,-2.088293314E0,-7.804969549E-1,-3.482375145E0
7.331876456E0,-1.266651154E0,-6.283476353E-1,-4.414794922E0
7.351936873E0,-7.527974844E-1,-8.564779758E-1,-3.926488876E0
7.371997289E0,-6.341971159E-1,-8.231427670E-1,-3.048867226E0
7.392054269E0,-3.659557104E-1,-4.923126698E-1,-1.855793953E0
7.412116769E0,1.753647327E-1,-3.829079866E-1,-9.661931992E-1
7.432176664E0,5.764572024E-1,-7.835805416E-2,-9.993629456E-1
7.452236560E0,7.973898649E-1,3.013309240E-1,-1.665528774E0
7.472296769E0,1.061288953E0,5.191717148E-1,-1.779195786E0
7.492355258E0,1.289945602E0,7.429193258E-1,-1.259031296E0
7.512415623E0,1.171337366E0,9.962861538E-1,-6.279411316E-1
7.532476039E0,9.223289490E-1,1.245993614E0,-4.560852051E-1
7.552536456E0,7.234630585E-1,1.395037055E0,-8.426370621E-1
7.572596612E0,4.219267666E-1,1.308193088E0,-8.524179459E-1
7.592654946E0,3.390848935E-1,1.016734004E0,9.253368378E-1
7.612715831E0,1.102219820E0,9.026465416E-1,2.002277374E0
7.632776248E0,1.363461137E0,7.001845837E-1,1.847052574E0
7.652836144E0,1.016086578E0,3.893091679E-1,2.193528175E0
7.672896977E0,1.303300381E0,4.818999767E-1,2.565546036E0
7.692952029E0,1.487656116E0,3.923132420E-1,1.993093491E0
7.713016039E0,1.388037205E0,4.820201397E-1,2.549871445E0
7.733075935E0,1.314594150E0,8.349030018E-1,3.902677536E0
7.753135831E0,1.038838863E0,1.334907532E0,3.083615303E0
7.773195727E0,5.310680270E-1,9.038214684E-1,2.061967850E0
7.793255623E0,7.504519224E-1,-6.156212091E-1,2.926665306E0
7.813315519E0,1.245994091E0,-2.148131132E0,3.902488708E0
7.833375414E0,1.458021641E0,-2.606136322E0,2.098130226E0
7.853435310E0,1.491730452E0,-1.975462914E0,-1.193421364E0
7.873495206E0,1.219667315E0,-1.290918946E0,-3.561311245E0
7.893555102E0,7.762746215E-1,-9.875384569E-1,-4.178439617E0
7.913614998E0,2.662662268E-1,-9.397552013E-1,-3.669760704E0
7.933674894E0,-2.643273175E-1,-1.054335237E0,-2.681130886E0
7.953734789E0,-6.014436483E-1,-1.227794409E0,-1.731601238E0
7.973794685E0,-8.112822771E-1,-1.395484328E0,-8.095922470E-1
7.993854581E0,-7.256423235E-1,-1.146029353E0,-1.937675476E-1
8.013914477E0,-6.214739084E-1,-7.327319384E-1,-7.020740509E-1
8.033974373E0,-2.538858056E-1,-3.631708622E-1,-1.534147739E0
8.054034269E0,1.181926429E-1,-6.205129623E-2,-2.156202316E0
8.074094164E0,3.095372915E-1,1.807484627E-1,-2.339540958E0
8.094154060E0,-3.659456968E-2,3.667588234E-1,-1.929765224E0
8.114213956E0,-4.029126167E-1,4.374110699E-1,-1.101536751E0
8.134273852E0,-2.466958165E-1,4.069921970E-1,-5.726804733E-1
8.154333748E0,5.752527714E-2,5.500855446E-1,-2.615442276E-1
8.174394529E0,-2.668541670E-2,4.573738575E-1,3.427314758E-2
8.194454425E0,-4.439595342E-1,-1.331238747E-1,1.467248917E0
8.214514321E0,-7.969095707E-1,-3.630795479E-1,2.530737877E0
8.234574216E0,-1.621235967E0,-2.903801203E-1,2.465887070E0
8.254634112E0,-1.823785305E0,-7.743620872E-2,2.778756142E0
8.274693383E0,-1.236460686E0,1.775646210E-1,3.071889877E0
8.294750831E0,-6.891711950E-1,3.607282639E-1,2.253156662E0
8.314814008E0,-1.264652967E0,-2.415622473E-1,1.556718826E0
8.334873904E0,-1.251590133E0,-1.494985104E0,2.779786110E0
8.354933800E0,-7.581691742E-1,-2.201296329E0,4.665225983E0
8.374993696E0,-1.546095848E0,-1.932723165E0,4.276350021E0
8.395053591E0,-2.226168633E0,-1.283185124E0,6.455535889E-1
8.415113487E0,-1.923168898E0,-6.729096174E-1,-2.232056618E0
8.435173383E0,-1.285070181E0,-3.716361523E-1,-3.572906017E0
8.455233279E0,-1.095550179E0,-2.822746038E-1,-4.112409592E0
8.475293175E0,-1.068250656E0,-2.375669479E-1,-3.430449009E0
8.495353071E0,-6.626695395E-1,-2.708727121E-1,-2.029332638E0
8.515412966E0,-1.352813244E-1,-4.077662230E-1,-1.014196396E0
8.535472862E0,2.677115202E-1,-3.554809093E-1,-1.652093410E0
8.555532758E0,4.347526431E-1,-2.118996382E-1,-2.223862171E0
8.575592446E0,7.319625616E-1,-1.164692640E-1,-2.016840458E0
8.595650414E0,9.178916216E-1,1.047074795E-1,-1.433975220E0
8.615712706E0,6.660617590E-1,5.724959373E-1,-1.450321198E0
8.635772602E0,-1.401692033E-1,1.185701132E0,-1.451745987E0
8.655832498E0,-5.137352347E-1,1.396432400E0,-9.669084549E-1
8.675892394E0,-4.132267833E-1,1.276737690E0,-2.748546600E-1
8.695952289E0,2.660725713E-1,1.179488420E0,2.090253830E-1
8.716012185E0,1.299967408E0,9.988121986E-1,8.006315231E-1
8.736072081E0,1.218306780E0,6.710779667E-1,7.752056122E-1
8.756131977E0,4.731575549E-1,6.077358723E-1,1.323973656E0
8.776191873E0,1.894095540E-1,3.044273853E-1,2.411719322E0
8.796251769E0,1.645549834E-1,-1.129648685E-1,3.392600060E0
8.816311664E0,8.184614182E-1,-1.665372849E-1,4.158339500E0
8.836371560E0,1.528408051E0,3.883090019E-1,3.213013649E0
8.856431456E0,1.372138739E0,5.942680836E-1,1.371174812E0
8.876491352E0,8.781825304E-1,-4.956622124E-1,2.070518494E0
8.896551248E0,4.721748829E-1,-1.969233155E0,4.027075768E0
8.916611144E0,1.048487425E-2,-2.676569462E0,4.304539680E0
8.936671039E0,-3.003893793E-2,-1.982240796E0,1.017458916E0
8.956730935E0,3.614321947E-1,-1.122655034E0,-2.808654785E0
8.976790831E0,5.789089203E-1,-7.538847923E-1,-5.084204674E0
8.996850727E0,5.032258034E-1,-8.044185638E-1,-4.661399841E0
9.016910623E0,-2.967151999E-1,-1.131366134E0,-3.038560390E0
9.036970519E0,-1.007399917E0,-1.377303362E0,-6.505537033E-1
9.057030414E0,-7.922935486E-1,-1.682514191E0,1.288572311E0
9.077090310E0,-9.481167793E-2,-1.780151129E0,1.371664047E0
9.097149894E0,3.763768673E-1,-1.333174229E0,-1.809053421E-1
9.117209269E0,5.511506796E-1,-8.518378735E-1,-1.817393780E0
9.137268696E0,3.910657763E-1,-3.938478231E-1,-2.957439899E0
9.157328591E0,1.947897971E-1,2.827155590E-2,-3.216606617E0
9.177388487E0,2.649039030E-2,4.638316631E-1,-2.805030346E0
9.197448383E0,-1.402487159E-1,7.273710966E-1,-2.074789047E0
9.217508279E0,-3.750103712E-2,7.486584187E-1,-1.146607399E0
9.237568175E0,7.640820742E-2,5.636296272E-1,-1.985197067E-1
9.257628071E0,2.729527950E-1,4.901616573E-1,5.849895477E-1
9.277687966E0,2.231541276E-1,4.341123104E-1,1.496757507E0
9.297747862E0,1.479864120E-2,1.200692654E-1,2.500782967E0
9.317807758E0,-1.430434585E-1,-8.699643612E-2,2.984439850E0
9.337867654E0,-2.901420593E-1,9.471583366E-2,2.849371910E0
9.357927550E0,-3.629971743E-1,2.592021227E-1,2.482249260E0
9.377988487E0,-2.989806533E-1,4.699311256E-1,2.414059639E0
9.398048227E0,1.194272041E-1,4.982763529E-1,2.269540787E0
9.418107602E0,-8.613872528E-2,-1.826179028E-2,1.678370476E0
9.438166977E0,-1.279228687E0,-8.965285420E-1,2.050578117E0
9.458226716E0,-1.837437630E0,-1.552786589E0,3.534601212E0
9.478286612E0,-2.350944519E0,-1.813015580E0,4.214103699E0
9.498346508E0,-2.769596577E0,-1.492988110E0,1.273002625E0
9.518406404E0,-2.415390968E0,-1.219793677E0,-2.230757236E0
9.538466300E0,-1.625900865E0,-1.080028057E0,-3.355359077E0
9.558526196E0,-1.265786529E0,-1.223021865E0,-2.899456024E0
9.578587185E0,-1.407067657E0,-1.145360231E0,-2.066274643E0
9.598646716E0,-1.283843517E0,-6.872016191E-1,-1.991156101E0
9.618706091E0,-5.819826126E-1,-2.501466274E-1,-2.917842388E0
9.638765519E0,1.429035664E-1,3.684031963E-2,-3.893121243E0
9.658825414E0,5.091207027E-1,2.121735811E-1,-4.102749825E0
9.678886508E0,7.126846313E-1,3.196843863E-1,-3.248610973E0
9.698945883E0,1.069844127E0,3.994007111E-1,-2.259666443E0
9.719005258E0,1.174071789E0,6.359369755E-1,-1.512825966E0
9.739064841E0,1.058458209E0,9.609270096E-1,-5.623073578E-1
9.759124737E0,8.217982650E-1,1.016403079E0,3.712434769E-1
9.779185779E0,5.079403520E-1,1.246584058E0,1.268425941E0
9.799245466E0,3.717243373E-1,1.583863854E0,1.708779335E0
9.819304841E0,7.961890101E-1,1.606476068E0,1.772395134E0
9.839364216E0,7.791651487E-1,1.387307525E0,2.127959251E0
9.859423956E0,4.439450502E-1,1.247586370E0,2.702587128E0
9.879483852E0,5.734471083E-1,1.216918468E0,2.935481071E0
9.899543748E0,9.320330024E-1,9.881567955E-1,3.160891533E0
9.919603644E0,1.128904104E0,8.623551130E-1,3.829152107E0
9.939663539E0,1.224512458E0,7.806292772E-1,4.160717010E0
9.959723435E0,1.055147648E0,1.676743031E-1,3.667524338E0
9.979783331E0,1.036496878E0,-1.109732270E0,4.078525543E0
9.999843227E0,1.248670816E0,-2.402143955E0,4.789010048E0
1.001990312E1,1.208242655E0,-2.784719467E0,2.553805351E0
1.003996302E1,9.983353615E-1,-2.181186676E0,-1.197786331E0
1.006002291E1,6.508296728E-1,-1.480087638E0,-4.447027683E0
1.008008281E1,4.192641973E-1,-9.949654341E-1,-5.732614994E0
1.010014271E1,5.876357555E-1,-8.878265619E-1,-5.301816463E0
1.012020260E1,5.744190216E-1,-1.133692384E0,-3.994522572E0
1.014026250E1,-1.410333514E-1,-1.343535423E0,-2.381243229E0
1.016032239E1,-7.226829529E-1,-1.417327881E0,-1.278192520E0
1.018038281E1,-1.017956734E0,-1.307176113E0,-1.193251610E0
1.020044224E1,-4.614209533E-1,-1.125437260E0,-1.288614273E0
1.022050161E1,1.904424429E-1,-8.794283867E-1,-1.562683105E0
1.024056109E1,4.972788990E-1,-6.166033745E-1,-1.616379738E0
1.026062099E1,7.186616063E-1,-2.769222260E-1,-1.659228802E0
1.028068203E1,5.153932571E-1,1.475952864E-1,-1.516550064E0
1.030074161E1,-1.229812503E-1,4.196740389E-1,-8.282871246E-1
1.032080099E1,-6.736025214E-1,6.231479645E-1,2.307996750E-1
1.034086036E1,-8.294345140E-1,6.837085485E-1,1.016938210E0
1.036092021E1,-2.162830234E-1,7.357968092E-1,1.383601189E0
1.038098125E1,2.290356159E-1,5.292015076E-1,1.820151329E0
1.040104094E1,-3.841972351E-1,2.903697491E-1,2.217073441E0
1.042110031E1,-1.205904722E0,1.596939564E-1,2.481589317E0
1.044115968E1,-1.644218087E0,1.543818712E-1,2.653932571E0
1.046121943E1,-1.591746688E0,6.681859493E-2,2.923786163E0
1.048127932E1,-1.122188210E0,1.928970814E-1,3.148772240E0
1.050133922E1,-1.012652278E0,9.539914131E-2,2.739790916E0
1.052139911E1,-1.447643638E0,-5.651534796E-1,2.752331734E0
1.054145901E1,-1.211857915E0,-1.735012054E0,4.539856911E0
1.056151890E1,-6.455354691E-1,-2.690589905E0,5.926807404E0
1.058157880E1,-8.851503134E-1,-2.485415459E0,3.108861923E0
1.060163870E1,-1.202196956E0,-1.862323046E0,-1.341892242E0
1.062169859E1,-7.961108685E-1,-1.067571521E0,-4.279947281E0
1.064175849E1,-4.461011887E-1,-7.039914131E-1,-5.233446121E0
1.066181838E1,-5.009933710E-1,-5.259382725E-1,-5.242979050E0
1.068187880E1,-3.240860701E-1,-3.863232136E-1,-4.576730251E0
1.070193818E1,4.335606098E-1,-3.576642275E-1,-3.154078484E0
1.072199755E1,7.574749589E-1,-2.671678066E-1,-2.105399132E0
1.074205729E1,7.744997144E-1,-1.120439768E-1,-2.022137165E0
1.076211719E1,1.149282455E0,-8.518850803E-2,-2.152710438E0
1.078217708E1,1.384392977E0,-8.231317997E-2,-1.825327396E0
1.080223698E1,1.211421251E0,1.650841236E-1,-1.150668144E0
1.082229687E1,6.585857868E-1,6.897616386E-1,-1.045505524E0
1.084235677E1,1.344532967E-1,1.120807767E0,-6.803827286E-1
1.086241666E1,-1.763522625E-3,1.253375173E0,-2.067222595E-1
1.088247656E1,2.039067149E-1,1.302036524E0,3.510704041E-1
1.090253646E1,8.263469338E-1,1.305000782E0,1.029462814E0
1.092259635E1,1.005690694E0,1.015505075E0,1.498084068E0
1.094265625E1,2.578982413E-1,8.420429230E-1,1.837308884E0
1.096271614E1,3.380982876E-1,8.398532867E-1,2.411864281E0
1.098277672E1,8.715233207E-1,5.191969872E-1,2.455043793E0
1.100283609E1,1.125038266E0,3.306033611E-1,3.327802658E0
1.102289547E1,1.226459146E0,5.635881424E-1,4.380577087E0
1.104295515E1,7.962476611E-1,9.335088730E-1,3.123507500E0
1.106301505E1,2.434696853E-1,-1.323246956E-2,2.180046082E0
1.108307609E1,-5.779664963E-2,-2.001394272E0,3.649356842E0
1.110313552E1,-2.967120707E-1,-3.247751474E0,3.915107727E0
1.112319489E1,-4.937861264E-1,-3.035995245E0,5.659761429E-1
1.114325442E1,-4.497490525E-1,-2.241043091E0,-3.892472267E0
1.116331432E1,3.236592561E-2,-1.674443364E0,-6.473888874E0
1.118337422E1,8.554850817E-1,-1.773796201E0,-6.649663448E0
1.120343411E1,1.038618684E0,-1.841442585E0,-4.685760975E0
1.122349401E1,4.258242846E-1,-1.730287433E0,-1.981515884E0
1.124355390E1,-5.340095758E-1,-1.334290147E0,4.514074326E-1
1.126361380E1,-9.232480526E-1,-7.474151850E-1,1.140510559E0
1.128367469E1,-3.951786458E-1,-3.027991056E-1,3.530731201E-1
1.130373411E1,2.414881587E-1,1.210176945E-2,-2.630758286E-1
1.132379349E1,5.002712011E-1,1.542497873E-1,-2.205648422E-1
1.134385297E1,3.747343421E-1,2.430279255E-1,-1.885995865E-1
1.136391286E1,1.423452795E-1,2.196630239E-1,-1.141510010E-1
1.138397276E1,-5.101448298E-2,1.664203405E-1,-3.427410126E-1
1.140403265E1,-2.307534218E-1,1.498121023E-1,-5.149774551E-1
1.142409255E1,-4.051464796E-2,1.806101799E-1,-6.084728241E-1
1.144415245E1,4.183642566E-1,8.162701130E-2,-6.868801117E-1
1.146421234E1,3.232209682E-1,-2.189365625E-1,-7.100334167E-1
1.148427224E1,-5.539852381E-1,-3.125994205E-1,-7.333564758E-2
1.150433213E1,-1.439952612E0,-4.225093126E-1,1.223835945E0
1.152439203E1,-1.750832081E0,-8.263632059E-1,2.348402023E0
1.154445192E1,-1.742618799E0,-1.064091682E0,3.304626465E0
1.156451182E1,-1.400965214E0,-1.026488900E0,3.914492607E0
1.158457234E1,-2.015182495E0,-8.007579446E-1,3.447747231E0
1.160463172E1,-3.022128582E0,-5.766299367E-1,2.242736816E0
1.162469109E1,-2.595647812E0,-8.110327721E-1,1.878973007E0
1.164475083E1,-1.906589150E0,-1.122769594E0,1.455413818E0
1.166481073E1,-1.473596811E0,-9.820391536E-1,4.818439484E-2
1.168487062E1,-9.547166824E-1,-9.263480306E-1,-1.485128403E0
1.170493052E1,-7.019066811E-1,-8.717210889E-1,-1.936123848E0
1.172499041E1,-5.356518030E-1,-8.393558860E-1,-1.888929844E0
1.174505031E1,-3.683476448E-1,-6.887704134E-1,-1.591779709E0
1.176511021E1,4.171460867E-1,-5.958656669E-1,-1.257995605E0
1.178516583E1,1.462759495E0,-2.828145027E-1,-1.790126324E0
1.180522901E1,2.012639046E0,9.341478348E-2,-2.177573681E0
1.182529062E1,2.120746851E0,3.705912828E-1,-2.180256367E0
1.184535000E1,2.268005371E0,5.075278282E-1,-1.654278755E0
1.186540937E1,2.090473413E0,6.748505831E-1,-1.056538582E0
1.188547031E1,1.798729420E0,9.200212955E-1,-5.388689041E-1
1.190552974E1,1.419802904E0,9.670736790E-1,-1.972503662E-1
1.192558911E1,6.340612173E-1,1.098694563E0,-6.192398071E-2
1.194564859E1,4.250833392E-2,1.216165781E0,-1.210594177E-2
1.196570849E1,1.393505931E-1,1.248206854E0,-9.840488434E-2
1.198576838E1,7.327961326E-1,1.144732714E0,-4.209804535E-1
1.200582828E1,1.028861761E0,8.522001505E-1,-1.530675888E-1
1.202588818E1,1.402060628E0,3.505737782E-1,1.079295158E0
1.204594807E1,1.637718916E0,-5.658817291E-2,2.889198303E0
1.206600797E1,1.244494557E0,-1.551656723E-1,4.313798904E0
1.208606786E1,6.556988358E-1,2.275946140E-1,4.965847969E0
1.210612776E1,7.376468778E-1,1.003853798E0,4.228076935E0
1.212618765E1,9.842005968E-1,1.027844906E0,1.898783684E0
1.214624755E1,8.999910951E-1,-5.664176941E-1,1.706533432E0
1.216630745E1,3.406483531E-1,-2.581774473E0,4.184733391E0
1.218636734E1,4.302828312E-1,-3.859901428E0,4.722621918E0
1.220642724E1,4.942439497E-1,-3.443607330E0,1.199440002E0
1.222648713E1,4.847279489E-1,-2.806326628E0,-2.308933735E0
1.224654703E1,5.640950799E-1,-2.238128901E0,-4.133224487E0
1.226660693E1,2.931869924E-1,-1.832793474E0,-4.040334225E0
1.228666682E1,-3.844364285E-1,-1.891579151E0,-2.624501705E0
1.230672672E1,-1.101432562E0,-2.135812521E0,-7.257995605E-1
1.232678661E1,-1.404483318E0,-2.144129038E0,3.396034241E-1
1.234684651E1,-1.308200121E0,-1.862893224E0,-2.599525452E-2
1.236690640E1,-8.442398906E-1,-1.456330299E0,-1.417021751E0
1.238696416E1,-6.681035161E-1,-1.005404711E0,-2.604695797E0
1.240702557E1,-4.084542990E-1,-5.870379210E-1,-3.286473274E0
1.242708620E1,-8.189696074E-2,-3.645995855E-1,-3.434218407E0
1.244714557E1,-2.252116799E-1,-1.375792027E-1,-3.025543690E0
1.246720495E1,-4.859903455E-1,7.219076157E-3,-2.278438568E0
1.248726453E1,-5.961625576E-1,1.205689907E-1,-1.661835670E0
1.250732442E1,-5.833534002E-1,2.851371765E-1,-7.257661819E-1
1.252738432E1,-2.610573173E-1,2.792485952E-1,7.823286057E-1
1.254744422E1,-2.637823224E-1,-9.217822552E-2,2.560859680E0
1.256750411E1,-5.848916769E-1,-6.652959585E-1,4.351647377E0
1.258756401E1,-1.530480862E0,-4.089514017E-1,4.936090469E0
1.260762390E1,-2.331813812E0,2.712161541E-1,3.823851585E0
1.262768380E1,-2.124451637E0,4.848871231E-1,3.201507568E0
1.264774370E1,-1.662556529E0,6.281948090E-1,3.125771523E0
1.266780359E1,-2.184541702E0,3.922894001E-1,1.803084373E0
1.268786349E1,-2.565801859E0,-2.463948727E-1,1.042396545E0
1.270792338E1,-1.876012087E0,-1.357186794E0,1.002735138E0
1.272798328E1,-1.329456329E0,-2.231486320E0,8.981857300E-1
1.274804318E1,-1.202194691E0,-2.461615324E0,1.166849136E-1
1.276810307E1,-6.252704859E-1,-2.303552628E0,-9.698648453E-1
1.278816297E1,1.838034391E-2,-1.992716789E0,-2.166722775E0
1.280822286E1,1.625097394E-1,-1.580389380E0,-2.909459114E0
1.282828276E1,1.741642952E-1,-1.253519058E0,-2.848593235E0
1.284834265E1,2.711942792E-1,-7.275327444E-1,-2.248607635E0
1.286840255E1,2.048966885E-1,-3.191773891E-1,-1.602807522E0
1.288846291E1,3.802507520E-1,-7.267236710E-3,-1.557077408E0
1.290852265E1,8.105380535E-1,2.157818079E-1,-1.688452244E0
1.292858203E1,1.335789323E0,3.874760866E-1,-1.440344810E0
1.294864140E1,1.608477592E0,6.361672878E-1,-1.246912003E0
1.296870114E1,1.486924648E0,1.083290935E0,-1.263276100E0
1.298875896E1,1.084447861E0,1.484973431E0,-1.255050659E0
1.300882156E1,7.303936481E-1,1.615851521E0,-4.359912872E-1
1.302888177E1,5.166701078E-1,1.589402795E0,1.661758423E-1
1.304894114E1,7.695595026E-1,1.574620247E0,8.241815567E-1
1.306900052E1,1.286894560E0,1.459875226E0,1.250717163E0
1.308906161E1,1.202669859E0,1.253532529E0,1.887544632E0
1.310912135E1,7.359529734E-1,1.287359834E0,2.474665642E0
1.312918073E1,8.272401094E-1,1.448729396E0,2.588968277E0
1.314924010E1,9.888657928E-1,1.295699835E0,2.089260101E0
1.316929989E1,1.294251680E0,1.057126522E0,2.262865067E0
1.318935979E1,1.495961905E0,7.365412712E-1,2.086681366E0
1.320941968E1,1.189579606E0,-1.478934288E-1,2.680360794E0
1.322947958E1,7.887341976E-1,-1.823936701E0,4.987175941E0
1.324953948E1,5.230081677E-1,-3.449624538E0,6.655507088E0
1.326959937E1,3.280809522E-1,-3.552367210E0,4.516656876E0
1.328966036E1,-3.406241536E-2,-2.640594006E0,2.511978149E-2
1.330972021E1,-1.188859344E-2,-1.755883217E0,-3.681699753E0
1.332977958E1,1.364381313E-1,-9.408026934E-1,-5.531096458E0
1.334983896E1,4.537290633E-1,-6.624839306E-1,-5.258314610E0
1.336989864E1,1.367992461E-1,-9.548590183E-1,-3.640240192E0
1.338995333E1,-4.795947075E-1,-1.052400708E0,-1.453432560E0
1.341001963E1,-9.251278639E-1,-1.118890882E0,3.659982681E-1
1.343007942E1,-7.311481833E-1,-9.806586504E-1,3.752346039E-1
1.345013880E1,-1.390575171E-1,-6.822851896E-1,-8.101797104E-1
1.347019818E1,5.758694410E-1,-4.707821608E-1,-1.540787220E0
1.349025791E1,1.098091722E0,-3.228313923E-1,-1.820647717E0
1.351031781E1,1.188494086E0,-9.446263313E-2,-1.659440994E0
1.353037771E1,1.002834320E0,1.625943184E-1,-9.566373825E-1
1.355043760E1,9.739549160E-1,3.787493706E-1,-8.205366135E-1
1.357049750E1,8.229904175E-1,6.496191025E-1,-8.891401291E-1
1.359055739E1,7.269495726E-1,7.918214798E-1,-4.300470352E-1
1.361061729E1,4.947530627E-1,7.592232227E-1,9.531068802E-1
1.363067719E1,4.105162621E-2,4.158015251E-1,2.034866333E0
1.365073708E1,-6.719485521E-1,6.832242012E-2,2.293094635E0
1.367079734E1,-1.465850472E0,-3.018403053E-2,2.772861481E0
1.369085541E1,-1.954502702E0,-1.174569130E-2,2.790404320E0
1.371091734E1,-1.688437819E0,-1.757378578E-1,2.436231613E0
1.373097765E1,-1.342697859E0,1.060454845E-1,2.124903679E0
1.375103739E1,-1.843142152E0,3.186271191E-1,1.035976410E0
1.377109750E1,-2.575238228E0,1.267616749E-1,3.549013138E-1
1.379114974E1,-2.331550121E0,-9.139233828E-1,1.428153038E0
1.381121713E1,-1.537257552E0,-2.071777821E0,2.713706017E0
1.383127703E1,-7.815566063E-1,-2.609237432E0,2.253802299E0
1.385133656E1,-4.232774973E-1,-2.124173880E0,5.195140839E-2
1.387139692E1,-1.708128452E-1,-1.389791727E0,-1.968104362E0
1.389145531E1,1.732261181E-1,-7.562658787E-1,-3.474458218E0
1.391151557E1,3.553980589E-1,-3.419137001E-1,-4.176071644E0
1.393157599E1,6.545262337E-1,-3.387570381E-2,-3.899940968E0
1.395163625E1,8.497561216E-1,1.586132050E-1,-2.530309200E0
1.397169630E1,1.028659582E0,2.619845867E-1,-1.776690483E0
1.399175443E1,1.429682016E0,2.771441936E-1,-1.780723095E0
1.401181521E1,1.641143680E0,3.467929363E-1,-1.034449577E0
1.403187562E1,1.666832685E0,3.928930759E-1,-5.283355713E-1
1.405193500E1,1.329958439E0,5.253815651E-1,-3.294239044E-1
1.407199510E1,5.768206120E-1,7.965168953E-1,-3.321866989E-1
1.409205531E1,-1.562317014E-1,1.020780802E0,-3.249893188E-1
1.411211484E1,-3.571694493E-1,1.133302450E0,1.972303391E-1
1.413217422E1,1.970656514E-1,1.287976980E0,1.147937775E-1
1.415223364E1,9.847330451E-1,1.464946032E0,-3.179483414E-1
1.417229354E1,1.314352512E0,1.125800848E0,-1.514692307E-1
1.419235344E1,1.135289311E0,7.224199772E-1,8.083276749E-1
1.421241333E1,1.110854983E0,4.065532684E-1,2.241601944E0
1.423247323E1,8.057972193E-1,1.172094345E-1,2.516429901E0
1.425253312E1,8.419231176E-1,2.683131695E-1,3.369236946E0
1.427259302E1,1.290759802E0,3.015382290E-1,3.856774330E0
1.429265291E1,1.367079258E0,1.503083706E-1,2.856602669E0
1.431271281E1,1.159809113E0,-7.711641788E-1,2.883804321E0
1.433277271E1,1.056059957E0,-1.899471641E0,3.719002724E0
1.435283260E1,1.224539161E0,-2.709013462E0,3.565511703E0
1.437289250E1,1.237024426E0,-2.319338560E0,1.186746597E0
1.439295239E1,9.210619926E-1,-1.746114850E0,-1.322775364E0
1.441301229E1,4.690251946E-1,-1.635118842E0,-2.268747807E0
1.443307218E1,2.078853548E-1,-1.820232630E0,-1.906696796E0
1.445313208E1,7.032427192E-2,-1.972199082E0,-1.496791363E0
1.447319406E1,-3.024791181E-1,-1.920866847E0,-9.977817535E-1
1.449324583E1,-4.599810243E-1,-1.760675311E0,-7.530450821E-1
1.451331224E1,-9.497565031E-2,-1.475642920E0,-1.828840733E0
1.453337182E1,2.382009923E-1,-1.248575687E0,-2.909795284E0
1.455343120E1,5.163511634E-1,-1.008219004E0,-3.226777554E0
1.457349177E1,6.379854679E-1,-8.698911667E-1,-2.691053867E0
1.459355130E1,6.998264790E-1,-6.385102272E-1,-1.643427849E0
1.461361068E1,3.779987693E-1,-3.315670490E-1,-1.057229042E0
1.463367005E1,-2.323210835E-1,-1.258444786E-1,-4.496240616E-1
1.465372995E1,-1.521844864E-1,-1.536648273E-1,5.208740234E-1
1.467378984E1,4.468579888E-1,-1.027255058E-1,1.097277641E0
1.469384974E1,5.943529606E-1,-2.238130569E-2,1.101077080E0
1.471390963E1,1.086283922E-1,-2.254636288E-1,1.553853989E0
1.473396953E1,-2.721379995E-1,-2.892799377E-1,2.140102386E0
1.475402942E1,-8.573644161E-1,-2.139577866E-1,2.148067474E0
1.477409015E1,-1.241267681E0,-2.367391586E-1,2.420987129E0
1.479414958E1,-1.334559202E0,-1.905734539E-1,3.612344742E0
1.481420896E1,-1.769037127E0,-1.190280914E-2,4.073256493E0
1.483426838E1,-2.567665577E0,1.274490356E-2,3.318020821E0
1.485432828E1,-2.292673588E0,-6.291563511E-1,3.125787735E0
1.487438932E1,-1.475968480E0,-1.334379196E0,2.721595764E0
1.489444875E1,-1.004123211E0,-1.317332983E0,8.333730698E-1
1.491450812E1,-9.230260849E-1,-1.153881311E0,-1.623977661E0
1.493456755E1,-8.753092289E-1,-9.407552481E-1,-3.240565300E0
1.495462745E1,-1.152528882E0,-7.336673737E-1,-3.393682957E0
1.497468844E1,-1.310620546E0,-5.835597515E-1,-3.320602894E0
1.499474802E1,-1.072559714E0,-5.043418407E-1,-3.126301289E0
1.501480739E1,-3.865340948E-1,-5.547351837E-1,-2.723271370E0
1.503486677E1,3.772848845E-1,-6.116437912E-1,-2.606017590E0
1.505492656E1,5.458619595E-1,-3.378565311E-1,-2.492804050E0
1.507498750E1,3.363106251E-1,-1.552200317E-2,-2.633094788E0
1.509504724E1,2.229230404E-1,2.674987316E-1,-2.336153507E0
1.511510661E1,4.257434607E-2,6.027033329E-1,-1.531315327E0
1.513516599E1,-4.681891203E-2,9.183075428E-1,-1.028746605E0
1.515522568E1,-3.422006369E-1,1.140497208E0,-6.640920639E-1
1.517528557E1,-5.071677566E-1,1.181245327E0,9.828090668E-2
1.519534547E1,-5.273011327E-1,1.189102888E0,1.198944092E0
1.521540536E1,-1.430904269E-1,1.064576626E0,1.913994789E0
1.523546526E1,3.074606657E-1,9.831314087E-1,1.666836739E0
1.525552515E1,1.546249390E-1,7.645106316E-1,1.854406357E0
1.527558568E1,-1.768648624E-2,6.362507343E-1,2.864755630E0
1.529564453E1,2.056819201E-2,3.598251343E-1,3.293861389E0
1.531570448E1,8.304238319E-2,-2.305960655E-2,3.679185867E0
1.533576489E1,4.455172122E-1,-1.291477680E-1,4.130410194E0
1.535582495E1,6.778913140E-1,5.812215805E-2,3.936816216E0
1.537588484E1,4.845442176E-1,1.087052822E-1,2.666328430E0
1.539594422E1,2.380504906E-1,-7.274644375E-1,2.799882889E0
1.541600359E1,1.492687762E-1,-1.792315006E0,2.885973930E0
1.543606307E1,4.796625972E-1,-2.114949465E0,1.221511841E0
1.545612297E1,5.694690943E-1,-1.616931796E0,-1.525025845E0
1.547618286E1,5.159432888E-1,-1.010384083E0,-3.590453625E0
1.549624276E1,2.866099477E-1,-8.448255062E-1,-3.975275040E0
1.551630265E1,3.257832825E-1,-1.222480059E0,-3.058212280E0
1.553636255E1,-1.095294654E-1,-1.606814504E0,-1.775541306E0
1.555642245E1,-6.164956689E-1,-1.719923377E0,-4.717960358E-1
1.557648234E1,-7.527127862E-1,-1.533907652E0,-8.368682861E-2
1.559654224E1,-2.803894281E-1,-1.309522033E0,-1.019532204E0
1.561660213E1,3.907495141E-1,-1.031280041E0,-2.329098225E0
1.563666203E1,7.246598601E-1,-7.597060204E-1,-2.983899117E0
1.565672193E1,8.613311648E-1,-4.476649761E-1,-2.675879478E0
1.567678192E1,9.415485263E-1,-1.709709167E-1,-2.325985432E0
1.569684130E1,7.008410096E-1,1.383140087E-1,-2.019976616E0
1.571690068E1,-1.800072193E-2,4.777424335E-1,-1.161459923E0
1.573696021E1,-5.084769726E-1,5.995748043E-1,1.072044373E-1
1.575702010E1,-5.695948005E-1,5.660097599E-1,1.060051918E0
1.577708104E1,-6.798413396E-1,4.645471573E-1,1.813155174E0
1.579714041E1,-1.248613596E0,1.842629910E-1,2.657625198E0
1.581719979E1,-1.616156578E0,-1.202993393E-1,3.664606094E0
1.583725916E1,-1.468903303E0,-3.209192753E-1,3.705217361E0
1.585731906E1,-1.022750497E0,-1.757678986E-1,2.903845787E0
1.587737896E1,-1.066697121E0,1.085538864E-1,2.058188438E0
1.589743885E1,-1.493451595E0,5.542259216E-1,1.493344307E0
1.591749875E1,-2.187934399E0,3.300356865E-1,6.697664261E-1
1.593755864E1,-2.098630905E0,-4.920378923E-1,1.339598656E0
1.595761854E1,-1.308171988E0,-1.392775059E0,2.468710899E0
1.597767870E1,-8.581507206E-1,-1.793760419E0,2.084889412E0
1.599773750E1,-1.029973745E0,-1.562333584E0,-1.711177826E-2
1.601779739E1,-6.541635990E-1,-1.360368729E0,-1.373279572E0
1.603785729E1,-2.166086435E-1,-1.159030080E0,-1.885739326E0
1.605791718E1,8.267092705E-2,-9.321299791E-1,-2.879268169E0
1.607797791E1,5.243834257E-1,-4.856072664E-1,-3.257561684E0
1.609803739E1,8.657807112E-1,-1.893577576E-1,-2.997849464E0
1.611809677E1,1.022714138E0,-8.062601089E-2,-1.931894302E0
1.613815614E1,1.069724441E0,5.097675323E-2,-1.152165413E0
1.615821588E1,1.105079889E0,3.657798767E-1,-9.540100098E-1
1.617827677E1,1.027540445E0,7.562355995E-1,-1.036917686E0
1.619833614E1,1.249482989E0,9.944286346E-1,-1.202911377E0
1.621839552E1,1.450132370E0,1.127031326E0,-8.748216629E-1
1.623845489E1,1.117849469E0,1.134829521E0,-1.943521500E-1
1.625851479E1,5.942249894E-1,1.083430529E0,5.872650146E-1
1.627857562E1,6.461001039E-1,1.183560371E0,9.335289001E-1
1.629863500E1,1.270499229E0,1.221023798E0,5.101003647E-1
1.631869437E1,1.327321291E0,1.037428141E0,1.698703766E-1
1.633875380E1,1.234942675E0,6.720895767E-1,9.421873093E-1
1.635881370E1,1.313825011E0,6.432287693E-1,1.830878258E0
1.637887359E1,1.422013879E0,4.071707726E-1,2.180064201E0
1.639893349E1,1.456954122E0,4.421803951E-1,3.045101166E0
1.641899338E1,1.160339832E0,6.961708069E-1,3.711737633E0
1.643905328E1,7.826166153E-1,6.296932697E-1,2.967359543E0
1.645911318E1,8.091573119E-1,-4.121720791E-1,3.318867683E0
1.647917307E1,1.002634287E0,-1.857123137E0,4.786540985E0
1.649923297E1,1.003583789E0,-2.748254299E0,4.514638901E0
1.651929286E1,8.630253077E-1,-2.186871290E0,1.322461128E0
1.653935265E1,5.971851349E-1,-1.606230736E0,-1.874987602E0
1.655941203E1,3.501502275E-1,-1.222781897E0,-3.572780132E0
1.657947140E1,3.144592047E-1,-1.241213441E0,-3.776134968E0
1.659953078E1,1.348513961E-1,-1.544469953E0,-2.711372375E0
1.661959062E1,-2.772240937E-1,-1.778302073E0,-1.416685104E0
1.663965052E1,-4.911269546E-1,-1.986964464E0,-4.194650650E-1
1.665971041E1,-2.523626685E-1,-1.916220665E0,-5.685014725E-1
1.667977052E1,3.247845173E-2,-1.608969569E0,-1.513455868E0
1.669982927E1,1.214175224E-1,-1.191318154E0,-2.494882584E0
1.671989052E1,1.632946730E-2,-7.037417889E-1,-2.787796974E0
1.673995000E1,-3.435188532E-2,-3.159809113E-1,-2.459695816E0
1.676000937E1,-3.688962460E-1,1.980924606E-2,-2.060558319E0
1.678006875E1,-4.591554403E-1,1.605231762E-1,-1.529800892E0
1.680012833E1,-1.236983538E-1,2.494683266E-1,-7.893867493E-1
1.682018823E1,4.597257972E-1,3.290357590E-1,-8.156585693E-2
1.684024812E1,6.381335258E-1,3.855581284E-1,6.816349030E-1
1.686030802E1,2.872496247E-1,7.103466988E-2,1.428060532E0
1.688036776E1,-4.670616388E-1,-6.800341606E-2,1.884390831E0
1.690042692E1,-1.014726639E0,-1.307125092E-1,2.243318558E0
1.692048802E1,-1.093205929E0,-6.907939911E-2,2.235481262E0
1.694054739E1,-9.058375955E-1,1.155922413E-1,2.369238853E0
1.696060677E1,-7.360877395E-1,4.188582897E-1,2.422954559E0
1.698066677E1,-1.523300171E0,3.564028740E-1,1.963074684E0
1.700072573E1,-2.284266233E0,-5.122656822E-1,2.719264030E0
1.702078562E1,-1.873618007E0,-1.754137397E0,4.749761581E0
1.704084552E1,-1.231286407E0,-2.097487688E0,4.408471107E0
1.706090541E1,-1.352178216E0,-1.548003197E0,7.893896103E-1
1.708096578E1,-1.233386993E0,-9.280047417E-1,-2.943528652E0
1.710102515E1,-1.080285907E0,-4.045467377E-1,-5.016907692E0
1.712108453E1,-1.240469456E0,-2.005589008E-1,-5.779249191E0
1.714114390E1,-8.030099869E-1,-3.257002831E-1,-4.964853287E0
1.716120364E1,1.521123648E-1,-6.437785625E-1,-3.147591114E0
1.718126354E1,8.248978853E-1,-7.759784460E-1,-1.577923775E0
1.720132344E1,1.065993309E0,-6.597310305E-1,-8.169918060E-1
1.722138333E1,1.057639360E0,-4.661189318E-1,-7.839145660E-1
1.724144323E1,9.761939645E-1,-1.545771360E-1,-6.076536179E-1
1.726150312E1,8.296626806E-1,1.578530073E-1,-4.104604721E-1
1.728156151E1,3.184484243E-1,4.564018250E-1,1.088304520E-1
1.730162120E1,-2.421867251E-1,8.113994598E-1,9.336805344E-1
1.732168255E1,-6.097714901E-1,1.151948333E0,1.322627068E0
1.734174192E1,-1.931585670E-1,1.496201515E0,5.837593079E-1
1.736180130E1,2.144241631E-1,1.643202543E0,-3.656578064E-1
1.738186166E1,3.272580504E-1,1.435775757E0,2.495098114E-2
1.740192104E1,3.009441793E-1,8.754630089E-1,1.776238441E0
1.742198041E1,4.197749794E-1,5.465180874E-1,3.305028915E0
1.744203979E1,4.803828299E-1,4.889307022E-1,2.980690002E0
1.746209942E1,2.141192704E-1,7.276692390E-1,2.751935959E0
1.748215932E1,5.516506433E-1,1.033306837E0,3.062377930E0
1.750221922E1,6.964324117E-1,1.008032560E0,2.554080009E0
1.752227911E1,5.438498259E-1,-4.843950272E-3,2.597414017E0
1.754233901E1,6.258436441E-1,-1.572559595E0,3.881860733E0
1.756239890E1,8.216981888E-1,-2.610493898E0,3.827194214E0
1.758245880E1,6.307498813E-1,-2.071960926E0,6.015157700E-1
1.760251833E1,4.145247936E-1,-1.248383284E0,-2.892623425E0
1.762257771E1,4.343693256E-1,-7.803292274E-1,-4.562273979E0
1.764263708E1,3.950483799E-1,-8.522496223E-1,-4.120779991E0
1.766269646E1,-1.396377683E-1,-1.387378931E0,-2.943470001E0
1.768275724E1,-7.615048885E-1,-1.788164139E0,-6.821651459E-1
1.770281661E1,-1.197565675E0,-2.117611647E0,1.335461617E0
1.772287599E1,-7.555863857E-1,-2.163856268E0,1.206394196E0
1.774293536E1,-1.198491454E-1,-1.805531502E0,-8.259220123E-1
1.776299500E1,4.143368900E-1,-1.337636352E0,-2.404156208E0
1.778305489E1,4.524471760E-1,-9.335342646E-1,-2.876906395E0
1.780311479E1,6.564122438E-2,-5.340986252E-1,-2.576729774E0
1.782317468E1,-3.970133662E-1,-2.603547573E-1,-1.963007927E0
1.784323458E1,-6.172909737E-1,-5.803871155E-2,-1.633126736E0
1.786329448E1,-9.510620236E-1,1.619248390E-1,-1.272522926E0
1.788335427E1,-9.286569357E-1,4.470090866E-1,-5.780296326E-1
1.790341364E1,-5.751892328E-1,4.351296425E-1,5.068416595E-1
1.792347302E1,-4.851704836E-1,6.248426437E-2,2.014865875E0
1.794353239E1,-8.216502666E-1,-2.496488094E-1,2.725231171E0
1.796359182E1,-1.551481485E0,-2.167034149E-2,2.337647438E0
1.798365260E1,-1.880381703E0,3.234856129E-1,2.183532715E0
1.800371198E1,-1.664545059E0,3.489170074E-1,2.090836525E0
1.802377135E1,-7.610175610E-1,5.647797585E-1,2.491719246E0
1.804383073E1,-6.420804262E-1,5.732114315E-1,2.181345940E0
1.806389031E1,-1.337549448E0,4.798114300E-1,2.124241829E0
1.808395057E1,-1.925875187E0,4.899358749E-2,2.529111862E0
1.810401083E1,-1.879894257E0,-5.863835812E-1,2.901879311E0
1.812407021E1,-1.494082212E0,-1.270317793E0,2.042647362E0
1.814412958E1,-7.534556389E-1,-1.419055939E0,5.894851685E-2
1.816418896E1,7.713317871E-3,-1.149955034E0,-1.472536087E0
1.818424833E1,-2.184141874E-1,-9.199807644E-1,-2.389261723E0
1.820430818E1,-3.828374147E-1,-6.201540232E-1,-2.624723911E0
1.822436807E1,-5.557304621E-1,-2.711921930E-1,-3.007151127E0
1.824442797E1,-5.254518986E-1,8.582210541E-2,-3.308520317E0
1.826448786E1,-4.127550125E-2,2.648732662E-1,-3.216775417E0
1.828454776E1,6.145858765E-1,2.439820766E-1,-2.490169048E0
1.830460760E1,1.054439902E0,3.440337181E-1,-2.226347446E0
1.832466698E1,1.419985771E0,4.123027325E-1,-1.928883076E0
1.834472635E1,1.407620668E0,7.188231945E-1,-1.609383106E0
1.836478573E1,8.833336830E-1,1.166291833E0,-1.108695984E0
1.838484437E1,4.447880387E-1,1.407525659E0,-6.972608566E-1
1.840490437E1,3.105804920E-1,1.478055716E0,3.461170197E-1
1.842496552E1,8.583906293E-1,1.565898657E0,1.375215530E0
1.844502489E1,1.429508209E0,1.417135239E0,1.723315239E0
1.846508427E1,8.240193129E-1,1.069345951E0,2.253884315E0
1.848514442E1,5.713927746E-1,9.930050373E-1,2.916054726E0
1.850520380E1,7.413439155E-1,8.021130562E-1,2.925470352E0
1.852526318E1,1.899505556E-1,6.732642651E-1,3.154560089E0
1.854532255E1,4.622137547E-2,8.531365395E-1,4.412009239E0
1.856538208E1,3.346806467E-1,1.092883348E0,3.585051537E0
1.858544276E1,6.419115663E-1,7.620780468E-1,1.495386124E0
1.860550213E1,1.388152361E0,-5.774688721E-1,1.526341438E0
1.862556151E1,1.470793605E0,-1.800409079E0,2.592728615E0
1.864562088E1,1.055478930E0,-2.218579531E0,2.027181625E0
1.866568031E1,6.228718162E-1,-1.625640988E0,-6.972312927E-3
1.868574109E1,4.489301443E-1,-1.346089363E0,-2.011588573E0
1.870580047E1,4.161527753E-1,-1.313550591E0,-3.083619595E0
1.872585984E1,3.061163723E-1,-1.397357583E0,-2.875682354E0
1.874591922E1,-3.740983307E-1,-1.403272986E0,-2.270607471E0
1.876597859E1,-7.859997749E-1,-1.447623134E0,-1.580111504E0
1.878603838E1,-6.543786526E-1,-1.599186182E0,-1.591023445E0
1.880609828E1,-1.703724563E-1,-1.520028830E0,-2.201908112E0
1.882615818E1,1.348305643E-1,-1.376221776E0,-2.858954906E0
1.884621807E1,2.655737400E-1,-1.123498797E0,-3.004166603E0
1.886627797E1,1.957230568E-1,-7.702304125E-1,-2.837843418E0
1.888633609E1,3.477841616E-2,-3.635852337E-1,-2.140228271E0
1.890639646E1,-1.328033805E-1,-3.141474724E-2,-1.560931206E0
1.892645687E1,-1.305936575E-1,-2.188968658E-2,-8.902463913E-1
1.894651625E1,-1.918478012E-1,5.354189873E-2,5.814743042E-2
1.896657562E1,-1.446044445E-1,3.816254139E-1,9.780979156E-1
1.898663453E1,-3.125193119E-1,2.915852070E-1,1.821506500E0
1.900669469E1,-1.013186455E0,1.874755621E-1,2.576734543E0
1.902675510E1,-1.407440543E0,2.589859962E-1,2.923857689E0
1.904681448E1,-1.607558727E0,2.272772789E-1,2.643250465E0
1.906687385E1,-1.574264646E0,1.442725658E-1,3.122483253E0
1.908693062E1,-1.204327703E0,4.194412231E-1,3.718847275E0
1.910699271E1,-1.662757993E0,5.687667131E-1,3.353628159E0
1.912705318E1,-2.837525845E0,6.081938744E-2,3.289450645E0
1.914711255E1,-2.724501371E0,-1.077548265E0,4.282466888E0
1.916717192E1,-2.054384232E0,-1.962076426E0,4.827807426E0
1.918722666E1,-2.128109932E0,-1.859622478E0,1.969772339E0
1.920729099E1,-1.794095397E0,-1.334187388E0,-1.705527306E0
1.922735130E1,-8.678876162E-1,-7.437626123E-1,-3.775340557E0
1.924741068E1,-5.521413088E-1,-5.814850330E-1,-5.141001701E0
1.926747005E1,-3.688346148E-1,-4.715991020E-1,-5.532061577E0
1.928752948E1,1.078205109E-1,-3.907415867E-1,-4.298180580E0
1.930758890E1,6.277263761E-1,-3.574316502E-1,-2.723545074E0
1.932764880E1,1.197220564E0,-3.370578289E-1,-2.262210369E0
1.934770870E1,1.343129635E0,-1.534919739E-1,-2.054610729E0
1.936776859E1,1.376608014E0,-3.707528114E-2,-1.761591434E0
1.938782849E1,1.373774171E0,1.430416107E-2,-1.147389412E0
1.940788786E1,1.075682282E0,1.975725889E-1,-4.401388168E-1
1.942794724E1,3.855020106E-1,5.284551382E-1,3.242483139E-1
1.944800661E1,-3.156504035E-1,1.025507569E0,5.932435989E-1
1.946806599E1,-5.390652418E-1,1.436918020E0,4.245243073E-1
1.948812536E1,-8.404970169E-3,1.697884798E0,-7.519721985E-2
1.950818515E1,2.207377553E-1,1.838573456E0,-2.981472015E-1
1.952824505E1,-2.073932290E-1,1.453712702E0,8.463735580E-1
1.954830495E1,-7.680814266E-1,1.153489351E0,2.592559814E0
1.956836484E1,-5.712109804E-1,1.030821800E0,3.505110741E0
1.958842458E1,8.510506153E-2,6.824724674E-1,3.068146706E0
1.960848396E1,1.016060591E0,3.760504723E-1,4.132138252E0
1.962854333E1,1.824067354E0,4.109351635E-1,4.817518234E0
1.964860271E1,1.767573714E0,6.242735386E-1,3.214318275E0
1.966866208E1,1.465296507E0,-1.943345070E-1,2.055018425E0
1.968872250E1,1.248963356E0,-1.685443401E0,3.060180664E0
1.970878187E1,1.111325264E0,-2.808192492E0,3.438057899E0
1.972884125E1,7.721507549E-1,-2.678075552E0,1.316058159E0
1.974890062E1,4.233202040E-1,-1.894016027E0,-1.543041706E0
1.976896000E1,3.242558539E-1,-1.263277650E0,-3.781000137E0
1.978902057E1,2.455857992E-1,-1.012484908E0,-4.659310341E0
1.980907995E1,-3.888942301E-2,-1.167926311E0,-4.222423553E0
1.982913932E1,-6.763787866E-1,-1.365990281E0,-2.750173092E0
1.984919870E1,-1.399030685E0,-1.428509235E0,-1.172987938E0
1.986925807E1,-1.478741288E0,-1.392030716E0,-3.480844498E-1
1.988931687E1,-7.851654291E-1,-1.191492081E0,-4.317693710E-1
1.990937776E1,-2.220660150E-1,-9.799213409E-1,-1.284637451E0
1.992943776E1,-3.163143694E-1,-5.589697361E-1,-2.158392906E0
1.994949713E1,-5.554845929E-1,-1.606311798E-1,-2.450557709E0
1.996955651E1,-4.854859710E-1,-2.791213989E-2,-2.286593437E0
1.998961588E1,-1.475968957E-1,-4.713582993E-2,-1.564561367E0
2.000967526E1,2.801903486E-1,-1.311552525E-1,-6.200580597E-1
2.002973463E1,5.328086615E-1,-4.173827171E-2,5.582904816E-2
2.004979448E1,5.363239646E-1,2.615582943E-1,-9.011554718E-2
2.006985437E1,-1.061104536E-1,4.043476582E-1,-3.877735138E-1
2.008991427E1,-5.787892342E-1,1.236641407E-1,7.099819183E-1
2.010997416E1,-9.238098264E-1,9.827184677E-2,2.328935623E0
2.013003370E1,-1.487495422E0,2.080082893E-1,3.425970078E0
2.015009307E1,-1.822630167E0,3.076524734E-1,3.790767670E0
2.017015245E1,-1.612845898E0,6.201674938E-1,3.270994186E0
2.019021031E1,-1.437502980E0,6.991567612E-1,2.015806198E0
2.021027135E1,-2.078432560E0,-6.544899940E-2,2.214359283E0
2.023033161E1,-1.787067175E0,-1.078668952E0,4.084366798E0
2.025039099E1,-1.707474947E0,-1.993770838E0,5.380666733E0
2.027045036E1,-2.055056810E0,-1.759390593E0,2.547344208E0
2.029050916E1,-1.825710654E0,-1.308537602E0,-1.513233185E0
2.031056927E1,-9.476716518E-1,-8.400394917E-1,-3.850293636E0
2.033062968E1,-7.798105478E-1,-7.389293909E-1,-3.946152687E0
2.035068906E1,-1.154550552E0,-8.033671379E-1,-3.139842510E0
2.037074911E1,-1.131195545E0,-7.677251101E-1,-2.193352222E0
2.039080078E1,-7.049225569E-1,-5.279989243E-1,-1.694616795E0
2.041086797E1,-1.140964031E-1,-2.394733429E-1,-1.982804298E0
2.043092734E1,4.874266386E-1,-2.580571175E-2,-2.961231232E0
2.045098672E1,9.417830706E-1,2.183265686E-1,-3.495042324E0
2.047104703E1,1.126057625E0,3.557753563E-1,-3.165432453E0
2.049110437E1,8.684501052E-1,4.417827129E-1,-1.993247986E0
2.051116583E1,4.088109136E-1,7.243368626E-1,-1.047636032E0
2.053122526E1,-1.886547804E-1,8.758230209E-1,-4.100894928E-2
2.055128463E1,-1.728291512E-1,9.803590775E-1,5.390548706E-1
2.057134505E1,2.419333160E-1,1.204887390E0,6.251840591E-1
2.059140151E1,6.080520749E-1,1.531641245E0,2.927083969E-1
2.061146370E1,1.179579198E-1,1.245793819E0,8.082618713E-1
2.063152312E1,-6.915607452E-1,1.027109861E0,1.768507004E0
2.065158250E1,-8.058385849E-1,8.763818741E-1,3.164129257E0
2.067164250E1,-4.393309951E-1,7.622644901E-1,3.521609306E0
2.069170135E1,-1.134672165E-1,7.483992577E-1,3.323744774E0
2.071176031E1,5.019408464E-1,8.023228645E-1,3.519403458E0
2.073182021E1,1.152279139E0,1.037649393E0,2.339774132E0
2.075188010E1,1.493346930E0,6.244044304E-1,9.820528030E-1
2.077194068E1,1.482360601E0,-8.450130224E-1,1.994920731E0
2.079199750E1,1.511069298E0,-2.205833673E0,3.488679886E0
2.081205890E1,1.083674431E0,-2.836482286E0,3.154434204E0
2.083211885E1,2.632488012E-1,-1.897315860E0,2.961158752E-2
2.085217823E1,1.727664918E-1,-1.340737224E0,-2.684143066E0
2.087223781E1,3.303222358E-1,-1.228470206E0,-3.981117725E0
2.089229750E1,3.691393137E-1,-1.374335170E0,-3.932028770E0
2.091235687E1,-1.374897957E-1,-1.669566631E0,-3.472002506E0
2.093241625E1,-4.945074916E-1,-1.930773973E0,-2.403995514E0
2.095247562E1,-4.143153429E-1,-2.161875010E0,-1.243130684E0
2.097253500E1,1.148744822E-1,-2.074718952E0,-1.142241478E0
2.099259437E1,5.890803337E-1,-1.713011384E0,-1.856709957E0
2.101265375E1,8.300334215E-1,-1.259060144E0,-2.566046238E0
2.103271364E1,8.733768463E-1,-8.221844435E-1,-2.808582783E0
2.105277354E1,7.298733592E-1,-4.961824417E-1,-2.870956898E0
2.107283344E1,2.098729014E-1,-2.067000866E-1,-2.421305180E0
2.109289323E1,-1.632100344E-1,-2.011775970E-2,-1.397974014E0
2.111295260E1,-4.807004929E-1,2.296644449E-1,-1.107950211E-1
2.113301198E1,-2.098444104E-1,2.099416256E-1,1.283298492E0
2.115307135E1,2.375597060E-1,3.025485873E-1,1.853879929E0
2.117313073E1,-7.203137875E-2,4.304381609E-1,2.659957886E0
2.119319010E1,-8.031724691E-1,5.560868979E-1,3.700407028E0
2.121324948E1,-1.450156808E0,6.606708169E-1,4.628005981E0
2.123330896E1,-1.941129088E0,8.853034973E-1,4.950832367E0
2.125336885E1,-2.302573442E0,1.165987134E0,5.298542976E0
2.127342875E1,-2.511456728E0,1.332642794E0,5.028180122E0
2.129348864E1,-2.459331751E0,1.604135871E0,3.936052322E0
2.131354828E1,-3.132235527E0,1.474510550E0,2.357999802E0
2.133360765E1,-3.564394474E0,3.416416645E-1,1.142703056E0
2.135366703E1,-2.511246681E0,-1.142876387E0,1.493254662E0
2.137372640E1,-1.378114223E0,-2.581305027E0,1.736838341E0
2.139378578E1,-5.075716972E-1,-3.432209253E0,9.040403366E-1
2.141384515E1,3.065559864E-1,-3.204200506E0,-1.448393822E0
2.143390453E1,8.020347357E-1,-2.708251953E0,-4.165381432E0
2.145396411E1,8.118199110E-1,-2.226114273E0,-5.727326870E0
2.147402479E1,8.717803955E-1,-1.751417875E0,-6.033750057E0
2.149408416E1,1.350171685E0,-1.222535372E0,-5.411619663E0
2.151413625E1,1.625828266E0,-1.057114363E0,-4.212677956E0
2.153419198E1,1.987683773E0,-8.721700907E-1,-2.798034668E0
2.155426291E1,2.501567841E0,-4.860683084E-1,-1.676476479E0
2.157432255E1,2.875187874E0,-6.424701214E-2,-1.352169991E0
2.159437916E1,2.982471704E0,5.912251472E-1,-1.484601021E0
2.161444161E1,2.790488720E0,1.230158329E0,-1.027376175E0
2.163450099E1,2.047726154E0,1.590279341E0,2.939701080E-2
2.165456036E1,1.258421302E0,2.183858871E0,9.935817719E-1
2.167462026E1,2.771909833E-1,2.599498749E0,1.976855278E0
2.169467833E1,-7.104771733E-1,3.043184757E0,2.648833275E0
2.171473922E1,-7.590950727E-1,3.126559019E0,2.545630455E0
2.173479875E1,1.312646866E-1,2.706897020E0,1.849815369E0
2.175485812E1,2.543405592E-1,2.058512211E0,2.355222702E0
2.177491797E1,1.922887862E-1,1.510470629E0,3.828623772E0
2.179497515E1,4.379442334E-2,1.225112677E0,4.780555725E0
2.181503687E1,-9.893494248E-1,1.574496031E0,3.631917000E0
2.183509651E1,-1.119745016E0,1.660075903E0,2.576665878E0
2.185515588E1,-1.376807690E-2,1.094081044E0,1.588932991E0
2.187521526E1,8.376696110E-1,-9.615919590E-1,1.641936302E0
2.189527463E1,1.038797021E0,-3.360497475E0,3.720212936E0
2.191533401E1,7.988607883E-1,-4.709959984E0,5.143493652E0
2.193539338E1,2.495694458E-1,-4.391891479E0,3.234266281E0
2.195545276E1,-1.698193252E-1,-3.669809818E0,-6.174468994E-1
2.197551344E1,-3.498253226E-1,-2.832279682E0,-3.944676399E0
2.199557281E1,-6.207799911E-1,-1.999286413E0,-5.872632980E0
2.201563218E1,-1.067066073E0,-1.843860507E0,-6.089865208E0
2.203569156E1,-1.112398386E0,-2.334275246E0,-3.947119713E0
2.205575094E1,-9.818369150E-1,-2.894646406E0,-1.629184723E0
2.207581114E1,-8.154418468E-1,-2.730149031E0,-2.000474930E-1
2.209587052E1,-1.141806364E0,-1.553558946E0,-1.221344948E0
2.211592989E1,-1.383677483E0,-5.670689344E-1,-2.890849590E0
2.213598927E1,-1.379850984E0,1.854003668E-1,-3.393799305E0
2.215604864E1,-9.056177735E-1,3.270187378E-1,-2.393082142E0
2.217610885E1,-8.899489045E-2,9.633481503E-2,-6.240425110E-1
2.219616823E1,3.628358543E-1,-2.463114262E-1,-1.500825882E-1
2.221622760E1,5.670548677E-1,-2.628695965E-1,-2.136802673E-2
2.223628698E1,2.227375358E-1,2.728859186E-1,9.015083313E-2
2.225634635E1,-4.879200459E-1,7.146340609E-1,-1.374244690E-3
2.227640573E1,-1.880920529E0,1.130263090E0,6.721591949E-2
2.229646510E1,-3.555934906E0,1.621921420E0,1.216826439E0
2.231652448E1,-4.202327728E0,1.750795603E0,3.531367302E0
2.233658406E1,-4.702151299E0,1.940514565E0,4.883236885E0
2.235664396E1,-4.728897572E0,2.094555855E0,5.279508591E0
2.237670219E1,-4.989918709E0,2.435155392E0,4.518601418E0
2.239675604E1,-6.194179058E0,2.135321140E0,2.656773567E0
2.241682333E1,-5.720049381E0,4.692386389E-1,2.195537567E0
2.243688271E1,-3.961761475E0,-1.743361354E0,3.038764954E0
2.245694208E1,-1.693532228E0,-3.576548576E0,2.011937141E0
2.247700182E1,1.489270926E-1,-4.083873749E0,-7.850866318E-1
2.249706021E1,5.209977031E-1,-3.709623814E0,-3.499421597E0
2.251712114E1,7.108774781E-1,-3.096438885E0,-5.067783356E0
2.253718052E1,6.227488518E-1,-2.660888910E0,-5.377493858E0
2.255723989E1,8.118132353E-1,-2.436590910E0,-4.888249397E0
2.257729979E1,8.321288824E-1,-2.068743944E0,-3.652225971E0
2.259735916E1,6.715637445E-1,-1.418680549E0,-2.670588493E0
2.261741854E1,4.546028376E-1,-8.205983043E-1,-2.248688221E0
2.263747791E1,2.187950015E-1,-2.132014036E-1,-2.121291637E0
2.265753729E1,9.459853172E-3,4.510166645E-1,-1.750641823E0
2.267759666E1,7.562178373E-2,8.969502449E-1,-9.721488953E-1
2.269765604E1,2.183813453E-1,1.133016825E0,-3.119001389E-1
2.271771541E1,-2.871555090E-1,1.360127687E0,1.879291534E-1
2.273777521E1,-8.578432798E-1,1.708835006E0,5.220813751E-1
2.275783510E1,-5.945784450E-1,1.831042647E0,3.130340576E-1
2.277789500E1,2.619838715E-1,1.786318421E0,3.039836884E-2
2.279795489E1,1.022067070E0,1.847652912E0,-6.484279633E-1
2.281801427E1,1.483874679E0,1.992068887E0,-1.223888397E0
2.283807364E1,1.519246221E0,1.375922918E0,6.210412979E-1
2.285813302E1,1.307914495E0,1.068899632E0,3.011097908E0
2.287819239E1,5.670377016E-1,6.335709095E-1,5.493164062E0
2.289825177E1,1.485350430E-1,1.952209473E-1,7.427103043E0
2.291831114E1,6.762971878E-1,-2.989280224E-2,7.982197762E0
2.293837057E1,3.906188011E-1,1.766363382E-1,7.078721046E0
2.295843047E1,-7.952120900E-1,-3.363016844E-1,5.084390640E0
2.297849036E1,-7.934819460E-1,-1.539170742E0,3.634196281E0
2.299855026E1,-2.506363988E-1,-2.516337156E0,1.956717491E0
2.301861000E1,5.919439793E-1,-2.773458481E0,-5.550689697E-1
2.303866937E1,8.627085090E-1,-2.321860790E0,-3.099576473E0
2.305872875E1,3.520375192E-1,-1.694185853E0,-4.765061855E0
2.307878823E1,-6.574440002E-2,-1.292092562E0,-5.414183140E0
2.309884708E1,-1.880048811E-1,-1.393686175E0,-4.796786308E0
2.311890750E1,-2.466758192E-1,-1.922611237E0,-3.526485920E0
2.313896734E1,4.378116131E-2,-2.598446369E0,-1.595109940E0
2.315902672E1,3.673670590E-1,-2.947632313E0,-2.486801147E-1
2.317908500E1,6.867247820E-1,-2.570520878E0,-4.944496155E-1
2.319914427E1,8.800418377E-1,-1.743963718E0,-2.043935776E0
2.321920562E1,1.014487267E0,-6.576789021E-1,-3.652493000E0
2.323926500E1,9.820269942E-1,1.856032610E-1,-4.877031326E0
2.325932437E1,7.874481678E-1,9.072347879E-1,-4.981550694E0
2.327938375E1,6.222535968E-1,1.418236732E0,-3.975378513E0
2.329944312E1,2.033831328E-1,1.555185795E0,-2.132351875E0
2.331950250E1,1.297889799E-1,1.388598442E0,4.398450851E-1
2.333956187E1,1.657523513E-1,1.272937536E0,2.706390381E0
2.335962161E1,7.413972169E-2,1.384328008E0,3.326806068E0
2.337968151E1,-1.644087732E-1,1.278408527E0,2.992079735E0
2.339974140E1,-4.074306488E-1,9.548955560E-1,3.850959778E0
2.341980130E1,-4.928354323E-1,5.051226020E-1,4.833236694E0
2.343986078E1,-1.032396555E0,2.104052007E-1,5.019073486E0
2.345992015E1,-2.036320448E0,2.532526255E-1,5.517070770E0
2.347997849E1,-2.732874155E0,5.385103822E-2,6.400627136E0
2.350003776E1,-3.369576931E0,-4.573456943E-1,5.257880211E0
2.352009911E1,-3.882436037E0,-1.794798136E0,3.922476768E0
2.354015849E1,-3.460658073E0,-2.977484703E0,4.973408699E0
2.356021786E1,-2.531632900E0,-3.155852795E0,3.708247185E0
2.358027734E1,-2.276685238E0,-2.690413237E0,-1.191052437E0
2.360033620E1,-1.815141082E0,-2.281692505E0,-5.567186356E0
2.362039661E1,-8.963700533E-1,-1.634059548E0,-7.789371490E0
2.364045646E1,5.400198698E-2,-1.375392675E0,-7.771025658E0
2.366051583E1,3.741998672E-1,-1.629253387E0,-6.528336525E0
2.368057443E1,4.026323557E-1,-1.530888796E0,-5.045831680E0
2.370063302E1,3.860337138E-1,-1.301779628E0,-3.370614529E0
2.372069479E1,-2.084554434E-1,-1.053377628E0,-1.854154110E0
2.374075416E1,2.624725103E-1,-8.304190636E-1,-1.272779465E0
2.376081354E1,1.228884220E0,-6.551212668E-1,-9.459123611E-1
2.378087291E1,1.716265440E0,-1.921509206E-1,-7.301616669E-2
2.380093229E1,9.793307781E-1,4.383024573E-1,7.662248611E-1
2.382099166E1,-2.406974435E-1,1.484656215E0,1.423768997E0
2.384105104E1,-1.723037601E0,2.348899841E0,9.867334366E-1
2.386111047E1,-2.567524195E0,3.056546450E0,5.851545334E-1
2.388117120E1,-2.861814499E0,3.216324091E0,6.310176849E-2
2.390123057E1,-2.036093950E0,2.879497051E0,2.146244049E-2
2.392128995E1,-8.975829482E-1,2.372273445E0,1.808166504E-1
2.394134932E1,-4.295310378E-1,1.631666183E0,1.008339882E0
2.396140870E1,1.242588460E-1,8.678796291E-1,2.444738388E0
2.398146807E1,8.685600758E-1,5.741170645E-1,3.241802216E0
2.400152745E1,1.594384551E0,4.440096319E-1,2.947544098E0
2.402158698E1,1.787795305E0,5.402212143E-1,2.722933769E0
2.404164687E1,1.519208431E0,7.768818736E-1,3.938539505E0
2.406170677E1,7.314615846E-1,8.867133260E-1,5.145372391E0
2.408176666E1,3.534359038E-1,3.557195067E-1,4.304536819E0
2.410182625E1,5.701665878E-1,-9.194451571E-1,3.187482834E0
2.412188562E1,1.252592921E0,-2.432175398E0,3.403250694E0
2.414194500E1,2.166645527E0,-3.300631523E0,2.049770355E0
2.416200437E1,2.358583689E0,-2.925853491E0,-1.026343346E0
2.418206453E1,2.134944201E0,-2.272484779E0,-4.383405209E0
2.420212390E1,1.568279266E0,-1.568881869E0,-5.955629349E0
2.422218328E1,1.095437169E0,-1.268831253E0,-5.884543419E0
2.424224265E1,7.723594308E-1,-1.554966450E0,-4.510381699E0
2.426230203E1,1.169030666E-1,-1.957301021E0,-2.299700737E0
2.428236198E1,-2.451658249E-3,-2.417717218E0,-7.210264206E-1
2.430242083E1,9.047794342E-2,-2.534262657E0,-4.063844681E-1
2.432248026E1,2.295637131E-1,-2.269676685E0,-1.532050133E0
2.434254015E1,2.607247233E-1,-1.589817286E0,-2.707744122E0
2.436260005E1,-4.860928655E-2,-8.098047972E-1,-3.204225063E0
2.438265995E1,-1.108625829E-1,-2.815471292E-1,-2.948247433E0
2.440271937E1,-1.746961474E-1,-5.320519209E-2,-2.691097736E0
2.442277875E1,-5.352215171E-1,2.825718522E-1,-2.388888359E0
2.444283812E1,-1.311083794E0,6.310358047E-1,-1.221186638E0
2.446289750E1,-1.832629561E0,9.759069085E-1,1.969509125E-1
2.448295687E1,-1.747154832E0,1.286162376E0,1.148246765E0
2.450301625E1,-1.519555092E0,1.347593784E0,1.418760300E0
2.452307562E1,-1.633547425E0,1.160677791E0,2.640951157E0
2.454313510E1,-2.068157196E0,8.432518244E-1,4.623509407E0
2.456319500E1,-2.733756542E0,9.943458438E-1,5.807208061E0
2.458325531E1,-3.513608217E0,1.646482229E0,5.556233406E0
2.460331468E1,-4.056365013E0,1.859900117E0,5.164348602E0
2.462337406E1,-3.766183615E0,1.310183167E0,5.586724281E0
2.464343344E1,-3.258923054E0,8.028219640E-2,5.286564827E0
2.466349281E1,-2.593768835E0,-1.588138103E0,4.407467842E0
2.468355041E1,-1.491636753E0,-3.341419697E0,3.855572701E0
2.470361026E1,-2.857273817E-2,-4.356101513E0,2.947397232E0
2.472367203E1,3.583977818E-1,-4.235311031E0,6.526470184E-2
2.474373140E1,2.492756248E-1,-3.426251411E0,-3.927234173E0
2.476379078E1,8.195447922E-2,-2.620993853E0,-6.984607697E0
2.478385015E1,2.676170468E-1,-1.948890448E0,-8.339820862E0
2.480390953E1,3.987532258E-1,-1.750326872E0,-8.233251572E0
2.482396890E1,7.534517050E-1,-1.533407688E0,-6.857754707E0
2.484402828E1,1.320347667E0,-1.039386749E0,-4.543736935E0
2.486408765E1,1.550605297E0,-7.332614064E-1,-2.444295406E0
2.488414708E1,1.294968963E0,-4.715626836E-1,-7.532663345E-1
2.490420698E1,9.909123182E-1,-2.329799533E-2,2.540922165E-1
2.492426687E1,1.494520187E0,1.681808680E-1,5.718250275E-1
2.494432677E1,2.258030176E0,3.539631665E-1,1.158450127E0
2.496438630E1,1.715124726E0,7.943215966E-1,1.513508797E0
2.498444568E1,5.292203426E-1,1.589784384E0,1.270940781E0
2.500450505E1,-5.075282454E-1,2.310669184E0,5.326118469E-1
2.502456442E1,-9.438341260E-1,2.478604794E0,-5.152645111E-1
2.504462380E1,-6.254682541E-1,2.295908689E0,-4.916343689E-1
2.506468318E1,3.003814816E-1,1.880636454E0,1.292924881E-1
2.508474344E1,6.463210583E-1,1.632101893E0,5.980348587E-1
2.510480281E1,6.968025565E-1,1.327469349E0,1.916097641E0
2.512486218E1,1.082530975E0,1.070263386E0,3.280052185E0
2.514492156E1,1.216047883E0,5.884246230E-1,3.461746216E0
2.516498094E1,1.304330230E0,-6.818932295E-2,4.435333252E0
2.518504099E1,1.848799825E0,-3.318227530E-1,6.666494370E0
2.520510036E1,1.346843243E0,-1.931855083E-1,6.855740547E0
2.522515974E1,6.788731813E-1,-4.112228751E-1,4.034057617E0
2.524521911E1,9.423856139E-1,-1.346456885E0,1.911153793E0
2.526527849E1,1.597746611E0,-2.507784843E0,1.220939636E0
2.528533786E1,1.940565825E0,-2.832780361E0,-2.027664185E-1
2.530539724E1,1.356655955E0,-2.384938478E0,-2.876406670E0
2.532545661E1,8.981209993E-1,-2.295755386E0,-4.758757591E0
2.534551599E1,3.891495466E-1,-2.106944561E0,-4.882143497E0
2.536557547E1,-3.384924531E-1,-2.220508814E0,-3.368083000E0
2.538563260E1,-6.020731330E-1,-2.610307693E0,-1.266684532E0
2.540569442E1,1.139665246E-1,-2.924179792E0,-1.265373230E-1
2.542575505E1,6.998120546E-1,-2.703701735E0,-6.790227890E-1
2.544581443E1,6.542404890E-1,-2.129344940E0,-2.170249939E0
2.546587380E1,1.128643751E-1,-1.227091551E0,-3.388422966E0
2.548593318E1,-3.902267218E-1,-5.226463675E-1,-3.610988140E0
2.550599255E1,-6.739532351E-1,-3.277504444E-2,-3.003837109E0
2.552605192E1,-3.721771836E-1,1.901348233E-1,-2.421658039E0
2.554611130E1,-7.233071327E-2,3.360795975E-1,-2.043344975E0
2.556617068E1,-1.614894271E-1,5.747075081E-1,-1.342812538E0
2.558623005E1,-5.039611459E-1,9.580274820E-1,-5.650978088E-1
2.560628942E1,-7.132287621E-1,1.303160071E0,-3.048515320E-1
2.562634927E1,-6.366965175E-1,1.230835915E0,9.201898575E-1
2.564640916E1,-6.015276909E-1,1.204294205E0,2.116130829E0
2.566646906E1,-7.483376861E-1,9.822006226E-1,2.933160782E0
2.568652500E1,-7.049689293E-1,1.147922754E0,2.822550774E0
2.570658729E1,-1.288849711E0,1.388699174E0,2.447536469E0
2.572664760E1,-1.655172348E0,1.365436792E0,2.675740242E0
2.574670698E1,-7.618528008E-1,6.740108132E-1,3.648932457E0
2.576676635E1,-9.342536926E-1,-8.282530308E-1,5.027540207E0
2.578681755E1,-2.354106188E0,-2.369208813E0,6.918342590E0
2.580688489E1,-2.721096754E0,-3.257965326E0,8.771507263E0
2.582694505E1,-6.750999689E-1,-3.803225517E0,7.030364037E0
2.584700442E1,9.286708236E-1,-3.880389929E0,1.438600540E0
2.586706380E1,1.294359326E0,-2.984490871E0,-3.854261398E0
2.588712359E1,1.141946435E0,-1.862761259E0,-6.596659660E0
2.590718297E1,4.617130160E-1,-1.133803368E0,-6.863406658E0
2.592724234E1,-2.522715330E-1,-8.461047411E-1,-5.568671703E0
2.594730172E1,-5.923713446E-1,-6.325199008E-1,-3.775417805E0
2.596736109E1,-6.909502745E-1,-3.019840419E-1,-2.205493450E0
2.598742047E1,-4.849464893E-1,-8.402162790E-2,-2.033063412E0
2.600747984E1,-1.901865602E-1,1.590745449E-1,-2.209895134E0
2.602753922E1,-6.108283997E-4,1.840451956E-1,-2.190769196E0
2.604759859E1,3.847949505E-1,1.188359261E-1,-1.696457863E0
2.606765797E1,4.183236659E-1,2.575832009E-1,-1.043664932E0
2.608771734E1,2.425803840E-1,5.437328219E-1,-3.578586578E-1
2.610777719E1,-8.443057537E-3,8.103050590E-1,2.847537994E-1
2.612783708E1,-6.955549717E-1,1.060918450E0,2.684984207E-1
2.614789698E1,-1.074108362E0,1.353699088E0,-1.405467987E-1
2.616795651E1,-5.391442776E-1,1.502792954E0,2.815628052E-2
2.618801328E1,3.219201565E-1,1.200401783E0,4.905366898E-1
2.620807505E1,5.908418894E-1,7.921274900E-1,8.865985870E-1
2.622813500E1,8.448433876E-1,4.168915749E-1,1.503474236E0
2.624819437E1,1.440753222E0,2.010393143E-1,2.170994759E0
2.626825375E1,1.356972218E0,-1.162544489E-1,1.581563950E0
2.628831349E1,8.305526972E-1,-7.461977005E-2,1.613253593E0
2.630837286E1,9.086739421E-1,-2.443444729E-2,3.188188553E0
2.632843224E1,9.107209444E-1,-1.251236200E-1,4.440671921E0
2.634849161E1,6.035643816E-1,-9.475269318E-1,4.768932343E0
2.636855099E1,6.606037021E-1,-2.214303732E0,4.727964401E0
2.638861036E1,1.421155453E0,-3.207860947E0,4.086920738E0
2.640866974E1,1.999106646E0,-3.195980310E0,1.191397667E0
2.642872911E1,1.871760368E0,-2.470747709E0,-1.956475258E0
2.644878849E1,1.140443206E0,-1.752803326E0,-3.459854126E0
2.646884786E1,3.989577293E-1,-1.280353308E0,-3.619167805E0
2.648890838E1,1.060979664E-1,-1.252690554E0,-2.866943836E0
2.650896776E1,2.356999516E-1,-1.425567389E0,-1.839109898E0
2.652902713E1,8.995109797E-2,-1.442638159E0,-1.759713650E0
2.654908651E1,-4.381221533E-2,-1.176562071E0,-2.249245644E0
2.656914588E1,-2.305341363E-1,-8.738242388E-1,-2.716842651E0
2.658920547E1,-1.384428144E-1,-6.020444632E-1,-2.834887505E0
2.660926432E1,1.156396270E-1,-4.827220440E-1,-2.968238354E0
2.662932396E1,1.192531586E-1,-4.479653835E-1,-2.743641376E0
2.664938385E1,1.817356348E-1,-3.779699802E-1,-2.032855034E0
2.666944375E1,3.495397270E-1,-4.380488396E-1,-1.232132912E0
2.668950338E1,2.321072817E-1,-5.745671988E-1,-4.743461609E-1
2.670956276E1,-4.369552732E-1,-3.844493628E-1,3.853349686E-1
2.672962213E1,-1.000484228E0,6.748938560E-2,1.428562164E0
2.674968151E1,-1.480781555E0,2.385866642E-1,1.683655739E0
2.676974088E1,-1.922158718E0,-4.838240147E-2,2.271476746E0
2.678980026E1,-1.733028173E0,-5.943486691E-1,3.498164177E0
2.680985963E1,-1.560619593E0,-9.123560190E-1,4.005952835E0
2.682991901E1,-1.779609919E0,-7.502484918E-1,3.426046371E0
2.684997838E1,-1.945150852E0,-3.150425553E-1,3.370697021E0
2.687003776E1,-2.062253475E0,-2.527639866E-1,2.931331635E0
2.689009828E1,-2.169280767E0,-6.582087278E-1,2.080741882E0
2.691015765E1,-1.697576404E0,-1.740736365E0,2.331725121E0
2.693021703E1,-7.147591114E-1,-2.621545076E0,3.368926048E0
2.695027640E1,-6.370329857E-2,-2.943099499E0,2.642970085E0
2.697033578E1,-5.409690142E-1,-2.229867697E0,-8.459596634E-1
2.699039515E1,-9.034574032E-1,-1.708987713E0,-3.829776764E0
2.701045453E1,-7.895115614E-1,-1.158322930E0,-4.991399765E0
2.703051390E1,-4.892144203E-1,-1.017913580E0,-5.321251392E0
2.705057328E1,3.596198559E-2,-6.947824359E-1,-5.824425697E0
2.707063354E1,8.470329642E-1,-2.032017708E-1,-5.318059921E0
2.709068739E1,1.286760330E0,-2.964591980E-2,-3.872086048E0
2.711075271E1,1.234713912E0,-5.709993839E-2,-2.348115444E0
2.713081208E1,1.258116722E0,1.834213734E-2,-1.285675049E0
2.715087146E1,1.345186830E0,1.082791686E-1,-5.517148972E-1
2.717093083E1,1.252385855E0,1.016059816E-1,8.013324738E-1
2.719098896E1,1.316262364E0,2.172414362E-1,2.150112152E0
2.721104958E1,9.297001958E-1,6.575207710E-1,2.582298279E0
2.723110953E1,1.256076097E-1,1.288831234E0,1.980920792E0
2.725116890E1,-3.654097319E-1,1.730002880E0,1.063817024E0
2.727122828E1,-2.610300183E-1,1.995446205E0,3.376359940E-1
2.729128765E1,-5.725491047E-2,1.999803066E0,-1.700859070E-1
2.731134703E1,1.217854619E-1,1.446960688E0,3.071899414E-1
2.733140640E1,4.466657937E-1,9.676911831E-1,1.850868225E0
2.735146578E1,9.053007960E-1,6.646971703E-1,2.797040939E0
2.737152578E1,1.086100340E0,2.499241829E-1,2.952406883E0
2.739158536E1,1.436315536E0,3.577721119E-2,4.051990509E0
2.741164474E1,1.442831993E0,-2.983200550E-2,5.383923531E0
2.743170411E1,7.409502268E-1,-2.148737907E-1,5.331669807E0
2.745176349E1,3.623867929E-1,-1.308026075E0,4.666763306E0
2.747182286E1,6.858738065E-1,-2.358645201E0,4.262882233E0
2.749188224E1,1.792998433E0,-3.026013136E0,2.441679955E0
2.751194161E1,2.531056166E0,-2.954088211E0,-9.766693115E-1
2.753200099E1,2.550111532E0,-2.535177708E0,-4.087669373E0
2.755206036E1,2.372709274E0,-2.088303566E0,-5.504997730E0
2.757211974E1,2.011383533E0,-1.870919108E0,-5.149073601E0
2.759217911E1,1.475109100E0,-2.038343430E0,-3.679150105E0
2.761223849E1,9.001932740E-1,-2.265177011E0,-2.054668427E0
2.763229818E1,6.124531031E-1,-2.471455336E0,-7.802047729E-1
2.765235807E1,4.449449778E-1,-2.330664396E0,-7.425870895E-1
2.767241875E1,2.962947488E-1,-1.911611557E0,-1.623053551E0
2.769247463E1,-1.215465069E-1,-1.435462713E0,-2.136199474E0
2.771253708E1,-1.980786800E0,-5.310030580E-1,-8.664484024E-1
2.773259646E1,-4.637617111E0,1.699448824E-1,1.936796188E0
2.775265583E1,-3.188045502E0,-1.637365222E-1,2.617641449E0
2.777271552E1,4.507291615E-1,-6.120082736E-1,8.125286102E-1
2.779277234E1,2.188564777E0,-8.271002769E-2,-1.036828041E0
2.781283448E1,2.263033390E0,8.600567579E-1,-1.229661942E0
2.783289385E1,3.452661633E-1,1.762997508E0,2.460479736E-2
2.785295323E1,-2.461089134E0,2.571200371E0,1.294997215E0
2.787301333E1,-3.771369934E0,2.280846596E0,7.657566071E-1
2.789306979E1,-3.560965538E0,1.807359457E0,6.127004623E-1
2.791313151E1,-3.162995338E0,1.834440708E0,1.185633659E0
2.793319120E1,-2.915113449E0,1.661540985E0,1.803236008E0
2.795325057E1,-2.404250860E0,1.396800756E0,3.000432968E0
2.797330995E1,-1.733425379E0,7.185750008E-1,3.781608582E0
2.799336932E1,-9.398643970E-1,-3.157984018E-1,3.172174454E0
2.801342870E1,-1.704412401E-1,-2.204373837E0,2.958488464E0
2.803348807E1,1.060824394E0,-3.954525471E0,3.546574593E0
2.805354745E1,2.028786659E0,-4.658597946E0,2.425251961E0
2.807360755E1,2.012675524E0,-4.619393826E0,-2.806873322E-1
2.809366568E1,9.878200293E-1,-3.839636326E0,-2.823687553E0
2.811372557E1,2.880276144E-1,-2.875771046E0,-4.526552200E0
2.813378547E1,-1.029778123E-1,-2.077262163E0,-5.516294956E0
2.815384536E1,-2.480137348E-1,-1.429759502E0,-5.936018944E0
2.817390484E1,-2.098984420E-1,-9.354764223E-1,-5.224503994E0
2.819396422E1,-3.466945887E-2,-5.824075937E-1,-3.635463238E0
2.821402359E1,2.303208411E-1,-4.178539515E-1,-2.056768417E0
2.823408297E1,3.709721565E-1,-1.622066498E-1,-1.126226425E0
2.825414234E1,3.461647630E-1,2.044558525E-1,-1.035306931E0
2.827420224E1,2.248544097E-1,7.435719967E-1,-8.632421494E-1
2.829425943E1,-7.382581383E-2,1.115290046E0,-1.970567703E-1
2.831432088E1,-4.043070674E-1,1.381667495E0,8.509654999E-1
2.833438052E1,-9.334789515E-1,1.656168461E0,1.790878296E0
2.835443989E1,-1.478056788E0,1.888768435E0,2.008512497E0
2.837449927E1,-1.296764970E0,1.935116649E0,1.612904549E0
2.839455864E1,-1.807943583E-1,1.815402508E0,7.674636841E-1
2.841461802E1,9.896423817E-1,1.602410793E0,2.521505356E-1
2.843467739E1,1.451940775E0,1.211820841E0,7.090415955E-1
2.845473677E1,1.699206948E0,8.650088310E-1,3.562742233E0
2.847479687E1,1.859776497E0,-1.586316824E-1,6.911500931E0
2.849485041E1,1.821942449E0,-1.016544104E0,7.437746048E0
2.851491578E1,2.238604069E0,-4.990078211E-1,7.095847130E0
2.853497515E1,1.810926795E0,8.487784863E-2,5.504821777E0
2.855503453E1,1.174967051E0,-2.540485859E-1,3.403065681E0
2.857509390E1,1.206648469E0,-1.836017370E0,2.945465088E0
2.859515328E1,1.729870200E0,-3.113979816E0,1.765605927E0
2.861521265E1,1.748918891E0,-3.188133240E0,-1.196820259E0
2.863527203E1,1.453612566E0,-2.690946341E0,-4.072710514E0
2.865533140E1,9.609001875E-1,-2.006831884E0,-5.455171585E0
2.867539109E1,3.370890617E-1,-1.461720347E0,-5.711702347E0
2.869544870E1,-2.988834679E-1,-1.424876213E0,-5.314677715E0
2.871551036E1,-6.318103075E-1,-1.862193823E0,-4.129796028E0
2.873556974E1,-7.212190628E-1,-2.739335537E0,-1.846375465E0
2.875562911E1,-5.974602103E-1,-3.201497078E0,1.556968689E-2
2.877568807E1,-3.556283712E-1,-2.706959248E0,1.653680801E-1
2.879574500E1,-3.393695354E-1,-1.743919134E0,-1.551760674E0
2.881580765E1,-4.743318558E-1,-9.060934782E-1,-2.897508621E0
2.883586703E1,-3.953663707E-1,-2.755789757E-1,-3.350750446E0
2.885592640E1,-3.718389869E-1,5.861639977E-2,-3.344292164E0
2.887598578E1,-7.929152250E-1,4.034498930E-1,-2.942561150E0
2.889604515E1,-1.340274215E0,6.768677235E-1,-1.989323139E0
2.891610453E1,-1.591943502E0,9.832342863E-1,-7.437438965E-1
2.893616390E1,-1.297665715E0,9.700787067E-1,6.946763992E-1
2.895622328E1,-1.166761518E0,7.165843248E-1,2.287472725E0
2.897628318E1,-1.348868728E0,5.409127474E-1,3.473471642E0
2.899634151E1,-7.479017377E-1,4.113583565E-1,5.029411316E0
2.901640140E1,-8.387586474E-1,2.294932604E-1,5.265908241E0
2.903646130E1,-1.640213132E0,8.780040741E-1,3.964965820E0
2.905652114E1,-2.281720877E0,1.436028004E0,3.265957832E0
2.907658005E1,-2.477552891E0,1.656018853E0,2.569234848E0
2.909663760E1,-2.273091078E0,9.776562452E-1,1.359693527E0
2.911669948E1,-1.915496945E0,-4.700101316E-1,1.890485764E0
2.913675885E1,-1.163899899E0,-2.109670877E0,3.444889069E0
2.915681823E1,-1.368775964E-1,-2.993444443E0,3.164918900E0
2.917687760E1,1.494372189E-1,-2.680920124E0,-1.747026443E-1
2.919693698E1,2.057600021E-2,-2.054152489E0,-3.274266720E0
2.921699635E1,-7.835763693E-2,-1.325272083E0,-4.805589676E0
2.923705573E1,-2.575117350E-1,-8.464878201E-1,-5.020544052E0
2.925711510E1,-3.528183699E-1,-4.529603720E-1,-4.766823292E0
2.927717458E1,-3.696358502E-1,1.960813403E-1,-4.066442966E0
2.929723323E1,-1.772809178E-1,5.479221940E-1,-3.106009960E0
2.931729401E1,5.247190595E-2,5.073115826E-1,-2.007121563E0
2.933735338E1,4.131400883E-1,4.821449220E-1,-1.266981125E0
2.935741276E1,6.615347266E-1,3.453049064E-1,-1.154441833E0
2.937747120E1,8.803998232E-1,2.856900692E-1,-2.361888885E-1
2.939752953E1,7.630115747E-1,5.020934343E-1,9.953136444E-1
2.941759125E1,5.224549770E-1,9.503523707E-1,1.358891487E0
2.943765062E1,1.427272856E-1,1.485083580E0,7.221317291E-1
2.945771000E1,-2.456984818E-1,1.950926065E0,1.555671692E-1
2.947776937E1,-3.369983137E-1,2.292962074E0,1.236276627E-1
2.949782875E1,-2.627912760E-1,2.314210892E0,2.744035721E-1
2.951788812E1,-3.380080462E-1,1.879558802E0,1.091478348E0
2.953794750E1,5.040537715E-1,1.341411352E0,3.089845657E0
2.955800687E1,1.849953651E0,7.767731547E-1,4.095154762E0
2.957806687E1,2.043999434E0,5.008054972E-1,3.536449432E0
2.959812625E1,1.837340474E0,9.155111909E-1,4.155646324E0
2.961818562E1,8.505453467E-1,1.113760233E0,4.574699402E0
2.963824500E1,8.179209828E-1,4.320472479E-1,3.887180328E0
2.965830437E1,1.620182157E0,-1.107405186E0,3.315928459E0
2.967836370E1,2.619285822E0,-2.486834764E0,2.805776596E0
2.969842239E1,3.177172899E0,-2.937865973E0,1.205226898E0
2.971848281E1,2.471604824E0,-2.208733320E0,-7.460393906E-1
2.973854245E1,1.309378862E0,-1.857017636E0,-2.693763256E0
2.975860182E1,6.404497623E-1,-1.499287486E0,-3.441052437E0
2.977865916E1,3.030925393E-1,-1.225902557E0,-3.654767036E0
2.979871838E1,1.903795749E-1,-1.087022901E0,-3.276095867E0
2.981878026E1,1.561713666E-1,-1.204666018E0,-2.927569389E0
2.983883963E1,-5.584537983E-3,-1.442837715E0,-2.560672283E0
2.985889901E1,-1.452333927E-1,-1.362376809E0,-2.538802624E0
2.987895734E1,-2.659661174E-1,-1.195001245E0,-2.617014408E0
2.989901521E1,-3.784079552E-1,-1.000686884E0,-2.479129314E0
2.991907750E1,-4.424093366E-1,-9.351965189E-1,-2.217512608E0
2.993913687E1,-2.348185182E-1,-7.902503014E-1,-1.457019806E0
2.995919625E1,-6.437578797E-1,-7.142015696E-1,-1.307225227E0
2.997925437E1,-1.411694527E0,-3.281083703E-1,-1.157098770E0
2.999931349E1,-1.475411654E0,7.954221964E-2,-3.719444275E-1
3.001937479E1,-8.443751335E-1,7.801109552E-2,1.428775787E-1
3.003943416E1,-9.815090895E-2,-2.745043933E-1,5.231885910E-1
3.005949354E1,-2.425620556E-1,-2.208442688E-1,8.342800140E-1
3.007955291E1,-1.181675553E0,-5.067965388E-2,2.163295746E0
3.009961229E1,-2.594340324E0,-1.134780347E-1,4.106616020E0
3.011967166E1,-2.973846436E0,-3.549379706E-1,5.184526443E0
3.013973104E1,-2.230082989E0,-4.512190521E-1,6.204389572E0
3.015979041E1,-1.433110833E0,-1.023329496E0,6.122242928E0
3.017984979E1,-9.051722288E-1,-1.844217062E0,5.489102364E0
3.019990916E1,8.214223385E-2,-2.329297066E0,5.146644592E0
3.021996854E1,3.954420686E-1,-2.088600874E0,3.125482559E0
3.024002791E1,-1.549682617E-1,-1.438366413E0,-9.861707687E-1
3.026008729E1,-3.182417154E-1,-8.116232157E-1,-4.116034031E0
3.028014771E1,5.015373230E-2,-5.976513028E-1,-5.252717972E0
3.030020708E1,3.712329268E-1,-4.471355081E-1,-5.125642776E0
3.032026646E1,3.864810467E-1,-3.318598866E-1,-4.935536861E0
3.034032583E1,9.735539556E-1,-8.394181728E-2,-4.137760162E0
3.036038521E1,1.837615252E0,1.206526756E-1,-3.452983379E0
3.038044458E1,2.202574253E0,2.374991775E-1,-2.930271626E0
3.040050396E1,1.698214531E0,3.493784070E-1,-2.993548870E0
3.042056333E1,1.313640833E0,4.260515571E-1,-2.362557888E0
3.044062271E1,1.554621220E0,4.427284598E-1,-1.263848305E0
3.046068208E1,1.514663339E0,2.884919643E-1,-3.571815491E-1
3.048074224E1,1.116147757E0,3.386150301E-1,8.723421097E-1
3.050080161E1,5.857597589E-1,5.160625577E-1,1.758384705E0
3.052086099E1,-2.575352490E-1,1.076279402E0,1.949378014E0
3.054092036E1,-5.472220182E-1,1.813197613E0,1.332934380E0
3.056097974E1,-3.659356833E-1,2.171121836E0,3.619737625E-1
3.058103911E1,4.351615906E-3,1.917703152E0,7.010555267E-2
3.060109849E1,6.286571026E-1,1.342523336E0,1.041525841E0
3.062115786E1,1.325958252E0,8.398077488E-1,2.461807251E0
3.064121724E1,1.008624911E0,2.230482101E-1,3.474236488E0
3.066127661E1,3.655334413E-1,2.608156204E-2,4.882448196E0
3.068133599E1,4.203391075E-1,3.639299870E-1,6.613484383E0
3.070139536E1,4.707798362E-2,3.744246960E-1,5.892482758E0
3.072145474E1,-1.699385047E-2,-5.867666006E-1,4.020015717E0
3.074151411E1,6.650203466E-1,-1.847744823E0,3.632581711E0
3.076157401E1,1.576738477E0,-2.612464905E0,2.512655258E0
3.078163385E1,1.577915430E0,-2.262086391E0,-7.749366760E-2
3.080169250E1,8.093649149E-1,-1.728658915E0,-2.556098461E0
3.082175239E1,2.059676349E-1,-1.404398680E0,-3.572786331E0
3.084181229E1,8.580955863E-2,-1.362586379E0,-3.304892063E0
3.086187219E1,2.037400007E-1,-1.543216705E0,-2.392711163E0
3.088192948E1,-1.976777911E-1,-1.662425518E0,-1.703385353E0
3.090198958E1,-6.616356969E-1,-1.725067854E0,-1.356530190E0
3.092205062E1,-5.663746595E-1,-1.672587991E0,-1.883772373E0
3.094211000E1,-3.185355663E-1,-1.328861237E0,-2.884791374E0
3.096216937E1,1.838451624E-2,-9.620645046E-1,-3.435532093E0
3.098222698E1,3.057152629E-1,-6.830320358E-1,-3.196637154E0
3.100228708E1,3.805328608E-1,-6.922321320E-1,-2.327397346E0
3.102234807E1,3.868288994E-1,-7.257452011E-1,-1.467141628E0
3.104240745E1,2.576540112E-1,-6.924339533E-1,-1.103575706E0
3.106246682E1,5.509960651E-2,-4.359147549E-1,-1.166381836E0
3.108252443E1,4.644560814E-2,-2.096951008E-1,-8.635311127E-1
3.110258453E1,-1.455408931E-1,-1.546025276E-2,-3.185977936E-1
3.112264552E1,-8.525317907E-1,1.439738274E-2,4.095439911E-1
3.114270489E1,-1.542236567E0,-1.763610840E-1,1.257514000E0
3.116276427E1,-1.650215387E0,-1.959698200E-1,2.157709122E0
3.118282255E1,-2.072832584E0,-6.833577156E-2,2.398222923E0
3.120288255E1,-2.127188206E0,2.931892872E-1,2.846797943E0
3.122294297E1,-2.016084671E0,2.974200249E-1,2.852823257E0
3.124300234E1,-2.067637920E0,-4.109431505E-1,2.677478790E0
3.126306172E1,-1.895808220E0,-1.706366658E0,3.550497055E0
3.128312146E1,-1.048469305E0,-2.715238094E0,4.912089348E0
3.130318083E1,-4.287983179E-1,-2.626842260E0,4.240257263E0
3.132324021E1,-8.968203068E-1,-1.867765427E0,7.393760681E-1
3.134329958E1,-8.953047991E-1,-1.100645304E0,-2.421651363E0
3.136335896E1,-6.552919149E-1,-5.057510138E-1,-4.173958302E0
3.138341703E1,-7.002030611E-1,-3.637207747E-1,-4.737867355E0
3.140347724E1,-7.188175917E-1,-2.714519501E-1,-4.126414299E0
3.142353791E1,-1.901501417E-1,-3.017690182E-1,-2.864079475E0
3.144359729E1,2.195943594E-1,-2.869735956E-1,-1.345560074E0
3.146365666E1,5.581712127E-1,-1.946791410E-1,-6.613435745E-1
3.148371562E1,7.090869546E-1,2.722978592E-3,-1.027836800E0
3.150377500E1,7.518332601E-1,2.889001369E-1,-1.466941833E0
3.152383541E1,7.011367083E-1,5.674474239E-1,-1.583771706E0
3.154389489E1,4.850746989E-1,8.145630360E-1,-1.037893295E0
3.156395427E1,7.852286100E-2,9.343521595E-1,-4.593324661E-1
3.158401364E1,-4.632130861E-1,9.203069210E-1,7.664871216E-2
3.160407302E1,-3.752071857E-1,1.025189638E0,3.306579590E-1
3.162413239E1,2.043732405E-1,1.212584972E0,1.990432739E-1
3.164419177E1,7.611417174E-1,1.054286242E0,3.101215363E-1
3.166425114E1,8.506058455E-1,6.928236485E-1,4.775133133E-1
3.168431146E1,7.027535439E-1,8.464393616E-1,1.290155411E0
3.170437083E1,5.984998941E-1,9.591605663E-1,1.712252617E0
3.172443021E1,4.558370113E-1,8.040835857E-1,2.139454842E0
3.174448958E1,3.635955453E-1,8.252935410E-1,3.357097626E0
3.176454896E1,3.747668564E-1,6.646487713E-1,3.894189835E0
3.178460849E1,3.613384366E-1,-2.953042984E-1,3.700107574E0
3.180466729E1,6.562446356E-1,-1.488598108E0,4.669919014E0
3.182472718E1,1.120303035E0,-2.522111177E0,4.946139336E0
3.184478708E1,1.079360008E0,-2.353055000E0,2.120279312E0
3.186484698E1,7.872010469E-1,-1.531654954E0,-1.241245270E0
3.188490651E1,4.787601829E-1,-1.005569339E0,-3.451293945E0
3.190496588E1,1.922218502E-1,-8.366208076E-1,-3.978880405E0
3.192502526E1,9.473747015E-2,-9.211037159E-1,-3.017646790E0
3.194508463E1,-1.147806644E-3,-1.066442728E0,-1.295493126E0
3.196514401E1,-1.235359907E-2,-1.238128901E0,1.038627625E-1
3.198519885E1,-7.728660107E-2,-1.211070061E0,2.324304581E-1
3.200526166E1,-2.853041887E-2,-9.802005291E-1,-5.583839417E-1
3.202532302E1,1.391205788E-1,-7.223119736E-1,-1.544676781E0
3.204538239E1,3.068869710E-1,-4.988553524E-1,-2.158763885E0
3.206544177E1,2.996788621E-1,-2.735462189E-1,-1.932484150E0
3.208550114E1,1.384330392E-1,-1.160063744E-1,-1.894371510E0
3.210556052E1,5.001187325E-3,5.696153641E-2,-1.916669369E0
3.212561989E1,-5.456721783E-2,1.114962101E-1,-1.859310150E0
3.214567927E1,2.506577969E-2,3.111968040E-1,-1.458298206E0
3.216573864E1,1.229870319E-2,5.263209343E-1,-9.639749527E-1
3.218579802E1,-4.996618032E-1,4.565219879E-1,-6.211919785E-1
3.220585750E1,-8.276406527E-1,2.198600769E-1,-1.544675827E-1
3.222591739E1,-9.778283834E-1,3.334379196E-2,6.463899612E-1
3.224597729E1,-1.154604197E0,2.065711021E-1,1.132336617E0
3.226603718E1,-1.459533572E0,3.164293766E-1,1.436590195E0
3.228609661E1,-1.542394161E0,5.432057381E-1,2.385591507E0
3.230615599E1,-1.698650360E0,1.327190399E-1,2.943647385E0
3.232621536E1,-1.676329970E0,-8.966814280E-1,3.270580292E0
3.234627474E1,-1.774114490E0,-1.947462440E0,3.555089951E0
3.236633411E1,-1.512469530E0,-2.091691732E0,3.569908142E0
3.238639323E1,-1.447088122E0,-1.651132107E0,1.991518974E0
3.240645286E1,-1.419654131E0,-1.282455802E0,-7.242851257E-1
3.242651328E1,-8.474185467E-1,-9.016776085E-1,-2.653483391E0
3.244657265E1,-2.673349380E-1,-7.653069496E-1,-3.654627800E0
3.246663203E1,1.006259918E-1,-8.063923120E-1,-3.650799751E0
3.248669031E1,6.840486526E-1,-7.537199259E-1,-2.565839291E0
3.250675047E1,1.311926365E0,-6.154612303E-1,-1.907968044E0
3.252681073E1,1.582712889E0,-3.811900616E-1,-1.743347645E0
3.254687010E1,1.541489601E0,-1.168345213E-1,-1.760435104E0
3.256692948E1,1.067063808E0,1.848547459E-1,-1.361691475E0
3.258698646E1,7.673044205E-1,5.021551847E-1,-8.832845688E-1
3.260704802E1,6.394339800E-1,7.615370750E-1,-1.338949203E-1
3.262710823E1,3.089822531E-1,9.014102221E-1,4.597778320E-1
3.264716760E1,-8.342385292E-3,1.130762339E0,8.676300049E-1
3.266722698E1,-3.152467012E-1,1.246738434E0,7.360181808E-1
3.268728635E1,-5.719232559E-2,1.494223356E0,2.003049850E-1
3.270734573E1,2.857276201E-1,1.560667753E0,-2.237215042E-1
3.272740510E1,1.672887802E-1,1.136489868E0,1.084753990E0
3.274746448E1,5.218359828E-1,7.412908077E-1,3.274811745E0
3.276752385E1,8.904465437E-1,5.532810688E-1,3.020344734E0
3.278758323E1,1.005007029E0,3.543500900E-1,2.277333260E0
3.280764260E1,1.484689713E0,6.417438984E-1,2.795454025E0
3.282770250E1,1.293544769E0,8.527121544E-1,3.080991745E0
3.284776239E1,8.586810827E-1,3.710086346E-1,2.354657173E0
3.286782229E1,3.305321932E-1,-1.055362821E0,2.626058578E0
3.288788182E1,2.168329954E-1,-2.092429399E0,3.952433586E0
3.290794120E1,7.350783348E-1,-2.548793793E0,3.344215393E0
3.292800057E1,1.147256374E0,-2.001089811E0,8.209800720E-2
3.294805995E1,1.298888564E0,-1.280595779E0,-2.992146015E0
3.296811932E1,1.067763567E0,-8.053641319E-1,-4.840126038E0
3.298817870E1,7.789180875E-1,-8.629548550E-1,-5.008881092E0
3.300823807E1,4.269939661E-1,-1.322894454E0,-3.617652416E0
3.302829745E1,-3.072487116E-1,-1.603644848E0,-1.343858719E0
3.304835682E1,-4.186927080E-1,-1.767769098E0,-4.794311523E-2
3.306841635E1,2.229285240E-2,-1.473655939E0,-1.458120346E-1
3.308847625E1,4.198594689E-1,-1.031088352E0,-1.302516937E0
3.310853614E1,5.445709825E-1,-5.210305452E-1,-2.259849072E0
3.312859604E1,5.070136786E-1,-2.268047333E-1,-2.410525322E0
3.314865541E1,4.117181301E-1,-7.859015465E-2,-2.066175938E0
3.316871479E1,3.921627998E-3,1.012591124E-1,-1.356973648E0
3.318877198E1,-5.453456640E-1,2.112475634E-1,-7.784595490E-1
3.320883390E1,-7.090500593E-1,2.614942789E-1,-1.091632843E-1
3.322889349E1,-5.961570740E-1,3.816746473E-1,4.897594452E-2
3.324895286E1,-6.930222511E-1,4.618830681E-1,3.887977600E-1
3.326901224E1,-5.580484867E-1,9.232211113E-2,1.733548164E0
3.328907208E1,-2.023669481E-1,-4.707041979E-1,3.235977173E0
3.330913146E1,-6.436003447E-1,-4.910964370E-1,3.296976089E0
3.332919083E1,-1.721707940E0,-2.061790824E-1,2.710824966E0
3.334925021E1,-1.525371194E0,2.663369179E-1,2.899142265E0
3.336930958E1,-1.127714038E0,3.538875580E-1,2.538064003E0
3.338936963E1,-1.401131630E0,1.780748367E-2,2.067860603E0
3.340942901E1,-1.124559164E0,-1.118573427E0,2.709755898E0
3.342948838E1,-7.559816837E-1,-2.085424185E0,3.679843903E0
3.344954776E1,-1.113223076E0,-2.275118351E0,3.672618866E0
3.346960713E1,-1.985283375E0,-1.943121672E0,8.147640228E-1
3.348966651E1,-1.870113373E0,-1.080322981E0,-2.257135868E0
3.350972588E1,-1.247876644E0,-4.457446933E-1,-4.238888741E0
3.352978526E1,-7.623565197E-1,-6.443083286E-2,-5.270790100E0
3.354984463E1,-3.574967384E-3,1.410819292E-1,-5.362919331E0
3.356990453E1,7.903829217E-1,2.158081532E-1,-4.124347210E0
3.358996484E1,1.080664396E0,2.865314484E-1,-2.358432293E0
3.361002422E1,1.485984564E0,4.230750799E-1,-1.834572315E0
3.363008359E1,2.055369616E0,4.834949970E-1,-1.205491066E0
3.365014297E1,2.284032822E0,6.675207615E-1,-5.054378510E-1
3.367020234E1,1.827233315E0,8.710048795E-1,-5.727415085E-1
3.369026245E1,1.206210971E0,1.091051579E0,-3.726711273E-1
3.371032182E1,6.602508426E-1,1.090079665E0,2.108907700E-1
3.373038120E1,3.380587399E-1,1.025346398E0,9.092102051E-1
3.375044057E1,3.540342152E-1,1.108703136E0,1.524045944E0
3.377049995E1,7.426697612E-1,1.262530565E0,1.386932373E0
3.379056005E1,8.603035212E-1,1.116063118E0,9.708900452E-1
3.381061942E1,7.028617859E-1,8.124923706E-1,1.065567970E0
3.383067880E1,2.119573951E-1,5.427277088E-1,2.167788506E0
3.385073818E1,-3.952097297E-1,1.899623871E-2,3.855652809E0
3.387079755E1,-5.618095994E-1,-3.026158810E-1,5.494314194E0
3.389085692E1,-4.222949147E-1,-1.521945000E-2,5.812613487E0
3.391091630E1,-7.576076388E-1,2.425429821E-1,3.835810661E0
3.393097568E1,-9.034253359E-1,-8.917062879E-1,2.629466057E0
3.395103515E1,-1.615829617E-1,-2.253147602E0,2.981251717E0
3.397109505E1,7.189521194E-1,-2.706213474E0,2.112517357E0
3.399115495E1,9.247975349E-1,-2.242986441E0,-1.175959587E0
3.401121484E1,8.472510576E-1,-1.752561212E0,-4.408079624E0
3.403127432E1,8.461885452E-1,-1.272963047E0,-5.892684937E0
3.405133370E1,6.433205605E-1,-1.156059384E0,-5.822543144E0
3.407139406E1,3.261973858E-1,-1.503166199E0,-4.608296871E0
3.409145021E1,-3.310512304E-1,-1.906236410E0,-2.552128315E0
3.411151255E1,-6.097266078E-1,-2.126047850E0,2.296686172E-1
3.413157192E1,-7.364403605E-1,-2.047307730E0,1.205265045E0
3.415163130E1,-6.329298615E-1,-1.469214439E0,-1.169023514E-1
3.417169068E1,-3.828766346E-1,-9.493871331E-1,-1.993429661E0
3.419175005E1,-2.115706205E-1,-4.639546871E-1,-2.270998955E0
3.421180943E1,-3.899300098E-1,-7.165086269E-2,-2.056578636E0
3.423186880E1,-6.862843633E-1,3.310496807E-1,-1.839348793E0
3.425192818E1,-1.185925245E0,6.383943558E-1,-1.623329163E0
3.427198755E1,-1.257478714E0,8.707230091E-1,-1.218372345E0
3.429204729E1,-1.265601397E0,1.138866663E0,-1.176470757E0
3.431210718E1,-1.074486494E0,1.299535155E0,-6.776638031E-1
3.433216708E1,-3.754996657E-1,7.969728708E-1,5.522489548E-1
3.435222682E1,2.493584156E-2,9.344846010E-2,2.359583855E0
3.437228693E1,-3.409253359E-1,-1.996154189E-1,3.965171814E0
3.439234307E1,-1.335931540E0,-2.758634984E-1,4.947310448E0
3.441240547E1,-1.910482049E0,-5.692827702E-2,5.601035118E0
3.443246484E1,-2.002381325E0,2.247658968E-1,5.346569061E0
3.445252422E1,-1.876783609E0,3.010864854E-1,4.121316910E0
3.447258359E1,-2.205117226E0,-5.163319111E-1,3.184338570E0
3.449264297E1,-2.807067633E0,-1.992940426E0,3.797748566E0
3.451270234E1,-2.281969786E0,-3.286862612E0,4.768524170E0
3.453276172E1,-1.523472309E0,-3.483052731E0,2.787894249E0
3.455282109E1,-9.190573692E-1,-2.928477287E0,-1.526633263E0
3.457288047E1,-2.805851698E-1,-2.424234867E0,-5.190443039E0
3.459294015E1,-1.577043533E-2,-2.058120012E0,-6.611465931E0
3.461300005E1,1.118643284E-1,-1.936147690E0,-6.638898373E0
3.463305995E1,-1.387870312E-2,-1.737373233E0,-5.929657936E0
3.465311974E1,4.870917201E-1,-1.417104006E0,-4.549669266E0
3.467317932E1,8.632666469E-1,-9.475015402E-1,-2.583858013E0
3.469323474E1,9.306272864E-1,-5.168997645E-1,-1.985641003E0
3.471329833E1,1.241881013E0,-2.234798670E-1,-2.210390568E0
3.473335771E1,1.430431247E0,1.837551594E-2,-2.236392021E0
3.475341708E1,1.589128494E0,3.471167088E-1,-1.897922516E0
3.477347693E1,1.525904894E0,6.547233462E-1,-6.398229599E-1
3.479353396E1,1.103460312E0,8.359397054E-1,7.385759354E-1
3.481359599E1,4.343360066E-1,1.066459894E0,2.037425995E0
3.483365536E1,3.323435783E-2,1.258043885E0,3.210410118E0
3.485371474E1,6.168001890E-1,1.457388043E0,2.987330437E0
3.487377411E1,1.437957525E0,1.571759462E0,1.791426659E0
3.489383349E1,1.501430988E0,1.410893083E0,1.189453125E0
3.491389286E1,1.368239641E0,1.156340599E0,1.854849815E0
3.493395224E1,1.538870215E0,7.710338235E-1,2.723670959E0
3.495401161E1,1.300863504E0,4.466296434E-1,2.945638657E0
3.497407172E1,1.213418365E0,6.579244733E-1,3.315119743E0
3.499413161E1,1.059742689E0,1.189357281E0,3.235450745E0
3.501419099E1,7.540019751E-1,1.243628860E0,2.366654396E0
3.503425036E1,1.420441270E-1,8.868038654E-2,2.584552765E0
3.505430974E1,9.745619297E-1,-1.610676050E0,4.081731796E0
3.507436979E1,2.208353996E0,-2.719906807E0,3.771659851E0
3.509442916E1,2.351422548E0,-2.364815712E0,4.726505280E-1
3.511448854E1,1.635644436E0,-1.439517498E0,-2.970817089E0
3.513454791E1,7.710893154E-1,-9.807510376E-1,-4.772389412E0
3.515460729E1,1.536189467E-1,-1.006365538E0,-4.316320896E0
3.517466739E1,-4.767630100E-1,-1.477097869E0,-2.765727043E0
3.519472677E1,-6.094798446E-1,-1.968252182E0,-2.595949173E-1
3.521478614E1,-4.655273557E-1,-2.181667089E0,1.209680557E0
3.523484552E1,-5.466480851E-1,-1.874403000E0,2.172660828E-1
3.525490489E1,-8.368076086E-1,-1.302985907E0,-1.724287510E0
3.527496495E1,-8.789279461E-1,-8.914818168E-1,-3.110284328E0
3.529502302E1,-5.255801082E-1,-7.336750627E-1,-3.477465630E0
3.531508344E1,-2.685357928E-1,-5.910227895E-1,-3.414035797E0
3.533514344E1,-3.220444322E-1,-3.171311617E-1,-3.646900654E0
3.535520281E1,-9.800787568E-1,1.654407978E-1,-3.420414448E0
3.537526219E1,-1.102979183E0,6.930968761E-1,-2.482179642E0
3.539532156E1,-6.727403998E-1,8.243982792E-1,-1.369342804E0
3.541538094E1,-4.197757840E-1,8.235240579E-1,-5.039472580E-1
3.543544031E1,-2.818887830E-1,7.971973419E-1,1.323496819E0
3.545549968E1,-1.566455364E-1,4.250143766E-1,3.222008705E0
3.547556005E1,-5.554659367E-1,2.413199544E-1,3.610488892E0
3.549561942E1,-1.032626510E0,5.081267953E-1,2.977115631E0
3.551567880E1,-9.712893963E-1,7.616996765E-1,2.552506447E0
3.553573818E1,-4.008985758E-1,9.913036823E-1,2.379832268E0
3.555579755E1,-4.970065355E-1,7.539333105E-1,1.900644302E0
3.557585760E1,-1.944127202E0,-3.376293778E-1,9.157238007E-1
3.559591698E1,-3.033049345E0,-1.909775972E0,8.213195801E-1
3.561597635E1,-1.832515240E0,-3.689429760E0,3.135048866E0
3.563603573E1,5.264804363E-1,-4.764090061E0,5.581525803E0
3.565609510E1,1.200500011E0,-4.045027733E0,4.162004471E0
3.567615448E1,5.195617676E-2,-2.654634953E0,-3.244686127E-2
3.569621385E1,-1.515232205E0,-1.041865826E0,-3.577602863E0
3.571627323E1,-2.700460672E0,1.494004428E-1,-5.406431675E0
3.573633260E1,-2.852450132E0,8.992339969E-1,-4.686497211E0
3.575639198E1,-2.245764017E0,1.205314755E0,-2.822791576E0
3.577645260E1,-1.443003893E0,1.249815583E0,-1.502697945E0
3.579651198E1,-9.563221931E-1,1.156645060E0,-1.435244560E0
3.581657135E1,-3.799417019E-1,1.129088163E0,-1.595965385E0
3.583663073E1,1.594843864E-1,9.084724784E-1,-1.599290848E0
3.585669010E1,3.996247053E-1,5.735937357E-1,-1.223978043E0
3.587674948E1,5.997565985E-1,2.533690631E-1,-2.298974991E-1
3.589680885E1,5.729681253E-1,2.895913720E-1,7.342338562E-1
3.591686823E1,1.362321377E-1,7.869921923E-1,8.165864944E-1
3.593692760E1,-2.658053637E-1,1.361453295E0,1.718931198E-1
3.595698698E1,-4.296408892E-1,1.720687866E0,-6.452207565E-1
3.597704635E1,-3.047084808E-1,1.928292274E0,-8.923015594E-1
3.599710573E1,-8.126509190E-2,1.797652245E0,-3.024635315E-1
3.601716552E1,1.023126841E-1,1.698822021E0,5.717515945E-1
3.603722541E1,4.914677143E-2,1.700067163E0,9.777145386E-1
3.605728531E1,-1.328872442E-1,1.579459548E0,1.182909012E0
3.607734484E1,-4.477179050E-2,1.136372089E0,2.109873772E0
3.609740422E1,3.592374325E-1,6.601701975E-1,3.053806305E0
3.611746359E1,4.341846108E-1,5.986865759E-1,2.723260880E0
3.613752297E1,2.461460829E-1,5.016247034E-1,2.049935341E0
3.615758234E1,1.609137058E-1,1.503642797E-1,2.544548035E0
3.617764187E1,3.128281236E-1,-6.277602911E-1,2.947348595E0
3.619770057E1,6.600317359E-1,-1.382660270E0,2.656225204E0
3.621776099E1,7.154240012E-1,-2.150358677E0,1.888674736E0
3.623782073E1,1.053938270E0,-2.416088820E0,1.224428177E0
3.625788010E1,9.609729648E-1,-1.979878426E0,-3.268680573E-1
3.627793828E1,1.161672831E0,-1.726124644E0,-2.011512280E0
3.629799609E1,2.040287971E0,-1.492500782E0,-3.296059132E0
3.631805864E1,2.356307268E0,-1.176231265E0,-3.683064938E0
3.633811802E1,2.334228277E0,-1.197932363E0,-3.034060955E0
3.635817739E1,2.071839809E0,-1.456199884E0,-1.373606682E0
3.637823594E1,1.708389282E0,-1.514770389E0,9.833812714E-2
3.639829427E1,1.530930161E0,-1.327981234E0,2.349767685E-1
3.641835604E1,1.166497111E0,-7.815736532E-1,-9.148006439E-1
3.643841541E1,7.386525869E-1,-2.529305220E-1,-1.468473434E0
3.645847479E1,5.628845692E-1,2.141314745E-2,-1.536231995E0
3.647853333E1,4.790481329E-1,1.423333883E-1,-1.175151825E0
3.649859166E1,6.604896188E-1,1.594424248E-1,-1.187667847E0
3.651865338E1,2.686138153E-1,3.687787056E-1,-1.497712135E0
3.653871276E1,-4.015325904E-1,6.777279377E-1,-8.350677490E-1
3.655877213E1,-7.501027584E-1,8.706695437E-1,-2.944641113E-1
3.657883052E1,-6.877083778E-1,9.989689589E-1,-1.115465164E-1
3.659888838E1,-6.166927814E-1,9.998328686E-1,-1.463432312E-1
3.661895073E1,-4.577907324E-1,7.927152514E-1,5.337018967E-1
3.663901010E1,-2.748625278E-1,5.580062866E-1,1.673597336E0
3.665906948E1,-7.050002813E-1,4.615835845E-1,2.411767960E0
3.667912791E1,-1.281568766E0,2.582549155E-1,3.058899879E0
3.669918651E1,-1.963999629E0,6.068572402E-2,3.310986519E0
3.671924807E1,-2.143544197E0,1.662881970E-1,2.870512009E0
3.673930745E1,-2.039569855E0,1.156795025E-1,1.850259781E0
3.675936682E1,-1.587454796E0,2.127407789E-1,1.697574615E0
3.677942505E1,-1.082471728E0,-2.945348024E-1,2.296662331E0
3.679948286E1,-7.409728765E-1,-7.444388866E-1,2.619854927E0
3.681954536E1,-4.871315956E-1,-1.621735930E0,2.658255577E0
3.683960474E1,3.173267841E-1,-2.733858585E0,3.246554375E0
3.685966411E1,1.183959961E0,-3.710577965E0,3.508655548E0
3.687972349E1,1.795261979E0,-3.845213652E0,1.956685066E0
3.689978286E1,1.635727167E0,-3.176054239E0,-7.370729446E-1
3.691984224E1,1.307576656E0,-2.133372307E0,-3.060356617E0
3.693990161E1,4.128756523E-1,-9.693034887E-1,-4.495272636E0
3.695996099E1,-2.701435089E-1,-1.431778073E-1,-4.840681076E0
3.698001911E1,-1.033833027E-1,2.714106441E-1,-4.608043194E0
3.700007672E1,3.606653810E-1,3.841162920E-1,-3.685670853E0
3.702013995E1,7.423617840E-1,3.407357335E-1,-2.318733692E0
3.704019932E1,9.269391298E-1,1.157511473E-1,-1.495401382E0
3.706025870E1,6.432854533E-1,-7.569330931E-2,-5.860462189E-1
3.708031765E1,1.750920415E-1,-1.405203342E-1,6.285667419E-2
3.710037666E1,4.598397017E-2,-1.364978552E-1,2.484922409E-1
3.712043708E1,1.352302432E-1,-4.806596041E-2,-2.456188202E-2
3.714049661E1,-6.739282608E-2,1.767686009E-1,-5.630378723E-1
3.716055599E1,-2.895493507E-1,5.280923843E-1,-6.466455460E-1
3.718061390E1,-3.297551870E-1,8.119000793E-1,-5.224018097E-1
3.720067312E1,-4.192678928E-1,1.036606193E0,-8.565931320E-1
3.722073448E1,-6.099872589E-1,1.251561999E0,-1.010157585E0
3.724079385E1,-6.515194774E-1,1.342331409E0,-3.194446564E-1
3.726085323E1,-6.026626825E-1,1.310559034E0,3.396072388E-1
3.728091068E1,-5.585840344E-1,1.158038378E0,8.341417313E-1
3.730097078E1,-2.517541051E-1,7.554996014E-1,1.348759651E0
3.732103172E1,3.132219911E-1,3.012435436E-1,2.452712059E0
3.734109109E1,8.202741146E-1,1.795939207E-1,2.811033249E0
3.736115047E1,5.743801594E-1,2.466917038E-1,2.232378006E0
3.738120864E1,5.497727990E-1,5.827618837E-1,1.966290474E0
3.740126776E1,5.342979431E-1,5.430113077E-1,1.663823128E0
3.742132896E1,7.054278255E-1,2.634352446E-1,1.635078430E0
3.744138833E1,5.840000510E-1,-4.861338139E-1,1.774318695E0
3.746144771E1,1.077307463E0,-1.649754405E0,2.741877556E0
3.748150708E1,1.926497698E0,-2.517224312E0,3.238328934E0
3.750156646E1,2.309164524E0,-2.466585398E0,1.393403053E0
3.752162583E1,1.798727036E0,-1.904337168E0,-1.289343834E0
3.754168521E1,1.431132793E0,-1.446279645E0,-2.859312534E0
3.756174458E1,1.084362030E0,-1.323207021E0,-3.203599930E0
3.758180396E1,2.774953246E-1,-1.634446263E0,-2.637961388E0
3.760186333E1,-5.183770657E-1,-1.728861690E0,-1.446737289E0
3.762192271E1,-5.762112737E-1,-1.943846464E0,-4.959535599E-1
3.764198208E1,1.141378284E-1,-1.893491507E0,-7.140197754E-1
3.766204146E1,8.082990646E-1,-1.563644767E0,-1.687223434E0
3.768210083E1,8.430215120E-1,-9.732741117E-1,-2.263200760E0
3.770216021E1,-6.017584801E-1,5.847799778E-2,-1.784046650E0
3.772221958E1,-3.460937738E0,1.302220821E0,-1.743137836E0
3.774227896E1,-4.797286034E0,2.323201656E0,-2.651484966E0
3.776233833E1,-3.182137251E0,2.007660866E0,-3.015648365E0
3.778239771E1,-6.391227245E-1,7.821269035E-1,-1.839349747E0
3.780245745E1,9.311212301E-1,-6.725525856E-2,-2.501602173E-1
3.782251734E1,1.351398468E0,-6.531201601E-1,9.638595581E-1
3.784257724E1,1.805457115E0,-1.057624340E0,2.445762634E0
3.786263666E1,1.797004938E0,-1.311874866E0,3.112979889E0
3.788269239E1,1.727445126E0,-1.542916298E0,3.059592247E0
3.790275396E1,1.383004546E0,-1.712244391E0,2.969168663E0
3.792281500E1,1.351280689E0,-1.700985551E0,2.890284538E0
3.794287437E1,1.312824965E0,-1.582889795E0,1.990739822E0
3.796293375E1,9.212177992E-1,-1.172135949E0,1.599328041E0
3.798299312E1,6.128509045E-1,-9.590212703E-1,1.644693375E0
3.800305250E1,2.437231541E-1,-1.103914022E0,2.466291428E0
3.802311187E1,-2.107405663E-1,-1.413645267E0,3.210239410E0
3.804317125E1,-2.005555630E-1,-1.944593191E0,3.616439819E0
3.806323062E1,6.579054594E-1,-2.115033865E0,3.327615738E0
3.808329000E1,1.143624663E0,-1.877819061E0,1.685376167E0
3.810334937E1,2.438374758E-1,-1.166025996E0,-4.944820404E-1
3.812340875E1,-6.715184450E-1,-5.448442698E-1,-2.719741344E0
3.814346812E1,-1.073958397E0,-2.266987562E-1,-4.440021515E0
3.816352750E1,-6.949894428E-1,-4.059873819E-1,-4.673518658E0
3.818358687E1,-5.608081818E-3,-6.784379482E-1,-3.864226341E0
3.820364625E1,6.582102776E-1,-9.101501107E-1,-2.766651154E0
3.822370562E1,7.460211515E-1,-5.648653507E-1,-1.666424751E0
3.824376500E1,3.456130028E-1,-3.398207128E-1,-1.019420624E0
3.826382437E1,-2.827706337E-1,-6.390005350E-2,-1.112209320E0
3.828388375E1,-2.191389799E-1,-7.267296314E-3,-9.481267929E-1
3.830394312E1,3.513907194E-1,2.333402634E-2,-5.213556290E-1
3.832400250E1,5.427073240E-1,2.699621916E-1,-1.961708069E-2
3.834406213E1,-9.245717525E-2,8.185366988E-1,-7.808685303E-2
3.836412203E1,-7.437901497E-1,1.275352597E0,-7.036409378E-1
3.838418192E1,-9.777374268E-1,1.567645192E0,-1.107078552E0
3.840424140E1,-9.734266996E-1,1.728681326E0,-1.480368614E0
3.842430078E1,-4.928659201E-1,1.817807674E0,-1.424989700E0
3.844436015E1,2.274430990E-1,1.625066042E0,-7.285346985E-1
3.846441953E1,5.290403962E-1,9.741175175E-1,6.992750168E-1
3.848447807E1,7.939828634E-1,4.735006094E-1,2.391760826E0
3.850453771E1,1.228672862E0,-1.287316084E-1,3.923807144E0
3.852459802E1,1.132540107E0,-2.494904995E-1,4.054362297E0
3.854465739E1,1.266731620E0,-3.973869085E-1,4.486059189E0
3.856471677E1,1.798672199E0,-3.906636238E-1,5.030865669E0
3.858477349E1,1.860049129E0,-2.863721848E-1,4.935770988E0
3.860483505E1,6.432001591E-1,-4.968964458E-1,4.994065285E0
3.862489510E1,7.252931595E-2,-1.237433434E0,5.615531921E0
3.864495448E1,6.586127877E-1,-2.061477184E0,5.551061630E0
3.866501385E1,1.428101659E0,-2.153886318E0,2.649024963E0
3.868507213E1,1.703088284E0,-1.858893514E0,-1.015143394E0
3.870513198E1,1.858994722E0,-1.584699154E0,-2.917245865E0
3.872519219E1,1.886999488E0,-1.603181124E0,-2.981666088E0
3.874525156E1,1.765868187E0,-1.950761676E0,-2.350355625E0
3.876531094E1,1.381847858E0,-2.302472591E0,-1.764308453E0
3.878537031E1,1.148383021E0,-2.487588167E0,-1.706535816E0
3.880542968E1,1.132852793E0,-2.510135651E0,-2.241535664E0
3.882548906E1,1.156189919E0,-2.440582991E0,-3.013964176E0
3.884554844E1,1.364423990E0,-2.396530151E0,-3.272853851E0
3.886560781E1,1.588872552E0,-2.365785122E0,-3.220649242E0
3.888566531E1,1.799414396E0,-2.267888069E0,-2.607182503E0
3.890572578E1,2.058550119E0,-2.144917011E0,-2.658593178E0
3.892578635E1,1.813676238E0,-1.658440948E0,-3.159459114E0
3.894584573E1,1.166178703E0,-1.222691298E0,-3.011258125E0
3.896590510E1,8.795787692E-1,-9.579383135E-1,-2.062899590E0
3.898596448E1,7.149502039E-1,-6.382477283E-1,-1.035469055E0
3.900602385E1,2.294453382E-1,-2.903743982E-1,-3.907680511E-2
3.902608323E1,-1.204527020E0,-3.326632977E-1,8.965959549E-1
3.904614260E1,-2.439361334E0,-5.860629082E-1,2.742745399E0
3.906620198E1,-2.962528229E0,-6.810566187E-1,4.522842407E0
3.908626135E1,-2.691906691E0,-1.082280278E0,4.433202744E0
3.910632073E1,-2.051556110E0,-7.531207800E-1,3.223126411E0
3.912638010E1,-1.941851377E0,-1.529069543E-1,2.779109955E0
3.914643948E1,-2.900600195E0,4.344654679E-1,2.502855301E0
3.916649885E1,-4.041679382E0,-3.222447634E-2,2.283402443E0
3.918655823E1,-2.909687042E0,-9.224893451E-1,3.387002945E0
3.920661760E1,-6.234810352E-1,-1.627696157E0,4.350647926E0
3.922667698E1,3.293209076E-1,-1.725265741E0,3.269320488E0
3.924673635E1,-9.602141380E-1,-1.023665428E0,5.549936295E-1
3.926679573E1,-1.876630068E0,-2.689849138E-1,-2.062172413E0
3.928685510E1,-1.852542162E0,2.755092382E-1,-3.714192390E0
3.930691448E1,-9.065687656E-1,5.553615093E-2,-4.906476974E0
3.932697385E1,3.880407810E-1,-1.711545587E-1,-5.064053535E0
3.934703323E1,1.513269901E0,-2.057642341E-1,-4.157690048E0
3.936709260E1,1.835998058E0,-4.983890057E-2,-2.913218021E0
3.938715088E1,1.621065140E0,-5.876266956E-2,-2.097954750E0
3.940721099E1,1.603268266E0,-4.961918890E-1,-1.358504295E0
3.942727140E1,1.654219389E0,-8.568361402E-1,-5.468654633E-1
3.944733078E1,1.699016571E0,-9.296094179E-1,5.020132065E-1
3.946739015E1,1.702144980E0,-7.023173571E-1,9.481735229E-1
3.948744953E1,1.313635468E0,1.444089413E-2,5.079040527E-1
3.950750890E1,5.607933998E-1,8.347865939E-1,-2.989196777E-1
3.952756828E1,6.231033802E-2,1.487864733E0,-1.111128807E0
3.954762765E1,-2.961349487E-2,1.880863428E0,-1.140039444E0
3.956768703E1,2.327203751E-1,1.948095322E0,-7.778139114E-1
3.958774172E1,2.748138309E-1,1.525194764E0,5.303573608E-2
3.960780510E1,1.654950976E-1,1.060375452E0,2.049442291E0
3.962786526E1,3.464591503E-2,6.787905693E-1,3.274093628E0
3.964792463E1,-4.508652687E-1,3.788522482E-1,3.974134445E0
3.966798401E1,-3.605349064E-1,4.329144955E-2,5.151225090E0
3.968804094E1,6.930286288E-1,-4.560157061E-1,6.259552002E0
3.970810218E1,1.225940704E0,-5.711312294E-1,6.033322334E0
3.972816218E1,6.649438143E-1,-1.048106194E0,4.895511627E0
3.974822156E1,2.253424227E-1,-2.107596874E0,4.868053436E0
3.976828094E1,3.653511703E-1,-2.743065596E0,4.380793571E0
3.978833880E1,2.407878488E-1,-2.478381634E0,1.443841934E0
3.980839922E1,2.632005215E-1,-1.964746714E0,-2.848930836E0
3.982845906E1,6.191182137E-1,-1.556954622E0,-5.749652386E0
3.984851844E1,9.982744455E-1,-1.564064503E0,-6.378594398E0
3.986857781E1,7.596960068E-1,-2.002475262E0,-5.182432175E0
3.988863390E1,2.369552255E-1,-2.422173023E0,-3.393718243E0
3.990869599E1,-2.396377921E-1,-2.812913418E0,-1.399995804E0
3.992875594E1,-6.823805571E-1,-2.738287449E0,-6.750774384E-2
3.994881531E1,-6.798278093E-1,-2.165835142E0,5.508232117E-2
3.996887468E1,-5.476751328E-1,-1.630640745E0,-1.388308525E0
3.998892901E1,-5.400488377E-1,-1.092865825E0,-2.784608364E0
4.000899344E1,-4.201679230E-1,-4.964629412E-1,-3.646795273E0
4.002905250E1,-4.054548740E-1,-3.101933002E-2,-3.806151867E0
4.004911135E1,-7.172487378E-1,4.288290739E-1,-3.589159489E0
4.006917026E1,-1.142099857E0,7.381137609E-1,-2.795920849E0
4.008923088E1,-1.535979390E0,9.906681776E-1,-1.421107292E0
4.010929026E1,-1.414144754E0,1.225655556E0,1.724252701E-1
4.012934937E1,-9.834611416E-1,1.271433353E0,1.179793358E0
4.014940823E1,-1.077148795E0,1.221926928E0,1.623580933E0
4.016946708E1,-1.078358054E0,8.173373342E-1,2.284605026E0
4.018952646E1,-7.701349258E-1,5.141476989E-1,3.264102936E0
4.020958583E1,-1.241130710E0,3.859438300E-1,3.790989876E0
4.022964521E1,-1.685495973E0,3.999617696E-1,4.641391754E0
4.024970458E1,-1.813174129E0,5.034500360E-1,5.108323097E0
4.026976396E1,-2.091331959E0,3.231018186E-1,4.602793694E0
4.028982448E1,-2.187822819E0,-7.983995676E-1,4.336285591E0
4.030988354E1,-1.677909255E0,-2.249709368E0,4.830298424E0
4.032994239E1,-7.968140841E-1,-3.016712904E0,4.975262642E0
4.035000125E1,-8.013316393E-1,-2.867583513E0,1.409832954E0
4.037006062E1,-8.523626328E-1,-2.365840197E0,-3.323475361E0
4.039012000E1,-5.180426836E-1,-1.899959326E0,-6.893816948E0
4.041017937E1,1.575207710E-2,-1.522318363E0,-8.069118500E0
4.043023875E1,-5.919981003E-2,-1.479993820E0,-7.499829292E0
4.045029812E1,1.400821209E-1,-1.411863327E0,-5.911756516E0
4.047035750E1,1.034893274E0,-1.251728535E0,-3.550593376E0
4.049041760E1,1.671815395E0,-6.219123006E-1,-1.984176159E0
4.051047646E1,1.491770148E0,-2.414584160E-4,-1.732450485E0
4.053053541E1,1.015078545E0,6.118530035E-1,-1.664089203E0
4.055059479E1,6.707964540E-1,1.069986463E0,-1.233484268E0
4.057065416E1,4.099333882E-1,1.234102488E0,-2.507686615E-2
4.059071448E1,6.007755399E-1,1.527667046E0,1.818612099E0
4.061077333E1,9.366357327E-2,1.916843891E0,2.800194740E0
4.063083218E1,-5.591782331E-1,2.133594275E0,3.135401726E0
4.065089151E1,-7.831259966E-1,2.073947191E0,3.210196495E0
4.067095088E1,-2.394282818E-2,1.839437962E0,2.640043259E0
4.069101130E1,4.036645889E-1,1.637445807E0,1.340574265E0
4.071107015E1,1.506145000E-1,1.438044786E0,3.337860107E-1
4.073112901E1,1.156197786E-1,1.204668283E0,8.630390167E-1
4.075118823E1,7.977822423E-1,7.534957528E-1,1.743285179E0
4.077124786E1,8.813732862E-1,8.455020189E-2,2.301551819E0
4.079130812E1,1.266702414E0,6.148988008E-2,3.715211868E0
4.081136729E1,1.641588688E0,4.702800512E-2,4.727619171E0
4.083142614E1,1.343967557E0,-4.093284309E-1,4.121564865E0
