"Time (s)","Acceleration x (m/s^2)","Acceleration y (m/s^2)","Acceleration z (m/s^2)"
0.000000000E0,-1.311524510E-1,4.087883949E0,9.185461998E0
2.202880300E-2,1.275592297E-1,4.226821899E0,9.286072731E0
4.242880300E-2,-2.575139515E-2,4.226821899E0,9.310027122E0
6.282880300E-2,-1.551072299E-1,4.159748554E0,9.262117386E0
8.322880300E-2,3.174009174E-2,4.140584469E0,9.310027122E0
1.036288030E-1,3.766889870E-1,4.135793686E0,9.262117386E0
1.240288030E-1,4.150166512E-1,4.164539337E0,9.405846596E0
1.444288030E-1,4.389714301E-1,4.159748554E0,9.487293243E0
1.647827610E-1,2.617060244E-1,4.245985508E0,9.099225044E0
1.848796360E-1,1.083954051E-1,4.269940376E0,8.715949059E0
2.049765110E-1,1.658868939E-1,4.250776768E0,8.610548019E0
2.250733860E-1,9.881348908E-2,4.231612682E0,8.854886055E0
2.451702610E-1,6.527678668E-2,4.092675209E0,9.137553215E0
2.652671360E-1,-6.887000799E-2,4.083093166E0,9.027360916E0
2.853640110E-1,-6.407905370E-2,4.135793686E0,8.749485016E0
3.054608860E-1,-5.928809568E-2,4.231612682E0,8.744694710E0
3.255580210E-1,-6.887000799E-2,4.222031116E0,8.806977272E0
3.456554170E-1,1.467230618E-1,4.164539337E0,8.874050140E0
3.657528130E-1,2.090055048E-1,4.174121380E0,8.989033699E0
3.858502090E-1,1.850507110E-1,4.226821899E0,9.056106567E0
4.059471880E-1,2.760789096E-1,4.202867031E0,9.080060959E0
4.260440630E-1,2.952427268E-1,4.245985508E0,8.917168617E0
4.461409380E-1,2.569150627E-1,4.274731636E0,8.835722923E0
4.662378130E-1,3.048246503E-1,4.308268070E0,8.840513229E0
4.863346880E-1,4.389714301E-1,4.499906540E0,8.821350098E0
5.064315630E-1,5.491634607E-1,4.523861408E0,8.792604446E0
5.265284380E-1,5.922820568E-1,4.523861408E0,8.888422966E0
5.466257820E-1,5.108358264E-1,4.423251152E0,8.830931664E0
5.667231780E-1,3.671070933E-1,4.341804981E0,8.706366539E0
5.868205730E-1,7.551746368E-1,4.274731636E0,8.303926468E0
6.069179690E-1,8.270389438E-1,4.341804981E0,8.021260262E0
6.270148960E-1,6.976830959E-1,4.236403942E0,7.681101799E0
6.471117710E-1,8.174570799E-1,3.934573412E0,7.906276703E0
6.672086460E-1,1.061795831E0,3.637534142E0,7.705056667E0
6.873055210E-1,1.545682549E0,3.388404369E0,8.011677742E0
7.074023960E-1,2.681139469E0,3.321331024E0,7.834412575E0
7.274992710E-1,3.749522686E0,1.922371507E0,5.764719009E0
7.475966670E-1,2.470337152E0,2.238574743E0,6.104876995E0
7.676940630E-1,1.584010243E0,1.721151352E0,7.154096603E0
7.877914590E-1,1.373208046E0,8.300333023E-1,8.169779778E0
8.078888550E-1,1.952913880E0,-3.054235280E-1,9.530411720E0
8.279859380E-1,3.035670280E0,-1.268405914E0,1.236186695E1
8.480828130E-1,3.720777035E0,-1.412134647E0,1.575865555E1
8.681796880E-1,1.526518703E0,5.138301253E-1,1.708575058E1
8.882765630E-1,2.010405302E0,-1.856495887E-1,1.449863434E1
9.083734380E-1,2.987760544E0,-1.963094711E0,1.265411568E1
9.284704170E-1,4.492121220E0,-2.724856853E0,1.076168728E1
9.485678130E-1,4.813115120E0,-4.181307793E0,9.506456375E0
9.686652090E-1,7.050492287E0,-5.589848995E0,9.458546638E0
9.887626050E-1,4.449002743E0,-3.673466444E0,8.835722923E0
1.008860000E0,1.411535740E0,-2.811094046E0,9.257327080E0
1.028957032E0,-1.137852296E-2,-2.178687811E0,9.333982468E0
1.049053907E0,-3.802822232E-1,-2.633828640E0,8.792604446E0
1.069150782E0,-7.108582854E-1,-2.657783508E0,8.026050568E0
1.089247657E0,-1.597185373E0,-6.216266751E-1,6.124041080E0
1.109344532E0,-1.395965099E0,-8.420107365E-1,6.478571892E0
1.129441875E0,-2.517049074E0,-4.922708273E-1,5.745555401E0
1.149539271E0,2.762585640E0,1.476812482E0,8.160197258E0
1.169636667E0,2.853613853E0,-3.712991625E-2,1.035445595E1
1.189734063E0,-1.051016212E0,-2.575139403E-1,9.769959450E0
1.209831459E0,-2.679941654E0,-1.594190955E0,1.039278412E1
1.229928542E0,-4.970617965E-2,-8.563835621E-1,1.175341511E1
1.250025417E0,5.156267285E-1,-1.033648968E0,1.281221676E1
1.270122292E0,1.574428320E0,-9.042931795E-1,1.394767380E1
1.290219167E0,1.430699587E0,-1.158213854E0,1.221334743E1
1.310316198E0,7.485870272E-2,-1.177377701E0,1.045027542E1
1.330413594E0,7.785305381E-3,-7.461915612E-1,1.116412735E1
1.350510990E0,2.233783752E-1,-4.683160484E-1,1.133181095E1
1.370608386E0,1.563049704E-1,-4.778979719E-1,1.000471592E1
1.390705782E0,2.137964666E-1,-3.437511623E-1,9.669348717E0
1.410803178E0,1.131863594E-1,-2.766777575E-1,9.894524574E0
1.430900417E0,1.563049704E-1,-9.462140501E-2,9.573530197E0
1.450997292E0,6.306097507E-1,3.988471627E-1,8.931541443E0
1.471094167E0,1.028259158E0,8.731519580E-1,8.902795792E0
1.491191042E0,1.066586852E0,9.689710736E-1,9.472919464E0
1.511288073E0,1.732529879E0,1.448066831E0,9.051315308E0
1.531385469E0,1.013886333E0,1.280383229E0,8.759067535E0
1.551482865E0,7.743384242E-1,1.357038617E0,9.214208603E0
1.571580261E0,6.210278273E-1,1.457648635E0,9.266908646E0
1.591677657E0,9.132761955E-1,1.625332236E0,9.290863991E0
1.611775053E0,1.416326642E0,1.812179565E0,9.942433357E0
1.631872448E0,1.397162914E0,1.764269948E0,1.009095383E1
1.651969480E0,1.258225083E0,1.903207660E0,9.530411720E0
1.672066355E0,1.286970854E0,2.128382683E0,8.749485016E0
1.692163230E0,1.291761756E0,2.243365765E0,8.438073158E0
1.712260105E0,1.459445357E0,2.320020914E0,8.878841400E0
1.732357500E0,1.469027162E0,1.979863048E0,9.353145599E0
1.752454896E0,1.425908566E0,1.610959291E0,9.659767151E0
1.772552292E0,1.425908566E0,1.467230558E0,9.228581429E0
1.792649688E0,1.646292686E0,1.491185427E0,8.969869614E0
1.812747084E0,1.972077727E0,1.131863594E0,9.516038895E0
1.832844480E0,2.053524017E0,9.977167845E-1,9.640603065E0
1.852941875E0,1.560055375E0,1.002507806E0,9.362728119E0
1.873039219E0,1.387580991E0,9.929258823E-1,9.453756332E0
1.893136094E0,2.585320234E0,1.012089729E0,1.003825283E1
1.913232969E0,1.555264473E0,9.402253032E-1,1.035924721E1
1.933329844E0,2.609275103E0,9.354343414E-1,9.870569229E0
1.953427084E0,3.141071320E0,6.479769349E-1,9.813077927E0
1.973524480E0,3.093161583E0,3.461466432E-1,1.017239952E1
1.993621875E0,2.700303078E0,2.263727188E-1,1.090541649E1
2.013719271E0,2.446382523E0,2.599094212E-1,1.145158482E1
2.033816667E0,2.537410736E0,3.940562308E-1,1.148033047E1
2.053914063E0,2.743421793E0,8.012875915E-1,1.068982315E1
2.074011459E0,2.824867964E0,1.131863594E0,9.760376930E0
2.094108855E0,2.781749487E0,1.414530039E0,9.525620461E0
2.114206250E0,2.594902039E0,1.481603503E0,9.444173813E0
2.134303594E0,2.273907900E0,1.630123138E0,8.768649101E0
2.154400469E0,2.230789423E0,1.965490103E0,8.045214653E0
2.174497344E0,2.125388384E0,2.181083202E0,7.676311016E0
2.194594219E0,2.091851711E0,2.238574743E0,7.920650005E0
2.214691615E0,2.058315039E0,2.233783722E0,8.668039322E0
2.234789011E0,2.187670708E0,2.003817797E0,9.295654297E0
2.254886407E0,2.082269669E0,1.927162528E0,9.118389130E0
2.274983803E0,1.852303743E0,1.917580605E0,9.329191208E0
2.295081198E0,1.521727800E0,1.749897122E0,9.928060532E0
2.315178594E0,1.655874491E0,1.682823658E0,1.043111134E1
2.335275990E0,1.981659651E0,1.745106101E0,1.029217339E1
2.355373386E0,2.288280964E0,1.826552391E0,1.008616257E1
2.375470782E0,2.192461729E0,1.735524178E0,1.046464825E1
2.395568178E0,2.269117117E0,1.721151352E0,1.169113350E1
2.415665573E0,2.053524017E0,1.874462008E0,1.248164082E1
2.435762969E0,1.828348994E0,1.979863048E0,1.246726799E1
2.455859948E0,1.722947955E0,2.037354469E0,1.219418335E1
2.475956823E0,1.631919742E0,1.625332236E0,1.214148331E1
2.496053698E0,1.507354856E0,8.491971493E-1,1.294636345E1
2.516150990E0,1.291761756E0,3.269828260E-1,1.357876968E1
2.536248386E0,9.851405621E-1,7.306209207E-2,1.218460178E1
2.556345782E0,7.839203477E-1,5.042482615E-1,8.993824005E0
2.576443178E0,1.013886333E0,1.112699747E0,6.215069294E0
2.596540573E0,1.761275649E0,1.539094925E0,5.692854881E0
2.616637969E0,2.455964327E0,1.582213521E0,7.010367870E0
2.636735365E0,2.211625576E0,1.347456694E0,7.800875664E0
2.656832761E0,1.478609085E0,1.242055655E0,8.246435165E0
2.676930157E0,1.310925603E0,1.031253457E0,8.485982895E0
2.697027553E0,1.234270334E0,1.266010404E0,8.361417770E0
2.717124948E0,1.430699587E0,1.280383229E0,8.725530624E0
2.737222344E0,1.124078274E0,1.251637578E0,8.945914268E0
2.757319740E0,4.820900559E-1,1.807388544E0,8.227271080E0
2.777417136E0,9.755586386E-1,2.142755508E0,8.050005913E0
2.797514532E0,1.397162914E0,2.339184761E0,7.786502838E0
2.817611928E0,1.996032476E0,2.435003996E0,8.399745941E0
2.837709323E0,2.331399441E0,2.717670441E0,8.351836205E0
2.857806719E0,2.551783562E0,3.053037405E0,8.040423393E0
2.877904115E0,2.499083042E0,3.268630505E0,7.192424297E0
2.898001511E0,1.986450553E0,3.302167177E0,6.694164753E0
2.918098907E0,2.302653790E0,3.191975117E0,7.661938190E0
2.938196094E0,2.422427654E0,2.875771999E0,8.040423393E0
2.958292969E0,2.666766405E0,2.641015053E0,8.806977272E0
2.978389844E0,2.901523352E0,2.104427814E0,7.297825336E0
2.998487136E0,2.810495138E0,1.491185427E0,8.145824432E0
3.018584532E0,3.021297216E0,-6.108470261E-2,1.135097504E1
3.038681928E0,3.730359077E0,-8.851293325E-1,1.355481529E1
3.058779323E0,4.678968430E0,-1.119886160E0,1.478130054E1
3.078876719E0,4.530448914E0,-1.306733489E0,1.500168419E1
3.098974115E0,3.529138803E0,-1.158213854E0,1.511666775E1
3.119071511E0,3.533929825E0,-1.383388877E0,1.300385571E1
3.139168907E0,3.787850380E0,-1.575027108E0,1.160968685E1
3.159266303E0,4.118426323E0,-1.388179779E0,9.702885628E0
3.179363698E0,4.099262714E0,-1.000112295E0,8.610548019E0
3.199461094E0,3.778268576E0,-7.270277143E-1,8.878841400E0
3.219558490E0,3.347082376E0,-4.874798954E-1,9.252535820E0
3.239655886E0,2.791331291E0,-8.024853468E-2,9.084852219E0
3.259753282E0,2.623647928E0,4.563386738E-1,8.294344902E0
3.279850678E0,2.465546370E0,8.827338219E-1,7.187633514E0
3.299948073E0,2.206834555E0,1.136654615E0,6.483362675E0
3.320045469E0,1.861885667E0,1.179773211E0,6.109668255E0
3.340142865E0,1.545682549E0,1.347456694E0,5.213758945E0
3.360240261E0,1.837930918E0,1.840925217E0,3.536924124E0
3.380337657E0,2.800913334E0,2.042145491E0,2.631433249E0
3.400435053E0,2.796122313E0,1.131863594E0,3.359658718E0
3.420532448E0,2.408054829E0,4.850844145E-1,5.280832291E0
3.440629844E0,2.738630772E0,-2.479320318E-1,7.657146931E0
3.460727240E0,2.954223871E0,-8.707564473E-1,9.832242012E0
3.480824636E0,3.634539843E0,-1.316315413E0,1.215585613E1
3.500922032E0,3.955533981E0,-1.402552724E0,1.335359478E1
3.521019428E0,4.506494045E0,-1.627727628E0,1.245289516E1
3.541116823E0,4.003443718E0,-1.742710590E0,1.181090736E1
3.561214219E0,3.682449341E0,-2.758393526E0,1.145158482E1
3.581311615E0,3.208144665E0,-2.427817583E0,1.288887215E1
3.601409011E0,3.423737764E0,-2.624246836E0,1.479088211E1
3.621506407E0,3.792641401E0,-2.034959078E0,1.579698372E1
3.641603803E0,3.260845184E0,-1.876857400E0,1.653958130E1
3.661701198E0,2.254744291E0,-1.948721766E0,1.834098053E1
3.681798594E0,1.881049514E0,-1.919975996E0,2.033880997E1
3.701895990E0,1.770857453E0,-2.432608366E0,2.087539864E1
3.721993386E0,1.967286706E0,-2.724856853E0,1.807268715E1
3.742090782E0,2.053524017E0,-2.423026562E0,1.267807007E1
3.762188178E0,2.077478647E0,-1.148631930E0,8.002096176E0
3.782285573E0,1.957704782E0,-2.958416045E-1,6.416289330E0
3.802382969E0,2.384099960E0,7.785305381E-2,6.722910404E0
3.822476980E0,2.700303078E0,-3.233896196E-2,7.417599201E0
3.842565834E0,3.481229305E0,4.431635141E-2,7.149305820E0
3.862676094E0,3.874087572E0,1.688812375E-1,6.147995472E0
3.882773490E0,3.672867537E0,-1.089942753E-1,4.902346611E0
3.902870886E0,3.385410070E0,1.353445351E-1,3.062619209E0
3.922968282E0,2.935060024E0,-4.192087427E-2,1.227682710E0
3.943065678E0,3.117116451E0,6.288130879E-1,-4.671183228E-2
3.963163073E0,5.177227974E0,1.337874770E0,-1.814574957E0
3.983259375E0,6.154583454E0,2.051727295E0,-2.058913708E0
4.003355261E0,6.259984493E0,2.837444305E0,1.826552391E0
4.023455521E0,7.438559532E0,3.067410231E0,6.210278034E0
4.043552917E0,7.764344692E0,3.268630505E0,9.190253258E0
4.063650313E0,7.294830799E0,3.263839483E0,9.405846596E0
4.083747709E0,6.293520927E0,3.196766138E0,8.241643906E0
4.103845105E0,5.689860344E0,3.168020487E0,6.813938618E0
4.123942500E0,5.948572159E0,3.651906967E0,6.200695992E0
4.144039896E0,6.954673290E0,3.680652857E0,6.622300625E0
4.164137292E0,7.170266151E0,2.933263540E0,5.822210789E0
4.184234688E0,6.465995312E0,2.938054323E0,4.720290661E0
4.204332084E0,6.437249660E0,3.110528946E0,4.538234234E0
4.224429480E0,6.777407646E0,2.645806074E0,5.874911308E0
4.244526875E0,6.964254856E0,1.922371507E0,8.347044945E0
4.264624271E0,7.064865112E0,1.074372172E0,9.065688133E0
4.284721667E0,5.728188038E0,4.371748269E-1,7.891903877E0
4.304819063E0,4.056144238E0,3.509376049E-1,6.497735500E0
4.324916459E0,4.080098629E0,9.977167845E-1,4.772991180E0
4.345013855E0,5.886289597E0,2.329602957E0,4.533442974E0
4.365111250E0,8.746491432E0,2.281693220E0,7.882322311E0
4.385208646E0,8.808773041E0,1.869670987E0,1.160010529E1
4.405306042E0,6.283938885E0,2.051727295E0,1.315237522E1
4.425403438E0,3.696822166E0,2.353557587E0,1.141325760E1
4.445500834E0,2.776958466E0,2.914099693E0,9.578320503E0
4.465598230E0,2.570947409E0,3.100946903E0,8.514728546E0
4.485695625E0,1.646292686E0,3.168020487E0,8.208106995E0
4.505793021E0,6.881012321E-1,2.995545864E0,9.305236816E0
4.525890417E0,5.827001333E-1,2.708088398E0,1.069461441E1
4.545987813E0,1.004304409E0,2.367930651E0,1.179174328E1
4.566085678E0,1.440281510E0,1.907998681E0,1.292240906E1
4.586183594E0,1.507354856E0,1.390575290E0,1.434053230E1
4.606281459E0,1.358835220E0,1.107908845E0,1.386622715E1
4.626378855E0,2.106224537E0,1.059999228E0,1.275472546E1
4.646476250E0,3.601003170E0,1.093535900E0,1.239540386E1
4.666573646E0,4.281319141E0,9.210615158E-1,1.230916691E1
4.686671042E0,4.736459732E0,8.779428601E-1,1.221334743E1
4.706768438E0,4.832279205E0,8.012875915E-1,1.200254536E1
4.726865834E0,4.032189369E0,1.261219501E0,1.091499805E1
4.746963230E0,3.490811110E0,1.850507140E0,9.669348717E0
4.767060625E0,2.877568483E0,1.783433795E0,9.357936859E0
4.787158021E0,2.460755348E0,1.457648635E0,1.119766426E1
4.807255417E0,2.312235594E0,5.569487810E-1,1.347336864E1
4.827352813E0,2.221207380E0,-1.808586270E-1,1.297510910E1
4.847450209E0,2.273907900E0,1.545083672E-1,9.496874809E0
4.867547605E0,2.772167444E0,1.088744998E0,6.909758091E0
4.887645000E0,3.591421127E0,1.318710923E0,7.408017159E0
4.907742396E0,4.142381191E0,1.591795444E0,8.227271080E0
4.927839792E0,4.300482750E0,1.596586466E0,8.878841400E0
4.947937188E0,3.414155722E0,1.424111962E0,9.060897827E0
4.968034584E0,2.408054829E0,1.237264633E0,8.763857841E0
4.988133282E0,2.115806341E0,1.179773211E0,8.141034126E0
5.008230678E0,2.542201519E0,1.400157213E0,7.800875664E0
5.028328073E0,2.820077181E0,1.543885946E0,7.484672546E0
5.048425469E0,2.556574583E0,1.797806621E0,6.488153458E0
5.068522865E0,1.871467590E0,1.931953430E0,5.482052803E0
5.088620261E0,2.039151192E0,2.190665245E0,4.672380924E0
5.108717657E0,2.585320234E0,2.535614014E0,4.571770668E0
5.128815053E0,2.666766405E0,2.698506594E0,4.864019394E0
5.148912448E0,2.585320234E0,2.679342747E0,5.846165180E0
5.169009844E0,2.427218676E0,2.492495537E0,5.755136967E0
5.189107240E0,2.853613853E0,2.554777861E0,5.405397415E0
5.209204636E0,4.367556095E0,2.621851206E0,5.597035408E0
5.229302032E0,6.207283974E0,2.976382017E0,6.349215984E0
5.249399428E0,6.863645077E0,2.698506594E0,6.718119621E0
5.269496823E0,6.993000507E0,2.669760942E0,6.229442120E0
5.289594219E0,7.352322578E0,2.703297615E0,5.879702091E0
5.309691615E0,8.085338593E0,1.802597642E0,7.398435593E0
5.329789480E0,7.515214920E0,4.132200480E-1,1.061316776E1
5.349887396E0,5.205973625E0,-6.839091182E-1,1.451300716E1
5.369985313E0,3.193771839E0,-9.042931795E-1,1.793375015E1
5.390082709E0,2.336190462E0,-6.359995604E-1,1.852303696E1
5.410180105E0,2.906314373E0,-3.629150093E-1,1.564367294E1
5.430277500E0,4.357974529E0,-2.575139403E-1,1.436927795E1
5.450374896E0,3.222517490E0,-2.191862911E-1,1.399558353E1
5.470472292E0,1.013886333E0,-1.473219246E-1,1.197859001E1
5.490567553E0,-1.742710620E-1,1.832541078E-1,9.808286667E0
5.510666823E0,-4.377737045E-1,1.161807105E-1,8.184152603E0
5.530765053E0,3.671070933E-1,3.174009025E-1,6.967249393E0
5.550862448E0,7.216379046E-1,5.473668575E-1,6.291724205E0
5.570959844E0,9.851405621E-1,5.425758958E-1,6.243814945E0
5.591057240E0,1.296552777E0,7.342141867E-1,6.483362675E0
5.611154636E0,1.943331957E0,7.485870719E-1,7.039113522E0
5.631252032E0,2.724257946E0,7.485870719E-1,7.978141308E0
5.651349428E0,3.773477554E0,1.021671653E0,8.720739365E0
5.671446823E0,3.840550900E0,9.929258823E-1,9.746004105E0
5.691544219E0,3.145862103E0,9.258524776E-1,1.078564167E1
5.711641615E0,2.767376661E0,1.059999228E0,1.110184574E1
5.731739011E0,3.270426989E0,1.495976329E0,1.091499805E1
5.751836407E0,5.253883362E0,1.927162528E0,1.116412735E1
5.771933803E0,5.646741867E0,2.363139629E0,1.142763042E1
5.792031198E0,4.372347355E0,2.751207113E0,1.110184574E1
5.812128594E0,3.246472359E0,3.000336885E0,1.021551800E1
5.832226355E0,3.198562622E0,2.827862501E0,9.827450752E0
5.852324271E0,3.596212149E0,1.769060850E0,1.037362003E1
5.872422188E0,4.755623817E0,4.084290862E-1,1.414410305E1
5.892519740E0,5.388030052E0,-5.114346743E-1,1.649167252E1
5.912617136E0,4.779578686E0,-9.186660051E-1,1.389497375E1
5.932714532E0,3.399782896E0,-7.845191956E-1,9.674139977E0
5.952811928E0,3.131489277E0,-3.868697882E-1,7.422390461E0
5.972909323E0,3.601003170E0,1.018078402E-1,6.799565792E0
5.993007188E0,4.060935020E0,5.138301253E-1,6.789983749E0
6.013104584E0,3.797432423E0,7.773327827E-1,7.192424297E0
6.033201980E0,2.743421793E0,6.431859732E-1,7.848785400E0
6.053299375E0,1.761275649E0,5.377849340E-1,8.572219849E0
6.073396771E0,1.507354856E0,6.240221858E-1,8.174570084E0
6.093494167E0,1.876258612E0,1.246846557E0,7.034322739E0
6.113591563E0,2.249953270E0,2.262529373E0,5.654527187E0
6.133688959E0,1.512145877E0,3.096156120E0,4.284313202E0
6.153786355E0,1.052213907E0,3.805217743E0,3.685443640E0
6.173883750E0,1.004304409E0,4.087883949E0,3.972901106E0
6.193981146E0,1.315716624E0,4.169330597E0,4.083093166E0
6.214078542E0,2.331399441E0,4.413669109E0,4.586143494E0
6.234175938E0,2.973387718E0,4.370550632E0,5.002956867E0
6.254273698E0,3.275218010E0,3.939364433E0,6.397125244E0
6.274371615E0,3.926788092E0,3.441104889E0,9.080060959E0
6.294469532E0,4.444211483E0,2.947636366E0,1.229479408E1
6.314567136E0,4.434629440E0,2.353557587E0,1.437885952E1
6.334664532E0,5.996481895E0,2.540405035E0,1.602215767E1
6.354761928E0,6.906763554E0,3.096156120E0,1.604132271E1
6.374859323E0,6.485159397E0,3.062619209E0,1.499689388E1
6.394956719E0,5.847961903E0,2.746416092E0,1.389018250E1
6.415054115E0,5.225137711E0,2.267320395E0,1.256308746E1
6.435151511E0,4.381928921E0,1.860089064E0,1.057004929E1
6.455248907E0,3.620167017E0,1.927162528E0,8.509937286E0
6.475347657E0,3.227308512E0,2.104427814E0,6.473780632E0
6.495442136E0,3.083579779E0,2.267320395E0,6.215069294E0
6.515542240E0,2.911105394E0,1.893625736E0,7.345735073E0
6.535639636E0,2.173297882E0,1.457648635E0,7.805666924E0
6.555737032E0,1.263016105E0,1.390575290E0,7.393644333E0
6.575834428E0,8.893213868E-1,1.400157213E0,6.583972931E0
6.595931823E0,1.033050179E0,1.706778407E0,6.004266739E0
6.616029219E0,1.272598028E0,2.046936512E0,5.510798454E0
6.636126615E0,1.526518703E0,2.099637032E0,5.266459465E0
6.656224011E0,1.900213361E0,2.037354469E0,5.870120049E0
6.676321407E0,2.379309177E0,2.080473185E0,6.492944717E0
6.696418803E0,3.524347782E0,2.272111416E0,7.915858746E0
6.716516198E0,4.578358173E0,2.214619875E0,1.025863647E1
6.736613594E0,4.544821739E0,2.123591661E0,1.184444332E1
6.756711459E0,3.634539843E0,2.506868362E0,1.255350494E1
6.776809375E0,3.136280298E0,3.148856640E0,1.181090736E1
6.796907292E0,3.759104729E0,4.154957294E0,1.058442211E1
6.817004844E0,5.119736671E0,4.614889622E0,1.052693081E1
6.837102240E0,5.594041348E0,4.576561928E0,1.149949455E1
6.857199636E0,5.301793098E0,4.624471188E0,1.238103104E1
6.877297032E0,3.960325003E0,4.720290661E0,1.339671421E1
6.897394428E0,3.835760117E0,4.514279366E0,1.368417072E1
6.917491823E0,4.798742294E0,3.948946476E0,1.366500759E1
6.937589219E0,4.875397682E0,2.214619875E0,1.304218292E1
6.957686615E0,3.361455202E0,1.021671653E0,1.062754059E1
6.977784428E0,1.938541055E0,6.383950114E-1,7.063068390E0
6.997882605E0,4.102256894E-1,8.635700345E-1,3.656697989E0
7.017980000E0,3.287794292E-1,1.735524178E0,2.133173704E0
7.038077396E0,1.584010243E0,2.157128334E0,2.736834288E0
7.058174792E0,3.040461063E0,2.056518316E0,4.006437778E0
7.078272188E0,3.701613188E0,1.821761489E0,5.529962063E0
7.098369584E0,4.338810444E0,1.467230558E0,7.134932995E0
7.118466980E0,4.530448914E0,1.141445518E0,8.577011108E0
7.138564375E0,4.008234501E0,1.213309884E0,9.051315308E0
7.158661771E0,3.840550900E0,1.371411443E0,9.209417343E0
7.178759271E0,3.634539843E0,1.548676848E0,9.185461998E0
7.198857188E0,3.308754683E0,2.008608818E0,8.653666496E0
7.218955105E0,3.246472359E0,2.578732729E0,7.949395657E0
7.239053021E0,3.313545704E0,2.861399174E0,7.408017159E0
7.259150521E0,3.193771839E0,3.105737925E0,7.733802319E0
7.279247917E0,2.714676142E0,3.067410231E0,9.104016304E0
7.299345313E0,2.326608419E0,3.129692793E0,1.043111134E1
7.319442709E0,2.106224537E0,3.469850779E0,1.097728062E1
7.339540105E0,2.091851711E0,3.747726202E0,1.089104366E1
7.359637500E0,2.858404875E0,3.819590569E0,1.153782272E1
7.379734896E0,7.088819981E0,4.298686028E0,1.324340343E1
7.399832292E0,3.648912668E0,4.289104462E0,1.341108704E1
7.419929688E0,5.282629013E0,4.025601864E0,1.217981052E1
7.440027448E0,4.712505341E0,3.067410231E0,1.292240906E1
7.460125365E0,3.998652458E0,1.831343293E0,1.309009266E1
7.480223021E0,3.212935686E0,8.923157454E-1,1.179653454E1
7.500318594E0,2.959014893E0,6.288130879E-1,9.329191208E0
7.520418594E0,2.484710217E0,8.875247836E-1,7.197215080E0
7.540515990E0,2.384099960E0,1.189355135E0,6.445034981E0
7.560613386E0,2.911105394E0,1.083954096E0,7.417599201E0
7.580710782E0,3.040461063E0,7.869147062E-1,8.495564461E0
7.600808178E0,2.077478647E0,8.587790728E-1,9.338772774E0
7.620905573E0,1.114496350E0,9.689710736E-1,8.811767578E0
7.641002969E0,7.168469429E-1,1.261219501E0,7.590073586E0
7.661100365E0,9.084852338E-1,1.534304023E0,6.416289330E0
7.681197761E0,1.478609085E0,1.793015718E0,5.697645664E0
7.701295417E0,1.689411283E0,1.941535354E0,5.400606155E0
7.721393334E0,2.269117117E0,2.296066284E0,5.376651764E0
7.741491250E0,2.604484081E0,2.660178900E0,5.740764141E0
7.761589115E0,2.867986679E0,2.669760942E0,6.722910404E0
7.781686511E0,2.844031811E0,2.823071480E0,8.351836205E0
7.801783907E0,3.141071320E0,2.684133768E0,1.048381138E1
7.821881303E0,3.256054163E0,2.521241188E0,1.277388954E1
7.841978698E0,2.781749487E0,2.928472519E0,1.402912045E1
7.862076094E0,2.556574583E0,3.522551298E0,1.333922195E1
7.882173490E0,2.992551565E0,4.011229038E0,1.246247673E1
7.902270886E0,3.141071320E0,4.394505501E0,1.246247673E1
7.922368282E0,2.930269241E0,4.887973785E0,1.255350494E1
7.942465990E0,3.548302650E0,5.620990276E0,1.194026279E1
7.962563907E0,4.707714081E0,5.865329266E0,1.177737045E1
7.982661250E0,5.397612095E0,3.886663914E0,1.383748150E1
8.002757344E0,4.592730999E0,1.788224697E0,1.463757133E1
8.022857240E0,2.360145330E0,6.240221858E-1,1.097248936E1
8.042940938E0,1.179773211E-1,6.575588584E-1,6.660628319E0
8.063046094E0,-3.563274443E-1,1.242055655E0,4.102256775E0
8.083149844E0,6.449825764E-1,1.649286985E0,4.533442974E0
8.103247240E0,1.660665512E0,1.385784388E0,6.104876995E0
8.123344636E0,1.469027162E0,1.294756174E0,7.053486347E0
8.143442032E0,1.171987891E0,1.333083868E0,7.216379166E0
8.163539428E0,9.659767151E-1,1.548676848E0,6.871430397E0
8.183636823E0,1.066586852E0,1.941535354E0,6.497735500E0
8.203734219E0,1.421117663E0,2.468540668E0,6.061758518E0
8.223831615E0,1.900213361E0,3.029082537E0,5.865329266E0
8.243929271E0,2.599693060E0,3.479432583E0,6.277351379E0
8.264027188E0,2.968596697E0,3.747726202E0,7.350525856E0
8.284125105E0,2.652393579E0,3.704607487E0,8.577011108E0
8.304223021E0,2.235580444E0,3.196766138E0,1.022510052E1
8.324320417E0,2.221207380E0,3.153647423E0,1.102519035E1
8.344417813E0,2.441591501E0,3.244675636E0,1.095811653E1
8.364515209E0,2.575738192E0,3.354867697E0,1.032571030E1
8.384612605E0,2.772167444E0,3.335703850E0,1.000471592E1
8.404710000E0,3.270426989E0,3.484223604E0,1.043590260E1
8.424807396E0,3.845341921E0,3.532133102E0,1.150428581E1
8.444904792E0,4.357974529E0,3.580042601E0,1.213190079E1
8.465002344E0,5.009544373E0,3.599206448E0,1.235228539E1
8.485100261E0,5.392820835E0,2.981173038E0,1.270202541E1
8.505181928E0,4.698132515E0,2.104427814E0,1.361709785E1
8.525296198E0,3.256054163E0,1.376202464E0,1.275951672E1
8.545393594E0,2.604484081E0,1.237264633E0,1.026821899E1
8.565490990E0,3.371037245E0,1.256428480E0,8.691993713E0
8.585588386E0,4.717296124E0,1.275592327E0,9.046525002E0
8.605685782E0,4.568776608E0,1.131863594E0,9.353145599E0
8.625783178E0,3.016506433E0,1.012089729E0,9.286072731E0
8.645880573E0,1.320507526E0,9.737620354E-1,8.399745941E0
8.665977969E0,5.874910951E-1,1.203727961E0,7.202006340E0
8.686075678E0,6.162368655E-1,1.577422619E0,5.994685173E0
8.706173594E0,1.143242121E0,1.989444971E0,5.079612255E0
8.726271511E0,1.421117663E0,2.305648088E0,4.538234234E0
8.746369428E0,1.651083589E0,2.703297615E0,4.083093166E0
8.766466875E0,1.981659651E0,3.144065619E0,3.972901106E0
8.786564271E0,2.154134035E0,3.172811270E0,4.840064526E0
8.806661667E0,2.321817636E0,2.693715572E0,7.384062767E0
8.826759063E0,2.427218676E0,2.415840149E0,1.042632008E1
8.846856459E0,2.982969761E0,2.296066284E0,1.240977669E1
8.866953855E0,3.251263142E0,2.300857067E0,1.327693939E1
8.887051250E0,3.601003170E0,2.746416092E0,1.329131317E1
8.907149115E0,3.979488611E0,3.326122046E0,1.211273766E1
8.927247032E0,4.147172451E0,3.795635700E0,1.129827499E1
8.947344948E0,4.161545277E0,4.049556255E0,1.132222939E1
8.967442865E0,3.514765978E0,4.011229038E0,1.169592381E1
8.987540261E0,3.212935686E0,3.498596430E0,1.256787777E1
9.007637657E0,4.065725803E0,2.415840149E0,1.443635178E1
9.027735053E0,4.472957134E0,1.467230558E0,1.559576321E1
9.047832448E0,3.457274437E0,1.079163074E0,1.277388954E1
9.067929844E0,1.349253297E0,8.491971493E-1,8.246435165E0
9.088027240E0,1.802597642E-1,1.136654615E0,4.830482483E0
9.108124792E0,4.725081325E-1,1.361829519E0,3.843545437E0
9.128222709E0,1.900213361E0,1.232473731E0,5.716809750E0
9.148320625E0,2.111015558E0,1.170191288E0,7.316989422E0
9.168418542E0,1.675038338E0,1.428902984E0,8.232062340E0
9.188516250E0,1.148033142E0,1.845716238E0,8.394954681E0
9.208613646E0,1.430699587E0,1.879252911E0,8.500355721E0
9.228711042E0,2.283489943E0,1.927162528E0,9.448965073E0
9.248808438E0,2.848822832E0,2.066100359E0,9.736422539E0
9.268905834E0,2.455964327E0,2.372721434E0,8.577011108E0
9.289003230E0,1.871467590E0,2.497286320E0,7.072650433E0
9.309100000E0,2.307444811E0,2.549986839E0,6.785192966E0
9.329196875E0,3.131489277E0,2.363139629E0,7.566119194E0
9.349297084E0,3.596212149E0,2.205038071E0,8.438073158E0
9.369394480E0,3.141071320E0,1.802597642E0,9.070479393E0
9.389491875E0,2.197252750E0,1.821761489E0,8.481191635E0
9.409589271E0,1.813976169E0,1.869670987E0,7.561327934E0
9.429686667E0,2.317026615E0,2.046936512E0,7.072650433E0
9.449784063E0,3.711195230E0,2.118800879E0,8.509937286E0
9.469881667E0,4.367556095E0,2.061309338E0,1.064670467E1
9.489979584E0,4.477748394E0,2.252947569E0,1.194984436E1
9.510077500E0,5.421566963E0,2.027772665E0,1.277867985E1
9.530176250E0,6.763034821E0,1.577422619E0,1.402912045E1
9.550270157E0,7.036119461E0,8.348242640E-1,1.587363815E1
9.570370886E0,5.915035248E0,1.497174054E-1,1.623775101E1
9.590468282E0,4.793951511E0,-1.796608977E-2,1.329131317E1
9.610565678E0,4.525657654E0,2.790732384E-1,9.985551834E0
9.630663073E0,4.698132515E0,6.719317436E-1,8.524310112E0
9.650760469E0,4.137590408E0,6.910955310E-1,8.830931664E0
9.670857865E0,2.585320234E0,5.234120488E-1,9.022569656E0
9.690955365E0,1.013886333E0,5.521578193E-1,8.265598297E0
9.711053282E0,2.694913372E-2,8.012875915E-1,7.206797123E0
9.731151198E0,-4.012426734E-2,1.131863594E0,6.085713387E0
9.751249115E0,4.102256894E-1,1.539094925E0,5.271250725E0
9.771347032E0,8.941123486E-1,1.783433795E0,4.538234234E0
9.791444480E0,1.579219222E0,2.085263968E0,3.901036739E0
9.811541875E0,2.561365366E0,2.296066284E0,4.001646996E0
9.831639271E0,3.404573917E0,2.185874224E0,4.749036312E0
9.851736667E0,4.204663754E0,1.979863048E0,6.655837059E0
9.871834063E0,4.659804821E0,1.486394405E0,9.961597443E0
9.891931511E0,4.305274010E0,1.136654615E0,1.281700802E1
9.912029428E0,3.672867537E0,1.103117824E0,1.318591118E1
9.932127344E0,4.056144238E0,1.682823658E0,1.141325760E1
9.952225261E0,4.607104301E0,2.377512455E0,9.966388702E0
9.972323178E0,4.952053070E0,2.808698654E0,9.846614838E0
9.992420730E0,5.162855148E0,2.899726868E0,1.094374371E1
1.001251813E1,4.501703262E0,2.995545864E0,1.158094120E1
1.003261552E1,3.466856241E0,3.096156120E0,1.208399105E1
1.005271292E1,4.290900707E0,3.024291754E0,1.335359478E1
1.007281031E1,6.058763981E0,2.449376822E0,1.548557091E1
1.009290771E1,7.122356415E0,1.539094925E0,1.678392029E1
1.011300563E1,5.253883362E0,6.575588584E-1,1.367938042E1
1.013310354E1,2.384099960E0,2.119998485E-1,8.802186012E0
1.015320146E1,7.168469429E-1,5.713216066E-1,5.558708191E0
1.017329938E1,1.344462276E0,1.203727961E0,4.432833195E0
1.019339698E1,3.428528547E0,1.706778407E0,5.367069721E0
1.021349438E1,4.621477127E0,1.716360331E0,7.906276703E0
1.023359177E1,4.468166351E0,1.275592327E0,9.712468147E0
1.025368917E1,3.088370800E0,1.218100786E0,9.405846596E0
1.027378656E1,2.513455868E0,1.352247596E0,8.485982895E0
1.029388396E1,2.753003597E0,1.754688025E0,7.997304916E0
1.031398188E1,3.538720608E0,2.257738590E0,7.470299721E0
1.033407979E1,3.711195230E0,2.554777861E0,7.015159130E0
1.035417771E1,3.763895750E0,2.765579939E0,7.336153030E0
1.037427563E1,3.692031384E0,3.053037405E0,7.460718155E0
1.039437318E1,3.409364939E0,3.278212309E0,7.249915600E0
1.041447057E1,2.834450006E0,3.393195391E0,6.914548874E0
1.043456797E1,2.173297882E0,3.618370295E0,6.952876568E0
1.045466536E1,1.421117663E0,3.584833622E0,7.254706860E0
1.047476276E1,1.009095311E0,3.795635700E0,7.355316639E0
1.049486021E1,1.440281510E0,3.829172373E0,8.265598297E0
1.051495813E1,1.804394245E0,3.810008526E0,9.171089172E0
1.053505604E1,1.555264473E0,3.920200586E0,9.286072731E0
1.055515396E1,1.449863434E0,4.049556255E0,9.616648674E0
1.057525188E1,1.550473452E0,3.747726202E0,1.075210571E1
1.059534948E1,2.455964327E0,3.124901772E0,1.256787777E1
1.061544688E1,3.217726469E0,2.080473185E0,1.405786610E1
1.063554427E1,3.117116451E0,1.026462555E0,1.496335697E1
1.065564167E1,2.039151192E0,6.623498201E-1,1.352127838E1
1.067573906E1,1.320507526E0,8.491971493E-1,1.091978931E1
1.069583651E1,1.933750033E0,1.558258772E0,8.811767578E0
1.071593443E1,3.548302650E0,2.114009857E0,8.270389557E0
1.073603234E1,4.736459732E0,2.238574743E0,8.447654724E0
1.075613026E1,4.760414600E0,2.171501398E0,8.921959877E0
1.077622818E1,3.893251419E0,1.984653950E0,9.012988091E0
1.079632578E1,2.671557426E0,1.807388544E0,8.505146980E0
1.081642318E1,1.651083589E0,1.975072026E0,7.863158226E0
1.083652057E1,1.258225083E0,2.190665245E0,7.005577087E0
1.085661797E1,1.469027162E0,2.583523512E0,6.310888290E0
1.087671536E1,1.770857453E0,3.005127907E0,5.937193394E0
1.089681292E1,1.732529879E0,3.235093832E0,5.726391315E0
1.091691083E1,1.962495804E0,3.484223604E0,5.716809750E0
1.093700875E1,2.336190462E0,3.455477715E0,6.191114426E0
1.095710667E1,2.729048967E0,3.287794352E0,7.489463806E0
1.097720458E1,3.088370800E0,3.168020487E0,8.687203407E0
1.099730208E1,3.078788757E0,3.072201252E0,9.645394325E0
1.101739948E1,2.800913334E0,3.263839483E0,9.678931236E0
1.103749688E1,3.069206953E0,3.522551298E0,9.108807564E0
1.105759427E1,4.060935020E0,3.848336220E0,9.127970695E0
1.107769167E1,4.655013561E0,3.857918262E0,9.587903023E0
1.109778932E1,4.242991447E0,3.704607487E0,1.076168728E1
1.111788724E1,2.657184601E0,3.728562355E0,1.151865864E1
1.113798516E1,2.096642494E0,3.627952337E0,1.215585613E1
1.115808307E1,2.379309177E0,3.115319729E0,1.305655575E1
1.117818099E1,2.959014893E0,2.195456028E0,1.454654312E1
1.119827839E1,3.188980818E0,1.380993366E0,1.499210262E1
1.121837578E1,2.326608419E0,1.098326921E0,1.294636345E1
1.123847318E1,1.358835220E0,1.141445518E0,9.573530197E0
1.125857057E1,1.909795284E0,1.433693886E0,7.724220753E0
1.127866797E1,3.102743626E0,1.409739137E0,7.958977222E0
1.129876573E1,3.054834127E0,1.246846557E0,8.826140404E0
1.131886021E1,2.364936113E0,1.031253457E0,9.252535820E0
1.133896203E1,2.254744291E0,1.107908845E0,9.281281471E0
1.135905948E1,2.748212814E0,1.505558252E0,8.577011108E0
1.137915688E1,3.327918530E0,1.975072026E0,7.738593578E0
1.139925427E1,3.519556761E0,2.387094259E0,7.058277607E0
1.141935167E1,3.069206953E0,2.832653284E0,6.516899586E0
1.143944906E1,2.566156387E0,3.321331024E0,6.239023685E0
1.145954677E1,2.326608419E0,3.704607487E0,6.497735500E0
1.147964469E1,2.585320234E0,3.886663914E0,6.881011963E0
1.149974261E1,2.235580444E0,3.819590569E0,7.594864845E0
1.151984052E1,1.416326642E0,3.589624643E0,8.188943863E0
1.153993839E1,6.737283468E-1,3.417150259E0,8.519519806E0
1.156003578E1,3.048246503E-1,3.292585373E0,8.883631706E0
1.158013318E1,4.132200405E-2,3.330912828E0,9.319609642E0
1.160023057E1,4.006437957E-1,3.244675636E0,1.009095383E1
1.162032797E1,9.180671573E-1,3.239884615E0,1.099165344E1
1.164042536E1,1.612755895E0,3.091365099E0,1.250080490E1
1.166052318E1,2.283489943E0,2.957218170E0,1.361709785E1
1.168062109E1,3.256054163E0,2.866190195E0,1.384227276E1
1.170071901E1,4.343601704E0,2.621851206E0,1.362188911E1
1.172081693E1,4.913725376E0,2.267320395E0,1.331047630E1
1.174091469E1,4.185499668E0,1.812179565E0,1.200733662E1
1.176101208E1,3.246472359E0,1.630123138E0,9.817869186E0
1.178110948E1,2.762585640E0,1.855298162E0,7.455926895E0
1.180120688E1,3.212935686E0,2.382303476E0,5.304787159E0
1.182130427E1,4.104053497E0,2.602687359E0,4.638844013E0
1.184140167E1,3.610584974E0,2.205038071E0,6.104876995E0
1.186149958E1,1.660665512E0,1.553467870E0,8.279971123E0
1.188159750E1,1.658868939E-1,1.313920021E0,9.530411720E0
1.190169542E1,-3.084178567E-1,1.472021580E0,9.458546638E0
1.192179333E1,-1.616948098E-2,1.802597642E0,8.878841400E0
1.194189104E1,6.593554616E-1,2.070891142E0,8.332672119E0
1.196198844E1,1.095332623E0,2.430212975E0,7.316989422E0
1.198208583E1,1.267807007E0,2.602687359E0,6.569600105E0
1.200218323E1,1.588801146E0,2.669760942E0,6.507317543E0
1.202228062E1,1.881049514E0,2.722461462E0,6.813938618E0
1.204237922E1,2.432009697E0,2.511659145E0,7.810457706E0
1.206247662E1,2.805704355E0,2.391885281E0,9.195044518E0
1.208257401E1,2.858404875E0,2.339184761E0,1.032571030E1
1.210267141E1,2.700303078E0,2.478122473E0,1.078085136E1
1.212276880E1,2.225998402E0,2.732043266E0,1.076647854E1
1.214286620E1,2.681139469E0,3.287794352E0,1.047422981E1
1.216296412E1,4.142381191E0,3.877082109E0,9.918478966E0
1.218306203E1,5.608414173E0,4.356177807E0,1.059400368E1
1.220315995E1,5.416775703E0,4.413669109E0,1.211752796E1
1.222325786E1,3.941161156E0,4.581352711E0,1.270681572E1
1.224335552E1,3.394991875E0,4.840064526E0,1.318591118E1
1.226345292E1,3.912415266E0,4.562189102E0,1.385185432E1
1.228355031E1,4.947262287E0,3.460268736E0,1.511666775E1
1.230364771E1,5.086199760E0,2.080473185E0,1.573949146E1
1.232374510E1,3.548302650E0,1.074372172E0,1.296073627E1
1.234384255E1,1.761275649E0,1.007298708E0,8.347044945E0
1.236394047E1,1.148033142E0,1.476812482E0,4.600516319E0
1.238403839E1,1.967286706E0,2.166710377E0,3.153647423E0
1.240413630E1,3.275218010E0,2.267320395E0,3.920200586E0
1.242423422E1,3.347082376E0,1.826552391E0,5.592244625E0
1.244433167E1,2.561365366E0,1.270801425E0,7.786502838E0
1.246442906E1,1.703784108E0,8.779428601E-1,9.583111763E0
1.248452646E1,1.291761756E0,9.593891501E-1,1.039278412E1
1.250462386E1,1.330089450E0,1.380993366E0,1.008137131E1
1.252472125E1,1.411535740E0,1.860089064E0,8.965078354E0
1.254481865E1,1.507354856E0,2.502077341E0,7.403226376E0
1.256491630E1,1.339671373E0,3.163229465E0,6.459407806E0
1.258501422E1,9.324400425E-1,3.738144159E0,6.056967258E0
1.260511214E1,8.653666377E-1,4.183703423E0,6.579181671E0
1.262521005E1,1.315716624E0,4.356177807E0,7.614028454E0
1.264530781E1,1.536100626E0,4.298686028E0,8.773440361E0
1.266540521E1,1.756484628E0,4.150166512E0,9.769959450E0
1.268550260E1,1.507354856E0,4.116630077E0,1.019635487E1
1.270560000E1,1.090541601E0,4.073511124E0,9.947224617E0
1.272569740E1,1.263016105E0,4.083093166E0,9.573530197E0
1.274579479E1,2.053524017E0,3.992064953E0,1.000950718E1
1.276589234E1,3.184189796E0,4.025601864E0,1.116412735E1
1.278599026E1,3.778268576E0,4.164539337E0,1.253913212E1
1.280608818E1,3.327918530E0,4.183703423E0,1.241935825E1
1.282618609E1,3.375828028E0,4.245985508E0,1.148512173E1
1.284628401E1,4.319646835E0,4.111838818E0,1.123599243E1
1.286638141E1,4.348392487E0,3.733353376E0,1.118808270E1
1.288647880E1,3.251263142E0,3.220721006E0,1.049818516E1
1.290657620E1,2.326608419E0,2.770370960E0,9.262117386E0
1.292667359E1,1.890631437E0,2.540405035E0,7.858367443E0
1.294677099E1,2.058315039E0,2.621851206E0,6.569600105E0
1.296686859E1,3.136280298E0,2.593105555E0,6.301306248E0
1.298696651E1,3.567466497E0,2.296066284E0,7.245124817E0
1.300706443E1,2.681139469E0,1.984653950E0,8.102705956E0
1.302716234E1,1.421117663E0,1.749897122E0,8.380581856E0
1.304726016E1,7.360107899E-1,1.730733275E0,8.279971123E0
1.306735755E1,8.941123486E-1,1.907998681E0,7.800875664E0
1.308745495E1,1.334880471E0,2.128382683E0,7.182842255E0
1.310755234E1,1.502563953E0,2.468540668E0,6.349215984E0
1.312764974E1,1.761275649E0,2.751207113E0,5.870120049E0
1.314774714E1,2.096642494E0,2.976382017E0,6.042594433E0
1.316784474E1,2.384099960E0,2.981173038E0,6.837893486E0
1.318794266E1,2.887150526E0,3.100946903E0,8.279971123E0
1.320804057E1,3.232099533E0,3.019500732E0,1.004783440E1
1.322813849E1,3.308754683E0,3.120110750E0,1.112580013E1
1.324823630E1,3.390201092E0,3.508178234E0,1.116891861E1
1.326833370E1,3.639330864E0,4.097465992E0,1.056046677E1
1.328843109E1,4.036980152E0,4.571770668E0,9.975970268E0
1.330852849E1,4.554403782E0,4.681962967E0,1.015802670E1
1.332862589E1,4.295691967E0,4.428041935E0,1.214148331E1
1.334872328E1,3.778268576E0,3.934573412E0,1.382789993E1
1.336882040E1,2.369727135E0,4.198076248E0,1.229000282E1
1.338891858E1,1.847512841E0,4.499906540E0,1.046943855E1
1.340901649E1,2.288280964E0,3.599206448E0,1.112580013E1
1.342911441E1,3.222517490E0,2.118800879E0,1.390455532E1
1.344921233E1,3.509974957E0,1.404948115E0,1.378478146E1
1.346930972E1,2.331399441E0,1.539094925E0,9.659767151E0
1.348940712E1,1.569637299E0,2.022981644E0,6.210278034E0
1.350950451E1,2.542201519E0,2.511659145E0,5.620990276E0
1.352960191E1,3.926788092E0,2.142755508E0,7.470299721E0
1.354969930E1,3.850132942E0,1.673241735E0,8.898005486E0
1.356979670E1,2.297862768E0,1.491185427E0,8.581801414E0
1.358989436E1,1.397162914E0,1.433693886E0,8.385373116E0
1.360999227E1,1.320507526E0,1.448066831E0,8.222479820E0
1.363009019E1,1.722947955E0,1.649286985E0,7.786502838E0
1.365018811E1,1.962495804E0,1.869670987E0,7.110978127E0
1.367028576E1,2.029569149E0,2.272111416E0,6.689373970E0
1.369038316E1,1.943331957E0,2.669760942E0,6.842684269E0
1.371048056E1,2.225998402E0,2.990754843E0,7.202006340E0
1.373057795E1,2.518246889E0,3.292585373E0,7.614028454E0
1.375067535E1,2.939851046E0,3.560878754E0,8.409327507E0
1.377077274E1,2.839241028E0,3.790844679E0,8.945914268E0
1.379087014E1,2.614065886E0,3.766890049E0,9.492083549E0
1.381096790E1,2.810495138E0,4.030392647E0,1.010053539E1
1.383106582E1,3.414155722E0,4.217239857E0,1.039757442E1
1.385116373E1,4.410675049E0,4.763409138E0,1.033529186E1
1.387126165E1,5.263465405E0,5.060448647E0,1.031133747E1
1.389135905E1,4.913725376E0,4.993374825E0,9.841823578E0
1.391145644E1,4.056144238E0,4.725081444E0,9.985551834E0
1.393155384E1,3.557884455E0,4.083093166E0,1.061316776E1
1.395165123E1,3.188980818E0,3.340494871E0,1.126952839E1
1.397174863E1,2.992551565E0,2.588314533E0,1.138451195E1
1.399184602E1,2.240371227E0,2.051727295E0,1.059879494E1
1.401194342E1,1.766066551E0,2.085263968E0,9.640603065E0
1.403204082E1,2.115806341E0,1.946326375E0,8.581801414E0
1.405213873E1,2.671557426E0,1.864880085E0,8.581801414E0
1.407223665E1,2.273907900E0,1.788224697E0,9.357936859E0
1.409233457E1,1.545682549E0,1.615750313E0,9.808286667E0
1.411243233E1,7.168469429E-1,1.797806621E0,9.607067108E0
1.413252972E1,2.185874134E-1,2.018190622E0,9.127970695E0
1.415262712E1,3.958528340E-1,2.334393740E0,8.399745941E0
1.417272451E1,1.229479313E0,2.593105555E0,7.499045372E0
1.419282191E1,1.900213361E0,3.038664579E0,6.334843159E0
1.421291931E1,2.293071747E0,3.283003330E0,5.927611828E0
1.423301670E1,2.508664846E0,3.378822565E0,6.416289330E0
1.425311410E1,3.083579779E0,3.397986412E0,7.676311016E0
1.427321149E1,3.692031384E0,3.345285892E0,8.806977272E0
1.429330925E1,4.080098629E0,3.230302811E0,9.578320503E0
1.431340717E1,3.907624483E0,3.350076675E0,9.549574852E0
1.433350509E1,4.137590408E0,3.575251818E0,9.377100945E0
1.435360274E1,4.549612522E0,3.896245956E0,8.553055763E0
1.437370014E1,4.774787426E0,4.193284988E0,7.839203358E0
1.439379754E1,4.238200188E0,4.183703423E0,7.752966404E0
1.441389493E1,3.553093433E0,4.025601864E0,8.672829628E0
1.443399233E1,3.030879259E0,3.934573412E0,1.047902107E1
1.445408972E1,2.297862768E0,4.327432156E0,1.148991299E1
1.447418712E1,1.837930918E0,4.456788063E0,1.142283916E1
1.449428451E1,1.540891528E0,4.782572746E0,1.082876110E1
1.451438191E1,2.125388384E0,4.193284988E0,1.179174328E1
1.453447946E1,2.580529213E0,2.799116611E0,1.389497375E1
1.455457738E1,2.743421793E0,1.347456694E0,1.549994373E1
1.457467530E1,1.722947955E0,3.796833456E-1,1.345899582E1
1.459477321E1,5.012539029E-1,1.545083672E-1,9.032152176E0
1.461487061E1,3.287794292E-1,6.144402623E-1,5.252086639E0
1.463496800E1,1.603173971E0,1.361829519E0,3.776471853E0
1.465506540E1,3.270426989E0,1.797806621E0,4.308268070E0
1.467516280E1,3.787850380E0,1.773851871E0,6.306097031E0
1.469526019E1,3.663285494E0,1.491185427E0,8.514728546E0
1.471535759E1,2.987760544E0,1.433693886E0,9.784332275E0
1.473545498E1,2.494292021E0,1.663659811E0,1.021551800E1
1.475555238E1,2.642811775E0,2.195456028E0,9.286072731E0
1.477564977E1,2.776958466E0,2.995545864E0,7.604446411E0
1.479574727E1,2.681139469E0,3.618370295E0,6.593554497E0
1.481584519E1,2.561365366E0,4.107048035E0,6.789983749E0
1.483594311E1,2.432009697E0,4.447206020E0,7.235542774E0
1.485604092E1,2.791331291E0,4.725081444E0,7.748175144E0
1.487613832E1,2.719466925E0,4.753827095E0,8.385373116E0
1.489623571E1,2.523037672E0,4.710708618E0,9.003406525E0
1.491633311E1,2.254744291E0,4.614889622E0,9.559157372E0
1.493643050E1,2.111015558E0,4.495115280E0,9.563947678E0
1.495652790E1,2.029569149E0,4.317850113E0,9.535202026E0
1.497662530E1,2.417636633E0,4.145375729E0,1.000471592E1
1.499672269E1,2.954223871E0,4.131002903E0,1.125994682E1
1.501682009E1,3.457274437E0,3.972901106E0,1.280263519E1
1.503691774E1,3.811805248E0,3.608788490E0,1.354523373E1
1.505701566E1,4.113635540E0,3.388404369E0,1.360272503E1
1.507711358E1,4.022607327E0,2.890144825E0,1.365063477E1
1.509721139E1,3.318336725E0,2.248156548E0,1.324340343E1
1.511730878E1,2.791331291E0,1.754688025E0,1.189714432E1
1.513740618E1,2.427218676E0,1.495976329E0,1.011969948E1
1.515750358E1,2.408054829E0,1.572631717E0,8.232062340E0
1.517760097E1,3.562675476E0,1.869670987E0,7.091814041E0
1.519769837E1,5.047872066E0,2.214619875E0,7.106186867E0
1.521779576E1,5.201182842E0,2.099637032E0,7.618819714E0
1.523789316E1,3.500392914E0,2.003817797E0,7.585282803E0
1.525799056E1,1.665456414E0,2.042145491E0,7.455926895E0
1.527808795E1,1.100123525E0,2.243365765E0,7.331362247E0
1.529818576E1,1.598383069E0,2.468540668E0,7.307407379E0
1.531828368E1,2.005614519E0,2.746416092E0,7.048695564E0
1.533838160E1,2.441591501E0,3.096156120E0,6.507317543E0
1.535847925E1,2.705094099E0,3.498596430E0,5.956357479E0
1.537857665E1,2.930269241E0,3.742935181E0,5.630572319E0
1.539867405E1,3.208144665E0,4.001646996E0,5.606617451E0
1.541877144E1,3.533929825E0,4.111838818E0,6.095294952E0
1.543886884E1,4.175918102E0,4.164539337E0,7.364898682E0
1.545896623E1,3.984279633E0,4.073511124E0,8.917168617E0
1.547906363E1,3.337500572E0,4.054347515E0,9.817869186E0
1.549916102E1,2.963805914E0,4.346595764E0,9.520829201E0
1.551925842E1,3.107534647E0,4.667590141E0,8.648875237E0
1.553935582E1,3.481229305E0,4.988584042E0,8.160197258E0
1.555945337E1,4.118426323E0,4.983793259E0,8.739903450E0
1.557955128E1,4.357974529E0,4.887973785E0,1.029217339E1
1.559964920E1,3.917206287E0,4.768199921E0,1.188756180E1
1.561974701E1,3.212935686E0,4.586143494E0,1.296073627E1
1.563984441E1,2.499083042E0,4.030392647E0,1.345899582E1
1.565994180E1,2.508664846E0,3.297376156E0,1.379915428E1
1.568003920E1,2.729048967E0,2.411049128E0,1.413931179E1
1.570013660E1,1.967286706E0,1.371411443E0,1.231395721E1
1.572023399E1,5.874910951E-1,8.827338219E-1,9.257327080E0
1.574033139E1,-1.934348941E-1,1.036044478E0,6.540853977E0
1.576042878E1,1.083954051E-1,1.304338098E0,5.582662582E0
1.578052618E1,8.509937525E-1,1.663659811E0,6.143204689E0
1.580062358E1,8.605756760E-1,1.860089064E0,7.245124817E0
1.582072097E1,9.228581190E-1,1.965490103E0,8.303926468E0
1.584081837E1,8.749485612E-1,2.018190622E0,9.094434738E0
1.586091576E1,1.286970854E0,2.205038071E0,9.147134781E0
1.588101352E1,2.470337152E0,2.684133768E0,9.516038895E0
1.590111144E1,3.121907473E0,3.076992273E0,1.011969948E1
1.592120936E1,2.642811775E0,3.685443640E0,9.559157372E0
1.594130701E1,2.417636633E0,4.495115280E0,8.514728546E0
1.596140441E1,2.671557426E0,5.137103558E0,7.647565365E0
1.598150180E1,2.800913334E0,5.506007195E0,7.125350952E0
1.600159920E1,3.021297216E0,5.683272839E0,7.182842255E0
1.602169660E1,3.083579779E0,5.759928226E0,7.518209457E0
1.604179399E1,2.757794619E0,5.601826668E0,8.361417770E0
1.606189139E1,2.015196323E0,5.371860504E0,8.682412148E0
1.608198878E1,1.421117663E0,5.194595337E0,8.706366539E0
1.610208618E1,1.349253297E0,5.070030212E0,8.797394753E0
1.612218358E1,2.460755348E0,5.079612255E0,9.319609642E0
1.614228128E1,3.926788092E0,5.070030212E0,9.952015877E0
1.616237920E1,4.774787426E0,5.333532810E0,1.038320160E1
1.618247712E1,4.856234074E0,5.323951244E0,1.110663605E1
1.620257483E1,4.334019661E0,4.768199921E0,1.178216076E1
1.622267222E1,3.687240362E0,4.245985508E0,1.206482792E1
1.624276962E1,3.179399014E0,3.800426722E0,1.178695202E1
1.626286701E1,3.227308512E0,3.407568216E0,1.109705448E1
1.628296441E1,3.021297216E0,3.134483576E0,9.865777969E0
1.630306181E1,2.652393579E0,3.139274597E0,8.184152603E0
1.632315920E1,2.580529213E0,3.340494871E0,6.488153458E0
1.634325660E1,3.188980818E0,3.560878754E0,5.721600533E0
1.636335399E1,3.265636206E0,3.460268736E0,5.458097935E0
1.638345139E1,2.312235594E0,3.383613348E0,5.702436447E0
1.640354878E1,1.397162914E0,3.374031544E0,5.735973358E0
1.642364654E1,1.531309605E0,3.627952337E0,5.798255920E0
1.644374446E1,2.202043533E0,3.934573412E0,5.726391315E0
1.646384238E1,2.762585640E0,4.145375729E0,5.438933849E0
1.648393998E1,3.121907473E0,4.360968590E0,5.477261543E0
1.650403738E1,2.863195658E0,4.475951672E0,5.855747223E0
1.652413477E1,2.815286160E0,4.519070148E0,6.933712482E0
1.654422889E1,2.987760544E0,4.423251152E0,8.303926468E0
1.656432920E1,3.385410070E0,4.447206020E0,9.166298866E0
1.658442748E1,3.303963661E0,4.399296284E0,9.712468147E0
1.660452488E1,3.222517490E0,4.466369629E0,9.928060532E0
1.662462227E1,2.987760544E0,4.495115280E0,9.928060532E0
1.664471967E1,2.748212814E0,4.590934753E0,9.195044518E0
1.666481707E1,3.050043106E0,4.916719913E0,8.591383934E0
1.668491446E1,3.725568056E0,5.199386120E0,8.672829628E0
1.670501186E1,4.381928921E0,5.304787159E0,9.228581429E0
1.672510925E1,4.444211483E0,5.429352283E0,9.401055336E0
1.674520665E1,3.854923964E0,5.482052803E0,8.586592674E0
1.676530404E1,3.260845184E0,5.529962063E0,7.944604397E0
1.678540144E1,1.766066551E0,5.367069721E0,7.609237671E0
1.680549884E1,-1.167795807E-1,5.323951244E0,7.671520233E0
1.682559623E1,-1.551072299E-1,5.357487679E0,9.444173813E0
1.684569363E1,8.797395229E-1,4.907137871E0,1.120245552E1
1.686579102E1,1.401953816E0,4.883183002E0,1.083355141E1
1.688588842E1,1.895422339E0,5.256877899E0,9.324399948E0
1.690598582E1,3.323127508E0,5.410188198E0,9.722049713E0
1.692608373E1,4.271737099E0,4.782572746E0,1.154740429E1
1.694618165E1,3.773477554E0,4.030392647E0,1.243852234E1
1.696627951E1,2.427218676E0,3.565669775E0,1.204566383E1
1.698637691E1,2.091851711E0,3.436313868E0,1.100602627E1
1.700647430E1,2.772167444E0,3.661489010E0,9.875360489E0
1.702657170E1,3.236890316E0,3.742935181E0,8.433281898E0
1.704666910E1,2.959014893E0,3.843545437E0,7.029531956E0
1.706676649E1,2.618856907E0,3.948946476E0,6.066549301E0
1.708686389E1,2.379309177E0,4.207658291E0,5.400606155E0
1.710696128E1,2.197252750E0,4.418460369E0,4.796945572E0
1.712705868E1,2.249953270E0,4.566979885E0,4.423251152E0
1.714715608E1,2.422427654E0,4.907137871E0,4.183703423E0
1.716725347E1,2.144552231E0,4.931092739E0,4.154957294E0
1.718735087E1,2.182879925E0,4.969420433E0,4.519070148E0
1.720744826E1,2.101433516E0,4.902346611E0,5.314369202E0
1.722754566E1,1.881049514E0,4.892765045E0,6.291724205E0
1.724764306E1,2.326608419E0,4.998166084E0,7.149305820E0
1.726774045E1,2.978178740E0,5.391024590E0,7.479881763E0
1.728783785E1,4.549612522E0,5.668900013E0,8.586592674E0
1.730793571E1,5.526968002E0,5.501216412E0,1.029217339E1
1.732803363E1,5.469476223E0,4.907137871E0,1.137492943E1
1.734813154E1,4.487329960E0,4.308268070E0,1.217022896E1
1.736822894E1,3.763895750E0,3.733353376E0,1.321944809E1
1.738832634E1,3.850132942E0,3.211138964E0,1.430220509E1
1.740842373E1,3.586630344E0,2.751207113E0,1.400516510E1
1.742852113E1,3.093161583E0,2.717670441E0,1.193547153E1
1.744861852E1,2.968596697E0,3.005127907E0,8.342253685E0
1.746871592E1,3.543511629E0,3.474641562E0,6.679791927E0
1.748881332E1,4.271737099E0,3.503387451E0,6.727701664E0
1.750891071E1,4.425047874E0,3.570460796E0,7.408017159E0
1.752900811E1,3.921997309E0,3.493805408E0,7.762548447E0
1.754910550E1,3.160235167E0,3.556087971E0,7.575700760E0
1.756920290E1,2.661975622E0,3.589624643E0,7.158887863E0
1.758930030E1,2.614065886E0,3.814799547E0,6.478571892E0
1.760939769E1,3.208144665E0,4.131002903E0,6.147995472E0
1.762949509E1,3.596212149E0,4.332222939E0,6.368379593E0
1.764959248E1,3.385410070E0,4.322640896E0,6.492944717E0
1.766968988E1,3.131489277E0,4.389714241E0,6.900176048E0
1.768978759E1,3.208144665E0,4.255567551E0,7.671520233E0
1.770988550E1,3.375828028E0,4.231612682E0,8.500355721E0
1.772998342E1,2.959014893E0,4.111838818E0,8.854886055E0
1.775008102E1,2.614065886E0,4.222031116E0,8.567428589E0
1.777017842E1,2.609275103E0,4.514279366E0,7.925440788E0
1.779027582E1,2.585320234E0,4.576561928E0,7.537373066E0
1.781037321E1,2.408054829E0,4.667590141E0,7.546955109E0
1.783047061E1,2.575738192E0,4.796945572E0,7.609237671E0
1.785056800E1,3.126698256E0,5.012538910E0,7.843994617E0
1.787066540E1,3.342291355E0,5.252086639E0,8.672829628E0
1.789076280E1,2.978178740E0,5.290414333E0,9.779541016E0
1.791086019E1,2.446382523E0,4.979001999E0,1.136534786E1
1.793095759E1,2.537410736E0,4.729872227E0,1.272597980E1
1.795105498E1,2.987760544E0,4.078302383E0,1.409619331E1
1.797115238E1,2.944642067E0,3.163229465E0,1.535142422E1
1.799124977E1,1.401953816E0,2.502077341E0,1.393809223E1
1.801134717E1,2.425422072E-1,2.296066284E0,9.980761528E0
1.803144457E1,2.694913372E-2,2.885353804E0,6.766029358E0
1.805154196E1,1.555264473E0,3.738144159E0,5.649735928E0
1.807163936E1,3.898042440E0,4.222031116E0,6.488153458E0
1.809173675E1,5.474267483E0,4.284313202E0,8.232062340E0
1.811183436E1,5.526968002E0,3.603997469E0,1.064191341E1
1.813193227E1,4.070517063E0,2.909308672E0,1.163843250E1
1.815203019E1,2.681139469E0,2.573941708E0,1.102039909E1
1.817212774E1,2.374518156E0,2.636224031E0,9.228581429E0
1.819222514E1,2.422427654E0,2.885353804E0,7.202006340E0
1.821232254E1,2.264326096E0,3.374031544E0,5.697645664E0
1.823241993E1,1.722947955E0,3.877082109E0,4.466369629E0
1.825251733E1,1.195942640E0,4.404087067E0,3.584833622E0
1.827261472E1,1.128869295E0,4.667590141E0,3.814799547E0
1.829271212E1,1.363626122E0,4.840064526E0,4.878392220E0
1.831280951E1,1.411535740E0,4.902346611E0,5.913239002E0
1.833290691E1,1.215106487E0,4.931092739E0,6.732492447E0
1.835300431E1,1.234270334E0,4.969420433E0,7.719429493E0
1.837310170E1,1.651083589E0,5.002956867E0,8.294344902E0
1.839319910E1,2.523037672E0,5.299996376E0,8.869258881E0
1.841329649E1,3.380619049E0,5.467679977E0,9.242954254E0
1.843339389E1,4.247782230E0,5.688063622E0,9.525620461E0
1.845349129E1,4.942471027E0,5.779091835E0,1.022030926E1
1.847358868E1,4.736459732E0,5.553916931E0,1.053172112E1
1.849368608E1,4.214245796E0,5.276041508E0,1.034008312E1
1.851378358E1,4.338810444E0,5.031702518E0,1.057004929E1
1.853388149E1,4.492121220E0,4.629262447E0,1.094374371E1
1.855397941E1,4.449002743E0,4.217239857E0,1.131743813E1
1.857407722E1,3.893251419E0,3.594415665E0,1.120724678E1
1.859417462E1,3.121907473E0,3.273421526E0,9.817869186E0
1.861427201E1,2.661975622E0,3.316540003E0,7.551745892E0
1.863436941E1,3.054834127E0,3.733353376E0,5.549126148E0
1.865446681E1,3.984279633E0,3.623161316E0,5.592244625E0
1.867456420E1,3.869296789E0,3.105737925E0,7.216379166E0
1.869466160E1,2.546992540E0,2.545196056E0,8.581801414E0
1.871475899E1,1.315716624E0,2.281693220E0,8.893214226E0
1.873485639E1,5.779091716E-1,2.310439110E0,8.950705528E0
1.875495378E1,4.725081325E-1,2.487704515E0,8.792604446E0
1.877505118E1,1.018677235E0,2.813489437E0,8.136242867E0
1.879514858E1,1.488191009E0,3.172811270E0,7.034322739E0
1.881524597E1,1.531309605E0,3.450686932E0,6.512108326E0
1.883534337E1,1.382789969E0,3.699816704E0,6.885803223E0
1.885544082E1,1.286970854E0,3.728562355E0,8.078751564E0
1.887553873E1,1.536100626E0,3.857918262E0,9.070479393E0
1.889563665E1,2.360145330E0,4.001646996E0,1.020593643E1
1.891573457E1,3.232099533E0,4.317850113E0,1.103956318E1
1.893583201E1,3.624957800E0,4.543025017E0,1.069461441E1
1.895592941E1,3.241681337E0,4.840064526E0,9.458546638E0
1.897602680E1,3.193771839E0,5.055657387E0,8.682412148E0
1.899612420E1,4.104053497E0,5.328742027E0,8.648875237E0
1.901622160E1,4.635849953E0,5.438933849E0,8.993824005E0
1.903631936E1,4.559194565E0,5.328742027E0,1.031133747E1
1.905641576E1,3.601003170E0,5.266459465E0,1.174383354E1
1.907651363E1,2.733839989E0,5.161058426E0,1.182048893E1
1.909661155E1,2.446382523E0,5.012538910E0,1.173425198E1
1.911670941E1,2.475128174E0,4.303477287E0,1.218939209E1
1.913680681E1,2.642811775E0,3.311748981E0,1.304697418E1
1.915690420E1,2.125388384E0,2.612269402E0,1.232353973E1
1.917700160E1,1.018677235E0,2.238574743E0,9.616648674E0
1.919709899E1,1.515140235E-1,2.401467323E0,6.928921700E0
1.921719639E1,2.617060244E-1,2.942845345E0,5.122730732E0
1.923729379E1,1.579219222E0,3.278212309E0,5.137103558E0
1.925739118E1,2.661975622E0,3.211138964E0,6.492944717E0
1.927748858E1,2.642811775E0,2.938054323E0,8.864468575E0
1.929758597E1,2.154134035E0,2.458958626E0,1.095811653E1
1.931768337E1,1.584010243E0,2.334393740E0,1.151386738E1
1.933778076E1,1.315716624E0,2.444585800E0,1.040715694E1
1.935787863E1,1.521727800E0,2.779952765E0,8.653666496E0
1.937797655E1,1.876258612E0,3.057828426E0,7.412808418E0
1.939807446E1,2.034360170E0,3.311748981E0,6.646255016E0
1.941817207E1,2.106224537E0,3.546505928E0,5.975521088E0
1.943826946E1,2.283489943E0,3.838754416E0,5.510798454E0
1.945836686E1,2.724257946E0,4.025601864E0,5.309578419E0
1.947846425E1,2.695512295E0,4.044765472E0,5.304787159E0
1.949856165E1,2.384099960E0,4.025601864E0,5.664109230E0
1.951865904E1,2.015196323E0,4.035183430E0,6.181532383E0
1.953875644E1,2.158925056E0,4.102256775E0,6.703746796E0
1.955885384E1,3.347082376E0,4.269940376E0,7.455926895E0
1.957895123E1,4.827487946E0,4.480742455E0,8.356626511E0
1.959904863E1,5.483849049E0,4.356177807E0,9.434592247E0
1.961914613E1,5.373657227E0,4.255567551E0,1.022510052E1
1.963924404E1,5.249092579E0,4.202867031E0,1.092457962E1
1.965934196E1,5.517385960E0,3.953737259E0,1.231395721E1
1.967943988E1,5.617996216E0,3.556087971E0,1.381352711E1
1.969953738E1,5.081408978E0,3.110528946E0,1.454654312E1
1.971963477E1,3.807014227E0,2.799116611E0,1.393330097E1
1.973973217E1,3.050043106E0,2.861399174E0,1.200733662E1
1.975982957E1,2.949432850E0,3.086574078E0,9.333982468E0
1.977992696E1,3.581839323E0,3.374031544E0,7.724220753E0
1.980002436E1,3.845341921E0,3.551296949E0,6.655837059E0
1.982012175E1,3.452483416E0,3.747726202E0,5.759928226E0
1.984021915E1,2.896732330E0,3.896245956E0,5.218550205E0
1.986031654E1,2.796122313E0,4.107048035E0,5.089194298E0
1.988041441E1,3.126698256E0,4.202867031E0,5.328742027E0
1.990051233E1,3.533929825E0,4.303477287E0,5.668900013E0
1.992061024E1,3.581839323E0,4.217239857E0,6.152786732E0
1.994070800E1,3.327918530E0,4.145375729E0,6.641464233E0
1.996080540E1,3.347082376E0,4.011229038E0,7.460718155E0
1.998090280E1,3.768686533E0,3.896245956E0,8.663248062E0
2.000100019E1,4.132799149E0,3.723771334E0,9.707676888E0
2.002109759E1,4.171126842E0,3.695025682E0,9.913687706E0
2.004119498E1,4.166336060E0,3.862709045E0,8.993824005E0
2.006129238E1,4.195081711E0,4.083093166E0,8.030841827E0
2.008138977E1,4.463375568E0,4.217239857E0,7.676311016E0
2.010148743E1,4.808324337E0,4.260358810E0,7.877531052E0
2.012158535E1,4.837069988E0,4.322640896E0,8.073960304E0
2.014168326E1,4.664595604E0,4.380132675E0,8.586592674E0
2.016178118E1,3.912415266E0,4.475951672E0,9.156716347E0
2.018187863E1,3.313545704E0,4.562189102E0,9.276490211E0
2.020197602E1,3.663285494E0,4.787364006E0,9.199835777E0
2.022207342E1,4.587940216E0,4.600516319E0,1.020593643E1
2.024217082E1,4.904143333E0,3.675861835E0,1.280742645E1
2.026226821E1,3.620167017E0,2.367930651E0,1.481483746E1
2.028236561E1,1.675038338E0,1.855298162E0,1.320986652E1
2.030246300E1,5.060448647E-1,1.922371507E0,9.386682510E0
2.032256040E1,7.216379046E-1,2.631433249E0,5.927611828E0
2.034265826E1,2.489500999E0,3.033873558E0,5.400606155E0
2.036275618E1,3.840550900E0,3.009918690E0,6.775610924E0
2.038285410E1,4.132799149E0,2.660178900E0,8.907587051E0
2.040295180E1,3.567466497E0,2.200247049E0,1.051734829E1
2.042304920E1,2.796122313E0,1.917580605E0,1.102519035E1
2.044314660E1,2.288280964E0,2.027772665E0,9.942433357E0
2.046324399E1,2.158925056E0,2.559568882E0,7.896695137E0
2.048334139E1,2.173297882E0,3.076992273E0,6.128831863E0
2.050343878E1,2.182879925E0,3.556087971E0,5.237713814E0
2.052353618E1,1.804394245E0,3.738144159E0,5.616199493E0
2.054363358E1,1.306134701E0,3.685443640E0,6.818729877E0
2.056373113E1,1.200733662E0,3.853127241E0,8.136242867E0
2.058382904E1,1.521727800E0,4.011229038E0,9.027360916E0
2.060392696E1,1.746902704E0,4.236403942E0,9.080060959E0
2.062402488E1,2.019987345E0,4.375341415E0,8.859677315E0
2.064412243E1,2.508664846E0,4.466369629E0,9.113597870E0
2.066421983E1,3.131489277E0,4.590934753E0,9.722049713E0
2.068431722E1,3.715986013E0,4.610098362E0,1.012448978E1
2.070441462E1,4.477748394E0,4.600516319E0,1.034487438E1
2.072451201E1,4.861024857E0,4.394505501E0,1.057963085E1
2.074460941E1,4.803533554E0,4.107048035E0,1.073773289E1
2.076470681E1,4.525657654E0,3.709398508E0,1.097728062E1
2.078480420E1,4.199872971E0,3.158438444E0,1.132222939E1
2.080490170E1,3.941161156E0,2.861399174E0,1.117370987E1
2.082499962E1,4.199872971E0,2.770370960E0,1.037841034E1
2.084509754E1,4.822697163E0,2.703297615E0,9.276490211E0
2.086519545E1,4.884979725E0,2.636224031E0,8.303926468E0
2.088529285E1,4.482539177E0,2.530822992E0,7.288243294E0
2.090539024E1,4.262155056E0,2.631433249E0,6.449825764E0
2.092548764E1,4.286109924E0,2.818280458E0,6.330051899E0
2.094558504E1,4.132799149E0,2.899726868E0,6.689373970E0
2.096568243E1,3.404573917E0,2.928472519E0,7.010367870E0
2.098577983E1,2.762585640E0,2.909308672E0,7.302616119E0
2.100587722E1,2.570947409E0,3.029082537E0,7.499045372E0
2.102597462E1,2.743421793E0,3.220721006E0,7.460718155E0
2.104607254E1,2.963805914E0,3.465059757E0,7.106186867E0
2.106617045E1,3.198562622E0,3.656697989E0,7.043904781E0
2.108626837E1,3.054834127E0,3.623161316E0,7.431972027E0
2.110636608E1,2.944642067E0,3.546505928E0,7.863158226E0
2.112646347E1,3.026088238E0,3.484223604E0,8.342253685E0
2.114656087E1,3.615375996E0,3.623161316E0,8.696784973E0
2.116665826E1,4.516076088E0,3.833963394E0,8.634502411E0
2.118675566E1,4.932888985E0,3.977692127E0,8.696784973E0
2.120685306E1,4.678968430E0,4.054347515E0,8.524310112E0
2.122695045E1,4.108844757E0,4.169330597E0,8.212898254E0
2.124704785E1,4.132799149E0,4.265149593E0,7.796084881E0
2.126714550E1,4.746041775E0,4.504697323E0,7.738593578E0
2.128724342E1,5.364075184E0,4.658008099E0,8.337463379E0
2.130734134E1,5.388030052E0,4.619680405E0,9.343564034E0
2.132743925E1,4.554403782E0,4.514279366E0,1.100123501E1
2.134753670E1,3.668076515E0,4.250776768E0,1.231874847E1
2.136763410E1,2.987760544E0,4.154957294E0,1.279784393E1
2.138773149E1,2.824867964E0,3.843545437E0,1.309967422E1
2.140782889E1,3.188980818E0,3.182393312E0,1.381352711E1
2.142792628E1,3.212935686E0,2.281693220E0,1.405786610E1
2.144802368E1,2.053524017E0,1.649286985E0,1.187318897E1
2.146812108E1,7.935022712E-1,1.400157213E0,8.279971123E0
2.148821847E1,2.042145431E-1,1.783433795E0,5.549126148E0
2.150831587E1,1.195942640E0,2.161919355E0,5.022120953E0
2.152841378E1,3.083579779E0,2.157128334E0,6.627091408E0
2.154851170E1,3.950742960E0,2.013399601E0,8.270389557E0
2.156860962E1,3.845341921E0,1.840925217E0,9.961597443E0
2.158870733E1,3.102743626E0,1.543885946E0,1.091020679E1
2.160880472E1,2.168506861E0,1.414530039E0,1.072815037E1
2.162890212E1,1.445072412E0,1.783433795E0,9.137553215E0
2.164899951E1,1.248643160E0,2.094846010E0,7.599655628E0
2.166909691E1,7.360107899E-1,2.559568882E0,6.401916504E0
2.168919430E1,6.114459038E-1,3.009918690E0,5.654527187E0
2.170929170E1,8.893213868E-1,3.469850779E0,5.678482056E0
2.172938910E1,1.584010243E0,3.829172373E0,6.483362675E0
2.174948665E1,1.857094765E0,3.987273932E0,7.355316639E0
2.176958457E1,1.991241574E0,4.107048035E0,8.174570084E0
2.178968248E1,2.015196323E0,4.202867031E0,8.533892632E0
2.180978040E1,2.111015558E0,4.274731636E0,8.615338326E0
2.182987785E1,2.317026615E0,4.375341415E0,8.500355721E0
2.184997524E1,3.078788757E0,4.466369629E0,8.744694710E0
2.187007264E1,3.610584974E0,4.360968590E0,8.955496788E0
2.189017004E1,3.931579113E0,4.265149593E0,9.161507607E0
2.191026743E1,4.324437618E0,4.351386547E0,9.645394325E0
2.193036483E1,4.769996643E0,4.202867031E0,1.053172112E1
2.195046222E1,5.019126415E0,4.068720341E0,1.109705448E1
2.197055962E1,5.143691063E0,4.030392647E0,1.130785656E1
2.199065717E1,5.038290024E0,3.800426722E0,1.173904228E1
2.201075509E1,4.463375568E0,3.584833622E0,1.190193558E1
2.203085300E1,3.787850380E0,3.350076675E0,1.145158482E1
2.205095092E1,3.275218010E0,3.067410231E0,1.057963085E1
2.207104847E1,2.858404875E0,2.890144825E0,9.108807564E0
2.209114587E1,2.623647928E0,2.904517651E0,7.575700760E0
2.211124326E1,2.800913334E0,3.062619209E0,6.262978554E0
2.213134066E1,3.720777035E0,3.091365099E0,6.042594433E0
2.215143806E1,4.516076088E0,2.669760942E0,7.403226376E0
2.217153545E1,4.051352978E0,2.257738590E0,8.639293671E0
2.219163285E1,2.906314373E0,1.860089064E0,9.008196831E0
2.221173035E1,2.063105822E0,1.610959291E0,9.022569656E0
2.223182826E1,1.924168110E0,1.567840695E0,9.175880432E0
2.225192618E1,2.168506861E0,1.620541215E0,9.281281471E0
2.227202410E1,2.666766405E0,1.922371507E0,8.888422966E0
2.229212170E1,3.078788757E0,2.152337551E0,7.925440788E0
2.231221910E1,3.078788757E0,2.415840149E0,7.321780205E0
2.233231649E1,3.251263142E0,2.712879419E0,7.115768909E0
2.235241389E1,3.557884455E0,3.134483576E0,6.933712482E0
2.237251128E1,3.888460636E0,3.493805408E0,6.670209885E0
2.239260868E1,4.602313042E0,3.905827761E0,6.756447315E0
2.241270608E1,5.158064365E0,4.231612682E0,7.063068390E0
2.243280352E1,5.325747490E0,4.638844013E0,7.321780205E0
2.245290144E1,5.316165924E0,4.897555828E0,7.853576183E0
2.247299936E1,5.526968002E0,4.955047131E0,8.687203407E0
2.249309727E1,6.312685013E0,4.979001999E0,9.578320503E0
2.251319498E1,7.002582550E0,4.916719913E0,1.068982315E1
2.253329238E1,6.830108166E0,4.854437351E0,1.114975452E1
2.255338977E1,6.125837326E0,4.859228134E0,1.119287395E1
2.257348717E1,5.383239269E0,4.691544533E0,1.131743813E1
2.259358457E1,5.191600800E0,3.905827761E0,1.208399105E1
2.261368196E1,5.138900280E0,2.808698654E0,1.363147068E1
2.263377936E1,4.075307846E0,1.936744452E0,1.292720032E1
2.265387675E1,2.628438950E0,1.495976329E0,1.002867126E1
2.267397457E1,1.698993206E0,1.682823658E0,6.761238098E0
2.269407248E1,2.312235594E0,2.190665245E0,5.007748127E0
2.271417040E1,4.401093006E0,2.142755508E0,6.344424725E0
2.273426826E1,4.956843853E0,1.759479046E0,8.174570084E0
2.275436566E1,3.883669615E0,1.309129000E0,9.707676888E0
2.277446306E1,2.911105394E0,8.923157454E-1,1.041673851E1
2.279456045E1,2.820077181E0,8.971067071E-1,1.014365387E1
2.281465785E1,2.891941547E0,1.299547076E0,8.509937286E0
2.283475524E1,2.427218676E0,1.840925217E0,6.799565792E0
2.285485264E1,1.996032476E0,2.406258106E0,5.735973358E0
2.287495004E1,1.737320781E0,3.024291754E0,5.285623550E0
2.289504774E1,1.938541055E0,3.512969255E0,5.846165180E0
2.291514566E1,1.909795284E0,3.786053896E0,6.756447315E0
2.293524358E1,1.703784108E0,4.035183430E0,7.724220753E0
2.295534149E1,1.881049514E0,4.255567551E0,8.519519806E0
2.297543889E1,2.240371227E0,4.451996803E0,9.008196831E0
2.299553628E1,2.532619715E0,4.538234234E0,9.367518425E0
2.301563368E1,2.638020754E0,4.384923458E0,9.645394325E0
2.303573108E1,2.666766405E0,4.169330597E0,9.755586624E0
2.305582847E1,2.992551565E0,4.183703423E0,9.712468147E0
2.307592587E1,3.361455202E0,4.260358810E0,9.750795364E0
2.309602326E1,3.428528547E0,4.207658291E0,1.035924721E1
2.311612087E1,3.509974957E0,4.035183430E0,1.135097504E1
2.313621878E1,3.811805248E0,3.661489010E0,1.217022896E1
2.315631670E1,4.099262714E0,3.359658718E0,1.247205925E1
2.317641462E1,4.017816544E0,3.100946903E0,1.195463562E1
2.319651201E1,3.984279633E0,2.971591234E0,1.060837650E1
2.321660941E1,4.195081711E0,2.803907633E0,9.113597870E0
2.323670680E1,4.310064793E0,2.741625309E0,7.843994617E0
2.325680420E1,4.453793526E0,2.775161982E0,6.607927322E0
2.327690160E1,4.463375568E0,2.962009192E0,5.434143066E0
2.329699899E1,4.314855576E0,3.024291754E0,5.084403038E0
2.331709639E1,3.620167017E0,2.779952765E0,6.104876995E0
2.333719399E1,2.939851046E0,2.789534807E0,7.412808418E0
2.335729191E1,2.537410736E0,2.751207113E0,7.987723351E0
2.337738983E1,2.685930252E0,2.890144825E0,8.016469002E0
2.339748774E1,2.623647928E0,2.966800213E0,7.633192539E0
2.341758524E1,2.264326096E0,3.091365099E0,6.933712482E0
2.343768264E1,2.254744291E0,3.259048462E0,6.119249821E0
2.345778004E1,1.996032476E0,3.378822565E0,5.836583614E0
2.347787743E1,2.096642494E0,3.565669775E0,6.593554497E0
2.349797483E1,2.661975622E0,4.059138298E0,7.666728973E0
2.351807222E1,4.214245796E0,5.170640469E0,8.845304489E0
2.353816962E1,6.279148102E0,6.243814945E0,9.492083549E0
2.355826712E1,6.964254856E0,6.713328838E0,9.631021500E0
2.357836504E1,7.012164593E0,6.756447315E0,9.726840973E0
2.359846295E1,6.576187611E0,6.497735500E0,9.563947678E0
2.361856087E1,6.154583454E0,6.167159557E0,9.511247635E0
2.363865847E1,5.675487518E0,5.831792355E0,9.554366112E0
2.365875587E1,5.579668522E0,5.434143066E0,9.851405144E0
2.367885326E1,5.421566963E0,5.299996376E0,9.971179008E0
2.369895066E1,4.247782230E0,5.376651764E0,9.468129158E0
2.371904806E1,3.155444145E0,5.271250725E0,9.415428162E0
2.373914545E1,3.050043106E0,4.859228134E0,1.051734829E1
2.375924285E1,3.390201092E0,4.111838818E0,1.176778793E1
2.377934024E1,3.509974957E0,2.971591234E0,1.249122334E1
2.379943795E1,2.666766405E0,2.037354469E0,1.156656837E1
2.381953587E1,1.253434181E0,1.534304023E0,9.137553215E0
2.383963378E1,6.593554616E-1,1.615750313E0,6.871430397E0
2.385973165E1,2.082269669E0,1.563049793E0,6.804356575E0
2.387982904E1,3.394991875E0,1.323501945E0,8.169779778E0
2.389992644E1,3.519556761E0,7.725418210E-1,9.693304062E0
2.392002384E1,2.192461729E0,3.269828260E-1,1.012448978E1
2.394012123E1,9.228581190E-1,9.701687843E-2,9.746004105E0
2.396021863E1,6.497735381E-1,2.790732384E-1,8.596175194E0
2.398031602E1,1.205524564E0,6.336040497E-1,7.331362247E0
2.400041342E1,1.445072412E0,1.160609365E0,6.138413906E0
2.402051082E1,9.516038299E-1,1.864880085E0,4.926301479E0
2.404060847E1,6.449825764E-1,2.607478380E0,4.140584469E0
2.406070639E1,7.408017516E-1,3.383613348E0,3.987273932E0
2.408080430E1,1.411535740E0,4.083093166E0,4.485533714E0
2.410090217E1,1.531309605E0,4.495115280E0,5.089194298E0
2.412099957E1,1.114496350E0,4.576561928E0,5.539544106E0
2.414109696E1,5.156267285E-1,4.293895245E0,6.272560596E0
2.416119436E1,2.090055048E-1,3.747726202E0,7.369689941E0
2.418129175E1,5.443724990E-1,3.115319729E0,9.266908646E0
2.420138915E1,1.354044199E0,2.142755508E0,1.140846634E1
2.422148654E1,2.791331291E0,1.654077888E0,1.346857834E1
2.424158394E1,4.707714081E0,1.357038617E0,1.477171803E1
2.426168139E1,5.948572159E0,1.227682710E0,1.615630531E1
2.428177930E1,7.299622059E0,1.160609365E0,1.682703972E1
2.430187722E1,7.390650272E0,9.018976688E-1,1.678392029E1
2.432197514E1,7.481678486E0,7.102593780E-1,1.645813560E1
2.434207280E1,8.147621155E0,7.629598975E-1,1.598383045E1
2.436217019E1,8.487779617E0,7.246322632E-1,1.425429535E1
2.438226759E1,7.654152870E0,5.042482615E-1,1.191630840E1
2.440236498E1,6.657633781E0,2.599094212E-1,9.444173813E0
2.442246238E1,6.408504009E0,1.640902758E-1,6.770820141E0
2.444255977E1,6.595351219E0,4.707115293E-1,4.245985508E0
2.446265717E1,6.485159397E0,1.074372172E0,2.875771999E0
2.448275457E1,5.795261383E0,1.433693886E0,2.430212975E0
2.450285222E1,4.501703262E0,1.682823658E0,2.693715572E0
2.452295014E1,3.447692394E0,1.572631717E0,3.268630505E0
2.454304806E1,2.748212814E0,1.716360331E0,4.207658291E0
2.456314597E1,2.618856907E0,1.821761489E0,5.204176903E0
2.458324337E1,2.863195658E0,1.946326375E0,6.143204689E0
2.460334076E1,3.332709551E0,2.157128334E0,6.823520660E0
2.462343816E1,3.227308512E0,2.334393740E0,7.072650433E0
2.464353556E1,3.165025949E0,2.626642227E0,6.837893486E0
2.466363295E1,3.591421127E0,2.861399174E0,6.847475529E0
2.468373035E1,4.233409405E0,3.009918690E0,7.384062767E0
2.470382774E1,4.837069988E0,3.191975117E0,8.246435165E0
2.472392514E1,5.584459305E0,3.647116184E0,9.659767151E0
2.474402306E1,7.261294365E0,4.274731636E0,1.087666988E1
2.476412097E1,9.144140244E0,4.744245052E0,1.041194725E1
2.478421889E1,9.771756172E0,5.022120953E0,8.529101372E0
2.480431655E1,8.856682777E0,5.007748127E0,6.583972931E0
2.482441394E1,7.922446251E0,4.672380924E0,5.855747223E0
2.484451134E1,7.160684109E0,4.212449074E0,6.694164753E0
2.486460873E1,6.465995312E0,3.929782629E0,8.538682938E0
2.488470613E1,5.689860344E0,3.963319302E0,1.019156361E1
2.490480352E1,5.172437191E0,4.174121380E0,1.063712215E1
2.492490092E1,5.028708458E0,4.519070148E0,1.080959702E1
2.494499832E1,5.268256187E0,5.060448647E0,1.123120117E1
2.496509571E1,6.504323006E0,5.117939949E0,1.202170944E1
2.498519358E1,7.079237938E0,4.356177807E0,1.259183311E1
2.500529149E1,5.033499241E0,3.172811270E0,1.171029663E1
2.502538941E1,2.111015558E0,2.305648088E0,9.971179008E0
2.504548701E1,7.006774843E-2,2.181083202E0,8.136242867E0
2.506558441E1,5.090392008E-2,2.305648088E0,7.336153030E0
2.508568180E1,1.229479313E0,2.530822992E0,7.705056667E0
2.510577920E1,2.321817636E0,2.593105555E0,8.677620888E0
2.512587660E1,3.380619049E0,2.583523512E0,9.726840973E0
2.514597399E1,4.338810444E0,2.597896576E0,1.070898724E1
2.516607139E1,4.870606899E0,2.607478380E0,1.085750675E1
2.518616879E1,4.405883789E0,3.014709711E0,9.429800987E0
2.520626618E1,3.476438284E0,3.354867697E0,7.441554070E0
2.522636404E1,2.609275103E0,3.896245956E0,5.721600533E0
2.524646196E1,1.900213361E0,4.696335793E0,4.523861408E0
2.526655988E1,1.780439377E0,5.577871799E0,4.135793686E0
2.528665759E1,2.187670708E0,6.277351379E0,4.044765472E0
2.530675498E1,2.743421793E0,6.742074490E0,3.896245956E0
2.532685238E1,2.987760544E0,6.866639137E0,3.623161316E0
2.534694977E1,2.867986679E0,6.995995045E0,3.570460796E0
2.536704717E1,2.523037672E0,6.957667351E0,3.618370295E0
2.538714457E1,2.091851711E0,6.852266312E0,4.327432156E0
2.540724196E1,1.847512841E0,6.962458611E0,5.515589237E0
2.542733936E1,3.112325430E0,7.221169949E0,7.197215080E0
2.544743675E1,4.980798721E0,7.019949913E0,8.965078354E0
2.546753457E1,5.579668522E0,6.981622219E0,1.021072769E1
2.548763248E1,5.158064365E0,6.976831436E0,1.043590260E1
2.550773040E1,4.937680244E0,6.440244198E0,9.726840973E0
2.552782816E1,5.402402878E0,5.850956440E0,9.496874809E0
2.554792556E1,5.675487518E0,5.252086639E0,9.947224617E0
2.556802295E1,5.824007034E0,4.701126575E0,1.037362003E1
2.558812035E1,5.512595177E0,4.169330597E0,9.851405144E0
2.560821774E1,4.875397682E0,3.819590569E0,8.026050568E0
2.562831514E1,4.559194565E0,3.714189529E0,5.817419529E0
2.564841254E1,4.563985348E0,3.824381590E0,4.183703423E0
2.566850993E1,4.597522259E0,3.901036739E0,3.714189529E0
2.568860733E1,4.281319141E0,4.073511124E0,3.594415665E0
2.570870488E1,4.075307846E0,4.451996803E0,3.536924124E0
2.572880280E1,4.013025284E0,4.787364006E0,3.211138964E0
2.574890071E1,3.845341921E0,5.156267643E0,2.698506594E0
2.576899863E1,3.715986013E0,5.544334888E0,2.334393740E0
2.578909608E1,4.017816544E0,5.903656960E0,2.128382683E0
2.580919347E1,4.396302223E0,6.085713387E0,2.406258106E0
2.582929087E1,4.861024857E0,6.282142639E0,3.575251818E0
2.584938826E1,5.546131611E0,6.253396511E0,5.620990276E0
2.586948566E1,5.915035248E0,6.037803650E0,7.523000240E0
2.588958306E1,5.685069561E0,5.673690796E0,8.840513229E0
2.590968045E1,5.383239269E0,5.549126148E0,9.573530197E0
2.592977785E1,5.297001839E0,5.573081017E0,9.410637856E0
2.594987524E1,5.512595177E0,5.783883095E0,8.936332703E0
2.596997300E1,5.344911575E0,5.793464661E0,8.174570084E0
2.599007092E1,5.172437191E0,5.989893913E0,7.230751991E0
2.601016884E1,5.407194138E0,6.320470333E0,6.636673450E0
2.603026727E1,5.977317810E0,6.732492447E0,6.651046276E0
2.605036066E1,6.499532223E0,6.933712482E0,7.139723778E0
2.607046170E1,6.389339924E0,7.087023258E0,7.364898682E0
2.609055910E1,6.303102970E0,7.125350952E0,7.920650005E0
2.611065649E1,6.130628586E0,6.665419102E0,8.965078354E0
2.613075389E1,6.145001411E0,5.577871799E0,1.093895245E1
2.615085128E1,6.207283974E0,4.289104462E0,1.302301884E1
2.617094868E1,5.071826935E0,3.235093832E0,1.279305363E1
2.619104608E1,2.733839989E0,2.866190195E0,9.793913841E0
2.621114347E1,1.421117663E0,2.933263540E0,6.612718582E0
2.623124087E1,1.627128839E0,3.302167177E0,4.854437351E0
2.625133842E1,3.955533981E0,3.455477715E0,5.712018490E0
2.627143634E1,5.565295696E0,3.292585373E0,7.470299721E0
2.629153425E1,5.929408073E0,2.851817131E0,8.356626511E0
2.631163217E1,5.047872066E0,2.597896576E0,8.347044945E0
2.633172962E1,4.003443718E0,2.324811935E0,8.160197258E0
2.635182701E1,2.695512295E0,2.348766804E0,7.772130013E0
2.637192441E1,1.358835220E0,2.516450167E0,7.072650433E0
2.639202181E1,2.808698714E-1,3.009918690E0,6.392334461E0
2.641211920E1,1.736721955E-2,3.393195391E0,6.536063194E0
2.643221660E1,5.779091716E-1,4.011229038E0,6.799565792E0
2.645231399E1,1.018677235E0,4.538234234E0,6.957667351E0
2.647241139E1,1.785230398E0,4.887973785E0,7.700265884E0
2.649250879E1,3.150653124E0,5.256877899E0,8.998615265E0
2.651260634E1,3.888460636E0,5.683272839E0,1.018198109E1
2.653270425E1,4.348392487E0,5.774301052E0,1.087666988E1
2.655280217E1,5.220346451E0,5.918029785E0,1.037841034E1
2.657290009E1,6.595351219E0,6.349215984E0,8.773440361E0
2.659299748E1,7.246921539E0,7.369689941E0,6.171950340E0
2.661309488E1,7.285249233E0,7.863158226E0,5.002956867E0
2.663319227E1,7.400232315E0,7.369689941E0,6.157577515E0
2.665328967E1,6.873226643E0,7.010367870E0,7.661938190E0
2.667338707E1,7.107983589E0,6.377961636E0,9.506456375E0
2.669348446E1,8.138039589E0,5.553916931E0,1.059400368E1
2.671358186E1,8.717744827E0,4.772991180E0,1.060358620E1
2.673367925E1,8.574016571E0,4.001646996E0,9.295654297E0
2.675377665E1,7.749971867E0,3.436313868E0,6.804356575E0
2.677387457E1,6.547441959E0,2.938054323E0,4.835273266E0
2.679397248E1,5.344911575E0,2.813489437E0,3.671070814E0
2.681407040E1,4.468166351E0,2.923681498E0,3.465059757E0
2.683416795E1,4.487329960E0,2.971591234E0,3.833963394E0
2.685426535E1,4.741250992E0,3.043455601E0,4.710708618E0
2.687436274E1,4.185499668E0,3.009918690E0,5.256877899E0
2.689446014E1,3.404573917E0,2.942845345E0,5.975521088E0
2.691455754E1,2.776958466E0,2.880563021E0,6.675001144E0
2.693465493E1,2.455964327E0,3.110528946E0,6.890594006E0
2.695475233E1,2.364936113E0,3.460268736E0,6.583972931E0
2.697484972E1,1.813976169E0,3.776471853E0,5.769510269E0
2.699494712E1,1.387580991E0,3.987273932E0,5.276041508E0
2.701504451E1,2.005614519E0,4.303477287E0,5.735973358E0
2.703514227E1,3.136280298E0,4.399296284E0,7.077441216E0
2.705524019E1,3.998652458E0,4.557397842E0,8.418909073E0
2.707533811E1,4.928098202E0,4.576561928E0,9.238162994E0
2.709543576E1,5.689860344E0,4.768199921E0,9.496874809E0
2.711553316E1,5.742560863E0,4.916719913E0,9.089643478E0
2.713563056E1,5.498222351E0,4.940674305E0,8.208106995E0
2.715572795E1,5.546131611E0,5.007748127E0,7.523000240E0
2.717582535E1,5.474267483E0,5.232923031E0,6.794775009E0
2.719592274E1,4.985589504E0,5.410188198E0,6.416289330E0
2.721602014E1,4.171126842E0,5.376651764E0,6.909758091E0
2.723611754E1,3.433319569E0,5.122730732E0,7.973350525E0
2.725621493E1,3.188980818E0,4.926301479E0,9.223790169E0
2.727631233E1,3.591421127E0,4.370550632E0,1.084792423E1
2.729640972E1,4.405883789E0,3.603997469E0,1.332964039E1
2.731650712E1,4.961635113E0,2.698506594E0,1.582572937E1
2.733660488E1,4.195081711E0,1.864880085E0,1.593592072E1
2.735670280E1,2.570947409E0,1.491185427E0,1.353086090E1
2.737680071E1,2.130179405E0,1.582213521E0,1.010532665E1
2.739689832E1,2.973387718E0,1.955908179E0,7.637983322E0
2.741699571E1,4.880188465E0,2.372721434E0,7.374480724E0
2.743709311E1,6.053973198E0,2.516450167E0,8.121870041E0
2.745719050E1,5.895871639E0,2.267320395E0,8.921959877E0
2.747728790E1,4.678968430E0,1.922371507E0,9.132761955E0
2.749738530E1,3.783059597E0,1.582213521E0,8.888422966E0
2.751748269E1,3.155444145E0,1.495976329E0,7.925440788E0
2.753758009E1,2.580529213E0,1.625332236E0,6.497735500E0
2.755767748E1,2.230789423E0,1.840925217E0,5.506007195E0
2.757777488E1,1.722947955E0,2.267320395E0,4.758618355E0
2.759787227E1,1.382789969E0,2.765579939E0,4.217239857E0
2.761796967E1,1.588801146E0,3.225511789E0,4.543025017E0
2.763806754E1,2.096642494E0,3.407568216E0,5.587453842E0
2.765816545E1,2.364936113E0,3.618370295E0,6.775610924E0
2.767826337E1,2.494292021E0,3.929782629E0,7.867949486E0
2.769836087E1,3.318336725E0,4.380132675E0,9.113597870E0
2.771845826E1,4.372347355E0,4.629262447E0,1.022989082E1
2.773855566E1,5.282629013E0,4.720290661E0,1.079043293E1
2.775865306E1,5.555713654E0,4.820900440E0,1.024426365E1
2.777875045E1,5.570086479E0,5.041284561E0,9.578320503E0
2.779884785E1,5.699442387E0,5.041284561E0,9.099225044E0
2.781894524E1,5.919826508E0,5.285623550E0,8.596175194E0
2.783904264E1,6.403713226E0,5.506007195E0,8.471610069E0
2.785914004E1,7.428977966E0,5.400606155E0,8.993824005E0
2.787923743E1,8.195530891E0,5.084403038E0,1.011969948E1
2.789933483E1,8.037429810E0,4.499906540E0,1.096290779E1
2.791943248E1,6.854063034E0,3.833963394E0,1.040715694E1
2.793953040E1,5.330538750E0,3.393195391E0,8.577011108E0
2.795962832E1,4.918516159E0,3.316540003E0,6.909758091E0
2.797972602E1,5.651532650E0,3.589624643E0,6.028221607E0
2.799982342E1,6.858853817E0,3.805217743E0,6.133622646E0
2.801992082E1,7.060074329E0,3.560878754E0,6.828311443E0
2.804001821E1,6.006063461E0,2.966800213E0,7.398435593E0
2.806011561E1,4.147172451E0,2.502077341E0,7.752966404E0
2.808021300E1,3.064415932E0,2.291275263E0,7.824830532E0
2.810031040E1,2.661975622E0,2.468540668E0,7.475090981E0
2.812040780E1,3.064415932E0,2.602687359E0,6.651046276E0
2.814050519E1,3.639330864E0,2.899726868E0,5.898865700E0
2.816060259E1,3.950742960E0,3.072201252E0,5.486843586E0
2.818069998E1,4.027398109E0,3.110528946E0,5.668900013E0
2.820079738E1,4.405883789E0,2.995545864E0,6.157577515E0
2.822089477E1,4.472957134E0,2.602687359E0,6.492944717E0
2.824099217E1,4.147172451E0,2.339184761E0,7.082232475E0
2.826108962E1,4.199872971E0,2.324811935E0,7.566119194E0
2.828118754E1,5.349702358E0,2.664969921E0,7.671520233E0
2.830128545E1,6.461204529E0,3.124901772E0,6.746865273E0
2.832138332E1,7.088819981E0,3.853127241E0,5.659317970E0
2.834148071E1,7.639780045E0,4.715499401E0,4.658008099E0
2.836157811E1,8.655463219E0,5.496425629E0,4.729872227E0
2.838167550E1,9.479507446E0,5.913239002E0,5.774301052E0
2.840177290E1,9.139349937E0,5.918029785E0,6.675001144E0
2.842187030E1,8.497361183E0,5.783883095E0,8.059587479E0
2.844196769E1,7.884118557E0,5.371860504E0,9.937643051E0
2.846206509E1,6.863645077E0,4.844855309E0,1.136534786E1
2.848216248E1,5.603623390E0,4.389714241E0,1.191151714E1
2.850225988E1,4.319646835E0,3.896245956E0,1.091499805E1
2.852235727E1,3.150653124E0,3.556087971E0,8.984242439E0
2.854245571E1,2.561365366E0,3.441104889E0,7.067859650E0
2.856255311E1,3.165025949E0,3.493805408E0,6.272560596E0
2.858265050E1,4.520866871E0,3.824381590E0,6.411498547E0
2.860274790E1,6.312685013E0,4.116630077E0,7.647565365E0
2.862284530E1,7.836209297E0,4.111838818E0,1.060358620E1
2.864294269E1,8.047011375E0,3.407568216E0,1.341108704E1
2.866304009E1,7.582288265E0,2.823071480E0,1.249122334E1
2.868313748E1,7.395441055E0,2.799116611E0,6.124041080E0
2.870323488E1,7.989519596E0,3.393195391E0,8.827338219E-1
2.872333227E1,7.467305660E0,3.929782629E0,-2.787139177E0
2.874342967E1,6.580978394E0,4.471160889E0,-4.329827309E0
2.876352707E1,5.709024429E0,4.576561928E0,-3.438709497E0
2.878362446E1,5.086199760E0,4.375341415E0,-7.941011190E-1
2.880372186E1,5.316165924E0,4.466369629E0,5.617397428E-1
2.882381925E1,5.493431091E0,4.744245052E0,7.294232249E-1
2.884391665E1,5.847961903E0,5.170640469E0,1.179773211E0
2.886401404E1,6.259984493E0,5.496425629E0,1.472021580E0
2.888411144E1,6.523487091E0,5.922820568E0,1.572631717E0
2.890420899E1,7.175056934E0,6.258187771E0,2.109218836E0
2.892430691E1,7.726016998E0,6.200695992E0,3.043455601E0
2.894440483E1,7.443350792E0,5.970730305E0,3.891454935E0
2.896450254E1,6.925927162E0,5.688063622E0,4.849646091E0
2.898459993E1,6.983418941E0,5.400606155E0,6.037803650E0
2.900469733E1,7.860164165E0,5.458097935E0,7.077441216E0
2.902479472E1,9.048321724E0,5.319159985E0,8.624920845E0
2.904489212E1,9.383687973E0,4.883183002E0,9.741213799E0
2.906498951E1,8.928547859E0,4.495115280E0,9.966388702E0
2.908508691E1,8.377587318E0,4.202867031E0,9.305236816E0
2.910518430E1,7.778717518E0,3.771681070E0,8.658456802E0
2.912528170E1,6.834898949E0,3.316540003E0,7.848785400E0
2.914537910E1,5.661114693E0,2.990754843E0,6.636673450E0
2.916547649E1,5.411984921E0,2.918890715E0,5.074821472E0
2.918557389E1,5.718605995E0,2.645806074E0,5.007748127E0
2.920567128E1,5.910244465E0,2.070891142E0,5.735973358E0
2.922576868E1,5.114945412E0,1.467230558E0,6.607927322E0
2.924586608E1,3.835760117E0,9.737620354E-1,6.861848354E0
2.926596347E1,2.709885120E0,5.042482615E-1,7.096605301E0
2.928606087E1,1.871467590E0,3.413556814E-1,7.896695137E0
2.930615826E1,1.948122978E0,2.167908102E-1,8.351836205E0
2.932625566E1,2.465546370E0,2.551184595E-1,8.735112190E0
2.934635306E1,2.355354309E0,1.353445351E-1,8.898005486E0
2.936645045E1,1.948122978E0,1.592993289E-1,8.677620888E0
2.938654785E1,1.794812322E0,2.024179399E-1,8.188943863E0
2.940664576E1,2.154134035E0,1.928360164E-1,7.997304916E0
2.942674368E1,1.914586186E0,7.306209207E-2,8.337463379E0
2.944684149E1,1.655874491E0,-1.808586270E-1,1.037841034E1
2.946693889E1,1.469027162E0,-7.078639269E-1,1.305655575E1
2.948703629E1,1.416326642E0,-6.887000799E-1,1.478130054E1
2.950713368E1,2.000823498E0,-6.695362329E-1,1.305655575E1
2.952723108E1,3.059624910E0,-1.233671457E-1,1.131743813E1
2.954732847E1,3.677658319E0,3.605195284E-1,9.817869186E0
2.956742587E1,3.874087572E0,8.587790728E-1,1.000950718E1
2.958752326E1,3.097952604E0,1.002507806E0,1.152824020E1
2.960762066E1,1.598383069E0,1.165400267E0,1.214627361E1
2.962771806E1,9.899315238E-1,1.424111962E0,1.247684956E1
2.964781545E1,1.090541601E0,1.380993366E0,1.280742645E1
2.966791285E1,1.401953816E0,1.112699747E0,1.302781010E1
2.968801024E1,1.813976169E0,5.234120488E-1,1.298469162E1
2.970810764E1,1.186360717E0,2.407455891E-1,1.144679451E1
2.972820504E1,9.324400425E-1,2.647003829E-1,9.410637856E0
2.974830243E1,1.550473452E0,6.958864927E-1,7.590073586E0
2.976839983E1,2.858404875E0,1.151027441E0,7.206797123E0
2.978849722E1,3.787850380E0,1.395366192E0,7.729011536E0
2.980859462E1,4.334019661E0,1.270801425E0,8.500355721E0
2.982869201E1,4.391510963E0,1.083954096E0,9.305236816E0
2.984878941E1,3.807014227E0,7.869147062E-1,9.913687706E0
2.986888707E1,2.594902039E0,6.000673771E-1,9.444173813E0
2.988898498E1,1.756484628E0,6.431859732E-1,8.275180817E0
2.990908290E1,1.440281510E0,8.108695149E-1,7.211588383E0
2.992918040E1,1.210315585E0,1.074372172E0,6.282142639E0
2.994927780E1,8.989033103E-1,1.448066831E0,5.002956867E0
2.996937519E1,8.605756760E-1,2.128382683E0,4.332222939E0
2.998947259E1,8.222479820E-1,2.751207113E0,4.298686028E0
3.000956998E1,1.023468256E0,3.086574078E0,4.830482483E0
3.002966738E1,1.009095311E0,3.249466658E0,5.553916931E0
3.004976477E1,1.071377754E0,3.230302811E0,6.972040176E0
3.006986217E1,1.416326642E0,3.287794352E0,9.415428162E0
3.008995957E1,1.780439377E0,3.306958199E0,1.156656837E1
3.011005696E1,2.307444811E0,3.239884615E0,1.352127838E1
3.013015436E1,2.786540508E0,3.139274597E0,1.388539124E1
3.015025175E1,4.022607327E0,3.244675636E0,1.388539124E1
3.017034915E1,5.067036152E0,2.990754843E0,1.396683788E1
3.019044654E1,5.756933689E0,2.775161982E0,1.357397938E1
3.021054394E1,5.598832130E0,2.784743786E0,1.222292900E1
3.023064134E1,4.870606899E0,2.506868362E0,1.177257919E1
3.025073873E1,4.147172451E0,1.955908179E0,1.232833004E1
3.027083613E1,3.500392914E0,1.462439656E0,1.217022896E1
3.029093352E1,3.438110590E0,1.208518982E0,1.087187958E1
3.031103092E1,3.974697828E0,1.376202464E0,8.581801414E0
3.033112832E1,4.195081711E0,1.855298162E0,6.315679073E0
3.035122571E1,4.520866871E0,2.329602957E0,4.811318874E0
3.037132311E1,4.956843853E0,2.411049128E0,5.122730732E0
3.039142050E1,4.669386387E0,2.051727295E0,7.058277607E0
3.041151790E1,3.840550900E0,1.735524178E0,8.869258881E0
3.043161530E1,3.308754683E0,1.500767350E0,9.722049713E0
3.045171269E1,2.939851046E0,1.361829519E0,9.923270226E0
3.047181009E1,2.805704355E0,1.285174251E0,9.693304062E0
3.049190748E1,2.676348448E0,1.261219501E0,9.166298866E0
3.051200488E1,2.935060024E0,1.433693886E0,8.035633087E0
3.053210227E1,3.371037245E0,1.601377368E0,7.082232475E0
3.055219967E1,3.380619049E0,1.601377368E0,6.483362675E0
3.057229707E1,3.404573917E0,1.697196603E0,6.655837059E0
3.059239446E1,3.577048302E0,1.725942254E0,7.489463806E0
3.061249186E1,3.759104729E0,1.816970468E0,8.232062340E0
3.063258925E1,3.878878593E0,2.267320395E0,8.754276276E0
3.065268665E1,3.874087572E0,2.569150686E0,8.668039322E0
3.067278404E1,3.486020088E0,3.067410231E0,8.462027550E0
3.069288144E1,3.131489277E0,3.527342081E0,8.672829628E0
3.071297884E1,3.303963661E0,3.968110323E0,8.936332703E0
3.073307623E1,3.663285494E0,4.471160889E0,9.396265030E0
3.075317363E1,4.070517063E0,4.830482483E0,9.827450752E0
3.077327102E1,4.108844757E0,5.012538910E0,1.021551800E1
3.079336842E1,3.375828028E0,5.290414333E0,1.040236568E1
3.081346582E1,2.297862768E0,5.563498974E0,1.047422981E1
3.083356321E1,2.178088903E0,5.271250725E0,1.124557400E1
3.085366061E1,3.203353643E0,4.279522419E0,1.290324497E1
3.087375800E1,3.744731903E0,3.297376156E0,1.389976406E1
3.089385540E1,3.390201092E0,2.324811935E0,1.423513126E1
3.091395280E1,2.115806341E0,1.462439656E0,1.203129101E1
3.093405019E1,8.414118290E-1,1.333083868E0,7.944604397E0
3.095414759E1,5.060448647E-1,1.769060850E0,5.276041508E0
3.097424498E1,8.653666377E-1,2.286484241E0,4.222031116E0
3.099434238E1,2.225998402E0,2.516450167E0,5.146685600E0
3.101443977E1,3.509974957E0,2.468540668E0,6.837893486E0
3.103453717E1,4.290900707E0,1.965490103E0,8.998615265E0
3.105463457E1,4.314855576E0,1.385784388E0,1.105872631E1
3.107473196E1,2.911105394E0,9.210615158E-1,1.134618378E1
3.109482936E1,1.061795831E0,9.498072267E-1,1.031133747E1
3.111492675E1,3.527342081E-1,1.117490768E0,8.687203407E0
3.113502415E1,2.664969862E-1,1.457648635E0,7.388853550E0
3.115512155E1,5.252086520E-1,1.716360331E0,6.521690369E0
3.117521894E1,8.318299055E-1,2.042145491E0,6.488153458E0
3.119531634E1,1.124078274E0,2.228992701E0,6.962458611E0
3.121541373E1,1.195942640E0,2.597896576E0,7.144514561E0
3.123551113E1,9.755586386E-1,2.837444305E0,7.431972027E0
3.125560852E1,9.276490808E-1,3.206347942E0,7.944604397E0
3.127570592E1,8.701575994E-1,3.479432583E0,8.481191635E0
3.129580332E1,8.605756760E-1,3.623161316E0,9.329191208E0
3.131590108E1,1.200733662E0,3.671070814E0,1.091020679E1
3.133599899E1,1.742111802E0,3.838754416E0,1.203608227E1
3.135609670E1,2.882359505E0,4.102256775E0,1.268765163E1
3.137619358E1,3.763895750E0,4.375341415E0,1.274035263E1
3.139629045E1,4.204663754E0,4.677171707E0,1.242414951E1
3.141638806E1,4.492121220E0,4.830482483E0,1.213669205E1
3.143648597E1,4.750833035E0,4.897555828E0,1.187798023E1
3.145658389E1,5.234719276E0,4.504697323E0,1.245289516E1
3.147668102E1,5.225137711E0,3.843545437E0,1.282658958E1
3.149677790E1,5.292211056E0,3.053037405E0,1.267807007E1
3.151687483E1,4.813115120E0,2.444585800E0,1.095811653E1
3.153697222E1,4.544821739E0,2.171501398E0,8.706366539E0
3.155706962E1,4.501703262E0,2.310439110E0,6.675001144E0
3.157716701E1,4.822697163E0,2.669760942E0,5.673690796E0
3.159726441E1,5.397612095E0,2.688924551E0,6.152786732E0
3.161736180E1,4.899352551E0,2.343975782E0,6.636673450E0
3.163745920E1,3.270426989E0,1.927162528E0,6.804356575E0
3.165755660E1,1.799603224E0,1.740315199E0,7.259497643E0
3.167765399E1,1.004304409E0,1.668450832E0,7.350525856E0
3.169775139E1,8.030841947E-1,1.716360331E0,7.422390461E0
3.171784878E1,6.449825764E-1,1.960699201E0,6.866639137E0
3.173794618E1,4.629262388E-1,2.286484241E0,6.239023685E0
3.175804358E1,5.539544225E-1,2.669760942E0,6.100086212E0
3.177814097E1,9.084852338E-1,2.990754843E0,6.555226803E0
3.179823837E1,1.263016105E0,3.297376156E0,7.283452511E0
3.181833602E1,1.866676688E0,3.570460796E0,8.361417770E0
3.183843394E1,2.465546370E0,3.781262875E0,9.276490211E0
3.185853186E1,3.093161583E0,4.068720341E0,1.027300930E1
3.187862930E1,3.490811110E0,4.226821899E0,1.059879494E1
3.189872670E1,3.610584974E0,4.586143494E0,9.860987663E0
3.191882410E1,4.597522259E0,5.165849686E0,9.707676888E0
3.193892149E1,6.288730145E0,6.171950340E0,1.030175591E1
3.195901889E1,6.188119888E0,6.909758091E0,9.822659492E0
3.197911629E1,5.910244465E0,7.178051472E0,8.902795792E0
3.199921368E1,6.283938885E0,7.700265884E0,8.759067535E0
3.201931108E1,5.924617290E0,8.073960304E0,8.342253685E0
3.203940847E1,4.976007938E0,8.145824432E0,8.399745941E0
3.205950587E1,4.583149433E0,7.700265884E0,9.041733742E0
3.207960326E1,4.846652031E0,6.727701664E0,9.908897400E0
3.209970066E1,5.392820835E0,5.237713814E0,1.104435349E1
3.211979806E1,4.980798721E0,3.877082109E0,1.141804886E1
3.213989545E1,3.179399014E0,2.799116611E0,9.674139977E0
3.215999285E1,1.181569815E0,2.161919355E0,6.976831436E0
3.218009024E1,-2.461354136E-1,2.257738590E0,4.610098362E0
3.220018764E1,-6.677396297E-1,2.641015053E0,3.493805408E0
3.222028504E1,2.137964666E-1,3.182393312E0,3.675861835E0
3.224038243E1,1.914586186E0,3.517760277E0,5.429352283E0
3.226047983E1,3.514765978E0,3.996855974E0,7.978141308E0
3.228057722E1,5.043081284E0,3.757308006E0,1.087187958E1
3.230067462E1,4.362765312E0,3.359658718E0,1.164801407E1
3.232077201E1,2.340981483E0,3.129692793E0,1.061316776E1
3.234086993E1,1.239061236E0,2.880563021E0,9.228581429E0
3.236096785E1,7.982932329E-1,3.053037405E0,7.738593578E0
3.238106571E1,7.599655390E-1,3.426732063E0,6.114459038E0
3.240116311E1,1.124078274E0,3.920200586E0,4.959838390E0
3.242126050E1,1.914586186E0,4.509488583E0,4.634053230E0
3.244135790E1,3.011715412E0,5.276041508E0,4.749036312E0
3.246145530E1,3.739940882E0,5.850956440E0,4.897555828E0
3.248155269E1,3.869296789E0,6.195905209E0,5.405397415E0
3.250165009E1,4.008234501E0,6.358798027E0,6.742074490E0
3.252174748E1,4.171126842E0,6.234232903E0,8.289553642E0
3.254184488E1,4.099262714E0,6.171950340E0,9.175880432E0
3.256194227E1,3.850132942E0,6.167159557E0,9.137553215E0
3.258203967E1,3.926788092E0,6.248605728E0,8.629711151E0
3.260213707E1,4.573567390E0,6.239023685E0,8.045214653E0
3.262223446E1,5.728188038E0,6.061758518E0,7.968559265E0
3.264233186E1,6.451622486E0,5.482052803E0,8.323090553E0
3.266242925E1,6.283938885E0,4.490324497E0,8.639293671E0
3.268252665E1,5.258674145E0,3.397986412E0,9.851405144E0
3.270262404E1,3.955533981E0,2.502077341E0,1.174862480E1
3.272272144E1,3.093161583E0,1.869670987E0,1.341108704E1
3.274281931E1,2.417636633E0,1.380993366E0,1.380873585E1
3.276291722E1,2.609275103E0,1.313920021E0,1.222772026E1
3.278301514E1,3.648912668E0,1.395366192E0,9.904106140E0
3.280311264E1,4.635849953E0,1.610959291E0,8.217689514E0
3.282321004E1,4.750833035E0,1.539094925E0,7.800875664E0
3.284330743E1,3.538720608E0,1.203727961E0,8.160197258E0
3.286340483E1,1.943331957E0,1.103117824E0,8.984242439E0
3.288350222E1,1.306134701E0,1.170191288E0,9.377100945E0
3.290359962E1,1.368417144E0,1.395366192E0,9.458546638E0
3.292369701E1,2.029569149E0,1.601377368E0,8.826140404E0
3.294379441E1,2.427218676E0,2.090054989E0,8.169779778E0
3.296389180E1,2.753003597E0,2.324811935E0,7.877531052E0
3.298398920E1,2.676348448E0,2.593105555E0,7.657146931E0
3.300408660E1,2.523037672E0,2.875771999E0,7.508627415E0
3.302418399E1,2.623647928E0,3.268630505E0,7.158887863E0
3.304428269E1,3.040461063E0,3.714189529E0,7.015159130E0
3.306438009E1,3.509974957E0,4.006437778E0,7.523000240E0
3.308447748E1,3.591421127E0,4.222031116E0,7.963768482E0
3.310457488E1,3.303963661E0,4.447206020E0,7.901485920E0
3.312467227E1,3.073997736E0,4.658008099E0,8.016469002E0
3.314476967E1,3.294381857E0,5.017329693E0,8.217689514E0
3.316486707E1,4.300482750E0,5.400606155E0,8.596175194E0
3.318496446E1,5.167645931E0,5.898865700E0,9.084852219E0
3.320506186E1,4.664595604E0,6.382752419E0,9.784332275E0
3.322515925E1,4.415465832E0,6.478571892E0,1.074252319E1
3.324525665E1,4.027398109E0,6.425871372E0,1.148512173E1
3.326535404E1,4.022607327E0,5.937193394E0,1.228042030E1
3.328545170E1,4.861024857E0,4.772991180E0,1.227563000E1
3.330554962E1,4.765205860E0,3.445895910E0,1.073773289E1
3.332564754E1,2.997342587E0,2.645806074E0,7.628401279E0
3.334574530E1,1.512145877E0,2.583523512E0,4.787364006E0
3.336584269E1,1.272598028E0,3.177602291E0,3.153647423E0
3.338594009E1,2.982969761E0,3.733353376E0,3.259048462E0
3.340603748E1,4.966425896E0,3.915409565E0,5.050866604E0
3.342613488E1,6.044391155E0,3.671070814E0,7.570909977E0
3.344623227E1,5.929408073E0,2.957218170E0,9.319609642E0
3.346632967E1,4.535239697E0,2.506868362E0,9.755586624E0
3.348642707E1,3.030879259E0,2.200247049E0,9.578320503E0
3.350652446E1,2.221207380E0,2.291275263E0,8.620129585E0
3.352662186E1,1.722947955E0,2.813489437E0,7.072650433E0
3.354671925E1,1.492982030E0,3.426732063E0,5.568289757E0
3.356681665E1,1.401953816E0,3.982483149E0,4.830482483E0
3.358691451E1,1.713366032E0,4.562189102E0,4.959838390E0
3.360701243E1,2.192461729E0,4.883183002E0,5.994685173E0
3.362711035E1,2.288280964E0,5.002956867E0,7.427181244E0
3.364720790E1,2.484710217E0,5.055657387E0,9.209417343E0
3.366730530E1,2.939851046E0,5.223340988E0,1.034487438E1
3.368740269E1,3.696822166E0,5.501216412E0,1.077606010E1
3.370750009E1,4.252573490E0,5.731182575E0,1.069940472E1
3.372759748E1,4.717296124E0,6.066549301E0,9.932851791E0
3.374769488E1,5.191600800E0,6.320470333E0,9.573530197E0
3.376779227E1,5.445521832E0,6.243814945E0,9.784332275E0
3.378788967E1,5.287419796E0,6.033012867E0,1.001429844E1
3.380798707E1,5.627577782E0,5.697645664E0,1.053172112E1
3.382808446E1,5.838379860E0,5.079612255E0,1.160968685E1
3.384818186E1,5.589250088E0,4.404087067E0,1.206482792E1
3.386827925E1,4.932888985E0,3.757308006E0,1.148512173E1
3.388837701E1,4.305274010E0,3.239884615E0,1.006220722E1
3.390847493E1,4.036980152E0,2.732043266E0,8.821350098E0
3.392857285E1,3.668076515E0,2.372721434E0,7.398435593E0
3.394867056E1,3.303963661E0,2.401467323E0,5.721600533E0
3.396876795E1,3.830969095E0,2.890144825E0,4.806527615E0
3.398886535E1,4.813115120E0,3.191975117E0,5.180222511E0
3.400896274E1,4.961635113E0,3.191975117E0,5.913239002E0
3.402906014E1,4.367556095E0,3.177602291E0,6.564808846E0
3.404915754E1,3.442901611E0,3.144065619E0,7.187633514E0
3.406925493E1,2.963805914E0,3.259048462E0,7.331362247E0
3.408935233E1,3.284800053E0,3.594415665E0,7.144514561E0
3.410944972E1,3.778268576E0,3.910618782E0,6.320470333E0
3.412954712E1,4.036980152E0,4.360968590E0,5.424561024E0
3.414964451E1,4.171126842E0,4.605307579E0,5.232923031E0
3.416974191E1,4.348392487E0,4.691544533E0,5.549126148E0
3.418983930E1,4.233409405E0,4.811318874E0,6.210278034E0
3.420993670E1,4.429838657E0,4.864019394E0,6.924130917E0
3.423003457E1,4.626267910E0,5.084403038E0,7.403226376E0
3.425013248E1,4.937680244E0,5.285623550E0,7.681101799E0
3.427023040E1,4.755623817E0,5.419770241E0,7.729011536E0
3.429032785E1,4.635849953E0,5.573081017E0,7.628401279E0
3.431042524E1,5.172437191E0,5.759928226E0,7.954186440E0
3.433052264E1,6.006063461E0,6.176741600E0,8.351836205E0
3.435062004E1,6.624096870E0,6.545645237E0,8.993824005E0
3.437071743E1,6.686379433E0,6.722910404E0,9.597484589E0
3.439081483E1,5.498222351E0,6.804356575E0,9.813077927E0
3.441091222E1,4.635849953E0,6.804356575E0,1.021551800E1
3.443100962E1,4.846652031E0,6.665419102E0,1.100602627E1
3.445110701E1,5.627577782E0,5.769510269E0,1.147554016E1
3.447120441E1,6.073136806E0,4.404087067E0,1.148991299E1
3.449130180E1,4.659804821E0,3.259048462E0,9.209417343E0
3.451139920E1,2.805704355E0,2.511659145E0,6.315679073E0
3.453149707E1,1.449863434E0,2.554777861E0,4.365759850E0
3.455159498E1,1.622337818E0,3.053037405E0,3.819590569E0
3.457169290E1,3.165025949E0,3.460268736E0,4.298686028E0
3.459179045E1,4.985589504E0,3.532133102E0,5.827001572E0
3.461188785E1,6.643260956E0,3.450686932E0,7.824830532E0
3.463198524E1,6.997791767E0,3.148856640E0,9.022569656E0
3.465208264E1,5.804843426E0,2.938054323E0,8.854886055E0
3.467218004E1,3.725568056E0,2.880563021E0,7.752966404E0
3.469227743E1,2.628438950E0,3.306958199E0,6.655837059E0
3.471237483E1,1.766066551E0,3.982483149E0,5.750346184E0
3.473247222E1,1.387580991E0,4.725081444E0,5.304787159E0
3.475256962E1,1.607964993E0,5.443725109E0,5.740764141E0
3.477266701E1,2.225998402E0,5.721600533E0,7.479881763E0
3.479276441E1,2.479919195E0,5.740764141E0,9.477710724E0
3.481286181E1,2.355354309E0,5.836583614E0,9.769959450E0
3.483295925E1,2.187670708E0,6.320470333E0,8.658456802E0
3.485305717E1,3.481229305E0,6.612718582E0,7.987723351E0
3.487315509E1,4.420256615E0,6.727701664E0,7.705056667E0
3.489325300E1,4.516076088E0,6.574390888E0,7.340943813E0
3.491335045E1,4.022607327E0,6.502526283E0,6.775610924E0
3.493344785E1,3.912415266E0,6.416289330E0,6.531272411E0
3.495354524E1,3.974697828E0,6.262978554E0,6.866639137E0
3.497364264E1,4.271737099E0,5.985103130E0,7.614028454E0
3.499374004E1,4.266946316E0,5.884492874E0,8.241643906E0
3.501383743E1,4.137590408E0,5.889284134E0,8.318299294E0
3.503393483E1,4.305274010E0,5.894074917E0,8.519519806E0
3.505403222E1,4.587940216E0,5.731182575E0,9.032152176E0
3.507412962E1,4.487329960E0,5.271250725E0,9.975970268E0
3.509422701E1,3.505183935E0,4.547815800E0,1.054130363E1
3.511432462E1,2.058315039E0,4.159748554E0,1.035924721E1
3.513442254E1,1.622337818E0,3.910618782E0,1.034008312E1
3.515452045E1,1.996032476E0,3.575251818E0,1.055567646E1
3.517461832E1,2.235580444E0,3.321331024E0,9.769959450E0
3.519471571E1,2.288280964E0,3.378822565E0,7.781712055E0
3.521481311E1,2.427218676E0,3.690234661E0,5.812628746E0
3.523491050E1,3.117116451E0,4.111838818E0,5.026911736E0
3.525500790E1,4.084889889E0,4.269940376E0,5.491634369E0
3.527510530E1,4.434629440E0,4.188494205E0,6.454617023E0
3.529520269E1,3.945951939E0,3.977692127E0,7.570909977E0
3.531530009E1,3.155444145E0,3.824381590E0,8.011677742E0
3.533539748E1,2.494292021E0,3.829172373E0,7.834412575E0
3.535549488E1,2.403263807E0,3.992064953E0,7.302616119E0
3.537559227E1,2.719466925E0,4.193284988E0,6.842684269E0
3.539568967E1,3.064415932E0,4.552607059E0,6.459407806E0
3.541578738E1,3.371037245E0,4.782572746E0,6.119249821E0
3.543588530E1,3.759104729E0,5.093985081E0,6.358798027E0
3.545598321E1,4.310064793E0,5.165849686E0,7.077441216E0
3.547608082E1,4.607104301E0,5.194595337E0,7.982932091E0
3.549617821E1,4.904143333E0,5.175431252E0,8.759067535E0
3.551627561E1,5.196392059E0,5.242504597E0,8.826140404E0
3.553637300E1,5.555713654E0,5.405397415E0,7.834412575E0
3.555646957E1,5.627577782E0,5.553916931E0,6.957667351E0
3.557656748E1,5.522176743E0,5.678482056E0,6.646255016E0
3.559666540E1,5.263465405E0,5.702436447E0,6.732492447E0
3.561676321E1,5.364075184E0,5.683272839E0,7.374480724E0
3.563686061E1,5.665905476E0,5.740764141E0,8.117078781E0
3.565695800E1,5.584459305E0,5.927611828E0,8.404536247E0
3.567705540E1,4.750833035E0,6.186323166E0,8.112288475E0
3.569715280E1,3.466856241E0,6.363588810E0,7.776921272E0
3.571725019E1,2.963805914E0,6.588763714E0,8.323090553E0
3.573734759E1,3.859714746E0,6.746865273E0,1.001429844E1
3.575744498E1,4.937680244E0,6.569600105E0,1.139888477E1
3.577754238E1,5.934199333E0,5.400606155E0,1.261099720E1
3.579763977E1,5.680278301E0,4.126211643E0,1.240019512E1
3.581773717E1,3.960325003E0,3.311748981E0,9.702885628E0
3.583783457E1,2.527828693E0,2.794325829E0,6.636673450E0
3.585793196E1,1.655874491E0,3.000336885E0,4.614889622E0
3.587802936E1,2.091851711E0,3.465059757E0,4.073511124E0
3.589812675E1,3.601003170E0,3.877082109E0,4.801736832E0
3.591822415E1,4.449002743E0,3.987273932E0,6.545645237E0
3.593832196E1,4.961635113E0,3.800426722E0,8.974659920E0
3.595841988E1,4.774787426E0,3.369240522E0,1.114496422E1
3.597851780E1,3.974697828E0,3.177602291E0,1.154740429E1
3.599861530E1,2.743421793E0,3.019500732E0,1.068503189E1
3.601871269E1,1.871467590E0,3.196766138E0,9.003406525E0
3.603881009E1,1.962495804E0,3.757308006E0,7.154096603E0
3.605890748E1,2.350563288E0,4.255567551E0,5.865329266E0
3.607900488E1,2.776958466E0,4.629262447E0,5.438933849E0
3.609910227E1,2.858404875E0,4.816109657E0,5.467679977E0
3.611919967E1,2.614065886E0,4.959838390E0,5.510798454E0
3.613929707E1,2.638020754E0,5.084403038E0,5.994685173E0
3.615939446E1,2.800913334E0,5.333532810E0,6.536063194E0
3.617949186E1,3.016506433E0,5.453306675E0,6.924130917E0
3.619958925E1,2.753003597E0,5.616199493E0,7.072650433E0
3.621968665E1,2.374518156E0,5.673690796E0,7.455926895E0
3.623978404E1,2.441591501E0,5.721600533E0,8.155406952E0
3.625988144E1,2.786540508E0,5.874911308E0,8.586592674E0
3.627997884E1,2.781749487E0,5.860538483E0,8.797394753E0
3.630007660E1,2.748212814E0,6.047385693E0,8.907587051E0
3.632017451E1,3.188980818E0,6.114459038E0,9.463337898E0
3.634027243E1,3.715986013E0,6.229442120E0,1.014365387E1
3.636036998E1,3.936370134E0,6.224650860E0,1.012928104E1
3.638046738E1,4.496912003E0,6.195905209E0,1.028259182E1
3.640056477E1,5.330538750E0,5.846165180E0,1.092937088E1
3.642066217E1,5.598832130E0,5.089194298E0,1.143721199E1
3.644075957E1,4.717296124E0,4.356177807E0,1.094374371E1
3.646085696E1,3.969906807E0,3.795635700E0,9.717258453E0
3.648095436E1,3.950742960E0,3.330912828E0,8.682412148E0
3.650105175E1,3.586630344E0,3.177602291E0,7.235542774E0
3.652114915E1,3.366246223E0,3.330912828E0,5.702436447E0
3.654124654E1,3.624957800E0,3.848336220E0,4.571770668E0
3.656134394E1,4.669386387E0,4.231612682E0,4.892765045E0
3.658144134E1,5.297001839E0,4.375341415E0,6.018640041E0
3.660153873E1,5.287419796E0,4.399296284E0,7.489463806E0
3.662163613E1,4.650222778E0,4.322640896E0,8.553055763E0
3.664173352E1,3.907624483E0,4.226821899E0,8.850095749E0
3.666183092E1,3.624957800E0,4.183703423E0,8.811767578E0
3.668192832E1,3.835760117E0,4.226821899E0,8.308717728E0
3.670202571E1,3.945951939E0,4.198076248E0,6.952876568E0
3.672212347E1,3.644121647E0,4.284313202E0,5.472470760E0
3.674222139E1,3.462065458E0,4.346595764E0,4.686753750E0
3.676231931E1,3.294381857E0,4.404087067E0,4.772991180E0
3.678241681E1,3.356664419E0,4.384923458E0,6.056967258E0
3.680251420E1,4.051352978E0,4.322640896E0,7.676311016E0
3.682261160E1,4.650222778E0,4.485533714E0,8.270389557E0
3.684270899E1,5.182018757E0,4.749036312E0,8.035633087E0
3.686280639E1,5.536549568E0,5.098775864E0,7.508627415E0
3.688290378E1,5.627577782E0,5.276041508E0,6.890594006E0
3.690300118E1,5.637159824E0,5.395815372E0,6.627091408E0
3.692309858E1,5.464685440E0,5.520380497E0,6.588763714E0
3.694319597E1,5.474267483E0,5.688063622E0,6.737283230E0
3.696329337E1,5.617996216E0,5.812628746E0,7.355316639E0
3.698339076E1,5.737770081E0,5.913239002E0,8.160197258E0
3.700348816E1,5.632369041E0,6.119249821E0,8.730321884E0
3.702358556E1,5.052663326E0,6.191114426E0,8.701576233E0
3.704368295E1,4.171126842E0,6.377961636E0,8.596175194E0
3.706378076E1,4.142381191E0,6.425871372E0,9.075270653E0
3.708387868E1,4.995171547E0,6.210278034E0,1.008137131E1
3.710397654E1,5.756933689E0,5.525171280E0,1.117850018E1
3.712407394E1,6.077928066E0,4.538234234E0,1.167196941E1
3.714417134E1,4.702923298E0,3.618370295E0,9.765168190E0
3.716426873E1,2.724257946E0,2.918890715E0,6.588763714E0
3.718436613E1,1.377999067E0,2.880563021E0,4.543025017E0
3.720446352E1,1.267807007E0,3.057828426E0,3.857918262E0
3.722456092E1,2.350563288E0,3.412359238E0,4.279522419E0
3.724465832E1,4.415465832E0,3.397986412E0,6.310888290E0
3.726475571E1,6.140210152E0,3.637534142E0,8.222479820E0
3.728485311E1,7.749971867E0,3.330912828E0,1.050297546E1
3.730495050E1,7.060074329E0,2.751207113E0,1.100123501E1
3.732504790E1,4.477748394E0,2.430212975E0,9.798705101E0
3.734514530E1,2.518246889E0,2.291275263E0,8.366209030E0
3.736524269E1,1.306134701E0,2.741625309E0,7.273870468E0
3.738534009E1,8.557847142E-1,3.259048462E0,6.176741600E0
3.740543748E1,1.080959678E0,3.718980551E0,5.405397415E0
3.742553519E1,1.627128839E0,4.164539337E0,5.462888718E0
3.744563311E1,1.857094765E0,4.461578846E0,6.277351379E0
3.746573102E1,1.627128839E0,4.691544533E0,7.264288902E0
3.748582852E1,1.909795284E0,4.945465565E0,8.174570084E0
3.750592592E1,2.441591501E0,5.180222511E0,8.677620888E0
3.752602332E1,2.944642067E0,5.343114853E0,8.845304489E0
3.754612071E1,3.179399014E0,5.496425629E0,8.984242439E0
3.756621811E1,3.045252085E0,5.520380497E0,9.017779350E0
3.758631550E1,3.073997736E0,5.544334888E0,8.826140404E0
3.760641290E1,3.160235167E0,5.688063622E0,8.308717728E0
3.762651030E1,3.227308512E0,5.870120049E0,7.872740269E0
3.764660769E1,3.605794191E0,6.100086212E0,8.356626511E0
3.766670509E1,4.377138138E0,6.205487251E0,9.429800987E0
3.768680248E1,5.033499241E0,6.296515465E0,1.045506573E1
3.770689988E1,5.512595177E0,6.272560596E0,1.102039909E1
3.772699738E1,5.522176743E0,6.200695992E0,1.080480576E1
3.774709530E1,5.455103397E0,6.100086212E0,1.034008312E1
3.776719321E1,5.603623390E0,5.506007195E0,1.058921337E1
3.778729097E1,4.650222778E0,4.658008099E0,1.041673851E1
3.780738837E1,3.337500572E0,4.001646996E0,9.654975891E0
3.782748576E1,2.666766405E0,3.680652857E0,8.759067535E0
3.784758316E1,3.131489277E0,3.364449501E0,8.495564461E0
3.786768056E1,3.917206287E0,3.163229465E0,8.035633087E0
3.788777795E1,4.156754017E0,3.009918690E0,6.904966831E0
3.790787535E1,3.898042440E0,3.196766138E0,5.323951244E0
3.792797274E1,3.845341921E0,3.474641562E0,4.049556255E0
3.794807014E1,4.219036579E0,3.642325163E0,4.346595764E0
3.796816754E1,4.420256615E0,3.292585373E0,5.673690796E0
3.798826493E1,3.902833462E0,2.928472519E0,7.087023258E0
3.800836233E1,3.121907473E0,2.684133768E0,8.184152603E0
3.802845972E1,2.479919195E0,2.569150686E0,8.749485016E0
3.804855712E1,2.010405302E0,2.521241188E0,8.869258881E0
3.806865451E1,1.713366032E0,2.463749647E0,8.859677315E0
3.808875191E1,1.665456414E0,2.679342747E0,8.457237244E0
3.810884930E1,1.948122978E0,3.100946903E0,7.762548447E0
3.812894707E1,2.786540508E0,3.407568216E0,7.671520233E0
3.814904498E1,3.624957800E0,3.757308006E0,8.088333130E0
3.816914290E1,4.080098629E0,4.087883949E0,8.294344902E0
3.818924045E1,4.525657654E0,4.437623978E0,8.596175194E0
3.820933785E1,5.435939789E0,4.811318874E0,8.816558838E0
3.822943524E1,6.006063461E0,5.127521992E0,8.739903450E0
3.824953264E1,6.130628586E0,5.314369202E0,8.150615692E0
3.826963004E1,5.982108593E0,5.539544106E0,7.355316639E0
3.828972743E1,5.895871639E0,5.683272839E0,6.703746796E0
3.830982483E1,6.331848621E0,5.946775436E0,6.607927322E0
3.832992222E1,7.141520500E0,6.143204689E0,7.360107899E0
3.835001962E1,7.826627254E0,6.195905209E0,8.270389557E0
3.837011701E1,7.189429760E0,6.205487251E0,8.553055763E0
3.839021441E1,5.526968002E0,6.162368774E0,8.131451607E0
3.841031180E1,4.310064793E0,6.219860077E0,7.954186440E0
3.843040920E1,4.099262714E0,6.205487251E0,8.490774155E0
3.845050660E1,4.482539177E0,5.683272839E0,9.645394325E0
3.847060399E1,5.172437191E0,4.753827095E0,1.118808270E1
3.849070139E1,4.645431995E0,3.695025682E0,1.138930321E1
3.851079879E1,3.438110590E0,2.918890715E0,9.631021500E0
3.853089618E1,2.202043533E0,2.612269402E0,7.058277607E0
3.855099358E1,1.540891528E0,2.741625309E0,5.098775864E0
3.857109097E1,2.048732996E0,3.225511789E0,4.404087067E0
3.859118842E1,3.711195230E0,3.407568216E0,5.822210789E0
3.861128634E1,4.712505341E0,3.431523085E0,7.891903877E0
3.863138425E1,4.999962807E0,3.005127907E0,1.019635487E1
3.865148196E1,4.607104301E0,2.526032209E0,1.171029663E1
3.867157936E1,3.783059597E0,2.224201918E0,1.183965302E1
3.869167675E1,2.623647928E0,2.066100359E0,1.068982315E1
3.871177415E1,1.766066551E0,2.248156548E0,9.008196831E0
3.873187155E1,1.483400106E0,2.617060423E0,6.995995045E0
3.875196894E1,1.588801146E0,3.105737925E0,5.362278938E0
3.877206634E1,1.986450553E0,3.642325163E0,4.543025017E0
3.879216373E1,2.475128174E0,4.150166512E0,4.566979885E0
3.881226113E1,2.815286160E0,4.523861408E0,5.189804077E0
3.883235852E1,3.035670280E0,4.705917835E0,6.028221607E0
3.885245592E1,3.021297216E0,4.955047131E0,6.833102703E0
3.887255332E1,2.891941547E0,5.228131771E0,7.590073586E0
3.889265071E1,3.088370800E0,5.501216412E0,8.394954681E0
3.891274811E1,3.447692394E0,5.620990276E0,9.257327080E0
3.893284550E1,3.840550900E0,5.640154362E0,1.004304409E1
3.895294290E1,4.171126842E0,5.726391315E0,1.018198109E1
3.897304030E1,4.362765312E0,5.822210789E0,9.851405144E0
3.899313769E1,4.520866871E0,5.894074917E0,9.549574852E0
3.901323509E1,4.669386387E0,5.874911308E0,9.487293243E0
3.903333300E1,4.597522259E0,5.635363102E0,9.707676888E0
3.905343092E1,4.875397682E0,5.395815372E0,1.022510052E1
3.907352878E1,5.426357746E0,4.854437351E0,1.109705448E1
3.909362618E1,5.526968002E0,4.202867031E0,1.182528019E1
3.911372358E1,5.028708458E0,3.508178234E0,1.209357357E1
3.913382097E1,4.343601704E0,3.009918690E0,1.111621857E1
3.915391837E1,3.816596270E0,2.631433249E0,9.185461998E0
3.917401576E1,3.821387053E0,2.612269402E0,7.168469429E0
3.919411316E1,4.257364273E0,2.952427387E0,5.414979458E0
3.921421056E1,5.090990543E0,3.479432583E0,4.413669109E0
3.923430795E1,5.632369041E0,3.790844679E0,4.466369629E0
3.925440535E1,5.421566963E0,3.632743120E0,5.429352283E0
3.927450274E1,4.698132515E0,3.436313868E0,6.703746796E0
3.929460014E1,3.917206287E0,3.235093832E0,7.661938190E0
3.931469754E1,3.476438284E0,3.268630505E0,8.169779778E0
3.933479493E1,3.562675476E0,3.350076675E0,8.279971123E0
3.935489233E1,3.663285494E0,3.560878754E0,7.757757187E0
3.937498972E1,3.591421127E0,3.742935181E0,6.837893486E0
3.939508712E1,3.677658319E0,3.924991608E0,6.162368774E0
3.941518451E1,3.816596270E0,4.164539337E0,5.994685173E0
3.943528191E1,3.979488611E0,4.250776768E0,6.248605728E0
3.945537930E1,4.487329960E0,4.380132675E0,6.670209885E0
3.947547670E1,4.827487946E0,4.566979885E0,6.780402184E0
3.949557410E1,4.769996643E0,4.729872227E0,6.837893486E0
3.951567149E1,4.573567390E0,4.892765045E0,6.809147835E0
3.953576889E1,4.013025284E0,4.945465565E0,7.556537151E0
3.955586628E1,3.126698256E0,5.002956867E0,9.008196831E0
3.957596368E1,3.529138803E0,5.050866604E0,9.971179008E0
3.959606108E1,4.027398109E0,5.338324070E0,8.840513229E0
3.961615873E1,4.664595604E0,5.726391315E0,7.729011536E0
3.963625665E1,5.416775703E0,6.133622646E0,7.800875664E0
3.965635457E1,5.881498814E0,6.133622646E0,9.391473770E0
3.967645207E1,5.574877262E0,6.042594433E0,1.081917858E1
3.969654946E1,4.923307419E0,5.692854881E0,1.156177711E1
3.971664686E1,4.913725376E0,5.079612255E0,1.199296379E1
3.973674425E1,4.750833035E0,4.365759850E0,1.231395721E1
3.975684165E1,3.950742960E0,3.493805408E0,1.165759659E1
3.977693905E1,2.628438950E0,2.727252245E0,9.008196831E0
3.979703644E1,1.512145877E0,2.401467323E0,6.675001144E0
3.981713384E1,1.095332623E0,2.492495537E0,5.031702518E0
3.983723123E1,1.655874491E0,3.230302811E0,4.772991180E0
3.985732863E1,3.342291355E0,4.083093166E0,4.461578846E0
3.987742602E1,5.905453682E0,5.194595337E0,5.113149166E0
3.989752342E1,8.238649368E0,5.438933849E0,7.273870468E0
3.991762082E1,8.545270920E0,4.466369629E0,9.870569229E0
3.993771821E1,5.876707554E0,3.709398508E0,1.110184574E1
3.995781561E1,3.006924391E0,2.832653284E0,1.098686218E1
3.997791300E1,1.636710763E0,2.722461462E0,1.011011696E1
3.999801040E1,1.435490489E0,2.803907633E0,8.759067535E0
4.001810780E1,1.421117663E0,3.129692793E0,6.617509365E0
4.003820483E1,1.660665512E0,3.541714907E0,4.873600960E0
4.005830144E1,1.967286706E0,3.905827761E0,4.111838818E0
4.007840082E1,2.216416597E0,4.145375729E0,4.399296284E0
4.009849821E1,2.379309177E0,4.279522419E0,5.309578419E0
4.011859561E1,2.206834555E0,4.279522419E0,5.836583614E0
4.013869300E1,1.919377208E0,4.428041935E0,5.898865700E0
4.015879040E1,2.168506861E0,4.667590141E0,6.138413906E0
4.017888780E1,2.451173306E0,4.974211216E0,6.488153458E0
4.019898519E1,3.361455202E0,5.232923031E0,7.230751991E0
4.021908259E1,4.506494045E0,5.673690796E0,7.930231571E0
4.023917998E1,5.843171120E0,6.143204689E0,8.773440361E0
4.025927738E1,7.002582550E0,6.267769814E0,1.011969948E1
4.027937477E1,7.232548714E0,5.903656960E0,1.106830883E1
4.029947217E1,6.499532223E0,5.616199493E0,1.099165344E1
4.031956957E1,6.125837326E0,5.434143066E0,1.069461441E1
4.033966696E1,6.360594273E0,5.041284561E0,1.120245552E1
4.035976436E1,6.015645504E0,4.265149593E0,1.163843250E1
4.037986175E1,4.961635113E0,3.603997469E0,1.147554016E1
4.039995915E1,4.214245796E0,2.942845345E0,1.120724678E1
4.042005654E1,3.787850380E0,2.554777861E0,1.020114517E1
4.044015394E1,3.577048302E0,2.420631170E0,8.591383934E0
4.046025134E1,3.601003170E0,2.732043266E0,6.722910404E0
4.048034873E1,4.645431995E0,3.177602291E0,5.994685173E0
4.050044613E1,5.613204956E0,3.297376156E0,6.579181671E0
4.052054352E1,5.158064365E0,3.019500732E0,7.676311016E0
4.054064092E1,3.984279633E0,2.823071480E0,8.505146980E0
4.056073832E1,3.342291355E0,2.799116611E0,8.730321884E0
4.058083571E1,3.083579779E0,2.971591234E0,8.418909073E0
4.060093311E1,3.107534647E0,3.110528946E0,8.073960304E0
4.062103050E1,3.069206953E0,3.311748981E0,7.508627415E0
4.064112790E1,3.284800053E0,3.417150259E0,7.431972027E0
4.066122530E1,3.351873398E0,3.580042601E0,7.542164326E0
4.068132269E1,3.131489277E0,3.723771334E0,7.408017159E0
4.070142009E1,3.112325430E0,3.910618782E0,7.278661728E0
4.072151748E1,3.418946743E0,4.097465992E0,7.345735073E0
4.074161488E1,3.610584974E0,4.202867031E0,7.542164326E0
4.076171227E1,3.730359077E0,4.437623978E0,7.384062767E0
4.078180967E1,3.524347782E0,4.629262447E0,7.297825336E0
4.080190707E1,3.438110590E0,4.729872227E0,7.369689941E0
4.082200498E1,3.222517490E0,4.835273266E0,7.637983322E0
4.084210290E1,2.973387718E0,4.758618355E0,7.978141308E0
4.086220061E1,2.815286160E0,4.763409138E0,8.102705956E0
4.088229800E1,2.848822832E0,4.725081444E0,8.610548019E0
4.090239540E1,3.174607992E0,4.705917835E0,9.084852219E0
4.092249280E1,3.198562622E0,4.629262447E0,9.262117386E0
4.094259019E1,2.149343014E0,4.423251152E0,9.223790169E0
4.096268759E1,1.401953816E0,4.322640896E0,9.520829201E0
4.098278498E1,1.387580991E0,4.059138298E0,1.041194725E1
4.100288238E1,1.742111802E0,3.330912828E0,1.175341511E1
4.102297977E1,1.847512841E0,2.573941708E0,1.288887215E1
4.104307717E1,1.924168110E0,1.864880085E0,1.328652191E1
4.106317457E1,1.425908566E0,1.438484907E0,1.181569767E1
4.108327196E1,5.108358264E-1,1.457648635E0,9.104016304E0
4.110336936E1,-4.970617965E-2,1.692405581E0,6.995995045E0
4.112346675E1,8.923157305E-2,2.094846010E0,6.152786732E0
4.114356415E1,1.071377754E0,2.190665245E0,6.948085308E0
4.116366155E1,2.432009697E0,2.334393740E0,8.864468575E0
4.118375894E1,3.251263142E0,2.377512455E0,1.044548416E1
4.120385634E1,3.509974957E0,2.070891142E0,1.184444332E1
4.122395373E1,2.867986679E0,1.984653950E0,1.190193558E1
4.124405113E1,2.082269669E0,2.133173704E0,1.065149498E1
4.126414852E1,1.837930918E0,2.478122473E0,9.180671692E0
4.128424592E1,1.799603224E0,2.741625309E0,8.203316689E0
4.130434332E1,1.516936779E0,2.918890715E0,7.527791500E0
4.132444071E1,1.435490489E0,3.086574078E0,7.345735073E0
4.134453811E1,1.478609085E0,3.316540003E0,7.604446411E0
4.136463550E1,1.603173971E0,3.431523085E0,7.820039749E0
4.138473290E1,1.593592048E0,3.455477715E0,8.126661301E0
4.140483030E1,1.531309605E0,3.647116184E0,8.236852646E0
4.142492769E1,1.492982030E0,3.685443640E0,8.859677315E0
4.144502509E1,1.286970854E0,3.762099028E0,8.787813187E0
4.146512248E1,1.167196870E0,3.896245956E0,8.509937286E0
4.148521988E1,1.397162914E0,3.968110323E0,8.648875237E0
4.150531754E1,1.828348994E0,4.030392647E0,8.926751137E0
4.152541545E1,1.981659651E0,4.078302383E0,9.012988091E0
4.154551337E1,2.120597363E0,4.102256775E0,9.233371735E0
4.156561087E1,2.283489943E0,3.977692127E0,9.803496361E0
4.158570826E1,2.326608419E0,3.733353376E0,1.067545033E1
4.160580566E1,2.364936113E0,3.599206448E0,1.123599243E1
4.162590306E1,2.403263807E0,3.647116184E0,1.096769810E1
4.164600045E1,2.805704355E0,3.556087971E0,1.096290779E1
4.166609785E1,2.954223871E0,3.278212309E0,1.141325760E1
4.168619524E1,2.949432850E0,2.732043266E0,1.177257919E1
4.170629264E1,2.700303078E0,2.353557587E0,1.164322376E1
4.172639004E1,2.508664846E0,2.142755508E0,1.074252319E1
4.174648743E1,2.139761209E0,2.003817797E0,9.789123535E0
4.176658483E1,1.914586186E0,2.166710377E0,8.586592674E0
4.178668222E1,2.111015558E0,2.430212975E0,7.609237671E0
4.180677962E1,2.580529213E0,2.435003996E0,7.690683842E0
4.182687701E1,3.256054163E0,2.075682163E0,9.075270653E0
4.184697441E1,2.753003597E0,1.836134315E0,1.014365387E1
4.186707180E1,1.737320781E0,1.639705062E0,1.060358620E1
4.188716920E1,9.659767151E-1,1.773851871E0,9.942433357E0
4.190726660E1,7.743384242E-1,2.099637032E0,9.104016304E0
4.192736399E1,9.228581190E-1,2.329602957E0,8.112288475E0
4.194746139E1,1.090541601E0,2.765579939E0,7.254706860E0
4.196755878E1,1.253434181E0,3.024291754E0,6.909758091E0
4.198765618E1,1.416326642E0,3.220721006E0,6.914548874E0
4.200775358E1,1.564846396E0,3.335703850E0,7.479881763E0
4.202785097E1,1.943331957E0,3.230302811E0,8.902795792E0
4.204794837E1,2.058315039E0,3.431523085E0,8.658456802E0
4.206804576E1,1.804394245E0,3.436313868E0,8.969869614E0
4.208814316E1,1.569637299E0,3.316540003E0,9.640603065E0
4.210824092E1,1.239061236E0,3.306958199E0,9.899314880E0
4.212833884E1,1.239061236E0,3.527342081E0,9.396265030E0
4.214843670E1,1.263016105E0,3.867500067E0,8.548265457E0
4.216853410E1,1.584010243E0,4.140584469E0,8.174570084E0
4.218863149E1,2.106224537E0,4.274731636E0,8.509937286E0
4.220872889E1,2.705094099E0,4.174121380E0,9.784332275E0
4.222882629E1,3.083579779E0,3.757308006E0,1.148033047E1
4.224892368E1,2.681139469E0,3.465059757E0,1.256308746E1
4.226902108E1,1.770857453E0,3.695025682E0,1.189235306E1
4.228911847E1,1.646292686E0,3.929782629E0,1.099165344E1
4.230921587E1,2.230789423E0,3.958528280E0,1.133660221E1
4.232931326E1,2.623647928E0,3.886663914E0,1.253434181E1
4.234941066E1,1.962495804E0,3.053037405E0,1.336317730E1
4.236950806E1,1.138451219E0,2.090054989E0,1.334401321E1
4.238960545E1,5.779091716E-1,1.649286985E0,1.130785656E1
4.240970285E1,5.108358264E-1,1.572631717E0,8.246435165E0
4.242980024E1,1.179773211E-1,1.951117277E0,5.414979458E0
4.244989764E1,-9.761574864E-2,2.363139629E0,3.992064953E0
4.246999504E1,2.377512455E-1,2.545196056E0,4.940674305E0
4.249009243E1,1.128869295E0,2.133173704E0,7.350525856E0
4.251018983E1,1.813976169E0,1.845716238E0,9.611857414E0
4.253028790E1,2.264326096E0,1.433693886E0,1.178695202E1
4.255038561E1,2.120597363E0,1.127072692E0,1.295115471E1
4.257048300E1,1.009095311E0,9.929258823E-1,1.199296379E1
4.259058040E1,1.610959321E-1,1.448066831E0,9.698095322E0
4.261067780E1,-2.652992606E-1,1.951117277E0,7.513418674E0
4.263077519E1,-3.802822232E-1,2.674551725E0,5.980312347E0
4.265087259E1,-3.054235131E-2,3.388404369E0,5.271250725E0
4.267096998E1,4.533443153E-1,3.857918262E0,5.443725109E0
4.269106738E1,8.749485612E-1,4.250776768E0,6.152786732E0
4.271116477E1,8.701575994E-1,4.466369629E0,6.909758091E0
4.273126217E1,6.354007125E-1,4.662798882E0,7.671520233E0
4.275135957E1,5.874910951E-1,4.677171707E0,8.912378311E0
4.277145696E1,8.126661181E-1,4.744245052E0,1.012928104E1
4.279155436E1,1.176778793E0,4.840064526E0,1.069461441E1
4.281165175E1,1.473818183E0,4.983793259E0,1.089583397E1
4.283174915E1,1.857094765E0,5.012538910E0,1.114017296E1
