"Time (s)","Linear Acceleration x (m/s^2)","Linear Acceleration y (m/s^2)","Linear Acceleration z (m/s^2)"
9.723880300E-2,-8.957169056E-1,2.868490219E-1,-1.154768944E0
1.012561990E-1,-9.079371691E-1,3.123853207E-1,-1.059190750E0
1.052735950E-1,-8.997598886E-1,3.581109047E-1,-9.345464706E-1
1.092909910E-1,-8.399969339E-1,4.028363228E-1,-8.364419937E-1
1.133083870E-1,-7.622052431E-1,4.175195694E-1,-7.257299423E-1
1.173257830E-1,-6.350084543E-1,4.264142513E-1,-6.153717041E-1
1.213431780E-1,-5.236899853E-1,4.161550999E-1,-5.156087875E-1
1.253605740E-1,-4.879726171E-1,3.898794651E-1,-3.774223328E-1
1.293779700E-1,-4.711853266E-1,3.892850876E-1,-1.927433014E-1
1.333953660E-1,-4.263175726E-1,4.109294415E-1,3.002166748E-3
1.374127620E-1,-3.516597748E-1,4.493227005E-1,1.828298569E-1
1.414301580E-1,-2.842087746E-1,5.174965858E-1,3.368368149E-1
1.454475530E-1,-1.977711916E-1,5.776512623E-1,4.804697037E-1
1.494649490E-1,-1.177922487E-1,6.024250984E-1,5.710201263E-1
1.534823450E-1,-5.517864227E-2,6.093645096E-1,5.992174149E-1
1.574997410E-1,4.861354828E-3,5.898735523E-1,6.158304214E-1
1.615171370E-1,2.777290344E-2,5.632419586E-1,5.865745544E-1
1.655345330E-1,5.373930931E-2,5.158698559E-1,5.127582550E-1
1.695519280E-1,6.617832184E-2,4.275476933E-1,4.024982452E-1
1.735693240E-1,1.024553776E-1,3.088765144E-1,3.771038055E-1
1.775867200E-1,1.528630257E-1,2.116842270E-1,3.734998703E-1
1.816041160E-1,2.174059153E-1,1.189892292E-1,3.863449097E-1
1.856215120E-1,2.237701416E-1,7.459950447E-2,4.012384415E-1
1.896389080E-1,1.616584063E-1,3.518509865E-2,4.180727005E-1
1.936563030E-1,3.704512119E-2,9.776115417E-3,4.321136475E-1
1.976736990E-1,-6.524324417E-2,9.242773056E-3,4.947767258E-1
2.016910950E-1,-1.815510988E-1,-3.742980957E-2,5.582704544E-1
2.057084910E-1,-2.491092682E-1,-1.062393188E-1,6.204166412E-1
2.097258870E-1,-3.092765808E-1,-1.948518753E-1,6.907758713E-1
2.137432830E-1,-3.696315289E-1,-2.984578609E-1,7.341995239E-1
2.177606780E-1,-4.259282351E-1,-4.079489708E-1,7.772045135E-1
2.217780740E-1,-4.809229374E-1,-4.813339710E-1,8.221712112E-1
2.257954700E-1,-5.187035799E-1,-5.336489677E-1,8.713970184E-1
2.298128660E-1,-5.705411434E-1,-5.795042515E-1,8.966541290E-1
2.338302620E-1,-6.014778614E-1,-6.120474339E-1,9.054241180E-1
2.378476580E-1,-6.452343464E-1,-6.547615528E-1,9.049205780E-1
2.418650530E-1,-6.761726141E-1,-6.814615726E-1,8.646965027E-1
2.458824490E-1,-6.972167492E-1,-7.225139141E-1,8.486661911E-1
2.498998450E-1,-7.371240854E-1,-7.633256912E-1,8.444566727E-1
2.539172410E-1,-7.605425119E-1,-7.871963978E-1,8.470191956E-1
2.579346370E-1,-7.486883402E-1,-8.438341618E-1,9.643774033E-1
2.619520330E-1,-6.635541916E-1,-8.599340916E-1,1.182930946E0
2.659694280E-1,-4.955216646E-1,-8.741378784E-1,1.466022491E0
2.699868240E-1,-3.192851543E-1,-9.269073009E-1,1.775473595E0
2.740042200E-1,-1.832081079E-1,-9.994096756E-1,1.979617119E0
2.780216160E-1,-1.137256622E-1,-1.089279413E0,2.148875237E0
2.820390120E-1,-4.961597919E-2,-1.151914597E0,2.267690659E0
2.860564080E-1,-2.258968353E-2,-1.209296703E0,2.323023796E0
2.900738030E-1,-2.166616917E-2,-1.268649340E0,2.271247864E0
2.940911990E-1,-2.446568012E-2,-1.308633327E0,2.130545616E0
2.981085950E-1,-3.048443794E-2,-1.315295219E0,1.951707840E0
3.021260950E-1,-2.328026295E-2,-1.317286015E0,1.687976837E0
3.061435950E-1,-6.748771667E-2,-1.304968596E0,1.380433083E0
3.101610950E-1,-1.276906729E-1,-1.266269207E0,1.019918442E0
3.141785950E-1,-2.212591171E-1,-1.179805756E0,6.162157059E-1
3.181960950E-1,-3.224506378E-1,-1.087967157E0,2.095985413E-1
3.222135950E-1,-3.989719152E-1,-9.783086777E-1,-1.602439880E-1
3.262310950E-1,-4.145383835E-1,-8.551669121E-1,-5.674810410E-1
3.302485950E-1,-4.066933393E-1,-7.321259975E-1,-9.530839920E-1
3.342660950E-1,-3.769301176E-1,-5.587501526E-1,-1.322623253E0
3.382835950E-1,-3.499354124E-1,-3.916127682E-1,-1.636648178E0
3.423010950E-1,-3.310691118E-1,-2.226133347E-1,-1.844430923E0
3.463185950E-1,-2.803523540E-1,-6.084585190E-2,-1.928730965E0
3.503360950E-1,-1.750060320E-1,8.939266205E-2,-1.950465202E0
3.543535950E-1,-4.377555847E-2,2.211699486E-1,-1.860765457E0
3.583710950E-1,9.691798687E-2,2.989857197E-1,-1.717625618E0
3.623885950E-1,2.830789685E-1,3.017649651E-1,-1.526155472E0
3.664059910E-1,4.600622654E-1,2.438995838E-1,-1.279495239E0
3.704233870E-1,5.855481625E-1,1.490194798E-1,-1.037096024E0
3.744407830E-1,6.152530909E-1,5.074024200E-3,-7.820158005E-1
3.784581780E-1,5.977913737E-1,-1.524777412E-1,-5.543146133E-1
3.824755740E-1,5.172113776E-1,-3.145041466E-1,-3.486757278E-1
3.864929700E-1,4.290968776E-1,-5.122644901E-1,-1.882200241E-1
3.905103660E-1,3.455006480E-1,-6.558763981E-1,-3.905296326E-2
3.945277620E-1,2.548421025E-1,-8.009583950E-1,3.764057159E-2
3.985451580E-1,1.861168146E-1,-9.242930412E-1,1.447200775E-1
4.025625530E-1,1.276971102E-1,-1.043223381E0,2.560043335E-1
4.065799490E-1,8.954554796E-2,-1.165411949E0,3.290214539E-1
4.105973450E-1,5.791544914E-2,-1.312600851E0,3.454246521E-1
4.146147410E-1,2.148222923E-2,-1.409061074E0,2.941055298E-1
4.186321370E-1,6.737530231E-3,-1.488658190E0,2.279405594E-1
4.226495330E-1,-2.802729607E-3,-1.589801311E0,1.353044510E-1
4.266669280E-1,-2.373689413E-2,-1.645856142E0,-7.294654846E-3
4.306843240E-1,-7.943457365E-2,-1.650034189E0,-1.946811676E-1
4.347017200E-1,-9.148335457E-2,-1.657261133E0,-4.193925858E-1
4.387191160E-1,-9.867328405E-2,-1.683917642E0,-6.479911804E-1
4.427365120E-1,-1.085923910E-1,-1.689207315E0,-8.734912872E-1
4.467539080E-1,-1.191459894E-1,-1.637395382E0,-1.100844383E0
4.507713030E-1,-8.550983667E-2,-1.573609233E0,-1.349205971E0
4.547886990E-1,-4.857045412E-2,-1.468974352E0,-1.582993507E0
4.588060950E-1,-1.342296600E-2,-1.363886118E0,-1.845192909E0
4.628234910E-1,1.973408461E-2,-1.246061087E0,-2.026581764E0
4.668408870E-1,3.426837921E-2,-1.103492141E0,-2.215818405E0
4.708582830E-1,6.580299139E-2,-9.478085041E-1,-2.360799789E0
4.748756780E-1,1.046240926E-1,-8.142862320E-1,-2.538022041E0
4.788930740E-1,1.862608194E-1,-6.784486771E-1,-2.718892097E0
4.829104700E-1,2.843056321E-1,-5.633611679E-1,-2.877496719E0
4.869278660E-1,3.486886621E-1,-4.757263660E-1,-3.018884182E0
4.909452620E-1,3.772340417E-1,-4.172356129E-1,-3.138625145E0
4.949626580E-1,3.701450825E-1,-3.779435158E-1,-3.218008041E0
4.989800530E-1,3.560750484E-1,-3.672842979E-1,-3.271625519E0
5.029974490E-1,3.206278384E-1,-3.755323887E-1,-3.287845612E0
5.070148450E-1,2.994729280E-1,-4.076211452E-1,-3.297765732E0
5.110322410E-1,2.662272453E-1,-4.541780949E-1,-3.251475334E0
5.150496370E-1,2.396818399E-1,-4.656336308E-1,-3.168334007E0
5.190670330E-1,2.102432251E-1,-5.259139538E-1,-3.100734711E0
5.230844280E-1,1.752876639E-1,-5.589158535E-1,-2.977193356E0
5.271018240E-1,1.917355061E-1,-5.938887596E-1,-2.890645027E0
5.311192200E-1,1.855353713E-1,-6.073606014E-1,-2.793162346E0
5.351366160E-1,1.947491467E-1,-5.856800079E-1,-2.725080490E0
5.391540120E-1,2.122517228E-1,-5.793261528E-1,-2.652783871E0
5.431714080E-1,2.474896908E-1,-5.430912971E-1,-2.597656250E0
5.471888030E-1,2.574470341E-1,-5.226004124E-1,-2.547598839E0
5.512061990E-1,2.828562856E-1,-4.701848030E-1,-2.481169701E0
5.552235950E-1,3.021497428E-1,-4.552261829E-1,-2.422184944E0
5.592409910E-1,2.989454865E-1,-4.274830818E-1,-2.337298393E0
5.632583870E-1,3.115926981E-1,-3.896067142E-1,-2.250403404E0
5.672757830E-1,3.237573206E-1,-3.536844254E-1,-2.166192055E0
5.712931780E-1,3.428965807E-1,-2.982482910E-1,-2.098892212E0
5.753106260E-1,3.691698909E-1,-2.259287834E-1,-2.045941353E0
5.793281260E-1,3.955394328E-1,-1.510310173E-1,-2.019121170E0
5.833456260E-1,4.267656207E-1,-9.242868423E-2,-1.994501114E0
5.873631260E-1,4.769546390E-1,-4.989433289E-2,-1.995867729E0
5.913806260E-1,5.671286583E-1,-1.819276810E-2,-1.985094547E0
5.953981260E-1,6.730780005E-1,-1.760244370E-3,-2.014654636E0
5.994156260E-1,7.610627413E-1,4.585027695E-3,-2.027284622E0
6.034331260E-1,8.334673643E-1,-2.485084534E-2,-2.051769733E0
6.074506260E-1,8.404206634E-1,-3.962826729E-2,-2.066692352E0
6.114681260E-1,8.276358843E-1,-5.614686012E-2,-2.062719345E0
6.154856260E-1,7.954403758E-1,-7.656240463E-2,-2.040044785E0
6.195031260E-1,7.467875481E-1,-7.897377014E-2,-2.027484894E0
6.235206260E-1,6.821730137E-1,-8.229279518E-2,-1.960822105E0
6.275381260E-1,6.164289713E-1,-7.203745842E-2,-1.876172066E0
6.315556260E-1,5.690132976E-1,-5.527353287E-2,-1.795120716E0
6.355731260E-1,5.091766715E-1,-3.191876411E-2,-1.717683792E0
6.395906260E-1,4.489758909E-1,7.668018341E-3,-1.634380341E0
6.436080220E-1,3.909080625E-1,2.766156197E-2,-1.569030762E0
6.476254180E-1,3.563297391E-1,2.097082138E-2,-1.507211685E0
6.516428140E-1,3.188427091E-1,-2.173161507E-2,-1.453661919E0
6.556602100E-1,2.974694669E-1,-5.504179001E-2,-1.391650677E0
6.596776060E-1,2.632848620E-1,-8.868360519E-2,-1.344979763E0
6.636950010E-1,2.160579860E-1,-8.706068993E-2,-1.270669937E0
6.677123970E-1,1.459403187E-1,-7.906007767E-2,-1.183139801E0
6.717297930E-1,8.593287319E-2,-4.129672050E-2,-1.082338333E0
6.757471890E-1,9.284801781E-3,1.154518127E-2,-9.539880753E-1
6.797645850E-1,-6.311371922E-2,5.287694931E-2,-8.671722412E-1
6.837819810E-1,-1.173084602E-1,7.764077187E-2,-7.262859344E-1
6.877993760E-1,-1.392144263E-1,9.518933296E-2,-5.410861969E-1
6.918167720E-1,-7.173910737E-2,9.093308449E-2,-3.664712906E-1
6.958341680E-1,3.443629295E-2,1.075243950E-1,-1.713056564E-1
6.998515640E-1,1.147660613E-1,1.182150841E-1,3.253269196E-2
7.038689600E-1,2.050745189E-1,1.062974930E-1,2.521762848E-1
7.078863560E-1,2.743077278E-1,1.501994133E-1,4.423971176E-1
7.119037510E-1,3.630449176E-1,1.972599030E-1,6.295623779E-1
7.159211470E-1,4.334800243E-1,1.974940300E-1,7.708349228E-1
7.199385430E-1,5.192759037E-1,2.156643867E-1,8.759679794E-1
7.239559390E-1,5.802029371E-1,2.257599831E-1,9.974784851E-1
7.279733350E-1,6.120738387E-1,2.494320869E-1,1.080452919E0
7.319907310E-1,6.247648001E-1,2.917146683E-1,1.163112640E0
7.360081260E-1,6.090608835E-1,3.409085274E-1,1.228696823E0
7.400255220E-1,5.628589392E-1,3.900279999E-1,1.308202744E0
7.440429180E-1,5.485022068E-1,4.155395031E-1,1.406224251E0
7.480603140E-1,5.040705800E-1,4.296298027E-1,1.477360725E0
7.520777100E-1,4.918703139E-1,4.063308239E-1,1.519326210E0
7.560951060E-1,4.904403687E-1,3.674392700E-1,1.556055069E0
7.601125010E-1,4.737537503E-1,2.964122295E-1,1.601849556E0
7.641298970E-1,4.970355332E-1,1.958982944E-1,1.642328262E0
7.681472930E-1,5.412387848E-1,7.329154015E-2,1.689395905E0
7.721646890E-1,6.230375767E-1,-6.163334846E-2,1.733448982E0
7.761820850E-1,7.157672644E-1,-1.799392700E-1,1.788725853E0
7.801994810E-1,7.924649715E-1,-2.527503967E-1,1.812201500E0
7.842168760E-1,8.380603790E-1,-2.990744114E-1,1.844508171E0
7.882342720E-1,8.828378916E-1,-2.900841236E-1,1.909359932E0
7.922516680E-1,9.116368294E-1,-2.473180294E-1,2.020875931E0
7.962690640E-1,9.168324471E-1,-2.064721584E-1,2.176419258E0
8.002864600E-1,9.265676737E-1,-1.437251568E-1,2.373442650E0
8.043038560E-1,9.217931032E-1,-8.077001572E-2,2.592754364E0
8.083212510E-1,9.194319844E-1,1.095294952E-3,2.870127678E0
8.123386470E-1,9.319130778E-1,6.080365181E-2,3.176816940E0
8.163560430E-1,9.432872534E-1,7.643914223E-2,3.503308296E0
8.203734390E-1,1.011597991E0,6.428003311E-2,3.859189034E0
8.243908350E-1,1.063531637E0,2.602243423E-2,4.170631409E0
8.284082310E-1,1.093105078E0,-5.794620514E-2,4.426068306E0
8.324256260E-1,1.125107050E0,-1.617627144E-1,4.544846535E0
8.364430220E-1,1.174648285E0,-3.095835447E-1,4.561059952E0
8.404605220E-1,1.251619577E0,-5.158275366E-1,4.482395172E0
8.444780220E-1,1.265583992E0,-6.875021458E-1,4.357002258E0
8.484955220E-1,1.312231898E0,-8.773107529E-1,4.149342537E0
8.525130220E-1,1.377244711E0,-1.068520308E0,3.874090195E0
8.565305220E-1,1.366622925E0,-1.198672533E0,3.529112816E0
8.605480220E-1,1.313650131E0,-1.312808514E0,3.086032867E0
8.645655220E-1,1.232081294E0,-1.413549304E0,2.714487076E0
8.685830220E-1,1.179369211E0,-1.446418524E0,2.333118439E0
8.726005220E-1,1.138365746E0,-1.483387709E0,1.953925133E0
8.766180220E-1,1.106022000E0,-1.498459339E0,1.538828850E0
8.806355220E-1,1.050490022E0,-1.441768169E0,1.109505653E0
8.846530220E-1,1.020847321E0,-1.492509604E0,6.827602386E-1
8.886705220E-1,9.466457367E-1,-1.514297724E0,3.158292770E-1
8.926880220E-1,8.937548399E-1,-1.497627735E0,1.080894470E-2
8.967055220E-1,8.110457659E-1,-1.437762380E0,-2.898378372E-1
9.007230220E-1,7.668635249E-1,-1.287063122E0,-5.194082260E-1
9.047404700E-1,7.388725281E-1,-1.098140717E0,-7.259855270E-1
9.087578660E-1,7.240619063E-1,-8.662779331E-1,-8.620338440E-1
9.127752620E-1,7.533292770E-1,-6.153213978E-1,-9.851732254E-1
9.167926580E-1,7.931862473E-1,-3.881071806E-1,-1.043063164E0
9.208100530E-1,8.531998992E-1,-1.605917215E-1,-1.095650673E0
9.248274490E-1,9.358017445E-1,3.620946407E-2,-1.150126457E0
9.288448450E-1,9.793230891E-1,2.026314735E-1,-1.196994781E0
9.328622410E-1,1.074754953E0,3.244459629E-1,-1.231520653E0
9.368796370E-1,1.165067554E0,4.377310276E-1,-1.272863388E0
9.408970330E-1,1.241256118E0,5.186353922E-1,-1.275685310E0
9.449144280E-1,1.358912468E0,5.625944138E-1,-1.287875175E0
9.489318240E-1,1.475522041E0,6.078394651E-1,-1.275999069E0
9.529492200E-1,1.586685538E0,6.257163286E-1,-1.311704636E0
9.569666160E-1,1.678677559E0,6.165332794E-1,-1.339978218E0
9.609840120E-1,1.740037918E0,5.897692442E-1,-1.418064117E0
9.650014080E-1,1.780859232E0,5.481572151E-1,-1.498108864E0
9.690188030E-1,1.789527893E0,5.037449598E-1,-1.615899086E0
9.730361990E-1,1.766557932E0,4.543302059E-1,-1.733156204E0
9.770535950E-1,1.731245875E0,4.024635553E-1,-1.868999481E0
9.810709910E-1,1.647995949E0,3.461951017E-1,-2.013895988E0
9.850883870E-1,1.536055326E0,3.167462349E-1,-2.167853355E0
9.891057830E-1,1.400322437E0,2.928161621E-1,-2.295112133E0
9.931231780E-1,1.214447260E0,2.864871025E-1,-2.436370373E0
9.971405740E-1,1.033339500E0,3.050825596E-1,-2.567763329E0
1.001157970E0,8.497247696E-1,3.129408360E-1,-2.717999458E0
1.005175366E0,6.871807575E-1,3.103530407E-1,-2.863192081E0
1.009192762E0,5.216396451E-1,2.878906727E-1,-3.008148193E0
1.013210158E0,3.791086674E-1,2.625770569E-1,-3.121903419E0
1.017227553E0,2.233188599E-1,2.296969891E-1,-3.226058006E0
1.021244949E0,8.001887798E-2,1.988704205E-1,-3.327812672E0
1.025262345E0,-4.417956620E-2,1.677236557E-1,-3.377079010E0
1.029279741E0,-1.712451577E-1,1.599636078E-1,-3.414595604E0
1.033297137E0,-2.658866644E-1,1.372578144E-1,-3.433238029E0
1.037314533E0,-3.452455997E-1,9.947037697E-2,-3.404413223E0
1.041331928E0,-4.455234408E-1,7.754349709E-2,-3.342604637E0
1.045349324E0,-5.311000347E-1,4.484796524E-2,-3.288438797E0
1.049366720E0,-5.828465223E-1,1.544117928E-2,-3.194108486E0
1.053384116E0,-6.150909066E-1,-1.361489296E-3,-3.097905636E0
1.057401512E0,-6.253042221E-1,-3.440260887E-3,-2.999794006E0
1.061418908E0,-6.232948899E-1,-2.809166908E-3,-2.902162552E0
1.065436303E0,-6.089428663E-1,3.145074844E-2,-2.831233025E0
1.069453699E0,-5.650036931E-1,4.662823677E-2,-2.748707771E0
1.073471095E0,-5.315920115E-1,8.317327499E-2,-2.649819374E0
1.077488491E0,-4.984477460E-1,9.790861607E-2,-2.551304817E0
1.081505887E0,-4.722211361E-1,1.408635378E-1,-2.479375362E0
1.085523283E0,-4.427938461E-1,1.761381626E-1,-2.402911186E0
1.089540678E0,-4.073540568E-1,2.252410650E-1,-2.319540977E0
1.093558074E0,-3.678787053E-1,2.594250441E-1,-2.241210938E0
1.097575522E0,-3.361870050E-1,3.097730875E-1,-2.148808002E0
1.101593022E0,-3.000889421E-1,3.595224619E-1,-2.054316044E0
1.105610522E0,-2.406468987E-1,3.944426775E-1,-1.969682693E0
1.109628022E0,-1.868588030E-1,4.457811117E-1,-1.909213066E0
1.113645522E0,-1.918794960E-1,4.943468571E-1,-1.805985451E0
1.117663022E0,-2.418021560E-1,5.284463167E-1,-1.729405880E0
1.121680522E0,-3.250572085E-1,5.529906750E-1,-1.665070057E0
1.125698022E0,-4.301089048E-1,5.800106525E-1,-1.579534531E0
1.129715522E0,-5.695720315E-1,6.166353226E-1,-1.480035782E0
1.133733022E0,-7.440380454E-1,6.365939379E-1,-1.371410370E0
1.137750522E0,-8.892923594E-1,6.396980286E-1,-1.279902458E0
1.141768022E0,-9.982112646E-1,6.450573206E-1,-1.200670242E0
1.145785522E0,-1.066105247E0,6.477603912E-1,-1.109778404E0
1.149803022E0,-1.148145914E0,6.476489305E-1,-1.031106949E0
1.153820522E0,-1.230097890E0,6.493592262E-1,-9.192342758E-1
1.157838022E0,-1.290430427E0,6.407235861E-1,-8.530015945E-1
1.161855522E0,-1.283353209E0,5.907107592E-1,-7.725591660E-1
1.165872918E0,-1.218032360E0,5.567344427E-1,-7.137460709E-1
1.169890314E0,-1.100954175E0,5.220730305E-1,-6.788682938E-1
1.173907710E0,-9.840089083E-1,4.723701477E-1,-5.890579224E-1
1.177925106E0,-8.594151735E-1,4.436509609E-1,-5.065975189E-1
1.181942501E0,-7.338635325E-1,4.025474787E-1,-4.123840332E-1
1.185959897E0,-6.597799659E-1,3.802380562E-1,-3.351221085E-1
1.189977293E0,-5.868206024E-1,3.839408159E-1,-2.031631470E-1
1.193994689E0,-5.143766403E-1,3.946725130E-1,-6.686019897E-2
1.198012085E0,-3.656286299E-1,4.099389315E-1,9.288787842E-2
1.202029481E0,-2.098745853E-1,4.727311134E-1,2.378005981E-1
1.206046876E0,-1.454681456E-1,5.350793600E-1,4.109144211E-1
1.210064272E0,-1.752093285E-1,6.137558222E-1,5.691547394E-1
1.214081668E0,-2.416613251E-1,6.922198534E-1,7.005996704E-1
1.218099064E0,-2.921141088E-1,8.136057854E-1,8.244190216E-1
1.222116460E0,-3.146660924E-1,9.397366047E-1,9.239063263E-1
1.226133856E0,-3.357646465E-1,1.070802331E0,9.871768951E-1
1.230151251E0,-3.629119992E-1,1.202052712E0,1.052546501E0
1.234168647E0,-4.297255576E-1,1.324083328E0,1.115212440E0
1.238186043E0,-4.811588824E-1,1.394055247E0,1.189495087E0
1.242203439E0,-4.739662409E-1,1.428731680E0,1.287327766E0
1.246220835E0,-4.158905745E-1,1.440080166E0,1.375223160E0
1.250238231E0,-3.432226777E-1,1.420792937E0,1.462804794E0
1.254255626E0,-2.709003687E-1,1.378073931E0,1.557237625E0
1.258273022E0,-1.996319294E-1,1.316467881E0,1.696739197E0
1.262290418E0,-1.826399267E-1,1.219267368E0,1.840563774E0
1.266307814E0,-1.510316730E-1,1.134163618E0,1.931407928E0
1.270325210E0,-7.639625669E-2,1.058881998E0,2.000444412E0
1.274342606E0,-6.567299366E-3,9.934238195E-1,2.050124168E0
1.278360001E0,8.584052324E-3,9.139304161E-1,2.085280418E0
1.282377397E0,-4.161745310E-3,8.682870865E-1,2.141766548E0
1.286394793E0,-3.954222798E-2,8.183077574E-1,2.193240166E0
1.290412189E0,-7.575353980E-2,8.093537092E-1,2.256439209E0
1.294429585E0,-8.166292310E-2,8.220658302E-1,2.300312042E0
1.298446981E0,-8.814659715E-2,8.326390982E-1,2.336846352E0
1.302464376E0,-1.239627898E-1,8.530377150E-1,2.375607491E0
1.306481772E0,-1.889378130E-1,8.402507305E-1,2.445250511E0
1.310499168E0,-2.735071182E-1,8.303037882E-1,2.471632004E0
1.314516564E0,-3.445260525E-1,8.209205866E-1,2.505008698E0
1.318533960E0,-5.238624811E-1,7.714194059E-1,2.590744019E0
1.322551356E0,-6.251732111E-1,7.175893784E-1,2.623623848E0
1.326568751E0,-6.490387321E-1,6.667301655E-1,2.606179237E0
1.330586147E0,-6.317927837E-1,6.140376329E-1,2.612591743E0
1.334603543E0,-6.025398970E-1,5.212018490E-1,2.640416145E0
1.338620939E0,-5.973713994E-1,3.907583952E-1,2.689581871E0
1.342638335E0,-5.518130064E-1,2.610101700E-1,2.750483513E0
1.346655783E0,-4.683044255E-1,1.341965199E-1,2.830289841E0
1.350673283E0,-4.371824861E-1,4.109764099E-2,2.945725441E0
1.354690783E0,-4.052812755E-1,-6.391394138E-2,2.994037628E0
1.358708283E0,-3.218099475E-1,-1.261482239E-1,2.987435341E0
1.362725783E0,-3.008415997E-1,-1.959905624E-1,3.004925728E0
1.366743283E0,-2.725105882E-1,-2.760167122E-1,2.979599953E0
1.370760783E0,-2.463399768E-1,-3.640816212E-1,2.947448730E0
1.374778283E0,-2.221235037E-1,-4.482625723E-1,2.887002945E0
1.378795783E0,-2.379666269E-1,-5.334333181E-1,2.788796425E0
1.382813283E0,-2.436314970E-1,-6.267358065E-1,2.650542259E0
1.386830783E0,-3.107772470E-1,-6.971855164E-1,2.498638153E0
1.390848283E0,-3.722401559E-1,-7.639600039E-1,2.318782806E0
1.394865783E0,-4.279305935E-1,-7.912483215E-1,2.137323380E0
1.398883283E0,-4.343372285E-1,-8.004962802E-1,1.970949173E0
1.402900783E0,-4.298130572E-1,-7.774517536E-1,1.783778191E0
1.406918283E0,-4.383336604E-1,-7.555667162E-1,1.594960213E0
1.410935783E0,-4.481495023E-1,-7.178662419E-1,1.416399002E0
1.414953231E0,-4.358740151E-1,-7.049392462E-1,1.233721733E0
1.418970626E0,-4.354569316E-1,-6.996784210E-1,1.089886665E0
1.422988022E0,-3.447497785E-1,-6.706932187E-1,9.369688034E-1
1.427005418E0,-3.651041389E-1,-7.255138159E-1,9.302492142E-1
1.431022814E0,-3.554820418E-1,-7.754812241E-1,8.758344650E-1
1.435040210E0,-2.994483709E-1,-7.964897156E-1,8.168268204E-1
1.439057606E0,-2.520820200E-1,-8.222332001E-1,8.058204651E-1
1.443075001E0,-2.156208605E-1,-8.167842627E-1,7.757883072E-1
1.447092397E0,-1.924312711E-1,-8.113448620E-1,7.339658737E-1
1.451109793E0,-1.631008983E-1,-7.894487977E-1,6.660938263E-1
1.455127189E0,-1.225980967E-1,-7.749004364E-1,6.032781601E-1
1.459144585E0,-8.481284976E-2,-7.654192448E-1,5.240163803E-1
1.463161981E0,-5.879119039E-2,-7.896103859E-1,4.378900528E-1
1.467179376E0,-4.650643468E-2,-8.234289885E-1,3.162279129E-1
1.471196772E0,2.528011799E-3,-8.525397778E-1,2.212276459E-1
1.475214168E0,2.624055743E-2,-8.984378576E-1,1.169643402E-1
1.479231564E0,3.918731213E-2,-9.396179914E-1,3.458976746E-3
1.483248960E0,5.355623364E-2,-9.593101740E-1,-1.049566269E-1
1.487266356E0,5.786255002E-2,-9.887998700E-1,-2.154674530E-1
1.491283751E0,5.736589432E-2,-1.032777548E0,-3.854322433E-1
1.495301147E0,1.950335503E-2,-1.036325216E0,-5.717296600E-1
1.499318543E0,-1.668804884E-2,-1.075884938E0,-8.006496429E-1
1.503335939E0,-3.915333748E-2,-1.082229853E0,-1.019514084E0
1.507353335E0,1.480340958E-3,-1.103123665E0,-1.178166389E0
1.511370731E0,3.000181913E-2,-1.128909111E0,-1.367523193E0
1.515388126E0,9.506672621E-2,-1.166473150E0,-1.549245834E0
1.519405522E0,1.477116346E-1,-1.232336521E0,-1.747231483E0
1.523422918E0,1.682269573E-1,-1.290488482E0,-1.961425781E0
1.527440314E0,1.543110609E-1,-1.328798056E0,-2.191822052E0
1.531457710E0,1.066438258E-1,-1.349620581E0,-2.400196075E0
1.535475106E0,6.397983432E-2,-1.307377815E0,-2.579496384E0
1.539492501E0,1.016792655E-2,-1.252498150E0,-2.698760033E0
1.543509897E0,-3.557774425E-2,-1.151519060E0,-2.801161289E0
1.547527293E0,-1.020889580E-1,-1.033208489E0,-2.855687618E0
1.551544689E0,-1.465933770E-1,-9.074203968E-1,-2.876749516E0
1.555562085E0,-2.007355988E-1,-8.124791980E-1,-2.888293266E0
1.559579481E0,-2.313272059E-1,-7.388278842E-1,-2.849707603E0
1.563596876E0,-2.412072271E-1,-6.698366404E-1,-2.873375893E0
1.567614272E0,-2.378609926E-1,-6.197868586E-1,-2.897011757E0
1.571631668E0,-2.500644028E-1,-5.816474557E-1,-2.915808201E0
1.575649064E0,-2.536789477E-1,-5.554578304E-1,-2.917828560E0
1.579666460E0,-2.292123884E-1,-5.199986696E-1,-2.917419910E0
1.583683856E0,-2.214820385E-1,-4.849807024E-1,-2.919369698E0
1.587701251E0,-2.648056149E-1,-4.863263369E-1,-2.964330673E0
1.591718647E0,-3.030059338E-1,-4.975979328E-1,-3.037907600E0
1.595736095E0,-2.056844831E-1,-5.068229437E-1,-3.056360245E0
1.599753595E0,-3.414154053E-2,-5.258898735E-1,-3.012628078E0
1.603771095E0,8.568149805E-2,-5.260589123E-1,-2.933106422E0
1.607788595E0,1.360706985E-1,-5.573810935E-1,-2.882388115E0
1.611806095E0,1.141599417E-1,-5.814644098E-1,-2.836496830E0
1.615823595E0,1.033027470E-1,-5.980950594E-1,-2.833667755E0
1.619841095E0,7.487615943E-2,-5.570750833E-1,-2.885743141E0
1.623858595E0,4.621258378E-2,-4.992091656E-1,-2.940025330E0
1.627876095E0,-1.056680083E-2,-3.862247467E-1,-2.982208252E0
1.631893595E0,-8.975836635E-2,-2.973388433E-1,-2.962137699E0
1.635911095E0,-1.573247164E-1,-2.086962461E-1,-2.906255722E0
1.639928595E0,-1.986806393E-1,-1.085109711E-1,-2.814636707E0
1.643946095E0,-2.089093328E-1,-4.002749920E-2,-2.687345982E0
1.647963595E0,-2.215375602E-1,3.884077072E-3,-2.562683105E0
1.651981095E0,-1.984580010E-1,4.234790802E-2,-2.454963684E0
1.655998595E0,-1.233830750E-1,7.047557831E-2,-2.335430145E0
1.660016095E0,-7.062438130E-2,6.919550896E-2,-2.206497669E0
1.664033543E0,-3.769123554E-2,5.543208122E-2,-2.068203926E0
1.668050939E0,-5.343794823E-3,3.891038895E-2,-1.946877480E0
1.672068335E0,5.191564560E-3,2.222406864E-2,-1.844906807E0
1.676085731E0,5.407887697E-2,3.649222851E-2,-1.733594894E0
1.680103126E0,1.128060818E-1,5.793762207E-2,-1.627348900E0
1.684120522E0,1.934681535E-1,7.235932350E-2,-1.535748482E0
1.688137918E0,2.602168918E-1,7.040369511E-2,-1.451623917E0
1.692155314E0,3.373081684E-1,4.747998714E-2,-1.360663414E0
1.696172710E0,3.818407059E-1,1.809191704E-2,-1.274866104E0
1.700190106E0,4.133409858E-1,-3.237843513E-3,-1.165594101E0
1.704207501E0,5.976128578E-2,-1.503239870E-1,-1.016230583E0
1.708224897E0,7.049900293E-2,-1.648695469E-1,-8.316783905E-1
1.712242293E0,1.050830483E-1,-1.476546526E-1,-7.577629089E-1
1.716259689E0,9.626710415E-2,-9.890007973E-2,-6.555747986E-1
1.720277085E0,1.443215609E-1,-3.557932377E-2,-5.370893478E-1
1.724294481E0,1.986312270E-1,-5.704164505E-3,-3.999042511E-1
1.728311876E0,2.443880439E-1,-1.414942741E-2,-2.344455719E-1
1.732329272E0,2.573617697E-1,-2.512919903E-2,-1.028633118E-1
1.736346668E0,2.612097263E-1,-6.258094311E-2,-1.938629150E-2
1.740364064E0,2.724101543E-1,-1.145288944E-1,4.958343506E-2
1.744381460E0,2.932388186E-1,-1.642013788E-1,1.064758301E-1
1.748398856E0,3.094399571E-1,-1.901054382E-1,1.608734131E-1
1.752416251E0,2.879155278E-1,-2.088567019E-1,2.007827759E-1
1.756433647E0,2.457320094E-1,-1.891131401E-1,2.333488464E-1
1.760451043E0,2.356300354E-1,-1.666604280E-1,2.418289185E-1
1.764468439E0,2.598251104E-1,-1.292061806E-1,2.047224045E-1
1.768485835E0,3.037919998E-1,-8.368456364E-2,1.770696640E-1
1.772503231E0,3.339821100E-1,-4.410111904E-2,1.396751404E-1
1.776520626E0,3.764838576E-1,-7.820606232E-3,1.355619431E-1
1.780538022E0,4.214249849E-1,2.298855782E-2,1.311788559E-1
1.784555418E0,4.636330605E-1,4.857373238E-2,1.743144989E-1
1.788572814E0,4.934230447E-1,6.676101685E-2,2.003107071E-1
1.792590210E0,5.391263366E-1,6.556761265E-2,2.713823318E-1
1.796607606E0,5.884254575E-1,5.707275867E-2,3.396396637E-1
1.800625001E0,6.435389519E-1,6.735730171E-2,4.601116180E-1
1.804642397E0,6.517860889E-1,5.820417404E-2,5.920524597E-1
1.808659793E0,6.445500255E-1,7.719886303E-2,7.832784653E-1
1.812677189E0,6.534295082E-1,8.350586891E-2,9.954204559E-1
1.816694585E0,7.173615694E-1,7.212722301E-2,1.190200806E0
1.820711981E0,7.750005722E-1,5.001187325E-2,1.391562462E0
1.824729376E0,8.438615799E-1,1.446080208E-2,1.592337608E0
1.828746772E0,8.742411137E-1,-3.563165665E-3,1.747122765E0
1.832764168E0,8.973984718E-1,-1.856720448E-2,1.887114525E0
1.836781668E0,9.227975011E-1,-1.385533810E-2,1.998028755E0
1.840799168E0,9.380118847E-1,-1.584076881E-2,2.063248634E0
1.844816668E0,9.665762782E-1,6.617426872E-3,2.092458725E0
1.848834168E0,9.886925220E-1,4.869341850E-2,2.097733498E0
1.852851668E0,1.046789169E0,1.031818390E-1,2.071985245E0
1.856869168E0,1.092202663E0,1.438364983E-1,2.043997765E0
1.860886668E0,1.186238766E0,1.731092930E-1,2.028146744E0
1.864904168E0,1.270580411E0,1.957514286E-1,2.053129196E0
1.868921668E0,1.218144894E0,1.760277748E-1,2.154708862E0
1.872939168E0,1.238779068E0,1.689156294E-1,2.263444901E0
1.876956668E0,1.433706045E0,1.147646904E-1,2.326774597E0
1.880974168E0,1.624829173E0,9.727436304E-2,2.464358330E0
1.884991668E0,1.740322471E0,2.792966366E-2,2.683229446E0
1.889009168E0,1.719028592E0,-7.182854414E-2,2.959320068E0
1.893026668E0,1.603031874E0,-1.904889941E-1,3.249504089E0
1.897044168E0,1.501356363E0,-3.068085313E-1,3.458135605E0
1.901061668E0,1.403146148E0,-4.140870571E-1,3.637972832E0
1.905079064E0,1.331029177E0,-5.248212814E-1,3.769935608E0
1.909096460E0,1.255046606E0,-6.371058226E-1,3.906673431E0
1.913113856E0,1.238370657E0,-7.632689476E-1,3.940556526E0
1.917131251E0,1.207634211E0,-8.988985419E-1,3.950622559E0
1.921148647E0,1.168296099E0,-1.025108695E0,3.881883621E0
1.925166043E0,1.125971556E0,-1.115895987E0,3.758337975E0
1.929183439E0,1.023693919E0,-1.080435395E0,3.587203026E0
1.933201303E0,1.014938831E0,-1.198800325E0,3.270528793E0
1.937218283E0,1.035086870E0,-1.274724364E0,2.935286522E0
1.941235262E0,1.022017002E0,-1.262672424E0,2.614953041E0
1.945252241E0,1.137614012E0,-1.279943109E0,2.240216255E0
1.949269376E0,1.213733673E0,-1.295261383E0,1.830345154E0
1.953286720E0,1.254653096E0,-1.260478616E0,1.428467751E0
1.957304272E0,1.066974640E0,-1.144451737E0,1.125397682E0
1.961321981E0,1.016077280E0,-1.054669023E0,7.679948807E-1
1.965339689E0,1.133573771E0,-8.758239150E-1,3.325405121E-1
1.969357397E0,1.257577300E0,-6.725808382E-1,1.050567627E-2
1.973375106E0,1.329635859E0,-4.494147301E-1,-2.485160828E-1
1.977392762E0,1.368016362E0,-2.493050098E-1,-4.589700699E-1
1.981410210E0,1.329204559E0,-9.576404095E-2,-6.974592209E-1
1.985427606E0,1.298993349E0,1.024282277E-1,-9.185190201E-1
1.989445001E0,1.310528517E0,2.259454727E-1,-1.093512535E0
1.993462397E0,1.289636850E0,3.442806005E-1,-1.248845100E0
1.997479793E0,1.243761778E0,4.338342547E-1,-1.355901718E0
2.001497189E0,1.218746424E0,5.282591581E-1,-1.474572182E0
2.005514585E0,1.169534922E0,5.870569348E-1,-1.552264214E0
2.009531981E0,1.180002213E0,6.964433789E-1,-1.610589981E0
2.013549376E0,1.188201547E0,7.152426839E-1,-1.585051537E0
2.017566772E0,1.180009365E0,6.961871386E-1,-1.597743034E0
2.021584168E0,1.151167393E0,6.634056568E-1,-1.598410606E0
2.025601564E0,1.111935616E0,6.048018336E-1,-1.584702492E0
2.029618960E0,1.010233521E0,6.255409122E-1,-1.611651421E0
2.033636356E0,9.805381298E-1,5.199008584E-1,-1.593136787E0
2.037653751E0,9.369880557E-1,3.859950900E-1,-1.565116882E0
2.041671147E0,8.535029292E-1,2.668040991E-1,-1.565865517E0
2.045688543E0,7.470420003E-1,1.958527565E-1,-1.559485435E0
2.049705939E0,6.699985266E-1,3.211665154E-1,-1.596174240E0
2.053723335E0,5.269615650E-1,1.666926742E-1,-1.606540680E0
2.057740731E0,4.186664224E-1,1.635420322E-1,-1.705417633E0
2.061758126E0,4.023991227E-1,1.631043553E-1,-1.775481224E0
2.065775522E0,3.774337173E-1,1.677703261E-1,-1.835911751E0
2.069792918E0,3.413665295E-1,1.392650008E-1,-1.927367687E0
2.073810314E0,2.966699600E-1,1.327499151E-1,-1.963736534E0
2.077827710E0,2.147915959E-1,1.911576986E-1,-2.019245148E0
2.081845106E0,1.316885352E-1,2.927986979E-1,-2.060384750E0
2.085862501E0,3.338700533E-2,2.630986571E-1,-2.084818840E0
2.089879897E0,-1.081252098E-2,2.697325945E-1,-2.157131195E0
2.093897293E0,-3.224617243E-2,2.934219241E-1,-2.222225666E0
2.097914689E0,-5.996841192E-2,3.317902684E-1,-2.265757561E0
2.101932085E0,-4.407513142E-2,3.704215288E-1,-2.304483891E0
2.105949481E0,-6.395286322E-2,4.260348082E-1,-2.307308197E0
2.109966876E0,-7.455059886E-2,4.699508548E-1,-2.281451702E0
2.113984272E0,-9.797552228E-2,4.929666519E-1,-2.289122105E0
2.118001668E0,-1.562605500E-1,4.833863378E-1,-2.306331635E0
2.122019064E0,-2.377695441E-1,4.916222095E-1,-2.311534882E0
2.126036460E0,-3.354545832E-1,5.009354949E-1,-2.316700935E0
2.130053856E0,-4.228631854E-1,5.543096066E-1,-2.281185150E0
2.134071251E0,-5.309119225E-1,6.180143356E-1,-2.217016220E0
2.138088647E0,-6.447594762E-1,6.679726839E-1,-2.129044056E0
2.142106043E0,-6.849757433E-1,6.753981709E-1,-2.069931030E0
2.146123439E0,-7.204016447E-1,7.790151238E-1,-1.996619225E0
2.150140939E0,-8.287800550E-1,8.348625898E-1,-1.827890873E0
2.154158439E0,-1.024796247E0,9.553242922E-1,-1.635766983E0
2.158175939E0,-1.104462385E0,9.990867972E-1,-1.604421616E0
2.162193439E0,-1.101719618E0,1.013926625E0,-1.613974571E0
2.166210939E0,-1.038891554E0,1.044909239E0,-1.657105446E0
2.170228439E0,-1.062178135E0,1.099144936E0,-1.676350594E0
2.174245939E0,-9.638783932E-1,1.092941761E0,-1.764966965E0
2.178263439E0,-9.165953994E-1,1.012143612E0,-1.762619972E0
2.182280939E0,-8.964241743E-1,9.623154402E-1,-1.772291183E0
2.186298439E0,-9.033573866E-1,9.362878203E-1,-1.772437096E0
2.190315939E0,-8.730039597E-1,8.171746135E-1,-1.830021858E0
2.194333439E0,-8.251791000E-1,7.563162446E-1,-1.892332077E0
2.198350939E0,-7.367240191E-1,6.917001009E-1,-1.870872498E0
2.202368439E0,-7.038419247E-1,6.210749745E-1,-1.921197891E0
2.206385939E0,-6.336627007E-1,6.019474864E-1,-1.961867809E0
2.210403439E0,-5.863698125E-1,6.293654442E-1,-1.952236176E0
2.214420939E0,-5.861144662E-1,7.104105949E-1,-1.954555511E0
2.218438387E0,-6.021096706E-1,7.395827770E-1,-1.877921581E0
2.222455783E0,-6.247581244E-1,7.981271148E-1,-1.813335896E0
2.226473178E0,-6.423329115E-1,8.355435133E-1,-1.712937355E0
2.230490574E0,-6.855368614E-1,8.635811806E-1,-1.603096008E0
2.234507970E0,-8.233177066E-1,8.796430230E-1,-1.474267006E0
2.238525366E0,-9.475640059E-1,9.052186608E-1,-1.314540863E0
2.242542762E0,-1.046062469E0,9.257414341E-1,-1.164621353E0
2.246560158E0,-1.116246939E0,9.412682056E-1,-9.958105087E-1
2.250577553E0,-1.193827033E0,9.256308079E-1,-8.272800446E-1
2.254594949E0,-1.216459513E0,9.053382277E-1,-6.614351273E-1
2.258612345E0,-1.255847931E0,9.331885576E-1,-4.241580963E-1
2.262629741E0,-1.247233033E0,9.300825596E-1,-1.490516663E-1
2.266647137E0,-1.202562928E0,9.583225846E-1,1.399011612E-1
2.270664533E0,-1.172200441E0,9.746249914E-1,3.805198669E-1
2.274681928E0,-1.161071539E0,9.812805653E-1,6.039848328E-1
2.278699324E0,-1.167290092E0,8.728238344E-1,8.127508163E-1
2.282716720E0,-1.196052432E0,7.760534883E-1,1.045119286E0
2.286734116E0,-1.257368088E0,6.402585506E-1,1.274780273E0
2.290751512E0,-1.411418200E0,7.256015539E-1,1.563938141E0
2.294768908E0,-1.502833605E0,6.079365015E-1,1.833603859E0
2.298786303E0,-1.603284478E0,5.432209969E-1,2.035990715E0
2.302803699E0,-1.703116179E0,5.000736713E-1,2.166443825E0
2.306821095E0,-1.787870646E0,4.137157798E-1,2.256179810E0
2.310838491E0,-1.778486013E0,3.081852496E-1,2.322010040E0
2.314855887E0,-1.749114513E0,2.049767673E-1,2.368763924E0
2.318873283E0,-1.675778031E0,9.475287795E-2,2.379731178E0
2.322890678E0,-1.601607800E0,-3.163120151E-2,2.369322777E0
2.326908074E0,-1.555291414E0,-1.280725598E-1,2.332777023E0
2.330925470E0,-1.515104771E0,-2.179148495E-1,2.294034958E0
2.334942866E0,-1.468563795E0,-3.079787493E-1,2.293721199E0
2.338960262E0,-1.403150916E0,-3.880970180E-1,2.295856476E0
2.342977658E0,-1.334849238E0,-4.219276309E-1,2.307551384E0
2.346995053E0,-1.291492939E0,-4.308914542E-1,2.335907936E0
2.351012449E0,-1.296296120E0,-4.386787117E-1,2.361713409E0
2.355029845E0,-1.303315520E0,-4.498921335E-1,2.356233597E0
2.359047241E0,-1.278797030E0,-4.764404595E-1,2.410364151E0
2.363064637E0,-1.230200171E0,-4.658985138E-1,2.471405029E0
2.367082033E0,-1.155798912E0,-4.638135731E-1,2.558502197E0
2.371099428E0,-1.087550879E0,-4.607433379E-1,2.590353012E0
2.375116824E0,-1.017025232E0,-4.638493657E-1,2.591021538E0
2.379134324E0,-9.455341697E-1,-5.255928636E-1,2.582150459E0
2.383151824E0,-8.672234416E-1,-5.978324413E-1,2.623600006E0
2.387169324E0,-7.524477243E-1,-7.259933949E-1,2.669936180E0
2.391186824E0,-6.093997955E-1,-8.383209705E-1,2.816881180E0
2.395204324E0,-4.865394235E-1,-9.255827665E-1,3.014122963E0
2.399221824E0,-3.765001595E-1,-1.002611876E0,3.244888306E0
2.403239324E0,-2.785967588E-1,-1.081915259E0,3.478062630E0
2.407256824E0,-2.419682741E-1,-1.137739658E0,3.723210335E0
2.411274324E0,-2.411998510E-1,-1.185059071E0,3.932446480E0
2.415291824E0,-2.606334090E-1,-1.231782436E0,4.132099152E0
2.419309324E0,-2.799618840E-1,-1.273725152E0,4.341260910E0
2.423326824E0,-3.056645393E-1,-1.306876898E0,4.545540810E0
2.427344324E0,-3.057990670E-1,-1.322115421E0,4.694663048E0
2.431361824E0,-3.515064120E-1,-1.336366892E0,4.690607071E0
2.435379324E0,-4.228478074E-1,-1.373529077E0,4.559851646E0
2.439396824E0,-5.002112985E-1,-1.414094210E0,4.328843117E0
2.443414324E0,-5.594270229E-1,-1.452905297E0,4.040735245E0
2.447431824E0,-6.004490852E-1,-1.494185567E0,3.707533836E0
2.451449220E0,-6.426256895E-1,-1.549176693E0,3.362767220E0
2.455466616E0,-6.623210907E-1,-1.557296753E0,2.958600044E0
2.459484012E0,-6.623096466E-1,-1.591998577E0,2.542947769E0
2.463501408E0,-6.432089806E-1,-1.607003450E0,2.151705742E0
2.467518803E0,-6.368756294E-1,-1.604060173E0,1.763332367E0
2.471536199E0,-6.057411432E-1,-1.570516825E0,1.416107178E0
2.475553595E0,-6.315606833E-1,-1.515621185E0,1.109965324E0
2.479570991E0,-6.570398808E-1,-1.470164061E0,8.806934357E-1
2.483588387E0,-7.109313607E-1,-1.405408502E0,7.233686447E-1
2.487605783E0,-7.645559311E-1,-1.326107502E0,5.709018707E-1
2.491623178E0,-7.893294096E-1,-1.242069602E0,4.209098816E-1
2.495640574E0,-8.019603491E-1,-1.184445977E0,2.757673264E-1
2.499657970E0,-8.121885657E-1,-1.124760151E0,1.450624466E-1
2.503675366E0,-8.275315166E-1,-1.094229937E0,4.316806793E-2
2.507692762E0,-8.050979376E-1,-1.028408766E0,-5.863475800E-2
2.511710158E0,-7.906898260E-1,-9.800426960E-1,-1.866111755E-1
2.515727553E0,-8.009915352E-1,-9.156626463E-1,-3.263721466E-1
2.519744949E0,-7.358481288E-1,-8.401896954E-1,-4.850215912E-1
2.523762345E0,-6.246311665E-1,-7.656352520E-1,-6.768064499E-1
2.527779741E0,-4.896116853E-1,-6.657328010E-1,-8.800554276E-1
2.531797137E0,-4.714028239E-1,-6.148030162E-1,-9.178161621E-1
2.535814533E0,-4.879092574E-1,-5.672978163E-1,-9.219579697E-1
2.539831928E0,-4.667485952E-1,-5.041483045E-1,-9.643402100E-1
2.543849324E0,-4.793847203E-1,-4.516564608E-1,-1.076034546E0
2.547866720E0,-4.778909087E-1,-3.955906928E-1,-1.233000755E0
2.551884116E0,-5.051652789E-1,-4.314757586E-1,-1.439978600E0
2.555901512E0,-5.752977133E-1,-5.447647572E-1,-1.622775078E0
2.559918908E0,-6.496661901E-1,-6.011993885E-1,-1.817346573E0
2.563936303E0,-7.306215167E-1,-5.747398138E-1,-2.021271706E0
2.567953699E0,-7.438079715E-1,-4.918175340E-1,-2.251304626E0
2.571971095E0,-7.682602406E-1,-4.433462024E-1,-2.454783440E0
2.575988491E0,-7.798876166E-1,-4.223087728E-1,-2.629363060E0
2.580005887E0,-8.146804571E-1,-4.286254346E-1,-2.827689648E0
2.584023283E0,-8.270407915E-1,-4.766217172E-1,-2.966027260E0
2.588040678E0,-8.622022271E-1,-5.281704664E-1,-3.063623428E0
2.592058074E0,-9.224525094E-1,-5.738215446E-1,-3.108584404E0
2.596075470E0,-9.763299823E-1,-5.874141455E-1,-3.141689301E0
2.600092866E0,-9.949482679E-1,-5.549972653E-1,-3.151011944E0
2.604110262E0,-9.661410451E-1,-5.079206228E-1,-3.196413994E0
2.608127762E0,-9.019968510E-1,-4.513160288E-1,-3.277819633E0
2.612145262E0,-8.099086881E-1,-4.069247544E-1,-3.297087669E0
2.616162762E0,-7.258937955E-1,-3.105818033E-1,-3.299730301E0
2.620180262E0,-6.642478704E-1,-2.368393242E-1,-3.259472847E0
2.624197762E0,-6.320342422E-1,-1.405834258E-1,-3.200309753E0
2.628215262E0,-6.242601871E-1,-3.642140329E-2,-3.134259701E0
2.632232762E0,-6.237577200E-1,3.465572000E-2,-3.063786507E0
2.636250262E0,-6.397778988E-1,1.132428646E-1,-3.017648697E0
2.640267762E0,-6.125127673E-1,1.584545076E-1,-2.976675987E0
2.644285262E0,-6.303237081E-1,1.772315204E-1,-2.938498497E0
2.648302762E0,-6.213979125E-1,2.149878442E-1,-2.872014046E0
2.652320262E0,-6.406911612E-1,2.213035524E-1,-2.829894066E0
2.656337762E0,-6.448020935E-1,1.794640720E-1,-2.785823345E0
2.660355262E0,-6.383354664E-1,1.373364329E-1,-2.742207050E0
2.664372762E0,-6.212304235E-1,9.966295213E-2,-2.763608932E0
2.668390262E0,-6.101676226E-1,6.894665956E-2,-2.823597908E0
2.672407762E0,-5.883579254E-1,5.469346792E-2,-2.888597488E0
2.676425262E0,-5.583813190E-1,2.601692080E-2,-2.992022514E0
2.680442658E0,-5.179060698E-1,3.332513571E-2,-3.083535194E0
2.684460053E0,-4.766023755E-1,2.894678712E-2,-3.182229519E0
2.688477449E0,-4.464769363E-1,1.312194765E-2,-3.264118195E0
2.692494845E0,-4.419930577E-1,-1.372431219E-2,-3.348295212E0
2.696512241E0,-4.631136060E-1,2.770128846E-2,-3.377300739E0
2.700529637E0,-4.765442014E-1,6.333054602E-2,-3.358315468E0
2.704547033E0,-4.047035277E-1,-1.189173758E-2,-3.413232803E0
2.708564428E0,-3.137040138E-1,-7.572200894E-2,-3.465265751E0
2.712581824E0,-2.548945546E-1,-9.927789867E-2,-3.480858326E0
2.716599220E0,-2.098057270E-1,-4.654717445E-2,-3.481567860E0
2.720616616E0,-1.908347309E-1,4.424650967E-2,-3.462637424E0
2.724634012E0,-2.125256062E-1,1.492415965E-1,-3.433693886E0
2.728651408E0,-2.294536680E-1,2.254279405E-1,-3.385219574E0
2.732668803E0,-2.297501713E-1,3.015396297E-1,-3.326848030E0
2.736686199E0,-2.062178254E-1,3.490225673E-1,-3.308867455E0
2.740703595E0,-1.443078220E-1,3.632047176E-1,-3.333654404E0
2.744720991E0,-7.506227493E-2,3.610097468E-1,-3.346172333E0
2.748738387E0,2.768743038E-2,3.377830684E-1,-3.401483536E0
2.752755783E0,1.325511336E-1,2.887839675E-1,-3.389523506E0
2.756773178E0,1.986695975E-1,2.356468737E-1,-3.291289806E0
2.760790574E0,2.785413861E-1,1.688015461E-1,-3.171521187E0
2.764807970E0,3.312386870E-1,9.060883522E-2,-3.104424477E0
2.768825366E0,3.424528837E-1,-6.100833416E-3,-3.034940243E0
2.772842762E0,3.052281737E-1,-1.141982377E-1,-2.939175129E0
2.776860158E0,4.120745957E-1,-2.554758489E-1,-2.924812317E0
2.780877553E0,3.274760842E-1,-4.541734159E-1,-2.814738274E0
2.784894949E0,1.861569285E-1,-5.359029174E-1,-2.501458645E0
2.788912345E0,5.634515733E-2,-6.084513664E-1,-2.147934914E0
2.792929741E0,-2.281977423E-2,-6.908001900E-1,-1.840344429E0
2.796947137E0,-6.064548343E-2,-8.114290237E-1,-1.585807800E0
2.800964533E0,-6.200291589E-2,-9.770205021E-1,-1.365134239E0
2.804981928E0,-3.438555822E-2,-1.117848516E0,-1.142412186E0
2.808999324E0,-1.429984160E-2,-1.216787696E0,-9.152755737E-1
2.813016720E0,-2.868748456E-2,-1.240137815E0,-6.526508331E-1
2.817034116E0,-3.720781207E-2,-1.209180713E0,-3.809127808E-1
2.821051512E0,-4.437177628E-2,-1.116815925E0,-6.179714203E-2
2.825068908E0,-6.134502217E-2,-9.891957045E-1,2.376489639E-1
2.829086303E0,-6.562657654E-2,-8.502516747E-1,4.672250748E-1
2.833103803E0,-6.133704633E-2,-7.452443838E-1,6.389884949E-1
2.837121303E0,-9.837456048E-2,-6.526200175E-1,7.817277908E-1
2.841138803E0,-1.095135063E-1,-6.057088375E-1,8.978729248E-1
2.845156303E0,-1.711359173E-1,-5.708351135E-1,1.037692070E0
2.849173803E0,-2.375404984E-1,-5.692846775E-1,1.141342163E0
2.853191303E0,-2.961173654E-1,-5.648850799E-1,1.285401344E0
2.857208803E0,-3.251678348E-1,-5.623645186E-1,1.400444031E0
2.861226303E0,-3.436935246E-1,-5.686476827E-1,1.531954765E0
2.865243803E0,-3.445394337E-1,-5.980739594E-1,1.675135612E0
2.869261303E0,-3.684831858E-1,-6.100280285E-1,1.825209618E0
2.873278803E0,-4.084566236E-1,-6.141775250E-1,1.946310997E0
2.877296303E0,-4.622169137E-1,-6.226560473E-1,2.072001457E0
2.881313803E0,-5.276346803E-1,-6.211569309E-1,2.190351486E0
2.885331303E0,-5.571050644E-1,-6.169056892E-1,2.322934151E0
2.889348803E0,-5.870229006E-1,-6.219602823E-1,2.450641632E0
2.893366303E0,-6.009544730E-1,-5.623537302E-1,2.609413147E0
2.897383803E0,-5.778901577E-1,-5.053784847E-1,2.784907341E0
2.901401303E0,-5.039412975E-1,-4.559569657E-1,2.965198517E0
2.905418751E0,-3.939422667E-1,-3.927806318E-1,3.143158913E0
2.909436147E0,-2.074822783E-1,-3.877815902E-1,3.342764854E0
2.913453543E0,-4.262268543E-3,-3.955412805E-1,3.571197510E0
2.917470939E0,2.496603727E-1,-4.259982407E-1,3.897806168E0
2.921488335E0,5.505878925E-1,-4.461976886E-1,4.303284645E0
2.925505731E0,8.947384357E-1,-4.659155011E-1,4.663085938E0
2.929523126E0,1.228092432E0,-4.999199808E-1,4.965246201E0
2.933540522E0,1.551447272E0,-5.554696918E-1,5.228925705E0
2.937557918E0,1.896437407E0,-5.825582743E-1,5.430194855E0
2.941575314E0,2.232224464E0,-5.931860209E-1,5.602587700E0
2.945592710E0,2.539674759E0,-5.564031601E-1,5.774823189E0
2.949610106E0,2.859183311E0,-4.961795807E-1,5.858390808E0
2.953627501E0,3.142510414E0,-4.411325455E-1,5.846250534E0
2.957644897E0,3.267456770E0,-3.912597299E-1,5.848576546E0
2.961662293E0,3.224251986E0,-3.512763977E-1,5.791215897E0
2.965679689E0,2.993512154E0,-3.116542697E-1,5.755604744E0
2.969697085E0,2.637536287E0,-3.205991983E-1,5.741688728E0
2.973714481E0,2.226402998E0,-3.904848695E-1,5.699117661E0
2.977731876E0,1.797013640E0,-5.337328911E-1,5.639754295E0
2.981749272E0,1.424159050E0,-7.317522168E-1,5.527617455E0
2.985766668E0,1.093713164E0,-9.657742381E-1,5.343552589E0
2.989784064E0,7.600772381E-1,-1.197810173E0,5.101963043E0
2.993801460E0,4.470324516E-1,-1.387474775E0,4.829197884E0
2.997818856E0,1.355265975E-1,-1.511299849E0,4.568294525E0
3.001836251E0,-1.383546591E-1,-1.569835901E0,4.316766739E0
3.005853647E0,-3.578570485E-1,-1.561252117E0,4.017127991E0
3.009871043E0,-5.213428140E-1,-1.514775157E0,3.686181068E0
3.013888439E0,-6.059807539E-1,-1.421261311E0,3.316809654E0
3.017905835E0,-5.793707967E-1,-1.280933738E0,2.935417175E0
3.021923231E0,-4.999657869E-1,-1.122636437E0,2.556409836E0
3.025940626E0,-3.684632182E-1,-9.295159578E-1,2.187005043E0
3.029958022E0,-1.903667003E-1,-7.206425667E-1,1.832017899E0
3.033975418E0,9.543120861E-3,-4.673295021E-1,1.493865013E0
3.037992814E0,3.828697801E-1,-3.830063343E-2,1.060125351E0
3.042010210E0,4.727869332E-1,7.365250587E-2,8.132419586E-1
3.046027606E0,6.076194048E-1,2.089757919E-1,5.161800385E-1
3.050045001E0,7.207537889E-1,3.347641826E-1,2.265081406E-1
3.054062501E0,7.743560076E-1,4.348489046E-1,-1.203031540E-1
3.058080001E0,7.494680285E-1,5.173206329E-1,-4.905681610E-1
3.062097501E0,6.987974644E-1,5.832014680E-1,-9.104557037E-1
3.066115001E0,6.488268375E-1,6.046684980E-1,-1.315225601E0
3.070132501E0,6.091927290E-1,6.881368160E-1,-1.762228966E0
3.074150001E0,6.208440661E-1,7.889942527E-1,-2.134133816E0
3.078167501E0,6.506300569E-1,9.798630476E-1,-2.478863716E0
3.082185001E0,6.868662834E-1,1.144062996E0,-2.779703140E0
3.086202501E0,7.082082629E-1,1.291625619E0,-3.034335136E0
3.090220001E0,6.378352642E-1,1.377186894E0,-3.273946285E0
3.094237501E0,5.493856072E-1,1.407989502E0,-3.433987617E0
3.098255001E0,4.853394628E-1,1.424375415E0,-3.574406147E0
3.102272501E0,4.694146514E-1,1.442913771E0,-3.659371853E0
3.106290001E0,4.873785675E-1,1.434799552E0,-3.722479820E0
3.110307501E0,5.133366585E-1,1.402492762E0,-3.742255688E0
3.114325001E0,5.117648244E-1,1.348159671E0,-3.709218502E0
3.118342501E0,5.139825940E-1,1.288447142E0,-3.635418892E0
3.122360001E0,5.104950666E-1,1.213351250E0,-3.554425240E0
3.126377449E0,4.994121194E-1,1.143913746E0,-3.396898270E0
3.130394845E0,5.130081177E-1,1.081643105E0,-3.172556877E0
3.134412241E0,5.079421401E-1,1.033342838E0,-3.058521271E0
3.138429637E0,5.364393592E-1,9.963969588E-1,-2.906310081E0
3.142447033E0,5.548955798E-1,9.849932790E-1,-2.773367405E0
3.146464428E0,5.559457541E-1,9.798535705E-1,-2.669226646E0
3.150481824E0,5.252684355E-1,9.952836037E-1,-2.622550011E0
3.154499220E0,4.729471207E-1,9.906546474E-1,-2.621306419E0
3.158516616E0,3.777382672E-1,9.684112072E-1,-2.629551888E0
3.162534012E0,2.900482714E-1,9.287914038E-1,-2.690336227E0
3.166551408E0,2.362933457E-1,8.623578548E-1,-2.731817245E0
3.170568803E0,1.657072008E-1,7.476020455E-1,-2.765960693E0
3.174586199E0,1.956994236E-1,6.488199830E-1,-2.962546349E0
3.178603595E0,4.899945855E-2,5.324835777E-1,-2.897905350E0
3.182620991E0,-9.385532141E-2,4.014093876E-1,-2.849922180E0
3.186638387E0,-2.127243876E-1,2.748818099E-1,-2.792290688E0
3.190655783E0,-3.400282860E-1,1.462302804E-1,-2.744223595E0
3.194673178E0,-4.701350927E-1,3.058573604E-2,-2.758407593E0
3.198690574E0,-6.010433435E-1,-1.488281786E-1,-2.794273376E0
3.202707970E0,-6.224726439E-1,-9.117439389E-2,-2.847226620E0
3.206725366E0,-5.659837723E-1,-6.388852000E-2,-3.012899399E0
3.210742762E0,-2.512828708E-1,-3.547107577E-1,-3.176234245E0
3.214760158E0,5.157646537E-2,-6.848053932E-1,-3.385048866E0
3.218777553E0,5.263751745E-2,-5.634014606E-1,-3.519660473E0
3.222794949E0,-6.407141685E-2,-3.048339188E-1,-3.549026012E0
3.226812345E0,-2.055200040E-1,2.107301354E-2,-3.635934353E0
3.230829741E0,-2.883940935E-1,3.112835288E-1,-3.663059711E0
3.234847137E0,-3.848665953E-1,5.659521818E-1,-3.654393196E0
3.238864533E0,-5.048339367E-1,8.375514746E-1,-3.607560635E0
3.242881928E0,-6.148928404E-1,1.137778282E0,-3.431677818E0
3.246899324E0,-6.961110830E-1,1.428150654E0,-3.210623741E0
3.250916720E0,-7.509634495E-1,1.698963404E0,-2.965973377E0
3.254934116E0,-7.172377706E-1,1.895210981E0,-2.702532291E0
3.258951512E0,-6.382802725E-1,1.956860900E0,-2.410730362E0
3.262968908E0,-5.717217922E-1,1.898290515E0,-2.138436317E0
3.266986303E0,-8.697041273E-1,1.228923082E0,-1.962157726E0
3.271003803E0,-7.326042056E-1,1.164725900E0,-1.656868935E0
3.275021303E0,-5.719219446E-1,1.195265889E0,-1.371064186E0
3.279038803E0,-3.009248376E-1,1.195671320E0,-1.044894218E0
3.283056303E0,-1.009072363E-2,1.127239108E0,-7.382011414E-1
3.287073803E0,1.956850141E-1,1.061455846E0,-5.083646774E-1
3.291091303E0,3.025059104E-1,1.026737809E0,-3.122072220E-1
3.295108803E0,3.177513182E-1,9.702255726E-1,-1.664180756E-1
3.299126303E0,2.365188599E-1,9.302463531E-1,-4.221248627E-2
3.303143803E0,6.566664577E-2,8.996616006E-1,1.178636551E-1
3.307161303E0,-1.620125771E-1,8.976150751E-1,2.850561142E-1
3.311178803E0,-3.924408555E-1,9.311565757E-1,4.713106155E-1
3.315196303E0,-6.145040393E-1,9.547110796E-1,6.885471344E-1
3.319213803E0,-8.386733532E-1,1.032543540E0,9.271287918E-1
3.323231303E0,-1.010789514E0,1.135298848E0,1.191779137E0
3.327248803E0,-1.133950591E0,1.226586342E0,1.386724472E0
3.331266303E0,-1.213392496E0,1.289331436E0,1.555077553E0
3.335283803E0,-1.254138350E0,1.340127826E0,1.701625824E0
3.339301303E0,-1.253862619E0,1.336138725E0,1.809625626E0
3.343318803E0,-1.205522656E0,1.289699435E0,1.914998055E0
3.347336199E0,-1.080053091E0,1.251327634E0,2.065602303E0
3.351353595E0,-8.507776260E-1,1.151900887E0,2.258999825E0
3.355370991E0,-5.603929758E-1,9.799430966E-1,2.449702263E0
3.359388387E0,-2.845364809E-1,7.981631756E-1,2.707124710E0
3.363405783E0,-1.442746818E-2,6.450493932E-1,3.031226158E0
3.367423178E0,1.984553337E-1,5.708718896E-1,3.398023605E0
3.371440574E0,3.361097574E-1,5.560564995E-1,3.668709755E0
3.375457970E0,3.895200193E-1,6.146521568E-1,3.908003807E0
3.379475366E0,4.641432464E-1,5.741188526E-1,4.072871208E0
3.383492762E0,4.217740297E-1,7.140140533E-1,4.273459435E0
3.387510158E0,3.663759828E-1,8.926300406E-1,4.440347672E0
3.391527553E0,3.035017848E-1,1.023713827E0,4.575976372E0
3.395544949E0,2.666547298E-1,1.035910606E0,4.630146027E0
3.399562345E0,2.957410216E-1,9.395094514E-1,4.550326347E0
3.403579741E0,3.514141440E-1,8.119261265E-1,4.473058701E0
3.407597137E0,3.661704063E-1,6.946226358E-1,4.450972557E0
3.411614533E0,3.802125454E-1,6.241633296E-1,4.431367874E0
3.415631928E0,3.811227679E-1,5.651304722E-1,4.438161850E0
3.419649324E0,4.015363753E-1,5.370576382E-1,4.428247452E0
3.423666720E0,4.332908094E-1,4.970657229E-1,4.449470520E0
3.427684116E0,4.226903915E-1,4.763997495E-1,4.530475616E0
3.431701512E0,4.097056091E-1,4.103359878E-1,4.661590576E0
3.435718908E0,3.486297727E-1,3.105610609E-1,4.871453285E0
3.439736303E0,2.488377839E-1,1.765655577E-1,5.076213837E0
3.443753699E0,1.105015874E-1,1.949337870E-2,5.295015335E0
3.447771095E0,-6.442493200E-2,-2.186283767E-1,5.444080353E0
3.451788491E0,-2.969228327E-1,-4.665055871E-1,5.578533173E0
3.455805887E0,-5.307103395E-1,-6.508578658E-1,5.691239357E0
3.459823283E0,-7.289888859E-1,-8.467717767E-1,5.731996536E0
3.463840678E0,-9.126580954E-1,-1.021472931E0,5.672190666E0
3.467858074E0,-1.055249453E0,-1.201853037E0,5.545432091E0
3.471875470E0,-1.166410923E0,-1.337906241E0,5.363761902E0
3.475892866E0,-1.263001919E0,-1.434648037E0,5.100923538E0
3.479910262E0,-1.326018810E0,-1.487282991E0,4.788125992E0
3.483927658E0,-1.346140862E0,-1.517245889E0,4.420651436E0
3.487945158E0,-1.316408873E0,-1.507430077E0,4.034464836E0
3.491962658E0,-1.263283491E0,-1.440633535E0,3.643963814E0
3.495980158E0,-1.199235916E0,-1.347401977E0,3.253940582E0
3.499997658E0,-1.095793009E0,-1.229738832E0,2.912257195E0
3.504015158E0,-9.772732258E-1,-1.077666998E0,2.635603905E0
3.508032658E0,-8.461956978E-1,-9.340682626E-1,2.383237839E0
3.512050158E0,-7.121865153E-1,-7.601547837E-1,2.133605957E0
3.516067658E0,-5.825074911E-1,-6.466615200E-1,1.913028717E0
3.520085158E0,-4.496491551E-1,-5.236994624E-1,1.676027298E0
3.524102658E0,-3.371481597E-1,-4.603621364E-1,1.468091011E0
3.528120158E0,-2.539631724E-1,-4.059494138E-1,1.222202301E0
3.532137658E0,-1.853281856E-1,-3.720721006E-1,9.790802002E-1
3.536155158E0,-1.209165454E-1,-3.535805941E-1,7.339353561E-1
3.540172658E0,-1.033279598E-1,-3.310226500E-1,5.106868744E-1
3.544190158E0,-7.206371427E-2,-3.400847614E-1,2.997236252E-1
3.548207658E0,-4.832787812E-2,-3.543130457E-1,1.058034897E-1
3.552225158E0,-6.526026130E-2,-3.739003539E-1,-6.871032715E-2
3.556242658E0,-8.433596790E-2,-3.988677561E-1,-2.334232330E-1
3.560260158E0,-1.245606393E-1,-4.294047356E-1,-4.074888229E-1
3.564277553E0,-1.762780994E-1,-4.802493155E-1,-5.621814728E-1
3.568294949E0,-2.204204649E-1,-5.443942547E-1,-7.740831375E-1
3.572312345E0,-2.569551468E-1,-6.149249077E-1,-9.665546417E-1
3.576329741E0,-3.224351406E-1,-6.968186498E-1,-1.199433327E0
3.580347137E0,-4.612997174E-1,-7.536844015E-1,-1.563612938E0
3.584364533E0,-5.770935416E-1,-7.973675132E-1,-1.793360710E0
3.588381928E0,-6.859066486E-1,-8.832328320E-1,-2.046719551E0
3.592399324E0,-7.301393747E-1,-9.706677198E-1,-2.328433037E0
3.596416720E0,-7.434132099E-1,-1.066918135E0,-2.624098778E0
3.600434116E0,-7.597770095E-1,-1.157689810E0,-2.897812843E0
3.604451512E0,-7.723435163E-1,-1.202426195E0,-3.120885849E0
3.608468908E0,-7.742545009E-1,-1.208469510E0,-3.293376923E0
3.612486303E0,-7.611442804E-1,-1.188069820E0,-3.436880112E0
3.616503699E0,-7.478119135E-1,-1.172514200E0,-3.553827286E0
3.620521095E0,-7.464803457E-1,-1.143004417E0,-3.639462471E0
3.624538491E0,-7.241504192E-1,-1.126047373E0,-3.739295006E0
3.628555887E0,-7.169301510E-1,-1.105181456E0,-3.824596405E0
3.632573283E0,-6.916244030E-1,-1.071053267E0,-3.914534569E0
3.636590678E0,-6.651098728E-1,-1.045337319E0,-4.001930714E0
3.640608074E0,-6.424061060E-1,-1.047328591E0,-4.098759651E0
3.644625470E0,-5.925127268E-1,-1.017303586E0,-4.200229168E0
3.648642866E0,-5.587413907E-1,-1.005687356E0,-4.284810066E0
3.652660262E0,-5.099692941E-1,-9.980515242E-1,-4.366882801E0
3.656677658E0,-4.725717902E-1,-9.658171535E-1,-4.403382301E0
3.660695053E0,-4.273537397E-1,-9.233624339E-1,-4.442210674E0
3.664712449E0,-3.572879434E-1,-8.994498253E-1,-4.430711746E0
3.668729845E0,-2.549540401E-1,-9.037222862E-1,-4.414381981E0
3.672747241E0,-1.584058404E-1,-8.980530500E-1,-4.383623123E0
3.676764637E0,-7.456034422E-2,-8.969031572E-1,-4.352780342E0
3.680782033E0,2.272242308E-2,-9.146360755E-1,-4.340987206E0
3.684799428E0,9.533649683E-2,-9.201555252E-1,-4.345801353E0
3.688816824E0,1.459010243E-1,-8.896824121E-1,-4.343240738E0
3.692834220E0,2.029067278E-1,-8.709705472E-1,-4.426622391E0
3.696851616E0,2.348305583E-1,-8.278933167E-1,-4.497762680E0
3.700869116E0,2.127494216E-1,-7.744466662E-1,-4.585408211E0
3.704886616E0,1.820571423E-1,-7.388909459E-1,-4.644105911E0
3.708904116E0,1.263101697E-1,-6.873707771E-1,-4.695420265E0
3.712921616E0,1.009282470E-1,-6.696971059E-1,-4.751330376E0
3.716939116E0,5.615377426E-2,-6.639523506E-1,-4.792684078E0
3.720956616E0,-1.723414660E-2,-6.911997795E-1,-4.857803822E0
3.724974116E0,-6.403452158E-2,-7.030740380E-1,-4.927560806E0
3.728991616E0,-1.058151722E-1,-6.849923134E-1,-4.992416382E0
3.733009116E0,-1.307673454E-1,-6.606286764E-1,-5.028501034E0
3.737026616E0,-1.366972923E-1,-6.010922194E-1,-5.057427406E0
3.741044116E0,-1.404951215E-1,-5.349614620E-1,-5.084030151E0
3.745061616E0,-9.679442644E-2,-4.573324919E-1,-5.091601372E0
3.749079116E0,-2.989405394E-2,-3.705900311E-1,-5.068237305E0
3.753096616E0,1.004788280E-1,-2.937271595E-1,-5.028385162E0
3.757114116E0,2.077533007E-1,-2.360374928E-1,-4.976912498E0
3.761131616E0,2.991196513E-1,-1.853497624E-1,-4.918655872E0
3.765149116E0,3.745208383E-1,-1.390972137E-1,-4.839303970E0
3.769166616E0,4.342647791E-1,-9.707570076E-2,-4.760437012E0
3.773184116E0,4.880121350E-1,-3.281962872E-2,-4.698822021E0
3.777201512E0,5.670302510E-1,1.798212528E-2,-4.606614590E0
3.781218908E0,6.165100336E-1,1.083533764E-1,-4.500640869E0
3.785236303E0,6.654454470E-1,1.976689100E-1,-4.392881393E0
3.789253699E0,7.046673894E-1,2.574424744E-1,-4.249852180E0
3.793271095E0,7.417613864E-1,3.166162968E-1,-4.083562851E0
3.797288491E0,7.579814792E-1,3.297646046E-1,-3.848563194E0
3.801305887E0,7.249742150E-1,3.209388256E-1,-3.590379715E0
3.805323283E0,6.383521557E-1,2.778879404E-1,-3.230022430E0
3.809340678E0,5.486957431E-1,2.027016878E-1,-2.868030548E0
3.813358074E0,4.583041668E-1,6.391513348E-2,-2.494770050E0
3.817375470E0,3.624481857E-1,-7.178640366E-2,-2.119755268E0
3.821392866E0,2.393633276E-1,-2.525576353E-1,-1.797966003E0
3.825410262E0,1.607209742E-1,-4.236724973E-1,-1.500569344E0
3.829427658E0,8.320410550E-2,-6.236771345E-1,-1.222700119E0
3.833445053E0,2.598711848E-2,-8.502939343E-1,-9.642982483E-1
3.837462449E0,-4.931420088E-2,-1.074949503E0,-7.396545410E-1
3.841479845E0,-1.115756929E-1,-1.259354472E0,-5.152139664E-1
3.845497241E0,-1.991849840E-1,-1.405950308E0,-3.076992035E-1
3.849514637E0,-2.428984344E-1,-1.517121553E0,-1.505661011E-1
3.853532033E0,-2.933225036E-1,-1.549764395E0,1.367950439E-2
3.857549428E0,-3.338881433E-1,-1.544527054E0,1.491565704E-1
3.861566824E0,-3.671999872E-1,-1.467795610E0,2.798423767E-1
3.865584220E0,-3.839930594E-1,-1.381673813E0,4.296855927E-1
3.869601616E0,-3.915178776E-1,-1.245374203E0,5.986948013E-1
3.873619012E0,-3.515144587E-1,-1.123550057E0,8.108139038E-1
3.877636408E0,-2.542313337E-1,-1.011367202E0,1.085179329E0
3.881653803E0,-1.207073927E-1,-8.826510906E-1,1.412214279E0
3.885671199E0,5.916582048E-2,-7.615579367E-1,1.772779465E0
3.889688595E0,2.477067411E-1,-6.506031752E-1,2.119050980E0
3.893705991E0,4.647363424E-1,-5.738477707E-1,2.422404289E0
3.897723387E0,6.940309405E-1,-4.975869656E-1,2.649460793E0
3.901740783E0,9.357079268E-1,-4.407499433E-1,2.793197632E0
3.905758178E0,1.120464921E0,-3.958339095E-1,2.892072678E0
3.909775626E0,1.286566138E0,-3.696793318E-1,2.958184242E0
3.913793126E0,1.426584721E0,-3.880871534E-1,2.984492302E0
3.917810626E0,1.494377971E0,-4.242633879E-1,2.983100891E0
3.921828126E0,1.469801188E0,-4.896529913E-1,3.001993179E0
3.925845626E0,1.378275633E0,-5.720022917E-1,3.113021851E0
3.929863126E0,1.228736162E0,-7.287959456E-1,3.354444504E0
3.933880626E0,1.087888122E0,-9.483359456E-1,3.690297127E0
3.937898126E0,9.579218626E-1,-1.276553392E0,4.125313759E0
3.941915626E0,8.627511263E-1,-1.656702876E0,4.635477066E0
3.945933126E0,7.878082991E-1,-2.082307816E0,5.170438766E0
3.949950626E0,7.334634066E-1,-2.523074150E0,5.732537270E0
3.953968126E0,6.763841510E-1,-2.912770033E0,6.266678810E0
3.957985626E0,6.148683429E-1,-3.266768932E0,6.779983521E0
3.962003126E0,5.686908364E-1,-3.588566065E0,7.174230576E0
3.966020626E0,4.856433272E-1,-3.893579721E0,7.494821548E0
3.970038126E0,4.378623962E-1,-4.163402557E0,7.727292061E0
3.974055626E0,3.635019064E-1,-4.355569363E0,7.864390373E0
3.978073126E0,2.939831316E-1,-4.482552528E0,7.882129669E0
3.982090626E0,2.348956466E-1,-4.554092407E0,7.804512024E0
3.986108126E0,1.698500514E-1,-4.575110435E0,7.667446136E0
3.990125522E0,1.303866506E-1,-4.540912628E0,7.456594467E0
3.994142918E0,4.225915670E-2,-4.420565605E0,7.200647354E0
3.998160314E0,-1.162092090E-1,-4.206962585E0,6.928288460E0
4.002177710E0,-3.164476752E-1,-3.941036701E0,6.622668266E0
4.006195106E0,-5.727410316E-1,-3.618172169E0,6.274169922E0
4.010212501E0,-7.942426205E-1,-3.319864988E0,5.897113800E0
4.014229897E0,-9.789140224E-1,-3.029439449E0,5.472290039E0
4.018247293E0,-1.108332992E0,-2.749350309E0,5.004397392E0
4.022264689E0,-1.178445816E0,-2.503650665E0,4.545951843E0
4.026282085E0,-1.206853390E0,-2.242151737E0,4.068046570E0
4.030299481E0,-1.153757691E0,-2.012960196E0,3.627872467E0
4.034316876E0,-1.067972422E0,-1.780257463E0,3.196437836E0
4.038334272E0,-9.097414017E-1,-1.486780167E0,2.814137459E0
4.042351668E0,-7.323956490E-1,-1.190417528E0,2.466240883E0
4.046369064E0,-5.054388046E-1,-9.320440292E-1,2.140491486E0
4.050386460E0,-2.344667912E-1,-6.591246128E-1,1.867700577E0
4.054403856E0,8.712208271E-2,-4.243373871E-1,1.592597961E0
4.058421251E0,3.964310884E-1,-2.059507370E-1,1.303093910E0
4.062438647E0,7.049717903E-1,-1.583147049E-2,1.042158127E0
4.066456043E0,1.031712532E0,1.607170105E-1,8.026142120E-1
4.070473439E0,1.342980385E0,3.262743950E-1,5.413904190E-1
4.074490835E0,1.641402960E0,4.908621311E-1,2.945947647E-1
4.078508231E0,1.903212309E0,6.597926617E-1,3.612041473E-2
4.082525626E0,2.138262749E0,8.288218975E-1,-2.624645233E-1
4.086543022E0,2.315962791E0,9.987951517E-1,-5.624227524E-1
4.090560418E0,2.460638762E0,1.184779167E0,-8.538446426E-1
4.094577814E0,2.558429241E0,1.368397832E0,-1.141158104E0
4.098595210E0,2.614567757E0,1.533547044E0,-1.445595741E0
4.102612606E0,2.665342808E0,1.668929815E0,-1.740536690E0
4.106630001E0,2.701648712E0,1.784817576E0,-2.016126156E0
4.110647397E0,2.723748207E0,1.898594141E0,-2.269774914E0
4.114664793E0,2.703148127E0,1.984541178E0,-2.513282776E0
4.118682189E0,2.661782503E0,2.062341213E0,-2.756047249E0
4.122699689E0,2.616673946E0,2.125318527E0,-2.978782654E0
4.126717189E0,2.548913002E0,2.176285267E0,-3.167051315E0
4.130734689E0,2.470673323E0,2.225022554E0,-3.356738091E0
4.134752189E0,2.393959045E0,2.262253761E0,-3.492780685E0
4.138769689E0,2.285363436E0,2.295253038E0,-3.572856903E0
4.142787189E0,2.223972082E0,2.307168484E0,-3.565979958E0
4.146804689E0,2.166856289E0,2.305095196E0,-3.515342712E0
4.150822189E0,2.080839157E0,2.286595821E0,-3.430557251E0
4.154839689E0,2.023547173E0,2.251414299E0,-3.354786396E0
4.158857189E0,1.964033127E0,2.199454308E0,-3.290428162E0
4.162874689E0,1.907078028E0,2.137825727E0,-3.206408501E0
4.166892189E0,1.852840662E0,2.073482990E0,-3.164997101E0
4.170909689E0,1.796569943E0,2.001512527E0,-3.096795559E0
4.174927189E0,1.721674919E0,1.921775341E0,-3.071240902E0
4.178944689E0,1.604287386E0,1.874864101E0,-3.009355545E0
4.182962189E0,1.430377126E0,1.819903493E0,-2.944681168E0
4.186979689E0,1.288956046E0,1.727991939E0,-2.812610626E0
4.190997189E0,1.168657422E0,1.587063074E0,-2.670593262E0
4.195014689E0,1.062731743E0,1.451974988E0,-2.554518223E0
4.199032137E0,9.402836561E-1,1.315456867E0,-2.452387810E0
4.203049533E0,8.300688267E-1,1.210666656E0,-2.366647720E0
4.207066928E0,7.032062411E-1,1.120578170E0,-2.323668480E0
4.211084324E0,5.786409974E-1,1.064108849E0,-2.325862885E0
4.215101720E0,4.393035769E-1,1.050518036E0,-2.332598686E0
4.219119116E0,3.206858635E-1,1.057922840E0,-2.377478600E0
4.223136512E0,1.864914894E-1,1.064785242E0,-2.458112717E0
4.227153908E0,8.409583569E-2,1.080554962E0,-2.517126083E0
4.231171303E0,-1.560461521E-2,1.076538205E0,-2.588085175E0
4.235188699E0,-5.056893826E-2,1.060178757E0,-2.670956135E0
4.239206095E0,-8.801543713E-2,1.038751364E0,-2.739412308E0
4.243223491E0,-1.112838984E-1,1.036435127E0,-2.810190201E0
4.247240887E0,-9.406924248E-2,1.031886578E0,-2.854542732E0
4.251258283E0,-5.797922611E-2,1.070808649E0,-2.903570175E0
4.255275678E0,-2.224564552E-2,1.127074718E0,-2.902213097E0
4.259293074E0,8.424043655E-3,1.227080703E0,-2.874437332E0
4.263310470E0,1.243746281E-2,1.301533222E0,-2.762844086E0
4.267327866E0,-1.251351833E-2,1.381409168E0,-2.610626221E0
4.271345262E0,-2.334535122E-2,1.447474360E0,-2.429812431E0
4.275362658E0,8.912205696E-3,1.466032386E0,-2.234789848E0
4.279380053E0,3.893375397E-2,1.429615259E0,-2.056704044E0
4.283397449E0,8.121883869E-2,1.376407743E0,-1.933817387E0
4.287414845E0,1.574461460E-1,1.287189126E0,-1.830164909E0
4.291432241E0,2.174345255E-1,1.202674270E0,-1.772025108E0
4.295449637E0,2.491214275E-1,1.153936148E0,-1.742613792E0
4.299467033E0,2.788702250E-1,1.121901989E0,-1.713166237E0
4.303484428E0,3.376419544E-1,1.132929087E0,-1.690871239E0
4.307501824E0,3.511954546E-1,1.132015705E0,-1.699640274E0
4.311519220E0,3.697221279E-1,1.141103745E0,-1.701116085E0
4.315536616E0,3.931229115E-1,1.170088768E0,-1.692882538E0
4.319554012E0,4.213469625E-1,1.209892750E0,-1.727527142E0
4.323571408E0,4.326468706E-1,1.232226729E0,-1.694916248E0
4.327588803E0,4.079203606E-1,1.287769198E0,-1.595082283E0
4.331606251E0,3.403153419E-1,1.321599722E0,-1.365845680E0
4.335623751E0,2.974102497E-1,1.312023044E0,-9.738225937E-1
4.339641251E0,2.508493662E-1,1.220466495E0,-5.436162949E-1
4.343658751E0,2.106236219E-1,1.101680517E0,-1.111478806E-1
4.347676251E0,1.621910334E-1,9.720739722E-1,2.924060822E-1
4.351693751E0,1.029434204E-1,8.076132536E-1,6.407136917E-1
4.355711251E0,2.514314651E-2,6.653983593E-1,9.600305557E-1
4.359728751E0,-5.015146732E-2,5.762690306E-1,1.207222939E0
4.363746251E0,-1.234267950E-1,5.111174583E-1,1.454035759E0
4.367763751E0,-1.976133585E-1,4.672815204E-1,1.678822517E0
4.371781251E0,-2.540445328E-1,4.229214191E-1,1.893458366E0
4.375798751E0,-2.978789806E-1,3.826853633E-1,2.114624977E0
4.379816251E0,-3.343422413E-1,3.057492971E-1,2.280022621E0
4.383833751E0,-3.299951553E-1,2.207924128E-1,2.473436356E0
4.387851251E0,-3.327702284E-1,1.253345013E-1,2.680459976E0
4.391868751E0,-3.542551994E-1,4.075574875E-2,2.896326065E0
4.395886251E0,-3.582303524E-1,-3.057432175E-2,3.089974403E0
4.399903751E0,-3.846457005E-1,-6.463837624E-2,3.283094406E0
4.403921251E0,-4.187324047E-1,-5.888915062E-2,3.396826744E0
4.407938751E0,-4.435825348E-1,-5.131649971E-2,3.436126709E0
4.411956147E0,-4.261047840E-1,-1.490664482E-2,3.403516769E0
4.415973543E0,-4.383530617E-1,4.384517670E-2,3.375711441E0
4.419990939E0,-3.920865059E-1,8.004200459E-2,3.324029922E0
4.424008335E0,-3.497502804E-1,8.022367954E-2,3.279699326E0
4.428025731E0,-2.685147524E-1,6.414699554E-2,3.316924095E0
4.432043126E0,-1.890568733E-1,1.567924023E-2,3.399811745E0
4.436060522E0,-8.776414394E-2,-6.948506832E-2,3.595328331E0
4.440077918E0,4.008615017E-2,-1.577534676E-1,3.910533905E0
4.444095314E0,1.728690863E-1,-2.780901194E-1,4.287849426E0
4.448112710E0,3.034357429E-1,-4.188092947E-1,4.755903244E0
4.452130106E0,3.744944930E-1,-5.924470425E-1,5.242774010E0
4.456147501E0,4.343663454E-1,-7.855005264E-1,5.808212280E0
4.460164897E0,4.525150657E-1,-9.989976883E-1,6.397031784E0
4.464182293E0,4.034057260E-1,-1.224605083E0,6.956481934E0
4.468199689E0,3.047726750E-1,-1.446798205E0,7.467371941E0
4.472217085E0,1.505406499E-1,-1.674239993E0,7.908102989E0
4.476234481E0,-6.326305866E-2,-1.853184938E0,8.237926483E0
4.480251876E0,-2.617303133E-1,-2.044672012E0,8.423333168E0
4.484269272E0,-4.612382650E-1,-2.211287498E0,8.416508675E0
4.488286668E0,-6.927131414E-1,-2.360991001E0,8.284546852E0
4.492304064E0,-9.156600237E-1,-2.463161945E0,7.950933456E0
4.496321460E0,-1.099372149E0,-2.544298649E0,7.473292351E0
4.500338856E0,-1.280568123E0,-2.563529968E0,6.858964920E0
4.504356251E0,-1.424528360E0,-2.530031204E0,6.151188850E0
4.508373647E0,-1.520433664E0,-2.438308239E0,5.376468658E0
4.512391043E0,-1.605297923E0,-2.311487436E0,4.587613106E0
4.516408439E0,-1.639416933E0,-2.148508072E0,3.787159920E0
4.520425835E0,-1.659672260E0,-1.972075582E0,3.018333435E0
4.524443231E0,-1.674098730E0,-1.766714096E0,2.324279785E0
4.528460626E0,-1.664059401E0,-1.572036743E0,1.731356621E0
4.532478022E0,-1.605712414E0,-1.391940475E0,1.232394218E0
4.536495418E0,-1.525176048E0,-1.228039742E0,8.345937729E-1
4.540512918E0,-1.393263340E0,-1.118195534E0,5.331497192E-1
4.544530418E0,-1.228699446E0,-1.038007855E0,3.065090179E-1
4.548547918E0,-1.045363665E0,-1.006370068E0,1.402893066E-1
4.552565418E0,-8.690307736E-1,-1.030282974E0,2.968978882E-2
4.556582918E0,-7.060687542E-1,-1.042760611E0,-1.573848724E-2
4.560600418E0,-5.487122536E-1,-1.038982868E0,-6.064319611E-2
4.564617918E0,-4.178616405E-1,-1.004871845E0,-9.305572510E-2
4.568635418E0,-2.866412401E-1,-9.694180489E-1,-1.129989624E-1
4.572652918E0,-1.833753586E-1,-9.160039425E-1,-1.252803802E-1
4.576670418E0,-1.125858426E-1,-8.808453679E-1,-1.275510788E-1
4.580687918E0,-6.432062387E-2,-8.163022995E-1,-1.413764954E-1
4.584705418E0,-3.850683570E-2,-7.896983624E-1,-2.002782822E-1
4.588722918E0,-1.834097505E-2,-7.629443407E-1,-2.539901733E-1
4.592740418E0,9.779036045E-4,-7.600997090E-1,-3.264665604E-1
4.596757918E0,-4.055887461E-3,-7.551465034E-1,-4.344491959E-1
4.600775418E0,-1.896417141E-2,-7.697532773E-1,-5.444154739E-1
4.604792918E0,-4.115903378E-2,-8.089243174E-1,-6.850891113E-1
4.608810418E0,-6.831330061E-2,-8.414920568E-1,-8.277330399E-1
4.612827918E0,-1.148698032E-1,-8.820841908E-1,-1.008253098E0
4.616845418E0,-1.833799779E-1,-9.450731277E-1,-1.205079079E0
4.620862814E0,-2.452706099E-1,-9.921541810E-1,-1.444512367E0
4.624880210E0,-3.031714559E-1,-1.045034409E0,-1.685833931E0
4.628897606E0,-3.788065016E-1,-1.065368891E0,-1.950569153E0
4.632915001E0,-4.460319877E-1,-1.110401392E0,-2.229117393E0
4.636932397E0,-5.098578930E-1,-1.122809649E0,-2.497533798E0
4.640949793E0,-5.728331804E-1,-1.152622104E0,-2.758215904E0
4.644967189E0,-6.255855560E-1,-1.161473036E0,-3.006387234E0
4.648984585E0,-6.539506912E-1,-1.137190461E0,-3.273161888E0
4.653001981E0,-6.796694994E-1,-1.151500344E0,-3.486741066E0
4.657019376E0,-6.980541945E-1,-1.144392252E0,-3.714182854E0
4.661036772E0,-7.139297724E-1,-1.122982502E0,-3.910011768E0
4.665054168E0,-7.200664282E-1,-1.106275201E0,-4.083838463E0
4.669071564E0,-7.356071472E-1,-1.091913342E0,-4.264400959E0
4.673088960E0,-7.341245413E-1,-1.060622215E0,-4.427768707E0
4.677106356E0,-7.325652242E-1,-1.024318457E0,-4.612251759E0
4.681123751E0,-7.239704728E-1,-9.877682924E-1,-4.772372246E0
4.685141147E0,-7.061902285E-1,-9.413118362E-1,-4.922526360E0
4.689158543E0,-7.248263955E-1,-8.919878006E-1,-5.048382759E0
4.693175939E0,-7.272823453E-1,-8.686525226E-1,-5.152361870E0
4.697193335E0,-7.088408470E-1,-8.329904079E-1,-5.236888885E0
4.701210731E0,-6.647770405E-1,-7.825767994E-1,-5.304386139E0
4.705228126E0,-5.758480430E-1,-7.316545844E-1,-5.330960274E0
4.709245522E0,-4.875294566E-1,-6.825712323E-1,-5.338201046E0
4.713262918E0,-4.236744642E-1,-6.160147786E-1,-5.333330154E0
4.717280314E0,-3.410560489E-1,-5.583024621E-1,-5.318763256E0
4.721297710E0,-3.041329086E-1,-5.213865042E-1,-5.306483269E0
4.725315106E0,-2.506005466E-1,-4.740358591E-1,-5.306074142E0
4.729332501E0,-2.329930812E-1,-4.448089600E-1,-5.307975769E0
4.733349897E0,-2.295711339E-1,-4.169189334E-1,-5.324164391E0
4.737367293E0,-2.401772290E-1,-3.757426739E-1,-5.349874496E0
4.741384689E0,-2.719021142E-1,-3.354486823E-1,-5.394702911E0
4.745402085E0,-3.271034956E-1,-2.814997435E-1,-5.425166130E0
4.749419533E0,-3.723116517E-1,-2.305837870E-1,-5.453273296E0
4.753437033E0,-3.741632998E-1,-1.871975660E-1,-5.486253262E0
4.757454533E0,-3.734318018E-1,-1.510267258E-1,-5.509798050E0
4.761472033E0,-4.035907984E-1,-1.122716665E-1,-5.543106556E0
4.765489533E0,-4.047120810E-1,-7.789349556E-2,-5.547934055E0
4.769507033E0,-4.198968410E-1,-4.539883137E-2,-5.519562721E0
4.773524533E0,-4.252451062E-1,-4.339885712E-2,-5.481987953E0
4.777542033E0,-4.401513934E-1,-3.356337547E-2,-5.394561768E0
4.781559533E0,-4.073569775E-1,-2.541840076E-2,-5.317174435E0
4.785577033E0,-3.704248667E-1,-2.375519276E-2,-5.206748009E0
4.789594533E0,-3.103083372E-1,-6.208920479E-2,-5.082461357E0
4.793612033E0,-2.461488843E-1,-8.526730537E-2,-4.949126720E0
4.797629533E0,-1.804312021E-1,-1.172010899E-1,-4.811540604E0
4.801647033E0,-1.202222332E-1,-1.481934786E-1,-4.645793915E0
4.805664533E0,-3.196613491E-2,-1.782956123E-1,-4.478223801E0
4.809682033E0,5.555215478E-2,-1.883964539E-1,-4.251395226E0
4.813699533E0,1.111840904E-1,-2.095097899E-1,-3.994088173E0
4.817717033E0,1.420079470E-1,-2.154775262E-1,-3.706294060E0
4.821734533E0,1.599121392E-1,-2.112548351E-1,-3.404753685E0
4.825752033E0,1.958034635E-1,-2.568993568E-1,-3.082245827E0
4.829769481E0,2.782244980E-1,-2.902563810E-1,-2.777029514E0
4.833786876E0,3.684580922E-1,-3.523912430E-1,-2.472246647E0
4.837804272E0,4.711026549E-1,-4.337143302E-1,-2.163067818E0
4.841821668E0,5.860055685E-1,-5.128445625E-1,-1.897286892E0
4.845839064E0,6.724737883E-1,-6.040958166E-1,-1.646105766E0
4.849856460E0,7.425752878E-1,-6.811124682E-1,-1.375970840E0
4.853873856E0,7.676564455E-1,-7.558674812E-1,-1.079686165E0
4.857891251E0,7.456195354E-1,-8.044925928E-1,-7.452840805E-1
4.861908647E0,6.719388366E-1,-8.247251511E-1,-3.464536667E-1
4.865926043E0,5.732859969E-1,-8.384246826E-1,1.263446808E-1
4.869943439E0,4.547752738E-1,-8.317447305E-1,6.563196182E-1
4.873960835E0,2.999041677E-1,-8.793352842E-1,1.238657951E0
4.877978231E0,1.571244597E-1,-9.793337584E-1,1.875694275E0
4.881995626E0,1.067906618E-2,-1.180263996E0,2.519474983E0
4.886013022E0,-7.594513893E-2,-1.461104512E0,3.160324097E0
4.890030418E0,-1.589325666E-1,-1.791235685E0,3.733515739E0
4.894047814E0,-2.299290299E-1,-2.151888847E0,4.198314667E0
4.898065210E0,-3.096954226E-1,-2.480849266E0,4.523617744E0
4.902082606E0,-3.548721671E-1,-2.744780064E0,4.766931534E0
4.906100001E0,-4.397433698E-1,-2.886057854E0,4.856529236E0
4.910117397E0,-5.644089580E-1,-2.911591291E0,4.890660286E0
4.914134793E0,-6.956802607E-1,-2.780487776E0,4.819157600E0
4.918152189E0,-8.387349844E-1,-2.533189774E0,4.704377174E0
4.922169585E0,-9.696445465E-1,-2.212450981E0,4.570297241E0
4.926186981E0,-1.062347889E0,-1.849242687E0,4.443291664E0
4.930204376E0,-1.143268347E0,-1.483856916E0,4.289883614E0
4.934221772E0,-1.155642033E0,-1.142273068E0,4.114978790E0
4.938239168E0,-1.164610982E0,-8.456152081E-1,3.933029175E0
4.942256564E0,-1.110914230E0,-6.030836701E-1,3.775237083E0
4.946273960E0,-1.030944228E0,-3.952522278E-1,3.598578453E0
4.950291356E0,-9.061095715E-1,-2.195301801E-1,3.462972641E0
4.954308751E0,-7.298703790E-1,-8.278812468E-2,3.334955215E0
4.958326251E0,-5.222070217E-1,4.857164621E-2,3.238530159E0
4.962343751E0,-3.269822896E-1,1.627049446E-1,3.140241623E0
4.966361251E0,-1.067314744E-1,2.693087757E-1,3.111939430E0
4.970378751E0,1.210134625E-1,3.658820093E-1,3.129662514E0
4.974396251E0,3.459365070E-1,4.641418755E-1,3.212529182E0
4.978413751E0,5.599713922E-1,5.470373034E-1,3.346128464E0
4.982431251E0,7.359572649E-1,6.022421718E-1,3.559116364E0
4.986448751E0,9.044802189E-1,6.245447993E-1,3.813095093E0
4.990466251E0,1.096470118E0,6.157967448E-1,4.105571747E0
4.994483751E0,1.225791335E0,5.824809074E-1,4.457957268E0
4.998501251E0,1.366745591E0,4.738434255E-1,4.836614609E0
5.002518751E0,1.469359159E0,3.536926508E-1,5.239010811E0
5.006536251E0,1.512596130E0,1.974166632E-1,5.590840340E0
5.010553751E0,1.520880938E0,4.504495859E-2,5.927939415E0
5.014571251E0,1.516307592E0,-1.423974633E-1,6.223888397E0
5.018588751E0,1.466235399E0,-3.751159906E-1,6.473811150E0
5.022606251E0,1.412701964E0,-6.034661531E-1,6.663242340E0
5.026623751E0,1.347118139E0,-8.473422527E-1,6.782515526E0
5.030641251E0,1.263065338E0,-1.100036383E0,6.790917397E0
5.034658751E0,1.168325186E0,-1.318823814E0,6.693261147E0
5.038676147E0,1.061025858E0,-1.463261247E0,6.515923500E0
5.042693543E0,9.801294804E-1,-1.528876781E0,6.285248756E0
5.046710939E0,9.141904116E-1,-1.527630329E0,5.967794418E0
5.050728335E0,8.466367126E-1,-1.447298169E0,5.515861511E0
5.054745731E0,7.677468657E-1,-1.332730055E0,4.970408440E0
5.058763126E0,7.180276513E-1,-1.168791056E0,4.312554359E0
5.062780522E0,6.587311625E-1,-9.713280201E-1,3.626344681E0
5.066797918E0,6.540033817E-1,-7.442511320E-1,2.928727150E0
5.070815314E0,6.842395067E-1,-4.962033629E-1,2.229437828E0
5.074832710E0,7.608470321E-1,-2.357276678E-1,1.593227386E0
5.078850106E0,8.761537671E-1,-9.721457958E-3,9.914331436E-1
5.082867501E0,9.844183326E-1,2.183886766E-1,4.575748444E-1
5.086884897E0,1.095152736E0,3.799986243E-1,-4.665088654E-2
5.090902293E0,1.227444053E0,5.161509514E-1,-4.782047272E-1
5.094919689E0,1.371905804E0,6.273065805E-1,-8.778486252E-1
5.098937085E0,1.454401493E0,7.139675617E-1,-1.226472855E0
5.102954481E0,1.537344337E0,7.836613655E-1,-1.543297768E0
5.106971876E0,1.584961653E0,8.271353841E-1,-1.802056313E0
5.110989272E0,1.573438406E0,8.707959056E-1,-2.002848625E0
5.115006668E0,1.567330003E0,9.218205810E-1,-2.179261208E0
5.119024064E0,1.545046449E0,9.467300773E-1,-2.297845840E0
5.123041460E0,1.532937884E0,9.884780049E-1,-2.370665550E0
5.127058856E0,1.492577195E0,1.030090928E0,-2.414542198E0
5.131076251E0,1.462333918E0,1.064039469E0,-2.429540634E0
5.135093647E0,1.434943080E0,1.039653301E0,-2.432463646E0
5.139111043E0,1.410263062E0,1.064400196E0,-2.440086365E0
5.143128439E0,1.376147628E0,1.056503296E0,-2.450016975E0
5.147145835E0,1.337333679E0,1.030127287E0,-2.493366241E0
5.151163231E0,1.327239871E0,1.032977462E0,-2.548561096E0
5.155180626E0,1.283460736E0,1.024264336E0,-2.622766495E0
5.159198022E0,1.263251185E0,1.025580049E0,-2.720736504E0
5.163215470E0,1.204297304E0,1.044051409E0,-2.811343193E0
5.167232970E0,1.171269894E0,1.036679626E0,-2.925699711E0
5.171250470E0,1.097002983E0,1.049126267E0,-3.025494099E0
5.175267970E0,1.058091998E0,1.059924603E0,-3.129888058E0
5.179285470E0,1.021003246E0,1.069229722E0,-3.217346191E0
5.183302970E0,9.761663675E-1,1.046047807E0,-3.314211845E0
5.187320470E0,9.523890018E-1,1.031160355E0,-3.391768932E0
5.191337970E0,9.256594777E-1,9.863659143E-1,-3.433294296E0
5.195355470E0,8.935045004E-1,9.452811480E-1,-3.467548370E0
5.199372970E0,8.440734744E-1,8.982897401E-1,-3.453873158E0
5.203390470E0,7.894769907E-1,8.430305719E-1,-3.440184593E0
5.207407970E0,7.156817317E-1,7.744998932E-1,-3.388214111E0
5.211425470E0,6.468257904E-1,7.188042998E-1,-3.345865250E0
5.215442970E0,6.212452650E-1,6.710410714E-1,-3.270063400E0
5.219460470E0,5.744557381E-1,6.237508059E-1,-3.196742058E0
5.223477970E0,5.231474638E-1,5.958670378E-1,-3.137860298E0
5.227495470E0,4.483327270E-1,5.536198020E-1,-3.071872711E0
5.231512970E0,3.882168829E-1,5.254465938E-1,-3.029888630E0
5.235530470E0,3.261828125E-1,5.089194775E-1,-3.002309799E0
5.239547970E0,2.647323310E-1,4.941007495E-1,-2.969979286E0
5.243565418E0,1.966054887E-1,4.809915423E-1,-2.973575115E0
5.247582814E0,1.384772360E-1,4.431709051E-1,-2.986730099E0
5.251600210E0,4.471322894E-2,4.332229793E-1,-3.040533066E0
5.255617606E0,-4.174096882E-2,4.199503660E-1,-3.046407700E0
5.259635001E0,-1.306910068E-1,4.128864706E-1,-3.061832428E0
5.263652397E0,-1.934420466E-1,3.856847584E-1,-3.101146698E0
5.267669793E0,-2.540541887E-1,3.911712170E-1,-3.114076614E0
5.271687189E0,-2.789303958E-1,3.767723441E-1,-3.155682564E0
5.275704585E0,-3.017367125E-1,3.643973768E-1,-3.185252666E0
5.279721981E0,-3.175051808E-1,3.686873615E-1,-3.255437374E0
5.283739376E0,-3.164904714E-1,3.922397494E-1,-3.292018890E0
5.287756772E0,-2.984461188E-1,4.497161210E-1,-3.342887878E0
5.291774168E0,-3.063999712E-1,5.438805223E-1,-3.376927376E0
5.295791564E0,-2.923904657E-1,6.989015341E-1,-3.413298607E0
5.299808960E0,-2.852203846E-1,8.456318378E-1,-3.437646866E0
5.303826356E0,-2.418612838E-1,1.013101697E0,-3.459559917E0
5.307843751E0,-1.864933223E-1,1.172907710E0,-3.479046822E0
5.311861147E0,-1.264353395E-1,1.315696955E0,-3.481758595E0
5.315878543E0,-4.752657562E-2,1.453828335E0,-3.427048206E0
5.319895939E0,1.667158306E-2,1.592113733E0,-3.334128857E0
5.323913335E0,7.329075038E-2,1.692316055E0,-3.174335480E0
5.327930731E0,1.006187946E-1,1.814090490E0,-2.952533722E0
5.331948126E0,9.149028361E-2,1.880725980E0,-2.664011002E0
5.335965522E0,1.079851538E-1,1.956309199E0,-2.313630104E0
5.339982918E0,1.142213196E-1,1.973424196E0,-1.942135811E0
5.344000314E0,1.531269997E-1,1.950620651E0,-1.556730270E0
5.348017710E0,1.744569987E-1,1.908964157E0,-1.166998863E0
5.352035106E0,1.756517738E-1,1.800066710E0,-8.088455200E-1
5.356052501E0,1.401325464E-1,1.690690517E0,-5.109395981E-1
5.360069897E0,9.925366938E-2,1.575864673E0,-2.445001602E-1
5.364087293E0,5.399942398E-3,1.476982355E0,-2.310752869E-3
5.368104741E0,-1.076165885E-1,1.403610349E0,2.180547714E-1
5.372122241E0,-2.469251454E-1,1.358249307E0,3.759479523E-1
5.376139741E0,-4.077260494E-1,1.333808780E0,5.551824570E-1
5.380157241E0,-5.639401674E-1,1.316253901E0,6.959171295E-1
5.384174741E0,-7.087030411E-1,1.313080072E0,8.292961121E-1
5.388192241E0,-8.732320070E-1,1.307578683E0,1.015141487E0
5.392209741E0,-1.028748035E0,1.278340459E0,1.294061661E0
5.396227241E0,-1.158343077E0,1.198987365E0,1.589382172E0
5.400244741E0,-1.266679645E0,1.057339311E0,1.920223236E0
5.404262241E0,-1.341856241E0,8.867974281E-1,2.248253822E0
5.408279741E0,-1.429674864E0,6.895561814E-1,2.590211868E0
5.412297241E0,-1.475290775E0,4.702395499E-1,2.914963722E0
5.416314741E0,-1.510059953E0,2.930734754E-1,3.265579224E0
5.420332241E0,-1.529624462E0,1.290668249E-1,3.649186134E0
5.424349741E0,-1.558169484E0,2.317638695E-2,4.020264626E0
5.428367241E0,-1.545273304E0,-4.418596625E-2,4.362072945E0
5.432384741E0,-1.507608414E0,-1.212316155E-1,4.679431915E0
5.436402241E0,-1.437616944E0,-1.625708640E-1,4.938883781E0
5.440419741E0,-1.396963596E0,-1.873870492E-1,5.166835785E0
5.444437241E0,-1.363416314E0,-1.931604743E-1,5.351387024E0
5.448454689E0,-1.352777958E0,-1.703028083E-1,5.461510658E0
5.452472085E0,-1.342634439E0,-1.042233109E-1,5.535605431E0
5.456489481E0,-1.382479906E0,-4.336521029E-3,5.511532784E0
5.460506876E0,-1.393007517E0,1.082187295E-1,5.379865646E0
5.464524272E0,-1.395935774E0,2.146617323E-1,5.183812141E0
5.468541668E0,-1.415875077E0,3.084302843E-1,4.899534225E0
5.472559064E0,-1.432223320E0,3.830593824E-1,4.596524239E0
5.476576460E0,-1.457958579E0,4.344412982E-1,4.281973839E0
5.480593856E0,-1.462894082E0,4.511520267E-1,4.010910034E0
5.484611251E0,-1.459798336E0,4.335356653E-1,3.821539879E0
5.488628647E0,-1.442178249E0,3.770675957E-1,3.730490685E0
5.492646043E0,-1.367323160E0,2.529437244E-1,3.761548996E0
5.496663439E0,-1.245234609E0,1.110984758E-1,3.869091034E0
5.500680835E0,-1.145419121E0,-5.847144127E-2,4.038663864E0
5.504698231E0,-1.060358286E0,-2.350796759E-1,4.246269226E0
5.508715626E0,-9.991441965E-1,-3.931754231E-1,4.448806763E0
5.512733022E0,-9.107897878E-1,-5.382034779E-1,4.631944656E0
5.516750418E0,-8.425713181E-1,-6.780321598E-1,4.740694046E0
5.520767814E0,-8.009264469E-1,-7.963245511E-1,4.796697617E0
5.524785210E0,-7.444339991E-1,-9.172479510E-1,4.768938065E0
5.528802606E0,-7.371191978E-1,-1.014464855E0,4.628824234E0
5.532820001E0,-7.474588752E-1,-1.104715824E0,4.421968460E0
5.536837397E0,-7.872876525E-1,-1.175777078E0,4.103006363E0
5.540854793E0,-8.636823893E-1,-1.232015729E0,3.741471291E0
5.544872189E0,-9.458130002E-1,-1.265703917E0,3.330243111E0
5.548889585E0,-1.041527033E0,-1.261943102E0,2.864594460E0
5.552906981E0,-1.105963707E0,-1.246438980E0,2.413971901E0
5.556924376E0,-1.175703764E0,-1.235273600E0,1.942458153E0
5.560941772E0,-1.256094694E0,-1.215754867E0,1.548151970E0
5.564959168E0,-1.299631000E0,-1.196973085E0,1.175915718E0
5.568976564E0,-1.344698668E0,-1.173609614E0,8.926858902E-1
5.572994012E0,-1.372196436E0,-1.181258440E0,6.600580215E-1
5.577011512E0,-1.379627347E0,-1.205354333E0,4.707765579E-1
5.581029012E0,-1.383360863E0,-1.217079639E0,3.678398132E-1
5.585046512E0,-1.356873631E0,-1.293113470E0,3.056764603E-1
5.589064012E0,-1.319067240E0,-1.371253967E0,2.603082657E-1
5.593081512E0,-1.260024309E0,-1.418362856E0,2.580327988E-1
5.597099012E0,-1.193805456E0,-1.477860928E0,2.772693634E-1
5.601116512E0,-1.136615396E0,-1.492693782E0,3.084201813E-1
5.605134012E0,-1.066397667E0,-1.480111241E0,3.610458374E-1
5.609151512E0,-9.970742464E-1,-1.419084072E0,3.896608353E-1
5.613169012E0,-9.281153679E-1,-1.365082264E0,4.182167053E-1
5.617186512E0,-8.471101522E-1,-1.306519866E0,3.797206879E-1
5.621204012E0,-7.705653310E-1,-1.248466849E0,2.909994125E-1
5.625221512E0,-7.102429867E-1,-1.215022326E0,1.425428391E-1
5.629239012E0,-6.684956551E-1,-1.182339549E0,-6.318283081E-2
5.633256512E0,-6.524518132E-1,-1.147946358E0,-3.165407181E-1
5.637274012E0,-6.312140226E-1,-1.085400820E0,-5.983266830E-1
5.641291512E0,-6.408035159E-1,-1.032915115E0,-8.965415955E-1
5.645309012E0,-6.550343037E-1,-9.759752750E-1,-1.211159706E0
5.649326512E0,-6.600373983E-1,-9.049110413E-1,-1.511046410E0
5.653344012E0,-6.465948224E-1,-8.554592133E-1,-1.805783272E0
5.657361408E0,-6.605923772E-1,-8.011693358E-1,-2.107331276E0
5.661378803E0,-6.687533855E-1,-7.586271167E-1,-2.386968613E0
5.665396199E0,-6.909680367E-1,-6.894533038E-1,-2.635146141E0
5.669413595E0,-7.587454915E-1,-6.344377398E-1,-2.832752228E0
5.673430991E0,-8.293908238E-1,-5.745910406E-1,-2.972665787E0
5.677448387E0,-8.792989254E-1,-5.460162759E-1,-3.026238441E0
5.681465783E0,-9.015523791E-1,-5.155594945E-1,-3.101229668E0
5.685483491E0,-9.227057695E-1,-5.265395641E-1,-3.159323215E0
5.689500783E0,-9.549181461E-1,-5.503826737E-1,-3.226852417E0
5.693518074E0,-9.864074588E-1,-5.993723869E-1,-3.291831970E0
5.697535366E0,-1.002954125E0,-6.329716444E-1,-3.327941418E0
5.701552658E0,-1.028788924E0,-6.752485037E-1,-3.383059025E0
5.705569949E0,-1.052113056E0,-6.712881327E-1,-3.442799568E0
5.709587241E0,-1.042004228E0,-6.666220427E-1,-3.509543896E0
5.713604533E0,-1.020107508E0,-6.133324504E-1,-3.547391415E0
5.717621824E0,-1.007871509E0,-5.591545105E-1,-3.530059338E0
5.721639168E0,-9.835695028E-1,-4.800520539E-1,-3.498283386E0
5.725656668E0,-9.298422337E-1,-3.999111950E-1,-3.456858158E0
5.729674168E0,-8.510514498E-1,-3.400687575E-1,-3.412975311E0
5.733691668E0,-7.157281041E-1,-2.909232974E-1,-3.402515411E0
5.737709168E0,-6.192804575E-1,-2.449851334E-1,-3.391952515E0
5.741726668E0,-5.110355020E-1,-2.116068006E-1,-3.431537628E0
5.745744168E0,-4.027673602E-1,-1.833215356E-1,-3.494904518E0
5.749761668E0,-3.517199159E-1,-1.240676045E-1,-3.538972855E0
5.753779168E0,-3.530870080E-1,-6.706541777E-2,-3.570965767E0
5.757796668E0,-3.780117929E-1,-3.363555670E-2,-3.593309879E0
5.761814168E0,-3.856884241E-1,-1.890188456E-2,-3.574924469E0
5.765831668E0,-3.808158040E-1,-3.536045551E-3,-3.561339378E0
5.769849168E0,-4.016041160E-1,-6.743788719E-3,-3.523837090E0
5.773866668E0,-4.384530187E-1,2.682209015E-4,-3.472030640E0
5.777884168E0,-4.577933252E-1,-4.091620445E-3,-3.434651375E0
5.781901668E0,-4.643388987E-1,1.368105412E-2,-3.373407364E0
5.785919168E0,-5.011165142E-1,4.156970978E-2,-3.314650536E0
5.789936668E0,-5.274076462E-1,8.421671391E-2,-3.253584385E0
5.793954168E0,-5.861830115E-1,1.367731690E-1,-3.194999695E0
5.797971668E0,-6.297781467E-1,1.825171709E-1,-3.141286850E0
5.801989168E0,-6.919028163E-1,2.239110470E-1,-3.128334522E0
5.806006616E0,-7.368610501E-1,2.611051798E-1,-3.125003338E0
5.810024012E0,-7.791748047E-1,2.895264626E-1,-3.116948128E0
5.814041408E0,-7.998054028E-1,3.332362175E-1,-3.123331070E0
5.818058803E0,-8.037450314E-1,3.731564283E-1,-3.156105518E0
5.822076199E0,-7.865003347E-1,4.119952917E-1,-3.143498421E0
5.826093595E0,-7.865792513E-1,4.665385485E-1,-3.178877831E0
5.830110991E0,-7.516520619E-1,5.058295727E-1,-3.173678398E0
5.834128387E0,-6.963489056E-1,5.610924959E-1,-3.147103310E0
5.838145783E0,-6.208158135E-1,6.203836203E-1,-3.092004776E0
5.842163178E0,-5.370755196E-1,6.717734337E-1,-3.008423805E0
5.846180574E0,-4.572573006E-1,7.391520739E-1,-2.929883957E0
5.850197970E0,-3.957603574E-1,7.770824432E-1,-2.777428627E0
5.854215366E0,-3.505003452E-1,8.118699789E-1,-2.630082607E0
5.858232762E0,-2.905101478E-1,8.506538868E-1,-2.430406570E0
5.862250158E0,-2.183564901E-1,8.573700190E-1,-2.204750061E0
5.866267553E0,-1.651016176E-1,8.460836411E-1,-1.945919037E0
5.870284949E0,-8.038873971E-2,8.070374727E-1,-1.620427132E0
5.874302345E0,-1.907551289E-2,7.517914772E-1,-1.283329010E0
5.878319741E0,4.547238350E-2,6.752877235E-1,-9.298152924E-1
5.882337137E0,9.917375445E-2,5.796138048E-1,-5.766210556E-1
5.886354533E0,1.255012155E-1,4.836792946E-1,-2.763481140E-1
5.890371928E0,1.632337272E-1,4.088480473E-1,2.370738983E-2
5.894389324E0,1.504800916E-1,3.166717291E-1,2.924480438E-1
5.898406720E0,1.259248555E-1,2.406015396E-1,5.251197815E-1
5.902424116E0,5.625152588E-2,1.902529001E-1,7.552433014E-1
5.906441512E0,1.116305590E-2,1.536782980E-1,9.182014465E-1
5.910458908E0,-2.819597721E-2,9.023284912E-2,1.095393181E0
5.914476303E0,-7.342469692E-2,3.367912769E-2,1.162336349E0
5.918493699E0,-1.029767394E-1,-3.248608112E-2,1.248327255E0
5.922511095E0,-1.647512317E-1,-7.920777798E-2,1.303052902E0
5.926528491E0,-2.323334813E-1,-1.230294704E-1,1.427001953E0
5.930545991E0,-2.789643407E-1,-1.589531302E-1,1.600884438E0
5.934563491E0,-3.016246855E-1,-2.179427743E-1,1.786289215E0
5.938580991E0,-2.832502723E-1,-2.711815834E-1,1.964015007E0
5.942598491E0,-2.502023578E-1,-3.448331356E-1,2.098155975E0
5.946615991E0,-1.882156134E-1,-4.003986120E-1,2.219849586E0
5.950633491E0,-8.542007208E-2,-5.049478412E-1,2.317153931E0
5.954650991E0,1.258170605E-2,-5.721293092E-1,2.368556976E0
5.958668491E0,7.926470041E-2,-6.330168843E-1,2.390872955E0
5.962685991E0,1.096853614E-1,-6.467640996E-1,2.403280258E0
5.966703491E0,1.204424500E-1,-6.181389689E-1,2.396236420E0
5.970720991E0,1.303759813E-1,-5.710381269E-1,2.379360199E0
5.974738491E0,1.819760203E-1,-4.981619716E-1,2.367059708E0
5.978755991E0,2.196400166E-1,-4.235169291E-1,2.383308411E0
5.982773491E0,2.955096364E-1,-3.687649965E-1,2.447269440E0
5.986790991E0,3.639404178E-1,-3.340291381E-1,2.532603264E0
5.990808491E0,4.365437031E-1,-3.099511266E-1,2.660872459E0
5.994825991E0,5.083901286E-1,-2.992686033E-1,2.781828880E0
5.998843491E0,5.817141533E-1,-2.734079957E-1,2.921831131E0
6.002860991E0,6.730881929E-1,-2.830194831E-1,3.056977272E0
6.006878491E0,7.534903288E-1,-2.924699783E-1,3.158610344E0
6.010895939E0,8.440702558E-1,-3.233827949E-1,3.269870758E0
6.014913335E0,9.348754883E-1,-3.900600076E-1,3.350099564E0
6.018930731E0,1.030439138E0,-4.732879698E-1,3.384996414E0
6.022948126E0,1.135127187E0,-6.016727090E-1,3.465560913E0
6.026965522E0,1.232426286E0,-7.273036838E-1,3.579764366E0
6.030982918E0,1.289186120E0,-8.857599497E-1,3.694036484E0
6.035000314E0,1.329864144E0,-1.029235244E0,3.858600616E0
6.039017710E0,1.350261211E0,-1.160099626E0,4.047042847E0
6.043035106E0,1.358351946E0,-1.312063813E0,4.225796700E0
6.047052501E0,1.326004982E0,-1.430478454E0,4.440312386E0
6.051069897E0,1.306571722E0,-1.568307400E0,4.659399986E0
6.055087293E0,1.288830042E0,-1.704615235E0,4.875831604E0
6.059104689E0,1.266316652E0,-1.870887518E0,5.051275253E0
6.063122085E0,1.254097462E0,-2.060566187E0,5.137875557E0
6.067139481E0,1.240652084E0,-2.262036324E0,5.147661209E0
6.071156876E0,1.214546204E0,-2.458857059E0,5.054355621E0
6.075174272E0,1.164130092E0,-2.641527176E0,4.879582405E0
6.079191668E0,1.104026079E0,-2.783819199E0,4.601886749E0
6.083209064E0,1.036667585E0,-2.883256197E0,4.257278442E0
6.087226460E0,9.284476042E-1,-2.915768385E0,3.841073990E0
6.091243856E0,8.341353536E-1,-2.878693581E0,3.365356445E0
6.095261251E0,7.148714662E-1,-2.790919781E0,2.856577873E0
6.099278647E0,6.108390093E-1,-2.666517735E0,2.319621086E0
6.103296043E0,5.334179401E-1,-2.450338840E0,1.814393044E0
6.107313439E0,4.772033095E-1,-2.230645418E0,1.293059349E0
6.111330835E0,4.582005143E-1,-1.992776871E0,8.059377670E-1
6.115348231E0,4.588600993E-1,-1.760551691E0,3.243303299E-1
6.119365626E0,4.951466918E-1,-1.536091208E0,-1.254138947E-1
6.123383022E0,5.592714548E-1,-1.295367599E0,-5.169963837E-1
6.127400418E0,6.244871616E-1,-1.071888208E0,-8.648357391E-1
6.131417866E0,7.287185192E-1,-8.513020873E-1,-1.152235031E0
6.135435366E0,8.381744623E-1,-6.313195229E-1,-1.427124023E0
6.139452866E0,9.502302408E-1,-4.598287642E-1,-1.656031609E0
6.143470366E0,1.057415485E0,-2.866861820E-1,-1.877300262E0
6.147487866E0,1.161759138E0,-1.312150210E-1,-2.062229156E0
6.151505366E0,1.275021672E0,6.732165813E-3,-2.241984367E0
6.155522866E0,1.361206412E0,9.120595455E-2,-2.407011986E0
6.159540366E0,1.425098896E0,1.917605102E-1,-2.562134743E0
6.163557866E0,1.464448333E0,2.843905091E-1,-2.673882484E0
6.167575366E0,1.493753791E0,3.861091733E-1,-2.799746513E0
6.171592866E0,1.501283646E0,4.826168716E-1,-2.879910946E0
6.175610366E0,1.506550312E0,5.620646477E-1,-2.947941780E0
6.179627866E0,1.531577349E0,6.224014163E-1,-2.989525795E0
6.183645366E0,1.531200171E0,6.803811789E-1,-3.028625488E0
6.187662866E0,1.520295382E0,6.981474161E-1,-3.093981743E0
6.191680366E0,1.506327629E0,7.139269114E-1,-3.137715340E0
6.195697866E0,1.480111480E0,7.375025749E-1,-3.207720757E0
6.199715366E0,1.441829205E0,7.451723814E-1,-3.256129265E0
6.203732866E0,1.398800850E0,7.442587614E-1,-3.323647499E0
6.207750366E0,1.344039679E0,7.684376240E-1,-3.376770020E0
6.211767866E0,1.258422613E0,8.202354908E-1,-3.393993378E0
6.215785262E0,1.144540787E0,8.613417149E-1,-3.387327194E0
6.219802658E0,1.050526381E0,9.181097150E-1,-3.325707436E0
6.223820053E0,9.574615359E-1,9.784123898E-1,-3.230736732E0
6.227837449E0,9.087592363E-1,9.991211891E-1,-3.135956764E0
6.231854845E0,8.781499267E-1,9.944945574E-1,-3.048541069E0
6.235872241E0,8.394526243E-1,9.619464874E-1,-2.951728344E0
6.239889637E0,8.166847825E-1,9.014503956E-1,-2.883804321E0
6.243907033E0,7.763277292E-1,8.488273025E-1,-2.849510193E0
6.247924428E0,7.302588224E-1,8.014891744E-1,-2.810512543E0
6.251941824E0,6.807449460E-1,7.760571837E-1,-2.831400871E0
6.255959220E0,6.154511571E-1,7.557584047E-1,-2.847491264E0
6.259976616E0,5.414230824E-1,7.547992468E-1,-2.880311966E0
6.263994012E0,4.366518259E-1,7.731394768E-1,-2.910687447E0
6.268011408E0,3.366851807E-1,8.107979298E-1,-2.950577736E0
6.272028803E0,2.291901112E-1,8.413124681E-1,-2.944934845E0
6.276046199E0,1.209510863E-1,9.076750278E-1,-2.886632919E0
6.280063595E0,4.531129450E-2,9.666519165E-1,-2.809226513E0
6.284080991E0,7.096394897E-3,9.797844887E-1,-2.722311020E0
6.288098387E0,-3.214994073E-2,9.875102043E-1,-2.625891685E0
6.292115783E0,-6.522674859E-2,9.944939017E-1,-2.536726952E0
6.296133178E0,-8.966566622E-2,9.550275803E-1,-2.485908508E0
6.300150574E0,-8.181939274E-2,9.433132410E-1,-2.454248428E0
6.304167970E0,-6.825169176E-2,9.305833578E-1,-2.436938286E0
6.308185366E0,-4.900461063E-2,9.455881119E-1,-2.426785469E0
6.312202762E0,-4.565628245E-2,9.885199070E-1,-2.404647827E0
6.316220158E0,-3.876904398E-2,1.054661036E0,-2.296380043E0
6.320237553E0,-8.602745831E-3,1.108135939E0,-2.147553921E0
6.324254949E0,6.468040496E-2,1.153829694E0,-1.991721153E0
6.328272345E0,1.170569509E-1,1.180018187E0,-1.860004902E0
6.332289793E0,1.463888586E-1,1.227626562E0,-1.769130707E0
6.336307293E0,1.887419075E-1,1.268105388E0,-1.702307701E0
6.340324793E0,2.035141885E-1,1.287439942E0,-1.666690826E0
6.344342293E0,2.098836303E-1,1.316841722E0,-1.655067444E0
6.348359793E0,1.910715401E-1,1.347164392E0,-1.653063774E0
6.352377293E0,1.324871629E-1,1.366506338E0,-1.646308899E0
6.356394793E0,6.035067514E-2,1.403757572E0,-1.579786301E0
6.360412293E0,2.021894231E-2,1.418285847E0,-1.510989189E0
6.364429793E0,-1.177124307E-2,1.436375260E0,-1.353787422E0
6.368447293E0,-6.407448649E-2,1.419680476E0,-1.110678673E0
6.372464793E0,-1.149687469E-1,1.372636080E0,-8.439550400E-1
6.376482293E0,-1.500030309E-1,1.259124160E0,-5.751705170E-1
6.380499793E0,-1.764825284E-1,1.124291420E0,-3.090925217E-1
6.384517293E0,-1.993495226E-1,9.894052744E-1,-7.680702209E-2
6.388534793E0,-2.212915123E-1,8.733353615E-1,1.337003708E-1
6.392552293E0,-2.617620826E-1,7.995864749E-1,3.248634338E-1
6.396569793E0,-3.091073632E-1,7.559751272E-1,4.536418915E-1
6.400587293E0,-3.683724999E-1,7.567538619E-1,5.607862473E-1
6.404604793E0,-4.207121730E-1,7.874479294E-1,6.200017929E-1
6.408622293E0,-4.880184531E-1,8.193497658E-1,6.791925430E-1
6.412639793E0,-5.299551487E-1,8.549510837E-1,7.072429657E-1
6.416657241E0,-6.042638421E-1,8.513669968E-1,7.281026840E-1
6.420674637E0,-6.610336304E-1,8.948592544E-1,7.680873871E-1
6.424692033E0,-7.483029962E-1,9.018377662E-1,7.936592102E-1
6.428709428E0,-8.326627612E-1,9.156206846E-1,8.550701141E-1
6.432726824E0,-9.117889404E-1,9.098385572E-1,9.307365417E-1
6.436744220E0,-9.498438835E-1,8.891957998E-1,1.056521416E0
6.440761616E0,-9.492522478E-1,8.344672918E-1,1.184518814E0
6.444779012E0,-9.482213259E-1,7.768783569E-1,1.321901321E0
6.448796408E0,-9.179181457E-1,7.043468952E-1,1.478231430E0
6.452813803E0,-8.606530428E-1,6.072570086E-1,1.655885696E0
6.456831199E0,-8.239945769E-1,5.239448547E-1,1.852454185E0
6.460848595E0,-7.573232651E-1,4.400808811E-1,2.020070076E0
6.464865991E0,-7.273143530E-1,3.507781327E-1,2.237736702E0
6.468883387E0,-6.737368703E-1,2.559613585E-1,2.474301338E0
6.472900783E0,-6.345883012E-1,1.914220750E-1,2.686686516E0
6.476918178E0,-5.758938789E-1,1.403364241E-1,2.870148659E0
6.480935574E0,-5.595494509E-1,1.099690497E-1,3.005591393E0
6.484952970E0,-5.852924585E-1,9.546747804E-2,3.102647781E0
6.488970366E0,-6.120002866E-1,1.042802036E-1,3.132656097E0
6.492987762E0,-6.778074503E-1,1.508554220E-1,3.110052109E0
6.497005158E0,-7.561374903E-1,2.045218050E-1,3.063598633E0
6.501022553E0,-8.109822869E-1,2.059151530E-1,2.983738899E0
6.505039949E0,-8.878477216E-1,2.154536247E-1,2.844175339E0
6.509057345E0,-9.460911155E-1,1.954940259E-1,2.688014030E0
6.513074741E0,-1.012364745E0,1.777793169E-1,2.517639160E0
6.517092137E0,-1.063119888E0,1.604597569E-1,2.340210915E0
6.521109533E0,-1.108481288E0,1.296627522E-1,2.193984032E0
6.525126928E0,-1.142039299E0,1.073393524E-1,2.047782898E0
6.529144324E0,-1.152566195E0,8.441752195E-2,1.951811790E0
6.533161720E0,-1.157729030E0,4.917228222E-2,1.941873550E0
6.537179220E0,-1.158299446E0,-6.593465805E-4,2.020238876E0
6.541196720E0,-1.133268476E0,-6.259503961E-2,2.201156616E0
6.545214220E0,-1.080318451E0,-1.562124193E-1,2.494110107E0
6.549231720E0,-1.003923059E0,-3.203772306E-1,2.882273674E0
6.553249220E0,-9.228556752E-1,-4.816017151E-1,3.312960625E0
6.557266720E0,-8.822336197E-1,-6.526054144E-1,3.752681732E0
6.561284220E0,-8.623504043E-1,-8.223763704E-1,4.194308281E0
6.565301720E0,-8.888765574E-1,-9.560368657E-1,4.630708694E0
6.569319220E0,-8.992003798E-1,-1.107277393E0,5.042775154E0
6.573336720E0,-9.143339992E-1,-1.212596655E0,5.413809776E0
6.577354220E0,-9.626476765E-1,-1.325574994E0,5.674473763E0
6.581371720E0,-1.015096188E0,-1.435045600E0,5.839245796E0
6.585389220E0,-1.062020421E0,-1.555817127E0,5.889078140E0
6.589406720E0,-1.117760420E0,-1.649960995E0,5.783418655E0
6.593424220E0,-1.182389498E0,-1.719825268E0,5.598992348E0
6.597441720E0,-1.253673911E0,-1.767839551E0,5.335882187E0
6.601459220E0,-1.288712025E0,-1.767296791E0,4.951109886E0
6.605476720E0,-1.316516042E0,-1.763148427E0,4.514200211E0
6.609494220E0,-1.325390220E0,-1.697345614E0,4.041964531E0
6.613511720E0,-1.320189714E0,-1.614639282E0,3.534449577E0
6.617529220E0,-1.296257138E0,-1.519072771E0,3.046728134E0
6.621546616E0,-1.260647655E0,-1.371806860E0,2.585954666E0
6.625564012E0,-1.217951298E0,-1.243915915E0,2.149702072E0
6.629581408E0,-1.160744667E0,-1.103740931E0,1.737936020E0
6.633598803E0,-1.083877087E0,-9.699690342E-1,1.381726265E0
6.637616199E0,-9.917315245E-1,-8.446453214E-1,1.045105934E0
6.641633595E0,-9.054090977E-1,-7.372032404E-1,7.639341354E-1
6.645650991E0,-7.766876221E-1,-6.402336955E-1,4.950656891E-1
6.649668387E0,-6.674808264E-1,-5.441150665E-1,2.648000717E-1
6.653685783E0,-5.583212376E-1,-4.488939941E-1,6.829833984E-2
6.657703178E0,-4.658476114E-1,-3.547437489E-1,-1.447229385E-1
6.661720574E0,-4.043055475E-1,-2.928343415E-1,-3.479223251E-1
6.665737970E0,-3.783753514E-1,-2.131002545E-1,-5.317401886E-1
6.669755366E0,-3.403324485E-1,-1.397901624E-1,-7.081518173E-1
6.673772762E0,-3.215061426E-1,-9.942945838E-2,-9.226150513E-1
6.677790158E0,-3.173425794E-1,-3.953677788E-2,-1.122436523E0
6.681807553E0,-3.210081458E-1,6.068408489E-3,-1.333943367E0
6.685824949E0,-3.280482590E-1,5.397921428E-2,-1.540366173E0
6.689842345E0,-3.531334996E-1,9.665260464E-2,-1.746490479E0
6.693859741E0,-3.751779199E-1,1.266819835E-1,-1.933174133E0
6.697877137E0,-4.040120542E-1,1.557681262E-1,-2.124364376E0
6.701894533E0,-4.161499739E-1,1.980542392E-1,-2.310490608E0
6.705911928E0,-4.264995754E-1,2.246229053E-1,-2.498744011E0
6.709929324E0,-4.259821475E-1,2.378456593E-1,-2.708273888E0
6.713946720E0,-4.461398125E-1,2.542968988E-1,-2.896000862E0
6.717964116E0,-4.634260535E-1,2.477004826E-1,-3.085892200E0
6.721981512E0,-4.876286387E-1,2.420530021E-1,-3.256422043E0
6.725998908E0,-5.045337677E-1,2.540427446E-1,-3.402839661E0
6.730016303E0,-5.261578560E-1,2.645534277E-1,-3.532355309E0
6.734033699E0,-5.453625917E-1,2.879243195E-1,-3.661740303E0
6.738051199E0,-5.502131581E-1,2.787494063E-1,-3.800566673E0
6.742068699E0,-5.408979654E-1,2.992202938E-1,-3.896185875E0
6.746086199E0,-5.270916224E-1,3.039140105E-1,-3.989321709E0
6.750103699E0,-5.064947009E-1,3.001195788E-1,-4.070402145E0
6.754121199E0,-4.695671201E-1,2.856153250E-1,-4.146610737E0
6.758138699E0,-4.211152792E-1,2.986418009E-1,-4.205977440E0
6.762156199E0,-3.729681373E-1,2.914960980E-1,-4.231760979E0
6.766173699E0,-3.415992260E-1,3.074257374E-1,-4.233553410E0
6.770191199E0,-3.050364256E-1,3.273747563E-1,-4.211363792E0
6.774208699E0,-2.677544951E-1,3.537608385E-1,-4.155631065E0
6.778226199E0,-2.197053432E-1,3.747229576E-1,-4.104660988E0
6.782243699E0,-1.725048721E-1,3.951225877E-1,-4.056042671E0
6.786261199E0,-1.403176188E-1,4.198123515E-1,-3.971483231E0
6.790278699E0,-1.230405569E-1,4.320420921E-1,-3.908440590E0
6.794296199E0,-8.927366138E-2,4.318303168E-1,-3.830990791E0
6.798313699E0,-5.788464099E-2,3.976603746E-1,-3.751109600E0
6.802331199E0,-1.659482159E-2,3.582211435E-1,-3.692721367E0
6.806348699E0,2.765979618E-2,3.183234930E-1,-3.648621082E0
6.810366199E0,6.549514085E-2,3.019739687E-1,-3.628365040E0
6.814383699E0,1.065183431E-1,2.757486105E-1,-3.636718273E0
6.818401199E0,1.363343149E-1,2.493506670E-1,-3.666474342E0
6.822418647E0,1.430040747E-1,2.422282696E-1,-3.760693550E0
6.826436043E0,1.599164307E-1,2.522711158E-1,-3.826009750E0
6.830453439E0,1.556784362E-1,2.605603933E-1,-3.946211815E0
6.834470835E0,1.206036657E-1,2.674484849E-1,-4.013598919E0
6.838488231E0,7.587623596E-2,2.923417687E-1,-4.092851639E0
6.842505626E0,4.290415347E-2,3.090411425E-1,-4.145689964E0
6.846523022E0,3.577147424E-2,3.034647703E-1,-4.186522007E0
6.850540418E0,4.244744778E-2,3.045950532E-1,-4.193855762E0
6.854557814E0,4.102376103E-2,2.982890010E-1,-4.162961006E0
6.858575210E0,3.373622894E-2,2.895374894E-1,-4.060405254E0
6.862592606E0,4.434075952E-2,2.712828517E-1,-3.876713276E0
6.866610001E0,9.920531511E-2,2.173138261E-1,-3.657454967E0
6.870627397E0,1.816675365E-1,1.898049116E-1,-3.400279045E0
6.874644793E0,2.392179370E-1,1.649491787E-1,-3.124387741E0
6.878662189E0,2.721426487E-1,1.283969283E-1,-2.817849159E0
6.882679585E0,2.784840465E-1,9.212940931E-2,-2.487893581E0
6.886696981E0,3.088921905E-1,1.781135798E-2,-2.122598648E0
6.890714376E0,3.229815364E-1,-4.668456316E-2,-1.710059166E0
6.894731772E0,3.115053177E-1,-1.182083488E-1,-1.300582886E0
6.898749168E0,3.178677559E-1,-1.802626252E-1,-8.630619049E-1
6.902766564E0,3.280079365E-1,-2.570744753E-1,-4.070997238E-1
6.906783960E0,3.517082334E-1,-3.297573030E-1,2.183151245E-2
6.910801356E0,3.700653315E-1,-4.153920114E-1,4.141979218E-1
6.914818751E0,4.167935848E-1,-5.142872930E-1,7.796201706E-1
6.918836147E0,4.370064139E-1,-6.100503802E-1,1.096607208E0
6.922853543E0,4.881071448E-1,-6.813804507E-1,1.372406006E0
6.926870939E0,5.245802402E-1,-7.357824445E-1,1.623832703E0
6.930888335E0,5.704684854E-1,-7.997428179E-1,1.805453300E0
6.934905731E0,5.967634916E-1,-8.445484638E-1,1.977182388E0
6.938923178E0,5.938885808E-1,-8.702993393E-1,2.134251595E0
6.942940678E0,5.594612360E-1,-9.152764678E-1,2.252749443E0
6.946958178E0,5.149924755E-1,-9.554674625E-1,2.347076416E0
6.950975678E0,4.556742311E-1,-1.000388384E0,2.405300140E0
6.954993178E0,3.790116310E-1,-1.038066030E0,2.465756416E0
6.959010678E0,3.087971210E-1,-1.075548172E0,2.533232689E0
6.963028178E0,2.113114595E-1,-1.105806828E0,2.600566864E0
6.967045678E0,1.078420877E-1,-1.117056012E0,2.663005829E0
6.971063178E0,4.120677710E-2,-1.128467202E0,2.703828812E0
6.975080678E0,-5.588489771E-2,-1.109069109E0,2.737437248E0
6.979098178E0,-1.549139619E-1,-1.085295439E0,2.790180206E0
6.983115678E0,-2.371212244E-1,-1.066803575E0,2.811817169E0
6.987133178E0,-3.049814701E-1,-1.032032251E0,2.866982460E0
6.991150678E0,-3.514008522E-1,-1.012259126E0,2.912580490E0
6.995168178E0,-3.906572759E-1,-9.668297172E-1,2.951003075E0
6.999185678E0,-4.203230739E-1,-8.958168030E-1,2.960722923E0
7.003203178E0,-4.524302483E-1,-7.992986441E-1,2.972880363E0
7.007220678E0,-4.822898507E-1,-7.180257440E-1,2.930054665E0
7.011238178E0,-4.838113189E-1,-6.088595390E-1,2.901705742E0
7.015255678E0,-4.809079170E-1,-5.292021632E-1,2.863883972E0
7.019273178E0,-4.712314308E-1,-4.430298805E-1,2.811808586E0
7.023290678E0,-4.499388635E-1,-3.525859416E-1,2.798127174E0
7.027308074E0,-4.311683774E-1,-2.409459203E-1,2.734247208E0
7.031325470E0,-4.100680053E-1,-1.557582319E-1,2.691998482E0
7.035342866E0,-3.770069778E-1,-7.034273446E-2,2.628280640E0
7.039360262E0,-3.296474516E-1,8.260607719E-3,2.588577271E0
7.043377658E0,-2.250883579E-1,6.347534060E-2,2.534587860E0
7.047395053E0,-7.594525814E-2,9.308531135E-2,2.483106613E0
7.051412449E0,1.074666381E-1,1.046587825E-1,2.403067589E0
7.055429845E0,2.955161333E-1,7.006492466E-2,2.344792366E0
7.059447241E0,5.088666677E-1,2.817945182E-2,2.293948174E0
7.063464637E0,7.278555632E-1,-1.378364861E-3,2.355835915E0
7.067482033E0,9.525014162E-1,-5.655491352E-2,2.523158073E0
7.071499428E0,1.133035183E0,-1.346069723E-1,2.822103500E0
7.075516824E0,1.308541775E0,-2.596330047E-1,3.235758781E0
7.079534220E0,1.451169491E0,-4.390122592E-1,3.749612808E0
7.083551616E0,1.545442343E0,-6.517306566E-1,4.334786415E0
7.087569012E0,1.583003044E0,-8.938406706E-1,4.936104774E0
7.091586408E0,1.591357708E0,-1.166331053E0,5.515189171E0
7.095603803E0,1.566742897E0,-1.417489767E0,6.074369431E0
7.099621199E0,1.534016848E0,-1.705991745E0,6.558535576E0
7.103638595E0,1.494250655E0,-1.994572163E0,6.912621498E0
7.107655991E0,1.441222310E0,-2.272250175E0,7.129483223E0
7.111673387E0,1.351810694E0,-2.513273954E0,7.139812469E0
7.115690783E0,1.233699322E0,-2.737276793E0,6.962941170E0
7.119708178E0,1.084699631E0,-2.870042801E0,6.623029709E0
7.123725574E0,8.805385828E-1,-2.959425211E0,6.132300377E0
7.127742970E0,6.493276358E-1,-2.921517611E0,5.500608444E0
7.131760366E0,4.332522154E-1,-2.799000502E0,4.811997414E0
7.135777762E0,2.409367561E-1,-2.608348370E0,4.076233864E0
7.139795210E0,7.113337517E-2,-2.377782106E0,3.307868958E0
7.143812710E0,-8.689603209E-2,-2.114081621E0,2.547727585E0
7.147830210E0,-2.055872530E-1,-1.826417923E0,1.822206497E0
7.151847710E0,-2.620079517E-1,-1.507349491E0,1.162420273E0
7.155865210E0,-3.001089096E-1,-1.218811035E0,5.587491989E-1
7.159882710E0,-2.559984624E-1,-9.151825905E-1,2.787685394E-2
7.163900210E0,-1.996148527E-1,-6.419588327E-1,-4.255180359E-1
7.167917710E0,-8.112031221E-2,-4.088307917E-1,-7.967739105E-1
7.171935210E0,5.146128312E-2,-1.919117570E-1,-1.124305725E0
7.175952710E0,2.051348984E-1,-1.772621274E-2,-1.405806541E0
7.179970210E0,3.990506530E-1,1.303071827E-1,-1.653325081E0
7.183987710E0,5.637513995E-1,2.592709064E-1,-1.895633698E0
7.188005210E0,7.185643315E-1,3.810069859E-1,-2.101654053E0
7.192022710E0,8.468648791E-1,4.596666694E-1,-2.319284916E0
7.196040210E0,9.463258982E-1,5.503396988E-1,-2.543727875E0
7.200057710E0,1.041214943E0,6.123095751E-1,-2.760612488E0
7.204075210E0,1.123037338E0,7.179380059E-1,-2.972300053E0
7.208092710E0,1.214079857E0,8.103230000E-1,-3.207475185E0
7.212110210E0,1.306549430E0,8.272826076E-1,-3.487645149E0
7.216127710E0,1.306629896E0,8.383474946E-1,-3.721849442E0
7.220145210E0,1.312018991E0,8.339639902E-1,-3.979540348E0
7.224162710E0,1.329675794E0,8.215928674E-1,-4.205669403E0
7.228180106E0,1.366469383E0,8.469709158E-1,-4.445750237E0
7.232197501E0,1.386434913E0,8.961361647E-1,-4.680636883E0
7.236214897E0,1.361212611E0,9.671486616E-1,-4.888812065E0
7.240232293E0,1.283930182E0,1.079643250E0,-5.063147545E0
7.244249689E0,1.198283911E0,1.195658684E0,-5.227612495E0
7.248267085E0,1.137860775E0,1.298893690E0,-5.341576099E0
7.252284481E0,1.076495886E0,1.399167538E0,-5.455367565E0
7.256301876E0,1.033203244E0,1.494369864E0,-5.547494888E0
7.260319272E0,1.024813414E0,1.565729737E0,-5.618018627E0
7.264336668E0,1.020268559E0,1.637313604E0,-5.669387817E0
7.268354064E0,1.019631147E0,1.692569017E0,-5.692085743E0
7.272371460E0,1.042371511E0,1.743668318E0,-5.698130608E0
7.276388856E0,1.012174606E0,1.788228273E0,-5.687552452E0
7.280406251E0,9.723145962E-1,1.838408113E0,-5.658001900E0
7.284423647E0,9.227057695E-1,1.844056249E0,-5.597568512E0
7.288441043E0,8.370317221E-1,1.838699579E0,-5.513478279E0
7.292458439E0,7.391859293E-1,1.829532862E0,-5.379459381E0
7.296475835E0,6.313795447E-1,1.787525177E0,-5.212317467E0
7.300493231E0,4.967694581E-1,1.717209816E0,-5.000120640E0
7.304510626E0,3.780593276E-1,1.618313670E0,-4.824268341E0
7.308528022E0,2.510516047E-1,1.524055958E0,-4.612931728E0
7.312545418E0,1.202513278E-1,1.419622302E0,-4.349390030E0
7.316562814E0,5.968254805E-2,1.299825668E0,-4.088712215E0
7.320580210E0,-1.114010811E-4,1.195446610E0,-3.830869198E0
7.324597606E0,-6.867775321E-2,1.113295794E0,-3.580614567E0
7.328615001E0,-1.531059146E-1,1.065051556E0,-3.325953007E0
7.332632397E0,-2.246153057E-1,1.014524937E0,-3.040549278E0
7.336649793E0,-3.046221435E-1,9.853629470E-1,-2.745949745E0
7.340667293E0,-3.570830822E-1,9.604799151E-1,-2.446924210E0
7.344684793E0,-4.105646610E-1,9.181648493E-1,-2.186522007E0
7.348702293E0,-4.289176464E-1,8.846819997E-1,-1.962287903E0
7.352719793E0,-4.477266967E-1,8.647603393E-1,-1.743058681E0
7.356737293E0,-4.449920058E-1,8.298055530E-1,-1.538390160E0
7.360754793E0,-3.916565776E-1,7.847270966E-1,-1.369789124E0
7.364772293E0,-3.807088435E-1,7.369295359E-1,-1.203723907E0
7.368789793E0,-3.520307839E-1,7.297753096E-1,-1.040199280E0
7.372807293E0,-3.510212898E-1,7.085396051E-1,-8.744497299E-1
7.376824793E0,-3.751857877E-1,6.951504946E-1,-7.304229736E-1
7.380842293E0,-3.981755078E-1,6.921997666E-1,-5.817861557E-1
7.384859793E0,-4.081726074E-1,7.094959021E-1,-4.166030884E-1
7.388877293E0,-4.075610638E-1,7.114205360E-1,-2.540445328E-1
7.392894793E0,-4.179090858E-1,7.004075050E-1,-7.736015320E-2
7.396912293E0,-4.200235009E-1,6.693174839E-1,1.588897705E-1
7.400929793E0,-4.545212984E-1,6.372164488E-1,4.163618088E-1
7.404947293E0,-4.855628014E-1,5.967211723E-1,6.950387955E-1
7.408964793E0,-5.586125255E-1,5.402727723E-1,1.002091408E0
7.412982293E0,-6.544612050E-1,4.962495267E-1,1.325535774E0
7.416999793E0,-7.779139876E-1,4.497202933E-1,1.665374756E0
7.421017293E0,-9.096102715E-1,4.098652303E-1,1.949825287E0
7.425034793E0,-1.039913535E0,3.689778745E-1,2.224431038E0
7.429052189E0,-1.137558937E0,3.171763420E-1,2.446146965E0
7.433069585E0,-1.245593786E0,2.637704313E-1,2.622220039E0
7.437086981E0,-1.342430234E0,2.134199142E-1,2.740746498E0
7.441104376E0,-1.461634636E0,1.924367845E-1,2.828111649E0
7.445121772E0,-1.569789648E0,1.624984145E-1,2.879567146E0
7.449139168E0,-1.690938354E0,1.261063814E-1,2.904723167E0
7.453156564E0,-1.803678751E0,9.778285027E-2,2.913175583E0
7.457173960E0,-1.898535013E0,8.955654502E-2,2.912120819E0
7.461191356E0,-1.956663013E0,7.767590880E-2,2.915919304E0
7.465208751E0,-2.016513824E0,7.899016142E-2,2.891066551E0
7.469226147E0,-2.044696093E0,7.445997000E-2,2.871088028E0
7.473243543E0,-2.048700809E0,6.903553009E-2,2.855971336E0
7.477260939E0,-2.035859823E0,6.747761369E-2,2.852883339E0
7.481278335E0,-1.992007256E0,5.548369884E-2,2.821132660E0
7.485295731E0,-1.929600954E0,2.118787169E-2,2.791840553E0
7.489313126E0,-1.872754455E0,-1.865494251E-2,2.798492432E0
7.493330522E0,-1.793042421E0,-5.444541574E-2,2.836246490E0
7.497347918E0,-1.719097733E0,-7.680264115E-2,2.873969078E0
7.501365314E0,-1.657758832E0,-1.002224684E-1,2.918852806E0
7.505382710E0,-1.594344735E0,-9.611988068E-2,2.949375153E0
7.509400106E0,-1.566908598E0,-8.356162906E-2,2.944028854E0
7.513417501E0,-1.556002975E0,-7.213646173E-2,2.888520241E0
7.517434897E0,-1.544777036E0,-6.398293376E-2,2.828368187E0
7.521452293E0,-1.542764664E0,-4.457917809E-2,2.701373100E0
7.525469689E0,-1.521306515E0,-2.795735002E-2,2.548279762E0
7.529487085E0,-1.519061327E0,-1.377695799E-2,2.378661156E0
7.533504481E0,-1.519631267E0,-6.438612938E-3,2.197291374E0
7.537521876E0,-1.530498385E0,-3.199011087E-3,2.020899773E0
7.541539376E0,-1.523399353E0,-1.076865196E-2,1.868569374E0
7.545556876E0,-1.505754828E0,-2.469956875E-3,1.728274345E0
7.549574376E0,-1.492553115E0,-1.924633980E-3,1.654972076E0
7.553591876E0,-1.462664008E0,-1.349708438E-2,1.591109276E0
7.557609376E0,-1.392382383E0,-4.910022020E-2,1.622784615E0
7.561626876E0,-1.327396393E0,-1.086090505E-1,1.721153259E0
7.565644376E0,-1.231468201E0,-1.992845237E-1,1.871797562E0
7.569661876E0,-1.106794477E0,-3.069349527E-1,2.100999832E0
7.573679376E0,-1.036870599E0,-4.486756623E-1,2.377595901E0
7.577696876E0,-9.351364374E-1,-5.746313930E-1,2.665683746E0
7.581714376E0,-9.019687176E-1,-6.852995157E-1,2.946146011E0
7.585731876E0,-8.842897415E-1,-7.812390924E-1,3.216649055E0
7.589749376E0,-8.912132978E-1,-8.725845814E-1,3.460506439E0
7.593766876E0,-8.888832331E-1,-9.335511327E-1,3.687362671E0
7.597784376E0,-9.057147503E-1,-1.007646322E0,3.875735283E0
7.601801876E0,-9.462442994E-1,-1.107261777E0,3.980240822E0
7.605819376E0,-9.552823305E-1,-1.172754049E0,4.041668892E0
7.609836876E0,-9.783306122E-1,-1.256991863E0,4.031371117E0
7.613854376E0,-9.986770153E-1,-1.314564824E0,3.966181755E0
7.617871876E0,-9.973160028E-1,-1.357468605E0,3.838989258E0
7.621889376E0,-1.005579114E0,-1.411812782E0,3.657035828E0
7.625906876E0,-9.853035808E-1,-1.427232385E0,3.434738159E0
7.629924272E0,-9.677400589E-1,-1.432021379E0,3.198443413E0
7.633941668E0,-9.410104752E-1,-1.423501849E0,2.952946663E0
7.637959064E0,-8.836387396E-1,-1.403636217E0,2.703023911E0
7.641976460E0,-8.289904594E-1,-1.379232168E0,2.427138329E0
7.645993856E0,-7.338454723E-1,-1.345335960E0,2.218626022E0
7.650011251E0,-6.217513084E-1,-1.299161315E0,2.010403633E0
7.654028647E0,-5.188450217E-1,-1.257381678E0,1.823998451E0
7.658046043E0,-3.911899328E-1,-1.203158617E0,1.654599190E0
7.662063439E0,-2.766830921E-1,-1.150778294E0,1.471079826E0
7.666080835E0,-1.774358153E-1,-1.102780581E0,1.309350014E0
7.670098231E0,-7.398667932E-2,-1.047160149E0,1.133493423E0
7.674115626E0,-1.636298001E-2,-9.793589115E-1,9.483203888E-1
7.678133022E0,5.538986623E-2,-9.210590720E-1,7.538480759E-1
7.682150418E0,9.823423624E-2,-8.723616600E-1,5.429134369E-1
7.686167814E0,1.504893899E-1,-8.332827091E-1,3.275003433E-1
7.690185210E0,1.619416624E-1,-7.991596460E-1,8.369731903E-2
7.694202606E0,1.851443350E-1,-7.772564888E-1,-1.860618591E-1
7.698220001E0,2.009380162E-1,-7.365685701E-1,-4.410619736E-1
7.702237397E0,1.948051006E-1,-7.105779648E-1,-7.100315094E-1
7.706254793E0,1.999025792E-1,-6.849383116E-1,-1.019268036E0
7.710272189E0,2.086352855E-1,-6.836408377E-1,-1.320870399E0
7.714289585E0,1.919882447E-1,-6.443690658E-1,-1.622030258E0
7.718306981E0,1.805639416E-1,-6.173083186E-1,-1.913191795E0
7.722324376E0,1.763413996E-1,-5.832624435E-1,-2.199163437E0
7.726341772E0,1.694845110E-1,-5.373070240E-1,-2.458434582E0
7.730359168E0,1.596779525E-1,-5.034439564E-1,-2.717360497E0
7.734376564E0,1.442975551E-1,-4.576684833E-1,-2.923319817E0
7.738394064E0,1.255776435E-1,-4.072113633E-1,-3.109877586E0
7.742411564E0,1.128346622E-1,-3.545110822E-1,-3.253139973E0
7.746429064E0,1.155391186E-1,-2.924971581E-1,-3.415362835E0
7.750446564E0,1.047579348E-1,-2.666525841E-1,-3.548680305E0
7.754464064E0,1.139450967E-1,-2.364003658E-1,-3.669868469E0
7.758481564E0,1.260274798E-1,-2.017847896E-1,-3.771770000E0
7.762499064E0,1.505351514E-1,-1.819847226E-1,-3.847230911E0
7.766516564E0,1.755419970E-1,-1.458069086E-1,-3.913035393E0
7.770534064E0,1.939288080E-1,-1.292387843E-1,-3.957222939E0
7.774551564E0,2.130079716E-1,-8.454704285E-2,-3.998938560E0
7.778569064E0,2.210928798E-1,-5.469888449E-2,-4.050148010E0
7.782586564E0,2.326574624E-1,-4.936689138E-2,-4.084502697E0
7.786604064E0,2.644928098E-1,-1.101070642E-2,-4.145089149E0
7.790621564E0,2.900478840E-1,3.101885319E-3,-4.224715233E0
7.794639064E0,3.213715553E-1,1.468825340E-2,-4.277907372E0
7.798656564E0,3.442590535E-1,4.558211565E-2,-4.319071770E0
7.802674064E0,3.733821511E-1,7.912087440E-2,-4.312337875E0
7.806691564E0,3.923254609E-1,1.298239231E-1,-4.286482334E0
7.810709064E0,4.230425060E-1,1.761592627E-1,-4.263054371E0
7.814726564E0,4.465487003E-1,2.014243603E-1,-4.225306988E0
7.818744064E0,4.654776454E-1,2.342900038E-1,-4.187604904E0
7.822761564E0,4.701406360E-1,2.580797672E-1,-4.193026543E0
7.826778960E0,4.963950515E-1,2.513965368E-1,-4.179329872E0
7.830796356E0,5.225300193E-1,2.358506918E-1,-4.184829235E0
7.834813751E0,5.365965366E-1,2.546195984E-1,-4.187979698E0
7.838831147E0,5.483035445E-1,2.599104643E-1,-4.164874077E0
7.842848543E0,5.650363564E-1,3.043514490E-1,-4.084441185E0
7.846865939E0,5.989177823E-1,3.495260477E-1,-3.970669746E0
7.850883335E0,6.022732258E-1,3.931398392E-1,-3.861898422E0
7.854900731E0,6.135216355E-1,4.111406803E-1,-3.777248383E0
7.858918126E0,5.871385932E-1,4.299973249E-1,-3.697568893E0
7.862935522E0,5.613188744E-1,4.447740316E-1,-3.653943539E0
7.866952918E0,5.572158098E-1,4.387871027E-1,-3.646336555E0
7.870970314E0,5.623412132E-1,4.456577301E-1,-3.657968044E0
7.874987710E0,5.498135686E-1,4.535284042E-1,-3.686437130E0
7.879005106E0,5.262938738E-1,4.648913145E-1,-3.676703453E0
7.883022501E0,4.507379532E-1,4.893509150E-1,-3.600101948E0
7.887039897E0,3.780144155E-1,5.196282864E-1,-3.444733143E0
7.891057293E0,3.415067792E-1,5.197232962E-1,-3.241774559E0
7.895074689E0,3.602686822E-1,4.681611061E-1,-3.024766922E0
7.899092085E0,4.029814601E-1,4.054702520E-1,-2.784117222E0
7.903109481E0,4.720807672E-1,3.148925304E-1,-2.555720806E0
7.907126876E0,5.433472991E-1,2.562289238E-1,-2.301254272E0
7.911144272E0,6.240998507E-1,2.055068016E-1,-2.025510788E0
7.915161668E0,6.931742430E-1,1.577583551E-1,-1.738052368E0
7.919179064E0,7.436270714E-1,1.464835405E-1,-1.426918030E0
7.923196460E0,7.642062306E-1,1.596828699E-1,-1.096924782E0
7.927213856E0,7.506185174E-1,1.613645554E-1,-7.169895172E-1
7.931231251E0,7.610989809E-1,1.634759903E-1,-3.565797806E-1
7.935249481E0,7.817572355E-1,1.229126453E-1,1.062965393E-2
7.939267397E0,8.182554841E-1,6.114745140E-2,3.630609512E-1
7.943284845E0,8.761345744E-1,-4.592990875E-2,7.581176758E-1
7.947302241E0,9.585244060E-1,-1.479998231E-1,1.088016510E0
7.951319637E0,9.893604517E-1,-2.594044209E-1,1.367133141E0
7.955337033E0,9.835526347E-1,-3.609731793E-1,1.609825134E0
7.959354428E0,9.509978890E-1,-4.264193773E-1,1.792169571E0
7.963371824E0,8.198397160E-1,-4.294217825E-1,1.887901306E0
7.967389220E0,6.545767188E-1,-3.914549351E-1,1.976064682E0
7.971406616E0,4.451247454E-1,-3.269282579E-1,2.018417358E0
7.975424012E0,2.436743975E-1,-2.526223660E-1,2.024609566E0
7.979441408E0,6.397849321E-2,-2.019752264E-1,2.037787437E0
7.983458803E0,-6.338834763E-2,-2.037080526E-1,2.055584908E0
7.987476199E0,-1.630007029E-1,-2.338500023E-1,2.051722527E0
7.991493595E0,-2.162446976E-1,-3.065832853E-1,2.038211823E0
7.995510991E0,-2.355179787E-1,-3.957791328E-1,2.017508507E0
7.999528387E0,-2.572534084E-1,-5.062164664E-1,1.999225616E0
8.003545783E0,-2.341344059E-1,-5.519247651E-1,1.992987633E0
8.007563178E0,-2.242249846E-1,-5.639498234E-1,2.003584862E0
8.011580574E0,-2.254141867E-1,-5.113634467E-1,1.999924660E0
8.015597970E0,-2.165353000E-1,-4.158499837E-1,2.039476395E0
8.019615366E0,-1.905311346E-1,-2.678428292E-1,2.083909035E0
8.023632762E0,-1.688855290E-1,-1.344651580E-1,2.164320946E0
8.027650158E0,-1.444603205E-1,8.317112923E-3,2.237599373E0
8.031667553E0,-1.077177525E-1,1.152113080E-1,2.318098068E0
8.035684949E0,-6.573712826E-2,2.007587552E-1,2.401007652E0
8.039702345E0,-3.052502871E-2,2.794191241E-1,2.517431259E0
8.043719741E0,6.723999977E-4,3.155627251E-1,2.684037209E0
8.047737137E0,6.412810087E-2,3.355709314E-1,2.826578140E0
8.051754585E0,1.361535192E-1,3.515191078E-1,3.000087738E0
8.055772085E0,2.241951227E-1,3.540558815E-1,3.182966232E0
8.059789585E0,3.522378802E-1,3.264892101E-1,3.365630150E0
8.063807085E0,4.818865657E-1,3.049255610E-1,3.543294907E0
8.067824585E0,6.131008863E-1,2.464220524E-1,3.747069359E0
8.071842085E0,7.603480816E-1,1.869039536E-1,3.948218346E0
8.075859585E0,8.758742213E-1,1.000835896E-1,4.192199707E0
8.079877085E0,9.791250825E-1,-6.682813168E-3,4.435873032E0
8.083894585E0,1.032236099E0,-1.406605244E-1,4.712718964E0
8.087912085E0,1.064537525E0,-2.661535442E-1,5.003528595E0
8.091929585E0,1.054975390E0,-4.264143705E-1,5.327398300E0
8.095947085E0,1.006522894E0,-6.026698947E-1,5.641197205E0
8.099964585E0,9.220702052E-1,-8.025449514E-1,5.961665154E0
8.103982085E0,8.475514054E-1,-1.014634609E0,6.274420738E0
8.107999585E0,7.592668533E-1,-1.253964663E0,6.536410332E0
8.112017085E0,6.576267481E-1,-1.528301954E0,6.750060081E0
8.116034585E0,5.716484189E-1,-1.811938524E0,6.905847549E0
8.120052085E0,4.442981482E-1,-2.064869642E0,6.972717285E0
8.124069585E0,3.382465243E-1,-2.335501194E0,6.945960045E0
8.128087085E0,2.370299697E-1,-2.564388752E0,6.825669289E0
8.132104585E0,1.479697227E-1,-2.751886606E0,6.578473091E0
8.136122085E0,4.690474272E-2,-2.871871233E0,6.238064766E0
8.140139585E0,-3.298479319E-2,-2.926868200E0,5.771119118E0
8.144156981E0,-9.940350056E-2,-2.919186354E0,5.235290527E0
8.148174376E0,-1.435055733E-1,-2.851078749E0,4.623579025E0
8.152191772E0,-1.396279335E-1,-2.724785328E0,3.962478638E0
8.156209168E0,-9.819924831E-2,-2.568655491E0,3.295200348E0
8.160226564E0,-4.390901327E-2,-2.360740185E0,2.612249374E0
8.164243960E0,8.212208748E-3,-2.160327435E0,1.954362869E0
8.168261356E0,6.716763973E-2,-1.921429634E0,1.319150925E0
8.172278751E0,1.134076715E-1,-1.686777353E0,7.400922775E-1
8.176296147E0,2.016776800E-1,-1.467934966E0,1.596984863E-1
8.180313543E0,3.006612659E-1,-1.262289882E0,-3.430786133E-1
8.184330939E0,3.836972713E-1,-1.064958811E0,-8.209638596E-1
8.188348335E0,4.887979329E-1,-9.019904733E-1,-1.281173706E0
8.192365731E0,5.725082159E-1,-7.493705750E-1,-1.704588890E0
8.196383126E0,6.321576238E-1,-6.189275980E-1,-2.088870049E0
8.200400522E0,7.083544135E-1,-5.057229400E-1,-2.448442459E0
