"Time (s)","Gyroscope x (rad/s)","Gyroscope y (rad/s)","Gyroscope z (rad/s)"
5.487812000E-3,-4.363672137E-1,-1.053288698E0,2.984512970E-2
2.748156200E-2,-9.837722778E-1,-1.387728691E0,2.432988957E-2
4.948156200E-2,-4.513421357E-1,-8.292233944E-1,-4.099778533E-1
7.148468700E-2,2.499311417E-1,-3.004758954E-1,-4.628438652E-1
9.348156200E-2,3.835884631E-1,9.880308807E-2,-9.187413007E-2
1.134831250E-1,1.623854339E-1,1.904328763E-1,2.126509100E-1
1.354815620E-1,1.850049011E-2,4.098033160E-2,1.248783097E-1
1.554862500E-1,4.202752933E-2,-7.384487987E-2,-5.612978712E-2
1.774800000E-1,1.713389754E-1,-7.347836159E-3,-8.620180935E-2
1.974800000E-1,2.738945186E-1,4.975933582E-2,3.893829510E-2
2.174800000E-1,2.645046413E-1,3.717551241E-3,1.713913381E-1
2.374815620E-1,1.639038622E-1,-1.828232408E-1,1.770112962E-1
2.594800000E-1,4.673991725E-2,-2.349038571E-1,9.550441802E-2
2.794815620E-1,4.897394031E-2,-1.131147891E-1,3.099704720E-2
3.014800000E-1,1.330638975E-1,3.036872856E-2,9.843656793E-3
3.214878120E-1,1.965240687E-1,-8.229227364E-2,7.346090674E-2
3.434815620E-1,9.885545075E-2,-1.045277715E-1,5.002113804E-2
3.634925000E-1,-1.407433450E-1,-1.043357849E-1,-3.996803891E-3
3.854800000E-1,-3.714584112E-1,-2.543119192E-1,-5.862560868E-2
4.054800000E-1,-5.094790459E-1,-5.273163319E-1,-1.261174977E-1
4.254831250E-1,-4.813618064E-1,-7.771078348E-1,-1.901536286E-1
4.474800000E-1,-4.469264746E-1,-9.423905015E-1,-1.078438908E-1
4.674800000E-1,-5.360255241E-1,-9.568592906E-1,1.749692559E-1
4.874800000E-1,-8.531518579E-1,-4.339761138E-1,4.213399291E-1
5.074815620E-1,-1.595440388E0,-2.685014606E-1,6.788981557E-1
5.274815620E-1,-2.267304897E0,4.771730304E-2,7.129495144E-1
5.474846870E-1,-2.893703461E0,1.052590609E0,6.334323287E-1
5.694800000E-1,-2.770657778E0,7.107504010E-1,4.495968223E-1
5.894800000E-1,-1.792138934E0,1.262169719E0,6.613401771E-1
6.094800000E-1,-6.720215678E-1,2.562754154E0,1.023181796E0
6.294800000E-1,-3.041759729E-1,2.849476814E0,1.035154819E0
6.494800000E-1,-6.441137791E-1,2.482696056E0,1.288820982E0
6.694800000E-1,-5.765346289E-1,6.997199655E-1,1.478922248E0
6.894815620E-1,1.004960611E-1,6.286676228E-2,1.151760221E0
7.114800000E-1,-4.020016789E-1,2.674891651E-1,9.874200225E-1
7.314815620E-1,-6.706427336E-1,1.236286521E0,1.258312583E0
7.514815620E-1,-6.881135106E-1,1.206301808E0,1.415252566E0
7.714815620E-1,-8.127300143E-1,-2.569159508E0,1.198517561E0
7.914815620E-1,-1.536483169E0,-3.719139576E0,1.072853923E0
8.114815620E-1,-2.876477242E0,-3.812758923E0,1.854202867E0
8.314815620E-1,-2.673949242E0,-3.271131039E0,2.051006317E0
8.534815620E-1,-2.384398937E0,-2.541478634E0,1.811285257E0
8.734815620E-1,-3.040991783E0,-1.382422924E0,7.654490471E-1
8.934815620E-1,-3.920306206E0,6.731211543E-1,-3.911108375E-1
9.134815620E-1,-4.120216370E0,1.730197191E0,-1.189354658E0
9.354815620E-1,-4.152207851E0,2.370733023E0,-1.227455139E0
9.574800000E-1,-3.875032425E0,3.364366531E0,-1.124917030E0
9.774800000E-1,-3.171629667E0,3.520311594E0,-1.498277903E0
9.974800000E-1,-2.079769135E0,2.877908230E0,-1.458048105E0
1.017480000E0,-1.648707867E0,2.048807144E0,-1.767268062E0
1.037480000E0,-1.447715759E0,2.500829935E0,-2.079594612E0
1.057480000E0,-1.257352591E0,3.325026751E0,-2.002870083E0
1.077480000E0,-1.082505584E0,4.190517902E0,-1.895340323E0
1.097481562E0,-8.322427869E-1,4.952651024E0,-1.408637762E0
1.117483125E0,-5.818927884E-1,4.557997227E0,-8.398698568E-1
1.139480000E0,-1.287005842E-1,3.295827389E0,-2.629513144E-1
1.159480000E0,4.439419508E-1,2.622514248E0,7.205242515E-1
1.179480000E0,8.530645967E-1,2.273989439E0,1.503670931E0
1.199480000E0,9.269094467E-1,2.035158634E0,1.458850861E0
1.219480000E0,1.000073671E0,2.691873550E0,1.405583501E0
1.239480000E0,1.105805755E0,3.089948416E0,1.614953160E0
1.259480000E0,8.170759082E-1,2.480723619E0,1.053847194E0
1.279480000E0,6.247231364E-1,1.798212767E0,3.806388676E-1
1.299480000E0,8.816879988E-1,1.994928837E0,-1.261873096E-1
1.319481562E0,1.520234108E0,2.193582058E0,-6.360678077E-1
1.339481562E0,2.004231453E0,2.552334547E0,-1.027911663E0
1.361481562E0,2.150263071E0,2.689116001E0,-1.526901245E0
1.383481562E0,1.773516297E0,2.253412008E0,-2.083312273E0
1.403481562E0,1.286517143E0,2.246238708E0,-2.202029467E0
1.423481562E0,9.271538258E-1,2.230687857E0,-1.817097187E0
1.443481562E0,3.343003690E-1,1.947316170E0,-1.318107605E0
1.463481562E0,-2.963219881E-1,1.741088152E0,-7.681193948E-1
1.483481562E0,-5.631130338E-1,1.640626907E0,-9.345889091E-1
1.503481562E0,-1.224522963E-1,1.664956808E0,-1.179894924E0
1.523487812E0,-3.600963354E-1,6.047740579E-1,-6.813765317E-2
1.545480000E0,-1.643943071E0,-6.490007043E-1,1.694714665E0
1.565481562E0,-1.125039220E0,-5.803045034E-1,1.510966420E0
1.587480000E0,7.506661117E-2,-5.304055661E-2,5.488013029E-1
1.607481562E0,-2.832843959E-1,-7.836703062E-1,1.298577309E0
1.629480000E0,-1.996429801E0,-1.454749346E0,2.644889355E0
1.649480000E0,-6.644468307E-1,8.170933127E-1,1.837430239E0
1.669480000E0,-4.049862027E-1,1.338301063E0,1.045103192E0
1.689480000E0,-4.743106663E-1,1.231556654E0,1.840990782E0
1.709480000E0,-1.342507303E-1,6.224716902E-1,2.165447474E0
1.729480000E0,-1.417032778E-1,4.028394520E-1,1.259673953E0
1.749480000E0,-5.890660882E-1,7.041879892E-1,1.891186357E0
1.769481562E0,-4.790405035E-1,2.642428577E-1,2.272593260E0
1.791481562E0,-7.929030806E-2,5.142263770E-1,1.921624899E0
1.813480000E0,3.282091618E-1,6.040933728E-1,1.048558950E0
1.833481562E0,4.191233516E-1,2.097327232E0,-8.754047751E-1
1.853481562E0,6.944839358E-1,1.396403074E0,-3.777712822E0
1.875480000E0,2.113419175E-1,1.067233920E0,-1.812332392E0
1.895481562E0,7.029837370E-1,7.290240377E-2,7.630579174E-2
1.917480000E0,5.907067060E-1,-4.391597509E-1,1.206319213E0
1.937480000E0,5.397256017E-1,2.734756470E-1,3.496243656E-1
1.957480000E0,7.181680799E-1,5.021661520E-1,-8.687376380E-1
1.977480000E0,5.631130338E-1,3.362900317E-1,-4.479736686E-1
1.997480000E0,4.216890037E-1,1.559102684E-1,8.031481504E-1
2.017480000E0,1.749727488E0,1.061875820E0,1.121321678E0
2.037480000E0,2.027112722E0,4.796688259E-1,8.490154147E-1
2.057480000E0,1.128058672E0,-2.632829249E-1,1.762485862E0
2.077480000E0,7.952069044E-1,-3.969925940E-1,2.006482840E0
2.097480000E0,1.796292812E-1,-1.511978656E-1,1.622353315E0
2.117480000E0,-4.600862563E-1,5.020264983E-1,-7.615045905E-1
2.137481562E0,1.907470375E-1,-1.179912329E0,-9.631250501E-1
2.159480000E0,5.837777257E-1,-1.435236573E0,2.429498285E-1
2.179480000E0,4.129099846E-1,-1.603608489E0,7.174001336E-1
2.199481562E0,5.071577430E-1,-9.435773492E-1,2.477843910E-1
2.221481562E0,1.249393940E0,-2.465452105E-1,3.635520935E-1
2.243480000E0,1.874117136E0,-1.360466719E0,1.658743501E0
2.263481562E0,1.890837312E0,-5.351353884E-1,4.336445034E-1
2.283481562E0,1.599123001E0,5.739689469E-1,5.914746523E-1
2.303481562E0,1.669948459E0,9.337162375E-1,5.461658835E-1
2.323481562E0,1.188185215E0,1.088788748E0,-7.529350370E-2
2.343481562E0,6.429269314E-1,7.823961973E-1,-3.416132927E-1
2.363481562E0,3.699225485E-1,2.257408798E-1,-1.923527420E-1
2.383481562E0,3.986681104E-1,-1.098161191E-1,1.282817032E-2
2.403481562E0,5.085365772E-1,4.424409568E-2,8.941321820E-2
2.423481562E0,6.710616350E-1,3.959279358E-1,-1.132718697E-1
2.443481562E0,8.791223168E-1,5.706179142E-1,-2.795842886E-1
2.463481562E0,9.428617358E-1,7.811395526E-1,-4.729493260E-1
2.483481562E0,1.158444881E0,1.007054925E0,-6.669775844E-1
2.503481562E0,1.075105309E0,9.738239050E-1,-6.335021853E-1
2.523481562E0,1.057494998E0,9.828298092E-1,-5.957157612E-1
2.543481562E0,9.425476193E-1,5.959252119E-1,-5.006302595E-1
2.563486250E0,1.169265866E0,6.212673783E-1,-3.782477677E-1
2.585480000E0,1.487090349E0,9.716771245E-1,-4.511501491E-1
2.605480000E0,1.728888273E0,1.251593113E0,-5.270196199E-1
2.625480000E0,2.116019726E0,1.057599664E0,-6.047391295E-1
2.645481562E0,2.072124720E0,6.216164827E-1,-6.083694100E-1
2.667481562E0,1.372841120E0,4.616744816E-1,-1.282118857E-1
2.689480000E0,5.867273211E-1,4.990769029E-1,7.410493493E-1
2.709480000E0,4.282514453E-1,5.105960965E-1,1.050042391E0
2.729480000E0,3.428001106E-1,3.474775851E-1,9.433330297E-1
2.749480000E0,7.929030806E-2,1.671850830E-1,5.896071196E-1
2.769481562E0,-5.761506557E-1,-3.889291584E-1,3.950727284E-1
2.791481562E0,-1.316693783E0,-1.016357541E0,7.080451846E-1
2.813480000E0,-1.467368126E0,-1.187417269E0,8.219628334E-1
2.833481562E0,-1.267126441E0,-9.287943840E-1,7.629532218E-1
2.853481562E0,-6.934542060E-1,-6.879215240E-1,6.692639589E-1
2.873481562E0,-5.419072509E-1,-2.349736691E-1,4.740139842E-1
2.893481562E0,-5.403364897E-1,2.968979478E-1,5.149070621E-1
2.913481562E0,-2.588846982E-1,6.483898163E-1,5.784718990E-1
2.933481562E0,-2.611012571E-2,1.120710850E0,1.047023058E0
2.953481562E0,-6.523342729E-1,1.345003128E0,1.169178605E0
2.973481562E0,-1.068839654E-1,3.322932422E-1,1.300305247E0
2.993481562E0,7.470009476E-2,-3.513347730E-2,5.814389586E-1
3.013481562E0,5.661324263E-1,1.550707579E0,-7.211002111E-1
3.033481562E0,5.486093163E-1,1.544022918E0,-1.891238838E-1
3.053481562E0,8.318239450E-2,1.233005285E0,4.381474555E-1
3.073481562E0,3.420845419E-2,4.582885504E-1,4.170289636E-1
3.093481562E0,2.834414691E-2,-1.523846984E-1,-4.007275775E-2
3.113481562E0,3.853163421E-1,-7.695330977E-1,5.745624006E-2
3.133481562E0,3.162536621E-1,-8.251742125E-1,1.894903928E-1
3.153481562E0,3.545112908E-1,-5.882632136E-1,-1.061334684E-1
3.173481562E0,7.468264103E-1,-8.027816415E-1,1.339191198E-1
3.193481562E0,1.283096194E0,-1.701538920E0,2.937912643E-1
3.213486250E0,1.866873980E0,-2.465626717E0,1.231870890E0
3.235480000E0,2.263953924E0,-2.889410019E0,1.273479462E0
3.255480000E0,3.168156624E0,-3.282335997E0,1.061823368E0
3.275481562E0,1.330865860E0,-4.066355228E0,3.780732155E-1
3.295481562E0,4.444480836E-1,-4.128227234E0,1.206877708E0
3.315481562E0,6.216513515E-1,-4.110058308E0,1.104095340E0
3.337480000E0,1.617763162E0,-2.491178274E0,-5.738642439E-2
3.357480000E0,2.811673164E0,-1.482692122E0,-1.245309830E0
3.377481562E0,3.107628584E0,-2.363873869E-1,-1.795175791E0
3.399480000E0,2.420928717E0,2.731091082E-1,-8.071973324E-1
3.419480000E0,1.546693325E0,1.540951133E-1,-1.510390520E0
3.439480000E0,5.880363584E-1,-4.294731617E-1,-2.253673792E0
3.459480000E0,3.618416488E-1,-1.780846715E0,-2.659340620E0
3.479481562E0,-9.731955826E-2,-2.572021961E0,-3.180531025E0
3.501480000E0,-3.726626933E-1,-2.687911749E0,-4.196364880E0
3.521481562E0,-1.425881624E0,-4.344194412E0,-7.429639816E0
3.541481562E0,-2.624975204E0,-6.078458309E0,-4.160830021E0
3.563480000E0,-2.901958942E0,-2.913111687E0,-4.508709013E-1
3.583481562E0,-4.529827535E-1,2.363769293E0,-1.180837393E0
3.605480000E0,4.157548845E-1,4.691637039E0,-3.230447292E0
3.625480000E0,-1.462236881E0,3.537084341E0,-3.159848690E0
3.645481562E0,-2.736693621E0,-6.180734634E-1,-2.450651646E0
3.667481562E0,-3.399342775E0,-2.075807333E0,-1.607884526E0
3.689480000E0,-3.461668491E0,6.906547070E0,-5.513495207E-2
3.709480000E0,-1.365109324E0,7.331273079E0,9.313600659E-1
3.729480000E0,-7.796211243E-1,2.864277363E0,1.784948260E-1
3.749480000E0,-1.407258987E0,-6.377084255E-1,-2.742784917E-1
3.769481562E0,-2.481369495E0,-2.080449820E0,-5.776865482E-1
3.789481562E0,-3.407144547E0,-1.951190829E0,-1.129140735E0
3.809481562E0,-4.003209114E0,1.348092258E-1,-1.964769483E0
3.829481562E0,-2.672029257E0,4.970697686E-2,-1.088387370E0
3.849481562E0,-1.004576564E0,-1.101966023E0,-9.286373258E-1
3.869481562E0,-1.553500056E0,-6.357187033E-1,-6.837676167E-1
3.889481562E0,-1.883716345E0,-7.741059065E-1,-7.719067931E-1
3.909495625E0,-1.239305973E0,-1.523148865E-1,-4.048291147E-1
3.929519062E0,-4.097509384E-1,3.554886580E-1,-2.898992002E-1
3.951487812E0,-5.414011329E-2,5.582610369E-1,-4.021064043E-1
3.973483125E0,1.503601074E-1,6.020862460E-1,-1.102716446E0
3.993490937E0,3.323106840E-2,7.852061987E-1,-1.417259693E0
4.015481562E0,-6.794043183E-1,6.415306926E-1,-1.417539001E0
4.037480000E0,-1.207977295E0,2.125461996E-1,-1.027911663E0
4.057480000E0,-1.356033564E0,2.944370359E-2,-7.065616250E-1
4.077481562E0,-1.301195264E0,-8.054694533E-2,-4.558799863E-1
4.097481562E0,-1.045574427E0,3.951425478E-2,-5.805139542E-1
4.117481562E0,-6.808704138E-1,3.963642567E-2,-6.901555657E-1
4.137481562E0,-2.623578906E-1,1.841147840E-1,-9.415876865E-1
4.157481562E0,-1.223475784E-1,2.140646279E-1,-1.134376764E0
4.177481562E0,-3.572340012E-1,-5.033529550E-2,-1.646107316E0
4.197481562E0,-8.612152338E-1,2.996381223E-1,-2.207230568E0
4.217487812E0,-9.714677334E-1,9.049706459E-1,-2.814500570E0
4.239481562E0,-6.070255041E-1,6.091373563E-1,-3.454687357E0
4.259490937E0,-6.054372787E-1,-9.036093354E-1,-3.667093754E0
4.281481562E0,-6.949551702E-1,-1.595998883E0,-3.222017527E0
4.301492500E0,9.465793371E-1,2.234387875E0,-3.495370865E0
4.323481562E0,2.466097832E0,4.758762360E0,-3.575690985E0
4.343481562E0,3.086195946E0,6.609073162E0,-2.294060707E0
4.363481562E0,3.379673004E0,6.394118309E0,-9.703506827E-1
4.383481562E0,3.437862396E0,5.575873375E0,1.103379726E0
4.403481562E0,2.816280842E0,5.824913979E0,4.896468639E0
4.423481562E0,-6.459637880E-1,9.389714241E0,8.014377594E0
4.443481562E0,-2.838114738E0,8.613252640E0,6.709307194E0
4.463481562E0,8.070402145E-1,3.805690527E0,3.165311575E0
4.483481562E0,3.300277948E0,2.208016068E-1,1.271856308E0
4.503481562E0,2.803731918E0,-2.888484955E0,4.953942597E-1
4.523481562E0,1.312539935E0,-5.110550880E0,2.522175312E-1
4.543481562E0,2.037322819E-1,-5.468151569E0,1.340412796E-1
4.563481562E0,-4.751658738E-1,-4.407270432E0,-3.241076320E-2
4.583481562E0,-9.560913444E-1,-2.473061800E0,-1.428202987E-1
4.603481562E0,-1.239445567E0,-3.630808294E-1,-1.562942266E-1
4.623481562E0,-1.352542877E0,1.116295099E0,-1.986010075E-1
4.645481562E0,-1.786972761E0,1.469671965E0,-1.816887707E-1
4.667490937E0,-2.809177160E0,-3.494847417E-1,-7.666532993E-1
4.689480000E0,-2.056922913E0,-2.753239393E0,-7.463027835E-1
4.709481562E0,-9.655161500E-1,-3.175329924E0,1.354375482E-1
4.729481562E0,-8.924566507E-1,9.988519549E-1,1.193822622E0
4.751480000E0,-6.898413897E-1,3.708213806E0,1.808946490E0
4.771480000E0,-5.642300248E-1,4.800161362E0,1.184886575E0
4.791480000E0,-3.428873718E-1,1.742536664E0,-7.028441131E-2
4.811480000E0,-1.203229949E-1,-4.376727104E0,-1.265381098E0
4.831480000E0,-1.865407825E-1,-4.935285091E0,-1.444574118E0
4.851480000E0,-7.452555895E-1,-3.528794050E0,-1.283480167E0
4.871480000E0,-1.185549855E0,-2.233689785E0,-1.145791173E0
4.891480000E0,-1.444731236E0,-1.235326529E0,-1.223702669E0
4.911480000E0,-1.189249873E0,-7.785390019E-1,-9.861633778E-1
4.931483125E0,-5.362349749E-1,-2.354449183E-1,-4.337492287E-1
4.953481562E0,-3.424161375E-1,7.066488862E-1,1.368338149E-2
4.973481562E0,-7.015176415E-1,1.672967911E0,1.036027446E-1
4.993481562E0,-1.094042182E0,2.549681664E0,-2.951351739E-2
5.013494062E0,-2.219535112E0,4.090231419E0,-4.676260650E-1
5.035480000E0,-2.184087515E0,3.788498878E0,-6.373418570E-1
5.055480000E0,-9.183049798E-1,1.640661836E0,-6.822666526E-1
5.075481562E0,-2.914001644E-1,1.519483626E-1,-1.065348983E0
5.095484687E0,-6.850941181E-1,-4.313930273E-1,-1.174100399E0
5.117480000E0,-1.305192113E0,-4.519704580E-1,-9.735621214E-1
5.137486250E0,-1.507248878E0,4.913625419E-1,-8.441459537E-1
5.159480000E0,5.876523629E-2,1.814915538E0,-1.004245043E0
5.179480000E0,1.177381635E0,1.795734406E0,-7.504915595E-1
5.199481562E0,9.893398881E-1,1.788578510E0,-4.052305520E-1
5.221481562E0,8.927533627E-1,2.486919612E-1,-7.047639787E-2
5.243481562E0,1.421815038E0,1.018050551E0,7.197737694E-2
5.263481562E0,2.652603865E0,1.428726554E0,9.961641431E-1
5.285481562E0,3.861209393E0,-3.129898906E-1,2.143316746E0
5.305481562E0,3.856217623E0,-3.148748398E0,3.098517895E0
5.327481562E0,3.325951815E0,-5.601233006E0,4.006036758E0
5.349481562E0,2.812231541E0,-4.091243744E0,3.994709492E0
5.371481562E0,6.914470792E-1,2.362669706E0,2.588305712E0
5.393481562E0,-1.112909198E0,7.808829784E0,1.574880362E0
5.413481562E0,8.581783772E-1,4.166397572E0,1.698153019E0
5.433481562E0,2.339840651E0,4.861440063E-1,1.518471360E0
5.455480000E0,1.429058075E0,-1.733757734E0,8.782497048E-2
5.475480000E0,3.451737761E-1,-3.053750277E0,-3.618591130E-1
5.495481562E0,-1.676214188E-1,-3.173549652E0,-9.880308807E-2
5.517480000E0,-2.343104482E-1,-2.657176495E0,2.548355162E-1
5.537481562E0,-1.094845012E-1,-1.997773647E0,5.023581386E-1
5.559480000E0,-1.250353903E-1,-1.133504033E0,5.592907667E-1
5.579480000E0,-3.585080802E-1,-3.419100121E-2,3.310191333E-1
5.599480000E0,-8.917410970E-1,8.087680936E-1,-4.064871743E-2
5.619480000E0,-2.586263895E0,-4.394738972E-1,-6.670299172E-1
5.639481562E0,-2.146650314E0,-5.606241703E0,-1.419005036E0
5.661480000E0,-1.069345832E0,-6.359683037E0,-1.542469621E0
5.681480000E0,3.619987369E-1,2.611623526E0,1.313709319E-1
5.701480000E0,-5.345943570E-2,3.104486942E0,1.051316500E0
5.721481562E0,-3.180164397E-1,7.485891581E-1,9.791122675E-1
5.741481562E0,-2.318320870E-1,-6.023654938E-1,2.792177796E-1
5.763481562E0,-8.103389144E-1,-2.176076412E0,-5.127602816E-1
5.783481562E0,-1.007386565E0,-2.424855709E0,-3.022910357E-1
5.803481562E0,-3.857875764E-1,-4.809254706E-1,-9.846972823E-1
5.823481562E0,-2.519382834E-1,-1.558387041E0,-1.824462533E0
5.845480000E0,-6.704507470E-1,-2.748230219E0,-1.849298477E0
5.865481562E0,-1.137623072E0,-3.089826107E0,-8.291186690E-1
5.885481562E0,-1.288663864E0,-2.336768866E0,1.451415867E-1
5.905481562E0,-1.490388989E0,-5.060232878E-1,4.837529063E-1
5.925481562E0,-2.001840353E0,1.921467900E0,-8.152432740E-2
5.945481562E0,-2.118690014E0,2.679551601E0,-4.758116603E-1
5.967481562E0,-2.135602236E0,2.805372477E0,-4.587597847E-1
5.989481562E0,-2.197090149E0,2.542159319E0,-4.383569062E-1
6.011481562E0,-1.180575609E0,1.597080946E0,-9.386380911E-1
6.031481562E0,-4.968254268E-1,8.709192872E-1,-1.156350493E0
6.053481562E0,-8.190481067E-1,8.535706997E-1,-1.013879180E0
6.073481562E0,-7.710689902E-1,1.253355861E0,-6.964910626E-1
6.095481562E0,4.939281847E-3,1.815631151E0,-6.774146557E-1
6.117480000E0,9.855524898E-1,1.435655475E0,-8.259770870E-1
6.137503437E0,6.538177729E-1,1.512641907E0,-7.225663066E-1
6.159480000E0,-7.454301417E-2,1.361601114E0,-3.602708578E-1
6.179480000E0,3.431317210E-1,1.099400401E0,-5.777040031E-3
6.199481562E0,1.565403223E0,2.395551682E0,6.545682549E-1
6.221481562E0,3.190147638E0,6.463652253E-1,1.551178813E0
6.241481562E0,3.824505091E0,-2.706202745E0,2.421871185E0
6.263481562E0,2.932362556E0,-3.657721519E0,3.477289200E0
6.283481562E0,2.437788725E0,-3.591049910E0,3.492072105E0
6.303481562E0,2.216376066E0,-2.380035639E0,2.618534803E0
6.323481562E0,1.278418779E0,1.111809611E0,1.686860681E0
6.343481562E0,-2.507165372E-1,4.983141899E0,1.318142414E0
6.365481562E0,-8.614945412E-2,3.761533499E0,1.509797096E0
6.387481562E0,1.357499599E0,-1.967160553E-1,1.391638279E0
6.409481562E0,1.227507472E0,-2.230321407E0,6.203773022E-1
6.431480000E0,5.144881606E-1,-3.248930454E0,2.595653534E-1
6.451480000E0,-2.705260366E-2,-3.887965202E0,4.284085035E-1
6.471480000E0,-3.538829684E-1,-4.041973114E0,8.042477369E-1
6.491480000E0,-5.914222598E-1,-3.077835798E0,1.137378693E0
6.511481562E0,-8.006697893E-1,-1.317950487E0,1.141480207E0
6.531481562E0,-1.097410679E0,2.793923020E-1,8.123285770E-1
6.553483125E0,-1.720231414E0,1.583868861E0,2.381501794E-1
6.575481562E0,-2.223235369E0,3.669205606E-1,-7.035771012E-1
6.597481562E0,-1.387955666E0,-2.605759144E0,-1.741576791E0
6.619480000E0,-9.027715325E-1,-4.462178707E0,-1.994893909E0
6.639480000E0,-3.691720366E-1,-7.548549175E-1,-7.588167787E-1
6.659480000E0,-1.500983089E-1,2.407821417E0,5.471083522E-1
6.679480000E0,-7.749261800E-3,2.232345819E0,1.034788251E0
6.699481562E0,-5.186420679E-1,9.223366976E-1,6.605023742E-1
6.721481562E0,-5.628512502E-1,-1.432374239E0,2.099281996E-1
6.743480000E0,-4.061730206E-1,-2.570084572E0,-5.111720562E-1
6.763481562E0,-8.113861084E-1,-2.064166069E0,-6.749188304E-1
6.783481562E0,-1.123381138E0,-3.886324763E-1,-9.551314116E-1
6.803481562E0,-1.299554706E0,3.177546561E-1,-1.432862997E0
6.823481562E0,-1.315157890E0,-1.076693609E-1,-1.356574655E0
6.843481562E0,-8.083492517E-1,-4.842241406E-1,-3.381401002E-1
6.863481562E0,-4.989896342E-2,-7.667754889E-1,4.128052592E-1
6.885480000E0,1.083151326E-1,-1.952674389E-1,1.830152273E-1
6.905484687E0,-2.485121965E0,-2.463357747E-1,-7.296872735E-1
6.927483125E0,-3.746279478E0,-3.045599461E-1,-9.112538695E-1
6.949480000E0,1.640435010E-1,9.468934536E-1,-4.078310728E-1
6.969480000E0,1.642145395E0,2.008908987E0,-2.833891213E-1
6.989480000E0,1.102943420E0,1.835405707E0,-4.314802885E-1
7.009480000E0,6.717772037E-2,1.141270757E0,-7.179237604E-1
7.029480000E0,-7.161784172E-1,3.109827638E-1,-8.390146494E-1
7.049480000E0,-1.049955130E0,-4.827755094E-1,-8.255581856E-1
7.069480000E0,-1.603591084E0,-1.251575649E-1,-9.469807148E-1
7.089480000E0,-2.175814629E0,1.342280388E0,-5.592907667E-1
7.109480000E0,-1.147047877E0,2.280639172E0,-3.380702734E-1
7.129481562E0,8.481776714E-1,1.560778141E0,-6.083519459E-1
7.151481562E0,1.533271790E0,4.456349015E-1,-7.480655909E-1
7.173481562E0,6.522818804E-1,3.533768058E-1,-7.665660381E-1
7.193481562E0,2.338043004E-1,5.799729005E-2,-6.754947901E-1
7.213481562E0,7.513642311E-1,-4.835609198E-1,-4.701218903E-1
7.233481562E0,1.272589326E0,-6.354743838E-1,-2.491632104E-1
7.253481562E0,1.671519279E0,-8.105483651E-1,-4.260348529E-2
7.273481562E0,2.755996943E0,-2.241770744E0,3.594331145E-1
7.293481562E0,3.534483671E0,-3.486679077E0,1.315541863E0
7.313481562E0,3.522336245E0,-3.747954845E0,2.372495890E0
7.333481562E0,3.172240734E0,-3.400006056E0,2.926690340E0
7.353481562E0,2.622252464E0,-9.745918512E-1,2.574133635E0
7.373481562E0,1.387397170E0,2.580870628E0,2.044635773E0
7.393481562E0,-1.612858772E-1,4.683434010E0,1.807934165E0
7.413481562E0,-6.403961778E-1,4.413257122E0,1.971244693E0
7.435481562E0,6.018767953E-1,1.372038245E0,2.133979082E0
7.457481562E0,4.191408157E-1,-1.249516129E0,1.402215004E0
7.479481562E0,-4.315675497E-1,-2.791933298E0,9.056687951E-1
7.501480000E0,-9.698794484E-1,-3.636358500E0,9.786235690E-1
7.521481562E0,-9.624269009E-1,-3.682522535E0,1.165391207E0
7.543481562E0,-7.204719186E-1,-3.064327002E0,1.109802485E0
7.563481562E0,-4.534016252E-1,-2.344238997E0,6.344969869E-1
7.583481562E0,-3.651228845E-1,-1.557200193E0,1.659982651E-1
7.603481562E0,-6.801548004E-1,-1.005449295E0,-2.546086311E-1
7.623481562E0,-1.485536933E0,-1.504595995E0,-6.341654062E-1
7.643481562E0,-1.785018086E0,-2.497251987E0,-9.129118919E-1
7.663481562E0,-1.393366098E0,-1.716234565E0,-1.426579714E0
7.683481562E0,-7.886793613E-1,-2.297202349E-1,-1.318090081E0
7.703481562E0,-5.184500813E-1,2.875290394E0,-5.602157712E-1
7.723481562E0,-1.390852928E-1,2.651312113E0,1.961750090E-1
7.743481562E0,2.117433399E-1,3.214320421E0,9.949249625E-1
7.765484687E0,1.910262853E-1,2.831883907E0,9.783966541E-1
7.787480000E0,-5.255186185E-2,-4.220817089E0,-3.553315699E-1
7.807481562E0,-1.075733662E0,-7.801080704E0,-5.655215979E-1
7.829480000E0,-1.521054387E0,-7.767954350E0,-2.313608378E-1
7.849480000E0,-1.533760428E0,-2.132233858E0,-3.913900852E-1
7.869480000E0,-1.029185772E0,2.099631071E0,-8.176518679E-1
7.889480000E0,-5.198637843E-1,3.088272810E0,-7.667056918E-1
7.909481562E0,-4.243942499E-1,2.403527737E0,-2.330538183E-1
7.929517500E0,-5.352750421E-1,1.388618827E0,8.829620481E-2
7.951480000E0,-3.933099508E-1,3.862413764E-1,-2.505420148E-1
7.971480000E0,-1.881639510E-1,-6.481280327E-1,-5.775643587E-1
7.991480000E0,-1.122368932E0,-8.488059640E-1,-1.085996270E0
8.011481562E0,-1.820901990E0,-1.356469840E-1,-1.089259982E0
8.031481562E0,-9.691813588E-1,-2.694788389E-2,-6.066066623E-1
8.051481562E0,-2.681698501E-1,-1.840624213E-1,-6.214419603E-1
8.073481562E0,-3.740589619E-1,-4.042880535E-1,-7.523590922E-1
8.093481562E0,-6.044424176E-1,-7.122164965E-1,-8.795237541E-1
8.115489375E0,-9.736842513E-1,-6.288246512E-1,-9.235584140E-1
8.137480000E0,-1.089347243E0,6.968924999E-1,-9.342398643E-1
8.157480000E0,-6.005677953E-2,1.604882598E0,-9.744521976E-1
8.177480000E0,8.546528220E-1,1.052590609E0,-7.372096181E-1
8.197480000E0,8.539546728E-1,3.991393447E-1,-4.120547771E-1
8.217480000E0,6.844483018E-1,3.412642181E-1,-2.664070427E-1
8.237481562E0,9.844704270E-1,2.597399056E-1,2.338741207E-3
8.259480000E0,1.356400132E0,3.974812925E-1,8.284554482E-1
8.279480000E0,1.965851545E0,-1.381951720E-1,1.854970813E0
8.299480000E0,2.756346226E0,-8.335692286E-1,2.436060667E0
8.319480000E0,2.930145979E0,-5.666735172E-1,2.667177200E0
8.339481562E0,2.451908350E0,4.750262499E-1,2.624015331E0
8.361480000E0,1.761019707E0,2.162096500E0,2.143735647E0
8.381480000E0,1.217646360E0,2.487355947E0,1.564460754E0
8.401480000E0,9.536129832E-1,1.744474053E0,1.102978230E0
8.421480000E0,6.554758549E-1,8.045269847E-1,6.484247446E-1
8.441480000E0,2.420946211E-1,1.111949235E-1,5.161985755E-1
8.461480000E0,-2.234894037E-1,-1.186649352E-1,7.685208321E-1
8.481480000E0,-5.414884090E-1,4.856553078E-1,1.150730491E0
8.501480000E0,-4.806113243E-1,1.407468438E0,1.266637802E0
8.521480000E0,-3.892782331E-1,1.243180513E0,1.010597944E0
8.541480000E0,-7.070153952E-1,-4.198040366E-1,7.082371712E-1
8.561480000E0,-1.203369617E0,-2.359143972E0,4.597371817E-1
8.581481562E0,-1.410191178E0,-3.194842577E0,1.289274693E-1
8.603481562E0,-1.382143736E0,-2.764566660E0,-2.749068141E-1
8.623481562E0,-1.371200442E0,-1.997023225E0,-4.061555564E-1
8.645481562E0,-1.576992273E0,-1.866664529E0,-5.084318519E-1
8.667481562E0,-1.663769960E0,-1.606401086E0,-7.509802580E-1
8.689480000E0,-1.504997373E0,2.581865549E0,-5.729741454E-1
8.709480000E0,-5.365665555E-1,4.979476929E0,-6.393141299E-2
8.729481562E0,4.318293631E-1,1.519588351E0,3.174055815E-1
8.751480000E0,3.342131078E-1,-3.405346870E0,-6.298892945E-2
8.771480000E0,4.153883457E-2,-5.344163418E0,-6.817430854E-1
8.791480000E0,1.889667958E-1,-6.188710690E0,-8.230798244E-1
8.811480000E0,-2.718350291E-1,-4.420517445E0,-2.861118317E-1
8.831480000E0,-1.071702003E0,-1.018033147E0,3.993836939E-1
8.851480000E0,-1.931695461E0,2.795493841E0,7.116230726E-1
8.871481562E0,-2.114239454E0,2.630403042E0,-1.396263391E-2
8.893481562E0,-1.115439907E-1,-7.312929630E-2,-1.316606522E0
8.913481562E0,8.110719323E-1,7.074692249E-1,-9.080249667E-1
8.933481562E0,6.833313107E-1,6.896494031E-1,-7.070153952E-1
8.953481562E0,1.683370024E-1,-5.746670961E-1,-7.310137153E-1
8.973481562E0,-2.032610476E-1,-1.596138477E0,-7.965508103E-1
8.993481562E0,-1.572471857E0,1.280687690E0,-1.247648597E0
9.013481562E0,-1.137762666E0,3.716696024E0,-6.459289193E-1
9.033481562E0,3.240203857E-1,2.607190371E0,1.469218135E-1
9.053481562E0,8.046491146E-1,1.099400401E0,1.807463020E-1
9.073481562E0,4.460363388E-1,2.602635026E-1,-1.794722080E-1
9.093481562E0,2.516764700E-1,-1.493129134E-1,-5.445950627E-1
9.113481562E0,6.541494280E-2,4.817108810E-2,-5.715429783E-1
9.135481562E0,-2.106612362E-2,8.071624041E-1,-3.664667904E-1
9.155481562E0,1.235169470E-1,1.485659122E0,-1.562942266E-1
9.177481562E0,2.504372895E-1,2.291023970E0,-2.494075522E-2
9.199481562E0,4.684987366E-1,2.641014814E0,-3.738495335E-2
9.221480000E0,9.896714687E-1,1.956357002E0,-1.398008764E-1
9.241480000E0,1.460299492E0,1.361112475E0,-1.192758009E-1
9.261480000E0,1.867938638E0,9.010960460E-1,6.272713095E-2
9.281480000E0,1.872965217E0,1.277197003E0,9.674359858E-2
9.301481562E0,1.290793180E0,3.245352507E0,1.774127185E-1
9.323481562E0,5.824163556E-1,5.220471859E0,4.738917947E-1
9.343481562E0,-2.168571651E-1,5.703823090E0,4.664392471E-1
9.363481562E0,-6.265732050E-1,3.119479418E0,-3.675663471E-2
9.383481562E0,6.056990623E-1,-9.998991340E-2,-4.108854234E-1
9.403481562E0,4.882733226E-1,5.816135406E-1,-5.456771851E-1
9.423481562E0,2.530029416E-1,8.321555257E-1,-6.530672908E-1
9.445480000E0,3.004758954E-1,7.616442442E-1,-8.697848320E-1
9.465480000E0,3.396759629E-1,1.427976012E0,-1.155547619E0
9.485481562E0,3.029018939E-1,2.449063540E0,-1.379612923E0
9.505481562E0,2.782927454E-1,3.115849018E0,-1.355614662E0
9.525481562E0,4.073249400E-1,2.730619907E0,-1.250301480E0
9.545481562E0,5.007349849E-1,2.263622284E0,-1.125144005E0
9.565481562E0,5.895547867E-1,2.841256380E0,-9.821840525E-1
9.585481562E0,3.453308344E-1,3.562670708E0,-5.730090737E-1
9.607480000E0,2.508038096E-2,3.072006464E0,1.404640973E-1
9.627480000E0,-1.635373533E-1,7.945960164E-1,2.858849242E-2
9.647480000E0,-3.205471635E-1,-6.134832501E-1,-1.614778638E-1
9.667481562E0,-5.646837950E-1,-9.583603144E-1,1.597848982E-1
9.689480000E0,-9.412560463E-1,-7.313976884E-1,-1.426108479E-1
9.709480000E0,-1.273549318E0,-1.958433986E-1,-4.250749350E-1
9.729484687E0,-1.252954364E0,-4.598419070E-1,-5.653121471E-1
9.751480000E0,-1.029971123E0,-1.096276164E0,-5.509131551E-1
9.771480000E0,-1.100971103E0,4.118977115E-3,-7.212921977E-1
9.791480000E0,-1.108528376E0,9.952740073E-1,-9.037140012E-1
9.811480000E0,-9.770527482E-1,1.355143428E0,-1.080323935E0
9.831480000E0,-8.494343162E-1,1.313814044E0,-9.839642644E-1
9.851480000E0,-8.430812955E-1,1.154046655E0,-7.122339606E-1
9.871480000E0,-8.769406676E-1,1.470963478E0,-5.222199559E-1
9.891480000E0,-7.742280364E-1,1.908849120E0,-5.331457257E-1
9.911480000E0,-5.024628639E-1,2.086942434E0,-3.750363588E-1
9.931480000E0,-3.109827638E-1,2.237337589E0,-3.352777660E-2
9.951481562E0,-4.573635161E-1,2.594135284E0,3.075095713E-1
9.973481562E0,-9.892002344E-1,3.008581161E0,6.914296150E-1
9.995481562E0,-1.428447247E0,3.070976734E0,9.240471125E-1
1.001548156E1,-1.663281322E0,2.477145910E0,9.571036696E-1
1.003748156E1,-1.753829002E0,1.999990225E0,7.378728390E-1
1.005748156E1,-9.614495039E-1,9.612924457E-1,7.644193172E-1
1.007948000E1,-4.476071298E-1,2.272069603E-1,1.217227578E0
1.009948000E1,6.707300246E-2,1.805944562E0,8.865399957E-1
1.011948000E1,1.913229972E-1,3.154909611E0,6.574829817E-1
1.013948156E1,3.111921996E-2,2.227197170E0,5.105262399E-1
1.016148000E1,-3.143512607E-1,9.316567332E-2,3.514569402E-1
1.018148156E1,-4.663694203E-1,-1.138827324E0,2.846632004E-1
1.020348156E1,-1.129629493E0,8.158715963E-1,2.646442652E-1
1.022548156E1,-9.284453392E-1,2.579404593E0,7.237182260E-1
1.024748156E1,5.227959156E-1,2.090712547E0,8.071100712E-1
1.026948156E1,7.630579472E-1,2.319490194E0,6.725277305E-1
1.029148000E1,-9.353219718E-2,2.445206165E0,5.146976113E-1
1.031148000E1,-4.313232303E-1,1.759099841E0,2.528109550E-1
1.033148000E1,-3.948632777E-1,1.082697511E0,1.041612476E-1
1.035148000E1,-4.916068912E-1,1.331843257E0,1.039343551E-1
1.037148156E1,-7.110122442E-1,2.067761421E0,3.133913279E-1
1.039348156E1,-6.383192539E-1,2.493063211E0,4.063650072E-1
1.041348156E1,-4.285132289E-1,2.345949411E0,4.136779308E-1
1.043348156E1,-4.415682852E-1,2.030323982E0,2.870194018E-1
1.045348156E1,-4.794244766E-1,2.106525183E0,1.728923172E-1
1.047348156E1,-3.900636435E-1,2.765160084E0,2.281145304E-1
1.049348156E1,-2.250951082E-1,3.381557941E0,3.757519424E-1
1.051348156E1,-1.228711754E-1,3.661159754E0,5.912477374E-1
1.053548156E1,5.542641878E-1,2.453985214E0,6.570117474E-1
1.055548156E1,1.523585200E0,1.050007582E0,5.398652554E-1
1.057748000E1,3.188035965E0,4.960225895E-2,1.968905926E-1
1.059748156E1,4.312342167E0,5.971295238E-1,-2.639636099E-1
1.061948000E1,4.551120758E0,1.523637533E0,2.388308495E-1
1.063948000E1,3.948405981E0,-2.158972323E-1,1.201135635E0
1.065948000E1,3.326911688E0,-1.883000851E0,1.460194826E0
1.067948000E1,2.287515879E0,-8.551938534E-1,5.622926950E-1
1.069948156E1,6.053500175E-1,5.988399029E0,9.768084288E-1
1.072148000E1,1.941504180E-1,9.534105301E0,2.091724634E0
1.074148000E1,4.047243893E-1,3.585901022E0,2.452850819E0
1.076148000E1,1.011959314E0,-4.926907539E0,1.418359280E0
1.078148000E1,1.084407926E0,-6.977861404E0,2.906845808E-1
1.080148156E1,5.851914287E-1,-7.166374207E0,-1.055400595E-1
1.082348156E1,2.531425655E-1,-6.690772057E0,-3.704984784E-1
1.084348156E1,1.301492006E-1,-5.376835823E0,-7.778932452E-1
1.086348156E1,-1.342158206E-2,-3.776246786E0,-9.867393374E-1
1.088548156E1,-3.524518013E-1,-3.214163542E0,-4.861963689E-1
1.090548156E1,-7.936710119E-1,-3.284500122E0,4.478514940E-2
1.092548156E1,7.439116836E-1,-8.125502586E0,-1.612614393E0
1.094548156E1,-1.883035749E-1,-9.820967674E0,-2.398466349E0
1.096748625E1,-7.849443555E-1,-3.419553757E0,-1.466931820E0
1.098948156E1,-2.936342061E-1,1.937507391E0,-5.270196199E-1
1.101149406E1,2.000670880E-1,3.630546570E0,-2.016029805E-1
1.103348156E1,-3.816685975E-1,-1.983392090E-1,-3.633950055E-1
1.105348313E1,-3.382517815E0,-3.316614151E0,3.457846344E-1
1.107548156E1,-4.836255074E0,-2.273640394E0,3.703937829E-1
1.109548938E1,-3.926886082E0,-1.955397129E0,2.934422195E-1
1.111748000E1,-1.675481200E0,-4.605382919E0,1.990268707E0
1.113748156E1,-9.837373495E-1,-5.097425938E0,3.391942739E0
1.115948000E1,-4.490837097E0,2.317762375E0,1.781736851E0
1.117948000E1,2.650649071E0,-2.277078629E0,-1.866088629E0
1.119948156E1,2.955086708E0,2.781880379E0,-1.491226792E0
1.122148000E1,4.999984264E0,3.065723181E0,-1.250441194E0
1.124148000E1,6.194906712E0,1.587254763E0,-3.567278385E-1
1.126148000E1,4.472406387E0,5.356363297E0,2.624975145E-1
1.128148000E1,2.303258657E0,8.287609100E0,1.750216186E-1
1.130148156E1,1.447715759E0,6.866509438E0,8.185594529E-2
1.132348156E1,4.026561737E0,6.639232486E-2,3.132517040E-1
1.134348156E1,3.707533121E0,-3.021967888E0,-2.357067168E-1
1.136548156E1,4.853760600E-1,-2.210319757E0,1.692096740E-1
1.138748156E1,-6.200281978E-1,5.272465348E-1,1.779398084E0
1.140948156E1,-1.265992045E0,-4.719021320E-1,2.560415506E0
1.143148000E1,-1.885548949E0,-4.598750591E0,1.935168743E0
1.145148000E1,1.180034518E0,-6.773361206E0,8.078430891E-1
1.147148000E1,-2.590278149E0,1.679390669E0,6.711488962E-1
1.149148000E1,-3.852657318E0,2.450075626E0,4.417428374E-2
1.151148156E1,-3.378206968E0,9.114981890E-1,-9.452702850E-2
1.153348156E1,-2.315144300E0,-1.389072657E0,5.654517412E-1
1.155348156E1,-1.875618100E0,-1.788438916E0,-1.328544617E-1
1.157348156E1,-1.867868781E0,2.431313515E0,-1.211782098E-1
1.159348156E1,1.433194518E0,1.090342045E0,-5.815437064E-2
1.161348156E1,1.298699498E0,-1.007054925E0,-1.466251165E-1
1.163348156E1,6.061702967E-1,-1.239637494E0,-5.703561306E-1
1.165348156E1,8.569391966E-1,-2.419026345E-1,-9.969844222E-1
1.167548000E1,-1.727875881E-2,2.078145981E0,-1.519658118E-1
1.169548625E1,-9.607514143E-1,2.475993872E0,1.208099484E0
1.171748156E1,-6.897715926E-1,1.533446312E0,1.633977294E0
1.173749875E1,3.184178770E-1,1.045609355E0,1.412634611E0
1.175948000E1,1.342472315E0,1.600990444E-1,6.424731612E-1
1.177948156E1,1.060322404E0,-1.073150635E0,-2.703514993E-1
1.180148156E1,2.802824378E-1,-2.174715042E0,-1.322069407E0
1.182348156E1,-9.288467765E-1,-3.140597820E0,-1.786309600E0
1.184348156E1,-1.209216475E0,-1.179043198E1,-2.517218590E0
1.186548156E1,-1.902461290E0,-7.775249958E0,-1.940910816E0
1.188748000E1,-1.271332741E0,-2.189096689E0,-2.018909693E0
1.190748000E1,-7.039785385E-1,6.276518345E0,-1.109453440E0
1.192748156E1,-3.172659576E-1,8.378313065E0,1.633453608E0
1.194948000E1,-6.673440933E0,1.638279533E1,-4.794244766E-1
1.196948000E1,-1.383923888E0,7.127575397E0,9.452005029E-1
1.198948156E1,1.183612466E0,-1.714419484E0,1.610432744E0
1.201148156E1,6.240424514E-1,-5.015500069E0,4.383219779E-1
1.203148156E1,-3.356128454E0,1.289100170E0,-2.097170115E0
1.205348156E1,-3.053121805E0,1.715152502E0,-1.885077715E0
1.207348156E1,-1.653437614E0,4.526808262E0,4.816061556E-1
1.209348156E1,9.356535673E-1,1.054381275E1,3.821747541E0
1.211348938E1,3.959523678E0,-9.779080003E-2,6.154746532E0
1.213548000E1,4.137669563E0,-2.736624002E0,7.184665203E0
1.215548156E1,4.485478878E0,2.234771967E0,5.974575996E0
1.217748000E1,5.016024113E0,1.429895878E0,4.850444317E0
1.219748000E1,4.361839771E0,5.229093552E0,5.363100052E0
1.221748000E1,4.484972656E-1,3.445716381E0,5.764491081E0
1.223748000E1,4.400271893E0,7.208611012E0,5.347392082E0
1.225748000E1,3.352114201E0,3.166899920E0,3.347541571E0
1.227748156E1,1.050461292E0,-3.510241032E0,1.794896573E-1
1.229948000E1,-1.439599872E0,-5.787668705E0,-3.332339764E0
1.231948000E1,-1.484594464E0,-4.500959873E0,-4.165088654E0
1.233948156E1,2.691088200E0,-4.597825527E0,-2.111900806E0
1.236148000E1,-2.697441339E0,-1.456128210E-1,-7.686080933E-1
1.238148000E1,-7.830471992E0,2.859914064E0,-2.519906461E-1
1.240148000E1,-8.623881340E0,-3.869726658E0,-1.063394189E0
1.242148000E1,3.173357546E-1,-1.809923887E0,-2.493918419E0
1.244148156E1,2.883336306E0,7.643477440E0,-1.375563741E0
1.246348156E1,5.884552002E-1,-3.404945374E0,-4.527087212E0
1.248548000E1,3.225019276E-1,3.638575077E0,-4.574019432E0
1.250548156E1,1.377378941E0,1.679216146E0,1.095455885E0
1.252748156E1,3.208491087E0,-1.948983002E1,5.601931095E0
1.254748156E1,2.911156893E0,-1.541851807E1,3.309039593E0
1.256948156E1,2.787116170E-1,-1.054037476E1,1.552365661E0
1.259148156E1,-2.489467859E0,-6.598443985E0,1.507842302E0
1.261348156E1,-6.639598846E0,-1.762852311E0,2.004475832E0
1.263348156E1,-9.396015167E0,5.539134026E0,1.016898632E0
1.265348156E1,-8.131244659E0,1.236579704E1,-1.856646299E0
1.267548000E1,1.312705803E1,-2.545686531E1,-8.038986325E-1
1.269548312E1,1.401724529E1,-2.212829590E1,-2.760569811E0
1.271748156E1,-3.368747234E0,-1.523166275E1,-4.015147209E0
1.273748156E1,-1.362983418E1,-2.322527170E0,1.773446441E0
1.275948000E1,-1.157449961E0,7.404349804E0,6.468818665E0
1.277948000E1,-2.228366613E0,1.143997002E1,2.744338274E0
1.279948000E1,-2.796366453E0,3.349182129E0,2.597939968E0
1.281948000E1,-4.388979435E0,-3.866218328E0,5.140238762E0
1.283948156E1,-5.719182014E0,-1.899145126E0,5.469477654E0
1.286148000E1,-8.279981613E0,6.824202538E0,2.452048063E0
1.288148000E1,-2.248385429E0,2.092614889E0,-1.837133616E-1
1.290148000E1,1.046673954E-1,-5.249653816E0,-1.882302642E0
1.292148000E1,-1.216354847E0,-7.732890606E0,-2.038247824E0
1.294148156E1,1.145337462E0,-1.508236694E1,-3.020781040E0
1.296348000E1,6.674243927E0,-1.021319580E1,-3.067765236E0
1.298348156E1,8.772775650E0,-1.033583999E0,-1.996935964E0
1.300348156E1,8.611436844E0,3.601399660E0,-1.776745170E-2
1.302348156E1,4.703208447E0,6.240284920E0,1.635722518E0
1.304348156E1,6.135687351E0,1.323430777E0,1.173262715E0
1.306348156E1,9.498448372E0,4.471812725E0,1.200908661E0
1.308348156E1,7.558113575E0,2.875813961E0,2.135794401E0
1.310348156E1,5.349172115E0,-3.191229820E0,2.099090099E0
1.312348156E1,4.376133919E0,-8.688475609E0,9.417971373E-1
1.314348156E1,3.371155739E0,-9.256196976E0,-7.478212118E-1
1.316348156E1,1.101686716E0,-2.265175581E0,-2.758056641E0
1.318348156E1,-2.374241114E0,7.355480671E0,-3.018773794E0
1.320548000E1,-3.337820053E0,8.552811623E0,-1.030250430E0
1.322548156E1,-4.331383705E-1,2.106612444E0,1.914364338E0
1.324748156E1,-2.119580269E0,-1.330289990E-1,2.311531544E0
1.326948156E1,-8.151036263E0,7.817469120E0,2.245191485E-1
1.329148000E1,-1.180458641E1,1.271409512E1,-2.383002758E0
1.331148156E1,-8.719804764E0,9.724032402E0,-3.269821882E0
1.333150344E1,-2.981930017E0,1.747074537E-2,-2.026013136E0
1.335348156E1,4.273962379E-1,-3.265860081E-1,-3.552443087E-1
1.337348156E1,2.671208858E0,7.561691284E0,-2.971073985E-1
1.339548000E1,9.791122675E-1,1.203654099E1,-2.585583210E0
1.341548000E1,-2.156197309E0,-1.352577806E0,-6.966219902E0
1.343548156E1,-1.106613827E1,2.668259442E-1,-5.703561306E0
1.345748156E1,-8.273558617E-1,2.633375549E1,-3.501130342E-1
1.347948000E1,-9.546951056E-1,-6.724317074E0,2.574238539E0
1.349948000E1,1.790358782E0,-1.132277107E1,4.211898327E0
1.351948781E1,4.870463371E0,-5.420504093E0,6.584795475E0
1.354148000E1,3.810716867E0,1.125667572E0,9.751451492E0
1.356148000E1,1.846628189E0,3.368886948E0,1.340828228E1
1.358148156E1,-1.428464770E0,9.690713882E0,1.543441772E1
1.360148156E1,8.398524672E-2,1.721985435E1,8.117822647E0
1.362348156E1,2.545265913E0,-9.496789932E0,2.857767105E0
1.364548156E1,5.083201408E0,-1.438102436E1,2.892708778E-1
1.366748156E1,3.256731987E0,-1.678088760E1,-2.631223440E0
1.368748156E1,-2.367504120E0,-1.691536522E1,-5.848126888E0
1.370948000E1,-9.327563286E0,-1.121094799E1,-5.788105011E0
1.372948000E1,-5.222095013E0,-1.235082269E0,-4.535080910E0
1.374948000E1,1.607936978E0,9.885439873E0,-2.083207607E0
1.376948156E1,1.072869587E1,2.874534607E1,3.610091448E0
1.379148000E1,-9.031904340E-1,9.012863159E0,3.093910217E0
1.381148000E1,1.341460049E-1,-5.510510445E0,1.322470903E0
1.383148000E1,-6.997897625E-1,-1.324776459E1,-1.628217697E-1
1.385148000E1,-4.245548248E0,-1.802232170E1,-1.655758977E0
1.387148156E1,-6.146019936E0,-1.616888809E1,-6.405881643E-1
1.389348156E1,-5.054473400E0,-7.126441002E0,-1.065087199E0
1.391348156E1,-1.657870770E0,6.094864368E0,-4.285778046E0
1.393348156E1,-6.439566612E-1,1.459767246E1,-1.356801510E0
1.395348156E1,-1.252762437E0,1.390994263E1,-4.808381945E-2
1.397348156E1,-1.445499182E0,7.626600266E0,-1.916371465E0
1.399348156E1,-7.863545895E0,3.336772919E0,-5.888793468E0
1.401348156E1,-2.852409124E0,-9.157690048E0,-5.527178288E0
1.403548156E1,-3.127961636E0,-5.156924129E-1,-4.688670158E0
1.405748000E1,-4.898615479E-1,-3.575359344E0,-3.581590056E-1
1.407748000E1,1.513811350E0,-3.066892624E-1,1.408114195E0
1.409748156E1,2.069018126E0,9.095259905E-1,2.246762276E0
1.411748156E1,2.271074772E0,-1.267143965E0,2.699099302E0
1.413750812E1,2.563382626E0,-4.304470539E0,4.111541748E0
1.415948000E1,1.301753759E0,1.594724774E0,8.843530655E0
1.417948000E1,-1.896649301E-1,6.567342281E0,1.098168182E1
1.419948156E1,2.806402206E0,8.449453354E0,6.717073917E0
1.422148000E1,1.444574118E0,4.865244865E0,3.819269180E0
1.424148000E1,7.485716790E-2,-2.884505689E-1,2.457580566E0
1.426148000E1,1.585980654E0,-1.494892001E0,2.127189875E0
1.428148000E1,2.134624958E0,-3.054640293E0,1.326328039E0
1.430148156E1,2.227336884E0,-2.312596083E0,2.117957026E-1
1.432348781E1,1.821704865E0,3.965387940E-1,-1.411081195E0
1.434548156E1,8.257676363E-1,3.490483999E0,-2.752942801E0
1.436548156E1,-1.277930021E0,6.024370193E0,-4.415333748E0
1.438748156E1,-3.835413456E0,6.242606163E0,-6.168011189E0
1.440948000E1,-2.827415943E0,1.305802941E0,-5.137324333E0
1.442948000E1,-1.888690591E0,-3.365832567E0,-5.188008785E0
1.444948000E1,-1.810220599E0,-3.684773922E0,-4.172663212E0
1.446948000E1,-1.635425806E0,-2.418991327E0,-2.781548738E0
1.448948156E1,-1.144569516E0,-2.487862110E0,-1.593398333E0
1.451148156E1,1.939706564E0,2.751057863E0,2.440441608E0
1.453348156E1,2.541600704E0,1.659267068E0,4.665055752E0
1.455348156E1,2.251073360E0,5.594129086E0,7.624819875E-1
1.457348156E1,6.555980444E-1,6.354097843E0,-1.461887717E0
1.459348156E1,-5.796971321E0,1.224121571E1,-2.834100485E0
1.461348156E1,-2.277183533E0,1.271252441E1,-2.178258181E0
1.463348156E1,2.429271460E0,-1.017771244E0,9.959895611E-1
1.465348156E1,2.761931181E0,-4.769391537E0,1.928449154E0
1.467348156E1,1.400853634E0,2.099892855E0,1.155041456E0
1.469348156E1,2.075283766E0,3.967063665E0,2.151100874E0
1.471548156E1,2.362565041E0,4.945180893E0,2.580434322E0
1.473751594E1,3.099669933E0,1.922340512E0,2.673879385E0
1.475948000E1,3.706817627E0,1.825265288E-1,2.645657301E0
1.477948000E1,3.464984655E0,1.172267795E0,2.894401550E0
1.479948000E1,2.488385677E0,3.055757284E0,3.457602024E0
1.481948000E1,7.489382029E-1,5.659194946E0,4.838017941E0
1.483948156E1,-8.132885098E-1,6.837030411E0,6.900787354E0
1.486148000E1,1.879806876E0,3.466677666E0,4.355120182E0
1.488148000E1,2.515508175E0,-2.995089769E0,1.273427129E0
1.490148000E1,2.029032469E0,-4.017049789E0,7.230899334E-1
1.492148000E1,1.658202410E0,-2.668399096E0,-1.286831200E-1
1.494148156E1,7.365463972E-1,-7.968824506E-1,-8.199207783E-1
1.496348000E1,-3.812671602E-1,7.825707197E-1,-1.385913610E0
1.498348156E1,-6.191555262E-1,2.507514656E-1,-2.024826288E0
1.500548156E1,-4.715879560E-1,-9.184795022E-1,-2.554812908E0
1.502748156E1,-1.120815516E0,1.785908103E0,-2.868553400E0
1.504948000E1,-2.058982372E0,4.594142914E0,-2.750708818E0
1.506948000E1,-9.635788202E-1,-4.118977115E-2,-1.898394585E0
1.508948000E1,-5.159018636E-1,-2.876337528E0,-8.727868199E-1
1.510948000E1,-2.616946697E-1,-4.461061582E-2,-3.002489805E-1
1.512948156E1,-6.164503098E-1,-4.197516665E-2,-9.637708217E-2
1.515148000E1,-6.216164827E-1,3.680026829E-1,-6.300812960E-1
1.517148000E1,-6.254910827E-1,1.234296799E0,-1.923824072E0
1.519148000E1,-6.177243590E-1,1.728818417E0,-3.066019773E0
1.521148156E1,-6.043202281E-1,1.592246413E0,-3.268687487E0
1.523148156E1,-6.855653524E-1,1.014647126E0,-2.524461746E0
1.525348156E1,-2.843839526E-1,2.404191047E-1,-1.645252109E0
1.527348156E1,1.696460098E-1,-6.118600965E-1,-1.706582904E0
1.529348156E1,-1.534318924E-1,-1.384761691E0,-2.110993147E0
1.531348156E1,-1.055522799E0,-5.594129562E-1,-2.130645514E0
1.533348156E1,-2.137993336E0,2.344343662E0,-1.907767057E0
1.535348156E1,-2.237302542E0,4.722249985E0,-1.289763451E0
1.537348156E1,-1.744055152E0,5.702880859E0,-3.787015378E-1
1.539548000E1,-1.096188903E0,4.712930202E0,-1.182635128E-1
1.541548000E1,-1.096974373E0,6.842109680E0,-4.851666093E-1
1.543548156E1,-5.669353008E-1,1.018877792E1,3.733782768E-1
1.545748156E1,1.674067497E0,9.732148170E0,1.090708613E0
1.547748156E1,3.057153702E0,9.302255630E0,1.705867410E0
1.549748156E1,1.175880671E0,3.884317398E0,2.193075895E0
1.551748156E1,1.726566911E0,-8.311606646E-1,3.017848730E0
1.553748156E1,2.353681326E0,-6.999119520E-1,4.640463829E0
1.555948156E1,2.101516008E0,1.289152503E0,7.140211582E0
1.558148000E1,1.571232677E0,-2.989400029E-1,7.717898369E0
1.560148156E1,-4.128750861E-1,1.737667203E0,6.286344528E0
1.562148156E1,-4.923748374E-1,3.448142290E0,3.368241072E0
1.564148156E1,1.186998412E-1,2.012818336E0,1.492361188E0
1.566348156E1,1.673945338E-1,-2.738421559E-1,1.353328347E0
1.568348156E1,4.513421282E-2,-2.520464897E0,1.184188485E0
1.570348156E1,1.901187152E-1,-3.525128841E0,8.428369164E-1
1.572348156E1,3.435331583E-1,-3.326004028E0,6.818826795E-1
1.574348156E1,3.503573835E-1,-2.403754711E0,6.876597404E-1
1.576348156E1,4.115486518E-2,-1.237490773E0,6.623349786E-1
1.578348156E1,-1.002342552E-1,-2.265262902E-1,5.474050641E-1
1.580348156E1,-3.613180518E-1,-6.997722983E-1,1.643052995E-1
1.582348156E1,-4.559149146E-1,-7.206813693E-1,-3.956137896E-1
1.584348156E1,-4.381474555E-1,-1.081493258E0,-8.822290301E-1
1.586348156E1,-2.032593012E0,-5.606957436E0,-2.232764721E0
1.588348156E1,-1.287023187E0,-5.902371883E0,-2.895448923E0
1.590348156E1,-9.437693357E-1,-3.762860060E0,-1.843067646E0
1.592548156E1,-9.924291372E-1,4.741849899E0,9.437170029E-1
1.594548156E1,-8.283507228E-1,5.611896515E0,1.668656945E0
1.596748313E1,-1.339749694E0,-2.780519009E0,5.009967685E-1
1.598948156E1,5.086238384E-1,-3.698806524E0,-1.364219189E0
1.601148156E1,1.979988813E0,-2.664419651E0,-2.025140524E0
1.603348000E1,1.518366575E0,2.799857259E-1,-1.595614910E0
1.605348156E1,-4.338190258E-1,2.007215977E0,-1.109261513E0
1.607348156E1,-2.072054863E0,2.361919165E0,-1.402686238E0
1.609548000E1,-2.541845083E0,1.578091741E0,-1.800673604E0
1.611548156E1,-2.109090805E0,5.492551327E-1,-8.437968493E-1
1.613750812E1,-1.522747397E0,-8.300611377E-1,1.977632642E-1
1.615948000E1,-2.222746611E0,-1.147135139E0,-4.224045873E-1
1.617948000E1,-1.440908909E0,9.771051407E-1,-1.051124573E0
1.619948156E1,-8.011060953E-2,2.899009228E0,-1.115247965E0
1.622148781E1,1.077601194E0,3.203534365E0,-1.002656698E0
1.624348156E1,1.127220869E0,2.476255655E0,-1.307827592E0
1.626348156E1,1.779188663E-1,8.372169733E-1,-1.702394128E0
1.628348156E1,-1.028766870E0,-6.916390657E-1,-1.706740022E0
1.630348156E1,-2.226848125E0,2.264913768E-1,-1.670419693E0
1.632548000E1,-2.143526077E0,2.228907585E0,-1.233965278E0
1.634548156E1,-1.037004828E0,3.031706810E0,-4.733507335E-1
1.636548156E1,-5.548401549E-2,4.055167675E0,2.748195529E-1
1.638748156E1,1.465727538E-1,5.456021309E0,8.744448423E-1
1.640948000E1,2.980498672E-1,6.246393681E0,5.791525841E-1
1.642948000E1,1.227891445E0,7.267865181E0,7.489905953E-1
1.644948000E1,3.037029982E0,3.808692455E0,1.564408422E0
1.646948000E1,2.814832211E0,-1.000719428E0,2.237529516E0
1.648948156E1,2.189114094E0,-2.269155025E0,2.876110554E0
1.651148156E1,2.037602186E0,-2.522070646E0,3.904685497E0
1.653148156E1,1.778909326E0,-3.580490589E0,5.282780170E0
1.655348156E1,1.114916325E0,-2.425327063E0,5.617132664E0
1.657348156E1,1.953721493E-1,8.243888021E-1,4.253053188E0
1.659348156E1,4.940852523E-1,2.657542944E0,2.326995134E0
1.661348156E1,1.105439186E0,3.633182049E0,8.799077272E-1
1.663348156E1,1.236461043E0,1.772975206E0,3.743382096E-1
1.665348156E1,9.704205394E-1,-6.057688594E-1,7.709293962E-1
1.667348156E1,3.733608425E-1,-2.138464689E0,9.789726138E-1
1.669348156E1,-7.590436935E-2,-2.943811893E0,8.655611277E-1
1.671548156E1,-3.424336016E-1,-2.934369802E0,6.870139241E-1
1.673548156E1,-3.962246478E-1,-2.635865927E0,5.971295238E-1
1.675548156E1,-4.100651145E-1,-2.064200878E0,3.760137260E-1
1.677748000E1,-6.928607821E-1,-5.399874449E-1,-2.527236752E-2
1.679748000E1,-1.169859290E0,1.079870105E0,-3.910759389E-1
1.681748156E1,-2.240985394E0,7.677703500E-1,-6.606070995E-1
1.683748156E1,-2.918661833E0,-5.023179531E0,-2.075371027E0
1.685948000E1,-1.783255219E0,-5.605212212E0,-3.074519634E0
1.687948000E1,-1.304755807E0,-1.970790863E0,-2.221472502E0
1.689948000E1,-9.377828836E-1,2.162811995E0,5.019741654E-1
1.691948156E1,-9.981014132E-1,5.994176388E0,1.310462952E0
1.694148156E1,-8.081398010E-1,3.399011135E0,1.196789742E0
1.696348000E1,-2.116909772E-1,-1.014839172E0,2.730044127E-1
1.698348156E1,-6.771702766E-1,-6.455065250E0,-1.101983428E0
1.700348156E1,6.128200293E-1,-2.111272335E0,-1.959795356E0
1.702348156E1,4.614126980E-1,1.840938330E0,-1.729167461E0
1.704348156E1,-8.342848420E-1,3.135536432E0,-2.018229008E0
1.706348156E1,-1.656090617E0,2.585775137E0,-2.124973297E0
1.708348156E1,-1.579435706E0,1.059589386E-1,-1.202566743E0
1.710548000E1,-7.320783734E-1,-1.727771282E0,-2.116211653E-1
1.712548000E1,-1.535366178E-1,-2.107554913E0,7.293730974E-2
1.714548156E1,-9.492147565E-1,-6.167470217E-1,-3.157300651E-1
1.716748000E1,-3.179797888E0,4.657149315E0,-1.079957366E0
1.718748156E1,-1.430803418E0,4.222282887E0,-5.356240869E-1
1.720948000E1,3.841120601E-1,2.237093210E0,-3.950552642E-1
1.722948000E1,7.009067535E-1,1.716932774E0,-7.686255574E-1
1.724948000E1,-2.900911868E-1,1.972850323E0,-1.419947505E0
1.726948156E1,-8.141262531E-1,1.209094286E0,-1.192321658E0
1.729148000E1,-1.399911165E0,1.001557231E0,-4.483401775E-1
1.731148156E1,-1.351181507E0,1.914678574E0,-3.132691383E-1
1.733348156E1,1.357866172E-2,2.730550051E0,-9.734399319E-1
1.735348156E1,7.836004496E-1,2.736292362E0,-7.044149041E-1
1.737348156E1,5.451710224E-1,2.467720985E0,2.940879762E-2
1.739348156E1,5.586100817E-1,2.254895687E0,5.642474890E-1
1.741348156E1,1.729760885E0,3.143809319E0,1.053934574E0
1.743348156E1,3.270537615E0,2.106490135E0,1.986167192E0
1.745348156E1,3.384455204E0,2.428276539E-1,2.663843632E0
1.747348156E1,2.698662996E0,-1.113397837E0,3.617142439E0
1.749348156E1,2.200720549E0,-2.696498871E0,4.452491760E0
1.751548156E1,1.531334400E0,-3.397806883E0,5.096012115E0
1.753749875E1,3.000919223E-1,-3.254515529E-1,4.537070751E0
1.755948156E1,4.057715833E-1,2.490357876E0,2.575215816E0
1.758148000E1,1.419685721E0,4.121839523E0,6.086486578E-1
1.760148000E1,1.708083868E0,2.816909075E0,3.461162448E-1
1.762148000E1,1.209513187E0,3.670776486E-1,6.230999827E-1
1.764148000E1,4.195422530E-1,-1.706146598E0,6.883927584E-1
1.766148156E1,-6.588617712E-2,-2.965960264E0,7.222870588E-1
1.768348156E1,-3.358536959E-1,-3.223762751E0,7.180982828E-1
1.770348156E1,-4.348662496E-1,-2.672343493E0,6.446897388E-1
1.772348156E1,-4.555833042E-1,-2.036502600E0,4.952022731E-1
1.774348156E1,-5.233893394E-1,-1.255048752E0,2.541024983E-1
1.776348156E1,-9.585871696E-1,-3.651228920E-2,-1.451241225E-1
1.778348156E1,-1.759920239E0,4.498237073E-1,-5.929581523E-1
1.780348156E1,-3.409168959E0,-1.778089046E0,-1.637607574E0
1.782548000E1,-2.462170839E0,-6.628341675E0,-2.707040548E0
1.784548000E1,-1.124218941E0,-4.226751328E0,-2.417019129E0
1.786548156E1,-5.965186357E-1,1.613295078E0,2.241700888E-1
1.788748156E1,-6.362074018E-1,5.211378574E0,1.487334728E0
1.790948000E1,-7.246432304E-1,3.755896091E0,1.201728940E0
1.792950031E1,-6.108477712E-1,8.060628772E-1,8.806931227E-2
1.795148156E1,-6.599962711E-1,-1.823170900E0,-1.429127932E0
1.797348156E1,-6.177418232E-1,-8.470379829E0,-2.514635563E0
1.799348156E1,-4.569271952E-2,-3.135134935E0,-2.284129858E0
1.801348156E1,-7.362671494E-1,9.153553843E-1,-1.729341984E0
1.803348156E1,-1.455255508E0,1.848932028E0,-1.898831010E0
1.805348156E1,-1.825335145E0,1.155111313E0,-1.593572855E0
1.807348156E1,-1.399387479E0,2.555860281E-1,-6.802769899E-1
1.809348156E1,-4.049862027E-1,-3.928910792E-1,6.138322875E-2
1.811348156E1,1.066570729E-1,-2.998824716E-1,2.353227437E-1
1.813348156E1,-2.431313515E0,4.431373596E0,-4.724257290E-1
1.815348156E1,-2.066452265E0,6.390261173E0,-4.338364899E-1
1.817348156E1,-4.691095948E-1,3.498198271E0,5.981243402E-2
1.819348156E1,4.928111732E-1,1.241155982E0,-2.379581928E-1
1.821348156E1,-3.169517964E-2,-4.359832406E-2,-9.200153947E-1
1.823348156E1,-7.608937621E-1,-5.443507433E-1,-1.158340096E0
1.825348156E1,-9.795835018E-1,-1.938188076E-1,-8.577595353E-1
1.827348156E1,-1.522293568E0,8.064642549E-1,-6.180036068E-1
1.829348156E1,-1.387030602E0,2.358026981E0,-6.524738669E-1
1.831348156E1,-1.885130107E-1,3.366094351E0,-1.028731942E0
1.833348156E1,8.356810808E-1,2.870333672E0,-6.692988873E-1
1.835348156E1,7.517307401E-1,2.014755726E0,-1.646369100E-1
1.837348156E1,4.765272439E-1,1.229497194E0,8.250171691E-2
1.839348156E1,9.685006738E-1,1.521682739E0,3.183131516E-1
1.841348156E1,2.016099691E0,2.088879824E0,1.240998864E0
1.843348156E1,3.115430117E0,6.196616888E-1,2.168885708E0
1.845348156E1,3.341118574E0,-1.522590280E0,3.299667120E0
1.847348156E1,2.687353134E0,-2.791374922E0,4.704552650E0
1.849348156E1,2.124379873E0,-3.436064482E0,5.100148678E0
1.851348156E1,1.825021029E0,-2.902622223E0,4.578504562E0
1.853348156E1,5.537231565E-1,5.570043921E-1,3.552443266E0
1.855348156E1,-4.614650458E-2,3.893585205E0,1.460735917E0
1.857348156E1,6.089104414E-1,5.523233891E0,3.076666296E-1
1.859348156E1,1.688815475E0,2.438486814E0,8.233940005E-1
1.861348156E1,1.574199677E0,-5.790304542E-1,1.200053453E0
1.863348156E1,7.253239155E-1,-2.639339209E0,8.726122379E-1
1.865348156E1,-4.742059484E-2,-3.880303144E0,5.442634821E-1
1.867348156E1,-4.285481572E-1,-3.909450293E0,3.952472508E-1
1.869348156E1,-6.545159221E-1,-3.140231371E0,2.754653096E-1
1.871548156E1,-7.542440295E-1,-1.642337322E0,2.508037984E-1
1.873748156E1,-9.608735442E-1,6.232570857E-2,2.054601610E-1
1.875948000E1,-1.724193335E0,1.368111253E0,-1.161167547E-1
1.877948000E1,-2.661417723E0,1.337445825E-1,-8.456120491E-1
1.879948000E1,-1.729691148E0,-4.958305836E0,-2.418205976E0
1.881948000E1,-1.573257208E0,-4.680920601E0,-3.389516592E0
1.883948000E1,-7.360926270E-1,-1.345526695E0,-2.272436142E0
1.885948000E1,-3.538655043E-1,3.307119608E0,6.504144073E-1
1.887948000E1,-5.640205741E-1,6.825529099E0,1.528751373E0
1.889948000E1,-6.180909276E-1,3.768898964E0,8.358905315E-1
1.891948156E1,-2.022487521E-1,-6.761754751E-1,3.149272203E-1
1.894148156E1,-1.203160167E0,-8.075847626E0,-5.256757140E-1
1.896348000E1,-2.380978167E-1,-3.703693390E0,-1.249760509E0
1.898348156E1,-4.827406108E-1,-1.355946362E-1,-1.503199697E0
1.900348156E1,-1.077025175E0,1.877031803E0,-1.782138228E0
1.902348156E1,-1.281019330E0,1.833066940E0,-1.423752308E0
1.904348156E1,-9.718865752E-1,5.262167454E-1,-3.548079729E-1
1.906348156E1,-3.988077343E-1,-3.607595563E-1,6.328564137E-2
1.908348156E1,-1.195550561E-1,-6.538003087E-1,-4.080579802E-2
1.910348156E1,-2.448173285E0,8.247902393E-1,-9.185318947E-1
1.912348156E1,-3.651665211E0,3.325969219E0,-1.107114673E0
1.914348156E1,-1.498731732E0,2.998440742E0,-2.904925942E-1
1.916348156E1,6.721437573E-1,1.115055919E0,-2.902482450E-2
1.918348156E1,1.012221098E0,3.145606816E-1,-5.173679590E-1
1.920548000E1,-1.105666086E-1,9.883799404E-2,-1.214592099E0
1.922548156E1,-7.976503968E-1,-2.608568966E-1,-1.143679380E0
1.924748156E1,-1.275399327E0,-2.793399394E-1,-9.060876966E-1
1.926948000E1,-1.523951650E0,4.489336014E-1,-7.972838283E-1
1.928948156E1,-9.438915253E-1,1.802977443E0,-1.062399387E0
1.931148156E1,2.498089820E-1,2.495087862E0,-9.775763750E-1
1.933348156E1,6.900683045E-1,1.968190312E0,-3.522074521E-1
1.935348156E1,7.581884861E-1,7.232644558E-1,-3.071779385E-3
1.937348156E1,1.041682363E0,1.143539697E-1,1.881464869E-1
1.939348156E1,1.474105120E0,1.101320267E0,8.183499575E-1
1.941348156E1,2.668992281E0,8.281063437E-1,1.477002382E0
1.943348156E1,3.468196154E0,-9.113062024E-1,2.297708511E0
1.945348156E1,3.409535646E0,-2.627156734E0,3.264394045E0
1.947348156E1,3.090314865E0,-4.372486115E0,3.894213438E0
1.949348156E1,2.613037109E0,-3.773052692E0,3.918979645E0
1.951348156E1,1.390521288E0,-4.039913714E-1,3.011722803E0
1.953548000E1,3.920184076E-1,3.656813860E0,1.680245876E0
1.955548156E1,1.797165573E-1,5.821231365E0,1.043305516E0
1.957548156E1,8.657880425E-1,3.951634884E0,1.170714498E0
1.959548156E1,1.516952872E0,4.584805369E-1,1.262571216E0
1.961748000E1,1.001487374E0,-1.650854588E0,6.331880093E-1
1.963748000E1,4.356167316E-1,-2.102755308E0,2.887647152E-1
1.965748000E1,-8.798204362E-2,-1.942045331E0,2.915048897E-1
1.967748000E1,-4.129972458E-1,-1.319172263E0,4.520577192E-1
1.969748000E1,-6.356139779E-1,-6.154379845E-1,4.612207115E-1
1.971748156E1,-8.772373796E-1,-1.503426582E-1,2.552718520E-1
1.973750500E1,-1.270948768E0,2.584308982E-1,-1.370432526E-1
1.975948000E1,-1.940753818E0,-1.262047589E-1,-8.765218258E-1
1.977948156E1,-2.314777851E0,-2.642882347E0,-2.119911909E0
1.980148156E1,-1.576835155E0,-4.920187950E0,-2.970183849E0
1.982148156E1,-1.167398334E0,-2.513029814E0,-2.241264582E0
1.984348156E1,-3.043679595E-1,2.038527012E0,5.106135011E-1
1.986348156E1,-4.514468610E-1,4.003069878E0,1.499691606E0
1.988348156E1,-8.280889392E-1,2.004074335E0,9.885894060E-1
1.990348156E1,-8.170584440E-1,-1.331581473E0,1.622458100E-1
1.992348156E1,-4.180063605E-1,-1.658900499E0,-7.531793714E-1
1.994348156E1,-1.268924117E0,-4.073720455E0,-8.439190388E-1
1.996348156E1,-1.738225698E0,-2.410770893E0,-9.389173388E-1
1.998548156E1,-1.421902299E0,1.170051217E0,-1.334059834E0
2.000548156E1,-1.084687233E0,1.972222090E0,-1.845354080E0
2.002548156E1,-8.419293761E-1,1.917750359E0,-1.770933270E0
2.004549719E1,-6.954089999E-1,1.373591542E0,-7.611730099E-1
2.006748156E1,-1.438325882E0,-9.179210067E-1,-1.300095767E-1
2.008748938E1,-1.495328307E0,-2.037287951E0,-4.316199198E-2
2.010948000E1,-8.614596128E-1,-4.963367283E-1,-4.959876537E-1
2.012949250E1,-9.051277488E-2,1.342577100E0,-5.136329532E-1
2.015148000E1,5.339486003E-1,1.117865920E0,-3.744254708E-1
2.017148000E1,2.624102533E-1,4.949055612E-1,-6.329262257E-1
2.019148000E1,-5.907415748E-1,1.717054844E-1,-9.650797844E-1
2.021148156E1,-1.351914525E0,2.469291836E-1,-1.160521746E0
2.023148156E1,-1.875687838E0,1.080044627E0,-1.048558950E0
2.025348156E1,-2.465207815E0,2.706080675E0,-3.477917612E-1
2.027348156E1,-2.194402456E0,4.668441772E0,-2.901260853E-1
2.029348156E1,1.675516134E-3,4.894112587E0,-7.418870926E-1
2.031348156E1,1.419755578E0,3.028023958E0,-8.020136952E-1
2.033348156E1,4.830722213E-1,7.345218062E-1,-5.479635596E-1
2.035348156E1,-1.342856288E-1,-5.957856178E-1,-2.096838504E-1
2.037348156E1,7.750832438E-1,4.021587670E-1,4.436801374E-1
2.039348156E1,2.261597633E0,1.419895172E0,1.168794632E0
2.041348156E1,3.350351572E0,1.000422761E-1,1.341093540E0
2.043348156E1,3.586494446E0,-1.565368295E0,2.037636995E0
2.045348156E1,3.522283792E0,-3.834383726E0,2.987968683E0
2.047348156E1,3.296089172E0,-5.243806839E0,3.669118404E0
2.049348156E1,2.581167459E0,-3.421246767E0,3.928858280E0
2.051348156E1,1.572279811E0,2.099281996E-1,3.166289091E0
2.053548000E1,9.009215236E-1,4.754521370E0,1.271036029E0
2.055548156E1,1.020179868E0,6.781913280E0,7.466692924E-1
2.057548156E1,2.167855978E0,3.510328293E0,1.205638528E0
2.059548156E1,2.116543293E0,6.816557646E-1,1.016950965E0
2.061748000E1,1.207820177E0,-8.922646642E-1,3.791029751E-1
2.063748000E1,4.580267668E-1,-1.652774453E0,2.758492827E-1
2.065748000E1,-1.837831736E-2,-2.031057119E0,4.504694641E-1
2.067748156E1,-3.250501156E-1,-1.822298288E0,6.423684359E-1
2.069948156E1,-1.883559376E-1,5.501976013E-1,5.306848288E-1
2.072148000E1,-3.653497696E-1,3.027535439E0,1.656841040E-1
2.074148000E1,-1.786885500E0,1.538333148E-1,-4.960749447E-1
2.076148000E1,-2.343313932E0,-8.130441904E-1,-1.821739793E0
2.078148000E1,-1.475588560E0,-4.755603313E0,-3.069632769E0
2.080148156E1,-6.476044059E-1,-6.550307751E0,-2.461874247E0
2.082148156E1,-9.814684391E-1,-2.446096420E0,-6.607118249E-1
2.084348156E1,-9.908757806E-1,5.785801411E0,1.313726783E0
2.086348156E1,-1.096799850E0,6.880471706E0,1.197016597E0
2.088548000E1,-5.470036268E-1,2.109980822E0,6.664714217E-1
2.090548625E1,1.025380939E-1,-2.460914254E-1,-6.470633745E-1
2.092748000E1,-7.807206511E-1,-7.320329666E0,-2.073957205E0
2.094748000E1,-4.661250710E-1,-4.874093533E0,-1.648620605E0
2.096748000E1,-2.263866514E-1,-2.345722467E-1,-1.397781849E0
2.098748000E1,-9.143605232E-1,8.560490608E-1,-1.571930766E0
2.100748000E1,-1.489743233E0,-1.324530393E-1,-1.752659678E0
2.102748000E1,-1.537966728E0,-1.390713215E0,-9.587616920E-1
2.104748156E1,-9.156520963E-1,-1.513113141E0,-2.699675262E-1
2.106948000E1,-4.650778770E-1,-8.623671532E-1,2.296853252E-2
2.108948000E1,-3.034883261E0,5.686562061E0,3.946363926E-1
2.110948000E1,-2.399548531E0,6.680579185E0,-9.625490755E-2
2.112950500E1,-6.512870789E-1,5.270876884E0,-3.330437243E-1
2.115148000E1,-3.450515866E-2,1.981280327E0,-4.427202046E-1
2.117148000E1,-2.290919125E-1,-1.139054179E0,-7.551690340E-1
2.119148000E1,-5.380151868E-1,-2.282140255E0,-9.065414667E-1
2.121148156E1,-8.425925970E-1,-2.093086004E0,-7.291287184E-1
2.123148156E1,-1.119087696E0,-1.564425826E0,-5.367934704E-1
2.125348156E1,-1.381009221E0,-6.369753480E-1,-5.810201168E-1
2.127348156E1,-1.250929832E0,5.091474652E-1,-4.866850674E-1
2.129348156E1,-2.895152271E-1,1.311614871E0,-5.843187571E-1
2.131348156E1,5.261818767E-1,2.015837908E0,-7.568445802E-1
2.133348156E1,7.297046781E-1,1.833450913E0,-4.724606276E-1
2.135348156E1,5.786638856E-1,1.067425966E0,-1.480388194E-1
2.137348156E1,4.736125469E-1,2.057446480E0,1.271123290E-1
2.139348156E1,1.355160952E0,3.458649158E0,1.019481778E0
2.141348156E1,3.344521999E0,2.239414454E0,1.562314034E0
2.143348156E1,4.155070305E0,-6.166597009E-1,2.220757008E0
2.145348156E1,3.569355488E0,-4.096741676E0,3.123109579E0
2.147348156E1,3.032806158E0,-6.084462166E0,3.679852247E0
2.149348156E1,2.507758856E0,-4.439663887E0,3.140161514E0
2.151548156E1,1.490807891E0,-3.207740486E-1,2.194559574E0
2.153749563E1,1.005152583E0,3.587018013E0,1.196615219E0
2.155948156E1,8.006348610E-1,6.155113220E0,1.314023495E0
2.158148000E1,1.208256483E0,4.500820160E0,1.520722866E0
2.160148000E1,1.487823367E0,8.554731011E-1,1.374760985E0
2.162148000E1,1.253216267E0,-1.185427666E0,1.025642753E0
2.164148000E1,6.025400162E-1,-1.845057368E0,5.642998815E-1
2.166148156E1,-1.453859210E-1,-1.752799273E0,2.576804161E-1
2.168348000E1,-6.347413659E-1,-1.156193376E0,1.431519091E-1
2.170348156E1,-7.712086439E-1,-2.673320770E-1,1.966113448E-1
2.172348156E1,-9.846100211E-1,3.400250375E-1,1.544441879E-1
2.174548156E1,-1.708118796E0,-4.799655452E-2,-3.639883995E-1
2.176548938E1,-2.289103985E0,-1.481871843E0,-1.617274404E0
2.178748000E1,-1.714052916E0,-4.769775391E0,-2.569927454E0
2.180748000E1,-1.599088073E0,-4.047767639E0,-2.322125673E0
2.182748156E1,-1.177870393E0,1.909896374E0,-4.233645201E-1
2.184749406E1,-2.253220081E-1,6.937910557E0,1.893490195E0
2.186948000E1,6.784094870E-2,4.820389748E0,1.490703106E0
2.188948000E1,2.396686077E-1,1.502728462E-2,-3.234793246E-1
2.190948000E1,3.279124498E-1,-2.904559374E0,-9.714851379E-1
2.192950500E1,-1.655532002E0,-9.076445580E0,-6.320535541E-1
2.195148156E1,-7.330906391E-1,-4.525621414E0,-6.750758886E-1
2.197348156E1,-5.749987364E-1,-8.836078644E-1,-1.060636640E0
2.199348156E1,-9.856746793E-1,5.625196174E-2,-1.789346457E0
2.201348156E1,-1.412163377E0,2.396511585E-1,-1.659127474E0
2.203348156E1,-9.580112100E-1,7.709119469E-2,-4.205370843E-1
2.205348312E1,-7.628834248E-2,5.503023043E-2,3.519107401E-1
2.207548156E1,2.483603545E-2,6.709220409E-1,2.476447672E-1
2.209548625E1,-1.031035781E0,1.560149789E0,-3.555061221E-1
2.211748000E1,-4.233837128E0,4.256334305E0,-1.041891694E0
2.213749094E1,-2.442152023E0,3.218614101E0,-4.860218465E-1
2.215948000E1,4.915894270E-1,5.230402946E-1,-3.231302500E-1
2.217948000E1,7.174873948E-1,-4.601909518E-1,-1.032292485E0
2.219948000E1,-3.283662498E-1,-1.012308359E0,-1.245449543E0
2.221948156E1,-9.257226586E-1,-8.429591060E-1,-1.379717708E0
2.224148156E1,-1.424432993E0,-3.226590157E-1,-1.195376039E0
2.226348156E1,-1.186771512E0,1.511385322E0,-1.523393154E0
2.228348156E1,4.445004463E-1,2.721526861E0,-1.531351924E0
2.230348156E1,9.155124426E-1,2.477739096E0,-1.099976301E0
2.232548000E1,7.516260147E-1,3.055024445E-1,-8.195717335E-1
2.234548156E1,4.788485467E-1,-5.776690841E-1,-8.858243823E-1
2.236548156E1,8.751779199E-1,1.313185692E0,-6.905220747E-1
2.238748156E1,2.261475563E0,3.199450254E0,5.224643350E-1
2.240748156E1,3.440881729E0,1.954594254E0,1.167887092E0
2.242948000E1,3.192294359E0,-5.874429345E-1,1.135947585E0
2.244948000E1,1.870870829E0,-3.509403229E0,1.192897677E0
2.246948000E1,1.289623737E0,-4.619484901E0,1.262553692E0
2.248948156E1,2.464265347E0,-2.188904762E0,1.337306142E0
2.251148000E1,2.745368004E0,1.288873315E0,1.811128139E0
2.253148000E1,1.531229734E0,3.332636356E0,1.764510393E0
2.255148000E1,2.087588310E-1,2.428398848E0,1.531770706E0
2.257148000E1,1.268156171E-1,1.216634154E0,1.426544905E0
2.259148000E1,3.196221590E-1,1.511629671E-1,1.414868593E0
2.261148000E1,4.168718755E-1,-5.218709111E-1,1.361601114E0
2.263148000E1,3.327644765E-1,-7.371048927E-1,1.185619593E0
2.265148000E1,2.568252087E-1,-1.285714269E0,9.544507265E-1
2.267148156E1,6.735225767E-2,-1.929740787E0,7.545232773E-1
2.269148156E1,-2.545562685E-1,-1.716601133E0,5.744925737E-1
2.271348000E1,-7.902327180E-1,-9.180257320E-1,4.363323152E-1
2.273348156E1,-1.350361228E0,-2.635447076E-3,2.890963256E-1
2.275348156E1,-1.625617146E0,4.234866798E-1,-7.328637689E-2
2.277348156E1,-1.369455099E0,1.247910410E-2,-7.473499775E-1
2.279348156E1,-3.483153582E-1,-6.417400837E-1,-7.537378669E-1
2.281548000E1,-1.178882599E0,-2.626720369E-1,-1.414240301E-1
2.283548000E1,-1.097742319E0,1.089259982E0,3.803421557E-1
2.285548000E1,-2.469640821E-1,6.750410080E0,1.712237835E0
2.287548156E1,-1.309171438E0,3.266889811E0,6.220877171E-1
2.289548625E1,-1.090481758E0,-2.340137482E0,-5.016599894E-1
2.291748000E1,2.411346883E-1,-5.113849640E0,-1.108598232E0
2.293751594E1,8.604124188E-1,-5.734802723E0,-7.842462659E-1
2.295948000E1,-3.102322817E-1,-4.996196747E0,2.379930913E-1
2.297948000E1,-1.271873832E0,-2.149861574E0,9.964084625E-2
2.299948000E1,-1.965066195E0,1.068385839E0,-5.221326947E-1
2.301948000E1,-1.840467095E0,2.036118507E0,-8.950921297E-1
2.303948000E1,-1.216861010E0,2.249397755E0,-5.751208663E-1
2.305948156E1,-1.351251364E0,6.445850134E-1,-3.025353849E-1
2.308148000E1,-1.721645117E0,-1.926476955E0,-4.516388476E-1
2.310148000E1,-3.003188074E-1,2.341533750E-1,-9.777334332E-2
2.312148000E1,2.726902366E-1,2.098060369E0,-2.663721442E-1
2.314148000E1,2.156528831E-1,1.575142145E0,-5.966058969E-1
2.316148000E1,-6.979571283E-2,-1.097986624E-1,-8.557349443E-1
2.318148000E1,-8.177739978E-1,-1.996534467E0,-1.132055402E0
2.320148000E1,-2.104116678E0,-1.415915847E0,-1.354340553E0
2.322148000E1,-2.370837688E0,1.161883116E0,-1.227332950E0
2.324148156E1,-1.234331727E0,2.225486755E0,-7.930252552E-1
2.326348156E1,-6.438345313E-1,1.996988297E0,-2.932851315E-1
2.328548000E1,-5.830097795E-1,1.155844331E0,-5.000891685E-1
2.330548313E1,-8.913396299E-2,4.763177931E-1,-9.032427669E-1
2.332748156E1,1.726654172E-1,3.647912741E-1,-8.010014296E-1
2.334948156E1,-9.436995536E-2,1.174362183E0,-3.927688897E-1
2.337148000E1,6.466444582E-2,1.719568133E0,1.809731871E-1
2.339148000E1,7.218681574E-1,1.554145932E0,4.808382094E-1
2.341148000E1,1.299083471E0,1.848321080E0,7.249399424E-1
2.343148000E1,2.057655811E0,1.936390400E0,9.752725363E-1
2.345148156E1,3.314118385E0,5.699721575E-1,1.304668546E0
2.347348156E1,3.659658670E0,-4.094193280E-1,1.979290605E0
2.349348156E1,2.843507767E0,-6.781651378E-1,2.765753508E0
2.351348156E1,2.108392715E0,-5.647885203E-1,3.049351931E0
2.353348156E1,1.372457147E0,6.718295813E-1,2.586525679E0
2.355348156E1,3.597297966E-1,3.210271358E0,1.886142373E0
2.357348156E1,2.157925069E-1,4.989582062E0,9.521643519E-1
2.359348156E1,7.825881839E-1,4.365888596E0,8.986002207E-1
2.361348156E1,9.269094467E-1,1.575299263E0,1.105578780E0
2.363348156E1,7.377681136E-1,-1.020633578E0,1.285714269E0
2.365348156E1,8.371471763E-1,-1.871132612E0,1.116940856E0
2.367348156E1,9.829345345E-1,-1.781387806E0,6.721612215E-1
2.369348156E1,8.961393237E-1,-1.191379189E0,1.936791837E-1
2.371548156E1,3.178942800E-1,-4.047243893E-1,-8.726646006E-2
2.373548156E1,-4.388805032E-1,7.414158434E-2,-1.249655709E-1
2.375748000E1,-1.243285298E0,1.186125726E-1,-1.861917228E-1
2.377748000E1,-1.897958279E0,-3.068637848E-1,-6.472029686E-1
2.379748000E1,-2.502714872E0,-5.181359053E-1,-1.679093957E0
2.381748156E1,-1.420767784E0,-1.369612217E0,-2.237459660E0
2.383948000E1,-1.071457639E-1,-2.468715906E0,-1.502152562E0
2.385948156E1,-1.203875780E0,-1.081842303E0,-3.940778971E-1
2.388148156E1,-1.353537679E0,2.579195261E0,1.083587646E0
2.390348156E1,-4.803844094E-1,5.054944515E0,8.534311056E-1
2.392348156E1,-1.415985674E-1,8.525933623E-1,-2.892010510E-1
2.394348156E1,-4.417079389E-1,-3.435959816E0,-5.581388474E-1
2.396548000E1,-7.293033004E-1,-4.798503399E0,-8.674111962E-1
2.398548000E1,-6.461907029E-1,-2.861205578E0,-1.274526715E0
2.400548156E1,-5.200033784E-1,-7.807032466E-1,-1.181919456E0
2.402748000E1,-3.221354187E-1,1.183996439E0,-6.742556095E-1
2.404748000E1,-3.844785690E-1,2.008280516E0,-6.072872877E-1
2.406748000E1,-7.017968893E-1,1.570377469E0,-5.759761333E-1
2.408748000E1,-1.439669728E0,8.074591160E-1,-8.267799020E-1
2.410748000E1,-1.490388989E0,3.275284767E-1,-1.022483706E0
2.412748625E1,-7.861312032E-1,-2.398256958E-1,-9.222319722E-1
2.414948000E1,-1.753008664E-1,-7.654315829E-1,-8.102167249E-1
2.416948000E1,-2.222153246E-1,-7.519053221E-1,-8.091171980E-1
2.418948000E1,-6.664539576E-1,-3.817209601E-1,-7.985404730E-1
2.420948000E1,-1.061055422E0,1.247037724E-1,-8.337088823E-1
2.422948000E1,-1.167276144E0,5.838824511E-1,-9.161931276E-1
2.424948000E1,-1.094059587E0,8.060104847E-1,-1.000667095E0
2.426948000E1,-9.332100749E-1,8.984954953E-1,-1.088334918E0
2.428948156E1,-3.764849603E-1,1.122770309E0,-1.152824879E0
2.431148156E1,3.907442987E-1,9.300684929E-1,-9.555503130E-1
2.433348156E1,3.059911132E-1,4.645193815E-1,-3.184178770E-1
2.435348156E1,3.418401778E-1,3.277379274E-1,2.010444701E-1
2.437348156E1,9.161233306E-1,1.032885835E-1,5.585926175E-1
2.439348156E1,1.130187988E0,9.652194381E-1,9.267349243E-1
2.441348156E1,1.922113657E0,1.690106988E0,1.284893990E0
2.443348156E1,3.348833084E0,5.088682175E-1,1.641813755E0
2.445348156E1,3.791657925E0,-6.333799958E-1,2.086349010E0
2.447348156E1,3.024899960E0,-1.053620338E0,2.474667549E0
2.449348156E1,2.125304937E0,-1.180872321E0,2.590051174E0
2.451348156E1,1.482500076E0,-4.383569062E-1,2.309349775E0
2.453348156E1,7.146250606E-1,1.813746095E0,1.773551226E0
2.455348156E1,2.992017865E-1,4.672176361E0,1.126557708E0
2.457348156E1,6.119298935E-1,5.093010426E0,9.725149274E-1
2.459348156E1,9.182177186E-1,2.451629162E0,1.291857839E0
2.461348156E1,6.095213294E-1,-1.596417785E0,1.306501150E0
2.463348156E1,4.005530477E-1,-3.836949348E0,1.015589595E0
2.465348156E1,5.266531110E-1,-3.769788980E0,8.244237304E-1
2.467348156E1,5.766393542E-1,-2.873475075E0,6.341130137E-1
2.469348156E1,3.643200397E-1,-1.709759474E0,3.732386529E-1
2.471548156E1,-8.248426020E-2,-6.239028573E-1,2.034879327E-1
2.473548156E1,-7.807905078E-1,3.535513580E-1,-6.447245926E-2
2.475748000E1,-1.689478755E0,4.942772388E-1,-4.627915025E-1
2.477748000E1,-2.489345551E0,-4.270646274E-1,-8.191702962E-1
2.479748000E1,-2.506711721E0,-1.335962296E0,-1.535086870E0
2.481748156E1,-8.202872872E-1,-2.795895338E0,-1.170033813E0
2.483748156E1,-7.574554682E-1,-2.925904751E0,-8.054694533E-1
2.485948000E1,-1.362735629E0,8.591383100E-1,3.090105355E-1
2.487948000E1,-6.368532181E-1,4.329062462E0,1.357360005E0
2.489948000E1,-1.476199478E-1,2.114030123E0,1.082767367E0
2.491948156E1,-8.934340626E-2,-3.951774538E-1,-3.058340549E-1
2.494148000E1,3.783699274E-1,-1.469392657E0,-1.134114981E0
2.496148156E1,2.010619342E-1,-2.195763826E0,-5.845456719E-1
2.498348156E1,-1.248608589E0,-1.742903233E0,-2.611361742E-1
2.500348156E1,-1.912671447E0,-3.618765771E-1,-8.656658530E-1
2.502348156E1,-1.595632315E0,-1.989675453E-3,-1.375092506E0
2.504548000E1,-8.189608455E-1,-1.190140024E-1,-1.181134105E0
2.506548000E1,-1.169335723E0,-3.920358419E-1,-9.258622527E-1
2.508548156E1,-1.847291350E0,3.242821693E-1,-7.105758786E-1
2.510748000E1,-5.929406881E-1,1.600746155E0,-3.770434856E-1
2.512748156E1,1.563815027E-1,1.777268767E0,-2.856754959E-1
2.514948000E1,1.269552559E-1,7.528128624E-1,-4.287401438E-1
2.516948000E1,-4.525638744E-2,-6.461034417E-1,-3.424336016E-1
2.518948000E1,-4.490557611E-1,-1.414135575E0,-3.930132389E-1
2.520948000E1,-1.041123748E0,-9.236282110E-1,-5.060232878E-1
2.522948000E1,-1.537617564E0,6.195394993E-1,-5.827654600E-1
2.524948000E1,-1.288122773E0,1.150067210E0,-3.154333532E-1
2.526948000E1,-9.874723554E-1,8.476191759E-1,-1.928763390E-1
2.528948156E1,-9.488133192E-1,4.890063405E-1,-2.933549285E-1
2.531148156E1,-5.854183435E-1,5.450662971E-1,-6.483723521E-1
2.533148156E1,-2.426007576E-2,9.689719081E-1,-9.936857820E-1
2.535148625E1,4.095065892E-1,6.369055510E-1,-1.130275249E0
2.537348156E1,-1.315978318E-1,8.330456167E-2,-6.634520292E-1
2.539548000E1,-2.190388143E-1,1.948136538E-1,-2.031563222E-2
2.541548000E1,5.964837074E-1,3.182084262E-1,2.989225388E-1
2.543548156E1,7.634069920E-1,1.729324579E0,7.757988572E-1
2.545748000E1,1.370048523E0,2.198434114E0,8.807629347E-1
2.547748156E1,2.890945911E0,1.088247657E0,6.798232198E-1
2.549948156E1,3.894265890E0,-8.787732571E-2,1.103728771E0
2.552148156E1,3.470534801E0,-6.516011953E-1,1.852911353E0
2.554348156E1,2.349143267E0,-8.729962111E-1,2.429760218E0
2.556348156E1,1.646910071E0,-3.580368459E-1,2.255803108E0
2.558348156E1,9.697747231E-1,1.526412606E0,1.850642443E0
2.560548156E1,7.379251719E-2,5.125124454E0,1.505311608E0
2.562548156E1,-3.690673113E-1,6.879546642E0,1.408882141E0
2.564548156E1,-3.103195317E-2,5.086761951E0,1.673491478E0
2.566548156E1,2.841047049E-1,-4.292986393E-1,1.763253808E0
2.568748156E1,2.999173701E-1,-4.150358200E0,1.408218861E0
2.570948000E1,2.167873383E-1,-4.071224689E0,6.202201843E-1
2.572948781E1,7.665485889E-2,-2.797099590E0,2.351656556E-1
2.575148000E1,1.731366664E-2,-1.242342830E0,1.616174877E-1
2.577148000E1,9.128072113E-2,-1.937140971E-1,1.701696031E-2
2.579148000E1,-2.469640970E-2,-2.343628109E-1,-9.318313003E-2
2.581148156E1,-6.193301082E-1,-7.616267800E-1,-3.082775176E-1
2.583348156E1,-1.594044089E0,-7.547850609E-1,-8.985478282E-1
2.585348156E1,-2.266833544E0,-3.019594252E-1,-1.422757506E0
2.587548000E1,-1.993165970E0,2.666863054E-2,-1.524789453E0
2.589548625E1,-7.667406201E-1,1.116487086E-1,-1.031576872E0
2.591748000E1,-6.148620248E-1,8.368504643E-1,-3.926292658E-1
2.593748156E1,-8.200603724E-1,1.814479232E0,5.343849063E-1
2.595948000E1,-4.239753783E-1,2.296800852E0,1.134324431E0
2.597948000E1,-7.113961875E-2,2.154748678E0,-1.459269822E-1
2.599948156E1,2.283065170E-1,5.613851547E-1,-1.071370363E0
2.602148000E1,7.546280026E-1,-4.398736000E0,-1.068961859E0
2.604148000E1,2.595653534E-1,-4.904514790E0,-6.339908242E-1
2.606148000E1,-5.751034617E-1,-4.153499603E0,-8.259072304E-1
2.608148000E1,-1.262117386E0,-2.010636806E0,-1.022518635E0
2.610148156E1,-1.181238890E0,1.714436859E-1,-1.102053285E0
2.612148156E1,-3.782826662E-1,2.217842340E0,-7.119197845E-1
2.614348156E1,2.091777027E-1,2.647402763E0,-2.906322181E-1
2.616548156E1,6.265731994E-3,1.602159858E0,-3.662398756E-1
2.618748156E1,-2.017338753E0,5.408251882E-1,-1.027632356E0
2.620948000E1,-3.344190359E0,3.161489367E-1,-1.106084943E0
2.622948000E1,-1.406107068E0,4.022634923E-1,-4.339586496E-1
2.624948000E1,3.458544314E-1,-1.770287454E-1,-3.135309517E-1
2.626948000E1,4.637688994E-1,-8.539372683E-1,-4.435754418E-1
2.628948156E1,-3.019768596E-1,-1.587446809E0,-5.207015276E-1
2.631148156E1,-6.702936888E-1,-1.359279871E0,-4.742234051E-1
2.633348156E1,-6.738017797E-1,-6.269921064E-1,-4.930555224E-1
2.635348156E1,-8.231321573E-1,8.255407214E-2,-5.199161172E-1
2.637348156E1,-1.062277198E0,6.517583132E-1,-5.045746565E-1
2.639348156E1,-8.363966942E-1,1.048593760E0,-7.203671932E-1
2.641348156E1,-9.962339699E-2,1.283986330E0,-1.027562618E0
2.643348156E1,8.464846760E-2,1.053306222E0,-9.602627158E-1
2.645348156E1,1.169719696E-1,2.610488832E-1,-4.972268343E-1
2.647348156E1,4.059635699E-1,-3.145956099E-1,1.918116771E-2
2.649348156E1,7.376808524E-1,1.657539159E-1,5.032656789E-1
2.651348156E1,9.777508974E-1,1.625844002E0,1.078945041E0
2.653348156E1,2.372251511E0,1.266166568E0,1.192513704E0
2.655348156E1,3.584295511E0,1.684242673E-2,1.469479918E0
2.657348156E1,3.741148233E0,-6.921975613E-1,1.864500284E0
2.659348156E1,2.967670679E0,-1.080254078E0,2.059732914E0
2.661348156E1,2.027042866E0,-1.157013655E0,1.970790863E0
2.663348156E1,1.238869548E0,-1.022239327E-1,1.732448697E0
2.665348156E1,5.614374876E-1,2.897403717E0,1.438256025E0
2.667348156E1,2.675764263E-1,5.570218086E0,1.166420937E0
2.669348156E1,4.066791534E-1,5.982936382E0,1.268679857E0
2.671348156E1,4.487765133E-1,3.815586329E0,1.572716236E0
2.673348156E1,1.658760905E-1,-1.014036313E-2,1.565089107E0
2.675348156E1,5.365142226E-2,-2.643807173E0,1.131060600E0
2.677348156E1,1.177748144E-1,-3.144263029E0,6.209008694E-1
2.679348156E1,2.575931549E-1,-2.389390707E0,3.511951566E-1
2.681348156E1,3.147526681E-1,-1.185287952E0,2.008873969E-1
2.683348156E1,4.761258140E-2,-2.592686713E-1,-2.897246508E-3
2.685348156E1,-5.170188546E-1,-2.209412307E-1,-1.219810620E-1
2.687348156E1,-1.237682819E0,-7.230375409E-1,-3.964166343E-1
2.689348156E1,-1.947892189E0,-7.788008451E-1,-1.052433491E0
2.691348156E1,-2.161171436E0,-4.028743505E-1,-1.600048065E0
2.693348156E1,-1.326904058E0,-3.662748039E-1,-1.420279145E0
2.695348156E1,-7.562860847E-1,-1.381951720E-1,-1.044771552E0
2.697348156E1,-9.144303799E-1,7.501075864E-1,-3.869394958E-1
2.699348156E1,-5.224468708E-1,2.817170858E0,9.791820645E-1
2.701548156E1,-1.436231434E-1,2.023866415E0,1.098789454E0
2.703748156E1,-4.874704406E-2,-3.300417587E-2,-6.619335413E-1
2.705948000E1,3.067416251E-1,-1.076344490E0,-1.502955317E0
2.707948000E1,-1.332907975E-1,-6.207350731E0,-1.014001369E0
2.709948000E1,-5.792747810E-2,-3.867579699E0,-4.362974167E-1
2.711948000E1,-5.560444593E-1,-2.034408092E0,-7.748738527E-1
2.713948156E1,-1.030285358E0,-2.564935982E-1,-1.233197331E0
2.716148156E1,-7.636164427E-1,8.183848858E-1,-9.718342423E-1
2.718348156E1,-1.645670980E-1,1.235291719E0,-2.451664060E-1
2.720348156E1,-9.536478668E-2,1.437121511E0,-2.700722516E-1
2.722548156E1,-1.274003029E0,1.798212767E0,-6.517233849E-1
2.724748156E1,-2.953777790E0,2.166477203E0,-9.402612448E-1
2.726748156E1,-1.488853097E0,1.194032073E0,-6.052452922E-1
2.728948000E1,2.069960535E-2,-7.591658831E-1,-3.837280869E-1
2.730948000E1,6.366961449E-2,-2.530046701E0,-4.196120501E-1
2.732948156E1,-3.671474457E-1,-2.778372288E0,-4.594928324E-1
2.734948156E1,-7.790800929E-1,-1.155896664E0,-3.579321206E-1
2.737148000E1,-9.578890204E-1,3.144908845E-1,-2.764950693E-1
2.739148000E1,-9.871582389E-1,1.030477285E0,-6.361725330E-1
2.741148000E1,-1.033828378E0,1.165949702E0,-8.708669543E-1
2.743148156E1,-7.723430991E-1,7.900756598E-1,-1.035032630E0
2.745148156E1,6.503096968E-2,8.594350219E-1,-1.491261721E0
2.747348156E1,2.948733866E-1,1.170592308E-1,-1.327759266E0
2.749348156E1,-2.523047924E-1,-1.350012124E-1,-5.792398453E-1
2.751348156E1,3.274935782E-1,5.057964101E-2,-7.180284709E-2
2.753348156E1,1.180976987E0,6.600660682E-1,4.433310926E-1
2.755348156E1,1.389788270E0,2.086471319E0,1.099068761E0
2.757348156E1,2.430999279E0,1.757092714E0,1.180034518E0
2.759348156E1,3.636986971E0,1.377064735E-1,1.334269285E0
2.761548000E1,3.788132429E0,-1.171238065E0,1.795123458E0
2.763548000E1,2.831744432E0,-1.874186873E0,2.239222527E0
2.765548156E1,1.864098907E0,-1.626786470E0,2.207981110E0
2.767748000E1,1.000073671E0,3.506889939E-1,1.597272992E0
2.769748000E1,3.550872207E-1,3.605571032E0,1.241784334E0
2.771748000E1,1.205673441E-1,6.217298985E0,1.255397916E0
2.773748000E1,4.617094100E-1,6.127152920E0,1.588860512E0
2.775748156E1,6.026796699E-1,2.340294600E0,1.753340364E0
2.777948156E1,2.679255009E-1,-2.347450495E0,1.523916721E0
2.780148000E1,1.496270746E-1,-3.702523947E0,9.655510187E-1
2.782148000E1,7.655014098E-2,-3.033923388E0,4.530525804E-1
2.784148000E1,4.436627030E-2,-1.803954840E0,1.467647403E-1
2.786148000E1,-1.846558414E-2,-4.436801374E-1,6.147049740E-2
2.788148156E1,-3.169343472E-1,1.141270772E-1,1.036725566E-2
2.790348156E1,-1.177730680E0,-3.163060248E-1,-1.405688226E-1
2.792348156E1,-2.168309689E0,-6.219655275E-1,-7.878765464E-1
2.794348781E1,-2.491440058E0,-3.134785891E-1,-1.560045123E0
2.796548000E1,-1.195061803E0,-7.719067931E-1,-1.467542648E0
2.798548000E1,-6.147224307E-1,-1.279273987E0,-1.047616482E0
2.800548156E1,-1.063219666E0,-3.443360031E-1,-4.402593076E-1
2.802748000E1,-7.637386322E-1,3.373250246E0,1.057076097E0
2.804748156E1,-2.602809370E-1,2.920843363E0,9.354964495E-1
2.806948000E1,-1.506393701E-1,-1.954768747E-1,-2.232450694E-1
2.808948000E1,1.261873096E-1,-2.994670868E0,-2.882934809E-1
2.810948000E1,-1.955816001E-1,-5.851111412E0,6.002187356E-2
2.812948156E1,-6.461209059E-1,-5.557843685E0,-5.733057261E-1
2.815148000E1,-8.650200963E-1,-1.959917426E0,-8.695928454E-1
2.817148156E1,-6.447071433E-1,1.124026895E0,-6.113364697E-1
2.819348156E1,-5.086762309E-1,2.948733807E0,-3.270921409E-1
2.821348156E1,-1.411779404E0,2.133804560E0,-2.944719493E-1
2.823348156E1,-2.118899584E0,3.995058537E-1,-6.363121271E-1
2.825348156E1,-8.742528558E-1,6.263114214E-1,-1.094879985E0
2.827348156E1,1.524021477E-1,5.858895779E-1,-1.045469642E0
2.829348156E1,3.504097462E-1,-4.065046310E-1,-1.018818498E0
2.831348156E1,3.456450105E-1,-1.648707867E0,-1.079137087E0
2.833348156E1,-1.543394625E-1,-2.477774143E0,-1.046918273E0
2.835348156E1,-1.028731942E0,-2.045421124E0,-9.106604457E-1
2.837348156E1,-1.634623051E0,1.146681309E-1,-8.358730674E-1
2.839548000E1,-1.274387002E0,1.868654251E0,-6.315648556E-1
2.841548000E1,-1.112769604E0,2.025315046E0,-4.222300649E-1
2.843548156E1,-1.105456591E0,1.397153497E0,-5.084842443E-1
2.845748000E1,-4.221951365E-1,6.529102325E-1,-1.000963807E0
2.847748156E1,3.928212523E-1,3.251373768E-1,-1.308316231E0
2.849948156E1,1.157502383E-1,-4.817108810E-2,-9.585173726E-1
2.852148156E1,-2.079559863E-1,4.527035058E-1,-1.635199040E-1
2.854348000E1,1.042485118E0,-2.353751063E-1,3.902381659E-1
2.856348000E1,1.266376019E0,-2.183406800E-2,7.294778228E-1
2.858348156E1,1.377675653E0,7.502123117E-1,1.047057867E0
2.860348156E1,2.682693243E0,9.161233157E-2,1.232848167E0
2.862348313E1,3.423847198E0,-4.501204193E-1,1.609769583E0
2.864548000E1,3.207950115E0,-4.127703607E-1,1.893333197E0
2.866548156E1,2.397942781E0,-7.675958276E-1,2.078041315E0
2.868748000E1,1.477525949E0,-4.924446344E-1,1.945815206E0
2.870748000E1,7.756068707E-1,1.574478984E0,1.623836875E0
2.872748156E1,4.107457995E-1,4.195300102E0,1.359297276E0
2.874748156E1,4.917814136E-1,5.534805775E0,1.330499411E0
2.876948000E1,7.435626388E-1,4.094646931E0,1.486339808E0
2.878948156E1,5.285031199E-1,5.332504511E-1,1.512903810E0
2.881148156E1,3.322234154E-1,-2.256780624E0,1.193735361E0
2.883348156E1,3.966784179E-1,-2.319141150E0,7.318514585E-1
2.885348156E1,4.794244766E-1,-1.271856308E0,4.520577192E-1
2.887348156E1,3.601312339E-1,-2.492679209E-1,3.030066192E-1
2.889348156E1,-9.334021062E-2,-1.815142483E-2,1.450368613E-1
2.891348156E1,-7.744549513E-1,-1.988977194E-1,-1.248957589E-1
2.893348156E1,-1.464645386E0,-4.707152843E-1,-6.880262494E-1
2.895348156E1,-2.045124531E0,-5.071228743E-1,-1.362281799E0
2.897548000E1,-1.771893144E0,-6.363295913E-1,-1.771596432E0
2.899548156E1,-3.530451953E-1,-1.732012391E0,-1.381305933E0
2.901548156E1,-4.792674184E-1,-1.875024676E0,-1.107044935E0
2.903748000E1,-1.417521477E0,2.735629082E-1,-2.511528693E-2
2.905748000E1,-6.551268101E-1,4.310666561E0,1.398375273E0
2.907748000E1,2.164208330E-3,4.236350536E0,1.029046178E0
2.909748000E1,2.437352240E-1,5.207887888E-1,-3.869220316E-1
2.911748156E1,1.303935498E-1,-3.752196074E0,-3.955439627E-1
2.913748313E1,-1.636944264E-1,-5.382455826E0,-5.684188008E-1
2.915948156E1,-5.305801034E-1,-4.070404530E0,-1.073237896E0
2.917948156E1,-6.829298735E-1,-1.381183743E0,-9.150586724E-1
2.920148156E1,-5.091649294E-1,1.310271025E0,-5.546656251E-1
2.922348156E1,-3.101275563E-1,2.706813574E0,-4.062951803E-1
2.924348156E1,-5.155004263E-1,2.560118675E0,-5.411044359E-1
2.926348156E1,-1.996866107E0,1.197697282E0,-8.438317776E-1
2.928348156E1,-2.151729107E0,4.576951265E-1,-1.012884378E0
2.930348156E1,-5.270021558E-1,5.430068374E-1,-1.051421285E0
2.932348156E1,6.328215003E-1,-1.622981727E-1,-8.734151125E-1
2.934348156E1,5.379279256E-1,-1.466512918E0,-8.186292052E-1
2.936548156E1,-3.923325539E-1,-3.196727514E0,-6.920579672E-1
2.938748000E1,-1.383208275E0,-2.763205290E0,-7.007671595E-1
2.940748000E1,-1.785419464E0,8.822639287E-2,-6.673615575E-1
2.942748156E1,-1.260197520E0,1.869107962E0,-2.636668980E-1
2.944948000E1,-8.501498699E-1,2.429061890E0,-1.545838118E-1
2.946948000E1,-8.078605533E-1,1.870155215E0,-5.663244128E-1
2.948948156E1,-2.064200938E-1,6.766292453E-1,-1.028347969E0
2.950948156E1,5.284857154E-1,4.708898440E-2,-1.360833168E0
2.953148000E1,1.095717698E-1,-1.190663576E-1,-1.162790656E0
2.955148000E1,-3.245614171E-1,5.130569935E-1,-4.154581726E-1
2.957148000E1,7.084291577E-1,4.202229083E-1,6.925466657E-2
2.959148000E1,1.289082766E0,5.125333667E-1,3.803945184E-1
2.961148000E1,1.327724338E0,1.450770020E0,6.486341357E-1
2.963148000E1,2.397925377E0,1.118790984E0,6.393315792E-1
2.965148000E1,3.562670708E0,-6.815510988E-2,1.073534608E0
2.967148000E1,3.690149546E0,-1.500895858E0,1.876560569E0
2.969148000E1,2.807466745E0,-2.128725767E0,2.572842121E0
2.971148000E1,2.016047239E0,-2.056154966E0,2.625394106E0
2.973148000E1,1.410295844E0,-1.132491827E0,2.018193960E0
2.975148156E1,6.989520192E-1,1.434346437E0,1.541858792E0
2.977348156E1,1.805368513E-1,4.342361927E0,1.463493466E0
2.979348156E1,2.967059612E-1,5.536393642E0,1.601147652E0
2.981548938E1,7.992211580E-1,3.606181860E0,1.707734823E0
2.983748156E1,5.407727957E-1,-1.214801550E0,1.581512690E0
2.985948156E1,2.051634490E-1,-3.814399719E0,1.207069755E0
2.988148156E1,-2.148500271E-2,-3.929451704E0,8.097280264E-1
2.990348469E1,-3.201457560E-1,-2.976641655E0,5.024628639E-1
2.992548000E1,-5.599889159E-1,-1.367849469E0,4.609239995E-1
2.994548156E1,-6.429793239E-1,-5.379104614E-2,3.768689334E-1
2.996748000E1,-9.220574498E-1,-9.403833747E-2,9.697049111E-2
2.998748000E1,-1.645723343E0,-9.375210404E-1,-4.600862563E-1
3.000748000E1,-2.362023830E0,-9.725497961E-1,-1.319887757E0
3.002748000E1,-2.160420895E0,-5.926265717E-1,-1.718311548E0
3.004748000E1,-8.226260543E-1,-9.040456414E-1,-1.354672194E0
3.006748000E1,-4.877322614E-1,-1.013512686E-1,-9.242565632E-1
3.008748000E1,-9.209753275E-1,1.359995484E0,-1.989675313E-2
3.010748000E1,-6.064495444E-1,2.071845531E0,9.575399756E-1
3.012750188E1,1.222952232E-1,1.816835403E0,9.202597737E-1
3.014948156E1,2.901609838E-1,6.487563252E-1,-3.953694403E-1
3.017148000E1,3.512998819E-1,-1.356330276E0,-8.049284220E-1
3.019148000E1,-8.677951694E-1,-3.808762312E0,-1.647590846E-2
3.021148156E1,-1.666126251E0,-3.792042017E0,-1.057145894E-1
3.023348000E1,-1.302207589E0,-2.914560318E0,-8.978846073E-1
3.025348156E1,-7.108725905E-1,-1.569749117E0,-1.416142702E0
3.027348156E1,-1.718625724E-1,-5.355891585E-1,-1.097393274E0
3.029348156E1,-1.241627261E-1,4.234866798E-1,-2.737025321E-1
3.031348156E1,-1.604132056E0,1.764004230E0,7.518878579E-2
3.033348156E1,-1.557182789E0,1.815823078E0,-2.513623238E-1
3.035348156E1,-5.792922378E-1,6.250722408E-1,-2.924648225E-1
3.037348156E1,-2.843141370E-2,-6.210928559E-1,-3.901334405E-1
3.039348156E1,-7.586946338E-2,-1.574374199E0,-4.663694203E-1
3.041348156E1,-4.466646612E-1,-2.126055479E0,-3.266209066E-1
3.043348156E1,-8.739736080E-1,-1.039919496E0,-4.041135311E-1
3.045348156E1,-1.144901037E0,4.214271903E-1,-3.671474457E-1
3.047348156E1,-1.152755022E0,8.958251476E-1,-4.742408693E-1
3.049348156E1,-1.112752080E0,5.935865045E-1,-7.200181484E-1
3.051548938E1,-1.019429326E0,1.025031880E-1,-9.620603919E-1
3.053751750E1,-7.294952869E-1,4.297175109E-1,-1.119768381E0
3.055948000E1,-9.936159104E-2,8.295201063E-1,-1.091267109E0
3.057948000E1,1.108284071E-1,7.842811346E-1,-8.604996800E-1
3.059948000E1,-1.058891267E-1,8.396953344E-1,-4.027696252E-1
3.061948156E1,3.342305496E-2,9.480977654E-1,9.651670605E-2
3.063948156E1,5.812993646E-1,5.081875324E-1,3.289422095E-1
3.066148156E1,1.068577886E0,1.999100149E-1,1.955117881E-1
3.068348156E1,1.458344817E0,7.579964995E-1,2.007826716E-1
3.070348156E1,2.481666088E0,1.004663825E0,4.880638719E-1
3.072548156E1,3.748949766E0,5.871287733E-2,9.607164860E-1
3.074548156E1,3.816651106E0,-8.038811684E-1,1.790515780E0
3.076548156E1,2.790729046E0,-9.635613561E-1,2.558862209E0
3.078748000E1,1.783761382E0,-5.184326172E-1,2.382740974E0
3.080748156E1,1.112158656E0,9.985377789E-1,1.820779800E0
3.082748156E1,4.867199659E-1,4.129082680E0,1.428325057E0
3.084749406E1,3.336371481E-1,6.727947712E0,1.482988834E0
3.086948000E1,1.170173407E0,5.659928322E0,1.554582238E0
3.088948000E1,1.240073919E0,1.906405687E0,1.275242209E0
3.090948000E1,5.610535145E-1,-2.237058401E0,9.943838716E-1
3.092948156E1,2.401223928E-1,-3.681771994E0,7.975630760E-1
3.095148156E1,2.049016505E-1,-3.094538450E0,4.953244328E-1
3.097348000E1,1.829105020E-1,-1.416858315E0,2.761808932E-1
3.099348156E1,-5.148721393E-3,3.022910282E-2,2.232101560E-1
3.101348156E1,-5.425879359E-1,4.823566377E-1,1.351233870E-1
3.103348156E1,-1.352682471E0,1.326450240E-2,-1.813222617E-1
3.105348156E1,-2.023709297E0,-5.442634821E-1,-7.960272431E-1
3.107348156E1,-2.512349129E0,-5.382421017E-1,-1.528838634E0
3.109348156E1,-2.482189894E0,-3.409500718E-1,-1.931329012E0
3.111348156E1,-1.299450040E0,-8.208807111E-1,-1.601985335E0
3.113348156E1,-4.967207015E-1,-8.246505857E-1,-1.081632853E0
3.115348156E1,-7.179760933E-1,3.620510995E-1,-1.909215599E-1
3.117348156E1,-3.403392136E-1,1.688937664E0,1.223737597E0
3.119548156E1,-7.749261707E-2,1.774371505E0,1.055557728E0
3.121548156E1,-1.791056842E-1,1.614796042E0,-2.055997774E-2
3.123548156E1,-7.646287233E-2,-7.999716401E-1,-9.026842564E-2
3.125748000E1,-1.445481628E-1,-2.972993851E0,2.748893574E-2
3.127748000E1,-5.841791630E-1,-2.267950535E0,-3.033033311E-1
3.129748000E1,-1.221276641E0,-5.122541264E-2,-7.620456815E-1
3.131748000E1,-1.313238144E0,8.529947400E-1,-8.162730336E-1
3.133750500E1,-7.752926946E-1,-1.765575051E0,-1.000283122E0
3.135948000E1,-5.179962516E-1,-7.234564424E-1,-1.212270737E0
3.137948000E1,-1.839751601E-1,7.351326942E-2,-1.072085977E0
3.139948000E1,-4.897044897E-1,-5.068959594E-1,-9.063494802E-1
3.141948156E1,-1.789329052E0,-5.991715193E-1,-8.892103434E-1
3.144148156E1,-1.725659370E0,1.157310367E0,-5.764299035E-1
3.146148156E1,-3.438822329E-1,1.465134144E0,-3.497639671E-2
3.148348156E1,3.605326712E-1,6.541494280E-2,1.476897597E-1
3.150348156E1,3.366740048E-2,-1.149107337E0,1.698205434E-2
3.152548312E1,-3.116808832E-1,-9.168912768E-1,-1.422443334E-2
3.154548312E1,-5.831494331E-1,-4.888667166E-2,-4.942772537E-2
3.156548313E1,-7.066488862E-1,7.495665550E-1,-2.458994389E-1
3.158748000E1,-6.226112843E-1,7.289541960E-1,-4.959352911E-1
3.160748156E1,-6.565753818E-1,-3.125884756E-2,-7.433706522E-1
3.162748469E1,-9.591631293E-1,-6.899635792E-1,-7.303679585E-1
3.164948156E1,-9.535431862E-1,4.479038417E-1,-3.950029016E-1
3.167148000E1,-2.361779511E-1,1.431449175E0,-6.061528623E-2
3.169148000E1,-1.112996489E-1,1.316815972E0,-7.243116386E-3
3.171148000E1,3.174753860E-2,6.142686009E-1,-6.115633622E-2
3.173148000E1,4.493524730E-1,-3.190461919E-2,-6.799802929E-2
3.175148000E1,2.344675362E-1,9.548521638E-1,2.719397545E-1
3.177148000E1,7.511024475E-1,2.777866125E0,6.842214465E-1
3.179148000E1,2.503116369E0,2.733918667E0,7.819772959E-1
3.181148156E1,3.681684732E0,1.940928340E0,9.200328588E-1
3.183348156E1,3.851226091E0,9.604547024E-1,1.165338874E0
3.185348156E1,3.414998531E0,-8.771501184E-1,1.395774722E0
3.187348156E1,2.637524128E0,-2.660475254E0,1.386768818E0
3.189348156E1,1.824165821E0,-1.827289939E0,1.392214179E0
3.191348156E1,1.228537202E0,2.549681664E0,1.243424892E0
3.193348156E1,1.314337611E0,5.093150139E0,1.170470119E0
3.195348156E1,1.808038950E0,3.961059570E0,9.335591793E-1
3.197548000E1,1.410505295E0,7.363718748E-1,5.609662533E-1
3.199548000E1,8.657705784E-1,-6.977651715E-1,4.922003150E-1
3.201548156E1,7.874576449E-1,-1.104444340E-1,3.151017427E-1
3.203748156E1,7.810697556E-1,1.926808596E0,4.136430472E-2
3.205948000E1,5.877221823E-1,3.570280313E0,-8.756317198E-2
3.207948156E1,7.098253816E-2,4.066687107E0,-1.132893190E-1
3.210148156E1,-6.404660344E-1,4.096427441E0,-3.364820182E-1
3.212148156E1,-1.168445587E0,3.425854445E0,-6.924942732E-1
3.214148156E1,-1.558160186E0,2.120435476E0,-1.088073134E0
3.216348000E1,-1.717910171E0,5.341929197E-1,-1.567026377E0
3.218348156E1,-1.626367569E0,-7.633721232E-1,-1.961802483E0
3.220348156E1,-8.991936445E-1,-2.062822104E0,-1.888306618E0
3.222348156E1,-9.178686142E-2,-2.697074652E0,-1.533673167E0
3.224548000E1,-1.370275497E0,-8.646709919E-1,-8.685805798E-1
3.226548938E1,-1.666527629E0,1.661413789E0,5.819102526E-1
3.228748000E1,-9.566149861E-2,4.594928265E0,1.424799562E0
3.230748000E1,1.797689050E-1,3.054954529E0,5.675112605E-1
3.232748156E1,-1.490860283E-1,-9.573131204E-1,-4.471707940E-1
3.234948156E1,-4.738568887E-2,-4.125522137E0,-9.385682344E-1
3.237148000E1,-6.038839370E-2,-5.668393135E0,-7.245385051E-1
3.239148156E1,-4.346916974E-1,-4.191111565E0,-5.818753242E-1
3.241348156E1,-9.205913544E-1,-1.899180055E0,-9.977523685E-1
3.243348156E1,-6.751980782E-1,4.623202682E-1,-1.387990594E0
3.245348156E1,-1.241278127E-1,1.296308398E0,-9.210800529E-1
3.247348156E1,-1.521927118E-2,9.441707730E-1,-4.564385116E-1
3.249348156E1,-5.955761671E-1,3.276681006E-1,-4.014082849E-1
3.251348156E1,-2.058039904E0,7.378728390E-1,-3.444930911E-1
3.253348156E1,-2.629740000E0,1.351286292E0,-6.965608895E-2
3.255348156E1,-6.733480096E-1,1.774179578E0,-3.086440265E-1
3.257348156E1,7.478386760E-1,6.821619272E-1,-4.659505486E-1
3.259348156E1,5.711590052E-1,-8.389273882E-1,-5.035449266E-1
3.261548000E1,-1.094845012E-1,-1.665794611E0,-5.575104952E-1
3.263548000E1,-5.108404160E-1,-1.122124553E0,-6.465746760E-1
3.265548156E1,-5.049237609E-1,-4.374667704E-1,-5.825036168E-1
3.267748156E1,-3.967657089E-1,-3.337593079E-1,-5.740736723E-1
3.269948000E1,-4.654269516E-1,-7.329684496E-1,-6.408150792E-1
3.271948156E1,-5.371250510E-1,-1.048995256E0,-6.759834886E-1
3.274148000E1,-4.920606613E-1,-1.165094495E0,-6.126454473E-1
3.276148156E1,-2.407856286E-1,-1.159125566E0,-6.046518683E-1
3.278348156E1,5.571090803E-2,-8.911476731E-1,-6.939603686E-1
3.280348156E1,3.628539667E-2,-5.153259039E-1,-6.073571444E-1
3.282348156E1,-4.109726846E-1,3.136182129E-1,-3.342131078E-1
3.284348156E1,5.771803856E-2,9.283755422E-1,-3.176673651E-1
3.286348156E1,1.208675385E0,2.024232894E-1,-4.667184949E-1
3.288548000E1,1.723076344E0,-3.273714185E-1,-1.694540232E-1
3.290548000E1,1.643803477E0,3.758217394E-1,4.570493698E-1
3.292548000E1,2.061862230E0,7.953116298E-1,1.061334729E0
3.294548156E1,3.076020718E0,-9.311156869E-1,1.582123518E0
3.296748156E1,3.456816673E0,-3.326091290E0,1.853888750E0
3.298948000E1,2.926795006E0,-3.830526352E0,1.461538672E0
3.300948000E1,2.315737724E0,-3.732142210E0,1.086362720E0
3.302948000E1,1.771491766E0,-2.952608347E0,1.077985168E0
3.304948000E1,1.354829311E0,-1.828494191E0,1.104025483E0
3.306948156E1,1.232185006E0,-1.158148170E0,1.167852163E0
3.309148156E1,1.346765876E0,-9.371021986E-1,1.443718910E0
3.311348156E1,1.317165017E0,-6.565928459E-2,1.801633596E0
3.313348156E1,1.107882619E0,4.364021122E-1,1.878637552E0
3.315348156E1,5.659928322E-1,5.602506921E-3,1.757651329E0
3.317348156E1,-2.741214037E-1,-8.691914082E-1,1.421692848E0
3.319348156E1,-1.102629185E0,-1.726497173E0,9.772621989E-1
3.321348156E1,-1.462533593E0,-2.497915268E0,7.094239593E-1
3.323348156E1,-1.316641450E0,-3.173497200E0,6.511299610E-1
3.325348156E1,-1.132317305E0,-3.743958235E0,6.464001536E-1
3.327348156E1,-1.169213533E0,-4.335293293E0,6.152285337E-1
3.329348156E1,-1.578440905E0,-5.236616135E0,3.473554254E-1
3.331549094E1,-2.523117781E0,-6.525751114E0,-3.359758854E-2
3.333750812E1,-2.957251072E0,-7.289908409E0,1.530304700E-1
3.335948000E1,-2.231787443E0,-6.980636120E0,6.681993008E-1
3.337948000E1,-2.885901928E-1,-8.503663063E0,3.827506900E-1
3.339948000E1,3.062005639E-1,-7.204596996E0,8.604472876E-2
3.341948000E1,-6.211626902E-2,-2.301251411E0,-3.950727284E-1
3.343948000E1,-2.061931938E-1,2.340695858E0,-7.966032028E-1
3.345948000E1,-1.802401543E-1,4.543720245E0,-8.022406101E-1
3.347948000E1,-7.941248268E-2,5.057946682E0,-4.791975915E-1
3.349948156E1,3.129200935E-1,3.257988691E0,-1.237089336E-1
3.352148156E1,4.130845368E-1,-1.314791441E0,-3.067416251E-1
3.354348156E1,-1.711295396E-1,-5.476127625E0,-5.888042450E-1
3.356348156E1,-9.665458798E-1,-7.549334526E0,-8.561189175E-1
3.358348156E1,-2.639129877E0,-4.986911774E0,-7.087432742E-1
3.360548000E1,-3.072896481E0,5.201779008E-1,1.775872558E-1
3.362548000E1,-1.550323606E0,1.266149044E0,6.978873610E-1
3.364548000E1,-7.780677825E-2,2.153526783E0,1.190890551E0
3.366549875E1,3.720692992E-1,-1.165007278E-1,1.214365125E0
3.368748156E1,1.035887837E0,-2.636162758E0,2.153038085E-1
3.370948000E1,1.631900311E0,-2.954528332E0,-3.338291347E-1
3.372948156E1,1.773952603E0,-2.868675470E0,-1.991944313E-1
3.375148000E1,1.438238621E0,-2.211384535E0,3.057991266E-1
3.377148000E1,5.512622595E-1,-1.210525513E0,6.415132284E-1
3.379148000E1,-3.384891450E-1,-4.688652456E-1,6.367484927E-1
3.381148156E1,-3.442836404E-1,-7.980169058E-1,6.118426323E-1
3.383348156E1,4.162610322E-2,-1.243180513E0,5.924519897E-1
3.385348156E1,2.546435297E-1,-1.449932218E0,5.437747836E-1
3.387348156E1,2.442239225E-1,-1.278750420E0,4.778711498E-1
3.389348156E1,-8.662418127E-1,-7.065790892E-1,7.559544444E-1
3.391348156E1,-5.200383067E-1,-6.560343504E-1,5.488362312E-1
3.393548156E1,1.128460050E0,-7.189010978E-1,1.117534339E-1
3.395548156E1,1.688588619E0,-5.450837612E-1,2.291093767E-1
3.397749406E1,1.413175583E0,-6.082472205E-1,4.872959256E-1
3.399948156E1,1.032327294E0,-9.902823567E-1,4.108854234E-1
3.402148156E1,9.356535673E-1,-1.003319979E0,3.935543001E-1
3.404348156E1,1.117324829E0,-1.195864677E0,4.465774000E-1
3.406348156E1,1.294877172E0,-1.449810147E0,4.640306830E-1
3.408348156E1,1.168480515E0,-1.558561563E0,5.675287247E-1
3.410348156E1,6.976081133E-1,-1.616506457E0,7.218332887E-1
3.412348156E1,8.737118542E-2,-1.608512878E0,7.710864544E-1
3.414348156E1,1.405548573E0,-1.409842014E0,4.816410542E-1
3.416548156E1,2.299069881E0,-3.940080702E-1,1.531351954E-1
3.418748000E1,7.303155661E-1,1.517057657E0,-3.804294169E-1
3.420748000E1,-9.801769257E-2,1.385669231E0,-5.150466561E-1
3.422748000E1,1.358913332E-1,2.991668880E-1,-6.689847261E-2
3.424748000E1,7.171906829E-1,-4.934220314E-1,1.328020990E-1
3.426748000E1,8.927882910E-1,-7.561115623E-1,-8.108799905E-2
3.428748156E1,3.353824615E-1,-5.865527987E-1,-8.141960949E-2
3.430748469E1,-3.401122987E-1,-3.858922794E-2,5.044001341E-2
3.432949719E1,-9.094910622E-1,6.772924662E-1,1.418429017E-1
3.435148000E1,-1.939060725E-2,1.249777913E0,-4.272391498E-1
3.437148000E1,7.937757671E-2,2.173632979E-1,-8.875348568E-1
3.439148000E1,-1.179807663E0,-8.853880763E-1,-7.336840630E-1
3.441148000E1,-2.011561871E0,-1.294021964E0,-4.961447418E-1
3.443148000E1,-1.845441341E0,-1.486392140E0,-6.509031057E-1
3.445148156E1,-1.665637493E0,-9.791995287E-1,-9.197710752E-1
3.447348156E1,-1.888167024E0,1.430559158E0,-6.941698194E-1
3.449348156E1,-1.974578261E0,2.080554724E0,-2.771757245E-1
3.451348156E1,-1.670472026E0,1.071789265E0,-1.769938320E-1
3.453348156E1,-1.471818686E0,4.868595898E-1,-1.561895162E-1
3.455348156E1,-1.504037499E0,1.053288698E0,-1.580570191E-1
3.457348156E1,-1.700212479E0,2.507252693E0,3.073524870E-2
3.459348156E1,-1.116888523E0,4.236141205E0,5.942322612E-1
3.461348156E1,-3.375466913E-2,2.624957800E0,5.692216754E-1
3.463348156E1,3.363249600E-1,6.767165065E-1,2.121098638E-1
3.465348156E1,6.437472105E-1,2.656390965E-1,3.624874353E-1
3.467348156E1,3.594680130E-1,3.262718618E-1,4.082848728E-1
3.469348156E1,-4.134684801E-2,-3.769212961E-1,3.669729233E-1
3.471348156E1,-2.094569653E-1,-5.670400262E-1,4.601036906E-1
3.473548156E1,-1.459967941E-1,7.339458466E-1,7.220252752E-1
3.475748156E1,3.278950155E-1,5.130569935E-1,7.302457690E-1
3.477948156E1,1.249690652E0,-1.158968449E0,5.587671399E-1
3.480148000E1,1.781091094E0,-1.641831279E0,1.985661089E-1
3.482148000E1,1.804338813E0,-6.156823635E-1,-1.987930015E-2
3.484148000E1,1.233197331E0,9.327912331E-1,4.602433369E-2
3.486148000E1,7.673863769E-1,1.359332204E0,5.403539166E-2
3.488148000E1,7.056016922E-1,1.105247140E0,7.731808722E-2
3.490148000E1,6.611481905E-1,8.274955153E-1,2.627418637E-1
3.492148000E1,5.830970407E-1,1.007508755E0,5.058313012E-1
3.494148156E1,6.287373900E-1,1.614726305E0,7.197039723E-1
3.496348000E1,8.313352466E-1,2.198765755E0,5.316796303E-1
3.498348156E1,1.056308150E0,2.600558043E0,1.571668983E-1
3.500348156E1,1.099068761E0,2.646163464E0,-9.524261951E-2
3.502348156E1,7.781026959E-1,1.926948190E0,-2.253569067E-1
3.504348625E1,4.324751198E-1,7.980692387E-1,-3.924023807E-1
3.506548156E1,1.608146429E-1,-4.267504513E-1,-5.494471192E-1
3.508548156E1,-1.545488983E-1,-7.538251281E-1,-6.104637980E-1
3.510748000E1,-5.993635058E-1,6.699969769E-1,-5.181707740E-1
3.512748781E1,-2.498962432E-1,1.529589057E0,-8.989143968E-1
3.514948000E1,2.214822732E-2,6.429094672E-1,-1.474663615E0
3.516948000E1,5.232846141E-1,1.126086414E-1,-1.240457892E0
3.518948000E1,8.835729361E-1,1.527006030E0,-5.195496082E-1
3.520948000E1,3.609340787E-1,1.921694756E0,-3.281219006E-1
3.522948000E1,-2.045525797E-2,9.537875056E-1,-6.116506457E-1
3.524948000E1,3.229557276E-1,3.148922920E-1,-5.020439625E-1
3.526948000E1,1.056779385E0,1.475588560E0,6.981316837E-4
3.528948000E1,1.239969134E0,2.337973356E0,5.010491014E-1
3.530948000E1,1.903979629E-1,-9.535955191E-1,1.896125674E-1
3.532950344E1,-1.151219130E0,-4.429261684E0,-6.645864844E-1
3.535148000E1,-1.640679359E0,-5.275117874E0,-1.076187491E0
3.537148000E1,-1.275748372E0,-4.381055832E0,-8.616690636E-1
3.539148000E1,-9.429141283E-1,-2.905275106E0,-5.362000465E-1
3.541148000E1,-1.259586692E0,1.406089544E0,-4.886921961E-3
3.543148000E1,-2.351307631E0,5.137987614E0,1.409527957E-1
3.545148156E1,-2.407507181E0,6.504144073E-1,-5.142089128E-1
3.547348156E1,-2.042960167E0,-2.644819498E0,-5.474573970E-1
3.549348156E1,-2.023290396E0,-2.512855291E0,-2.291966379E-1
3.551348156E1,-2.508142948E0,1.141183496E0,7.131415606E-2
3.553348156E1,-2.152898550E0,1.171831489E0,2.866179645E-1
3.555348156E1,-1.752624750E0,6.013880968E-1,7.035945654E-1
3.557348156E1,-7.417998314E-1,1.435725331E0,9.138369560E-1
3.559348156E1,4.405210912E-2,1.631847978E0,9.021257758E-1
3.561348156E1,6.917612553E-1,2.443460980E-4,9.862855673E-1
3.563348313E1,6.833138466E-1,-1.851968914E-1,6.509903669E-1
3.565548156E1,1.507789940E-1,-2.124938369E-1,3.885801136E-1
3.567748000E1,1.916546077E-1,9.019861370E-2,6.521946192E-1
3.569748000E1,6.483025551E-1,2.928487957E-1,8.195193410E-1
3.571748000E1,1.143818974E0,-9.368927032E-2,8.168315291E-1
3.573748000E1,1.452759743E0,-4.366639256E-1,7.239451408E-1
3.575748156E1,1.388269782E0,-4.499633312E-1,4.424933195E-1
3.577948156E1,9.630726576E-1,-5.172981620E-1,6.702064537E-3
3.580148000E1,6.247929931E-1,-4.699473381E-1,-4.532619938E-2
3.582148156E1,6.453704238E-1,-2.124065757E-1,6.819001585E-2
3.584348156E1,8.123635054E-1,1.241801754E-1,2.825513482E-1
3.586348156E1,9.421636462E-1,3.112620115E-1,4.389677644E-1
3.588348156E1,9.986425042E-1,4.523544312E-1,4.131892323E-1
3.590348156E1,9.937730432E-1,7.934441566E-1,2.799507976E-1
3.592348781E1,9.109396935E-1,9.903172851E-1,1.887748092E-1
3.594548156E1,9.018639922E-1,1.107481241E0,2.459518015E-1
3.596748156E1,1.025747418E0,1.421710253E0,3.597996235E-1
3.598948000E1,8.656483889E-1,1.459426880E0,2.193878889E-1
3.600948156E1,6.839596033E-1,1.367884398E0,1.233947743E-2
3.603148000E1,5.801649094E-1,1.493356109E0,-2.343278974E-1
3.605148000E1,4.912403822E-1,1.569766521E0,-4.156152606E-1
3.607148000E1,2.765299678E-1,5.394987464E-1,-4.487241507E-1
3.609148000E1,3.141592816E-2,-5.468640327E-1,-4.482354522E-1
3.611148000E1,-4.217064381E-1,1.240929123E-2,-5.064771175E-1
3.613148000E1,-9.994104505E-1,2.174558163E0,-4.184601307E-1
3.615148000E1,-6.642723083E-1,2.210005760E0,-5.872160196E-1
3.617148156E1,6.526833177E-1,3.308271468E-1,-8.141088486E-1
3.619348156E1,1.507371068E0,-2.497566193E-1,-1.922829300E-1
3.621348156E1,1.040355802E0,1.004646420E0,1.047721133E-1
3.623548156E1,4.485496134E-2,4.268202782E-1,-9.628981352E-2
3.625748156E1,1.624726951E-1,-1.366418302E-1,-4.304156601E-1
3.627948156E1,9.517105818E-1,7.094239593E-1,-3.957883120E-1
3.629948156E1,1.581774473E0,1.483721852E0,-9.477137588E-3
3.632148156E1,1.404955149E0,8.851436973E-1,5.742133260E-1
3.634348156E1,-3.878994286E-1,-2.604066133E0,1.755452156E-1
3.636348156E1,-1.762171626E0,-4.796391487E0,-6.560867429E-1
3.638348156E1,-1.997634053E0,-4.852748394E0,-9.898460507E-1
3.640548000E1,-1.344392180E0,-3.754447460E0,-7.276975513E-1
3.642548000E1,-4.287575781E-1,-1.170016408E0,-5.606172085E-1
3.644548156E1,-2.907020450E-1,2.073608160E0,-2.445206344E-1
3.646549562E1,-1.678867102E0,2.434891462E0,-9.162978828E-2
3.648748000E1,-2.500201702E0,-9.664062858E-1,-6.537654400E-1
3.650748000E1,-2.130348921E0,-2.683286667E0,-6.298020482E-1
3.652748156E1,-1.810325265E0,-2.308093309E0,-8.937831223E-2
3.654748156E1,-1.917244196E0,-1.563989520E-1,9.307841212E-2
3.656948156E1,-2.016658068E0,1.447192073E0,4.260872304E-1
3.658948312E1,-1.835405707E0,3.572008371E0,9.225286841E-1
3.661148156E1,-8.317366242E-1,3.731322050E0,8.411788940E-1
3.663348156E1,2.047445774E-1,6.846752167E-1,4.047069550E-1
3.665348156E1,3.144210577E-1,-5.291664004E-1,3.671649098E-1
3.667348156E1,1.745329209E-4,-2.727600634E-1,4.107981324E-1
3.669348156E1,-1.889842451E-1,-1.323465705E0,3.418052793E-1
3.671348156E1,-7.248701453E-1,-9.383239150E-1,9.953612834E-2
3.673348156E1,-4.259127080E-1,1.296989083E0,5.340358615E-1
3.675348156E1,8.733627796E-1,4.208512306E-1,7.910181284E-1
3.677348156E1,1.452061534E0,-8.972388506E-1,3.953519762E-1
3.679348156E1,1.245711327E0,-7.322354317E-1,1.110727564E-1
3.681549875E1,5.861513615E-1,-1.537809670E-1,-1.877799779E-1
3.683748000E1,1.360833198E-1,-3.490134776E-1,-3.255737126E-1
3.685748000E1,3.523819894E-2,-2.242922634E-1,-2.578549385E-1
3.687748000E1,3.672870994E-1,-1.795245707E-1,1.732239276E-1
3.689748156E1,7.406129837E-1,-3.872885704E-1,4.026300013E-1
3.691948000E1,8.957553506E-1,-4.062602818E-1,3.351206779E-1
3.693948000E1,9.402786493E-1,-2.123192996E-1,1.918989569E-1
3.695948000E1,1.018504381E0,-4.956734926E-2,1.627519578E-1
3.697948000E1,1.144883633E0,1.311963946E-1,2.105041593E-1
3.699948000E1,1.193508506E0,3.995058537E-1,2.628291249E-1
3.701948000E1,1.196056724E0,7.722907662E-1,2.363350391E-1
3.703948000E1,1.196719885E0,7.522369027E-1,-2.654645778E-2
3.705948000E1,1.155093789E0,4.604004025E-1,-1.802227050E-1
3.707948000E1,1.094234228E0,-1.855284907E-2,-2.941054404E-1
3.709948000E1,9.927956462E-1,-5.274035931E-1,-4.206418097E-1
3.711948156E1,7.555356026E-1,-1.187382340E0,-3.911457360E-1
3.713948156E1,2.611187100E-1,-1.348005056E0,-1.327497363E-1
3.716148000E1,-7.090749145E-1,4.135732055E-1,4.710119963E-1
3.718148000E1,-7.014129162E-1,1.175653815E0,5.546307564E-1
3.720148000E1,-2.663197815E-1,1.402005553E0,4.009893835E-1
3.722148000E1,-8.157669008E-2,5.127253532E-1,3.081378639E-1
3.724148000E1,9.209229946E-1,1.849350929E-1,1.546536237E-1
3.726148000E1,1.289710999E0,1.220979929E0,2.051459998E-1
3.728148000E1,5.704085231E-1,1.969464421E0,8.129743487E-2
3.730148000E1,2.141693532E-1,1.450804949E0,8.822639287E-2
3.732148000E1,6.095562577E-1,7.941422462E-1,2.982942164E-1
3.734148000E1,1.343641758E0,1.242656946E0,6.867870688E-1
3.736148000E1,1.229409933E0,2.015872717E0,1.092960119E0
3.738148000E1,-1.810779124E-1,-3.621209264E-1,6.498209834E-1
3.740148000E1,-1.141096234E0,-2.369424105E0,-3.624350727E-1
3.742148000E1,-1.141829252E0,-2.406075954E0,-8.756840229E-1
3.744148000E1,7.077310085E-1,-2.095669270E0,-1.928868055E0
3.746148000E1,1.805560589E0,-1.358145356E0,-2.092300653E0
3.748148000E1,8.268671632E-1,5.796238407E-2,-1.035067558E0
3.750148000E1,-2.005121469E0,5.330235362E-1,-3.097086847E-1
3.752148000E1,-2.820940733E0,-6.523517370E-1,-6.160139441E-1
3.754148000E1,-2.054287434E0,-1.942132592E0,-1.051944852E0
3.756148000E1,-1.295173883E0,-7.831292152E-1,-1.130013466E0
3.758148000E1,-1.384185672E0,1.842421889E0,-7.890110016E-1
3.760148156E1,-1.772085190E0,1.312923908E0,-4.490906596E-1
3.762348156E1,-2.200668097E0,7.584328055E-1,-4.497364461E-1
3.764348156E1,-2.456620693E0,6.420542598E-1,-4.253541827E-1
3.766348156E1,-2.049714565E0,1.865058780E0,6.480407715E-2
3.768548000E1,-1.460910439E0,3.673883200E0,-2.373647690E-2
3.770548156E1,-9.627061486E-1,3.161873341E0,3.105638921E-1
3.772548156E1,-8.215264678E-1,9.786933661E-1,8.308465481E-1
3.774549250E1,-5.263563991E-1,-7.952418327E-1,7.824659944E-1
3.776748000E1,1.339540184E-1,-5.058487654E-1,6.485818028E-1
3.778748000E1,5.464974642E-1,-1.907994002E-1,6.816034317E-1
3.780748000E1,8.313701153E-1,-8.532739878E-1,5.927836299E-1
3.782748156E1,1.043113470E0,-1.074756265E0,5.899910927E-1
3.784749406E1,1.181238890E0,-8.716349006E-1,4.015828073E-1
3.786948000E1,1.179039717E0,-4.846604764E-1,1.998576522E-1
3.788948000E1,9.948551059E-1,-6.925466657E-2,-1.972221956E-2
3.790948000E1,8.288917542E-1,-6.579891592E-2,-4.719370231E-2
3.792948000E1,7.962715626E-1,-2.427927554E-1,7.963937521E-2
3.794948000E1,7.907039523E-1,-3.092199862E-1,2.323556840E-1
3.796948156E1,8.316668272E-1,-2.970201373E-1,3.381575346E-1
3.799148000E1,9.569989443E-1,-2.730044127E-1,3.308271468E-1
3.801148000E1,1.060392261E0,-1.465029418E-1,2.904576957E-1
3.803148000E1,1.081912160E0,3.869220316E-1,2.829702199E-1
3.805148000E1,1.135685682E0,1.361548781E0,3.190461993E-1
3.807148000E1,1.432862997E0,2.206253290E0,3.407755494E-1
3.809148000E1,1.477578282E0,2.082474470E0,2.206096202E-1
3.811148000E1,1.362735629E0,1.454470158E0,-1.896823794E-1
3.813148000E1,1.220561147E0,2.667037547E-1,-4.463330507E-1
3.815148000E1,9.636486173E-1,-1.547862649E0,-5.166872740E-1
3.817148156E1,1.230108067E-1,-2.592424870E0,-5.348910689E-1
3.819348156E1,-9.161931276E-1,-1.884466887E0,-2.916270494E-1
3.821348156E1,-1.174536824E0,-4.088084698E-1,-7.756242901E-2
3.823548000E1,-1.392144442E0,2.577275276E0,9.255480766E-2
3.825548000E1,-3.070034087E-1,2.734407425E0,-7.853632569E-1
3.827548000E1,6.305001974E-1,-8.633445501E-1,-1.135109782E0
3.829548156E1,9.347285032E-1,-6.627713442E-1,-7.137523890E-1
3.831548156E1,5.814389586E-1,1.606174111E0,-3.245963454E-1
3.833751750E1,6.096958518E-1,3.262561321E0,-3.618591130E-1
3.835948156E1,8.488757610E-1,3.680602789E0,-4.359832406E-1
3.838148156E1,1.082994223E0,3.971915483E0,-3.040189147E-1
3.840348156E1,1.362561107E0,4.087630749E0,2.691297829E-1
3.842348156E1,5.090252757E-1,9.913819432E-1,3.909362853E-1
3.844348156E1,-1.369839072E0,-4.021064281E0,-4.965636134E-1
3.846548000E1,-2.271179438E0,-6.418867111E0,-9.044121504E-1
3.848548000E1,-1.851549983E0,-5.631426811E0,-5.835159421E-1
3.850548000E1,-9.994279146E-1,-2.709239721E0,-1.972571164E-1
3.852548156E1,-3.927688897E-1,1.698275208E0,-3.490658477E-2
3.854748000E1,-1.540567160E0,4.787437916E0,3.533419073E-1
3.856748000E1,-2.872393131E0,8.441110253E-1,-1.517912894E-1
3.858748000E1,-2.360592604E0,-3.167214155E0,-7.792894840E-1
3.860748000E1,-1.916825294E0,-3.773715973E0,-3.596076369E-1
3.862748000E1,-1.760880113E0,-6.400122494E-2,2.880316973E-1
3.864748000E1,-2.195519447E0,9.926559925E-1,4.474326074E-1
3.866748000E1,-1.844010115E0,1.651430488E0,9.043946862E-1
3.868748156E1,-9.705426693E-1,2.043501377E0,1.011016846E0
3.870948000E1,-5.651376024E-2,4.099778458E-2,2.403841913E-1
3.872948156E1,3.068637848E-1,-2.852216959E-1,5.844234824E-1
3.875148000E1,4.626518786E-1,1.089643955E0,5.950350761E-1
3.877148000E1,6.773623079E-2,-8.229227662E-1,4.410796165E-1
3.879148000E1,-1.923178285E-1,-7.968475223E-1,2.366142869E-1
3.881148156E1,5.288347602E-1,1.909913868E-1,6.008296013E-1
3.883148156E1,1.173838615E0,-9.019163251E-1,7.060205936E-1
3.885348156E1,1.289623737E0,-2.036991119E0,5.950002074E-1
3.887348156E1,1.297966480E0,-1.664921880E0,4.026300013E-1
3.889348156E1,1.114061117E0,-1.155425429E0,2.367015481E-1
3.891548000E1,7.765493393E-1,-1.207907438E0,4.464552179E-2
3.893548000E1,7.646985650E-1,-1.128617167E0,-2.715732343E-2
3.895548156E1,7.935662866E-1,-1.064039946E0,3.333579004E-2
3.897548156E1,7.364940643E-1,-1.018137813E0,2.883458436E-1
3.899748000E1,8.215264678E-1,-5.107706189E-1,4.204847217E-1
3.901748000E1,1.178306699E0,2.424087822E-1,3.559249938E-1
3.903748156E1,1.624046326E0,9.227381349E-1,2.771757245E-1
3.905948000E1,1.762224078E0,1.350500822E0,1.807463020E-1
3.907948156E1,1.716758251E0,1.195917010E0,5.693263933E-2
3.910148156E1,1.702987552E0,5.278224945E-1,-8.018042892E-2
3.912148156E1,1.459200025E0,-7.586946338E-2,-1.198343039E-1
3.914148156E1,8.857371211E-1,-4.581314623E-1,-1.067966968E-1
3.916348156E1,-4.761258140E-2,-1.290845573E-1,-1.084896624E-1
3.918348156E1,-7.844556570E-1,6.033254266E-1,-7.709119469E-2
3.920348156E1,-1.776116848E0,1.133347034E0,1.509186178E-1
3.922348156E1,-1.461975098E0,5.420294404E-1,-1.369036287E-1
3.924348156E1,2.198940367E-1,-1.611462533E-1,-8.842884898E-1
3.926548000E1,1.076536536E0,2.559176385E-1,-1.090167522E0
3.928548000E1,1.111216187E0,1.636961699E0,-1.413891166E-1
3.930548156E1,7.244163752E-1,1.863156438E0,-1.610938832E-2
3.932748312E1,3.329564631E-1,1.180785060E0,-2.159844935E-1
3.934948000E1,6.045820713E-1,8.887391090E-1,-3.544239998E-1
3.936948156E1,1.163331747E0,2.692763805E0,-1.135685742E-1
3.939148156E1,-1.350884885E-1,2.348864079E0,2.234021435E-3
3.941348156E1,-2.408048153E0,-2.675450087E0,-3.617892861E-1
3.943348156E1,-2.856283665E0,-4.855174541E0,-8.513192534E-1
3.945348156E1,-1.741280079E0,-3.801117659E0,-9.021607041E-1
3.947348156E1,-2.645570040E-1,-2.072700739E0,-7.773347497E-1
3.949348156E1,6.985505819E-1,1.110744953E0,-4.733332992E-1
3.951548156E1,-1.936477661E0,3.314258099E0,-1.618792862E-1
3.953748625E1,-3.652817011E0,-1.315000892E0,-8.849866390E-1
3.955948000E1,-2.651608944E0,-4.320667267E0,-8.104436398E-1
3.957948000E1,-1.707752347E0,-3.365117073E0,3.932226822E-2
3.959948000E1,-1.395512938E0,4.037120938E-1,3.785619140E-1
3.961948156E1,-2.306731939E0,3.885067940E0,4.506440163E-1
3.963948156E1,-1.996639252E0,2.190388203E0,3.396759629E-1
3.966148000E1,-2.404016554E-1,1.128582239E0,2.050761878E-2
3.968148156E1,1.268330812E-1,1.749029398E0,-1.568876505E-1
3.970348156E1,-2.459867001E-1,2.162131310E0,9.602801502E-2
3.972348156E1,-4.224045873E-1,2.261597663E-1,6.213372201E-2
3.974348156E1,-8.787558079E-1,-1.602474093E0,-7.423583269E-1
3.976548000E1,-1.349610686E0,2.747951031E0,-3.677583337E-1
3.978548000E1,9.826028943E-1,2.230653048E0,1.131706357E0
3.980548156E1,2.454561234E0,-1.243320227E0,1.104200006E0
3.982748000E1,1.575421453E0,-2.895728111E0,5.761681199E-1
3.984749406E1,4.103967249E-1,-2.180928469E0,2.531076372E-1
3.986948156E1,2.291791886E-1,-7.272089124E-1,1.863837093E-1
3.989148156E1,4.938932657E-1,5.543689132E-1,4.104141593E-1
3.991348156E1,8.836427331E-1,6.933494806E-1,4.575729668E-1
3.993348156E1,1.221852660E0,1.850921661E-1,3.922976553E-1
3.995348156E1,1.325926661E0,-3.534291685E-2,3.611958921E-1
3.997348156E1,1.251558185E0,4.932300374E-2,5.664989948E-1
3.999348156E1,9.853430986E-1,5.613327622E-1,6.367135644E-1
4.001348156E1,9.295449257E-1,1.110570431E0,6.140940785E-1
4.003348156E1,1.112769604E0,1.297215939E0,5.188863873E-1
4.005348156E1,1.165146947E0,1.302574158E0,3.236887753E-1
4.007348156E1,1.134027719E0,9.032253623E-1,4.913101718E-2
4.009348156E1,9.305397272E-1,1.865756959E-1,-4.890412465E-2
4.011348156E1,6.836454868E-1,-4.435579777E-1,-1.998227388E-1
4.013348313E1,4.836307466E-1,-1.000492573E0,-3.453831971E-1
4.015548156E1,3.978652656E-1,-1.076292157E0,-4.039215446E-1
4.017748000E1,2.273640335E-1,-4.396135211E-1,-3.559075296E-1
4.019748156E1,-5.834984779E-1,-9.174847007E-1,-1.820029318E-1
4.021948156E1,-4.620060921E-1,5.963615775E-1,-4.136430323E-1
4.023948156E1,2.158448696E-1,2.088548183E0,-5.132315159E-1
4.025948156E1,6.199933290E-1,2.660318136E0,-5.558699369E-1
4.027948156E1,1.112106323E0,3.178192139E0,-1.418778151E-1
4.029948156E1,1.206703186E0,2.893511534E0,1.990198940E-1
4.031948156E1,9.765466452E-1,1.689234376E0,1.674294323E-1
4.034148000E1,1.068717480E0,1.802576035E-1,5.529202893E-2
4.036148000E1,1.295261145E0,-2.741563320E-1,-5.333726108E-2
4.038148156E1,1.199669480E0,3.821049333E-1,-2.232276089E-2
4.040348156E1,6.330832839E-1,1.132090330E0,1.931730360E-1
4.042348156E1,-6.021560431E-1,-1.137431040E-1,6.298892945E-2
4.044348156E1,-1.712167978E0,-1.802907705E0,-4.026823640E-1
4.046348156E1,-1.813973069E0,-2.432674885E0,-8.018217087E-1
4.048349094E1,-6.486690640E-1,-1.754562020E0,-1.047424436E0
4.050548781E1,6.752678752E-2,-3.500083387E-1,-7.206813693E-1
4.052748000E1,-9.263160229E-1,-7.089527696E-2,-5.422388911E-1
4.054748000E1,-2.181434631E0,-1.679041624E0,-8.085935712E-1
4.056748000E1,-2.471246481E0,-3.208264112E0,-9.134005904E-1
4.058748000E1,-2.039801121E0,-3.099408150E0,-6.547428370E-1
4.060748000E1,-1.683125734E0,-1.552191138E0,-3.539876640E-1
4.062748000E1,-1.646491289E0,9.293878078E-2,-1.132544130E-1
4.064748000E1,-1.706495643E0,2.465975732E-1,7.024950534E-2
4.066748000E1,-1.710527420E0,1.768716723E-1,2.191435397E-1
4.068748156E1,-1.773813009E0,3.641280532E-1,2.931804061E-1
4.070948000E1,-9.548696280E-1,1.665166259E0,1.299746633E-1
4.072948781E1,-1.665393114E-1,2.635028362E0,4.194026068E-2
4.075148000E1,-4.347789586E-1,2.437108040E0,3.271270692E-1
4.077148000E1,-6.729117036E-1,1.410941601E0,5.407902598E-1
4.079148000E1,-4.976631701E-1,-4.564385116E-1,4.699822664E-1
4.081148156E1,-5.925567150E-1,6.146177053E-1,6.986203790E-1
4.083348156E1,5.917713046E-1,2.570677996E0,1.604044795E0
4.085348156E1,1.811005950E0,-2.942450643E-1,1.496724606E0
4.087348156E1,1.956217408E0,-3.329320192E0,1.063254595E0
4.089348156E1,1.668918729E0,-3.915349483E0,6.186494231E-1
4.091348156E1,1.081214070E0,-2.561654568E0,3.981968760E-1
4.093348156E1,5.898514986E-1,-1.086502314E0,2.366317362E-1
4.095548156E1,4.182157815E-1,-3.083822131E-1,1.637118906E-1
4.097748156E1,6.151412725E-1,-7.651523501E-2,3.005980551E-1
4.099948156E1,9.313774705E-1,-8.932594955E-2,4.994608760E-1
4.102148000E1,1.026759744E0,-1.513200440E-2,5.319763422E-1
4.104148000E1,1.024194121E0,2.151118368E-1,5.110847354E-1
4.106148000E1,1.020720959E0,5.379628539E-1,5.283635259E-1
4.108148000E1,1.030075908E0,9.802467227E-1,5.118352771E-1
4.110148156E1,1.049204707E0,1.557270050E0,3.815638721E-1
4.112148156E1,1.093762875E0,2.118916988E0,2.039591819E-1
4.114148156E1,1.113275766E0,2.155307055E0,2.141519077E-2
4.116348156E1,8.292059302E-1,1.005728483E0,-6.887069345E-2
4.118348156E1,-1.038470864E-2,-1.040792227E0,-1.682322919E-1
4.120348156E1,-7.274706960E-1,-2.117032051E0,-3.201457560E-1
4.122348156E1,-9.171355963E-1,-1.843277097E0,-4.835434556E-1
4.124348156E1,-9.205738902E-1,-3.844960406E-2,-5.295329094E-1
4.126348156E1,-2.234195918E-1,6.972066760E-1,-7.939502597E-1
4.128548000E1,3.750014305E-1,4.868595898E-1,-9.480628371E-1
4.130548156E1,1.006095052E0,2.482381821E0,-1.168323383E-1
4.132748156E1,9.303302765E-1,3.335551023E0,4.025951028E-1
4.134948000E1,5.952096581E-1,1.354218364E0,1.312487572E-1
4.136948000E1,7.229328156E-1,5.708971992E-2,-1.095194072E-1
4.138948156E1,1.265101910E0,7.546977997E-1,-6.897541136E-2
4.141148000E1,1.445917964E0,2.121866465E0,4.460363388E-1
4.143148000E1,1.967858672E-1,-2.421120703E-1,3.665365875E-1
4.145148000E1,-1.388706088E0,-3.893044233E0,-3.949331045E-1
4.147148000E1,-1.968801260E0,-5.190801144E0,-1.088352442E0
4.149148000E1,-1.467821836E0,-4.359029770E0,-1.197313309E0
4.151148000E1,-5.150990486E-1,-2.390018940E0,-8.437270522E-1
4.153148156E1,-2.213426530E-1,-1.516516656E-1,-3.886673748E-1
4.155348156E1,-1.446354389E0,4.929856956E-1,-2.862688899E-1
4.157348156E1,-2.770989418E0,-1.962884545E0,-3.885102868E-1
4.159348156E1,-2.532786846E0,-4.063667774E0,-6.580764055E-1
4.161548000E1,-1.863313556E0,-3.433411598E0,-4.854284227E-1
4.163548000E1,-1.577341318E0,-6.671870351E-1,2.078687213E-2
4.165548156E1,-1.676598191E0,1.563745141E0,1.396088898E-1
