"Time (s)","Linear Acceleration x (m/s^2)","Linear Acceleration y (m/s^2)","Linear Acceleration z (m/s^2)"
1.000156200E-2,3.745299816E0,2.436999977E-1,-8.402000070E-1
4.000000000E-2,6.971899986E0,2.827999890E-1,5.688299656E0
6.000000000E-2,5.437799931E0,-1.038999915E0,5.589600086E0
8.000156200E-2,2.322000027E0,-1.676800013E0,2.220099926E0
1.100000000E-1,7.538999915E-1,-1.484999955E-1,-1.398399949E0
1.300000000E-1,1.528100014E0,8.834999800E-1,-1.734799981E0
1.500015620E-1,1.709699988E0,9.803999662E-1,-1.401299953E0
1.700093750E-1,1.231599927E0,4.439999759E-1,-6.193000078E-1
2.000000000E-1,1.386999935E-1,1.039999947E-1,-1.309299946E0
2.200046870E-1,9.259999543E-2,3.551999927E-1,-1.993399978E0
2.500000000E-1,8.420000076E-1,5.798999667E-1,-1.343999982E0
2.700125000E-1,7.527999878E-1,7.407999635E-1,-2.465999871E-1
3.000000000E-1,-2.576999962E-1,6.195999980E-1,2.884999812E-1
3.200078120E-1,-4.663999975E-1,4.614000022E-1,3.249999881E-2
3.500000000E-1,-3.136999905E-1,7.802000046E-1,-2.730000019E-1
3.700046870E-1,-4.732999802E-1,7.300999761E-1,-5.963999629E-1
4.000015620E-1,-6.859999895E-1,6.150000095E-1,-3.249999881E-1
4.200140620E-1,-9.722999930E-1,6.636999846E-1,7.228999734E-1
4.500015620E-1,-1.776600003E0,-8.640999794E-1,2.904999852E-1
4.700078120E-1,-1.549399972E0,-8.895999789E-1,8.765999675E-1
5.000015620E-1,-1.203999966E-1,-1.317600012E0,1.119999960E-2
5.200046870E-1,1.101899981E0,-1.071099997E0,1.053200006E0
5.400078120E-1,2.664499998E0,-1.598299980E0,1.287099957E0
5.700000000E-1,2.226699829E0,-3.841699839E0,2.440199852E0
5.900000000E-1,-2.787199974E0,-2.395999908E0,1.816799998E0
6.100000000E-1,-6.628999710E-1,-1.330899954E0,-2.475999892E-1
6.300000000E-1,2.760799885E0,-1.721699953E0,-4.270299911E0
6.500015620E-1,3.613199949E0,-2.504099846E0,-5.453999996E0
6.800000000E-1,6.577000022E-1,-1.565499902E0,-1.868999958E0
7.000000000E-1,1.917899966E0,-2.799499989E0,-2.432299852E0
7.200015620E-1,1.452700019E0,-3.537699938E0,-1.208599925E0
7.400312500E-1,1.656499982E0,-3.342199802E0,-2.964200020E0
7.700015620E-1,4.624199867E0,-4.307600021E0,-1.920529938E1
7.900015620E-1,5.544300079E0,-6.090499878E0,-1.010269928E1
8.100015620E-1,2.460299969E0,-8.983599663E0,-5.487099648E0
8.300015620E-1,2.391599894E0,-6.057299614E0,3.280000016E-2
8.600015620E-1,4.713500023E0,-4.715499878E0,-6.286000013E-1
8.800015620E-1,4.197899818E0,-3.711499929E0,1.965099931E0
9.100000000E-1,7.926999927E-1,-5.631999969E0,1.609099984E0
9.300000000E-1,-1.784699917E0,-7.096199989E0,4.026000023E0
9.500000000E-1,-2.868799925E0,-4.756499767E0,6.192100048E0
9.700000000E-1,-2.335899830E0,-3.619400024E0,7.037799835E0
9.900000000E-1,-2.822000027E0,-3.758399963E0,6.930999756E0
1.010001562E0,-3.783599854E0,-2.491299868E0,5.754099846E0
1.040000000E0,-5.416500092E0,-2.270799875E0,6.136899948E0
1.060000000E0,-6.575599670E0,-1.505699992E0,5.085099697E0
1.080001562E0,-6.296099663E0,-1.267599940E0,3.268599987E0
1.110000000E0,-4.395499706E0,-7.259999961E-2,2.511000037E-1
1.130001562E0,-5.630499840E0,3.130999804E-1,-1.056299925E0
1.150001562E0,-6.118299961E0,1.317799926E0,-1.077199936E0
1.180000000E0,-2.326599836E0,2.174900055E0,-1.537299991E0
1.200000000E0,-3.416999876E-1,2.115999937E0,-9.528999925E-1
1.220001562E0,2.139999904E-2,1.960899949E0,-7.530999780E-1
1.250000000E0,1.871999979E0,1.421399951E0,-2.513599873E0
1.270000000E0,2.593400002E0,1.780799985E0,-1.716699958E0
1.290001562E0,2.948299885E0,2.602499962E0,8.251999617E-1
1.320000000E0,3.632799864E0,2.694900036E0,2.105000019E0
1.340000000E0,3.188199997E0,1.931399941E0,1.355099916E0
1.360001562E0,3.304899931E0,1.545199990E0,2.626999915E-1
1.390000000E0,1.376999974E0,8.130999804E-1,-1.462799907E0
1.410000000E0,-1.479900002E0,-1.772199988E0,-3.059999831E-2
1.430000000E0,-3.360699892E0,-3.563099861E0,-1.748299956E0
1.450001562E0,-4.586299896E0,-2.939800024E0,-2.108199835E0
1.480000000E0,-1.734399915E0,-9.629999995E-1,1.600699902E0
1.500000000E0,-2.706099987E0,-2.125799894E0,3.730599880E0
1.520001562E0,-7.097499847E0,-3.809399843E0,-1.602499962E0
1.550000000E0,-2.836599827E0,-3.450999975E0,4.017799854E0
1.570000000E0,9.637999535E-1,1.428799987E0,6.489500046E0
1.590001562E0,-2.296700001E0,1.299700022E0,5.328199863E0
1.620000000E0,-6.773599625E0,-5.450500011E0,-5.154299736E0
1.640000000E0,-1.213500023E0,-7.793999910E-1,9.020199776E0
1.660001562E0,-1.497499943E0,4.150300026E0,3.036299944E0
1.690000000E0,-2.089900017E0,-2.570600033E0,-5.715999603E-1
1.710000000E0,3.396299839E0,-5.159999803E-2,-3.101500034E0
1.730001562E0,3.643100023E0,-7.439999580E-1,-1.230000019E0
1.760000000E0,2.945799828E0,-2.646999955E-1,-1.189800024E0
1.780001562E0,7.291299820E0,7.857999802E-1,9.340999722E-1
1.800001562E0,1.042309952E1,1.901099920E0,1.049199939E0
1.830000000E0,2.854339981E1,6.916800022E0,3.008299828E0
1.850000000E0,8.765099525E0,2.009099960E0,-7.134500027E0
1.870000000E0,-6.561999917E-1,-7.229199886E0,-1.059899926E0
1.890000000E0,-1.835399985E0,-5.721699715E0,-2.541599989E0
1.910000000E0,-2.657500029E0,-3.992899895E0,-5.877099991E0
1.930000000E0,1.862299919E0,2.395799875E0,-2.827699900E0
1.950001562E0,2.603999972E-1,4.396699905E0,-3.202899933E0
1.980000000E0,-9.783999443E0,-9.534999728E-1,-4.673899651E0
2.000000000E0,-9.977699280E0,-7.041999698E-1,-8.549000025E-1
2.020000000E0,-3.159299850E0,4.978600025E0,7.405999660E0
2.040000000E0,-3.126600027E0,4.068999767E0,-1.689999998E-1
2.060000000E0,-2.296200037E0,-1.718400002E0,1.844999939E-1
2.080000000E0,-1.214200020E0,-3.300699949E0,-1.846099973E0
2.100000000E0,9.995800018E0,-5.989999771E-1,-4.142699718E0
2.120001562E0,1.718400002E0,-1.194999963E-1,-3.351999819E-1
2.150001562E0,-2.383800030E0,-5.172599792E0,2.845899820E0
2.180000000E0,-1.123000026E0,-2.269700050E0,1.502299905E0
2.200000000E0,2.795000076E-1,-3.937799931E0,9.545999765E-1
2.220001562E0,-3.923999786E0,-1.129809952E1,4.176300049E0
2.250000000E0,4.231299877E0,2.946300030E0,2.757900000E0
2.270000000E0,-1.134400010E0,2.200500011E0,3.940799952E0
2.290001562E0,-1.153399944E0,-5.910999775E-1,3.293399811E0
2.310001562E0,2.031199932E0,4.878000021E-1,4.609999806E-2
2.340000000E0,2.418799877E0,3.858999908E-1,-1.738499999E0
2.360000000E0,2.276900053E0,3.290999830E-1,-1.556999981E-1
2.380000000E0,2.001800060E0,6.366999745E-1,1.228099942E0
2.400000000E0,2.482300043E0,1.188699961E0,2.629699945E0
2.420000000E0,2.426100016E0,1.422199965E0,2.697199821E0
2.440001562E0,2.067600012E0,1.297099948E0,2.265899897E0
2.460001562E0,1.964899898E0,1.427500010E0,2.265199900E0
2.480001562E0,1.811899900E0,7.992999554E-1,1.968899965E0
2.510001562E0,1.264400005E0,-2.782000005E-1,1.823899984E0
2.540000000E0,1.560000032E-1,4.957000017E-1,-1.193799973E0
2.560000000E0,-1.154600024E0,-2.740000002E-2,2.853099823E0
2.580000000E0,-1.797699928E0,6.943999529E-1,1.704699993E0
2.600000000E0,-1.684399962E0,4.148999751E-1,2.048199892E0
2.620000000E0,-1.795099974E0,2.298999876E-1,1.207799911E0
2.640000000E0,-3.638599873E0,-9.692999721E-1,-1.251399994E0
2.660000000E0,-6.509699821E0,-2.674499989E0,-3.016499996E0
2.680000000E0,-6.668399811E0,-2.578699827E0,-2.679399967E0
2.700000000E0,-2.057899952E0,1.107999980E-1,-2.275999933E-1
2.720001562E0,2.265300035E0,1.720699906E0,5.340999961E-1
2.750000000E0,5.166899681E0,7.850999832E-1,-1.911599994E0
2.770000000E0,3.238899946E0,-1.069700003E0,-3.934299946E0
2.790001562E0,2.077600002E0,-1.535899997E0,-3.044600010E0
2.820000000E0,1.655499935E0,1.027500033E0,3.985999823E-1
2.840000000E0,8.296999931E-1,1.801599979E0,2.454299927E0
2.860000000E0,4.175999761E-1,9.732999802E-1,7.999999821E-2
2.880001562E0,-1.075500011E0,-7.709999681E-1,5.388000011E-1
2.910000000E0,-4.429999739E-2,-5.870000124E-1,1.846699953E0
2.930000000E0,-1.266499996E0,-3.827899933E0,3.877099991E0
2.950000000E0,2.487699986E0,-2.239500046E0,-5.092999935E-1
2.970000000E0,1.389799953E0,1.922599912E0,-5.659999698E-2
2.990000000E0,5.515799999E0,8.017299652E0,2.558099985E0
3.010001562E0,2.472999990E-1,2.194700003E0,2.632999897E0
3.040000000E0,-2.934799910E0,-3.101799965E0,-4.559099674E0
3.060000000E0,-5.439000130E-1,-1.002399921E0,-5.177700043E0
3.080001562E0,2.848199844E0,3.171099901E0,-2.790899992E0
3.110000000E0,-3.865799904E0,3.310499907E0,1.657999903E-1
3.130000000E0,-6.174900055E0,4.157799721E0,-6.956999898E-1
3.150001562E0,-5.671499729E0,2.123299837E0,8.510999680E-1
3.180000000E0,-4.144999981E-1,-1.974999905E-1,4.449800014E0
3.200000000E0,-3.772799969E0,4.608999789E-1,4.750999928E0
3.220001562E0,-4.634999752E0,-3.034999967E-1,3.218199968E0
3.250000000E0,1.060400009E0,-1.013000011E-1,1.398399949E0
3.270000000E0,5.282499790E0,-5.900899887E0,-8.954500198E0
3.290001562E0,2.071500063E0,-1.012720013E1,-6.320399761E0
3.310001562E0,3.553999901E0,-2.887699842E0,-1.470999956E0
3.340000000E0,1.768199921E0,3.702099800E0,6.595499992E0
3.360000000E0,2.550799847E0,1.552899957E0,5.152100086E0
3.380000000E0,-3.687799931E0,-3.888599873E0,2.177999973E0
3.400000000E0,-1.642699957E0,-5.116199970E0,-2.146899939E0
3.420000000E0,5.388599873E0,-2.854599953E0,-2.600499868E0
3.440001562E0,5.095900059E0,-1.976399899E0,-1.407400012E0
3.470000000E0,6.714200020E0,-8.036999702E-1,2.071999907E-1
3.490000000E0,6.744299889E0,-3.838000000E-1,1.832199931E0
3.510001562E0,3.956060028E1,9.403900146E0,-1.151869965E1
3.530001562E0,8.172999620E-1,-1.291739941E1,-2.146800041E0
3.560000000E0,-1.692919922E1,-2.866899967E0,1.410499930E0
3.580001562E0,-4.921999931E0,6.166100025E0,1.002579975E1
3.610000000E0,-3.611199856E0,5.878999829E-1,-6.524199963E0
3.630000000E0,-3.700599909E0,-3.820400000E0,-1.057459927E1
3.650001562E0,-5.058999658E-1,-1.077600002E0,-8.596099854E0
3.680000000E0,-1.879399896E0,-2.898499966E0,2.794579887E1
3.700000000E0,-3.373199940E0,-3.346999884E0,1.932359886E1
3.720001562E0,-4.661999941E-1,1.200099945E0,1.383000016E0
3.740006250E0,1.793999970E-1,3.526999950E-1,-2.323499918E0
3.770000000E0,2.875799894E0,-1.383299947E0,-2.023699999E0
3.790001562E0,3.130699873E0,-8.614999652E-1,-3.379099846E0
3.810001562E0,3.726300001E0,-6.491000056E-1,-2.184499979E0
3.830001562E0,-1.401600003E0,-9.158499718E0,-6.181399822E0
3.850001562E0,2.538699865E0,-6.235799789E0,-6.367699623E0
3.870001562E0,3.092000008E0,2.984400034E0,-6.415499687E0
3.890001562E0,2.560999990E-1,1.984099984E0,-4.100299835E0
3.910001562E0,1.105499983E0,2.807399988E0,-4.835999906E-1
3.930001562E0,2.490900040E0,2.677099943E0,-1.363999993E-1
3.950007812E0,2.834399939E0,3.000799894E0,-1.481000036E-1
3.980001562E0,2.635999918E0,3.999999762E-1,4.811999798E-1
4.000007812E0,7.621999979E-1,-1.453000009E-1,-9.118999839E-1
4.030000000E0,-2.537699938E0,-3.894999921E-1,-8.244999647E-1
4.050006250E0,-2.941499949E0,-2.002999932E-1,6.768999696E-1
4.080001562E0,-1.992799997E0,1.301100016E0,2.357599974E0
4.100009375E0,-9.991999865E-1,4.240999818E-1,2.657599926E0
4.130001562E0,-9.102999568E-1,2.457999885E-1,2.716099977E0
4.150007812E0,-1.851199985E0,2.988999784E-1,2.318099976E0
4.180001562E0,-5.587999821E-1,5.232999921E-1,1.277499914E0
4.200009375E0,-8.402999640E-1,-3.019999899E-2,2.360199928E0
4.230001562E0,-1.211999953E-1,1.681499958E0,3.312299967E0
4.250006250E0,-2.205299854E0,2.861199856E0,1.319000006E0
4.280001562E0,-2.782999992E0,2.824299812E0,5.330599785E0
4.300012500E0,4.911799908E0,-1.034999937E-1,1.818549919E1
4.330001562E0,-2.939999849E-2,-2.098799944E0,6.213799953E0
4.350009375E0,-3.131199837E0,-9.789999723E-1,5.187999606E-1
4.380000000E0,-4.855499744E0,-1.031389999E1,-1.743399978E0
4.400004687E0,-3.544699907E0,-2.760429955E1,4.004499912E0
4.430000000E0,9.596300125E0,-1.551589966E1,4.343999922E-1
4.450004687E0,1.857379913E1,-1.043900013E0,9.819699287E0
4.480001562E0,7.491199970E0,5.817699909E0,-3.802299976E0
4.500004687E0,3.999699831E0,5.264299870E0,-1.099389935E1
4.530000000E0,3.926499844E0,4.758699894E0,-7.944399834E0
4.550001562E0,4.280299664E0,4.488399982E0,-5.299099922E0
4.580001562E0,4.421000004E0,3.287899971E0,-3.315199852E0
4.600001562E0,4.630199909E0,3.091699839E0,-2.222399950E0
4.630000000E0,5.107899666E0,4.692800045E0,-1.959899902E0
4.650004687E0,7.011499882E0,5.370599747E0,-3.076599836E0
4.680000000E0,-1.253199935E0,-3.852999806E-1,7.724399567E0
4.700000000E0,-5.712699890E0,-6.557600021E0,1.200299931E1
4.720001562E0,-7.084099770E0,-1.308839989E1,7.247200012E0
4.750000000E0,-8.934299469E0,-9.700599670E0,5.926799774E0
4.770000000E0,-7.773000002E-1,-3.003199816E0,-9.812999964E-1
4.790000000E0,5.378599644E0,1.784999967E-1,-6.366799831E0
4.810000000E0,1.290549946E1,-4.203199863E0,-6.809999943E-1
4.830000000E0,5.252199650E0,5.859999657E-1,-3.764799833E0
4.850000000E0,3.544399977E0,4.666299820E0,-4.862999916E0
4.870000000E0,2.778300047E0,7.674999714E0,-5.016599655E0
4.890000000E0,2.372900009E0,6.874099731E0,-5.423299789E0
4.910000000E0,2.226999998E-1,1.650799990E0,-4.365499973E0
4.930003125E0,-6.505999565E-1,-1.941599965E0,-2.919099808E0
4.960000000E0,-2.224999964E-1,-1.643299937E0,-2.525499821E0
4.980000000E0,2.496999949E-1,2.006999999E-1,-1.358999968E0
5.000000000E0,5.080999732E-1,2.278199911E0,1.031599998E0
5.020000000E0,-3.499999940E-1,1.581599951E0,1.988299966E0
5.040000000E0,-1.037400007E0,1.639000028E-1,2.983999848E-1
5.060000000E0,-5.345999599E-1,6.485999823E-1,-2.430000007E-1
5.080001562E0,-1.255900025E0,2.400999963E-1,-3.136000037E-1
5.110000000E0,-2.145400047E0,-2.852299929E0,1.078999996E0
5.130000000E0,-2.261600018E0,-3.478199959E0,5.626100063E0
5.150001562E0,-4.031700134E0,-2.305399895E0,8.497599602E0
5.180000000E0,-7.547399998E0,-4.506199837E0,4.025399685E0
5.200000000E0,-8.767499924E0,-3.177699804E0,5.708999634E-1
5.220001562E0,-8.731999397E0,3.869999945E-2,2.717999816E-1
5.250000000E0,-1.014629936E1,-1.654999971E0,8.744099617E0
5.270000000E0,-7.152599812E0,-2.615099907E0,4.704599857E0
5.290000000E0,-4.055500031E0,-2.358999968E0,-1.315799952E0
5.310001562E0,-4.486799717E0,-4.628200054E0,-9.889299393E0
5.340000000E0,-2.700700045E0,-1.007489967E1,-5.188099861E0
5.360000000E0,2.931799889E0,-1.574689960E1,-1.719399929E0
5.380001562E0,7.006599903E0,-1.501340008E1,-9.932000041E-1
5.410001562E0,9.677000046E0,-8.644999862E-1,8.276199341E0
5.440001562E0,9.292300224E0,5.154500008E0,-6.771199703E0
5.470000000E0,5.889800072E0,4.648200035E0,-9.060999870E0
5.490000000E0,4.164700031E0,5.736999989E0,-5.709199905E0
5.510001562E0,3.399899960E0,7.585599899E0,-3.436299801E0
5.540000000E0,3.899799824E0,8.779699326E0,-3.472299814E0
5.560000000E0,4.831299782E0,8.496299744E0,-3.844699860E0
5.580000000E0,5.499700069E0,6.867899895E0,-4.128600121E0
5.600000000E0,7.342599869E0,3.408399820E0,-5.231699944E0
5.620000000E0,9.814199448E0,-3.399399996E0,-5.377199650E0
5.640000000E0,-2.767199993E0,-1.012049961E1,8.615499496E0
5.660000000E0,-1.044329929E1,-1.550959969E1,2.829269981E1
5.680000000E0,-1.304169941E1,-9.083799362E0,1.232409954E1
5.700000000E0,-6.938199997E0,1.120000005E0,-3.336400032E0
5.720001562E0,8.697999716E-1,2.152799845E0,-9.872300148E0
5.740001562E0,5.586199760E0,-1.441999912E0,-6.865799904E0
5.770000000E0,9.958499908E0,-1.348600006E1,-1.435699940E0
5.790000000E0,6.369599819E0,-2.362999916E0,-3.183099985E0
5.810001562E0,5.241699696E0,5.935699940E0,-1.001980019E1
5.840000000E0,4.258999825E-1,6.233900070E0,-9.312600136E0
5.860000000E0,-2.568199873E0,1.994799972E0,-6.914999962E0
5.880000000E0,-2.694499969E0,-1.444100022E0,-4.158100128E0
5.900000000E0,-1.739199996E0,-3.083299875E0,-2.125200033E0
5.920000000E0,3.577999771E-1,-8.508999944E-1,-1.326900005E0
5.940001562E0,2.032999992E-1,8.208000064E-1,-2.685999870E0
5.970000000E0,1.670300007E0,2.677099943E0,-3.294000030E-1
5.990000000E0,3.427899837E0,1.216899991E0,2.473500013E0
6.010001562E0,1.925699949E0,-8.578999639E-1,3.148399830E0
6.030001562E0,-6.606999636E-1,-1.713999987E0,1.595899940E0
6.060000000E0,-2.579299927E0,-4.984999895E-1,2.874599934E0
6.080001562E0,-1.644699931E0,-2.382999957E-1,5.615999699E0
6.110000000E0,-4.081299782E0,-2.306200027E0,1.186499953E0
6.130000000E0,-7.696599960E0,-4.541999817E0,3.427999914E-1
6.150001562E0,-1.042430019E1,-3.775399923E0,-7.550999522E-1
6.180000000E0,-1.352219963E1,-1.957099915E0,6.493399620E0
6.200000000E0,-1.177890015E1,-4.765699863E0,8.575099945E0
6.220001562E0,-7.145199776E0,-2.827299833E0,2.471600056E0
6.240001562E0,-4.636499882E0,-4.185299873E0,-1.760599971E0
6.270000000E0,-1.532099962E0,-5.989099979E0,-5.502899647E0
6.290000000E0,1.500999928E-1,-5.848000050E0,-4.993700027E0
6.310001562E0,2.693799973E0,-8.087100029E0,-4.046700001E0
6.330017187E0,5.429499626E0,-8.427999496E0,-2.984400034E0
6.360000000E0,6.523799896E0,1.572299957E0,1.570500016E0
6.380000000E0,4.555099964E0,3.092700005E0,-1.988099933E0
6.400000000E0,5.663099766E0,1.504699945E0,-7.579399586E0
6.420000000E0,5.555399895E0,1.074000001E0,-9.097299576E0
6.440001562E0,4.145599842E0,2.577399969E0,-8.518599510E0
6.470000000E0,2.366999865E0,4.168399811E0,-5.633800030E0
6.490000000E0,2.099400043E0,4.152800083E0,-3.179600000E0
6.510001562E0,3.629400015E0,4.233299732E0,-3.007099867E0
6.530001562E0,5.868199825E0,4.260600090E0,-2.671900034E0
6.560001562E0,9.500899315E0,2.610100031E0,-1.437699914E0
6.580001562E0,8.725199699E0,7.578999996E-1,2.730499983E0
6.610000000E0,-2.035099983E0,-5.038000107E0,6.467099667E0
6.630000000E0,-7.043999672E0,-9.869099617E0,1.339899921E1
6.650001562E0,-8.807199478E0,-6.465399742E0,6.567800045E0
6.680001562E0,-6.519799709E0,-8.107999563E-1,6.114999652E-1
6.700001562E0,-5.401999950E-1,-4.849899769E0,-6.419799805E0
6.720001562E0,3.395799875E0,-6.178099632E0,-7.954699993E0
6.750000000E0,5.469099998E0,-6.876699924E0,-7.855899811E0
6.770000000E0,6.515599728E0,3.538499832E0,-5.888099670E0
6.790000000E0,6.418099880E0,9.416699409E0,-5.986000061E0
6.810000000E0,5.739799976E0,1.162259960E1,-7.515699863E0
6.830000000E0,2.177299976E0,6.534299850E0,-5.951900005E0
6.850000000E0,1.345399976E0,1.852999926E-1,-4.594399929E0
6.870001562E0,2.720000029E0,-4.087599754E0,-3.670199871E0
6.900000000E0,3.460699797E0,-6.662199974E0,-6.787399769E0
6.920000000E0,-2.327999920E-1,-2.157700062E0,5.576099873E0
6.940001562E0,-3.273000002E0,1.253999919E-1,1.495049953E1
6.970000000E0,-1.947999895E-1,1.315799952E0,-1.594999909E0
6.990000000E0,2.338999957E-1,2.323600054E0,-5.496799946E0
7.010000000E0,-6.358999610E-1,2.626999855E0,-5.732999802E0
7.030001562E0,-2.239699841E0,1.035200000E0,-4.943200111E0
7.060000000E0,-3.679299831E0,-4.592999816E-1,-1.273699999E0
7.080001562E0,-4.700299740E0,-2.061899900E0,2.992699862E0
7.110000000E0,-1.770099998E0,-1.399899960E0,8.593400002E0
7.130000000E0,-2.832700014E0,-2.770999908E0,3.239699841E0
7.150001562E0,-5.841099739E0,-3.388599873E0,-6.922999620E-1
7.180000000E0,-8.108799934E0,-2.069499969E0,-4.594999850E-1
7.200000000E0,-8.223299980E0,-1.804099917E0,1.273699999E0
7.220001562E0,-8.348199844E0,-3.210500002E0,2.835500002E0
7.250000000E0,-6.666999817E0,-2.392400026E0,4.557399750E0
7.270000000E0,-6.454299927E0,4.183999896E-1,2.199699879E0
7.290001562E0,-5.393300056E0,-1.421999931E-1,-1.108199954E0
7.310001562E0,-4.111700058E0,-2.109499931E0,-4.240699768E0
7.340000000E0,-2.219499826E0,-5.455899715E0,-5.806399822E0
7.360000000E0,1.963000000E-1,-6.985899925E0,-5.100500107E0
7.380001562E0,1.770699978E0,-6.483799934E0,-6.311500072E0
7.410000000E0,2.736099958E0,-1.511600018E0,7.964999676E-1
7.430000000E0,2.330899954E0,2.967999876E-1,-1.023000002E0
7.450000000E0,3.864199877E0,1.200299978E0,-8.245100021E0
7.470000000E0,4.376800060E0,1.137999967E-1,-9.980999947E0
7.490000000E0,3.056999922E0,8.466999531E-1,-8.429800034E0
7.510000000E0,1.045499921E0,1.594699979E0,-4.950200081E0
7.530001562E0,9.678999782E-1,1.448300004E0,-3.137199879E0
7.560000000E0,5.125699997E0,3.003000021E0,-2.715399981E0
7.580001562E0,7.368099689E0,3.436199903E0,-2.164900064E0
7.610000000E0,1.053619957E1,3.801899910E0,-1.314399958E0
7.630000000E0,1.220580006E1,2.840999842E0,5.338000059E-1
7.650001562E0,7.581199646E0,1.520900011E0,5.194099903E0
7.680000000E0,1.287500024E0,-5.953099728E0,9.672800064E0
7.700000000E0,-3.204599857E0,-7.408599854E0,4.982999802E0
7.720001562E0,-6.173399925E0,-5.870899677E0,-3.230599880E0
7.750000000E0,-1.230299950E1,-4.346199989E0,3.238499880E0
7.770000000E0,-2.885099888E0,-1.914799929E0,-1.726809883E1
7.790006250E0,2.011999935E-1,-5.039899826E0,-1.601899910E1
7.820007812E0,1.422699928E0,1.074699998E0,-5.470200062E0
7.850000000E0,6.052599907E0,5.888700008E0,7.461199760E0
7.870001562E0,5.769299984E0,3.003299952E0,8.694999814E-1
7.900000000E0,3.925999880E0,-8.143000007E-1,-4.409899712E0
7.920000000E0,3.594199896E0,-3.913999796E-1,-5.586400032E0
7.940000000E0,3.587299824E0,2.079599857E0,-4.709000111E0
7.960000000E0,1.843699932E0,1.235099912E0,-4.078299999E0
7.980000000E0,1.793999970E-1,-8.219999820E-2,-3.153499842E0
8.000000000E0,-2.740499973E0,-4.416999817E-1,4.635999799E-1
8.020000000E0,-3.530999899E0,2.393999994E-1,2.136299849E0
8.040000000E0,-1.796799898E0,1.592999935E0,8.960999846E-1
8.060000000E0,-5.113999844E-1,5.849999934E-2,-1.192499995E0
8.080001562E0,-2.228000015E-1,-1.951999962E-1,-1.986699939E0
8.110000000E0,-7.502999902E-1,-4.413999915E-1,-2.214999944E-1
8.130000000E0,-2.308500051E0,-1.289799929E0,4.081500053E0
8.150000000E0,-4.870800018E0,-2.225100040E0,4.952699661E0
8.170000000E0,-7.149099827E0,-3.016999960E0,8.966999650E-1
8.190000000E0,-8.170599937E0,-3.030099869E0,-8.983999491E-1
8.210000000E0,-8.637299538E0,-2.341599941E0,-1.539999992E-1
8.230000000E0,-9.606599808E0,-2.533099890E0,6.848999858E-1
8.250000000E0,-1.000969982E1,-3.336299896E0,2.264799833E0
8.270000000E0,-7.648599625E0,-3.455499887E0,2.959499836E0
8.290001562E0,-2.061699867E0,-2.552799940E0,3.865899801E0
8.310001562E0,1.964599967E0,-2.288499832E0,3.061300039E0
8.340000000E0,5.139800072E0,-6.930099964E0,-5.029000044E-1
8.360000000E0,8.165399551E0,-7.842999935E0,-1.971699953E0
8.380000000E0,7.884299755E0,-3.324699879E0,-2.740000010E0
8.400000000E0,5.852499962E0,1.353799939E0,-3.849799871E0
8.420000000E0,3.688499928E0,2.557600021E0,-5.801899910E0
8.440000000E0,1.568899989E0,2.631199837E0,-6.187299728E0
8.460000000E0,1.217999980E-1,2.799199820E0,-5.140799999E0
8.480000000E0,-3.874999881E-1,2.901999950E0,-2.729099989E0
8.500000000E0,6.069999933E-2,3.254499912E0,-9.880999923E-1
8.520000000E0,1.590199947E0,3.258199930E0,-3.188299894E0
8.540000000E0,1.864699960E0,2.897300005E0,-5.834799767E0
8.560000000E0,2.268100023E0,2.578799963E0,-6.100299835E0
8.580001562E0,3.581799984E0,2.530499935E0,-4.040800095E0
8.610000000E0,6.046999931E0,1.790599942E0,-2.495300055E0
8.630000000E0,7.436899662E0,1.624699950E0,-7.202999592E-1
8.650001562E0,9.744899750E0,5.974000096E-1,4.294799805E0
8.670001562E0,3.541100025E0,-2.666800022E0,1.120909977E1
8.700000000E0,-6.035500050E0,-6.448999882E0,1.074469948E1
8.720000000E0,-9.725599289E0,-5.337399960E0,4.473999739E-1
8.740001562E0,-1.015499973E1,-8.524999619E-1,-6.982499599E0
8.770000000E0,-2.307999849E0,-1.944199920E0,-9.367899895E0
8.790000000E0,1.627299905E0,-6.381999969E0,-6.190999985E0
8.810000000E0,2.106899977E0,-9.432099342E0,-4.970499992E0
8.830000000E0,4.157499790E0,-1.098500013E0,-2.936499834E0
8.850000000E0,8.475999832E0,3.358199835E0,-5.080999732E-1
8.870001562E0,1.697589874E1,4.082299709E0,2.701400042E0
8.900000000E0,5.467799664E0,1.630000025E-1,-1.544600010E0
8.920000000E0,3.544399977E0,-4.038999975E-1,-4.987899780E0
8.940001562E0,1.927699924E0,-4.465999901E-1,-7.302299976E0
8.970000000E0,-5.691999793E-1,-2.315000057E0,-4.801599979E0
8.990000000E0,-3.887599945E0,-1.267499924E0,4.988800049E0
9.010001562E0,-5.828000069E0,6.459999830E-2,4.009200096E0
9.030001562E0,-4.181999683E0,2.789199829E0,6.119999662E-2
9.060000000E0,6.096000075E-1,5.867999792E-1,-3.038699865E0
9.080001562E0,1.116599917E0,1.413999945E-1,-3.099900007E0
9.110000000E0,-1.215699911E0,8.086999655E-1,-1.766299963E0
9.130006250E0,-2.566699982E0,7.707999945E-1,-6.758999825E-1
9.160001562E0,-1.936499953E0,-9.200000018E-2,-2.479999885E-2
9.180001562E0,-9.017999768E-1,-8.419999480E-2,1.203499913E0
9.210001562E0,2.157999873E-1,3.109999895E-1,1.851999909E-1
9.240000000E0,-6.784999967E-1,9.054999948E-1,-2.638700008E0
9.260000000E0,-7.019999623E-1,6.762999892E-1,-5.852599621E0
9.280000000E0,9.924999475E-1,1.220099926E0,-5.331699848E0
9.300001562E0,1.558699965E0,7.819999754E-2,-3.000999928E0
9.330000000E0,3.178099871E0,-4.150899887E0,-5.013099670E0
9.350000000E0,6.136899948E0,-7.351500034E0,-3.311999798E0
9.370001562E0,3.079200029E0,-4.785500050E0,3.160699844E0
9.400000000E0,3.378899813E0,-2.924099922E0,2.311100006E0
9.420000000E0,3.729599953E0,-2.842299938E0,8.282999992E-1
9.440001562E0,5.349199772E0,-1.751899958E0,1.255399942E0
9.470000000E0,7.665499687E0,1.897799969E0,1.726499915E0
9.490000000E0,7.483899593E0,3.535899878E0,1.362499952E0
9.510001562E0,6.561599731E0,3.829499960E0,4.023999870E-1
9.540000000E0,2.211499929E0,1.362399936E0,-1.398399949E0
9.560001562E0,-3.003599882E0,-7.079999894E-2,-4.499999881E-1
9.580001562E0,-7.811499596E0,-9.311999679E-1,-6.924999952E-1
9.610000000E0,-1.048049927E1,-4.308999777E-1,-5.181099892E0
9.630000000E0,-7.573799610E0,1.740099907E0,-7.290199757E0
9.650001562E0,-4.045000076E0,1.369300008E0,-5.846999645E0
9.670003125E0,9.467999935E-1,1.253199935E0,-4.249300003E0
9.700000000E0,4.040599823E0,9.164999723E-1,-1.192299962E0
9.720000000E0,6.427299976E0,-6.189999729E-2,1.802599907E0
9.740000000E0,8.475500107E0,-1.073300004E0,4.666599751E0
9.760000000E0,7.703799725E0,-2.946999967E-1,5.823499680E0
9.780000000E0,6.386299610E0,6.739999652E-1,3.189999819E0
9.800000000E0,4.335599899E0,1.008499980E0,3.916999996E-1
9.820000000E0,2.137300014E0,1.058999971E-1,-1.473199964E0
9.840000000E0,1.252799988E0,-7.960999608E-1,-2.056499958E0
9.860000000E0,1.565999985E0,-1.082599998E0,-3.537999988E-1
9.880000000E0,2.982499838E0,-7.210999727E-1,1.682599902E0
9.900000000E0,3.589900017E0,1.665000021E-1,3.194900036E0
9.920000000E0,2.084800005E0,1.258299947E0,2.789599895E0
9.940001562E0,-1.920000017E-1,1.463199973E0,7.838999629E-1
9.970000000E0,-2.083400011E0,1.369400024E0,-2.811699867E0
9.990000000E0,-2.756299973E0,1.092899919E0,-3.439100027E0
1.001000156E1,-2.717399836E0,-5.365299702E0,-1.083500028E0
1.003000156E1,-2.578799963E0,-5.941899776E0,2.501099825E0
1.006000156E1,5.485999584E-1,1.128299952E0,4.505399704E0
1.008000156E1,3.658499956E0,1.227399945E0,1.259400010E0
1.011000000E1,1.974599957E0,1.569099903E0,-2.409899950E0
1.013000000E1,6.434000134E-1,-7.225999832E-1,-5.933799744E0
1.015000156E1,-9.722999930E-1,-1.291700006E0,-7.251799583E0
1.018000156E1,-2.973500013E0,-1.530299902E0,-3.665499926E0
1.021000156E1,-4.352099895E0,-3.460799932E0,3.897300005E0
1.023000156E1,-2.214999914E0,-1.212700009E0,1.799799919E0
1.026000000E1,-1.123999953E-1,1.125999928E0,-2.157999873E-1
1.028000000E1,1.057799935E0,1.515599966E0,-2.284800053E0
1.030000156E1,1.404799938E0,1.629599929E0,-2.999500036E0
1.033000000E1,1.861999929E-1,2.430299997E0,-1.467800021E0
1.035000000E1,-1.176699996E0,1.847199917E0,3.304999769E-1
1.037000156E1,-1.483899951E0,1.355599999E0,1.777899981E0
1.040000000E1,-3.456999958E-1,9.365999699E-1,2.048300028E0
1.042000000E1,6.122999787E-1,3.427999914E-1,1.295400023E0
1.044000156E1,8.277999759E-1,-8.139999956E-2,1.535599947E0
1.047000000E1,-1.101099968E0,-1.695899963E0,3.777599812E0
1.049000000E1,-2.764499903E0,-2.715600014E0,4.552400112E0
1.051000156E1,-3.353999853E0,-2.238499880E0,6.259799957E0
1.054000000E1,-1.633599997E0,-1.782999992E0,8.200099945E0
1.056000000E1,6.800999641E-1,-2.055899858E0,1.082739925E1
1.058000156E1,7.781999588E0,-8.508999944E-1,1.301799965E1
1.061000000E1,5.203799725E0,-3.404899836E0,4.753999710E0
1.063000000E1,-2.684000015E0,-6.151499748E0,-1.062779999E1
1.065000156E1,-5.343599796E0,-9.377599716E0,-1.290329933E1
1.068000000E1,-4.981999874E0,-1.166230011E1,-8.324899673E0
1.070000000E1,-1.056929970E1,-6.619799614E0,6.866799831E0
1.072000000E1,-2.180399895E0,-2.675899982E0,1.340299964E0
1.074000000E1,2.563199997E0,8.709999919E-1,-3.665699959E0
1.076000000E1,7.350499630E0,5.034699917E0,-8.525799751E0
1.078000000E1,5.729599953E0,7.117799759E0,-7.862199783E0
1.080000156E1,3.817899942E0,9.313499451E0,-8.083799362E0
1.083000000E1,3.414199829E0,9.522199631E0,-5.630499840E0
1.085000000E1,2.823999882E0,8.604599953E0,-4.676799774E0
1.087000156E1,7.899999619E-1,7.017099857E0,-6.900599957E0
1.090000000E1,5.482999682E-1,1.110800028E0,-9.270999908E0
1.092000000E1,1.753979874E1,-1.132129955E1,9.964099884E0
1.094000156E1,1.364039993E1,-6.740999699E0,6.017299652E0
1.097000000E1,2.994199991E0,4.739999771E0,8.209099770E0
1.099000313E1,1.826399922E0,6.895499706E0,2.374500036E0
1.101001406E1,6.160699844E0,7.945799828E0,-9.919999838E-1
1.104000000E1,5.697199821E0,2.901099920E0,-2.044199944E1
1.106000469E1,7.868999839E-1,9.751999974E-1,-1.949020004E1
1.109000000E1,-2.942699909E0,2.459300041E0,-9.721599579E0
1.111000938E1,-7.080800056E0,-1.900299907E0,-5.649399757E0
1.114000000E1,-1.084060001E1,-2.934949875E1,2.285759926E1
1.116000625E1,1.873810005E1,-3.402059937E1,3.576289749E1
1.119000000E1,4.501399994E0,-6.937999725E0,1.605290031E1
1.121000156E1,2.539499998E0,-3.932299852E0,1.039260006E1
1.123000156E1,-5.696199894E0,-7.362699986E0,2.568899870E0
1.126000000E1,-6.624700069E0,-3.730199814E0,6.665999889E-1
1.128000000E1,-6.001999974E-1,2.392799854E0,-1.349020004E1
1.130000156E1,3.513999879E-1,7.681499958E0,-1.237979984E1
1.133000000E1,6.611599922E0,5.537999868E-1,-5.665999889E0
1.135000000E1,1.124870014E1,-1.610799909E0,-7.305500031E0
1.137000156E1,2.540000081E-1,-1.888999939E-1,5.701999664E0
1.140000000E1,-3.521499872E0,9.320300102E0,4.118099689E0
1.142000000E1,-1.845699906E0,9.935799599E0,5.701699734E0
1.144000156E1,6.224999905E0,3.624399900E0,2.738189888E1
1.147000000E1,9.356200218E0,1.421999931E0,-1.648939896E1
1.149000000E1,1.048559952E1,5.863599777E0,-1.392770004E1
1.151000156E1,2.773499966E0,4.034500122E0,-1.057520008E1
1.154000000E1,5.547299862E0,-1.683489990E1,-1.294069958E1
1.156000000E1,-7.342399597E0,-3.272679901E1,5.430299759E0
1.158000469E1,-5.566599846E0,-1.527059937E1,2.646059990E1
1.161000000E1,4.910999835E-1,-1.550599933E0,-2.555099964E0
1.163000000E1,1.815099955E0,4.454199791E0,-8.338999748E-1
1.165000000E1,7.721999884E-1,7.531799793E0,-9.581999779E-1
1.167000000E1,-5.089099884E0,8.660399437E0,-8.690899849E0
1.169000000E1,-6.717000008E0,1.138919926E1,-9.972799301E0
1.171000000E1,-3.284099817E0,1.227559948E1,-5.569699764E0
1.173000156E1,-1.379599929E0,1.273740005E1,-9.219999909E-1
1.176000000E1,2.209800005E0,1.397929955E1,-3.815399885E0
1.178000000E1,2.588799953E0,1.325099945E1,-6.593100071E0
1.180000156E1,3.058300018E0,1.227339935E1,-6.914299965E0
1.183000000E1,2.549199867E1,-1.704599977E0,2.389209938E1
1.185000000E1,1.053300023E0,-8.879999816E-2,7.389000058E-1
1.187000156E1,-3.914299965E0,-3.210099936E0,-6.802199841E0
1.190000000E1,-7.379099846E0,-2.183819962E1,-7.097399712E0
1.192000000E1,-9.026700020E0,-1.940999985E1,-7.080800056E0
1.194000156E1,-5.944999695E0,-3.034379959E1,1.178359985E1
1.197000000E1,-5.370999813E0,-4.611000061E0,-1.086849976E1
1.199000000E1,-8.818999529E-1,6.366399765E0,-1.535540009E1
1.201000156E1,-1.098199964E0,9.264499664E0,-3.926199913E0
1.203000156E1,-7.650499821E0,1.984499931E0,-1.881999969E-1
1.206000000E1,-2.027059937E1,-1.133199978E1,9.728699684E0
1.208000156E1,-2.739449883E1,-2.075599861E1,1.956110001E1
1.211000000E1,-2.558539963E1,-1.389610004E1,1.066919994E1
1.213000000E1,-1.050229931E1,-1.531819916E1,2.136979866E1
1.215000000E1,1.775510025E1,-1.777299881E1,5.927700043E0
1.217000000E1,1.777529907E1,-1.868179893E1,-1.292569923E1
1.219000000E1,2.018420029E1,-2.381939888E1,-7.372599602E0
1.221000156E1,2.474339867E1,-2.680149841E1,-9.509200096E0
1.223000156E1,2.873749924E1,-1.238269997E1,1.173919964E1
1.226000000E1,2.690250015E1,1.689159966E1,-3.104439926E1
1.228000156E1,2.617969894E1,2.769750023E1,-3.123099899E1
1.230000156E1,2.205900002E1,2.967309952E1,-2.055809975E1
1.233000000E1,-5.969999731E-2,2.461540031E1,7.795300007E0
1.235000000E1,-1.537379932E1,1.689459991E1,7.573999882E0
1.237000000E1,-6.840499878E0,1.049839973E1,-1.099380016E1
1.239000000E1,-3.500199795E0,7.000899792E0,-2.187539864E1
1.241000000E1,4.192000031E-1,5.251599789E0,-1.464909935E1
1.243000000E1,-2.003689957E1,-5.786069870E1,4.267469788E1
1.245000000E1,3.968799829E0,-3.961069870E1,-2.938889885E1
1.247000000E1,1.248880005E1,-1.607439995E1,2.888099909E0
1.249000000E1,8.770899773E0,1.168399930E0,2.481459999E1
1.251000156E1,-6.166599751E0,-2.814599991E0,-5.236149979E1
1.253000156E1,1.344799995E1,-3.818999827E-1,-2.748250008E1
1.256000000E1,6.753999591E-1,6.337499619E0,-1.919229889E1
1.258000156E1,-6.184999943E-1,8.507200241E0,-1.394429970E1
1.260000156E1,-2.355799913E0,8.513099670E0,-1.746949959E1
1.263000156E1,3.500000000E0,1.414109993E1,-1.003949928E1
1.266000000E1,1.584149933E1,1.831130028E1,2.545500040E0
1.268000000E1,1.095969963E1,-5.033000112E-1,5.767799854E0
1.270000000E1,2.803189850E1,-1.168029976E1,-1.184000000E-1
1.272000000E1,2.857099915E1,-2.236499977E1,-1.408369923E1
1.274000000E1,-3.634719849E1,-7.240399837E0,6.810099792E1
1.276000000E1,4.994199753E0,-2.006489944E1,7.886399746E0
1.278000000E1,-5.615999699E-1,-1.683209991E1,-7.267499924E0
1.280000156E1,-1.992609978E1,-1.710980034E1,-1.583139992E1
1.283000000E1,-1.125529957E1,-6.984599590E0,-1.052399993E0
1.285000000E1,-1.023680019E1,2.971999884E0,1.468859959E1
1.287000156E1,-2.783769989E1,6.533099651E0,3.949269867E1
1.290000000E1,-8.271399498E0,-4.518700123E0,1.801199913E0
1.292000000E1,4.191999912E0,-6.715699673E0,-2.312799931E0
1.294000156E1,2.223180008E1,-1.142420006E1,1.502999973E1
1.297000000E1,-2.355700016E0,-5.750699997E0,1.249219990E1
1.299000000E1,-5.000099659E0,-8.638400078E0,4.133999944E-1
1.301000156E1,-4.544099808E0,-7.869599819E0,-8.133299828E0
1.304000000E1,7.140199661E0,-3.558979797E1,3.592569733E1
1.306000000E1,9.409299850E0,-2.371879959E1,-1.743399978E0
1.308000156E1,-8.278999925E-1,-2.261989975E1,-1.832690048E1
1.311000000E1,1.145299911E0,-6.390000135E-2,-2.190779877E1
1.313000000E1,8.635999560E-1,5.169799805E0,-2.073559952E1
1.315000000E1,2.649099827E0,9.695899963E0,-9.547900200E0
1.317000156E1,1.313799977E0,1.247909927E1,-1.531849957E1
1.320000000E1,2.388700008E0,1.536149979E1,-2.376029968E1
1.322000000E1,4.501499653E0,1.616059875E1,-6.929199696E0
1.324000000E1,1.327869987E1,8.668700218E0,8.951999545E-1
1.326000000E1,1.286159992E1,6.074199677E0,-1.799399948E1
1.328000000E1,1.204859924E1,1.093949986E1,-2.166639900E1
1.330000156E1,7.386600018E0,6.146299839E0,-1.120389938E1
1.333002344E1,1.904699922E0,-6.216399670E0,-1.180799961E1
1.336000000E1,1.737399936E0,5.790000036E-2,1.010069942E1
1.338000156E1,6.125699997E0,5.888999701E-1,1.681019974E1
1.341000000E1,-1.628109932E1,-3.868619919E1,-3.926839828E1
1.343000000E1,-4.946389771E1,-6.692509460E1,-4.771299839E0
1.345000156E1,-7.009639740E1,-2.675510025E1,7.328369904E1
1.348000000E1,-2.309549904E1,2.053629875E1,-2.974379921E1
1.350000000E1,-2.432049942E1,1.049440002E1,4.433950043E1
1.352000156E1,-1.533329964E1,1.751099944E0,9.416899681E0
1.355000156E1,-1.130959988E1,-2.815329933E1,-1.277899981E0
1.358000156E1,3.063099861E0,-5.706679916E1,2.079240036E1
1.360000156E1,4.288229752E1,-7.309839630E1,3.473099899E1
1.363000000E1,1.432959938E1,-9.672999382E0,-4.587500095E0
1.365000000E1,1.579599953E1,1.909500003E0,-1.461660004E1
1.367000000E1,2.298149872E1,1.086390018E1,-1.873569870E1
1.369000000E1,2.376140022E1,1.329809952E1,-4.193059921E1
1.371000000E1,3.126799822E0,3.343299866E0,-9.680999756E0
1.373000156E1,-5.958099842E0,7.328799725E0,8.513400078E0
1.376000000E1,1.508399963E0,-2.073369980E1,4.678739929E1
1.378000000E1,6.827849579E1,-5.676009750E1,9.023200035E0
1.380000156E1,1.044499969E1,-6.773999929E-1,-3.260350037E1
1.383000000E1,1.367319965E1,1.310299993E0,-3.127089882E1
1.385000000E1,1.141559982E1,1.014799953E0,-3.033549881E1
1.387000156E1,4.817999899E-1,-2.943799973E0,-9.513199806E0
1.390000000E1,-9.216499329E0,-7.338199615E0,8.538100243E0
1.392000000E1,9.061399460E0,-1.812419891E1,1.494369984E1
1.394000156E1,-4.692100048E0,-7.706699848E0,-8.648599625E0
1.397000000E1,3.261999846E0,-6.470999718E-1,-1.857129860E1
1.399000000E1,4.069999978E-2,4.916999936E-1,-1.562839985E1
1.401000156E1,-1.135149956E1,-9.769999981E-1,2.470000029E0
1.403000156E1,-1.744910049E1,5.893399715E0,2.101739883E1
1.405000156E1,-2.089579964E1,1.591549969E1,6.716099739E0
1.408000000E1,-6.006999612E-1,3.206199884E0,1.174599934E1
1.410000000E1,1.338899970E0,2.770499945E0,3.484999835E-1
1.412000000E1,-1.960599899E0,1.139500022E0,-7.090399742E0
1.414000000E1,-6.744099617E0,-5.995299816E0,-8.798799515E0
1.416000156E1,-1.741860008E1,-3.669809723E1,1.530049992E1
1.419000000E1,1.485470009E1,-4.079479980E1,2.125379944E1
1.421000156E1,1.309499931E1,-2.241199875E1,8.820999861E-1
1.423000156E1,4.621299744E0,-9.968999863E0,-1.291399956E0
1.426000000E1,6.751399994E0,-5.745800018E0,3.407599926E0
1.428000000E1,1.286629963E1,-4.127599716E0,-1.235999942E0
1.430000156E1,1.451179981E1,-2.039799929E0,-2.751499891E0
1.433000000E1,1.518050003E1,1.887899995E0,-5.306999683E0
1.435000000E1,1.759969902E1,5.410199642E0,-9.852499962E0
1.437000156E1,2.061569977E1,1.032439995E1,-1.836159897E1
1.440000000E1,1.833169937E1,1.795429993E1,-8.104100227E0
1.442000000E1,1.523489952E1,1.529889965E1,-4.845200062E0
1.444000156E1,8.526399612E0,1.235029984E1,-1.362999916E0
1.447000000E1,2.147799969E0,7.829099655E0,1.532099962E0
1.449000000E1,-1.447600007E0,3.575500011E0,7.443299770E0
1.451000156E1,-6.671999931E0,-5.383199692E0,-3.433399916E0
1.454000156E1,-6.969999671E-1,-3.727259827E1,-2.333299875E0
1.456000156E1,8.836999536E-1,-3.150859833E1,-5.570299625E0
1.458000156E1,-3.510900021E0,-2.189029884E1,-9.750999808E-1
1.460000156E1,-4.780499935E0,-4.461599827E0,-8.804999590E-1
1.462000156E1,-3.304299831E0,-2.401499987E0,-2.938400030E0
1.465000000E1,-9.617999792E-1,1.666399956E0,-3.029999971E0
1.467000000E1,-9.142899513E0,-6.779199600E0,1.702229881E1
1.469000000E1,-1.699020004E1,-8.183899879E0,7.189299583E0
1.471000000E1,-2.878799915E0,3.461599827E0,3.508899927E0
1.473000156E1,4.423099995E0,6.803799629E0,4.694799900E0
1.476000000E1,7.049900055E0,4.747999668E0,4.336999893E0
1.478000000E1,8.391499519E0,1.038599968E0,5.093800068E0
1.480000156E1,7.050999641E0,-2.940299988E0,8.750999570E-1
1.483000000E1,-1.729699969E0,-2.442079926E1,9.904999733E-1
1.485000000E1,-8.109099388E0,-2.699440002E1,1.392189980E1
1.487000156E1,-3.224499941E0,-3.588999808E-1,3.471299887E0
1.490000000E1,3.118199825E0,-3.830099821E0,6.033199787E0
1.492000000E1,7.484499931E0,-2.247799873E0,2.083600044E0
1.494000156E1,9.363599777E0,1.174099922E0,6.523000002E-1
1.497000000E1,8.234499931E0,7.529299736E0,-1.897499919E0
1.499000000E1,6.359299660E0,8.122499466E0,-2.753000021E0
1.501000000E1,4.171099663E0,8.988699913E0,-1.640999913E-1
1.503000000E1,-9.504999518E-1,9.300399780E0,1.027859974E1
1.505000000E1,-3.401499987E0,6.158999801E-1,-2.518299818E0
1.507000000E1,-5.401700020E0,-8.372399330E0,-4.860199928E0
1.509000156E1,-1.081200004E0,-2.693820000E1,9.298199654E0
1.512000000E1,7.311999798E0,-1.366829967E1,1.247299910E0
1.514000000E1,9.755399704E0,-1.956499934E0,2.444599867E0
1.516000156E1,1.230359936E1,2.234299898E0,2.731899977E0
1.519000000E1,1.002489948E1,3.895699978E0,1.596199989E0
1.521000156E1,7.413099766E0,3.073099852E0,-1.049000025E0
1.523000156E1,5.668900013E0,1.615299940E0,-2.416199923E0
1.526000000E1,4.041899681E0,-1.433899999E0,-3.575199842E0
1.528000000E1,1.937099934E0,-4.966999888E-1,-5.014499664E0
1.530000156E1,-1.963099957E0,-1.820999980E-1,-3.426499844E0
1.533000000E1,-7.704199791E0,-4.109399796E0,2.609799862E0
1.535000000E1,-1.035690022E1,-6.427099705E0,4.153999805E0
1.537000156E1,-1.203189945E1,-5.376399994E0,3.307799816E0
1.540000000E1,-1.143209934E1,-3.841999769E-1,4.318299770E0
1.542000000E1,-1.202309990E1,-2.079499960E0,1.255270004E1
1.544000156E1,-7.302899837E0,-3.338099957E0,1.180770016E1
1.547000000E1,-9.099399567E0,-1.358699918E0,9.993000031E0
1.549000156E1,-1.235379982E1,2.834499836E0,-8.402599335E0
1.551000156E1,-1.318939972E1,1.994300008E0,5.281699657E0
1.554000000E1,-8.727199554E0,-8.498000145E0,1.014149952E1
1.556000000E1,-8.011300087E0,-1.185029984E1,-1.717799902E0
1.558000000E1,-3.675099850E0,-1.438159943E1,-1.387799978E0
1.560000156E1,2.094300032E0,-1.961619949E1,5.694200039E0
1.562000156E1,9.343500137E0,-1.902859879E1,7.238800049E0
1.564000156E1,1.075080013E1,-8.955699921E0,5.206099987E0
1.567000000E1,5.304599762E0,2.660599947E0,-1.370499969E0
1.569000000E1,5.041999817E0,5.121999741E0,-2.129999995E-1
1.571000000E1,5.182699680E0,6.047699928E0,1.788199902E0
1.573000156E1,5.828799725E0,6.226599693E0,2.971199989E0
1.576000000E1,7.379399776E0,5.028599739E0,6.064999700E-1
1.578000156E1,7.385499954E0,5.642499924E0,-2.170300007E0
1.580000156E1,7.218799591E0,6.945499897E0,-4.690599918E0
1.583000000E1,6.572899818E0,6.714399815E0,-1.803900003E0
1.585000000E1,6.070699692E0,2.166499853E0,-4.899799824E0
1.587000156E1,-6.559000015E-1,-3.897300005E0,1.008010006E1
1.590000000E1,-9.901700020E0,-1.238819981E1,7.785799980E0
1.592000000E1,-1.366589928E1,-8.538999557E0,1.385709953E1
1.594000156E1,-7.566999793E-1,4.782000065E0,2.768800020E0
1.597000000E1,1.283869934E1,4.586999893E0,2.079299927E0
1.599000000E1,5.099599838E0,-4.620100021E0,1.514799953E0
1.601000156E1,5.221799850E0,-2.035799980E1,-1.890100002E0
1.604000156E1,5.523200035E0,-5.769700050E0,-7.619199753E0
1.607000000E1,7.851899624E0,6.927299976E0,-6.973099709E0
1.609000000E1,6.585199833E0,7.875999928E0,-4.213799953E0
1.611000000E1,2.569200039E0,3.158099890E0,-2.269000053E0
1.613000156E1,3.025899887E0,-2.816999853E-1,-1.113399982E0
1.616000156E1,6.515599728E0,1.005499959E0,3.574999809E0
1.619000000E1,2.689499855E0,1.268800020E0,6.684799671E0
1.621000000E1,1.116599917E0,-4.368000031E-1,2.856199980E0
1.623000156E1,2.854999900E-1,-1.386899948E0,1.080999970E-1
1.626000000E1,-3.084499836E0,-1.677099943E0,-5.630499840E0
1.628000156E1,-5.672999859E0,-2.083899975E0,-4.335700035E0
1.630000156E1,-6.697899818E0,-1.658100009E0,2.115700006E0
1.633000000E1,-8.103799820E0,-3.644299984E0,4.707299709E0
1.635000000E1,-9.162899971E0,-4.684799671E0,4.999899864E0
1.637000156E1,-1.039120007E1,-4.646500111E0,5.368499756E0
1.640000000E1,-9.530099869E0,-4.028999805E-1,4.484399796E0
1.642000000E1,-9.082200050E0,-3.196799994E0,1.109410000E1
1.644000156E1,-8.786799431E0,-4.507800102E0,1.046420002E1
1.647000000E1,-7.047999859E0,2.687000036E-1,-2.466399908E0
1.649000000E1,-5.197400093E0,1.180199981E0,-5.052999854E-1
1.651000156E1,-5.156399727E0,-1.887699962E0,-1.760499954E0
1.653000156E1,-7.172299862E0,-1.029780006E1,-4.621699810E0
1.656000000E1,-6.010000110E-1,-1.261549950E1,2.975299835E0
1.658000156E1,5.802000046E0,-9.774700165E0,4.340899944E0
1.660000156E1,1.004239941E1,-7.028199673E0,4.187799931E0
1.662000156E1,1.100119972E1,-1.268599987E0,1.352899909E0
1.664000156E1,6.947700024E0,3.475299835E0,-2.031599998E0
1.666000156E1,5.148399830E0,5.567299843E0,-4.066499710E0
1.669000156E1,4.945699692E0,5.852099895E0,-3.165299892E0
1.671000156E1,5.078000069E0,5.185299873E0,-2.287799835E0
1.673000156E1,5.415100098E0,4.428199768E0,-2.559200048E0
1.676000000E1,6.763700008E0,3.949100018E0,-3.009799957E0
1.678000000E1,7.380699635E0,4.057799816E0,-2.591699839E0
1.680000156E1,7.500099659E0,3.374199867E0,-3.110800028E0
1.683000000E1,6.546400070E0,-1.299299955E0,1.768299937E0
1.685000000E1,-4.474499702E0,-4.040999889E0,1.700399971E1
1.687000156E1,-8.184000015E0,-9.980299950E0,7.998499870E0
1.690000000E1,-1.229999924E1,-6.086199760E0,1.033109951E1
1.692000000E1,-3.885399818E0,2.601199865E0,7.267699718E0
1.694000156E1,4.313299656E0,1.300400019E0,-3.096799850E0
1.697000000E1,1.352299976E1,-9.418899536E0,-4.313399792E0
1.699000000E1,1.209560013E1,-9.265099525E0,5.845900059E0
1.701000000E1,5.554599762E0,-2.195299864E0,5.914999843E-1
1.703000156E1,7.083999634E0,4.788700104E0,-7.832199574E0
1.705000156E1,6.734200001E0,8.031299591E0,-9.400699615E0
1.708000000E1,7.589999586E-2,4.073199749E0,-7.001699924E0
1.710000156E1,-3.269999847E-2,3.665999770E-1,-2.425999880E0
1.713000000E1,3.326999843E-1,-3.200899839E0,-1.906999946E-1
1.715000000E1,5.195999742E-1,-7.742999792E-1,5.582900047E0
1.717000000E1,-1.703699946E0,-1.220399976E0,4.660599709E0
1.719000000E1,-1.834499955E0,-6.360999942E-1,1.772399902E0
1.721000156E1,-1.636999965E0,1.482599974E0,1.364399910E0
1.723000156E1,-1.824899912E0,3.103299856E0,9.398999810E-1
1.726000000E1,-5.142299652E0,-1.651999950E0,-1.369899988E0
1.728000000E1,-5.194099903E0,-4.009799957E0,2.452999949E-1
1.730000156E1,-2.779000044E0,-3.548599958E0,4.034800053E0
1.733000000E1,-5.039700031E0,-2.699800014E0,6.092000008E0
1.735000000E1,-9.906499863E0,-4.716499805E0,2.767899990E0
1.737000156E1,-1.164219952E1,-3.427299976E0,1.211699963E0
1.740000000E1,-1.086950016E1,-5.766000152E-1,9.114999771E0
1.742000000E1,-1.013239956E1,-4.293299675E0,9.120200157E0
1.744000156E1,-7.384299755E0,-2.777099848E0,2.197900057E0
1.747000000E1,-4.267799854E0,-7.950999737E-1,-2.544399977E0
1.749000000E1,-4.114599705E0,-4.709199905E0,-5.997200012E0
1.751000000E1,-4.002399921E0,-1.022149944E1,-4.407199860E0
1.753000312E1,-1.116599917E0,-1.255249977E1,1.840399981E0
1.756000000E1,9.810599327E0,-1.021560001E1,6.055799961E0
1.758000000E1,1.110739994E1,-4.141900063E0,2.630199909E0
1.760000000E1,7.785099983E0,2.186499834E0,-1.746299982E0
1.762000000E1,5.400700092E0,5.717700005E0,-5.962999821E0
1.764000000E1,4.513299942E0,6.356599808E0,-5.679399967E0
1.766000156E1,4.372999668E0,6.395899773E0,-4.400700092E0
1.769000000E1,4.503499985E0,6.451299667E0,-1.836199999E0
1.771000000E1,5.418699741E0,5.587199688E0,-2.562299967E0
1.773000156E1,6.401999950E0,5.006199837E0,-3.103199959E0
1.776000000E1,7.155099869E0,4.397599697E0,-3.884499788E0
1.778000000E1,7.003799915E0,2.186199903E0,-4.953999996E0
1.780000000E1,6.723999977E0,-1.332399964E0,-5.493999958E0
1.782000000E1,-4.237999916E0,-6.140699863E0,1.150519943E1
1.784000000E1,-7.424699783E0,-1.138319969E1,1.130429935E1
1.786000000E1,-1.776939964E1,-1.510349941E1,1.467239952E1
1.788000156E1,-7.228399754E0,-1.298799992E0,1.182429981E1
1.791000000E1,4.510999680E0,7.026899815E0,-3.385399818E0
1.793000000E1,9.502699852E0,5.044600010E0,-3.937500000E0
1.795000156E1,1.415289974E1,-8.816399574E0,-1.043879986E1
1.798000000E1,7.560299873E0,-1.077449989E1,2.897099972E0
1.800000000E1,3.640100002E0,-1.340199947E0,-3.836599827E0
1.802000156E1,4.223599911E0,6.542899609E0,-7.681499958E0
1.805000000E1,5.842999816E-1,7.829399586E0,-6.588099957E0
1.807000000E1,-1.516899943E0,2.912799835E0,-2.253999949E0
1.809000156E1,-1.959299922E0,-2.293400049E0,-6.754999757E-1
1.812000000E1,-1.343099952E0,-3.428599834E0,2.524899960E0
1.814000000E1,-1.020900011E0,6.121999621E-1,1.002600002E1
1.816000156E1,-2.693399906E0,-4.309999943E-1,-1.706999987E-1
1.819000000E1,-6.739000082E-1,3.324499846E0,-8.364999890E-1
1.821000156E1,-1.035300016E0,3.705399990E0,-1.996899962E0
1.823000156E1,-2.596400023E0,-1.035999954E-1,-8.729999661E-1
1.826000000E1,-1.960099936E0,-2.930899858E0,1.936999917E0
1.828000156E1,-1.535899997E0,-3.179499865E0,4.666299820E0
1.830000156E1,-2.434999943E0,-2.016399860E0,6.923999786E0
1.833000000E1,-8.961899757E0,-5.032899857E0,2.275199890E0
1.835000000E1,-1.067089939E1,-4.283800125E0,1.277000010E-1
1.837000156E1,-1.068309975E1,-1.226300001E0,9.470999837E-1
1.839000156E1,-1.204719925E1,-1.198699951E0,6.515999794E0
1.842000000E1,-1.046649933E1,-3.623999834E0,5.903299809E0
1.844000156E1,-7.212499619E0,-1.535399914E0,3.037000000E-1
1.847000000E1,-4.441100121E0,-4.885699749E0,-3.823699951E0
1.849000000E1,-2.263399839E0,-7.495499611E0,-5.075599670E0
1.851000000E1,-2.348999977E-1,-9.442999840E0,-1.812500000E0
1.853000156E1,4.994100094E0,-1.197760010E1,1.441999912E0
1.855000156E1,1.063619995E1,-6.904099941E0,2.996500015E0
1.858000156E1,7.950699806E0,7.493000031E-1,2.285099983E0
1.860000156E1,4.603499889E0,3.227799892E0,-3.518199921E0
1.863000000E1,5.895199776E0,3.997299910E0,-8.036000252E0
1.865000156E1,5.677000046E0,4.282999992E0,-5.820099831E0
1.868000000E1,5.278100014E0,4.419399738E0,-3.303299904E0
1.870000000E1,5.292299747E0,4.060100079E0,-2.508199930E0
1.872000000E1,5.770999908E0,4.309999943E0,-2.130199909E0
1.874000000E1,6.621999741E0,5.320099831E0,-2.166899920E0
1.876000000E1,8.201199532E0,5.303099632E0,-2.694099903E0
1.878000000E1,1.052929974E1,2.324300051E0,-6.370999813E-1
1.880000156E1,7.579999566E-1,-3.083699942E0,1.109919930E1
1.883000000E1,-7.669399738E0,-1.172789955E1,5.835099697E0
1.885000000E1,-1.703859901E1,-1.409799957E1,8.324299812E0
1.887000156E1,-1.148379993E1,-1.192700028E0,9.816599846E0
1.890000000E1,1.605299950E0,8.199999481E-2,-7.284699917E0
1.892000000E1,5.693199635E0,-6.967299938E0,-6.605099678E0
1.894000156E1,1.288649940E1,-1.242609978E1,2.126999944E-1
1.897000000E1,5.699599743E0,3.278499842E0,-1.466199994E0
1.899000000E1,6.353699684E0,8.451700211E0,-5.584399700E0
1.901000000E1,4.716099739E0,9.048199654E0,-7.197399616E0
1.903000156E1,9.738000035E-1,5.518499851E0,-6.739399910E0
1.905000156E1,1.340399981E0,1.220999956E0,-3.655399799E0
1.908000000E1,1.385399938E0,-3.610699892E0,-2.025199890E0
1.910000156E1,8.016999960E-1,-2.718199968E0,-1.674000025E-1
1.913000000E1,-3.893399954E0,-9.480999708E-1,7.852399826E0
1.915000000E1,-3.188899994E0,9.340999722E-1,4.940299988E0
1.917000000E1,-8.033999801E-1,1.533800006E0,6.780999899E-1
1.919000000E1,-7.364999652E-1,2.075599909E0,-1.572099924E0
1.921000156E1,-2.059599876E0,4.433999956E-1,-2.325099945E0
1.923000156E1,-2.221099854E0,-9.800999761E-1,-1.277400017E0
1.926000000E1,-1.490299940E0,-2.158200026E0,1.967399955E0
1.928000156E1,-2.110699892E0,-1.647499919E0,5.963500023E0
1.930000156E1,-6.604699612E0,-3.544199944E0,5.879799843E0
1.933000000E1,-9.919499397E0,-4.249899864E0,1.731099963E0
1.935000000E1,-9.508799553E0,-1.184499979E0,7.617999911E-1
1.937000156E1,-1.066779995E1,-1.746799946E0,3.761600018E0
1.940000000E1,-9.624899864E0,-4.922899723E0,8.458299637E0
1.942000000E1,-5.818999767E0,-1.554499984E0,4.522599697E0
1.944000156E1,-3.567799807E0,-8.873999715E-1,2.822999954E-1
1.947000000E1,-2.663899899E0,-4.799900055E0,-5.980199814E0
1.949000000E1,-1.712299943E0,-9.439299583E0,-2.787899971E0
1.951000000E1,1.670699954E0,-1.094439983E1,8.079999685E-2
1.953000156E1,6.445099831E0,-9.098299980E0,-4.490000010E-2
1.956000000E1,8.434299469E0,-6.469999999E-2,1.210199952E0
1.958000000E1,5.653500080E0,4.140999794E0,6.324999928E-1
1.960000000E1,6.180399895E0,5.142299652E0,-4.970999718E0
1.962000000E1,5.995399952E0,3.969599962E0,-5.205499649E0
1.964000000E1,5.045899868E0,4.705499649E0,-4.344599724E0
1.966000156E1,4.065499783E0,5.680699825E0,-2.949499846E0
1.969000000E1,4.525300026E0,6.131899834E0,-3.026399851E0
1.971000000E1,5.976999760E0,5.725800037E0,-3.803699970E0
1.973000156E1,7.277199745E0,5.369800091E0,-3.790399790E0
1.976000000E1,8.735599518E0,2.216899872E0,-3.538999796E0
1.978000000E1,4.022999763E0,-2.660399914E0,5.594299793E0
1.980000156E1,-4.827699661E0,-7.532399654E0,1.267859936E1
1.982000156E1,-1.214699936E1,-1.384029961E1,9.872200012E0
1.985000000E1,-1.441729927E1,-4.537899971E0,7.573699951E0
1.987000156E1,-6.014699936E0,5.194999695E0,5.065999627E-1
1.990000000E1,5.547100067E0,4.078799725E0,-6.997299671E0
1.992000000E1,6.723899841E0,-3.546399832E0,-2.929999828E0
1.994000000E1,1.241589928E1,-1.881929970E1,-9.772600174E0
1.996000000E1,1.014960003E1,-8.110400200E0,1.371999979E-1
1.998002188E1,8.432899475E0,3.381599903E0,-1.427099943E0
2.001000938E1,6.827199936E0,1.024749947E1,-3.089900017E0
2.004000156E1,1.155099988E0,5.084499836E0,-1.496999979E0
2.007000000E1,2.936999798E-1,-4.503999710E0,-1.833699942E0
2.009000156E1,-3.907999992E-1,-5.271599770E0,2.954699993E0
2.012000000E1,-2.224099874E0,1.469999924E-2,5.093499660E0
2.014000000E1,-9.963999987E-1,1.189299941E0,1.826999933E-1
2.016000156E1,-5.261999965E-1,2.139400005E0,-2.804399967E0
2.019000000E1,-2.120599985E0,2.242499828E0,-3.538800001E0
2.021000156E1,-3.442299843E0,8.172000051E-1,-1.462700009E0
2.023000156E1,-4.749399662E0,-2.674399853E0,1.393499970E0
2.026000000E1,-1.795199990E0,-3.028100014E0,6.622799873E0
2.028000000E1,-3.643999994E-1,-1.418900013E0,1.060169983E1
2.030000156E1,-6.758999825E0,-4.556999683E0,4.600199699E0
2.033000000E1,-1.131989956E1,-4.034399986E0,-3.861099958E0
2.035000000E1,-1.103849983E1,-5.740999579E-1,2.661499977E0
2.037000156E1,-9.901800156E0,-4.454899788E0,1.082590008E1
2.040000000E1,-4.860099792E0,-4.655099869E0,7.291699886E0
2.042000000E1,-4.548500061E0,-1.082999945E0,2.139299870E0
2.044000000E1,-5.327699661E0,-1.355000019E0,-2.868000031E0
2.046000000E1,-4.654699802E0,-3.562099934E0,-6.024099827E0
2.048000000E1,-3.607499838E0,-8.606200218E0,-2.785599947E0
2.050000000E1,-2.707000077E-1,-1.009749985E1,8.211999536E-1
2.052000156E1,6.433399677E0,-9.091599464E0,7.279999852E-1
2.055000000E1,1.153870010E1,-5.350599766E0,2.609099865E0
2.057000000E1,9.775799751E0,1.705099940E0,1.612499952E0
2.059000156E1,7.565099716E0,4.801199913E0,-5.315299988E0
2.062000000E1,6.027400017E0,4.494800091E0,-7.787199974E0
2.064000000E1,4.455199718E0,5.137799740E0,-6.385200024E0
2.066000156E1,3.290999889E0,6.304399967E0,-4.667500019E0
2.069000000E1,3.598899841E0,5.642600060E0,-2.715100050E0
2.071000000E1,6.445299625E0,3.516999960E0,-2.081599951E0
2.073000156E1,6.025799751E0,7.605700016E0,-9.340399742E0
2.076000000E1,9.187399864E0,2.435199976E0,-2.977499962E0
2.078000000E1,-2.721400023E0,-3.618099928E0,1.035949993E1
2.080000156E1,-9.508500099E0,-4.183499813E0,1.041599941E1
2.082000156E1,-1.299809933E1,-1.187459946E1,1.078319931E1
2.085000000E1,-3.064499855E0,-6.219699860E0,1.084459972E1
2.087000000E1,1.141999960E-1,4.725500107E0,-5.684999824E-1
2.089000000E1,7.917099953E0,3.786999941E0,-5.726999760E0
2.091000000E1,1.180599976E1,-5.655799866E0,-4.048099995E0
2.093000000E1,1.312889957E1,-1.726329994E1,-8.819999546E-2
2.095000156E1,2.921399832E0,-1.800999999E0,2.666299820E0
2.098000000E1,1.542199969E0,8.662699699E0,-9.142799377E0
2.100000000E1,1.105299950E0,1.071039963E1,-1.005949974E1
2.102000156E1,-2.516599894E0,6.558899879E0,-7.714900017E0
2.105000000E1,-2.657299995E0,-5.968999863E-1,-1.086499929E0
2.107000000E1,-3.332899809E0,-5.065199852E0,1.496099949E0
2.109000156E1,-1.271499991E0,-4.651499748E0,6.201099873E0
2.112000000E1,-1.017999947E-1,2.937599897E0,4.376299858E0
2.114000000E1,-1.738799930E0,2.159800053E0,9.996999502E-1
2.116000000E1,-2.992199898E0,7.602999806E-1,-4.081599712E0
2.118000000E1,-3.264199972E0,1.587599993E0,-2.717200041E0
2.120000000E1,-3.090899944E0,8.895999789E-1,2.504999936E-1
2.122000000E1,-1.750499964E0,-2.335999906E-1,1.307899952E0
2.124000000E1,-4.194999933E-1,-1.025399923E0,2.267099857E0
2.126000000E1,-1.688999981E-1,-2.570899963E0,4.013599873E0
2.128000156E1,-7.299999706E-3,-2.929299831E0,5.471299648E0
2.130000156E1,-3.027499914E0,-4.206399918E0,5.071000099E0
2.133000000E1,-7.407199860E0,-4.291199684E0,1.200199962E0
2.135000000E1,-8.552199364E0,-2.052199841E0,9.684999585E-1
2.137000156E1,-1.028789997E1,-3.981699944E0,6.481899738E0
2.139000156E1,-9.179800034E0,-6.920199871E0,1.148299980E1
2.142000000E1,-3.486299992E0,-1.067299962E0,4.620699883E0
2.144000000E1,-3.278100014E0,-7.787999511E-1,-5.052399635E0
2.146000000E1,-3.425299883E0,-4.461599827E0,-8.650699615E0
2.148000000E1,-2.770099878E0,-8.782099724E0,-3.437299967E0
2.150000000E1,-1.914899945E0,-9.877499580E0,1.059899926E0
2.152000156E1,3.287699938E0,-7.851399899E0,-4.549999833E-1
2.155000156E1,5.744699955E0,-3.639499903E0,-1.008299947E0
2.158000000E1,8.181300163E0,5.993000031E0,-7.760999799E-1
2.160000000E1,5.285099983E0,6.563600063E0,-5.131999969E0
2.162000000E1,5.201399803E0,4.869499683E0,-5.879799843E0
2.164000000E1,5.557499886E0,3.817999840E0,-5.798999786E0
2.166000156E1,5.512599945E0,3.074899912E0,-5.338900089E0
2.169000000E1,4.858500004E0,3.334299803E0,-3.917899847E0
2.171000000E1,6.314099789E0,4.299900055E0,-3.379699945E0
2.173000156E1,8.306900024E0,5.534999847E0,-3.888700008E0
2.176000000E1,7.090299606E0,5.378499985E0,-1.094300032E0
2.178000000E1,3.233000040E-1,-1.594000012E-1,5.990900040E0
2.180000156E1,-2.799299955E0,-6.359399796E0,6.783899784E0
2.182000156E1,-1.157049942E1,-1.521280003E1,1.306199932E1
2.185000000E1,-1.318099976E1,-4.830699921E0,8.409699440E0
2.187000156E1,-2.126699924E0,4.471600056E0,-4.867199898E0
2.190000000E1,3.710699797E0,-9.159999490E-1,-6.642299652E0
2.192000000E1,1.118869972E1,-2.080349922E1,-7.048999786E0
2.194000000E1,4.975299835E0,-2.676100016E0,2.895900011E0
2.196000000E1,3.290599823E0,6.307999611E0,-7.436000109E-1
2.198000000E1,4.192999840E0,1.130760002E1,-6.339499950E0
2.200000000E1,3.528899908E0,1.009910011E1,-7.958299637E0
2.202000156E1,-6.353999972E-1,2.744999886E0,-5.809599876E0
2.205000000E1,1.255999953E-1,-3.661000013E0,-2.602900028E0
2.207000000E1,1.365000010E0,-4.084700108E0,-2.451200008E0
2.209000156E1,1.168399930E0,-1.036199927E0,-1.746099949E0
2.212000000E1,-2.697199821E0,4.386000037E-1,4.292599678E0
2.214000000E1,-4.259399891E0,-5.976999998E-1,6.733099937E0
2.216000156E1,-7.202000022E-1,9.752999544E-1,2.998299837E0
2.219000000E1,8.122999668E-1,9.921000004E-1,-1.906699896E0
2.221000156E1,7.892000079E-1,-2.653999925E-1,-1.118700027E0
2.223000156E1,1.479000002E-1,-1.830399990E0,1.525000036E-1
2.226000000E1,-1.857299924E0,-2.470199823E0,7.440699577E0
2.228000156E1,-6.469799995E0,-5.752699852E0,5.788799763E0
2.230000156E1,-8.652599335E0,-5.398600101E0,1.071499944E0
2.233000000E1,-9.538899422E0,-3.739699841E0,-3.618499994E0
2.235000000E1,-1.032670021E1,-1.593999982E0,3.324800014E0
2.237000156E1,-1.056479931E1,-3.837099791E0,9.611599922E0
2.239000156E1,-5.492499828E0,-7.199100018E0,7.945799828E0
2.242000000E1,2.464200020E0,-9.387999535E0,-3.381999969E0
2.244000000E1,1.696699977E0,-9.246999741E0,-1.197760010E1
2.246000156E1,3.000799894E0,-3.813199997E0,-8.884699821E0
2.249000000E1,1.382699966E0,-2.104399920E0,3.205799818E0
2.251000000E1,3.913199902E0,-1.111699939E0,-6.129999757E-1
2.253000000E1,6.865200043E0,2.586499929E0,-3.105399847E0
2.255000000E1,5.883999825E0,4.648299694E0,-3.604300022E0
2.257000000E1,1.824199915E0,5.188999653E0,-1.229300022E0
2.259000000E1,-4.377999902E-1,6.666999817E0,-2.200799942E0
2.261000000E1,-1.215099931E0,8.657799721E0,-1.983999968E0
2.263000000E1,1.017400026E0,7.236499786E0,-1.906099916E0
2.265000000E1,3.470999956E0,4.236899853E0,-3.494299889E0
2.267000156E1,4.109699726E0,4.134999752E0,-4.467000008E0
2.269000156E1,4.479700089E0,6.067100048E0,-3.875000000E0
2.272000000E1,6.273200035E0,4.454999924E0,-3.279199839E0
2.274000156E1,6.883199692E0,2.734499931E0,-1.690400004E0
2.277000000E1,5.388599873E0,1.536999941E0,6.897799969E0
2.279000000E1,-5.722300053E0,-3.564299822E0,1.355569935E1
2.281000156E1,-7.859799862E0,-4.854000092E0,-6.275999546E-1
2.284000000E1,-1.643709946E1,-1.576480007E1,2.058909988E1
2.286000000E1,-8.938799858E0,-7.948599815E0,-9.893999696E-1
2.288000000E1,-3.517400026E0,3.822599888E0,-9.068900108E0
2.290000000E1,3.079499960E0,1.411899924E0,-4.476999760E0
2.292000000E1,4.473099709E0,-5.446799755E0,-2.623899937E0
2.294000000E1,5.553799629E0,-9.695599556E0,-3.066999912E0
2.296000000E1,4.199800014E0,-2.108399868E0,-3.102699995E0
2.298000000E1,5.289400101E0,4.422899723E0,-3.558599949E0
2.300000000E1,5.688699722E0,6.097099781E0,-4.180900097E0
2.302000000E1,5.774499893E0,6.473299980E0,-4.674200058E0
2.304000000E1,4.237699986E0,2.891099930E0,-2.282999992E0
2.306000000E1,4.927999973E0,-1.926699996E0,-3.112499952E0
2.308000000E1,1.518399954E0,-1.834299922E0,6.031199932E0
2.310000000E1,-8.599999547E-2,6.843000054E-1,9.910699844E0
2.312000000E1,1.388199925E0,2.781399965E0,1.207299948E0
2.314000000E1,1.745499969E0,2.628299952E0,-4.311399937E0
2.316000000E1,6.060000062E-1,2.059000015E0,-6.851399899E0
2.318000000E1,-1.604200006E0,3.118000031E-1,-6.242899895E0
2.320000000E1,-5.050399780E0,-1.852099895E0,1.293900013E0
2.322000000E1,-7.792699814E0,-2.316900015E0,5.667699814E0
2.324000156E1,-6.033199787E0,-1.208299994E0,5.000199795E0
2.327000000E1,7.490999699E-1,-1.401700020E0,3.331199884E0
2.329000000E1,2.324899912E0,-2.717999816E-1,3.104099989E0
2.331000000E1,-1.144199967E0,-2.382400036E0,1.157999992E0
2.333000000E1,-5.496099949E0,-3.527999878E0,1.312999964E0
2.335000000E1,-9.128099442E0,-3.876899958E0,2.133399963E0
2.337000000E1,-7.412699699E0,-1.662299991E0,3.828399897E0
2.339000000E1,-5.347599983E0,-1.799399972E0,4.545599937E0
2.341000000E1,-3.026599884E0,-5.076099873E0,7.428499699E0
2.343000000E1,-1.654699922E0,-2.977200031E0,7.072799683E0
2.345000156E1,-1.386600018E0,-1.096599936E0,2.009099960E0
2.348000000E1,-7.902999520E-1,-4.213900089E0,-1.395299911E0
2.350000156E1,3.850999773E-1,-5.319099903E0,-3.512799978E0
2.352000156E1,2.788499832E0,-5.913499832E0,-2.127500057E0
2.355000000E1,6.889999866E0,-8.088799477E0,3.865199804E0
2.357000000E1,7.743199825E0,-1.998799920E0,4.095600128E0
2.359000156E1,3.514400005E0,2.189899921E0,-5.543000102E-1
2.362000000E1,1.302899957E0,4.910399914E0,-6.506099701E0
2.364000000E1,1.998600006E0,4.486199856E0,-2.930799961E0
2.366000156E1,2.982399940E0,4.281300068E0,-9.557999969E-1
2.369000000E1,3.818199873E0,3.053299904E0,-1.428799987E0
2.371000000E1,4.040400028E0,2.980599880E0,-3.457599878E0
2.373000156E1,4.331399918E0,4.010499954E0,-4.916100025E0
2.376000000E1,5.853600025E0,5.944399834E0,-4.166599751E0
2.378000000E1,6.856499672E0,5.571099758E0,-2.284699917E0
2.380000156E1,4.312200069E0,3.121599913E0,2.269599915E0
2.382000156E1,-6.201499939E0,-4.053199768E0,1.460929966E1
2.385000000E1,-6.441499710E0,-1.058500004E1,-2.218400002E0
2.387000000E1,-9.255299568E0,-9.461899757E0,2.069900036E0
2.389000000E1,-7.006499767E0,-1.340289974E1,8.734600067E0
2.391000000E1,9.767999649E-1,-5.398999691E0,-8.121899605E0
2.393000469E1,4.462199688E0,3.703899860E0,-6.012499809E0
2.396000000E1,6.689300060E0,4.323899746E0,-1.753699899E0
2.398000000E1,4.659999847E0,4.422399998E0,-3.468999863E-1
2.400000000E1,2.504400015E0,5.214200020E0,-5.024999976E-1
2.402000156E1,1.657799959E0,2.535199881E0,-1.102499962E0
2.405000000E1,2.223599911E0,-1.286999941E0,-4.075500011E0
2.407000000E1,1.417400002E0,-1.767899990E0,-4.571300030E0
2.409000156E1,2.309999913E-1,-2.709999979E-1,-1.121399999E0
2.412000000E1,-2.049099922E0,2.694999874E-1,2.118299961E0
2.414000000E1,-2.080399990E0,1.158100009E0,9.396999478E-1
2.416000156E1,-1.583099961E0,1.159799933E0,-1.011999965E0
2.418000156E1,-1.432399988E0,3.164999783E-1,-1.937699914E0
2.421000156E1,-2.708999813E-1,-1.079999935E-2,2.300000004E-2
2.423000156E1,4.339999706E-2,-1.244999990E-1,1.151899934E0
2.426000000E1,-1.166100025E0,-1.081699967E0,3.076299906E0
2.428000000E1,-3.123800039E0,-6.827999949E-1,5.127299786E0
2.430000156E1,-5.955100060E0,-1.719299912E0,3.572199821E0
2.433000000E1,-8.690799713E0,-3.625199795E0,1.016000032E0
2.435000000E1,-8.256699562E0,-1.461199999E0,1.959399939E0
2.437000000E1,-7.140100002E0,-1.779099941E0,2.049799919E0
2.439000000E1,-6.392799854E0,-5.645799637E0,5.753699780E0
2.441000000E1,-3.385799885E0,-4.052700043E0,7.855099678E0
2.443000000E1,-9.474999905E-1,-2.150500059E0,3.609299898E0
2.445000156E1,-1.383000016E-1,-2.558099985E0,-1.181999967E-1
2.448000000E1,2.678000033E-1,-6.018899918E0,-4.651099682E0
2.450000000E1,8.980999589E-1,-6.042299747E0,-4.214900017E0
2.452000156E1,3.211599827E0,-7.180799961E0,-1.799799919E0
2.455000156E1,5.719799995E0,-2.485399961E0,3.102599859E0
2.458000000E1,1.480099916E0,3.256099939E0,-1.581399918E0
2.460000156E1,1.138599992E0,3.521600008E0,-7.386299610E0
2.463000000E1,2.599099874E0,3.275799990E0,-4.623199940E0
2.465000000E1,2.086499929E0,4.230400085E0,-1.663499951E0
2.467000156E1,2.456199884E0,5.035899639E0,-2.099200010E0
2.470000156E1,4.339099884E0,3.003299952E0,-3.957199812E0
2.473000156E1,6.291100025E0,2.518699884E0,-5.289700031E0
2.475000156E1,6.513199806E0,3.623499870E0,-5.128099918E0
2.478000000E1,6.078299999E0,3.719599962E0,-1.196900010E0
2.480000156E1,-1.906499982E0,-1.100999936E-1,8.306799889E0
2.483000000E1,-6.017899990E0,-5.103300095E0,5.951399803E0
2.485000000E1,-7.429499626E0,-9.728099823E0,6.448400021E0
2.487000000E1,-9.962800026E0,-8.256799698E0,1.376739979E1
2.489000156E1,-3.621999979E0,-3.039000034E-1,4.155699730E0
2.492000000E1,5.519000053E0,2.865599871E0,-6.389899731E0
2.494000000E1,5.528899670E0,-6.741999626E0,-4.427199841E0
2.496000156E1,6.356699944E0,-1.254169941E1,-7.529199600E0
2.499000000E1,5.384200096E0,3.495299816E0,-5.654500008E0
2.501000000E1,4.382699966E0,7.586999893E0,-4.704599857E0
2.503000156E1,2.937700033E0,6.119400024E0,-3.433599949E0
2.505000156E1,1.822999954E0,2.987699986E0,-1.483500004E0
2.508000000E1,-2.355999947E-1,-2.501399994E0,3.916699886E0
2.510000156E1,-1.384299994E0,-7.630999684E-1,4.678299904E0
2.513000000E1,-1.112100005E0,3.903999925E-1,-2.169999853E-2
2.515000000E1,-1.333299994E0,1.102900028E0,-3.452600002E0
2.517000000E1,-1.206900001E0,1.999199986E0,-5.060199738E0
2.519000000E1,-1.313699961E0,1.383299947E0,-4.401299953E0
2.521000000E1,-2.466599941E0,5.809000134E-1,-1.006399989E0
2.523000156E1,-4.010399818E0,2.575999796E-1,1.949999928E0
2.526000000E1,-1.707899928E0,2.246999890E-1,2.216799974E0
2.528000000E1,1.386799932E0,-2.300999910E-1,2.664099932E0
2.530000156E1,3.033399820E0,-4.730999768E-1,3.970099926E0
2.532000156E1,1.675300002E0,-1.336599946E0,4.314799786E0
2.535000625E1,-5.004999638E0,-1.681499958E0,-1.056900024E0
2.538000156E1,-9.820399284E0,-3.766399860E0,7.249000072E-1
2.541000000E1,-6.986000061E0,-1.658599973E0,3.100999832E0
2.543000000E1,-5.162799835E0,-5.832399845E0,6.854599953E0
2.545000156E1,-1.152199984E0,-6.277400017E0,6.800999641E0
2.548000000E1,-5.029999837E-2,-1.156399965E0,5.640100002E0
2.550000000E1,-1.659199953E0,-1.934899926E0,2.529999986E-2
2.552000156E1,-1.825599909E0,-2.770299911E0,-3.115199804E0
2.555000000E1,-4.079999775E-2,-3.871899843E0,-4.092499733E0
2.557000000E1,1.276600003E0,-4.561999798E0,-2.199199915E0
2.559000156E1,2.432299852E0,-5.515199661E0,6.169999838E-1
2.562000000E1,2.962800026E0,-1.094399929E0,1.684999913E-1
2.564000000E1,1.314899921E0,1.960099936E0,-6.204000115E-1
2.566000156E1,6.618999839E-1,2.977999926E0,-6.840399742E0
2.569000000E1,4.262599945E0,2.449699879E0,-3.248099804E0
2.571000000E1,5.056099892E0,2.424999952E0,-2.208999872E0
2.573000156E1,3.997999907E0,2.744699955E0,-2.218199968E0
2.576000000E1,4.827699661E0,4.750999928E0,-1.592399955E0
2.578000000E1,6.309799671E0,5.490099907E0,-1.886500001E0
2.580000000E1,6.533699989E0,5.736599922E0,-2.682600021E0
2.582000000E1,6.311500072E0,5.483399868E0,-2.321699858E0
2.584000000E1,5.102399826E0,4.334599972E0,-7.787999511E-1
2.586000156E1,2.315399885E0,1.726199985E0,2.391999960E0
2.588000156E1,-2.417599916E0,-1.970199943E0,7.244299889E0
2.591000000E1,-5.646399975E0,-9.463899612E0,1.297899961E0
2.593000156E1,-1.041869926E1,-1.038350010E1,3.039299965E0
2.595000156E1,-1.160190010E1,-5.454699993E0,3.617699862E0
2.598000000E1,9.077000022E-1,-1.375699997E0,-1.013499975E0
2.600000000E1,5.123699665E0,-9.071199417E0,-1.246899962E0
2.602000000E1,5.637300014E0,-8.599299431E0,6.541000009E-1
2.604000000E1,2.352200031E0,3.435299873E0,-7.105799675E0
2.606000000E1,2.007699966E0,8.560500145E0,-5.489799976E0
2.608000000E1,1.835899949E0,9.844999313E0,-3.703599930E0
2.610000156E1,1.526199937E0,6.472300053E0,-1.726099968E0
2.612000156E1,1.096899986E0,7.326999903E-1,-1.277499914E0
2.615000000E1,1.943199992E0,-2.634799957E0,-5.058899879E0
2.617000000E1,1.649299979E0,-2.236399889E0,-4.604799747E0
2.619000000E1,-5.641999841E-1,-4.030000046E-2,-3.043099880E0
2.621000156E1,-3.805099964E0,-7.906999588E-1,4.925999641E0
2.623000156E1,-4.052400112E0,1.200500011E0,7.008299828E0
2.626000000E1,-2.611199856E0,9.871999621E-1,-4.659999907E-1
2.628000156E1,-2.172999859E0,2.016000003E-1,-3.224599838E0
2.630000156E1,-1.473299980E0,5.108000040E-1,-7.635999918E-1
2.632000156E1,-6.090999842E-1,6.933999658E-1,7.766000032E-1
2.635000000E1,2.649999969E-2,-6.919999719E-1,1.070599914E0
2.637000000E1,6.283999681E-1,-1.003600001E0,1.829699993E0
2.639000156E1,6.459999681E-1,4.759999737E-2,3.707899809E0
2.642000000E1,-4.617599964E0,-2.533799887E0,2.036599874E0
2.644000000E1,-7.445999622E0,-3.258499861E0,3.671000004E-1
2.646000000E1,-8.368899345E0,-1.972099900E0,7.087999582E-1
2.648000000E1,-8.047499657E0,-2.744799852E0,2.654799938E0
2.650000000E1,-6.797099590E0,-7.575599670E0,6.753999710E0
2.652000156E1,-2.399600029E0,-5.308799744E0,7.635099888E0
2.655000000E1,-2.760999799E-1,-2.321399927E0,3.100499868E0
2.657000000E1,-5.002999902E-1,-2.851199865E0,-5.525000095E-1
2.659000469E1,5.776000023E-1,-4.402499676E0,-3.926999807E0
2.662000156E1,2.526199818E0,-6.401899815E0,-3.699299812E0
2.664000156E1,3.659199953E0,-4.743999958E0,-1.588999927E-1
2.666000156E1,4.744100094E0,-1.203299999E0,2.123199940E0
2.668000156E1,4.034899712E0,2.098700047E0,8.082000017E-1
2.671000000E1,1.339200020E0,3.298899889E0,-4.664999962E0
2.673000156E1,1.824299932E0,2.935799837E0,-7.394399643E0
2.675000156E1,3.471799850E0,2.736299992E0,-4.644799709E0
2.678000000E1,3.667999983E0,2.959100008E0,-1.491199970E0
2.680000000E1,3.315699816E0,3.373499870E0,-1.453199983E0
2.682000156E1,4.449199677E0,4.181299686E0,-2.262799978E0
2.685000000E1,6.465799809E0,5.224400043E0,-3.793699980E0
2.687000000E1,6.972599983E0,5.653800011E0,-3.297600031E0
2.689000000E1,6.335700035E0,4.990600109E0,-8.671000004E-1
2.691000000E1,2.459599972E0,2.180599928E0,4.284500122E0
2.693000000E1,-3.682999849E0,-2.510699987E0,8.115699768E0
2.695000156E1,-5.082399845E0,-7.242899895E0,5.435699940E0
2.698000156E1,-1.082349968E1,-9.998000145E0,3.681299925E0
2.701000000E1,-7.514099598E0,1.600099921E0,-7.599999756E-2
2.703000000E1,1.502799988E0,3.639799833E0,-3.497099876E0
2.705000000E1,4.396500111E0,-2.357800007E0,-2.947000027E0
2.707000000E1,1.457329941E1,-1.911319923E1,2.716099977E0
2.709000156E1,4.294300079E0,-4.189499855E0,4.785999954E-1
2.712000000E1,1.948899984E0,7.980399609E0,-6.526299953E0
2.714000000E1,1.873699903E0,9.731399536E0,-6.106299877E0
2.716000156E1,-2.358999997E-1,5.535299778E0,-4.400599957E0
2.719000000E1,1.228500009E0,-5.269999802E-2,-3.259399891E0
2.721000156E1,1.251099944E0,-1.887599945E0,-3.008299828E0
2.723000156E1,-5.188999772E-1,-2.515399933E0,-1.540499926E0
2.726000000E1,-3.702799797E0,7.878999710E-1,3.970799923E0
2.728000156E1,-3.702699900E0,2.367899895E0,1.798999906E0
2.731000156E1,-2.639999866E0,8.558999896E-1,-3.420300007E0
2.733002344E1,-2.210500002E0,8.461999893E-1,6.089999899E-2
2.736000000E1,1.494999975E-1,-1.614999920E-1,2.126600027E0
2.738000156E1,2.226799965E0,1.801999956E-1,1.819899917E0
2.741000000E1,2.684099913E0,-5.403000116E-1,1.393700004E0
2.743000156E1,2.015499830E0,-6.179000139E-1,2.978699923E0
2.745000156E1,-2.800299883E0,-2.185999870E0,2.974099874E0
2.748000000E1,-9.785799980E0,-4.908599854E0,6.140000001E-2
2.750000000E1,-1.086919975E1,-2.373800039E0,2.205999851E0
2.752000156E1,-8.668399811E0,-1.029299974E0,4.411099911E0
2.754000156E1,-6.540099621E0,-6.206099987E0,7.059599876E0
2.757000000E1,-2.034000009E-1,-3.202800035E0,6.704899788E0
2.759000000E1,-2.549999952E-2,-1.687299967E0,2.635999918E0
2.761000000E1,-1.104200006E0,-2.586999893E0,-1.861400008E0
2.763000000E1,-6.520000100E-1,-6.092799664E0,-4.612800121E0
2.765000000E1,1.125299931E0,-8.650799751E0,-4.488399982E0
2.767000000E1,2.687299967E0,-6.255199909E0,-2.363899946E0
2.769000000E1,3.276000023E0,-3.534899950E0,-2.579999901E-2
2.771000000E1,3.490000010E0,6.729999930E-2,1.337399960E0
2.773000156E1,2.698299885E0,2.143699884E0,1.304499984E0
2.776000000E1,1.598099947E0,3.425999880E0,-6.865900040E0
2.778000000E1,2.725999832E0,2.873299837E0,-6.116499901E0
2.780000000E1,4.330699921E0,3.011699915E0,-3.069399834E0
2.782000000E1,4.920899868E0,3.563299894E0,-2.557699919E0
2.784000000E1,4.180399895E0,4.184799671E0,-2.421399832E0
2.786000000E1,4.774600029E0,5.002500057E0,-2.594699860E0
2.788000156E1,6.113599777E0,5.583399773E0,-3.501699924E0
2.791000000E1,7.651399612E0,5.774299622E0,-3.883299828E0
2.793000000E1,6.144199848E0,4.512799740E0,-6.234999895E-1
2.795000156E1,-5.579999834E-2,5.746999979E-1,6.984299660E0
2.798000000E1,-5.523299694E0,-5.215600014E0,3.433699846E0
2.800000000E1,-7.017899990E0,-9.745299339E0,7.022999525E-1
2.802000156E1,-1.417259979E1,-1.016020012E1,1.156769943E1
2.805000000E1,-3.799700022E0,-3.320099831E0,-6.875000000E-1
2.807000000E1,2.898099899E0,-7.276299953E0,-4.622600079E0
2.809000156E1,3.464999914E0,-7.544499874E0,-5.348599911E0
2.812000000E1,5.214999676E0,5.735799789E0,-6.180899620E0
2.814000000E1,4.243599892E0,7.672899723E0,-1.509199977E0
2.816000156E1,3.265499830E0,6.329299927E0,-2.743999958E-1
2.819000000E1,4.090099812E0,2.127599955E0,-1.703400016E0
2.821000000E1,6.201900005E0,-2.456899881E0,-5.203599930E0
2.823000156E1,5.388499737E0,-2.148699999E0,-5.230000019E-1
2.826000000E1,-9.727999568E-1,4.253000021E-1,4.675499916E0
2.828000000E1,-1.240299940E0,3.407000005E-1,-3.439999744E-2
2.830000000E1,-5.385999680E-1,9.624999762E-1,-3.298699856E0
2.832000000E1,-6.523999572E-1,1.413800001E0,-4.966199875E0
2.834000000E1,-1.882099986E0,1.180699944E0,-4.154699802E0
2.836000000E1,-3.159600019E0,4.671999812E-1,2.161999941E-1
2.838000156E1,-3.865899801E0,-5.480999947E-1,3.172299862E0
2.841000000E1,-1.626599908E0,-1.124300003E0,2.044100046E0
2.843000000E1,7.173999548E-1,-3.154999912E-1,2.383599997E0
2.845000156E1,1.083699942E0,7.804999948E-1,3.984200001E0
2.847000156E1,-2.977099895E0,-1.163699985E0,2.623899937E0
2.850000000E1,-9.892899513E0,-4.120800018E0,1.375000030E-1
2.852000156E1,-9.648300171E0,-1.678799987E0,3.277400017E0
2.855000000E1,-5.359600067E0,-3.664499998E0,2.653699875E0
2.857000000E1,-3.953899860E0,-8.189499855E0,5.402100086E0
2.859000156E1,-1.419799924E0,-3.627399921E0,5.989299774E0
2.862000156E1,-2.577999830E-1,-2.458099842E0,2.481600046E0
2.864000156E1,1.573999971E-1,-2.682799816E0,-1.117299914E0
2.866000156E1,6.574000120E-1,-4.117899895E0,-4.522399902E0
2.869000000E1,3.492399931E0,-4.589399815E0,-2.211599827E0
2.871000000E1,4.228399754E0,-3.038399935E0,9.591999650E-1
2.873000156E1,3.427299976E0,-3.703999817E-1,2.156999826E0
2.876000000E1,2.115399837E0,1.346899986E0,-1.265299916E0
2.878000000E1,2.129299879E0,2.031199932E0,-6.043200016E0
2.880000000E1,3.188099861E0,2.324800014E0,-5.806099892E0
2.882000000E1,4.352200031E0,2.705899954E0,-2.484200001E0
2.884000000E1,4.215899944E0,3.127300024E0,-1.055299997E0
2.886000000E1,4.018300056E0,3.574800014E0,-1.036299944E0
2.888000156E1,4.985899925E0,4.098499775E0,-2.714999914E0
2.891000000E1,6.545799732E0,5.280499935E0,-4.152999878E0
2.893000000E1,6.800199986E0,5.489899635E0,-3.264199972E0
2.895000156E1,5.511799812E0,4.532700062E0,-7.342000008E-1
2.898000000E1,-2.647599936E0,-1.320299983E0,9.385799408E0
2.900000000E1,-5.880099773E0,-5.139499664E0,7.619400024E0
2.902000156E1,-5.186699867E0,-9.184100151E0,3.980999887E-1
2.905000000E1,-1.297200012E1,-9.061699867E0,1.388339996E1
2.907000000E1,-5.064799786E0,-4.081500053E0,2.785499811E0
2.909000156E1,3.718599796E0,-4.533199787E0,-7.109399796E0
2.912000000E1,4.002699852E0,-1.476300001E0,-5.016200066E0
2.914000000E1,4.517199993E0,5.022200108E0,-5.753499985E0
2.916000156E1,2.964599848E0,6.717299938E0,-2.489599943E0
2.918000156E1,2.072999954E0,6.708999634E0,-1.720399976E0
2.920000156E1,2.171700001E0,3.810999870E0,-1.862100005E0
2.923000000E1,2.957599878E0,-8.563999534E-1,-3.806699991E0
2.925000000E1,2.810799837E0,-2.429999828E0,-4.989699841E0
2.927000156E1,1.222399950E0,-1.633999944E0,-9.925999641E-1
2.930000000E1,-2.030699968E0,1.104099989E0,6.496199608E0
2.932000000E1,-2.253099918E0,1.130599976E0,2.829999849E-2
2.934000000E1,-1.755800009E0,1.190199971E0,-5.457200050E0
2.936000000E1,-1.954199910E0,1.883899927E0,-7.627399921E0
2.938000156E1,-2.623100042E0,1.200799942E0,-3.250000000E0
2.941000000E1,-3.604300022E0,-1.115199924E0,4.617799759E0
2.943000000E1,-1.119099975E0,-9.917999506E-1,4.026299953E0
2.945000156E1,1.776699901E0,-9.418999553E-1,3.118999958E0
2.948000000E1,2.378900051E0,-3.644999862E-1,2.289700031E0
2.950000000E1,-1.636699915E0,-1.349099994E0,1.673599958E0
2.952000156E1,-6.743899822E0,-3.036999941E0,-5.688999891E-1
2.955000000E1,-9.930299759E0,-1.872699976E0,3.121699810E0
2.957000000E1,-6.297999859E0,-3.586999774E-1,3.065500021E0
2.959000000E1,-5.121500015E0,-3.928299904E0,4.510799885E0
2.961000000E1,-3.675999880E0,-6.548999786E0,5.548399925E0
2.963000000E1,-2.502899885E0,-2.409600019E0,5.904200077E0
2.965000000E1,-2.723599911E0,-1.152199984E0,1.676100016E0
2.967000000E1,-3.143699884E0,-2.663199902E0,-3.138099909E0
2.969000000E1,-2.556599855E0,-5.805399895E0,-4.926399708E0
2.971000000E1,-8.809999824E-1,-7.616299629E0,-4.946199894E0
2.973000000E1,1.154199958E0,-5.838900089E0,-2.879599810E0
2.975000156E1,2.132599831E0,-4.746599674E0,-1.176599979E0
2.978000000E1,3.424099922E0,-1.451999992E-1,5.823999643E-1
2.980000000E1,2.905099869E0,2.789499998E0,5.988000035E-1
2.982000000E1,2.136899948E0,3.878999949E0,-4.985199928E0
2.984000000E1,2.150300026E0,3.298499823E0,-6.988399982E0
2.986000000E1,3.348299980E0,2.450599909E0,-4.387799740E0
2.988000156E1,4.170300007E0,2.167599916E0,-3.560199976E0
2.991000000E1,4.432300091E0,1.735099912E0,-3.557499886E0
2.993000000E1,5.251999855E0,2.935400009E0,-2.451999903E0
2.995000156E1,6.550699711E0,4.851200104E0,-1.965699911E0
2.998000000E1,8.179900169E0,5.628999710E0,-2.570400000E0
3.000000000E1,6.541399956E0,4.737999916E0,1.614999920E-1
3.002000156E1,1.737100005E0,1.193699956E0,4.402800083E0
3.005000000E1,-4.472700119E0,-4.016499996E0,7.009699821E0
3.007000156E1,-5.281199932E0,-8.720499992E0,4.188099861E0
3.009000156E1,-7.686800003E0,-8.145799637E0,3.818599939E0
3.012000156E1,-7.751999855E0,7.719999552E-2,4.737299919E0
3.014000156E1,-8.664000034E-1,5.688899994E0,-2.463599920E0
3.016000156E1,2.947399855E0,-1.796000004E0,-6.769399643E0
3.019000000E1,6.584499836E0,-1.644939995E1,-8.318599701E0
3.021000156E1,4.803899765E0,-4.469999969E-1,-3.301499844E0
3.024000156E1,2.483899832E0,7.747499943E0,-3.174299955E0
3.027000000E1,-3.057999909E-1,4.256400108E0,-2.135299921E0
3.029000000E1,1.791999936E-1,-3.439999819E-1,-1.355199933E0
3.031000156E1,1.727599978E0,-2.911499977E0,-3.849000037E-1
3.034000000E1,7.639999986E-1,1.054799914E0,9.886999726E-1
3.036000000E1,-1.519999951E-1,9.998999834E-1,6.733999848E-1
3.038000156E1,-1.128899932E0,8.983999491E-1,-1.400900006E0
3.041000000E1,-1.723399997E0,1.313300014E0,-3.466099977E0
3.043000000E1,-1.384299994E0,1.393700004E0,-3.140999973E-1
3.045000156E1,-4.935999811E-1,4.362999797E-1,7.588999867E-1
3.048000000E1,2.137699842E0,1.924999952E-1,4.741999805E-1
3.050000000E1,2.351300001E0,-1.088699937E0,8.190000057E-1
3.052000000E1,1.304499984E0,-8.984999657E-1,2.922699928E0
3.054000000E1,-1.228099942E0,-1.365000010E-1,4.533799648E0
3.056000000E1,-4.299299717E0,-1.076099992E0,2.313899994E0
3.058000000E1,-7.532299995E0,-2.745899916E0,6.635000110E-1
3.060000000E1,-9.186399460E0,-2.849299908E0,1.441399932E0
3.062000156E1,-6.119699955E0,-9.783999920E-1,3.250299931E0
3.064000156E1,-2.868299961E0,-7.129999995E-2,3.728899956E0
3.066000156E1,-1.389299989E0,-1.498399973E0,4.694799900E0
3.069000000E1,-2.165600061E0,-3.788999796E0,8.108900070E0
3.071000000E1,-2.199599981E0,-2.709499836E0,5.810899734E0
3.073000000E1,-2.638499975E0,-3.673599958E0,5.983999968E-1
3.075000000E1,-2.449899912E0,-4.717299938E0,-2.782899857E0
3.077000000E1,-7.449999452E-2,-5.923599720E0,-4.730299950E0
3.079000000E1,1.467700005E0,-6.822599888E0,-3.748699903E0
3.081000156E1,4.117499828E0,-5.916800022E0,-7.163000107E-1
3.083000156E1,5.133299828E0,-4.043200016E0,2.233500004E0
3.085000156E1,3.867499828E0,-7.110999823E-1,2.771800041E0
3.088000156E1,2.781699896E0,2.712199926E0,-5.657099724E0
3.091000000E1,2.651199818E0,2.617199898E0,-7.746799946E0
3.093000000E1,3.517899990E0,2.741899967E0,-3.498199940E0
3.095000156E1,3.775699854E0,3.444999933E0,-1.248600006E0
3.098000000E1,3.881399870E0,3.383899927E0,-8.973999619E-1
3.100000000E1,5.124599934E0,4.261699677E0,-2.968299866E0
3.102000156E1,6.486899853E0,5.431900024E0,-5.148600101E0
3.105000000E1,7.420699596E0,5.414400101E0,-3.396299839E0
3.107000000E1,5.820099831E0,3.987899780E0,-7.912999988E-1
3.109000156E1,1.505599976E0,5.406000018E-1,3.260699987E0
3.112000156E1,-4.749599934E0,-4.216499805E0,8.567299843E0
3.114000156E1,-5.880799770E0,-9.926300049E0,4.559299946E0
3.116000156E1,-1.087839985E1,-1.001239967E1,5.838199615E0
3.118000156E1,-1.087839985E1,-5.743700027E0,6.771299839E0
3.121000156E1,4.635999799E-1,-3.989000022E-1,-2.890999913E-1
3.124000000E1,4.992399693E0,-8.533399582E0,-8.360899925E0
3.126000000E1,6.179399967E0,-1.137599945E0,-6.550899982E0
3.128000000E1,6.201900005E0,4.978799820E0,-3.768299818E0
3.130000000E1,5.274799824E0,7.768199921E0,-2.121199846E0
3.132000000E1,7.844899654E0,7.709099770E0,-4.368999898E-1
3.134000000E1,6.755599976E0,1.892300010E0,8.407999873E-1
3.136000000E1,2.370300055E0,-5.364999771E-1,-4.429000020E-1
3.138000156E1,5.983999968E-1,-1.412899971E0,-2.722699881E0
3.141000000E1,-2.784600019E0,-2.453199863E0,-2.331199884E0
3.143000000E1,-5.017299652E0,-2.395599842E0,5.003399849E0
3.145000156E1,-6.236199856E0,-1.019500017E0,5.984399796E0
3.148000000E1,-3.868199825E0,1.872399926E0,-1.996299982E0
3.150000000E1,-1.428200006E0,1.035400033E0,-3.075599909E0
3.152000156E1,5.179999769E-2,2.310999930E-1,-1.051299930E0
3.155000000E1,2.260599852E0,5.149999857E-1,1.173300028E0
3.157000000E1,3.005899906E0,1.767999977E-1,1.456599951E0
3.159000156E1,1.819700003E0,1.383599997E0,-1.809999906E-2
3.162000156E1,-2.943399906E0,1.355199933E0,-1.512799978E0
3.164000156E1,-4.606299877E0,-5.729999766E-2,3.406199932E0
3.167000000E1,-1.431699991E0,-1.609799981E0,3.269199848E0
3.169000000E1,-7.840999961E-1,-3.695799828E0,1.348699927E0
3.171000000E1,-6.650999784E-1,-1.503799915E0,5.586000085E-1
3.173000000E1,-2.004899979E0,-1.274599910E0,9.724999666E-1
3.175000000E1,-2.352799892E0,-4.290699959E0,6.575699806E0
3.177000000E1,3.653999865E-1,-3.743599892E0,1.097499943E1
3.179000000E1,1.852699995E0,-3.165099859E0,8.565799713E0
3.181000156E1,1.656599998E0,-4.603499889E0,4.474400043E0
3.184000000E1,3.050999939E-1,-3.362900019E0,-2.829900026E0
3.186000000E1,-1.177999973E-1,-2.938799858E0,-7.552899837E0
3.188000156E1,2.565000057E-1,-4.918399811E0,-5.466599941E0
3.191000000E1,8.834999800E-1,-5.236000061E0,1.945299983E0
3.193000000E1,1.892899990E0,-1.691399932E0,-2.703999877E-1
3.195000156E1,2.371199846E0,8.973000050E-1,-1.398000002E0
3.198000000E1,2.003999949E0,2.358099937E0,-3.707099915E0
3.200000000E1,3.347299814E0,1.961999893E0,-2.044999838E0
3.202000156E1,4.443799973E0,2.396399975E0,-1.058099985E0
3.205000000E1,5.884799957E0,4.102399826E0,-1.313699961E0
3.207000000E1,6.556499958E0,4.805399895E0,-2.482100010E0
3.209000156E1,6.380399704E0,5.386799812E0,-3.387699842E0
3.212000156E1,4.759799957E0,5.344599724E0,-5.379499912E0
3.214000156E1,3.813299894E0,4.073100090E0,-5.747699738E0
3.217000000E1,1.552199960E0,1.584699988E0,-2.799000025E0
3.219000000E1,-2.391799927E0,-8.349999785E-1,4.369999766E-1
3.221000156E1,-8.303599358E0,-3.258100033E0,5.296999931E0
3.224000156E1,-1.010489941E1,-9.004300117E0,-1.676699996E0
3.227000000E1,-1.481320000E1,-4.930500031E0,1.555369949E1
3.229000000E1,-3.668299913E0,2.332700014E0,8.822099686E0
3.231000156E1,2.968099833E0,5.186199665E0,-2.170099974E0
3.234000000E1,5.442100048E0,-6.535099983E0,-3.476399899E0
3.236000000E1,7.194099903E0,-1.194579983E1,-6.126999855E-1
3.238000156E1,1.365199924E0,-5.737000108E-1,-4.939499855E0
3.241000000E1,1.863399982E0,6.462899685E0,-3.499799967E0
3.243000000E1,9.165999889E-1,5.182399750E0,-1.697299957E0
3.245000156E1,-1.278000027E-1,1.291199923E0,-2.669899940E0
3.248000000E1,6.244999766E-1,-1.435999990E0,-6.149099827E0
3.250000000E1,4.668999910E-1,-7.958999872E-1,-3.894799948E0
3.252000156E1,-1.859000027E-1,-1.295300007E0,1.137199998E0
3.255000000E1,5.564000010E-1,2.888000011E-1,9.035900116E0
3.257000000E1,-1.592399955E0,3.121999800E-1,1.398299932E0
3.259000156E1,-2.434200048E0,5.485000014E-1,-3.773899794E0
3.262000156E1,-2.411299944E0,1.345399976E0,-1.571499944E0
3.264000156E1,-2.965399981E0,3.925999999E-1,7.393999696E-1
3.267000156E1,-2.810299873E0,4.584999979E-1,-8.609999716E-2
3.270000000E1,-2.503599882E0,1.093999967E-1,-9.332999587E-1
3.272000000E1,-2.237299919E0,1.456999928E-1,-1.206999943E-1
3.274000000E1,-1.553200006E0,3.059999943E-1,5.414999723E-1
3.276000156E1,-6.373999715E-1,-7.220000029E-2,7.874999642E-1
3.279000000E1,-1.665899992E0,-1.723199964E0,-1.274999976E-1
3.281000156E1,-2.521699905E0,-2.694599867E0,8.604999781E-1
3.284000000E1,-1.059199929E0,-4.596999884E-1,4.662499905E0
3.286000000E1,-2.998600006E0,-1.850199938E0,1.798799992E0
3.288000156E1,-6.752799988E0,-5.255699635E0,4.365999997E-1
3.291000000E1,-8.537199974E0,-6.038499832E0,4.969199657E0
3.293000000E1,-5.336400032E0,-3.364199877E0,4.439599991E0
3.295000156E1,-1.189299941E0,-2.547600031E0,6.872999668E-1
3.298000000E1,2.440399885E0,-2.476599932E0,-2.513399839E0
3.300000000E1,1.893000007E0,-3.044099808E0,-4.148499966E0
3.302000156E1,6.069999933E-1,-2.074199915E0,-4.318500042E0
3.305000000E1,-1.132699966E0,-1.489199996E0,-4.351399899E0
3.307000000E1,-2.303799868E0,-1.975600004E0,-4.694900036E0
3.309000156E1,-3.472800016E0,-1.566100001E0,-4.073100090E0
3.312000156E1,-2.307399988E0,3.668999970E-1,-3.308899879E0
3.314000156E1,7.267000079E-1,1.298799992E0,-5.420499802E0
3.317000156E1,4.119800091E0,2.411200047E0,-7.311699867E0
3.320000000E1,4.628600121E0,3.060299873E0,-6.616399765E0
3.322000000E1,3.317999840E0,2.401799917E0,-5.483399868E0
3.324000156E1,2.049700022E0,2.329799891E0,-5.140599728E0
3.327000000E1,9.321999550E-1,2.232300043E0,-5.759099960E0
3.329000000E1,1.312199950E0,1.710799932E0,-6.953199863E0
3.331000156E1,1.633299947E0,-2.039999887E-2,-7.139400005E0
3.334000000E1,1.643899918E0,-3.722199917E0,-2.313799858E0
3.336000000E1,2.438899994E0,-4.495500088E0,2.056799889E0
3.338000156E1,1.204439926E1,-7.425799847E0,5.847199917E0
3.341000000E1,1.334259987E1,-4.308000088E0,7.836699963E0
3.343000000E1,1.335769939E1,1.552099943E0,6.267199993E0
3.345000156E1,1.022009945E1,4.721399784E0,1.018999964E-1
3.348000000E1,3.820899963E0,2.335999906E-1,-7.264899731E0
3.350000000E1,2.146299839E0,-2.136499882E0,-1.155959988E1
3.352000156E1,1.859999895E-1,-2.500000000E0,-1.373119926E1
3.355000000E1,-2.475299835E0,-2.969599962E0,-9.669899940E0
3.357000000E1,-5.401400089E0,-4.744199753E0,-3.899799824E0
3.359000156E1,-1.227740002E1,-5.723399639E0,7.730899811E0
3.362000156E1,-7.368299961E0,9.236999750E-1,5.289799690E0
3.364000156E1,-3.439299822E0,2.037999928E-1,1.122869968E1
3.367000000E1,3.540299892E0,-1.264799953E0,3.479399920E0
3.369000000E1,2.785899878E0,2.352599859E0,2.487799883E0
3.371000000E1,3.355999887E-1,2.254099846E0,3.998999894E-1
3.373000000E1,-6.202999949E-1,4.011999965E-1,-1.908699989E0
3.375000000E1,-1.968599916E0,-1.740099907E0,-4.196300030E0
3.377000000E1,-1.741099954E0,-1.634099960E0,-6.411499977E0
3.379000000E1,-1.114899993E0,-6.327999830E-1,-7.029599667E0
3.381000156E1,-9.930999875E-1,3.481999934E-1,-5.219899654E0
3.384000000E1,-3.145000041E-1,1.281099916E0,-3.032699823E0
3.386000000E1,4.999999702E-2,1.188099980E0,-1.940299988E0
3.388000156E1,8.731999993E-1,-1.518999934E-1,-2.087999880E-1
3.391000000E1,4.057199955E0,3.319999874E-1,3.235999823E0
3.393000000E1,2.737299919E0,1.106400013E0,1.701999903E0
3.395000156E1,1.741499901E0,7.549999952E-1,-1.141299963E0
3.398000000E1,2.359799862E0,-9.279999882E-2,-5.002299786E0
3.400000000E1,1.961399913E0,-2.081999928E-1,-5.541599751E0
3.402000156E1,1.343400002E0,-5.110999942E-1,-5.382999897E0
3.405000000E1,1.322700024E0,-1.264199972E0,-5.588799953E0
3.407000000E1,1.324100018E0,-1.478699923E0,-5.723000050E0
3.409000156E1,1.747599959E0,-1.131500006E0,-5.681200027E0
3.412000156E1,4.447000027E0,7.972999811E-1,-2.171499968E0
3.414000156E1,6.512300014E0,-9.127999544E-1,1.655519867E1
3.417000156E1,-1.124799967E0,-2.419600010E0,1.033339977E1
3.420000000E1,-1.137799978E0,-2.071599960E0,7.353000045E-1
3.422000000E1,5.676999688E-1,-5.475199699E0,6.247999668E-1
3.424000156E1,2.237099886E0,-5.235300064E0,4.416999817E-1
3.427000000E1,1.238399982E0,2.446999997E-1,-1.790699959E0
3.429002188E1,-1.430999935E-1,3.996099949E0,-3.841699839E0
3.432000000E1,2.793999910E-1,7.943099976E0,-5.294600010E0
3.434000000E1,3.224900007E0,1.116169930E1,1.122900009E0
3.436000000E1,6.136600018E0,9.525400162E0,-1.425099969E0
3.438000156E1,5.134599686E0,4.916299820E0,-5.939799786E0
3.441000000E1,4.025300026E0,-1.164600015E0,-6.315700054E0
3.443000000E1,2.407699823E0,-3.267400026E0,-5.665299892E0
3.445000156E1,-2.158999890E-1,-3.513899803E0,-2.922799826E0
3.448000000E1,-2.158999920E0,-1.594200015E0,8.080999851E-1
3.450000000E1,8.183000088E-1,-2.084199905E0,-1.313799977E0
3.452000156E1,2.377199888E0,-3.894599915E0,-1.740099907E0
3.455000000E1,1.252300024E0,-3.527199984E0,-9.249999523E-1
3.457000000E1,-2.316000015E-1,-5.453599930E0,4.630700111E0
3.459000625E1,-3.509999990E0,-1.206479931E1,9.895199776E0
3.462000000E1,-3.248099804E0,1.061999947E-1,1.163999915E0
3.464000000E1,-3.185599804E0,5.208699703E0,5.228099823E0
3.466000000E1,-1.690099955E0,4.605000019E0,1.219299912E0
3.468000156E1,-2.374199867E0,3.421199799E0,-2.622299910E0
3.471000000E1,-7.886499882E0,-2.393499851E0,1.066699982E0
3.473000000E1,-6.507999897E0,-4.539000034E0,2.238600016E0
3.475000000E1,-7.532999516E-1,-5.122600079E0,1.365399957E0
3.477000000E1,3.972800016E0,-3.257299900E0,1.112800002E0
3.479000000E1,6.110199928E0,-1.076699972E0,-9.562999606E-1
3.481000156E1,6.035299778E0,-4.059999809E-2,-1.746999979E0
3.484000000E1,5.485099792E0,2.568399906E0,-2.799299955E0
3.486000000E1,4.073400021E0,2.618199825E0,-4.011399746E0
3.488000000E1,1.987899899E0,1.114099979E0,-5.157999992E0
3.490000000E1,5.332999825E-1,2.630999982E-1,-4.834300041E0
3.492000000E1,-7.264999747E-1,-6.274999976E-1,-3.448499918E0
3.494000156E1,-1.841000021E-1,-7.723999619E-1,-2.603499889E0
3.497000000E1,3.457099915E0,-5.779999867E-2,-2.159100056E0
3.499000000E1,4.473099709E0,-3.107999861E-1,-2.763399839E0
3.501000000E1,4.442699909E0,1.451999992E-1,-6.032199860E0
3.503000156E1,4.431600094E0,6.390000135E-2,-8.113800049E0
3.506000000E1,3.893299818E0,-1.578799963E0,-7.524999619E0
3.508000000E1,3.144500017E0,-2.266399860E0,-3.470700026E0
3.510000156E1,2.936899900E0,-4.510399818E0,5.969899654E0
3.512000156E1,2.809099913E0,-3.493599892E0,6.910199642E0
3.514000156E1,3.010999858E-1,-1.236899972E0,3.670699835E0
3.517000156E1,-5.866600037E0,-3.263000011E0,1.006839943E1
3.520000000E1,-4.503200054E0,-7.020599842E0,4.027499676E0
3.522000000E1,-8.962999582E-1,-1.307399988E0,1.378099918E0
3.524000156E1,-2.067600012E0,2.490999937E0,2.669600010E0
3.527000000E1,-5.604599953E0,6.499899864E0,4.738199711E0
3.529000000E1,-2.921900034E0,8.706600189E0,-7.859799862E0
3.531000156E1,1.518899918E0,8.690799713E0,-1.634799957E1
3.533000156E1,3.664699793E0,5.976399899E0,-1.302369976E1
3.536000000E1,1.656999946E0,1.538100004E0,-4.615699768E0
3.538000156E1,5.988000035E-1,3.118999898E-1,-2.245499849E0
3.541000000E1,1.025399923E0,-5.053800106E0,1.512509918E1
3.543000000E1,4.598599911E0,-2.874000072E-1,9.513999820E-1
3.545000156E1,3.634999990E0,7.555999756E-1,-1.109219933E1
3.548000000E1,5.421000123E-1,-2.352399826E0,-4.375000000E0
3.550000000E1,4.300999939E-1,-4.101599693E0,1.044600010E1
3.552000156E1,1.631999969E0,-1.682199955E0,2.616400003E0
3.555000000E1,-1.453199983E0,-1.056050014E1,8.189000130E0
3.557000000E1,-5.733200073E0,-7.215600014E0,7.523699760E0
3.559000000E1,-3.670199871E0,8.149999976E-1,8.071399689E0
3.561000000E1,1.811999977E-1,2.081699848E0,3.744199991E0
3.563000000E1,-4.309999943E-2,-1.864099979E0,-2.800000012E-1
3.565000000E1,-4.283999920E0,-4.331399918E0,3.262999952E-1
3.567000156E1,-7.150499821E0,-5.719599724E0,3.357800007E0
3.570000000E1,-7.242899895E0,-2.554199934E0,3.005899906E0
3.572000000E1,-4.149199963E0,1.749300003E0,2.716599941E0
3.574002344E1,2.820000052E-1,1.405599952E0,1.519400001E0
3.577000000E1,2.321199894E0,1.724299908E0,-2.155299902E0
3.579000000E1,5.087999701E-1,2.563599825E0,-1.496199965E0
3.581000156E1,-9.957999587E-1,2.800299883E0,1.562999934E-1
3.583000156E1,-9.368000031E-1,2.258999825E0,8.625999689E-1
3.586000000E1,1.014899969E0,2.000900030E0,1.782999933E-1
3.588000156E1,2.728199959E0,1.679799914E0,-1.148399949E0
3.591000000E1,3.214900017E0,4.895999730E-1,-2.229699850E0
3.593000000E1,2.082700014E0,-6.906999946E-1,-1.120399952E0
3.595000156E1,1.158299923E0,-1.068599939E0,-2.777999938E-1
3.598000000E1,2.926199913E0,1.380800009E0,-3.665799856E0
3.600000000E1,3.416199923E0,1.436699986E0,-4.438099861E0
3.602000156E1,3.786199808E0,9.142999649E-1,-4.336599827E0
3.605000000E1,3.612399817E0,-6.796999574E-1,-5.750899792E0
3.607000000E1,2.511299849E0,-6.681999564E-1,-7.760200024E0
3.609000000E1,2.131399870E0,1.861999929E-1,-5.490299702E0
3.611000000E1,1.333199978E0,-1.913299918E0,4.433899879E0
3.613000000E1,-2.881999910E-1,-3.623799801E0,8.599599838E0
3.615000000E1,-2.512599945E0,-3.652599812E0,5.974199772E0
3.617000156E1,-7.813599586E0,-4.375599861E0,8.310599327E0
3.620000000E1,-8.800700188E0,-6.827899933E0,5.277800083E0
3.622000000E1,-2.409999847E0,-4.817500114E0,1.712899923E0
3.624000156E1,2.091300011E0,-1.492399931E0,2.535399914E0
3.627000000E1,-6.659999490E-2,2.192100048E0,5.668999672E0
3.629000156E1,-2.930899858E0,3.569399834E0,3.023900032E0
3.631000156E1,-3.544899940E0,4.691899776E0,-4.154999733E0
3.634000000E1,1.268700004E0,8.674200058E0,-1.622060013E1
3.636000000E1,2.608700037E0,7.728600025E0,-1.143839931E1
3.638000156E1,1.569599986E0,4.910999775E0,-4.927199841E0
3.641000000E1,1.327700019E0,2.168999910E0,1.471499920E0
3.643000000E1,4.075900078E0,-6.467999816E-1,7.282299995E0
3.645000156E1,3.780200005E0,-3.458799839E0,2.957599878E0
3.648000000E1,3.933799982E0,1.525999904E-1,-8.670899391E0
3.650000000E1,1.332499981E0,-1.739300013E0,-5.124599934E0
3.652000156E1,7.603999972E-1,-2.906299829E0,-7.958999872E-1
3.655000000E1,4.214999974E-1,-3.667899847E0,1.484200001E0
3.657000000E1,-8.131999969E-1,-7.093899727E0,3.528100014E0
3.659000000E1,-2.103199959E0,-1.143120003E1,1.116149998E1
3.661000156E1,-1.197600007E0,-3.695899963E0,6.138000011E0
3.664000000E1,-4.238999784E-1,4.844500065E0,2.124699831E0
3.666000000E1,-1.128700018E0,4.347000122E0,1.764699936E0
3.668000312E1,-1.486299992E0,1.616799951E0,-3.430599928E0
3.671000000E1,-6.031499863E0,-5.879899979E0,3.446699858E0
3.673000000E1,-9.408100128E0,-7.483899593E0,8.205999374E0
3.675000156E1,-3.327899933E0,-7.601999640E-1,3.801499844E0
3.678000000E1,1.841199994E0,2.133199930E0,7.590999603E-1
3.680000000E1,1.894400001E0,2.401499987E0,-1.378399968E0
3.682000156E1,1.190999970E-1,2.099200010E0,-3.325199842E0
3.685000000E1,-3.607599974E0,2.272099972E0,2.852999866E-1
3.687000000E1,-4.487800121E0,1.312600017E0,2.610999823E0
3.689000000E1,-1.523599982E0,1.182999983E-1,2.229699850E0
3.691000000E1,7.339000106E-1,-7.527999878E-1,9.980999827E-1
3.693000000E1,1.480599999E0,-6.754999757E-1,5.374999642E-1
3.695000156E1,1.255599976E0,-5.224999785E-1,3.139999807E-1
3.697000156E1,1.382399917E0,-1.970999986E-1,-2.451999933E-1
3.700000000E1,1.260599971E0,1.475399971E0,-1.501099944E0
3.702000156E1,9.429999590E-1,2.882999897E0,-2.830399990E0
3.705000000E1,1.342899919E0,2.722100019E0,-4.343800068E0
3.707000000E1,1.130699992E0,1.328400016E0,-5.002099991E0
3.709000000E1,1.041299939E0,-4.583999813E-1,-5.503999710E0
3.711000156E1,2.518999875E-1,-2.234499931E0,-6.606499672E0
3.714000156E1,-6.194999814E-1,-3.895399809E0,-3.242499828E0
3.717000156E1,1.344099998E0,-1.992499948E0,1.121899962E0
3.720000000E1,1.855799913E0,4.332000017E-1,4.729000092E0
3.722000000E1,1.796599984E0,-2.181200027E0,7.550199986E0
3.724000000E1,-8.844999671E-1,-7.778399944E0,1.454459953E1
3.726000000E1,-2.474799871E0,-1.004029942E1,7.425399780E0
3.728000000E1,-9.677000046E-1,-5.943299770E0,2.442699909E0
3.730000000E1,-9.407999516E-1,-6.304999590E-1,2.320699930E0
3.732000000E1,-2.389400005E0,2.460999966E0,3.296499968E0
3.734000000E1,-3.916199923E0,3.363799810E0,3.447999954E0
3.736000000E1,-7.585999966E-1,4.718899727E0,-6.123600006E0
3.738000000E1,4.350699902E0,7.606400013E0,-1.540509987E1
3.740000000E1,6.285299778E0,9.393099785E0,-9.888699532E0
3.742000000E1,5.772599697E0,9.071999550E0,-3.183199883E0
3.744000000E1,1.004329967E1,8.727600098E0,3.245499849E0
3.746000000E1,5.840499878E0,2.336599827E0,9.730999470E-1
3.748000000E1,3.528599977E0,-5.482500076E0,-4.999999702E-2
3.750000000E1,2.723700047E0,-3.051699877E0,-7.173999786E0
3.752000000E1,2.051699877E0,-4.321999848E-1,-8.920700073E0
3.754000000E1,-3.367999792E-1,-2.646600008E0,-5.598399639E0
3.756000000E1,-2.923799992E0,-3.266099930E0,2.892999887E0
3.758000000E1,-3.185299873E0,-2.617300034E0,1.237999946E-1
3.760000156E1,-1.270900011E0,-2.692600012E0,-4.261399746E0
3.763000000E1,2.391499996E0,-7.233999968E-1,-2.694999933E0
3.765000000E1,-1.390599966E0,-9.409599304E0,6.165899754E0
3.767000156E1,-3.379699945E0,-1.053949928E1,7.053799629E0
3.770000000E1,-5.337100029E0,9.846999645E-1,4.647399902E0
3.772000000E1,-5.663300037E0,4.586499691E0,1.277899981E0
3.774000156E1,-5.277299881E0,2.852999926E0,1.085399985E0
3.776000625E1,-7.968099594E0,-3.606299877E0,6.315799713E0
3.779000000E1,-5.907399654E0,-4.255099773E0,1.003399968E0
3.781000312E1,-2.340399981E0,1.348000020E-1,1.552299976E0
3.784000000E1,-5.400999784E-1,-9.127999544E-1,6.703999639E-1
3.786000000E1,1.765999943E-1,-2.672999799E-1,1.389999986E-1
3.788000156E1,5.270999670E-1,1.087800026E0,-2.969000041E-1
3.791000000E1,-9.921999574E-1,2.524099827E0,-1.142199993E0
3.793000000E1,-1.359300017E0,2.036799908E0,-8.838999867E-1
3.795000156E1,-7.867999673E-1,2.154599905E0,-1.321000010E-1
3.797000156E1,1.436000019E-1,2.092499971E0,-4.793999791E-1
3.800000000E1,1.118700027E0,1.063599944E0,-2.071399927E0
3.802000000E1,1.237100005E0,-1.693999916E-1,-1.629099965E0
3.804000000E1,1.351599932E0,-1.476799965E0,7.897999883E-1
3.806000000E1,1.028900027E0,-1.123299956E0,2.017099857E0
3.808000000E1,1.258499980E0,1.958999932E-1,-2.779799938E0
3.810000156E1,2.528499842E0,2.533399820E0,-6.070699692E0
3.812000156E1,2.943899870E0,1.784999967E0,-7.578299999E0
3.815000000E1,2.491099834E0,-3.766399860E0,-1.139599991E1
3.817000156E1,2.302000046E0,-5.496299744E0,-1.177309990E1
3.820000000E1,1.453199983E0,-7.899999619E-1,-5.238499641E0
3.822000000E1,7.391999960E-1,1.972499967E0,-2.767499924E0
3.824000156E1,3.854299784E0,-3.092499971E0,2.888529968E1
3.827000000E1,4.542999864E-1,-5.774399757E0,4.013199806E0
3.829000000E1,3.619999886E-1,-5.427299976E0,6.684299946E0
3.831000156E1,4.116099834E0,-8.011099815E0,8.355099678E0
3.834000000E1,4.899799824E0,-1.417899966E0,3.627099991E0
3.836000000E1,1.904899955E0,2.464900017E0,7.181000113E-1
3.838000156E1,-2.339999914E0,5.009999752E0,1.031899929E0
3.841000000E1,-7.956699848E0,8.806900024E0,-9.024099350E0
3.843000000E1,-4.568599701E0,1.071889973E1,-1.992169952E1
3.845000000E1,-4.232999980E-1,5.778399944E0,-1.643029976E1
3.847000000E1,-3.883999884E-1,1.194599986E0,-8.729499817E0
3.849000000E1,-7.082999945E-1,9.059000015E-1,-1.939199924E0
3.851000000E1,1.356699944E0,1.997499943E0,4.362699986E0
3.853000156E1,2.931200027E0,-8.709999919E-1,5.780099869E0
3.856000000E1,8.195899963E0,7.889999449E-2,-5.644599915E0
3.858000000E1,3.098099947E0,-1.052199960E0,-9.816899300E0
3.860000156E1,5.499999970E-3,-3.462999821E0,-4.131599903E0
3.862000156E1,1.065299988E0,-5.291399956E0,7.574299812E0
3.864000156E1,5.451999903E-1,-2.841799974E0,-3.432899952E0
3.867000156E1,-5.819000006E-1,-1.370069981E1,1.412389946E1
3.870000000E1,2.376499891E0,1.041999936E0,3.405399799E0
3.872000000E1,5.314999819E-1,4.051099777E0,6.771699905E0
3.874000156E1,-1.738899946E0,1.655000001E-1,6.113199711E0
3.877000000E1,-5.258699894E0,-3.076999903E0,-3.051999807E0
3.879000000E1,-9.141399384E0,-3.146999836E0,7.188999653E0
3.881000156E1,-1.014379978E1,-3.550400019E0,5.509099960E0
3.883000156E1,-6.270199776E0,-6.092000008E-1,-1.084299922E0
3.886000000E1,-6.078999639E-1,1.207899928E0,3.660999835E-1
3.888000156E1,1.824899912E0,1.884999990E0,-2.604999840E-1
3.891000000E1,3.013099909E0,3.916699886E0,-1.045499921E0
3.893000000E1,1.492200017E0,3.910399914E0,-1.233600020E0
3.895000156E1,3.775999844E-1,2.627699852E0,-1.986599922E0
3.898000000E1,6.405999660E-1,-3.529999852E-1,-8.704999685E-1
3.900000000E1,1.651699901E0,-1.323499918E0,1.179299951E0
3.902000000E1,1.980899930E0,-1.389899969E0,2.814800024E0
3.904000000E1,1.880999923E0,-3.143999875E-1,9.356999993E-1
3.906000000E1,2.426300049E0,1.439399958E0,-2.758899927E0
3.908000000E1,2.514600039E0,2.732399940E0,-5.321700096E0
3.910000156E1,2.571199894E0,1.174600005E0,-7.009299755E0
3.912000156E1,2.689299822E0,-1.379199982E0,-8.324799538E0
3.914000156E1,2.715299845E0,-3.315399885E0,-9.480500221E0
3.917000156E1,3.065899849E0,-2.481799841E0,-8.140299797E0
3.920000000E1,4.230799675E0,-1.826799989E0,1.273999959E-1
3.922000000E1,5.432899952E0,-1.467800021E0,1.251039982E1
3.924000156E1,2.971699953E0,-3.484899998E0,1.176079941E1
3.927000000E1,-8.626999855E0,-9.156000137E0,1.179169941E1
3.929000000E1,-5.474999905E0,-9.246099472E0,8.234000206E0
3.931000156E1,6.082999706E-1,-3.755299807E0,3.146699905E0
3.934000000E1,2.497900009E0,4.066699982E0,3.991699934E0
3.936000000E1,-1.309099913E0,7.463199615E0,8.387000084E0
3.938000156E1,-1.815199971E0,9.242899895E0,-6.915599823E0
3.941000000E1,2.449399948E0,6.665799618E0,-2.342179871E1
3.943000000E1,3.495800018E0,5.845900059E0,-1.324409962E1
3.945000156E1,1.819599986E0,6.261600018E0,-3.937999964E0
3.948000000E1,2.552199841E0,2.042199850E0,6.546599865E0
3.950000000E1,-1.210500002E0,-5.802899837E0,9.310299873E0
3.952000000E1,2.423399925E0,-1.469399929E0,-5.001699924E0
3.954000000E1,5.267499924E0,5.219999701E-2,-8.214099884E0
3.956000000E1,1.081499934E0,-2.294899940E0,-5.659199715E0
3.958000000E1,1.567999959E0,-4.107399940E0,-1.032899976E0
3.960000156E1,3.986499786E0,-5.609200001E0,5.632099628E0
3.963000000E1,1.586300015E0,-1.265590000E1,9.975899696E0
3.965000000E1,-2.465000004E-1,-4.272500038E0,5.588299751E0
3.967000156E1,7.679999620E-2,1.548799992E0,4.918499947E0
3.970000000E1,-3.148099899E0,3.776399851E0,-5.817999840E-1
3.972000000E1,-1.866499901E0,1.093500018E0,-6.108999729E0
3.974000156E1,-4.135699749E0,-3.301699877E0,-2.307499886E0
3.977000000E1,-1.655929947E1,-1.061969948E1,1.252329922E1
3.979000000E1,-5.864099979E0,3.298699856E0,3.555999994E0
3.981000156E1,-1.080399990E0,4.019099712E0,-2.509199858E0
3.984000000E1,-9.304999709E-1,1.486799955E0,-2.497699976E0
3.986000000E1,-1.235800028E0,3.102799892E0,1.009699941E0
3.988000000E1,-4.301999807E-1,3.095999956E0,5.144399643E0
3.990000000E1,1.153399944E0,-3.507999778E-1,5.666999817E0
3.992000000E1,1.365499973E0,-2.325399876E0,2.610499859E0
3.994000000E1,-5.810000002E-2,-1.446999907E0,-1.773999929E-1
3.996000000E1,-1.801499963E0,-4.439999908E-2,-2.305099964E0
3.998000000E1,-8.737999797E-1,8.988999724E-1,-2.579099894E0
4.000000000E1,1.353999972E-1,1.776699901E0,-2.082999945E-1
4.002000000E1,1.896600008E0,1.169999957E0,1.046999991E-1
4.004000000E1,2.260900021E0,1.616400003E0,-2.455099821E0
4.006000000E1,2.755800009E0,2.116999865E0,-4.461899757E0
4.008000000E1,2.936599970E0,1.008800030E0,-5.812900066E0
4.010000156E1,3.080899954E0,-2.046999931E-1,-6.275199890E0
4.013000000E1,3.176899910E0,-1.076099992E0,-6.186699867E0
4.015000000E1,3.199999809E0,-7.920999527E-1,-4.696099758E0
4.017000156E1,3.173300028E0,-3.395999968E-1,-3.296199799E0
4.020000000E1,7.936499596E0,-1.707799911E0,4.573299885E0
4.022000156E1,3.865899801E0,7.116999626E-1,5.607500076E0
4.024000156E1,-4.572999775E-1,-7.669000030E-1,4.817899704E0
4.026000156E1,-4.353399754E0,-4.943099976E0,8.560599327E0
4.028000156E1,-7.733199596E0,-8.959400177E0,8.608300209E0
4.030000156E1,-4.923299789E0,-6.428099632E0,5.369599819E0
4.032000156E1,-2.824599981E0,-2.439299822E0,2.842700005E0
4.035000156E1,-7.882999778E-1,8.305999637E-1,1.294999957E0
4.038000156E1,-5.913000107E-1,1.783100009E0,-3.975999951E-1
4.041000000E1,9.698999524E-1,4.804100037E0,-1.052530003E1
4.043000000E1,2.253599882E0,6.711400032E0,-1.332889938E1
4.045000000E1,2.409699917E0,7.494899750E0,-9.091799736E0
4.047000000E1,3.030799866E0,7.664799690E0,-5.924999714E-1
4.049000000E1,1.936800003E0,3.197799921E0,3.507999897E0
4.051000000E1,9.858999848E-1,-1.210999936E-1,5.737999678E-1
4.053000156E1,1.348799944E0,-5.195999742E-1,-4.735099792E0
4.056000000E1,1.691999912E0,-6.190999746E-1,-4.570499897E0
4.058000000E1,1.099699974E0,-1.386299968E0,-7.908999920E-1
4.060000156E1,1.796299934E0,-1.989899993E0,2.332099915E0
4.062000156E1,2.388999939E0,-2.837199926E0,2.074599981E0
4.064000156E1,1.962399960E0,-2.731400013E0,-1.447999954E0
4.067000156E1,4.894000053E0,-3.949800014E0,3.102699995E0
4.070000000E1,2.975499868E0,-9.299399376E0,9.538700104E0
4.072000625E1,-1.207199931E0,-1.316399932E0,4.659999847E0
4.075000000E1,-5.676799774E0,4.326999664E0,1.317699909E0
4.077000000E1,-6.569699764E0,2.762799978E0,-1.508000016E0
4.079000000E1,-9.223599434E0,-2.744499922E0,-1.540699959E0
4.081000156E1,-1.463949966E1,-9.841799736E0,8.368000031E0
4.084000000E1,-6.814599991E0,-1.581399918E0,4.814099789E0
4.086000000E1,4.267999828E-1,3.266700029E0,-2.631099939E0
4.088000156E1,1.761699915E0,1.937199950E0,-4.196799755E0
4.091000000E1,9.281999469E-1,4.219000041E-1,-2.576599836E0
4.093000000E1,6.976999640E-1,1.409799933E0,-1.695099950E0
4.095000000E1,3.658999801E-1,3.053499937E0,-5.282999873E-1
4.097000000E1,2.020999938E-1,3.255599976E0,1.130100012E0
4.099000000E1,1.406700015E0,1.718099952E0,3.922999799E-1
4.101000000E1,2.548099995E0,6.635999680E-1,-6.654999852E-1
4.103000156E1,2.661700010E0,2.389999852E-2,-1.178699970E0
4.106000000E1,2.249199867E0,-9.299999475E-1,-1.716300011E0
4.108000000E1,2.406599998E0,3.982999921E-1,-2.558500051E0
4.110000156E1,3.422399998E0,1.193099976E0,-2.183099985E0
4.112000156E1,4.275700092E0,1.299600005E0,-3.441399813E0
4.114000156E1,4.974999905E0,-1.281299949E0,-5.417699814E0
4.117000156E1,4.779799938E0,-3.091599941E0,-1.073909950E1
4.120000000E1,3.638099909E0,5.090999603E-1,-6.837199688E0
4.122000000E1,3.020299911E0,8.614999652E-1,-2.240700006E0
4.124000000E1,3.849299908E0,-4.699599743E0,1.454220009E1
4.126000000E1,4.334099770E0,-3.963699818E0,8.718400002E0
4.128000000E1,-3.879999816E-1,-3.639199972E0,8.188699722E0
4.130000000E1,-8.631099701E0,-7.698400021E0,1.347219944E1
4.132000000E1,-5.371299744E0,-7.898099899E0,7.249799728E0
4.134000000E1,-1.918299913E0,-2.801199913E0,2.020400047E0
4.136000000E1,-7.416999936E-1,1.043799996E0,1.845099926E0
4.138000156E1,-1.522599936E0,3.517899990E0,3.857499838E0
4.141000000E1,-1.502299905E0,5.438399792E0,-5.019499779E0
4.143000000E1,1.738999963E0,7.619599819E0,-1.675559998E1
4.145000000E1,3.857499838E0,8.058499336E0,-1.596919918E1
4.147000000E1,3.503199816E0,6.770899773E0,-8.520299911E0
4.149000000E1,2.658099890E0,5.120199680E0,-6.640999913E-1
4.151000000E1,2.017099857E0,2.519899845E0,3.827999830E0
4.153000156E1,1.467000008E0,1.613999903E-1,3.397699833E0
4.156000000E1,2.208600044E0,-1.921099901E0,-5.662799835E0
4.158000000E1,4.160999775E0,-1.881799936E0,-5.944599628E0
4.160000156E1,3.734399796E0,-1.932999969E0,-2.238899946E0
4.162000156E1,4.560100079E0,-4.411399841E0,2.953199863E0
4.164000156E1,8.547299385E0,-6.766499996E0,6.683699608E0
4.167000156E1,7.095499992E0,-1.299039936E1,1.114349937E1
4.170000000E1,-2.422099829E0,2.315899849E0,9.766499519E0
4.172000000E1,-1.979999900E0,2.608199835E0,-5.834300041E0
4.174000156E1,-4.465499878E0,2.487999916E0,-1.093929958E1
4.177000000E1,-1.786599922E1,-4.523299694E0,6.519399643E0
4.179000156E1,-1.515899944E1,-2.468999863E0,4.445899963E0
4.181000156E1,-1.267479992E1,-3.982699871E0,6.372399807E0
4.184000000E1,1.787799954E0,-4.087999761E-1,3.629999980E-2
4.186000000E1,2.598700047E0,2.259999886E-2,1.259599924E0
4.188000156E1,2.146199942E0,8.678999543E-1,-4.262999892E-1
4.190000156E1,2.449599981E0,1.288499951E0,-1.780999899E-1
4.193000000E1,3.202299833E0,2.926199913E0,-1.712399960E0
4.195000000E1,2.452399969E0,3.750099897E0,-4.268099785E0
4.197000000E1,2.586400032E0,4.484099865E0,-5.769899845E0
4.199000000E1,3.180399895E0,2.989300013E0,-6.734499931E0
4.201000000E1,3.724200010E0,4.781999886E-1,-7.040599823E0
4.203000156E1,4.248300076E0,-2.847599983E0,-7.191199780E0
4.206000000E1,7.162199974E0,-1.066039944E1,-6.480399609E0
4.208000000E1,6.567199707E0,-8.422900200E0,-5.950799942E0
4.210000156E1,4.374000072E0,-8.034999967E-1,-6.549999714E0
4.212000156E1,3.609299898E0,5.198599815E0,-6.664999962E0
4.214000156E1,-4.389999807E-1,3.292500019E0,1.956900001E0
4.217000156E1,-9.340999603E0,-1.554859924E1,2.282909966E1
4.220000312E1,-6.736399651E0,-1.425710011E1,2.330800056E0
4.223000000E1,-2.248899937E0,3.299999952E0,4.314300060E0
4.225000000E1,-3.184799910E0,6.546899796E0,7.993700027E0
4.227000000E1,2.582999945E0,1.164739990E1,-7.056799889E0
4.229000000E1,9.378299713E0,1.622970009E1,-1.766409874E1
4.231000156E1,1.145839977E1,1.785190010E1,-9.442999840E0
4.234000000E1,4.570300102E0,1.133539963E1,-5.490799904E0
4.236000000E1,1.646999955E0,6.140100002E0,-4.008100033E0
4.238000156E1,2.790699959E0,2.111599922E0,-4.652999878E0
4.241000000E1,3.636199951E0,-1.108039951E1,-8.984600067E0
4.243000000E1,3.168699980E0,-1.491699982E1,-8.689399719E0
4.245000156E1,1.756899953E0,-1.520519924E1,3.453699827E0
4.247001250E1,-2.128039932E1,-2.234899902E1,6.010910034E1
4.250000000E1,7.363499641E0,2.940399885E0,-1.094539928E1
4.252000000E1,-5.187000036E-1,-9.389999509E-2,4.577399731E0
4.254000000E1,-3.673099995E0,-2.804600000E0,3.532299995E0
4.256000000E1,-3.907399893E0,-3.709100008E0,-7.625699997E0
4.258000000E1,-9.326700211E0,-9.012999535E-1,3.465499878E0
4.260000000E1,-6.724899769E0,4.509099960E0,2.948599815E0
4.262000156E1,-5.112699986E0,2.658999920E0,-2.368999869E-1
4.264000156E1,-5.965799809E0,-8.240900040E0,8.211999893E0
4.267000156E1,3.722999811E0,-5.418600082E0,2.841500044E0
4.270000000E1,5.789599895E0,3.711499929E0,5.315199852E0
4.272000000E1,4.092999935E0,6.743399620E0,3.219199896E0
4.274000156E1,2.827499866E0,6.963500023E0,2.588999867E-1
4.277000000E1,2.837699890E0,8.951999545E-1,-5.311399937E0
4.279000000E1,2.235899925E0,-3.632999897E0,-7.273900032E0
4.281000156E1,8.971999884E-1,-4.879600048E0,-5.977999687E0
4.284000000E1,-2.269299984E0,-2.773699999E0,1.678509903E1
4.286000000E1,2.302799940E0,-4.021100044E0,8.769800186E0
4.288000156E1,7.997799873E0,-6.239599705E0,3.590999842E0
4.291000000E1,8.955200195E0,-5.649899960E0,1.022229958E1
4.293000000E1,3.933599949E0,-3.317199945E0,7.175299644E0
4.295000000E1,-7.380999923E-1,-1.229999959E-2,3.645799875E0
4.297000000E1,-5.123099804E0,4.761999846E-1,1.824999899E-1
4.299000000E1,-5.358500004E0,5.232999921E-1,-7.290599823E0
4.301000000E1,-8.003499985E0,1.766899943E0,-1.526179981E1
4.303000156E1,-4.884999752E0,3.543499947E0,-1.065569973E1
4.306000000E1,-1.618799925E0,4.854000092E0,2.497999907E0
4.308000000E1,2.341099977E0,7.777499676E0,2.884599924E0
4.310000156E1,5.056600094E0,9.827599525E0,-1.565499902E0
4.312000156E1,6.144099712E0,1.031869984E1,-1.942099929E0
4.314000156E1,7.229799747E0,9.711500168E0,3.190999925E-1
4.317000156E1,3.997399807E0,5.313699722E0,-1.800999939E-1
4.320000000E1,3.156399965E0,1.427399993E0,1.823999882E-1
4.322000000E1,4.992300034E0,1.053900003E0,8.879999816E-2
4.324000156E1,6.203700066E0,8.387999535E-1,5.733999610E-1
4.327000000E1,9.166199684E0,2.549000084E-1,4.085299969E0
4.329000000E1,1.124049950E1,-2.513900042E0,9.394599915E0
4.331000156E1,8.772999763E0,-5.812799931E0,9.133600235E0
4.334000000E1,7.640699863E0,-7.822999954E0,4.139299870E0
4.336000000E1,1.069469929E1,-4.436899662E0,4.284199715E0
4.338000000E1,9.837999344E0,5.995999575E-1,1.730899930E0
4.340000000E1,5.841499805E0,2.951200008E0,-2.029799938E0
4.342000000E1,1.293399930E0,3.927899837E0,-1.091849995E1
4.344000000E1,-5.559999943E0,3.663800001E0,-8.031700134E0
4.346000156E1,-1.283519936E1,9.329999685E-1,-1.082819939E1
4.349000000E1,-1.849359894E1,-7.618899822E0,-9.685999751E-1
4.351000000E1,-1.286109924E1,-1.334289932E1,1.225700021E0
4.353000156E1,-8.019800186E0,-1.083869934E1,-1.191759968E1
4.356000000E1,-7.647799969E0,-9.790499687E0,-1.541449928E1
4.358000000E1,-6.884399891E0,-9.377499580E0,-4.769299984E0
4.360000000E1,-2.031369972E1,-1.229659939E1,3.164379883E1
4.362000156E1,-1.202279949E1,-7.315899849E0,5.217099667E0
4.364000156E1,-7.002899647E0,-2.185499907E0,7.290400028E0
4.367000156E1,-3.638499975E0,2.077899933E0,5.031300068E0
4.370000000E1,-2.843600035E0,5.363199711E0,-1.254899979E0
4.372000000E1,-1.144099951E0,9.820699692E0,6.726999879E-1
4.374000156E1,1.841099977E0,1.240199947E1,4.940599918E0
4.377000000E1,8.903100014E0,4.467799664E0,6.079400063E0
4.379000000E1,5.316999912E0,2.574699879E0,2.241699934E0
4.381000000E1,6.746899605E0,1.981899977E0,4.147799969E0
4.383000000E1,4.664199829E0,8.298999667E-1,-1.292599916E0
4.385000000E1,1.602100015E0,6.453999877E-1,-3.603299856E0
4.387000000E1,1.605499983E0,-2.745499849E0,-6.066699982E0
4.389000000E1,5.175399780E0,-9.943999290E0,-9.202799797E0
4.391000000E1,4.617700100E0,-6.109099865E0,-3.817999959E-1
4.393000000E1,1.498899937E0,5.020000041E-2,7.039099693E0
4.395000000E1,-1.865999997E-1,5.924000144E-1,6.678999901E0
4.397000000E1,-2.775300026E0,1.424899936E0,7.013199806E0
4.399000000E1,-1.183850002E1,-5.029999837E-2,1.901619911E1
4.401000000E1,-7.529199600E0,-4.815199852E0,1.040740013E1
4.403000156E1,1.403739929E1,-5.444999933E-1,-1.907289886E1
4.406000000E1,-4.445399761E0,-5.018699646E0,-1.617179871E1
4.408000000E1,-1.071879959E1,-9.539299965E0,-1.098040009E1
4.410000156E1,-1.082629967E1,-1.055739975E1,-1.102180004E1
4.413000000E1,-8.598699570E0,-1.279159927E1,-9.013999701E-1
4.415000000E1,3.891399860E0,-1.148989964E1,3.634379959E1
4.417000156E1,1.461809921E1,-5.175999999E-1,2.616809845E1
4.420000000E1,5.066999793E-1,6.732699871E0,-1.440999955E-1
4.422000000E1,-2.612399817E0,5.923199654E0,2.551199913E0
4.424000156E1,-5.513799667E0,6.850800037E0,-2.621199846E0
4.427000000E1,-6.554399967E0,9.793799400E0,-3.196499825E0
4.429000000E1,-1.864499927E0,1.208329964E1,5.679999828E0
4.431000156E1,5.291199684E0,8.477700233E0,7.366699696E0
4.434000000E1,5.115099907E0,5.094699860E0,-2.209100008E0
4.436000000E1,3.441699982E0,6.127199650E0,-2.026700020E0
4.438000000E1,2.774199963E0,5.894199848E0,-5.037300110E0
4.440000000E1,2.832199812E0,4.234699726E0,-5.755199909E0
4.442000000E1,3.624899864E0,-8.937999606E-1,-7.090699673E0
4.444000000E1,4.349999905E0,-9.738399506E0,9.279999882E-2
4.446000156E1,-4.520999789E-1,-8.984099388E0,2.493439865E1
4.449000000E1,-8.520099640E0,-4.948999882E-1,1.140149975E1
4.451000781E1,-9.749599457E0,-2.692899942E0,2.138449860E1
4.454000000E1,6.360599995E0,2.934399843E0,-2.771529961E1
4.456000000E1,4.698499680E0,-1.647099972E0,-2.209229851E1
4.458000000E1,2.562099934E0,-1.446759987E1,-1.183259964E1
4.460000156E1,6.466000080E-1,-3.291019821E1,-1.537269974E1
4.462000156E1,-6.713299751E0,-1.724169922E1,-1.328879929E1
4.464000156E1,-7.209099770E0,2.049200058E0,6.925299644E0
4.467000156E1,-5.684700012E0,4.954199791E0,-5.290800095E0
4.469000156E1,-7.478899956E0,-1.662599921E0,-7.651199818E0
4.472000156E1,-3.025699854E0,-4.308899879E0,2.089099884E0
4.474000156E1,-2.924999893E-1,-2.434999943E-1,2.312299967E0
4.477000000E1,-3.676999807E-1,2.754600048E0,-1.337899923E0
4.479000000E1,-1.660499930E0,2.690599918E0,-1.506099939E0
4.481000156E1,-1.072700024E0,4.770299911E0,2.744499922E0
4.484000000E1,-4.835599899E0,5.803099632E0,3.357999921E-1
4.486000000E1,-7.525199890E0,4.578000069E0,-2.679899931E0
4.488000000E1,-7.056499958E0,6.096999645E-1,-1.102999926E0
4.490000000E1,-5.499099731E0,-1.395799994E0,1.255900025E0
4.492000000E1,-2.359599829E0,-2.130899906E0,3.181099892E0
4.494000000E1,-8.457999825E-1,-3.020799875E0,3.660799980E0
4.496000156E1,-2.204400063E0,-4.494800091E0,1.929600000E0
4.499000000E1,-3.741199970E0,-1.501599908E0,6.020999551E-1
4.501000000E1,-5.946699619E0,-2.125599861E0,3.201900005E0
4.503000156E1,-6.938999653E0,-3.959800005E0,4.231899738E0
4.506000000E1,-2.113899946E0,-2.620499849E0,-3.114999831E-1
4.508000000E1,1.681199908E0,-1.466399908E0,-1.206900001E0
4.510000156E1,2.365900040E0,3.164999783E-1,-2.419899940E0
4.512000156E1,1.830500007E0,-9.275999665E-1,-5.328199863E0
4.514000156E1,1.655099988E0,-1.714499950E0,-5.324399948E0
4.517000156E1,1.181399941E0,-1.135299921E0,-3.512899876E0
4.520000000E1,-1.489000022E-1,-2.105999887E-1,-2.049099922E0
4.522000000E1,-1.221999973E-1,2.299999893E-1,-1.093699932E0
4.524000156E1,1.661899924E0,1.043900013E0,-1.221599936E0
4.527000000E1,3.395599842E0,1.804600000E0,-3.148599863E0
4.529000000E1,3.452399969E0,1.641899943E0,-2.511699915E0
4.531000156E1,3.135099888E0,1.193499923E0,-1.832799911E0
4.534000000E1,3.043999910E0,1.027999997E0,-1.189199924E0
4.536000000E1,3.879400015E0,1.239199996E0,-1.231699944E0
4.538000000E1,4.644799709E0,1.224699974E0,-9.027999640E-1
4.540000000E1,4.741799831E0,1.355899930E0,-1.491999924E-1
4.542000000E1,3.238999844E0,1.631500006E0,3.042999804E-1
4.544000000E1,1.062699914E0,1.047899961E0,3.008999825E-1
4.546000156E1,-5.241000056E-1,-8.079999685E-2,2.566900015E0
4.549000000E1,-4.205699921E0,-3.985299826E0,1.193109989E1
4.551000000E1,-5.050999641E0,-3.394799948E0,5.031599998E0
4.553000156E1,-2.943500042E0,-2.105999947E0,1.377900004E0
4.556000000E1,2.937000036E0,-2.888000011E-1,4.770999849E-1
4.558000000E1,5.486299992E0,1.253799915E0,2.166499853E0
4.560000156E1,5.717899799E0,2.636499882E0,2.509500027E0
4.562000156E1,4.538499832E0,3.148000002E0,1.017199993E0
4.565000000E1,1.383299947E0,2.497299910E0,-1.594000012E-1
4.567000000E1,-2.103899956E0,2.962399960E0,-7.382999659E-1
4.569000000E1,-5.384299755E0,4.026599884E0,-5.436800003E0
4.571000000E1,-3.250499964E0,4.097899914E0,-1.673559952E1
4.573000000E1,5.489999801E-2,6.283999681E-1,-1.199819946E1
4.575000156E1,-7.998999953E-1,-6.015699863E0,-2.479300022E0
4.578000000E1,-4.475800037E0,-2.625629997E1,2.918299866E1
4.580000000E1,1.889990044E1,8.623999953E-1,8.797299385E0
4.582000000E1,9.876199722E0,5.964900017E0,1.689099908E0
4.584000000E1,6.770799637E0,6.820699692E0,-4.727499962E0
4.586000000E1,5.353699684E0,5.500999928E0,-3.803699970E0
4.588000000E1,5.722399712E0,1.231899977E0,-3.516999781E-1
4.590000000E1,5.028999805E0,-1.573899984E0,-4.254600048E0
4.592000000E1,2.730599880E0,-9.423999786E-1,-7.827600002E0
4.594000000E1,-4.282999933E-1,4.017999768E-1,-9.349199295E0
4.596000156E1,-3.189999819E0,3.191999793E-1,-3.550099850E0
4.599000000E1,-1.155079937E1,-4.063099861E0,6.833299637E0
4.601000000E1,-1.304729939E1,-4.292500019E0,4.197400093E0
4.603000000E1,-1.115259933E1,-3.027299881E0,5.674900055E0
4.605000000E1,-6.527899742E0,-3.599699974E0,2.096499920E0
4.607000000E1,-2.684099913E0,-4.835999966E0,4.730000019E0
4.609000000E1,-1.292799950E0,-4.450200081E0,8.399899483E0
4.611000156E1,-2.546599865E0,-4.665899754E0,8.196599960E0
4.614000156E1,-5.883299828E0,-5.812500000E0,4.163499832E0
4.617000156E1,-9.499099731E0,-1.849699974E0,2.503399849E0
4.620000000E1,-1.052309990E1,2.629799843E0,5.785999775E0
4.622000000E1,-8.115799904E0,-2.166800022E0,8.361800194E0
4.624000156E1,-4.756000042E0,-1.063339996E1,2.750799894E0
4.627000000E1,3.837099791E0,-1.137160015E1,3.443699837E0
4.629000000E1,8.013400078E0,-1.416029930E1,7.714399815E0
4.631000000E1,7.928599834E0,-7.650599957E0,3.490299940E0
4.633000000E1,9.172599792E0,-4.559899807E0,1.944000006E0
4.635000000E1,9.378099442E0,-1.581799984E0,4.205999970E-1
4.637000000E1,3.523999929E0,2.102900028E0,-1.899099946E0
4.639000156E1,7.281999588E-1,4.068500042E0,-4.481199741E0
4.642000000E1,1.862599969E0,5.694799900E0,-6.506700039E0
4.644000000E1,2.252199888E0,5.457099915E0,-5.157599926E0
4.646000156E1,1.551299930E0,4.301199913E0,-2.505199909E0
4.649000000E1,4.109299660E0,7.765499592E0,-4.743000031E0
4.651000000E1,5.259999752E0,1.040250015E1,-4.342499733E0
4.653000156E1,1.618199944E0,9.599499702E0,7.066499710E0
4.656000000E1,-1.585629940E1,-3.144099951E0,1.336289978E1
4.658000000E1,-2.585899830E0,-1.514419937E1,-6.623099804E0
4.660000156E1,8.768199921E0,-3.143199921E0,-9.530399323E0
4.662000156E1,1.371039963E1,-5.450099945E0,-8.697999954E0
4.664000156E1,1.135969925E1,-5.182300091E0,-9.230400085E0
4.667000156E1,6.069299698E0,-2.602299929E0,-1.181729984E1
4.670000000E1,7.851799965E0,2.333999872E-1,-7.074699879E0
4.672000000E1,6.588299751E0,-5.259000063E-1,-4.386899948E0
4.674000156E1,4.268700123E0,-2.839200020E0,-3.385099888E0
4.677000000E1,-9.429999441E-2,-4.973000050E0,1.151489925E1
4.679000000E1,-1.998299956E0,-2.543900013E0,7.903100014E0
4.681000000E1,-2.874099970E0,-2.324100018E0,-3.809999824E-1
4.683000000E1,-5.466899872E0,-2.059200048E0,1.796000004E-1
4.685000000E1,-6.179599762E0,-1.691599965E0,4.434199810E0
