"Time (s)","Acceleration x (m/s^2)","Acceleration y (m/s^2)","Acceleration z (m/s^2)"
0.000000000E0,-8.921394348E-1,1.508047819E0,1.145864964E1
2.007619800E-2,-3.079541922E-1,1.546355009E0,9.911994934E0
4.013562500E-2,-4.492121041E-1,1.883937478E0,8.159439087E0
6.019500000E-2,-2.433107495E-1,2.535160303E0,7.438784599E0
8.023536500E-2,-5.177461356E-2,2.513612509E0,7.599195957E0
1.003002610E-1,-3.893570602E-1,1.960551858E0,8.341399193E0
1.203741150E-1,8.340800405E-1,2.444180727E0,8.487444878E0
1.404334900E-1,-4.635773003E-1,1.407491326E0,1.001015759E1
1.604928650E-1,-8.921394348E-1,2.080261946E0,1.228704357E1
1.805522400E-1,-9.687538743E-1,8.424597383E-1,1.009156036E1
2.006116150E-1,-9.639654756E-1,2.726696491E0,8.226476669E0
2.206710420E-1,-1.543362260E0,4.189553738E0,7.896077156E0
2.407309380E-1,-5.306149721E-1,4.558260918E0,8.841787338E0
2.607908340E-1,7.990647852E-2,4.646846294E0,8.415618896E0
2.808507290E-1,-2.097919285E-1,4.594173908E0,7.841010571E0
3.009106250E-1,4.150947332E-1,4.203918934E0,8.046912193E0
3.209701560E-1,4.701613486E-1,3.387496233E0,8.743624687E0
3.410295310E-1,8.948329091E-2,3.744232178E0,9.179368973E0
3.610889060E-1,8.978256374E-4,3.500023603E0,9.076418877E0
3.811482810E-1,-3.501519933E-2,3.576637983E0,8.839392662E0
4.012076560E-1,-7.700351477E-1,3.519177198E0,8.499416351E0
4.212670840E-1,-7.221511006E-1,3.883095980E0,8.590395927E0
4.413269790E-1,-9.208698273E-1,3.859153748E0,8.130708694E0
4.613868750E-1,-1.016637921E0,3.514388800E0,7.833827972E0
4.814467710E-1,-1.296759486E0,3.859153748E0,8.101978302E0
5.015066670E-1,-1.399710178E0,4.175188541E0,7.795520782E0
5.215661980E-1,-1.394921780E0,4.297292709E0,7.814674377E0
5.416255730E-1,-9.376292229E-1,4.235043526E0,8.554482460E0
5.616849480E-1,-3.821744323E-1,4.361936092E0,9.308655739E0
5.817443230E-1,-1.451484710E-1,4.692336082E0,1.008677197E1
6.018036980E-1,-1.954267174E-1,4.292504311E0,1.028549004E1
6.218631770E-1,-7.963713408E-1,4.223072529E0,1.034774017E1
6.419230730E-1,-1.165078402E0,4.833593845E0,1.072362900E1
6.619829690E-1,-1.098040700E0,5.369894981E0,1.075475407E1
6.820426040E-1,-1.246481299E0,5.855917931E0,1.048420906E1
7.021016670E-1,-1.038185716E0,6.071396351E0,1.038365269E1
7.221620840E-1,-1.380556583E0,5.281309605E0,1.009634876E1
7.422219790E-1,-1.900098324E0,4.326023102E0,9.967061996E0
7.622813540E-1,-2.778770447E0,3.069067240E0,1.015380955E1
7.823397920E-1,-2.948758602E0,2.707542896E0,1.017056847E1
8.023998960E-1,-2.644695044E0,2.245461941E0,8.346187592E0
8.224604170E-1,-2.058115721E0,2.106598139E0,6.603208065E0
8.425197920E-1,-2.287959099E0,2.568679094E0,4.793191910E0
8.625791670E-1,-2.908057213E0,2.465728521E0,5.013458252E0
8.826385420E-1,-5.002983570E0,2.171241760E0,5.015852451E0
9.026979170E-1,-5.014954567E0,1.895908475E0,6.272808552E0
9.227574480E-1,-6.178536892E0,2.475305319E0,6.981492043E0
9.428173440E-1,-5.357325554E0,3.176806450E0,4.280832767E0
9.628772400E-1,-4.335001469E0,3.655646801E0,2.839523315E0
9.829371360E-1,-3.556885958E0,3.557484388E0,2.683900118E0
1.002997031E0,-3.628711939E0,3.545513391E0,5.461174011E0
1.023056615E0,-4.821024418E0,3.892672777E0,7.910442352E0
1.043115990E0,-5.302258968E0,4.220678329E0,9.136273384E0
1.063175365E0,-3.942352295E0,4.637269497E0,9.294290543E0
1.083234740E0,-3.468300343E0,5.108927250E0,9.062053680E0
1.103294115E0,-3.777152538E0,5.010765076E0,9.117119789E0
1.123353802E0,-4.086004257E0,5.017947674E0,9.806650162E0
1.143413698E0,-4.306271076E0,5.240608215E0,1.026633644E1
1.163473594E0,-4.165013313E0,5.544672012E0,9.864110947E0
1.183533490E0,-3.887285709E0,5.489605427E0,9.449913979E0
1.203593386E0,-3.226485968E0,5.341164589E0,9.270348549E0
1.223652917E0,-3.121141195E0,5.345952988E0,9.241618156E0
1.243712292E0,-3.765181541E0,5.168782234E0,9.979032516E0
1.263771667E0,-3.863343716E0,5.027524471E0,1.054645824E1
1.283831042E0,-3.829824924E0,4.931756020E0,1.047223854E1
1.303890417E0,-3.844190121E0,4.737825871E0,1.032140350E1
1.323950313E0,-3.729268312E0,4.754585266E0,1.034774017E1
1.344010209E0,-3.640682936E0,4.776133060E0,1.039322948E1
1.364070104E0,-3.341407776E0,4.673182487E0,9.835380554E0
1.384130104E0,-3.070863008E0,4.390666485E0,9.308655739E0
1.404189479E0,-2.764405251E0,3.650858402E0,9.809044838E0
1.424248854E0,-3.274370193E0,3.093009233E0,1.065419769E1
1.444308229E0,-3.820248127E0,2.389113903E0,1.041717148E1
1.464367604E0,-3.087622404E0,2.144905329E0,8.971074104E0
1.484428386E0,-2.144306898E0,1.828870773E0,7.015010834E0
1.504487761E0,-1.011849523E0,1.886331677E0,5.748478413E0
1.524547136E0,-4.875193238E-1,2.183212757E0,5.700594425E0
1.544606511E0,-1.449988365E0,2.480093718E0,6.500257492E0
1.564665886E0,-3.121141195E0,2.573467493E0,7.510610580E0
1.584726719E0,-4.370914459E0,2.688389301E0,8.140285492E0
1.604786094E0,-4.418798447E0,2.477699518E0,8.971074104E0
1.624845469E0,-3.686172724E0,2.386719704E0,9.698910713E0
1.644904844E0,-3.058892012E0,2.384325504E0,9.921571732E0
1.664964219E0,-2.666242838E0,2.391508341E0,9.536105156E0
1.685024063E0,-2.192190886E0,2.324470520E0,8.633491516E0
1.705083959E0,-1.694196939E0,2.331653118E0,7.690176010E0
1.725143854E0,-7.772177458E-1,2.396296740E0,7.113173485E0
1.745203750E0,-8.897452354E-1,2.726696491E0,6.768408298E0
1.765263646E0,-1.631947756E0,2.956539869E0,6.912060261E0
1.785323386E0,-2.031779528E0,3.164835453E0,7.259219646E0
1.805382761E0,-2.077269316E0,2.975693464E0,7.975085735E0
1.825442136E0,-1.359008789E0,2.839223862E0,8.868123055E0
1.845501511E0,-1.619976759E0,3.066673040E0,9.081207275E0
1.865560886E0,-2.546532869E0,3.071461439E0,8.971074104E0
1.885620781E0,-3.398868561E0,2.963722467E0,9.574412346E0
1.905680677E0,-4.303876877E0,2.815281868E0,1.088164711E1
1.925740573E0,-4.816236019E0,2.812887669E0,1.140597725E1
1.945800469E0,-4.811447620E0,2.808099270E0,1.117852783E1
1.965860365E0,-4.849754810E0,2.820070267E0,1.156159973E1
1.985920104E0,-5.110723019E0,2.559102297E0,1.248815632E1
2.005979479E0,-5.594351768E0,2.425027132E0,1.304361057E1
2.026038854E0,-5.886444092E0,2.197577953E0,1.357751751E1
2.046098229E0,-5.960664272E0,1.833659172E0,1.413776112E1
2.066157604E0,-5.206490993E0,1.256656647E0,1.361103630E1
2.086217500E0,-3.959111691E0,8.711901307E-1,1.116416264E1
2.106277396E0,-3.566462755E0,7.921814919E-1,8.180987358E0
2.126337292E0,-3.152265787E0,7.347206473E-1,5.987898350E0
2.146397188E0,-2.994248390E0,1.017236471E0,5.374982834E0
2.166457084E0,-3.499425173E0,1.165676951E0,6.023811340E0
2.186516927E0,-3.925592899E0,1.045966864E0,6.957550049E0
2.206576302E0,-4.155436516E0,1.194407344E0,7.472303391E0
2.226635677E0,-4.057273865E0,1.285387039E0,7.359776020E0
2.246695052E0,-3.379714966E0,1.287781239E0,7.350199223E0
2.266754427E0,-2.395698071E0,1.271021843E0,7.994239330E0
2.286814271E0,-2.194585085E0,1.366789937E0,8.825027466E0
2.306874167E0,-2.508225441E0,1.575085402E0,9.488221169E0
2.326934063E0,-2.714126825E0,1.745073795E0,9.634267807E0
2.346993959E0,-2.891297817E0,2.396296740E0,9.339780807E0
2.367053854E0,-3.039738417E0,2.891896486E0,8.044517517E0
2.387113750E0,-2.812289238E0,3.231873035E0,7.086836815E0
2.407173229E0,-2.620753050E0,3.605368376E0,6.782773495E0
2.427232604E0,-2.666242838E0,3.777750969E0,7.275979042E0
2.447291979E0,-2.505831242E0,3.904643774E0,7.807491779E0
2.467351354E0,-1.926434517E0,3.887884378E0,7.987056732E0
2.487411042E0,-1.244087100E0,3.825634956E0,8.520963669E0
2.507470938E0,-9.615712762E-1,3.820846558E0,9.220070839E0
2.527530834E0,-1.119588614E0,3.600579977E0,1.040041256E1
2.547590729E0,-1.490689874E0,3.557484388E0,1.127429581E1
2.567650625E0,-1.617582560E0,3.782539368E0,1.186326981E1
2.587710521E0,-1.646312952E0,3.739443779E0,1.227986050E1
2.607770209E0,-1.409286976E0,3.933374166E0,1.271799946E1
2.627829584E0,-1.354220390E0,3.765779972E0,1.217690945E1
2.647888959E0,-1.167472601E0,3.133710861E0,1.131978607E1
2.667948334E0,-1.220144987E0,1.953369260E0,1.136767006E1
2.688008906E0,-1.423652172E0,6.341641545E-1,1.157117653E1
2.708068281E0,-8.897452354E-1,2.094926545E-3,1.080982113E1
2.728127656E0,-4.827309251E-1,2.463034987E-1,8.956708908E0
2.748187031E0,1.517325342E-1,6.796540022E-1,6.852205276E0
2.768246719E0,7.023988962E-1,1.278204441E0,5.652710438E0
2.788306615E0,8.699930310E-1,1.464952111E0,5.851428986E0
2.808366511E0,2.067991644E-1,1.445798516E0,7.175422668E0
2.828426406E0,-7.556698918E-1,1.414673924E0,8.427590370E0
2.848486302E0,-1.677437544E0,1.503259420E0,9.516951561E0
2.868546198E0,-1.936011314E0,1.551143408E0,1.004607010E1
2.888605938E0,-1.409286976E0,1.723526001E0,9.923966408E0
2.908665313E0,-5.784989595E-1,1.895908475E0,9.157821655E0
2.928724688E0,-2.050035149E-1,2.166453362E0,8.267178535E0
2.948784063E0,-7.571662962E-2,2.475305319E0,7.764396191E0
2.968843646E0,-1.906383038E-1,2.709937096E0,7.711723804E0
2.988903542E0,-3.199251890E-1,3.112162828E0,7.642292023E0
3.008963438E0,-5.401917696E-1,3.452139616E0,7.848193169E0
3.029023334E0,-3.845686615E-1,3.521571398E0,8.415618896E0
3.049083229E0,-6.613982469E-2,3.552695990E0,8.810662270E0
3.069143125E0,-1.188122630E-1,3.473687410E0,9.112331390E0
3.089203021E0,-1.978209168E-1,3.217507839E0,9.653421402E0
3.109262552E0,-2.840121686E-1,3.042731047E0,1.037407589E1
3.129321927E0,-7.844003439E-1,2.992452860E0,1.078348446E1
3.149381302E0,-1.375768185E0,3.093009233E0,1.084812832E1
3.169440677E0,-1.746869445E0,3.258209229E0,1.066137981E1
3.189500469E0,-2.163460493E0,3.397073030E0,1.034295177E1
3.209560365E0,-2.378938675E0,3.535936594E0,9.916783333E0
3.229620261E0,-2.110788107E0,3.363554001E0,9.373299599E0
3.249680156E0,-1.770811439E0,3.102586031E0,9.433155060E0
3.269740052E0,-1.284788489E0,2.805705070E0,9.859322548E0
3.289799948E0,-1.469141960E0,2.398690939E0,1.059673691E1
3.309859844E0,-2.153883696E0,1.950975060E0,1.211466026E1
3.329919271E0,-2.790741444E0,1.218349338E0,1.356315231E1
3.349978646E0,-2.958335400E0,5.479729176E-1,1.396777248E1
3.370038646E0,-2.390909672E0,2.726397216E-1,1.301727486E1
3.390098438E0,-1.732504249E0,4.210802317E-1,1.088164711E1
3.410157813E0,-1.940799713E0,7.155670524E-1,8.341399193E0
3.430217188E0,-2.232892275E0,1.275810242E0,6.545747280E0
3.450276615E0,-2.405274868E0,2.025195360E0,5.640739441E0
3.470337240E0,-2.548927069E0,2.659658909E0,5.882553577E0
3.490397031E0,-2.556109667E0,3.124133825E0,6.962338448E0
3.510456406E0,-2.893692017E0,3.600579977E0,7.383718014E0
3.530515781E0,-3.037344217E0,3.670011997E0,7.259219646E0
3.550575209E0,-2.352602482E0,3.334823608E0,7.522581577E0
3.570635990E0,-1.579275250E0,3.085826635E0,8.348581314E0
3.590695573E0,-1.248875499E0,2.903867483E0,9.074024200E0
3.610754948E0,-1.280000091E0,2.958934069E0,9.143456459E0
3.630814323E0,-1.253663898E0,3.059490442E0,8.671798706E0
3.650873802E0,-9.711480737E-1,3.389890432E0,8.298302650E0
3.670933698E0,-9.615712762E-1,3.569455385E0,8.374917984E0
3.690993594E0,-1.095646501E0,3.753808975E0,8.288725853E0
3.711053490E0,-1.256058097E0,4.050690174E0,8.013393402E0
3.731113386E0,-1.497872472E0,4.294898510E0,7.860164165E0
3.751173281E0,-1.567304254E0,4.417002678E0,8.058882713E0
3.771233177E0,-1.069310308E0,4.519953728E0,8.212111473E0
3.791293073E0,-7.628524899E-1,4.637269497E0,8.760383606E0
3.811352656E0,-1.054945111E0,4.575020313E0,9.926360130E0
3.831412031E0,-9.855132699E-1,4.519953728E0,1.145386124E1
3.851471406E0,-4.492121041E-1,4.290110111E0,1.237802315E1
3.871530781E0,-2.289455384E-1,4.165611744E0,1.261504841E1
3.891590677E0,-6.000468135E-1,4.309263706E0,1.244984913E1
3.911650573E0,-7.724293470E-1,4.507982731E0,1.142513084E1
3.931710469E0,-7.197569013E-1,4.366724491E0,9.983820915E0
3.951770365E0,-5.114613175E-1,3.607762575E0,8.949525833E0
3.971830261E0,-5.114613175E-1,2.317287922E0,9.629479408E0
3.991890156E0,-5.090671182E-1,1.122581363E0,1.057997704E1
4.011950052E0,-4.219780490E-2,7.682394981E-1,1.027591324E1
4.032009948E0,2.403180003E-1,1.045966864E0,8.667010307E0
4.052069323E0,5.635352135E-1,1.462557912E0,7.347805023E0
4.072128698E0,8.987234831E-1,1.991676569E0,6.710947514E0
4.092188073E0,5.779004097E-1,2.331653118E0,6.909666061E0
4.112247761E0,-5.306149721E-1,2.626139879E0,7.675810814E0
4.132307656E0,-1.469141960E0,2.717119694E0,8.382100105E0
4.152367552E0,-1.679831743E0,2.841618061E0,8.863334656E0
4.172428177E0,-1.481113076E0,2.879925251E0,8.997409821E0
4.192487604E0,-1.054945111E0,2.990058661E0,8.705317497E0
4.212546979E0,-6.814496517E-1,3.239055634E0,8.030152321E0
4.232606354E0,-6.527192593E-1,3.380313635E0,7.752425194E0
4.252665990E0,-8.586205840E-1,3.631704807E0,8.080430984E0
4.272726979E0,-1.121982813E0,3.835211754E0,8.403648376E0
4.292786354E0,-9.855132699E-1,4.160823345E0,8.248024940E0
4.312845729E0,-7.748235464E-1,4.397849083E0,8.044517517E0
4.332905104E0,-8.897452354E-1,4.555866718E0,8.441955566E0
4.352964844E0,-1.054945111E0,4.378695488E0,9.421183586E0
4.373024740E0,-1.296759486E0,4.160823345E0,1.019929886E1
4.393084636E0,-1.318307281E0,4.019565582E0,1.068053341E1
4.413144531E0,-1.466747761E0,3.938162565E0,1.058237171E1
4.433204427E0,-1.971924424E0,3.892672777E0,1.042435455E1
4.453264323E0,-2.134730101E0,4.127304554E0,9.998186111E0
4.473324219E0,-2.194585085E0,4.263773918E0,9.600749016E0
4.493384115E0,-2.694973230E0,4.335599899E0,9.876082420E0
4.513444011E0,-2.915239811E0,4.316446304E0,1.012268448E1
4.533503906E0,-2.766799450E0,4.091391563E0,9.682151794E0
4.553563750E0,-2.345419884E0,3.739443779E0,9.380482674E0
4.573623125E0,-2.232892275E0,2.815281868E0,1.021845245E1
4.593682500E0,-1.981501222E0,1.939004064E0,1.131978607E1
4.613741875E0,-1.330278277E0,1.520018816E0,1.142513084E1
4.633801771E0,-8.227075338E-1,1.587056398E0,1.049139214E1
4.653861667E0,-1.220144987E0,1.895908475E0,8.836998940E0
4.673921563E0,-1.481113076E0,2.494458914E0,7.529764175E0
4.693981459E0,-1.619976759E0,3.049913645E0,6.588842869E0
4.714041354E0,-1.696591139E0,3.375525236E0,6.186617374E0
4.734101250E0,-9.088988304E-1,3.416226625E0,6.837840080E0
4.754161146E0,-2.911947966E-1,3.430591822E0,7.422025204E0
4.774221042E0,-1.714846939E-1,3.277362823E0,7.809885979E0
4.794280938E0,-2.145803273E-1,3.248632431E0,8.310274124E0
4.814340834E0,-2.145803273E-1,3.334823608E0,8.746018410E0
4.834400729E0,-4.899135232E-1,3.514388800E0,8.695740700E0
4.854460625E0,-8.921394348E-1,3.693953991E0,8.202534676E0
4.874520261E0,-1.021426320E0,3.818452358E0,7.814674377E0
4.894579636E0,-1.021426320E0,3.816058159E0,8.080430984E0
4.914639011E0,-1.315913081E0,3.981258154E0,8.669404030E0
4.934698698E0,-1.552939057E0,4.318840504E0,9.229647636E0
4.954758594E0,-1.100434899E0,4.572626114E0,9.155426979E0
4.974818490E0,-3.630208373E-1,4.912602425E0,8.437167168E0
4.994878386E0,-2.361281365E-1,5.154417038E0,8.039729118E0
5.014938281E0,-8.969278336E-1,5.149628639E0,8.805873871E0
5.034998177E0,-1.126771212E0,4.886266232E0,1.049618053E1
5.055058073E0,-1.064521909E0,4.582202911E0,1.133415127E1
5.075117969E0,-8.490437865E-1,4.388272285E0,1.154005241E1
5.095177865E0,-6.622960567E-1,3.966892958E0,1.236844635E1
5.115237761E0,-1.499368846E-1,3.923797369E0,1.223437023E1
5.135297656E0,1.996165663E-1,3.840000153E0,1.080024433E1
5.155357552E0,-3.342904150E-1,3.404255629E0,9.267954826E0
5.175417448E0,-6.718728542E-1,2.238279343E0,8.779537201E0
5.195477344E0,-2.385223508E-1,1.007659674E0,1.007719517E1
5.215537240E0,4.222773314E-1,2.965817451E-1,1.031182671E1
5.235597136E0,7.885901928E-1,8.999205828E-1,9.406818390E0
5.255656771E0,4.222773314E-1,1.955763459E0,7.742848396E0
5.275716146E0,4.246715307E-1,3.025971651E0,6.351817131E0
5.295775521E0,5.563526154E-1,3.643675804E0,6.019022942E0
5.315835261E0,-3.869628608E-1,3.437774420E0,7.259219646E0
5.335895156E0,-1.296759486E0,3.057096243E0,9.382876396E0
5.355955052E0,-1.646312952E0,2.484882116E0,1.127429581E1
5.376015990E0,-1.126771212E0,2.417844534E0,1.147780323E1
5.396075365E0,-3.295020163E-1,2.659658909E0,9.528923035E0
5.416134740E0,1.286883373E-2,3.069067240E0,7.800309181E0
5.436194219E0,-2.672527730E-1,3.574243784E0,6.897695065E0
5.456254115E0,-8.490437865E-1,4.002806187E0,7.129932880E0
5.476315156E0,-1.253663898E0,4.275744915E0,7.469909191E0
5.496374688E0,-1.342249274E0,4.342782497E0,7.618350029E0
5.516434063E0,-1.153107405E0,4.299686909E0,8.183381081E0
5.536493438E0,-1.403600723E-1,4.184765339E0,8.599972725E0
5.556553334E0,2.690484226E-1,4.055478573E0,8.839392662E0
5.576614375E0,-6.374561787E-2,3.835211754E0,9.607931137E0
5.596673802E0,-3.295020163E-1,3.552695990E0,1.066616821E1
5.616733177E0,-5.713163614E-1,3.437774420E0,1.133654499E1
5.636792656E0,-1.236904502E0,3.555090189E0,1.123598862E1
5.656852552E0,-1.512237668E0,3.854365349E0,1.120007515E1
5.676912448E0,-1.866579533E0,4.100968361E0,1.127190113E1
5.696972344E0,-2.146701097E0,4.103362560E0,1.175313568E1
5.717032240E0,-2.228103876E0,4.115333557E0,1.183214474E1
5.737092136E0,-2.196979284E0,4.029142380E0,1.108036518E1
5.757152031E0,-2.369361877E0,3.655646801E0,1.000536919E1
5.777211927E0,-2.228103876E0,2.779368877E0,1.034295177E1
5.797271823E0,-1.708562136E0,1.879149079E0,1.038365269E1
5.817331719E0,-9.926958680E-1,1.438615918E0,9.085995674E0
5.837391615E0,-6.383540034E-1,1.455375314E0,7.340622425E0
5.857451511E0,-1.102829099E0,1.814505577E0,6.533776283E0
5.877511406E0,-1.313518882E0,2.267009735E0,6.603208065E0
5.897571302E0,-1.241692901E0,2.724302292E0,6.804321289E0
5.917631198E0,-1.363797188E0,3.181594849E0,7.120356083E0
5.937691094E0,-1.641524553E0,3.461716413E0,7.905653954E0
5.957750990E0,-1.306336284E0,3.459322214E0,8.439560890E0
5.977810886E0,-5.521627665E-1,3.330035210E0,8.652645111E0
5.997870781E0,-2.935889959E-1,3.289333820E0,8.650250435E0
6.017930677E0,-5.377975702E-1,3.351583004E0,8.726864815E0
6.037990573E0,-6.503250599E-1,3.504812002E0,8.425195694E0
6.058050469E0,-6.263830066E-1,3.710713387E0,8.039729118E0
6.078110729E0,-8.059481382E-1,3.981258154E0,7.991845131E0
6.098170156E0,-1.318307281E0,4.134487152E0,8.310274124E0
6.118229531E0,-1.579275250E0,4.249408722E0,8.588001251E0
6.138289063E0,-1.646312952E0,4.407425880E0,8.645462036E0
6.158348959E0,-1.380556583E0,4.752191067E0,8.401253700E0
6.178409948E0,-1.186626196E0,4.912602425E0,8.109161377E0
6.198469323E0,-1.112406015E0,4.970063686E0,8.573636055E0
6.218528698E0,-1.172261000E0,4.701912880E0,9.919178009E0
6.238588386E0,-9.711480737E-1,4.634875298E0,1.063264942E1
6.258648281E0,-1.308730483E0,4.400243282E0,1.068532181E1
6.278709375E0,-1.342249274E0,4.112939358E0,1.222479343E1
6.298768906E0,-8.705915809E-1,3.720290184E0,1.293587208E1
6.318828281E0,-3.486556113E-1,3.653252602E0,1.140118885E1
6.338887709E0,-9.247604012E-2,3.490446806E0,9.962273598E0
6.358947604E0,-4.252700806E-1,2.774580479E0,1.030943298E1
6.379007500E0,-7.173627019E-1,1.929427266E0,1.098220348E1
6.399067396E0,-1.212064624E-1,1.615786910E0,1.051772785E1
6.419127292E0,3.360860646E-1,1.843236089E0,8.456320763E0
6.439187188E0,7.143699527E-1,2.322076321E0,6.873753071E0
6.459247084E0,8.173205853E-1,2.753032684E0,6.538564682E0
6.479306979E0,-6.284779403E-3,3.064278841E0,7.433996201E0
6.499366875E0,-1.342249274E0,3.195960045E0,8.183381081E0
6.519426771E0,-1.557727456E0,3.212719440E0,8.834604263E0
6.539486667E0,-1.031003118E0,3.215113640E0,9.117119789E0
6.559546563E0,-7.245453000E-1,3.239055634E0,9.145850182E0
6.579606459E0,-5.904700160E-1,3.411438227E0,8.786720276E0
6.599666354E0,-4.109048545E-1,3.488052607E0,8.030152321E0
6.619726250E0,-6.374561787E-2,3.646070004E0,7.690176010E0
6.639786146E0,-1.236006618E-1,3.765779972E0,7.896077156E0
6.659846042E0,-3.606266379E-1,3.983652353E0,8.195352554E0
6.679905938E0,-5.186439157E-1,4.096179962E0,8.238448143E0
6.699965834E0,-3.414730132E-1,4.005200386E0,8.640673637E0
6.720025729E0,-4.459200799E-2,3.871124983E0,9.184157372E0
6.740085625E0,1.924339682E-1,3.751414776E0,9.567230225E0
6.760145521E0,-3.890577704E-3,3.437774420E0,1.003409958E1
6.780205417E0,-6.575076580E-1,3.421015024E0,1.089122391E1
6.800265313E0,-1.181837797E0,3.500023603E0,1.130781460E1
6.820325209E0,-1.540968060E0,3.756203175E0,1.094629002E1
6.840385104E0,-1.742081046E0,4.156034946E0,1.077630138E1
6.860445000E0,-1.907280922E0,4.539107323E0,1.066856289E1
6.880504896E0,-1.777994037E0,4.608539104E0,1.041238308E1
6.900564792E0,-1.892915726E0,4.184765339E0,1.047702694E1
6.920624688E0,-2.165854692E0,3.351583004E0,1.094150162E1
6.940684584E0,-2.082057714E0,2.298134327E0,1.153526402E1
6.960744479E0,-1.639130354E0,1.881543279E0,1.135330486E1
6.980804375E0,-1.392527580E0,1.967734575E0,9.461885452E0
7.000864271E0,-1.174655199E0,2.202366352E0,7.223306656E0
7.020924167E0,-9.065046310E-1,2.650082111E0,6.145915985E0
7.040984063E0,-1.181837797E0,3.030760050E0,6.095637321E0
7.061043959E0,-1.868973732E0,3.471293211E0,6.382941723E0
7.081103854E0,-2.194585085E0,3.890278578E0,6.464344501E0
7.101163750E0,-1.646312952E0,3.878307581E0,6.710947514E0
7.121223646E0,-8.011597395E-1,3.715501785E0,7.412448406E0
7.141283542E0,-2.433107495E-1,3.454533815E0,8.032546997E0
7.161343438E0,-2.169745266E-1,3.452139616E0,8.784325600E0
7.181403334E0,-5.473743677E-1,3.495235205E0,9.299078941E0
7.201463229E0,-9.711480737E-1,3.713107586E0,9.203310966E0
7.221523125E0,-1.229721904E0,3.954921961E0,8.425195694E0
7.241583021E0,-1.198597193E0,4.194342136E0,8.080430984E0
7.261642917E0,-1.160290003E0,4.268562317E0,8.066065788E0
7.281702813E0,-1.054945111E0,4.278139114E0,8.315062523E0
7.301762709E0,-7.125743032E-1,4.376301289E0,8.281543732E0
7.321822604E0,-4.180874825E-1,4.682759285E0,8.001421928E0
7.341882500E0,-7.029974461E-1,4.871901035E0,8.039729118E0
7.361942396E0,-1.131559610E0,4.955698013E0,9.074024200E0
7.381999688E0,-1.502660871E0,5.137657642E0,1.006282997E1
7.402060834E0,-2.127547503E0,5.185541630E0,1.105881786E1
7.422122240E0,-2.252045870E0,4.912602425E0,1.255758762E1
7.442181719E0,-1.579275250E0,4.273350716E0,1.315374374E1
7.462241094E0,-4.563947022E-1,3.890278578E0,1.210268974E1
7.482301875E0,3.312976658E-1,3.614945173E0,1.060391903E1
7.502361250E0,2.379238009E-1,3.255815029E0,9.689333916E0
7.522420625E0,-6.383540034E-1,2.803310871E0,9.485827446E0
7.542480261E0,-5.904700160E-1,2.544737101E0,9.217676163E0
7.562540156E0,1.924339682E-1,2.420238733E0,8.662221909E0
7.582600052E0,6.640917063E-1,2.484882116E0,7.943961143E0
7.602659948E0,5.419874191E-1,2.549525499E0,7.745242596E0
7.622719844E0,1.038485020E-1,2.518400908E0,8.104372978E0
7.642779740E0,-5.258265734E-1,2.575861692E0,8.480262756E0
7.662839636E0,-8.705915809E-1,2.657264709E0,8.844181061E0
7.682899531E0,-5.928642154E-1,2.621351480E0,8.858546257E0
7.702959427E0,-1.331774741E-1,2.822464466E0,8.429984093E0
7.723019323E0,-2.816179693E-1,3.064278841E0,7.920019150E0
7.743079219E0,-2.457049489E-1,3.284545422E0,7.649474621E0
7.763139115E0,-1.714846939E-1,3.346794605E0,7.505822182E0
7.783199011E0,-1.978209168E-1,3.535936594E0,7.651868820E0
7.803258906E0,-7.197569013E-1,3.751414776E0,7.975085735E0
7.823318802E0,-9.184756279E-1,3.854365349E0,8.415618896E0
7.843378698E0,-8.849567771E-1,3.765779972E0,8.856152534E0
7.863438594E0,-6.646902561E-1,3.727472782E0,9.591172218E0
7.883498490E0,-3.893570602E-1,3.641281605E0,1.023281765E1
7.903558386E0,-5.306149721E-1,3.428197622E0,1.061110210E1
7.923618281E0,-1.184231997E0,3.387496233E0,1.100135708E1
7.943678177E0,-1.598428965E0,3.658041000E0,1.071405220E1
7.963738073E0,-1.725321651E0,3.844788551E0,1.036928749E1
7.983797969E0,-1.780388236E0,3.849576950E0,1.058237171E1
8.003857865E0,-1.694196939E0,3.986046553E0,1.108754826E1
8.023917761E0,-1.722927451E0,3.856759548E0,1.132457447E1
8.043977656E0,-2.043750525E0,3.444957018E0,1.168370438E1
8.064037552E0,-2.173037291E0,2.566284895E0,1.226070690E1
8.084098177E0,-2.240074873E0,1.919850469E0,1.220085144E1
8.104158073E0,-2.120364904E0,2.034772158E0,1.027351952E1
8.124217969E0,-1.773205638E0,2.331653118E0,7.671022415E0
8.144277552E0,-1.560121655E0,2.846406460E0,5.506663799E0
8.164336927E0,-1.234510303E0,3.112162828E0,5.197812080E0
8.184397604E0,-1.725321651E0,3.176806450E0,6.438008308E0
8.204457240E0,-2.129941702E0,3.093009233E0,7.733271599E0
8.224516615E0,-1.737292647E0,3.014000654E0,8.470685959E0
8.244575990E0,-8.681973815E-1,3.121739626E0,8.267178535E0
8.264635886E0,-4.587889016E-1,3.258209229E0,7.592013359E0
8.284696979E0,-5.210381746E-1,3.488052607E0,7.445967197E0
8.304756875E0,-6.407482028E-1,3.526359797E0,7.649474621E0
8.324816511E0,-4.659714997E-1,3.626916409E0,7.953537941E0
8.344875886E0,-3.582324386E-1,3.617339611E0,8.274360657E0
8.364935261E0,-5.689221621E-1,3.770568371E0,8.628703117E0
8.384995156E0,-9.903016686E-1,3.957316160E0,8.865729332E0
8.405055052E0,-1.121982813E0,4.086603165E0,9.253589630E0
8.425114948E0,-9.711480737E-1,4.352359295E0,9.255983353E0
8.445174844E0,-7.891887426E-1,4.618115902E0,8.815450668E0
8.465234740E0,-8.658031821E-1,4.749796867E0,9.200917244E0
8.485294636E0,-1.110011816E0,4.670788288E0,1.055124664E1
8.505354531E0,-1.086069703E0,4.462492466E0,1.157596493E1
8.525414427E0,-1.083675504E0,4.383483887E0,1.144428444E1
8.545474323E0,-1.119588614E0,4.340388298E0,1.111149025E1
8.565534219E0,-6.048352122E-1,4.141669750E0,1.141315937E1
8.585594115E0,1.110311002E-1,4.038719177E0,1.094150162E1
8.605654011E0,5.156511664E-1,3.976469755E0,9.986215591E0
8.625713906E0,9.187749028E-2,3.397073030E0,9.940725327E0
8.645773802E0,-6.934206486E-1,2.657264709E0,1.098220348E1
8.665833698E0,-6.622960567E-1,2.104203939E0,1.032379818E1
8.685893594E0,1.996165663E-1,2.092232943E0,8.781931877E0
8.705953490E0,6.138134599E-1,2.271798134E0,7.606379032E0
8.726013386E0,5.012859702E-1,2.465728521E0,7.134721279E0
8.746073281E0,1.900397539E-1,2.468122721E0,7.199364662E0
8.766133177E0,-3.501519933E-2,2.549525499E0,7.536946774E0
8.786193073E0,-6.000468135E-1,2.693177700E0,7.991845131E0
8.806252969E0,-9.974842668E-1,2.867954254E0,8.465897560E0
8.826312865E0,-1.031003118E0,2.832041264E0,8.944737434E0
8.846372761E0,-5.761047602E-1,3.066673040E0,8.686163902E0
8.866432656E0,-4.635773003E-1,3.160047054E0,8.245630264E0
8.886492552E0,-4.803367257E-1,3.351583004E0,8.133103371E0
8.906552448E0,-6.072294116E-1,3.459322214E0,7.989450932E0
8.926612344E0,-4.923077226E-1,3.509600401E0,7.936778545E0
8.946672240E0,-4.204816818E-1,3.526359797E0,7.912836552E0
8.966732136E0,-4.204816818E-1,3.461716413E0,8.202534676E0
8.986792656E0,-1.834557056E-1,3.485658407E0,8.868123055E0
9.006852292E0,-1.858499050E-1,3.540724993E0,9.375694275E0
9.026911667E0,-7.077859044E-1,3.152864456E0,1.047463226E1
9.046971042E0,-1.224933386E0,2.973299265E0,1.223437023E1
9.067030886E0,-1.924040318E0,3.114557028E0,1.296939087E1
9.087090781E0,-2.395698071E0,3.361159801E0,1.270842266E1
9.107150677E0,-2.491466045E0,3.928585768E0,1.233971596E1
9.127210573E0,-2.517802477E0,4.196736336E0,1.145864964E1
9.147270469E0,-2.481889248E0,4.230255127E0,1.058237171E1
9.167330365E0,-2.608782053E0,3.693953991E0,1.049618053E1
9.187390261E0,-2.570474863E0,2.654870510E0,1.151132202E1
9.207450156E0,-2.113182306E0,1.807322979E0,1.138203526E1
9.227510052E0,-1.749263644E0,1.740285397E0,9.995792389E0
9.247569948E0,-1.718139052E0,1.809717178E0,7.836222172E0
9.267629844E0,-1.940799713E0,2.247856140E0,6.141127586E0
9.287689740E0,-2.182614088E0,2.592621088E0,5.374982834E0
9.307749636E0,-2.153883696E0,2.846406460E0,4.891354084E0
9.327809531E0,-1.904886723E0,3.085826635E0,4.903325081E0
9.347869427E0,-1.598428965E0,3.119345427E0,5.880159378E0
9.367929323E0,-1.090858102E0,3.131316662E0,7.115567684E0
9.387989219E0,-9.088988304E-1,3.095403433E0,8.183381081E0
9.408049115E0,-9.472060204E-1,3.176806450E0,9.002198219E0
9.428109011E0,-7.460930943E-1,3.239055634E0,9.454702377E0
9.448168906E0,-4.851251245E-1,3.339612007E0,9.686940193E0
9.468228802E0,-5.425859690E-1,3.629310608E0,9.560047150E0
9.488288698E0,-6.862380505E-1,3.945345163E0,9.042900085E0
9.508348594E0,-7.341220975E-1,4.211101532E0,8.767566681E0
9.528408490E0,-8.681973815E-1,4.400243282E0,8.815450668E0
9.548468386E0,-9.376292229E-1,4.460098267E0,8.899248123E0
9.568528281E0,-4.468179047E-1,4.606144905E0,8.825027466E0
9.588588177E0,-3.366846144E-1,4.589385509E0,9.155426979E0
9.608648073E0,-7.460930943E-1,4.244620323E0,1.040759468E1
9.628707969E0,-7.006032467E-1,3.878307581E0,1.183453941E1
9.648767865E0,-8.466495872E-1,3.897461176E0,1.176989555E1
9.668827761E0,-1.019032121E0,3.887884378E0,1.139879417E1
9.688887656E0,-3.175309896E-1,3.543119192E0,1.137964058E1
9.708947552E0,4.150947332E-1,3.222296238E0,1.081939793E1
9.729007448E0,8.939350843E-1,2.942174673E0,9.945513725E0
9.749067344E0,8.005611897E-1,2.149693966E0,1.030703831E1
9.769127240E0,1.780687571E-1,1.472134829E0,1.109951878E1
9.789187136E0,-3.262099996E-2,1.225531936E0,1.049618053E1
9.809247031E0,1.948281676E-1,1.563114405E0,8.956708908E0
9.829306927E0,3.983353078E-1,2.166453362E0,7.503427982E0
9.849366823E0,5.946598649E-1,2.468122721E0,6.818686485E0
9.869426719E0,4.366425276E-1,2.614168882E0,7.232883453E0
9.889486615E0,-4.970961213E-1,2.592621088E0,8.008605003E0
9.909546511E0,-1.014243722E0,2.693177700E0,9.033323288E0
9.929606406E0,-1.066916108E0,2.602197886E0,9.844957352E0
9.949666302E0,-8.921394348E-1,2.621351480E0,1.005085850E1
9.969726198E0,-7.604582906E-1,2.923021078E0,9.002198219E0
9.989786094E0,-5.689221621E-1,3.219902039E0,7.972691536E0
1.000984599E1,-4.899135232E-1,3.411438227E0,7.493851185E0
1.002990589E1,-3.821744323E-1,3.571849585E0,7.570465565E0
1.004996578E1,-5.186439157E-1,3.626916409E0,7.687781811E0
1.007002635E1,-4.228758812E-1,3.677194595E0,7.841010571E0
1.009008276E1,-3.318962157E-1,3.614945173E0,8.226476669E0
1.011014557E1,5.835866556E-2,3.430591822E0,8.884882927E0
1.013020505E1,5.180453658E-1,3.322852612E0,9.323021889E0
1.015026443E1,3.552396894E-1,3.157652855E0,9.720458984E0
1.017032479E1,-4.994903207E-1,3.112162828E0,1.026394272E1
1.019038484E1,-1.208173990E0,3.150470257E0,1.067813969E1
1.021044422E1,-1.536179662E0,3.107374430E0,1.117852783E1
1.023050359E1,-1.945588112E0,3.167229652E0,1.196143150E1
1.025056349E1,-2.108393908E0,3.160047054E0,1.271799946E1
1.027062432E1,-1.955164909E0,3.160047054E0,1.250012684E1
1.029068422E1,-1.811512828E0,3.071461439E0,1.144667816E1
1.031074359E1,-2.019808292E0,2.508824110E0,1.145146656E1
1.033080302E1,-2.299930096E0,1.740285397E0,1.214099693E1
1.035086292E1,-1.730110049E0,1.345242023E0,1.153765774E1
1.037092281E1,-1.282394290E0,1.529595613E0,9.634267807E0
1.039098271E1,-1.160290003E0,1.792957783E0,7.381323814E0
1.041104260E1,-1.299153686E0,2.211943150E0,5.700594425E0
1.043110250E1,-1.210568190E0,2.417844534E0,5.506663799E0
1.045116240E1,-1.598428965E0,2.595015287E0,6.124367714E0
1.047122229E1,-1.569698453E0,2.595015287E0,7.192182064E0
1.049128219E1,-1.078887105E0,2.606986284E0,8.111555099E0
1.051134208E1,-5.737105608E-1,2.549525499E0,8.769960403E0
1.053140198E1,-4.156932831E-1,2.681206703E0,8.932766914E0
1.055146188E1,-2.265513390E-1,2.815281868E0,8.839392662E0
1.057152177E1,-1.346738450E-2,2.908655882E0,8.901641846E0
1.059158167E1,-2.783259563E-2,3.016394854E0,9.042900085E0
1.061164156E1,-3.007715940E-1,3.289333820E0,8.887276649E0
1.063170162E1,-4.827309251E-1,3.679588795E0,8.473079681E0
1.065176203E1,-4.994903207E-1,3.928585768E0,8.068459511E0
1.067182245E1,-5.784989595E-1,4.050690174E0,8.233659744E0
1.069188245E1,-4.276642799E-1,4.187159538E0,8.303091049E0
1.071194234E1,-1.020528451E-1,4.165611744E0,8.580819130E0
1.073200224E1,-1.451484710E-1,4.007594585E0,9.272743225E0
1.075206214E1,-4.970961213E-1,3.737049580E0,1.070687008E1
1.077212203E1,-5.042787194E-1,3.492841005E0,1.197819138E1
1.079218193E1,-3.031657934E-1,3.344400406E0,1.190875912E1
1.081224182E1,-3.725976348E-1,3.382707834E0,1.173158836E1
1.083230172E1,-7.092822343E-2,3.279757023E0,1.205480576E1
1.085236162E1,4.222773314E-1,3.195960045E0,1.137245846E1
1.087242167E1,9.609727263E-1,3.025971651E0,1.022084713E1
1.089248031E1,9.274538755E-1,2.403479338E0,1.032619190E1
1.091254073E1,4.878186062E-2,1.496076822E0,1.159990692E1
1.093260115E1,-2.744353712E-1,1.129763961E0,1.173637676E1
1.095266135E1,-2.026093155E-1,1.381155133E0,9.354146004E0
1.097272130E1,3.241150677E-1,1.869572282E0,7.165845871E0
1.099277792E1,8.939350843E-1,2.257432938E0,6.047753334E0
1.101284115E1,9.633669257E-1,2.379537106E0,6.572083473E0
1.103290104E1,-2.528875470E-1,2.611774683E0,7.687781811E0
1.105296094E1,-1.382950783E0,2.647687912E0,8.192957878E0
1.107302083E1,-1.459565163E0,2.638111115E0,8.916007042E0
1.109308073E1,-1.102829099E0,2.518400908E0,9.540893555E0
1.111314063E1,-6.670844555E-1,2.549525499E0,9.375694275E0
1.113320052E1,-3.318962157E-1,2.721908092E0,8.525752068E0
1.115326042E1,4.399345443E-2,2.906261683E0,7.759607792E0
1.117332031E1,3.025672436E-1,3.124133825E0,7.192182064E0
1.119338021E1,3.441664949E-2,3.480870008E0,6.861782074E0
1.121344010E1,-4.324526787E-1,3.717895985E0,7.048529625E0
1.123350000E1,-7.029974461E-1,3.591003180E0,8.214506149E0
1.125355990E1,-5.545569658E-1,3.303699017E0,9.356540680E0
1.127361979E1,-1.403600723E-1,3.176806450E0,1.007958889E1
1.129367969E1,-3.390788138E-1,3.081038237E0,1.044111347E1
1.131373958E1,-1.272817492E0,2.690783501E0,1.143710136E1
1.133379948E1,-1.967136025E0,2.729090691E0,1.257913589E1
1.135385938E1,-2.460341454E0,3.002029657E0,1.205719948E1
1.137391927E1,-2.319083691E0,3.200748444E0,1.093431950E1
1.139397917E1,-1.835454822E0,3.406649828E0,1.052251625E1
1.141403906E1,-1.294365287E0,3.332429409E0,1.052012253E1
1.143409896E1,-1.239298701E0,3.370736599E0,1.093671322E1
1.145415885E1,-1.804330230E0,3.040336847E0,1.123598862E1
1.147421875E1,-2.017414093E0,2.448969126E0,1.146583176E1
1.149427865E1,-2.012625694E0,1.977311373E0,1.101572227E1
1.151433854E1,-1.722927451E0,1.769015789E0,9.758766174E0
1.153439844E1,-1.497872472E0,1.608604312E0,8.082824707E0
1.155445833E1,-1.117194414E0,1.838447571E0,7.048529625E0
1.157451823E1,-9.017162323E-1,2.207154751E0,6.751648903E0
1.159457812E1,-1.258452296E0,2.566284895E0,6.849811077E0
1.161463844E1,-1.476324677E0,2.812887669E0,7.316680431E0
1.163469885E1,-1.186626196E0,2.760215282E0,8.166622162E0
1.165475922E1,-6.120178103E-1,2.652476311E0,8.520963669E0
1.167481912E1,-2.457049489E-1,2.590226889E0,8.638279915E0
1.169487901E1,-2.792237699E-1,2.681206703E0,8.858546257E0
1.171493891E1,-5.641337633E-1,2.796128273E0,9.052476883E0
1.173499880E1,-7.820061445E-1,2.966116667E0,8.765172005E0
1.175505870E1,-8.538321853E-1,3.239055634E0,8.446743965E0
1.177511859E1,-1.071704507E0,3.646070004E0,7.678205013E0
1.179517849E1,-1.385344982E0,4.033930779E0,7.161057472E0
1.181523839E1,-1.442805767E0,4.261379719E0,7.347805023E0
1.183529828E1,-1.057339311E0,4.321234703E0,7.922413349E0
1.185535818E1,-6.144120097E-1,4.237437725E0,8.650250435E0
1.187541807E1,-8.681973815E-1,4.120121956E0,9.703699112E0
1.189547797E1,-1.234510303E0,4.024353981E0,1.102769279E1
1.191553787E1,-1.378162384E0,4.091391563E0,1.162624359E1
1.193559776E1,-1.394921780E0,4.302081108E0,1.102529907E1
1.195565766E1,-1.730110049E0,4.201524734E0,1.093671322E1
1.197571755E1,-1.392527580E0,4.009988785E0,1.187284660E1
1.199577745E1,-9.926958680E-1,3.734655380E0,1.231098557E1
1.201583734E1,-6.239888072E-1,3.583820581E0,1.186326981E1
1.203589724E1,-8.705915809E-1,3.042731047E0,1.120007515E1
1.205595714E1,-1.200991392E0,2.080261946E0,1.104684639E1
1.207601833E1,-8.083423376E-1,1.220743537E0,1.044111347E1
1.209607823E1,2.498947978E-1,1.074697256E0,8.868123055E0
1.211613812E1,1.142932057E0,1.524807215E0,7.163451672E0
1.213619802E1,8.604162335E-1,1.955763459E0,6.433219910E0
1.215625792E1,2.642600238E-1,2.085050344E0,6.981492043E0
1.217631729E1,-2.002151161E-1,2.235885143E0,8.111555099E0
1.219637583E1,-7.053917050E-1,2.219125748E0,8.947132111E0
1.221643807E1,-9.663596749E-1,2.214337349E0,9.799467087E0
1.223649797E1,-1.186626196E0,2.168847561E0,1.033576870E1
1.225655787E1,-9.974842668E-1,2.530371904E0,9.493009567E0
1.227661776E1,-5.641337633E-1,2.772186279E0,8.113949776E0
1.229667766E1,-2.744353712E-1,3.112162828E0,7.335834026E0
1.231673755E1,-2.935889959E-1,3.294122219E0,7.074865818E0
1.233679745E1,-5.234323740E-1,3.464110613E0,7.240066051E0
1.235685734E1,-8.442553878E-1,3.545513391E0,7.752425194E0
1.237691724E1,-7.628524899E-1,3.576637983E0,8.226476669E0
1.239697714E1,-7.796119452E-1,3.547907591E0,8.930372238E0
1.241703703E1,-5.138555169E-1,3.638887405E0,9.550470352E0
1.243709693E1,-6.000468135E-1,3.643675804E0,9.993397713E0
1.245715682E1,1.277905107E-1,3.337217808E0,1.028309631E1
1.247721672E1,1.613093466E-1,3.042731047E0,1.080982113E1
1.249727662E1,-5.856816173E-1,3.121739626E0,1.155441761E1
1.251733651E1,-1.028608918E0,3.210325241E0,1.168609810E1
1.253739641E1,-1.438017368E0,3.500023603E0,1.112106705E1
1.255745630E1,-1.797147632E0,3.658041000E0,1.056561184E1
1.257751625E1,-1.950376511E0,3.432986021E0,1.041956615E1
1.259757667E1,-1.936011314E0,2.762609482E0,1.105881786E1
1.261763708E1,-1.849820137E0,1.864783883E0,1.200213337E1
1.263769740E1,-1.454776764E0,1.170465350E0,1.289277649E1
1.265775729E1,-1.258452296E0,1.199195743E0,1.163821411E1
1.267781719E1,-1.145924807E0,1.551143408E0,8.734047890E0
1.269787708E1,-1.052550912E0,1.998859167E0,5.791574001E0
1.271793698E1,-8.370727897E-1,2.539948702E0,4.513070107E0
1.273799688E1,-1.184231997E0,2.805705070E0,4.742913723E0
1.275805677E1,-1.957559109E0,3.033154249E0,6.165069580E0
1.277811719E1,-2.350208282E0,2.973299265E0,7.924807549E0
1.279817708E1,-1.864185333E0,2.674024105E0,9.516951561E0
1.281823698E1,-9.496002197E-1,2.403479338E0,1.057518864E1
1.283829688E1,-5.018845201E-1,2.422632933E0,1.068771648E1
1.285835677E1,-5.473743677E-1,2.748244286E0,1.001973438E1
1.287841708E1,-8.514379859E-1,3.193565845E0,9.114726067E0
1.289847698E1,-1.019032121E0,3.602974176E0,8.214506149E0
1.291853688E1,-9.232640266E-1,3.873519182E0,7.879317760E0
1.293859677E1,-1.105223417E0,4.050690174E0,8.010998726E0
1.295865667E1,-1.394921780E0,4.153640747E0,8.310274124E0
1.297871620E1,-1.251269698E0,4.127304554E0,8.327033043E0
1.299877578E1,-8.586205840E-1,4.086603165E0,8.267178535E0
1.301883698E1,-3.725976348E-1,4.029142380E0,8.678980827E0
1.303889688E1,-4.540005028E-1,3.990834951E0,9.399636269E0
1.305895677E1,-8.490437865E-1,3.863942385E0,1.062067890E1
1.307901667E1,-8.322843909E-1,3.634099007E0,1.207156467E1
1.309907656E1,-9.615712762E-1,3.430591822E0,1.275151825E1
1.311913646E1,-9.376292229E-1,3.466504812E0,1.314656162E1
1.313919635E1,-5.856816173E-1,3.591003180E0,1.285686302E1
1.315925625E1,-3.606266379E-1,3.471293211E0,1.135809326E1
1.317931615E1,-2.145803273E-1,3.035548449E0,1.015620327E1
1.319937604E1,-4.923077226E-1,2.008435965E0,1.089840603E1
1.321943594E1,-4.875193238E-1,1.187224746E0,1.080742645E1
1.323949583E1,-5.656301603E-2,1.096245050E0,9.117119789E0
1.325955573E1,4.581903517E-1,1.524807215E0,6.854599476E0
1.327961563E1,4.294599295E-1,2.152088165E0,5.568912983E0
1.329967557E1,3.025672436E-1,2.475305319E0,5.518634796E0
1.331973599E1,-1.068412513E-1,2.647687912E0,6.493074894E0
1.333979641E1,-8.610147834E-1,2.755426884E0,7.489062786E0
1.335985677E1,-1.356614590E0,2.760215282E0,8.583212852E0
1.337991667E1,-1.629553556E0,2.650082111E0,9.564835548E0
1.339997656E1,-1.203385592E0,2.630928278E0,9.550470352E0
1.342003646E1,-5.641337633E-1,2.721908092E0,8.592789650E0
1.344009635E1,-3.247136176E-1,2.824858665E0,7.850587368E0
1.346015625E1,-2.480991483E-1,2.858377457E0,7.929595947E0
1.348021615E1,-3.534440398E-1,2.951751471E0,8.121131897E0
1.350027604E1,-4.492121041E-1,3.167229652E0,8.293514252E0
1.352033594E1,-6.814496517E-1,3.164835453E0,8.523358345E0
1.354039583E1,-3.318962157E-1,3.083432436E0,9.117119789E0
1.356045573E1,-6.374561787E-2,2.994847059E0,9.452308655E0
1.358051562E1,-9.247604012E-2,2.958934069E0,1.008198357E1
1.360057552E1,-6.862380505E-1,2.846406460E0,1.115219116E1
1.362063583E1,-1.514631867E0,3.014000654E0,1.170046329E1
1.364069625E1,-2.228103876E0,3.215113640E0,1.166933918E1
1.366075667E1,-2.319083691E0,3.267786026E0,1.134851646E1
1.368081672E1,-1.773205638E0,3.076249838E0,1.100135708E1
1.370087662E1,-1.318307281E0,2.985270262E0,1.064701462E1
1.372093651E1,-1.476324677E0,2.829647064E0,9.921571732E0
1.374099641E1,-2.309506893E0,2.604592085E0,1.001015759E1
1.376105630E1,-2.319083691E0,1.984493971E0,1.140118885E1
1.378111620E1,-1.907280922E0,1.268627644E0,1.189678860E1
1.380117609E1,-1.299153686E0,1.357213140E0,1.117134476E1
1.382123599E1,-1.409286976E0,1.529595613E0,9.188945770E0
1.384129589E1,-1.584063649E0,1.843236089E0,7.137115479E0
1.386135578E1,-1.655889750E0,2.219125748E0,6.258443356E0
1.388141568E1,-2.151489496E0,2.527977705E0,6.426037312E0
1.390147578E1,-2.422034264E0,2.678812504E0,7.192182064E0
1.392153620E1,-1.528997064E0,2.697966099E0,7.627926826E0
1.394159662E1,-7.053917050E-1,2.604592085E0,8.171410561E0
1.396165693E1,-3.965396583E-1,2.530371904E0,8.681375504E0
1.398171682E1,-5.186439157E-1,2.448969126E0,8.983044624E0
1.400177672E1,-3.797802329E-1,2.480093718E0,9.255983353E0
1.402183662E1,-4.611831009E-1,2.530371904E0,9.349357605E0
1.404189651E1,-7.149685025E-1,2.820070267E0,9.155426979E0
1.406195641E1,-1.083675504E0,3.140893459E0,8.571242332E0
1.408201646E1,-1.339855075E0,3.380313635E0,8.377311707E0
1.410207578E1,-1.368585587E0,3.461716413E0,8.602366447E0
1.412213620E1,-1.121982813E0,3.646070004E0,8.623914719E0
1.414219662E1,-5.377975702E-1,3.804087162E0,8.458714485E0
1.416225703E1,-3.079541922E-1,4.014777184E0,8.530540466E0
1.418231328E1,-5.330091715E-1,3.849576950E0,9.512163162E0
1.420237589E1,-6.503250599E-1,3.629310608E0,1.105163479E1
1.422243708E1,-5.377975702E-1,3.243844032E0,1.218169785E1
1.424249698E1,-6.120178103E-1,3.049913645E0,1.298614979E1
1.426255688E1,-3.980360180E-2,2.963722467E0,1.352723980E1
1.428261677E1,6.042366624E-1,2.820070267E0,1.256477070E1
1.430267667E1,5.060743690E-1,2.147299767E0,1.175074196E1
1.432273656E1,-2.768295705E-1,1.225531936E0,1.210747814E1
1.434279646E1,-5.306149721E-1,5.240309238E-1,1.152089882E1
1.436285635E1,-7.092822343E-2,4.522048533E-1,9.696516991E0
1.438291625E1,2.546831965E-1,9.382277727E-1,8.070854187E0
1.440297620E1,3.624222875E-1,1.271021843E0,7.070077419E0
1.442303662E1,3.025672436E-1,1.474529028E0,6.809109688E0
1.444309703E1,2.259527892E-1,1.536778212E0,7.287950039E0
1.446315745E1,-3.031657934E-1,1.474529028E0,8.092401505E0
1.448321745E1,-7.508814931E-1,1.407491326E0,8.966285706E0
1.450327734E1,-7.293336987E-1,1.381155133E0,9.356540680E0
1.452333724E1,-2.911947966E-1,1.589450598E0,8.882488251E0
1.454339714E1,-1.164180562E-1,1.826476574E0,8.425195694E0
1.456345703E1,-3.295020163E-1,2.159270763E0,8.439560890E0
1.458351693E1,-2.552817464E-1,2.369960308E0,8.415618896E0
1.460357682E1,-9.247604012E-2,2.513612509E0,8.128314972E0
1.462363672E1,-2.648585737E-1,2.542342901E0,8.362946510E0
1.464369662E1,-6.287772059E-1,2.525583506E0,8.923190117E0
1.466375672E1,-6.096236110E-1,2.322076321E0,9.624691010E0
1.468381714E1,-1.978209168E-1,2.257432938E0,1.007958889E1
1.470387755E1,-1.586158574E-2,2.228702545E0,1.027591324E1
1.472393797E1,-3.965396583E-1,2.063502550E0,1.065659142E1
1.474399786E1,-1.019032121E0,1.946186662E0,1.095826149E1
1.476405776E1,-1.655889750E0,2.049137354E0,1.091755962E1
1.478411677E1,-2.347814083E0,2.185606956E0,1.063743782E1
1.480417719E1,-2.577657461E0,2.226308346E0,1.080742645E1
1.482423812E1,-1.947982311E0,2.233490944E0,1.126471901E1
1.484429807E1,-2.015019894E0,2.259827137E0,1.118331623E1
1.486435797E1,-2.905663013E0,2.286163330E0,1.131499767E1
1.488441698E1,-3.130717993E0,1.876754880E0,1.257674122E1
1.490447740E1,-2.979883194E0,1.524807215E0,1.260307789E1
1.492453833E1,-2.041356325E0,1.536778212E0,1.017056847E1
1.494459823E1,-1.330278277E0,1.701978087E0,7.809885979E0
1.496465813E1,-1.114800215E0,1.927033067E0,6.332663536E0
1.498471609E1,-1.442805767E0,2.077867746E0,6.591237068E0
1.500477760E1,-1.943193913E0,2.298134327E0,6.703764915E0
1.502483844E1,-1.311124682E0,2.604592085E0,6.521805286E0
1.504489833E1,-5.545569658E-1,2.566284895E0,7.146692276E0
1.506495823E1,-2.624643743E-1,2.506429911E0,8.303091049E0
1.508501813E1,-1.044470519E-1,2.267009735E0,8.959102631E0
1.510507802E1,2.666542232E-1,2.199972153E0,9.193734169E0
1.512513792E1,4.318541288E-1,2.267009735E0,9.112331390E0
1.514519781E1,3.193266392E-1,2.501641512E0,9.054870605E0
1.516525771E1,-1.259948611E-1,2.714725494E0,8.954314232E0
1.518531771E1,-3.869628608E-1,2.875136852E0,8.927978516E0
1.520537813E1,-5.354033709E-1,2.944568872E0,9.270348549E0
1.522543854E1,-8.203133345E-1,3.145681858E0,9.605537415E0
1.524549896E1,-8.777741790E-1,3.449745417E0,9.301473618E0
1.526555896E1,-6.192004085E-1,3.741837978E0,8.951920509E0
1.528561885E1,-6.284779403E-3,3.720290184E0,9.258378029E0
1.530567875E1,-2.433107495E-1,3.425803423E0,1.092713642E1
1.532573865E1,-3.606266379E-1,3.219902039E0,1.232295609E1
1.534579854E1,-4.698620737E-2,3.037942648E0,1.273475838E1
1.536585844E1,-1.586158574E-2,3.045125246E0,1.290714169E1
1.538591833E1,1.110311002E-1,3.097797632E0,1.257434750E1
1.540597823E1,7.032967359E-2,2.640505314E0,1.182256794E1
1.542603828E1,-1.810615063E-1,1.599027514E0,1.224155331E1
1.544609870E1,-1.020528451E-1,5.671265125E-1,1.309867764E1
1.546615912E1,-1.571194828E-1,2.654571235E-1,1.153526402E1
1.548621953E1,1.206079125E-1,5.288193226E-1,8.588001251E0
1.550627948E1,4.438251257E-1,1.251868248E0,6.234501362E0
1.552633938E1,6.209960580E-1,1.790563583E0,5.102043629E0
1.554639927E1,3.648164868E-1,1.927033067E0,5.456385612E0
1.556645917E1,-3.223194182E-1,1.850418687E0,6.698976517E0
1.558651906E1,-1.157895803E0,1.618181109E0,7.714118004E0
1.560657896E1,-1.380556583E0,1.390731931E0,8.561665535E0
1.562663885E1,-1.236904502E0,1.175253749E0,9.380482674E0
1.564669875E1,-8.490437865E-1,1.077091455E0,9.622296333E0
1.566675891E1,-2.543839253E-2,1.429039121E0,8.889671326E0
1.568681932E1,2.666542232E-1,1.845630288E0,8.360552788E0
1.570687974E1,-1.307832748E-1,2.307711124E0,8.087613106E0
1.572694010E1,-5.497685671E-1,2.681206703E0,7.984662533E0
1.574700000E1,-6.407482028E-1,2.870348454E0,8.257601738E0
1.576705990E1,-6.718728542E-1,2.750638485E0,9.131484985E0
1.578711979E1,-1.427542716E-1,2.695571899E0,9.991003990E0
1.580717969E1,-3.740940243E-2,2.683600903E0,9.931148529E0
1.582723958E1,-3.654150367E-1,2.559102297E0,1.023521233E1
1.584729948E1,-1.275211692E0,2.393902540E0,1.074278259E1
1.586735938E1,-1.852214336E0,2.305316925E0,1.164300251E1
1.588741927E1,-2.354996681E0,2.166453362E0,1.251688671E1
1.590747948E1,-1.945588112E0,2.223914146E0,1.235647488E1
1.592753990E1,-1.121982813E0,2.432209730E0,1.084812832E1
1.594760031E1,-8.753799796E-1,2.571073294E0,9.344569206E0
1.596766062E1,-1.370979786E0,1.979705572E0,8.643068314E0
1.598772052E1,-2.201767683E0,8.041524887E-1,1.083855152E1
1.600778042E1,-2.065298319E0,-2.708440721E-1,1.366849709E1
1.602784031E1,-1.950376511E0,-2.804208696E-1,1.513614273E1
1.604790021E1,-1.792359233E0,5.671265125E-1,1.115458584E1
1.606796010E1,-1.732504249E0,1.194407344E0,6.964732647E0
1.608802037E1,-1.517026067E0,2.135328531E0,4.493916512E0
1.610807974E1,-1.789965034E0,2.863165855E0,3.914519787E0
1.612814000E1,-2.544138670E0,3.210325241E0,4.946420670E0
1.614820042E1,-2.788347244E0,2.906261683E0,7.314286232E0
1.616826083E1,-1.552939057E0,2.597409487E0,9.447520256E0
1.618831740E1,-3.606266379E-1,2.156876564E0,1.026154804E1
1.620838089E1,6.314706802E-2,2.010830164E0,1.060391903E1
1.622844104E1,-6.374561787E-2,2.037166357E0,1.070208168E1
1.624850094E1,-2.313397378E-1,2.204760551E0,1.043393135E1
1.626856083E1,-5.832874179E-1,2.494458914E0,9.878476143E0
1.628862073E1,-7.221511006E-1,2.848800659E0,8.884882927E0
1.630868062E1,-7.772177458E-1,3.047519445E0,8.271966934E0
1.632874052E1,-7.676409483E-1,3.203142643E0,8.032546997E0
1.634880042E1,-8.155249357E-1,3.286939621E0,8.123526573E0
1.636886031E1,-7.939771414E-1,3.339612007E0,8.324639320E0
1.638892021E1,-5.258265734E-1,3.337217808E0,8.568847656E0
1.640898062E1,1.373673230E-1,3.569455385E0,8.504204750E0
1.642904104E1,5.300164223E-1,3.535936594E0,8.963891029E0
1.644910146E1,4.366425276E-1,3.562272787E0,1.014902115E1
1.646916156E1,2.475005984E-1,3.662829399E0,1.148738003E1
1.648922146E1,4.749497473E-1,3.698742390E0,1.290235329E1
1.650928135E1,9.609727263E-1,3.643675804E0,1.376187134E1
1.652934125E1,8.963292837E-1,3.466504812E0,1.329021358E1
1.654940115E1,6.257844567E-1,2.554313898E0,1.318247414E1
1.656946104E1,7.718307972E-1,1.050755262E0,1.392467690E1
1.658952094E1,1.037587166E0,-1.466448512E-2,1.364455509E1
1.660958083E1,9.035118818E-1,-1.227028389E-2,1.076672459E1
1.662964073E1,6.186018586E-1,7.179612517E-1,7.587224960E0
1.664970089E1,5.683236122E-1,1.553537607E0,5.018246651E0
1.666976130E1,9.729437232E-1,2.027589560E0,3.742137194E0
1.668982172E1,1.097442150E0,2.243067741E0,4.594472885E0
1.670988208E1,2.714426219E-1,2.063502550E0,6.567295074E0
1.672994198E1,-7.317278981E-1,1.716343403E0,8.317456245E0
1.675000188E1,-1.435623169E0,1.555931807E0,9.816226959E0
1.677006224E1,-1.260846496E0,1.596633315E0,1.012029076E1
1.679012162E1,-2.935889959E-1,1.989282370E0,8.844181061E0
1.681018104E1,6.257844567E-1,2.369960308E0,7.869740963E0
1.683024135E1,1.078288555E0,2.298134327E0,8.322244644E0
1.685030177E1,1.197998643E0,2.228702545E0,8.956708908E0
1.687036276E1,1.274613142E0,2.614168882E0,8.384494781E0
1.689042010E1,1.049558163E0,3.100191832E0,8.037335396E0
1.691048203E1,5.371990204E-1,3.176806450E0,8.645462036E0
1.693054240E1,3.441664949E-2,3.203142643E0,9.572018623E0
1.695060229E1,-7.571662962E-2,3.097797632E0,1.016578007E1
1.697066292E1,-3.318962157E-1,3.004423857E0,1.034534550E1
1.699072078E1,-1.323095679E0,3.162441254E0,1.042195988E1
1.701078245E1,-2.153883696E0,3.277362823E0,1.071165848E1
1.703084260E1,-2.297535896E0,3.136105061E0,1.106839466E1
1.705090250E1,-2.208950281E0,2.985270262E0,1.176031876E1
1.707096240E1,-2.141912699E0,2.954145670E0,1.145864964E1
1.709102229E1,-2.194585085E0,2.616563082E0,1.055364132E1
1.711108219E1,-2.242469072E0,1.670853496E0,1.171243477E1
1.713114208E1,-1.459565163E0,5.407903194E-1,1.323754120E1
1.715120198E1,-8.370727897E-1,2.319382876E-1,1.407790565E1
1.717126188E1,-1.478718877E0,8.759785295E-1,1.176510715E1
1.719132177E1,-1.852214336E0,1.419462323E0,8.185775757E0
1.721138219E1,-1.313518882E0,1.900696874E0,5.805939198E0
1.723144260E1,-9.519944787E-1,2.147299767E0,5.224148273E0
1.725150302E1,-1.572092652E0,2.223914146E0,6.028599739E0
1.727156312E1,-1.667860746E0,2.324470520E0,6.811503887E0
1.729162302E1,-1.014243722E0,2.171241760E0,7.366958618E0
1.731168292E1,-2.768295705E-1,1.950975060E0,8.101978302E0
1.733174281E1,5.357026309E-2,1.761833191E0,8.810662270E0
1.735180271E1,2.498947978E-1,1.678036094E0,9.248801231E0
1.737186260E1,2.403180003E-1,1.747467995E0,9.572018623E0
1.739192250E1,1.158195063E-1,2.029983759E0,9.890447617E0
1.741198240E1,-4.731540978E-1,2.487276316E0,9.679757118E0
1.743204229E1,-6.766612530E-1,2.918232679E0,9.856928825E0
1.745210250E1,-6.599018574E-1,3.121739626E0,9.825803757E0
1.747216292E1,-6.407482028E-1,3.404255629E0,9.775525093E0
1.749222333E1,-4.611831009E-1,3.693953991E0,9.447520256E0
1.751228359E1,-2.768295705E-1,3.911826372E0,9.270348549E0
1.753234331E1,-7.389104962E-1,3.763385773E0,1.038365269E1
1.755240321E1,-7.006032467E-1,3.708319187E0,1.125514221E1
1.757246357E1,-4.468179047E-1,3.684377193E0,1.136527538E1
1.759252347E1,-4.228758812E-1,3.681982994E0,1.125274754E1
1.761258336E1,-2.552817464E-1,3.701136589E0,1.136288166E1
1.763264326E1,3.289034665E-1,3.856759548E0,1.085770512E1
1.765270316E1,2.283469886E-1,3.521571398E0,9.552865028E0
1.767276373E1,1.469441354E-1,1.965340376E0,1.037886429E1
1.769282310E1,4.366425276E-1,5.048772693E-1,1.264138508E1
1.771288253E1,1.828571558E-1,1.194108129E-1,1.314656162E1
1.773294295E1,-4.061164558E-1,5.312135220E-1,1.010353088E1
1.775300336E1,1.517325342E-1,1.419462323E0,7.094019413E0
1.777306378E1,7.431003451E-1,2.046743155E0,5.252878666E0
1.779312383E1,1.327285528E0,2.015618563E0,5.226542473E0
1.781318373E1,1.080682755E0,1.922244668E0,7.086836815E0
1.783324362E1,-3.127425909E-1,1.644517303E0,8.406042099E0
1.785330352E1,-1.378162384E0,1.421856523E0,9.665391922E0
1.787336342E1,-1.653495550E0,1.443404317E0,1.026873112E1
1.789342331E1,-1.145924807E0,1.668459296E0,9.909601212E0
1.791348321E1,-4.659714997E-1,2.032377958E0,8.868123055E0
1.793354310E1,-1.044470519E-1,2.434603930E0,8.070854187E0
1.795360300E1,-6.284779403E-3,2.717119694E0,7.876923561E0
1.797366300E1,8.978256374E-4,3.014000654E0,8.080430984E0
1.799372342E1,-3.893570602E-1,3.169623852E0,8.470685959E0
1.801378383E1,-3.558382392E-1,3.136105061E0,9.097966194E0
1.803384425E1,8.978256374E-4,2.887108088E0,9.904812813E0
1.805390420E1,5.802946091E-1,2.844012260E0,1.015620327E1
1.807396409E1,5.108627677E-1,2.748244286E0,9.864110947E0
1.809402399E1,-1.619078964E-1,2.544737101E0,9.876082420E0
1.811408388E1,-1.054945111E0,2.487276316E0,1.073799419E1
1.813414378E1,-1.157895803E0,2.415450335E0,1.113064384E1
1.815420368E1,-6.886322498E-1,2.346018314E0,1.106360626E1
1.817426357E1,-5.377975702E-1,2.465728521E0,1.118570995E1
1.819432347E1,-9.855132699E-1,2.793734074E0,1.079066753E1
1.821438336E1,-1.009455323E0,3.160047054E0,1.004367638E1
1.823444326E1,-1.562515855E0,3.021183252E0,1.003170490E1
1.825450331E1,-2.343025684E0,2.334047318E0,1.179862595E1
1.827456373E1,-2.644695044E0,1.476923227E0,1.317768574E1
1.829462414E1,-2.544138670E0,1.278204441E0,1.219127464E1
1.831468446E1,-2.077269316E0,1.235108852E0,8.987833023E0
1.833474435E1,-1.648707151E0,1.385943532E0,6.902483463E0
1.835480425E1,-1.282394290E0,1.639728904E0,6.818686485E0
1.837486414E1,-1.816301227E0,1.943792462E0,7.156269073E0
1.839492404E1,-2.275988102E0,2.207154751E0,7.776367188E0
1.841498394E1,-1.986289620E0,2.310105324E0,8.863334656E0
1.843504383E1,-1.042974114E0,2.314893723E0,9.435548782E0
1.845510373E1,-2.600701451E-1,2.343624115E0,8.501810074E0
1.847516362E1,2.005143836E-2,2.554313898E0,7.917624950E0
1.849522352E1,-2.304419130E-2,2.865560055E0,7.917624950E0
1.851528342E1,-1.882441044E-1,3.095403433E0,8.358158112E0
1.853534331E1,-3.151367903E-1,3.380313635E0,8.556877136E0
1.855540357E1,-8.107365370E-1,3.504812002E0,8.657433510E0
1.857546399E1,-1.023820519E0,3.729866982E0,8.868123055E0
1.859552441E1,-7.604582906E-1,3.813663960E0,8.944737434E0
1.861558446E1,-3.031657934E-1,3.796904564E0,8.908824921E0
1.863564435E1,-6.284779403E-3,3.887884378E0,9.016563416E0
1.865570425E1,-1.738788933E-1,3.887884378E0,9.085995674E0
1.867576414E1,-4.180874825E-1,3.703530788E0,9.959878922E0
1.869582404E1,-3.462614119E-1,3.437774420E0,1.127190113E1
1.871588394E1,-8.678981103E-3,3.284545422E0,1.229422569E1
1.873594383E1,-2.265513390E-1,3.179200649E0,1.259589481E1
1.875600373E1,7.751227915E-2,3.358765602E0,1.212184334E1
1.877606446E1,6.760627031E-1,3.588608980E0,1.055842972E1
1.879612435E1,7.119757533E-1,3.183989048E0,9.785101891E0
1.881618425E1,5.611410141E-1,1.929427266E0,1.139640045E1
1.883624414E1,7.511807978E-2,5.216367245E-1,1.371159267E1
1.885630404E1,2.005143836E-2,1.289876103E-1,1.311064816E1
1.887636394E1,1.062427014E-1,6.940191984E-1,9.279925346E0
1.889642316E1,4.605845511E-1,1.642123103E0,5.995080948E0
1.891648409E1,6.952162981E-1,2.250250340E0,4.141968727E0
1.893654425E1,1.001674175E0,2.317287922E0,4.821922302E0
1.895660414E1,2.953846455E-1,2.190395355E0,6.689399719E0
1.897666310E1,-7.389104962E-1,1.919850469E0,8.252813339E0
1.899672196E1,-1.153107405E0,1.670853496E0,9.703699112E0
1.901678420E1,-1.186626196E0,1.646911502E0,1.041477776E1
1.903684409E1,-7.317278981E-1,1.828870773E0,1.001973438E1
1.905690399E1,-1.834557056E-1,2.140116930E0,9.033323288E0
1.907696388E1,1.765723713E-2,2.504035711E0,8.552088737E0
1.909702378E1,2.962824516E-2,2.717119694E0,8.180987358E0
1.911708368E1,-3.295020163E-1,3.004423857E0,8.394071579E0
1.913714357E1,-3.869628608E-1,3.143287659E0,8.588001251E0
1.915720347E1,-3.366846144E-1,3.148076057E0,9.062053680E0
1.917726336E1,-1.523310840E-1,3.009212255E0,9.301473618E0
1.919732326E1,9.906009585E-2,2.808099270E0,9.636661530E0
1.921738316E1,4.103063047E-1,2.554313898E0,1.004367638E1
1.923744305E1,3.121440411E-1,2.348412514E0,1.009156036E1
1.925750295E1,-5.713163614E-1,2.262221336E0,1.030224991E1
1.927756284E1,-1.394921780E0,2.432209730E0,1.073320580E1
1.929762274E1,-1.363797188E0,2.494458914E0,1.106839466E1
1.931768263E1,-1.459565163E0,2.575861692E0,1.116416264E1
1.933774253E1,-2.129941702E0,2.741061687E0,1.135091019E1
1.935780243E1,-2.268805504E0,2.676418304E0,1.144188976E1
1.937786232E1,-2.038962126E0,2.554313898E0,1.114500904E1
1.939792222E1,-1.797147632E0,2.154482365E0,1.125993061E1
1.941798232E1,-1.754052043E0,1.460163713E0,1.154244614E1
1.943804274E1,-1.430834770E0,1.086668253E0,1.132217979E1
1.945810316E1,-1.141136408E0,9.573814273E-1,9.888052940E0
1.947816321E1,-1.148319006E0,1.115398765E0,8.487444878E0
1.949822310E1,-1.428440571E0,1.306934834E0,7.309497833E0
1.951828300E1,-1.677437544E0,1.443404317E0,7.196970463E0
1.953834289E1,-1.837849021E0,1.498471022E0,7.450755596E0
1.955840279E1,-1.473930478E0,1.716343403E0,7.522581577E0
1.957846269E1,-1.076492906E0,2.044348955E0,7.728483200E0
1.959852258E1,-6.335656047E-1,2.097021341E0,8.657433510E0
1.961858248E1,-2.696469724E-1,1.874360681E0,9.308655739E0
1.963864237E1,8.708908409E-2,1.752256393E0,9.600749016E0
1.965870227E1,-1.930325180E-1,1.936609864E0,9.911994934E0
1.967876263E1,-4.587889016E-1,2.293345928E0,9.775525093E0
1.969882253E1,-8.681973815E-1,2.642899513E0,9.121908188E0
1.971888242E1,-1.131559610E0,2.925415277E0,8.671798706E0
1.973894232E1,-1.138742208E0,3.167229652E0,8.303091049E0
1.975900222E1,-1.014243722E0,3.243844032E0,8.049305916E0
1.977906211E1,-7.221511006E-1,3.188777447E0,8.650250435E0
1.979912201E1,-4.779425263E-1,3.138499260E0,9.174580574E0
1.981918190E1,-3.031657934E-1,3.294122219E0,9.006986618E0
1.983924180E1,-4.372410774E-1,3.351583004E0,9.097966194E0
1.985930170E1,-3.103483915E-1,3.121739626E0,1.029027843E1
1.987936159E1,-1.355716735E-1,2.934992075E0,1.151132202E1
1.989942149E1,-4.923077226E-1,2.772186279E0,1.174595356E1
1.991948138E1,-5.593453646E-1,2.585438490E0,1.200452709E1
1.993954128E1,1.038485020E-1,2.441786528E0,1.296220779E1
1.995960118E1,3.672106862E-1,2.654870510E0,1.276109505E1
1.997966107E1,5.539584160E-1,2.685995102E0,1.149695683E1
1.999972097E1,1.110311002E-1,2.010830164E0,1.098220348E1
2.001978086E1,1.924339682E-1,9.932944179E-1,1.167891598E1
2.003984076E1,4.638765752E-2,1.625064462E-1,1.182496262E1
2.005990066E1,2.355295867E-1,1.409586221E-1,1.005564690E1
2.007996055E1,3.169324398E-1,5.431845188E-1,7.558494568E0
2.010002045E1,5.252280235E-1,9.645640254E-1,5.815515995E0
2.012008034E1,1.049558163E0,1.110610366E0,5.559336185E0
2.014014024E1,9.490016699E-1,1.026813269E0,6.696582317E0
2.016020013E1,-1.523310840E-1,1.038784266E0,7.975085735E0
2.018026003E1,-8.538321853E-1,1.019630671E0,8.975862503E0
2.020031993E1,-1.021426320E0,1.223137736E0,1.012507915E1
2.022037982E1,-9.400234222E-1,1.644517303E0,9.892841339E0
2.024043972E1,-4.180874825E-1,2.008435965E0,8.633491516E0
2.026049961E1,-1.140238568E-1,2.211943150E0,8.578424454E0
2.028055951E1,-8.768763393E-2,2.240673542E0,9.255983353E0
2.030061941E1,-3.510498106E-1,2.374748707E0,9.473855972E0
2.032067930E1,-7.915829420E-1,2.690783501E0,9.014169693E0
2.034073920E1,-9.926958680E-1,2.848800659E0,8.851364136E0
2.036079909E1,-5.186439157E-1,2.731484890E0,9.083600998E0
2.038085899E1,-3.941454589E-1,2.571073294E0,9.449913979E0
2.040091888E1,-2.672527730E-1,2.487276316E0,9.739612579E0
2.042097878E1,-4.276642799E-1,2.357989311E0,9.890447617E0
2.044103868E1,-9.376292229E-1,2.070685148E0,1.051533413E1
2.046109857E1,-1.449988365E0,1.924638867E0,1.112824917E1
2.048115847E1,-1.754052043E0,2.022801161E0,1.121683502E1
2.050121836E1,-1.840243340E0,2.156876564E0,1.097741508E1
2.052127826E1,-1.854608536E0,2.432209730E0,1.102290440E1
2.054133816E1,-1.931222916E0,2.669235706E0,1.086967564E1
2.056139805E1,-2.101211309E0,2.745850086E0,1.094389629E1
2.058145795E1,-2.335843086E0,2.101809740E0,1.182256794E1
2.060151784E1,-2.285564899E0,9.885060191E-1,1.339076996E1
2.062157774E1,-1.888127327E0,1.960252672E-1,1.407551193E1
2.064163763E1,-1.157895803E0,1.313818246E-1,1.081221485E1
2.066169753E1,-7.867945433E-1,2.750339210E-1,6.933608055E0
2.068175742E1,-3.534440398E-1,6.197989583E-1,5.102043629E0
2.070181732E1,-3.989338577E-1,9.501988292E-1,5.465962410E0
2.072187722E1,-1.160290003E0,1.488894224E0,6.502651691E0
2.074193711E1,-1.404498577E0,1.713949084E0,7.544129372E0
2.076199701E1,-5.832874179E-1,1.622969508E0,9.220070839E0
2.078205789E1,1.637035459E-1,1.462557912E0,9.969455719E0
2.080211779E1,3.049614429E-1,1.531989813E0,9.785101891E0
2.082217769E1,-8.678981103E-3,1.867178082E0,9.071630478E0
2.084223758E1,-2.816179693E-1,2.269403934E0,8.765172005E0
2.086229748E1,-4.779425263E-1,2.635716915E0,8.678980827E0
2.088235388E1,-6.383540034E-1,2.982876062E0,8.564059258E0
2.090241602E1,-8.466495872E-1,3.294122219E0,8.607154846E0
2.092247711E1,-9.041104317E-1,3.382707834E0,8.719682693E0
2.094253701E1,-7.221511006E-1,3.375525236E0,8.729259491E0
2.096259690E1,-1.690904945E-1,3.339612007E0,8.616731644E0
2.098265680E1,4.174889326E-1,3.229478836E0,9.026140213E0
2.100271670E1,6.186018586E-1,3.162441254E0,9.464279175E0
2.102277659E1,1.469441354E-1,3.073855639E0,1.033337498E1
2.104283649E1,1.014542952E-1,2.982876062E0,1.146343803E1
2.106289638E1,-8.678981103E-3,2.755426884E0,1.201649857E1
2.108295623E1,-3.151367903E-1,2.367566109E0,1.242111874E1
2.110301560E1,4.399345443E-2,2.307711124E0,1.369722748E1
2.112307498E1,1.445499212E-1,2.669235706E0,1.338119316E1
2.114313466E1,1.541267335E-1,2.762609482E0,1.127908421E1
2.116319456E1,-3.606266379E-1,1.979705572E0,1.114979744E1
2.118325446E1,-4.707598984E-1,8.041524887E-1,1.203565216E1
2.120331435E1,-5.808931589E-1,-5.536591262E-2,1.186805820E1
2.122337425E1,-8.289923519E-2,-1.104325503E-1,9.698910713E0
2.124343414E1,7.023988962E-1,3.971382082E-1,6.507440090E0
2.126349404E1,5.850830674E-1,1.062726259E0,4.458003521E0
2.128355394E1,7.814075947E-1,1.397914529E0,4.620809078E0
2.130361383E1,-8.050503582E-2,1.484105825E0,6.624756336E0
2.132367373E1,-1.076492906E0,1.455375314E0,8.410830498E0
2.134373362E1,-1.246481299E0,1.311723232E0,9.971850395E0
2.136379352E1,-8.945336342E-1,1.388337731E0,1.079066753E1
2.138385342E1,-2.648585737E-1,1.608604312E0,1.029027843E1
2.140391331E1,2.020107657E-1,1.941398263E0,9.344569206E0
2.142397321E1,3.743932843E-1,2.132934332E0,8.714894295E0
2.144403310E1,3.767874837E-1,2.073079348E0,8.664615631E0
2.146409300E1,1.972223669E-1,2.202366352E0,8.944737434E0
2.148415289E1,-3.941454589E-1,2.341229916E0,9.040505409E0
2.150421279E1,-8.251017332E-1,2.568679094E0,8.963891029E0
2.152427269E1,-1.090858102E0,2.539948702E0,8.932766914E0
2.154433258E1,-8.394669890E-1,2.451363325E0,9.212887764E0
2.156439248E1,-6.407482028E-1,2.326864719E0,9.497797966E0
2.158445321E1,-1.026214719E0,2.295740128E0,9.914389610E0
2.160451258E1,-1.670254946E0,2.413056135E0,1.007958889E1
2.162457196E1,-2.240074873E0,2.477699518E0,1.064462090E1
2.164463180E1,-2.412457466E0,2.563890696E0,1.116176796E1
2.166469170E1,-1.969530225E0,2.647687912E0,1.114022064E1
2.168475279E1,-1.828272223E0,2.535160303E0,1.125753593E1
2.170481269E1,-1.789965034E0,2.302922726E0,1.168370438E1
2.172487258E1,-1.746869445E0,1.929427266E0,1.166215611E1
2.174493248E1,-1.947982311E0,1.239897251E0,1.184411621E1
2.176499227E1,-1.854608536E0,5.455787182E-1,1.226788998E1
2.178505164E1,-1.325489879E0,2.558802962E-1,1.194467258E1
2.180511102E1,-6.120178103E-1,2.439092994E-1,1.012268448E1
2.182517076E1,-2.433107495E-1,4.713584483E-1,7.745242596E0
2.184523066E1,-7.413046956E-1,9.621698260E-1,6.019022942E0
2.186529055E1,-1.397315979E0,1.551143408E0,6.612784863E0
2.188535045E1,-1.976712823E0,1.931821465E0,6.842628479E0
2.190541034E1,-1.919251919E0,2.293345928E0,6.998251438E0
2.192547024E1,-1.502660871E0,2.432209730E0,7.745242596E0
2.194553013E1,-1.007061124E0,2.255038738E0,8.757989883E0
2.196559003E1,-5.976526141E-1,2.025195360E0,9.090784073E0
2.198564992E1,-4.013280571E-1,1.907879472E0,9.260771751E0
2.200570982E1,-2.121861279E-1,1.910273671E0,9.397241592E0
2.202576972E1,-1.164180562E-1,2.018012762E0,9.495404243E0
2.204582961E1,-4.587889016E-1,2.413056135E0,8.961497307E0
2.206588951E1,-6.982090473E-1,2.834435463E0,8.530540466E0
2.208594940E1,-5.784989595E-1,3.045125246E0,8.334216118E0
2.210600930E1,-6.646902561E-1,3.107374430E0,9.016563416E0
2.212606920E1,-5.186439157E-1,3.104980230E0,9.471462250E0
2.214612909E1,2.723404393E-2,3.049913645E0,9.524134636E0
2.216618899E1,1.301847100E-1,2.894290686E0,1.004846478E1
2.218624888E1,-5.210381746E-1,2.786551476E0,1.149695683E1
2.220630878E1,-7.269394994E-1,2.726696491E0,1.282334423E1
2.222636868E1,-8.873509765E-1,2.420238733E0,1.284968090E1
2.224642857E1,-6.838438511E-1,2.252644539E0,1.340992355E1
2.226648847E1,-5.177461356E-2,2.288557529E0,1.391510010E1
2.228654836E1,3.528454900E-1,2.487276316E0,1.244506073E1
2.230660826E1,-1.643020958E-1,2.453757524E0,1.053448772E1
2.232666816E1,-3.654150367E-1,1.352424741E0,1.082897472E1
2.234672805E1,-4.348468781E-1,1.984194666E-1,1.182975101E1
2.236678795E1,-5.416881293E-2,-9.846154600E-2,1.053448772E1
2.238684784E1,2.834136188E-1,2.247556895E-1,8.013393402E0
2.240690774E1,3.097498417E-1,7.227496505E-1,6.093243122E0
2.242696763E1,1.924339682E-1,1.184830546E0,5.633556366E0
2.244702753E1,-6.613982469E-2,1.390731931E0,6.749254704E0
2.246708743E1,-7.269394994E-1,1.333271027E0,7.898471355E0
2.248714732E1,-1.359008789E0,1.412279725E0,8.643068314E0
2.250720722E1,-1.672649145E0,1.802534580E0,9.258378029E0
2.252726711E1,-1.665466547E0,2.128145933E0,8.954314232E0
2.254732701E1,-1.399710178E0,2.420238733E0,8.032546997E0
2.256738691E1,-1.059733510E0,2.618957281E0,7.520187378E0
2.258744680E1,-7.077859044E-1,2.690783501E0,7.781155586E0
2.260750670E1,-7.867945433E-1,2.784157276E0,8.056488991E0
2.262756659E1,-9.639654756E-1,2.925415277E0,8.418013573E0
2.264762649E1,-1.124377012E0,3.025971651E0,8.678980827E0
2.266768638E1,-1.342249274E0,2.980481863E0,9.153033257E0
2.268774628E1,-1.023820519E0,2.877531052E0,9.835380554E0
2.270780618E1,-6.910264492E-1,2.872742653E0,9.955090523E0
2.272786607E1,-8.538321853E-1,2.810493469E0,1.017296314E1
2.274792597E1,-1.062127709E0,2.700360298E0,1.057518864E1
2.276798586E1,-1.373373985E0,2.645293713E0,1.074517727E1
2.278804331E1,-2.079663515E0,2.683600903E0,1.103248119E1
2.280810592E1,-2.575263262E0,2.930203676E0,1.142752457E1
2.282816539E1,-2.762011051E0,3.234267235E0,1.160469532E1
2.284822477E1,-2.939181805E0,3.313275814E0,1.136048698E1
2.286828420E1,-3.078045607E0,3.073855639E0,1.111388397E1
2.288834534E1,-2.697367430E0,2.286163330E0,1.217690945E1
2.290840477E1,-2.024596930E0,1.486500025E0,1.276109505E1
2.292846414E1,-1.332672477E0,1.108216166E0,1.116655636E1
2.294852362E1,-1.081281304E0,1.160888553E0,9.631873131E0
2.296858352E1,-1.064521909E0,1.247079849E0,7.929595947E0
2.298864342E1,-1.098040700E0,1.352424741E0,7.034164429E0
2.300870331E1,-1.481113076E0,1.620575309E0,7.180211067E0
2.302876321E1,-1.873762131E0,1.790563583E0,7.548917770E0
2.304882310E1,-1.409286976E0,1.852812886E0,8.190564156E0
2.306888300E1,-8.059481382E-1,2.025195360E0,8.286332130E0
2.308894289E1,-5.593453646E-1,2.267009735E0,7.690176010E0
2.310900279E1,-4.420294762E-1,2.602197886E0,7.182605267E0
2.312906269E1,-5.928642154E-1,2.894290686E0,7.429207802E0
2.314912258E1,-6.096236110E-1,3.169623852E0,8.058882713E0
2.316918248E1,-7.700351477E-1,3.267786026E0,8.298302650E0
2.318924237E1,-6.622960567E-1,3.401861429E0,8.769960403E0
2.320930227E1,-8.442553878E-1,3.674800396E0,9.002198219E0
2.322936216E1,-1.323095679E0,3.885490179E0,9.021351814E0
2.324942206E1,-1.320701480E0,4.079420567E0,9.136273384E0
2.326948196E1,-9.663596749E-1,4.223072529E0,8.937555313E0
2.328954185E1,-8.011597395E-1,4.191947937E0,8.882488251E0
2.330960175E1,-1.347037673E0,4.067449570E0,9.890447617E0
2.332966164E1,-1.457170963E0,3.844788551E0,1.128626728E1
2.334972154E1,-1.071704507E0,3.449745417E0,1.203804588E1
2.336978144E1,-1.102829099E0,3.169623852E0,1.156159973E1
2.338984133E1,-4.228758812E-1,3.207931042E0,1.180341434E1
2.340990112E1,3.791816831E-1,3.308487415E0,1.101332760E1
2.342996050E1,6.018424630E-1,3.126528263E0,1.014423275E1
2.345001987E1,-2.783259563E-2,2.195183754E0,1.168849277E1
2.347007982E1,-2.768295705E-1,1.203984141E0,1.387918758E1
2.349014034E1,-1.107318327E-2,9.214683771E-1,1.314416695E1
2.351019972E1,8.978256374E-4,1.211166739E0,9.622296333E0
2.353025909E1,3.839701116E-1,1.850418687E0,7.070077419E0
2.355031873E1,5.108627677E-1,2.058714151E0,6.351817131E0
2.357037930E1,3.935469091E-1,2.228702545E0,7.094019413E0
2.359043946E1,-2.337339371E-1,2.192789555E0,8.027758598E0
2.361049883E1,-6.096236110E-1,2.176030159E0,8.875306129E0
2.363055821E1,-9.903016686E-1,2.099415541E0,9.030928612E0
2.365061784E1,-1.306336284E0,2.269403934E0,9.026140213E0
2.367067852E1,-9.543886781E-1,2.472911119E0,8.585607529E0
2.369073831E1,-6.192004085E-1,2.640505314E0,7.905653954E0
2.371079769E1,-4.947019219E-1,2.767397881E0,7.448361397E0
2.373085706E1,-2.304419130E-2,2.906261683E0,7.299921036E0
2.375091696E1,3.202244639E-2,3.116951227E0,7.149086475E0
2.377097685E1,-4.085106552E-1,3.298910618E0,7.647080421E0
2.379103675E1,-4.779425263E-1,3.270180225E0,8.317456245E0
2.381109664E1,-3.462614119E-1,3.133710861E0,9.150638580E0
2.383115654E1,-3.262099996E-2,3.071461439E0,9.821015358E0
2.385121644E1,-1.355716735E-1,2.958934069E0,9.933543205E0
2.387127633E1,-6.982090473E-1,2.585438490E0,9.866505623E0
2.389133623E1,-1.469141960E0,2.551919699E0,9.813833237E0
2.391139612E1,-1.876156330E0,2.396296740E0,1.004607010E1
2.393145602E1,-3.046921015E0,2.398690939E0,1.110670185E1
2.395151592E1,-4.011784077E0,2.784157276E0,1.251688671E1
2.397157581E1,-3.391685963E0,3.028365850E0,1.209790134E1
2.399163571E1,-2.912845612E0,3.006818056E0,1.083615685E1
2.401169555E1,-2.838625431E0,2.487276316E0,1.129105568E1
2.403175492E1,-2.572869062E0,1.699583888E0,1.298854446E1
2.405181430E1,-1.490689874E0,1.251868248E0,1.284968090E1
2.407187373E1,-1.162684202E0,1.244685650E0,1.098699188E1
2.409193362E1,-1.356614590E0,1.539172411E0,8.961497307E0
2.411199352E1,-1.825878024E0,1.790563583E0,7.668628216E0
2.413205342E1,-2.125153303E0,2.092232943E0,7.050923824E0
2.415211331E1,-2.086846113E0,2.259827137E0,6.363788128E0
2.417217321E1,-1.694196939E0,2.448969126E0,6.102819920E0
2.419223310E1,-7.796119452E-1,2.614168882E0,6.299144745E0
2.421229300E1,-3.869628608E-1,2.731484890E0,6.720524311E0
2.423235253E1,-1.092354506E-1,2.743455887E0,7.316680431E0
2.425241185E1,-3.366846144E-1,2.812887669E0,7.615955830E0
2.427247284E1,-1.236006618E-1,2.946963072E0,8.178592682E0
2.429253242E1,-9.965864569E-2,2.956539869E0,8.803479195E0
2.431259180E1,-4.219780490E-2,3.207931042E0,9.169792175E0
2.433265118E1,-2.026093155E-1,3.413832426E0,8.901641846E0
2.435271081E1,8.978256374E-4,3.593397379E0,9.416395187E0
2.437277071E1,-1.810615063E-1,3.744232178E0,9.809044838E0
2.439283060E1,-2.217629254E-1,3.890278578E0,9.818621635E0
2.441289050E1,-6.284779403E-3,4.127304554E0,9.536105156E0
2.443295039E1,-9.965864569E-2,4.079420567E0,9.720458984E0
2.445301029E1,-4.755483270E-1,3.856759548E0,1.119768143E1
2.447307066E1,-4.132990539E-1,3.794510365E0,1.232774448E1
2.449312800E1,-5.330091715E-1,3.375525236E0,1.251449203E1
2.451319024E1,-1.523310840E-1,3.183989048E0,1.283531570E1
2.453324967E1,9.011176825E-1,3.042731047E0,1.283770943E1
2.455330904E1,1.533186913E0,3.179200649E0,1.177229023E1
2.457336842E1,1.202787042E0,2.877531052E0,1.200692177E1
2.459342816E1,-9.965864569E-2,2.278980732E0,1.300051498E1
2.461348805E1,-1.193808794E0,1.797746181E0,1.319923401E1
2.463354795E1,-1.157895803E0,1.900696874E0,1.039083576E1
2.465360784E1,-4.396352768E-1,2.369960308E0,7.718906403E0
2.467366774E1,-3.462614119E-1,2.724302292E0,6.258443356E0
2.469372763E1,-3.534440398E-1,2.786551476E0,6.550535679E0
2.471378753E1,-8.945336342E-1,2.717119694E0,6.885724068E0
2.473384742E1,-1.454776764E0,2.571073294E0,6.825869083E0
2.475390732E1,-1.639130354E0,2.166453362E0,7.852981567E0
2.477396722E1,-1.569698453E0,1.634940505E0,9.610325813E0
2.479402451E1,-1.234510303E0,1.555931807E0,1.029506683E1
2.481408675E1,-9.041104317E-1,1.895908475E0,8.884882927E0
2.483414618E1,-8.298901916E-1,2.401085138E0,7.572859764E0
2.485420555E1,-7.556698918E-1,2.788945675E0,6.734889507E0
2.487426602E1,-6.215946078E-1,3.078644037E0,6.308721542E0
2.489432211E1,-8.825625777E-1,3.349188805E0,6.330269337E0
2.491438555E1,-9.759364724E-1,3.600579977E0,6.663063526E0
2.493444498E1,-8.442553878E-1,3.638887405E0,7.486668587E0
2.495450435E1,-4.994903207E-1,3.693953991E0,8.772355080E0
2.497456482E1,-2.911947966E-1,3.804087162E0,9.133879662E0
2.499462425E1,-4.300584793E-1,3.667617798E0,9.330204010E0
2.501468362E1,-8.945336342E-1,3.605368376E0,1.021605873E1
2.503474300E1,-1.246481299E0,3.480870008E0,1.107078838E1
2.505480263E1,-1.550544858E0,3.449745417E0,1.180580902E1
2.507486357E1,-1.761234641E0,3.780145168E0,1.218169785E1
2.509492300E1,-1.703773737E0,4.136881351E0,1.170285797E1
2.511498237E1,-1.825878024E0,4.232649326E0,1.040998936E1
2.513504175E1,-2.582445860E0,3.804087162E0,1.094389629E1
2.515510138E1,-2.953547001E0,2.930203676E0,1.275391293E1
2.517516128E1,-2.587234259E0,2.247856140E0,1.388636971E1
2.519522118E1,-2.484283447E0,2.468122721E0,1.148977375E1
2.521528107E1,-2.544138670E0,2.817676067E0,8.142680168E0
2.523534097E1,-2.443582058E0,3.088220835E0,5.588066578E0
2.525540086E1,-2.352602482E0,3.073855639E0,4.862623692E0
2.527546039E1,-2.546532869E0,2.934992075E0,5.834669590E0
2.529551784E1,-2.599205256E0,2.769792080E0,6.983886242E0
2.531558039E1,-2.029385328E0,2.729090691E0,7.893682957E0
2.533563977E1,-1.098040700E0,2.925415277E0,8.118738174E0
2.535569914E1,-7.413046956E-1,3.157652855E0,7.958326340E0
2.537575966E1,-6.335656047E-1,3.346794605E0,7.716512203E0
2.539581904E1,-6.551134586E-1,3.507206202E0,8.022970200E0
2.541587842E1,-4.731540978E-1,3.574243784E0,8.595184326E0
2.543593779E1,-4.516063035E-1,3.734655380E0,8.741230011E0
2.545599743E1,-7.580640912E-1,4.194342136E0,8.343792915E0
2.547605836E1,-1.066916108E0,4.539107323E0,7.965508938E0
2.549611774E1,-1.263240695E0,4.668394089E0,8.142680168E0
2.551617711E1,-1.411681175E0,4.768950462E0,8.559270859E0
2.553623649E1,-1.215356588E0,5.025130272E0,8.499416351E0
2.555629607E1,-7.820061445E-1,5.094562054E0,8.061277390E0
2.557635597E1,-1.074098706E0,4.924573421E0,8.839392662E0
2.559641586E1,-9.112930298E-1,4.728249073E0,1.007240677E1
2.561647576E1,-8.155249357E-1,4.687547684E0,1.112824917E1
2.563653566E1,-8.203133345E-1,4.397849083E0,1.107557678E1
2.565659555E1,-1.834557056E-1,4.196736336E0,1.158314800E1
2.567665513E1,9.083002806E-1,3.950133562E0,1.132457447E1
2.569671388E1,1.581070900E0,3.772962570E0,1.019929886E1
2.571677503E1,1.241094351E0,3.136105061E0,1.106360626E1
2.573683441E1,-5.416881293E-2,2.362777710E0,1.306037045E1
2.575689378E1,-9.088988304E-1,1.828870773E0,1.364455509E1
2.577695420E1,-6.694786549E-1,1.838447571E0,1.052491093E1
2.579701357E1,2.211643755E-1,2.238279343E0,7.654263020E0
2.581707295E1,7.885901928E-1,2.623745680E0,5.535394192E0
2.583713232E1,8.723872304E-1,2.855983257E0,4.912901878E0
2.585719185E1,4.869207740E-1,2.645293713E0,6.466738701E0
2.587725274E1,-4.731540978E-1,2.475305319E0,7.953537941E0
2.589731211E1,-9.687538743E-1,2.283769131E0,9.533711433E0
2.591737149E1,-9.711480737E-1,2.286163330E0,1.040520096E1
2.593743086E1,-5.497685671E-1,2.463334322E0,9.466673851E0
2.595749050E1,-3.271078169E-1,2.779368877E0,8.312667847E0
2.597755039E1,-1.595136821E-1,3.148076057E0,7.625532627E0
2.599761029E1,1.828571558E-1,3.401861429E0,7.067683220E0
2.601767019E1,3.983353078E-1,3.672406197E0,7.149086475E0
2.603773008E1,2.642600238E-1,3.784933567E0,7.790732384E0
2.605778998E1,-3.740940243E-2,3.919008970E0,8.772355080E0
2.607784894E1,-4.698620737E-2,3.784933567E0,9.528923035E0
2.609790743E1,-1.068412513E-1,3.600579977E0,9.938331604E0
2.611796935E1,-4.698620737E-2,3.555090189E0,9.923966408E0
2.613802873E1,-3.007715940E-1,3.540724993E0,9.651026726E0
2.615808810E1,-7.580640912E-1,3.409044027E0,9.679757118E0
2.617814748E1,-1.514631867E0,3.133710861E0,1.061589050E1
2.619820701E1,-1.979107022E0,3.198354244E0,1.134133339E1
2.621826690E1,-2.235286474E0,3.526359797E0,1.095347309E1
2.623832680E1,-2.465129852E0,3.993229151E0,1.039083576E1
2.625838670E1,-2.714126825E0,4.309263706E0,1.005804157E1
2.627844659E1,-2.735674620E0,4.211101532E0,9.617507935E0
2.629850649E1,-2.603993654E0,3.497629404E0,9.959878922E0
2.631856638E1,-2.618358850E0,2.269403934E0,1.146583176E1
2.633862607E1,-2.199373484E0,1.280598640E0,1.272278786E1
2.635868545E1,-1.502660871E0,1.043572664E0,1.160230160E1
2.637874482E1,-1.277605891E0,1.342847824E0,8.884882927E0
2.639880420E1,-1.761234641E0,1.697189689E0,6.648698330E0
2.641886388E1,-2.192190886E0,2.252644539E0,6.466738701E0
2.643892378E1,-2.278382301E0,2.444180727E0,6.210559368E0
2.645898368E1,-1.806724429E0,2.640505314E0,6.299144745E0
2.647904357E1,-1.114800215E0,2.834435463E0,7.108384609E0
2.649910347E1,-5.904700160E-1,2.798522472E0,7.781155586E0
2.651916336E1,-1.978209168E-1,2.695571899E0,8.317456245E0
2.653922326E1,-1.107318327E-2,2.650082111E0,8.779537201E0
2.655928284E1,-4.938041046E-2,2.654870510E0,9.469067574E0
2.657934112E1,-4.698620737E-2,2.822464466E0,1.001255131E1
2.659940039E1,-2.480991483E-1,3.126528263E0,9.641449928E0
2.661946206E1,-6.072294116E-1,3.562272787E0,8.992621422E0
2.663952144E1,-9.687538743E-1,3.844788551E0,8.621520042E0
2.665958081E1,-1.009455323E0,3.930979967E0,8.549694061E0
2.667964019E1,-7.867945433E-1,4.045901775E0,8.657433510E0
2.669969987E1,-4.228758812E-1,4.112939358E0,8.468291283E0
2.671975977E1,-5.210381746E-1,4.012382984E0,8.949525833E0
2.673981967E1,-6.359598041E-1,3.816058159E0,9.830592155E0
2.675987956E1,-8.634089828E-1,3.653252602E0,1.087446404E1
2.677993930E1,-1.246481299E0,3.385102034E0,1.151132202E1
2.679999842E1,-8.442553878E-1,2.824858665E0,1.303403378E1
2.682005883E1,-2.002151161E-1,2.573467493E0,1.399410915E1
2.684011899E1,2.834136188E-1,2.841618061E0,1.236126328E1
2.686017836E1,3.552396894E-1,2.963722467E0,1.017056847E1
2.688023373E1,-1.762731075E-1,2.267009735E0,1.083136845E1
2.690029399E1,-8.678981103E-3,1.065120459E0,1.229422569E1
2.692035779E1,1.286883373E-2,6.197989583E-1,1.190875912E1
2.694041717E1,-1.738788933E-1,9.310451746E-1,9.421183586E0
2.696047654E1,1.469441354E-1,1.730708599E0,6.536170483E0
2.698053701E1,2.953846455E-1,2.259827137E0,4.630385876E0
2.700059638E1,3.935469091E-1,2.173635960E0,5.334281445E0
2.702065576E1,-5.114613175E-1,1.929427266E0,7.182605267E0
2.704071513E1,-1.289576888E0,1.508047819E0,9.416395187E0
2.706077477E1,-1.593640566E0,1.158494353E0,1.150413895E1
2.708083560E1,-1.296759486E0,1.024419069E0,1.165736771E1
2.710089498E1,-1.129165411E0,1.412279725E0,9.710882187E0
2.712095435E1,-1.172261000E0,1.970128775E0,7.900865555E0
2.714101373E1,-9.879074693E-1,2.353200912E0,6.957550049E0
2.716107336E1,-8.945336342E-1,2.556708097E0,6.955155849E0
2.718113425E1,-1.045368314E0,2.774580479E0,7.223306656E0
2.720119362E1,-1.387739182E0,3.033154249E0,7.678205013E0
2.722125300E1,-1.256058097E0,3.090615034E0,8.116343498E0
2.724131237E1,-1.186626196E0,3.069067240E0,8.655038834E0
2.726137196E1,-1.153107405E0,2.954145670E0,9.449913979E0
2.728143279E1,-1.227327704E0,2.724302292E0,1.044350815E1
2.730149217E1,-1.598428965E0,2.312499523E0,1.142273617E1
2.732155154E1,-1.938405514E0,1.852812886E0,1.264856720E1
2.734161092E1,-2.472312450E0,2.015618563E0,1.324711800E1
2.736167066E1,-2.762011051E0,2.609380484E0,1.162624359E1
2.738173138E1,-2.520196676E0,3.308487415E0,9.483432770E0
2.740179076E1,-2.508225441E0,3.452139616E0,7.958326340E0
2.742185013E1,-2.568080664E0,1.991676569E0,1.004128170E1
2.744190951E1,-2.706944227E0,2.750339210E-1,1.352005672E1
2.746196930E1,-2.201767683E0,-4.504092038E-1,1.602678680E1
2.748203008E1,-1.739686847E0,-3.142389655E-2,1.328063679E1
2.750208946E1,-1.095646501E0,5.838859677E-1,8.777143478E0
2.752214883E1,-1.098040700E0,1.335665226E0,5.252878666E0
2.754220821E1,-1.222539186E0,1.833659172E0,3.976768970E0
2.756226789E1,-1.763628840E0,1.840841889E0,6.203376770E0
2.758232873E1,-2.477100849E0,1.558326006E0,8.257601738E0
2.760238810E1,-2.563292265E0,1.385943532E0,9.641449928E0
2.762244748E1,-1.866579533E0,1.551143408E0,1.009156036E1
2.764250685E1,-1.174655199E0,1.831264973E0,9.411606789E0
2.766256654E1,-6.982090473E-1,2.044348955E0,8.439560890E0
2.768262732E1,-5.042787194E-1,2.192789555E0,7.821856976E0
2.770268670E1,-4.707598984E-1,2.425027132E0,7.869740963E0
2.772274607E1,-6.024410129E-1,2.817676067E0,8.243236542E0
2.774280545E1,-8.634089828E-1,3.265391827E0,8.185775757E0
2.776286519E1,-1.198597193E0,3.722684383E0,7.991845131E0
2.778292597E1,-1.461959362E0,4.012382984E0,7.738059998E0
2.780298534E1,-1.660678148E0,4.158429146E0,7.726089001E0
2.782304472E1,-1.562515855E0,4.189553738E0,7.833827972E0
2.784310409E1,-1.121982813E0,4.146458149E0,7.814674377E0
2.786316378E1,-4.707598984E-1,4.084208965E0,7.625532627E0
2.788322368E1,8.080430329E-3,3.966892958E0,7.795520782E0
2.790328357E1,2.451063991E-1,3.670011997E0,8.860940933E0
2.792334347E1,1.708861440E-1,3.356371403E0,1.038604736E1
2.794340336E1,-1.307832748E-1,3.035548449E0,1.184172153E1
2.796346326E1,3.480570614E-1,2.872742653E0,1.279940224E1
2.798352138E1,5.395932198E-1,3.200748444E0,1.233253288E1
2.800358138E1,2.091933787E-1,4.249408722E0,1.117134476E1
2.802364263E1,4.127005041E-1,5.599738598E0,9.354146004E0
2.804370201E1,3.815758824E-1,5.831975937E0,7.103596210E0
2.806376138E1,-1.220144987E0,3.713107586E0,1.016578007E1
2.808382180E1,-3.305494785E0,1.314117432E0,1.645774269E1
2.810388118E1,-2.321477890E0,6.628946066E-1,1.844492912E1
2.812394055E1,-6.551134586E-1,6.916249990E-1,1.241872406E1
2.814399993E1,8.747814298E-1,1.275810242E0,7.520187378E0
2.816404795E1,8.675988317E-1,1.366789937E0,6.062118530E0
2.818410185E1,-1.427542716E-1,1.067514658E0,8.530540466E0
2.820418013E1,-1.854608536E0,9.669582248E-1,9.720458984E0
2.822423951E1,-2.596811056E0,9.238625765E-1,9.414001465E0
2.824429888E1,-2.218527079E0,9.549872279E-1,8.690952301E0
2.826435826E1,-1.742081046E0,1.215955138E0,7.850587368E0
2.828441800E1,-1.857002735E0,1.436221719E0,6.639121532E0
2.830447789E1,-2.163460493E0,1.658882499E0,6.294356346E0
2.832453779E1,-2.505831242E0,1.678036094E0,6.370970726E0
2.834459769E1,-2.362179279E0,1.591844797E0,6.406883717E0
2.836465706E1,-2.378938675E0,1.575085402E0,6.938396454E0
2.838471670E1,-2.194585085E0,1.694795489E0,7.903259754E0
2.840477711E1,-2.089240313E0,2.032377958E0,8.535328865E0
2.842483706E1,-2.204161882E0,2.257432938E0,9.509769440E0
2.844489644E1,-2.845808029E0,2.434603930E0,1.086249352E1
2.846495581E1,-2.979883194E0,2.496853113E0,1.193030739E1
2.848501519E1,-2.599205256E0,2.465728521E0,1.185129833E1
2.850507482E1,-1.957559109E0,3.002029657E0,1.135809326E1
2.852513472E1,-3.348590374E0,2.841618061E0,1.252167511E1
2.854519461E1,-3.540126562E0,1.572691202E0,1.598129654E1
2.856525451E1,-3.932775497E0,-8.170213550E-2,1.850478554E1
2.858531441E1,-3.157054186E0,-3.857657611E-1,1.711135864E1
2.860537430E1,-1.866579533E0,-3.381809965E-2,1.213620853E1
2.862543420E1,-1.088463902E0,7.897872925E-1,7.151480675E0
2.864549373E1,-1.466747761E0,1.517624617E0,4.041412354E0
2.866555310E1,-2.606387854E0,2.029983759E0,4.821922302E0
2.868561248E1,-2.781164646E0,2.037166357E0,6.924031258E0
2.870567185E1,-2.065298319E0,1.673247695E0,8.145073891E0
2.872573170E1,-7.365162969E-1,1.759438992E0,7.632715225E0
2.874579159E1,1.277905107E-1,2.010830164E0,6.653486729E0
2.876585149E1,6.449381113E-1,2.286163330E0,6.306327343E0
2.878591138E1,5.108627677E-1,2.276586533E0,6.856993675E0
2.880597128E1,2.163759768E-1,2.128145933E0,8.092401505E0
2.882603118E1,-1.379658729E-1,2.022801161E0,9.339780807E0
2.884609097E1,-4.324526787E-1,2.209548950E0,9.710882187E0
2.886615034E1,-3.175309896E-1,2.547131300E0,9.409213066E0
2.888620972E1,7.032967359E-2,2.966116667E0,9.148244858E0
2.890626909E1,2.738368213E-1,3.490446806E0,8.798690796E0
2.892632862E1,-1.092354506E-1,3.813663960E0,8.647856712E0
2.894638852E1,-8.227075338E-1,3.907037973E0,9.763554573E0
2.896644909E1,-1.205779791E0,3.801692963E0,1.107318306E1
2.898650847E1,-1.296759486E0,3.409044027E0,1.155202293E1
2.900656784E1,-6.575076580E-1,3.169623852E0,1.186805820E1
2.902662722E1,2.858078182E-1,3.164835453E0,1.197819138E1
2.904668690E1,6.401496530E-1,3.047519445E0,1.107797146E1
2.906674763E1,8.149263859E-1,2.269403934E0,1.135809326E1
2.908680701E1,1.013645172E0,1.182436347E0,1.297417927E1
2.910686638E1,7.909843922E-1,5.647323132E-1,1.336443424E1
2.912692576E1,1.972223669E-1,7.155670524E-1,1.046745014E1
2.914698539E1,5.635352135E-1,1.101033449E0,8.274360657E0
2.916704607E1,5.802946091E-1,1.144129157E0,7.668628216E0
2.918710545E1,1.780687571E-1,9.501988292E-1,8.592789650E0
2.920716482E1,-3.630208373E-1,6.868366003E-1,9.423578262E0
2.922722420E1,-9.807248712E-1,5.790975094E-1,9.871294022E0
2.924728394E1,-1.459565163E0,5.743091106E-1,9.607931137E0
2.926734175E1,-1.749263644E0,7.658452392E-1,8.678980827E0
2.928740368E1,-2.024596930E0,1.072303057E0,7.826645374E0
2.930746394E1,-1.608005762E0,1.539172411E0,7.309497833E0
2.932752331E1,-1.641524553E0,1.895908475E0,6.713341713E0
2.934758269E1,-1.569698453E0,2.247856140E0,6.481103897E0
2.936764305E1,-1.634341955E0,2.662053108E0,6.191405773E0
2.938770242E1,-1.481113076E0,2.812887669E0,6.399701118E0
2.940776180E1,-1.169866800E0,2.638111115E0,7.819462776E0
2.942782118E1,-7.436988950E-1,2.441786528E0,9.911994934E0
2.944788092E1,-1.858499050E-1,2.302922726E0,1.097262669E1
2.946794159E1,-3.821744323E-1,2.195183754E0,1.109712505E1
2.948800097E1,-7.987655401E-1,2.087444544E0,1.164779091E1
2.950806034E1,-1.042974114E0,2.075473547E0,1.220085144E1
2.952811972E1,-1.385344982E0,2.044348955E0,1.236605167E1
2.954817935E1,-1.945588112E0,2.226308346E0,1.259350109E1
2.956824008E1,-2.297535896E0,2.544737101E0,1.254561710E1
2.958829946E1,-2.740463018E0,2.360383511E0,1.233971596E1
2.960835883E1,-2.651877642E0,1.457769513E0,1.311064816E1
2.962841821E1,-2.311901093E0,3.133411407E-1,1.472434044E1
2.964847784E1,-1.608005762E0,-5.087678786E-3,1.401565647E1
2.966853774E1,-1.421257973E0,3.420715630E-1,1.024478912E1
2.968859763E1,-1.397315979E0,8.879495263E-1,6.777985096E0
2.970865753E1,-1.852214336E0,1.496076822E0,4.654327869E0
2.972871743E1,-2.462735653E0,1.663670897E0,4.726154327E0
2.974877732E1,-2.651877642E0,1.682824492E0,5.504269600E0
2.976883492E1,-2.359785080E0,1.536778212E0,5.973533154E0
2.978889597E1,-1.366191387E0,1.520018816E0,7.110779285E0
2.980895638E1,-5.808931589E-1,1.565508604E0,7.850587368E0
2.982901576E1,-1.236006618E-1,1.555931807E0,8.561665535E0
2.984907513E1,-3.271078169E-1,1.654094100E0,8.647856712E0
2.986913545E1,-2.217629254E-1,1.747467995E0,8.995016098E0
2.988919482E1,-2.361281365E-1,1.929427266E0,9.282320023E0
2.990925420E1,-8.658031821E-1,2.427421331E0,9.694122314E0
2.992931357E1,-1.251269698E0,3.076249838E0,9.303867340E0
2.994937342E1,-1.473930478E0,3.519177198E0,9.081207275E0
2.996943404E1,-1.648707151E0,3.772962570E0,8.971074104E0
2.998949342E1,-1.804330230E0,3.866336584E0,9.191340446E0
3.000955279E1,-1.572092652E0,3.942950964E0,9.536105156E0
3.002961217E1,-1.011849523E0,3.842394352E0,9.035717010E0
3.004967185E1,-5.737105608E-1,3.574243784E0,9.612719536E0
3.006973253E1,-4.731540978E-1,3.313275814E0,1.067095661E1
3.008979191E1,-3.079541922E-1,2.994847059E0,1.094150162E1
3.010985128E1,-3.031657934E-1,2.642899513E0,1.139400578E1
3.012991066E1,7.511807978E-2,2.456151724E0,1.223676491E1
3.014997039E1,3.360860646E-1,2.606986284E0,1.201649857E1
3.017003102E1,-1.834557056E-1,2.018012762E0,1.231098557E1
3.019009039E1,1.900397539E-1,6.078279614E-1,1.487756920E1
3.021014977E1,3.767874837E-1,-3.809773326E-1,1.645055962E1
3.023020914E1,-1.882441044E-1,-7.212532312E-2,1.271560478E1
3.025026888E1,1.765723713E-2,7.203554511E-1,8.358158112E0
3.027032951E1,2.020107657E-1,1.376366735E0,5.240907669E0
3.029038888E1,5.994482636E-1,1.539172411E0,5.389348030E0
3.031044826E1,6.114192605E-1,1.333271027E0,7.084442616E0
3.033050763E1,2.235585898E-1,1.065120459E0,8.633491516E0
3.035056742E1,-3.390788138E-1,8.161234856E-1,8.999804497E0
3.037062732E1,-6.718728542E-1,8.352771401E-1,9.157821655E0
3.039068722E1,-7.365162969E-1,9.669582248E-1,8.942343712E0
3.041074711E1,-5.186439157E-1,1.237503052E0,8.171410561E0
3.043080701E1,-5.593453646E-1,1.496076822E0,7.747636795E0
3.045086769E1,-3.630208373E-1,1.709160686E0,7.788338184E0
3.047092357E1,-4.459200799E-2,1.883937478E0,7.864952564E0
3.049098649E1,-1.427542716E-1,2.156876564E0,7.402871609E0
3.051104586E1,-2.696469724E-1,2.453757524E0,7.005434036E0
3.053110524E1,-4.611831009E-1,2.535160303E0,7.905653954E0
3.055116461E1,-3.941454589E-1,2.415450335E0,9.255983353E0
3.057122513E1,4.638765752E-2,2.331653118E0,1.036449909E1
3.059128451E1,-1.475426853E-1,2.369960308E0,1.052969933E1
3.061134388E1,-8.227075338E-1,2.278980732E0,1.083855152E1
3.063140326E1,-1.423652172E0,2.377142906E0,1.142034245E1
3.065146310E1,-2.038962126E0,2.516006708E0,1.154484081E1
3.067152300E1,-2.438793659E0,2.666841507E0,1.115219116E1
3.069158289E1,-2.510619640E0,2.851194859E0,1.137724686E1
3.071164279E1,-2.101211309E0,2.604592085E0,1.165736771E1
3.073170269E1,-1.847425938E0,2.097021341E0,1.181538582E1
3.075176342E1,-1.993472219E0,1.232714653E0,1.251688671E1
3.077181920E1,-1.804330230E0,3.612251878E-1,1.376426601E1
3.079188216E1,-9.950900674E-1,1.361702234E-1,1.356794071E1
3.081194154E1,-1.270423293E0,6.030395627E-1,1.043393135E1
3.083200092E1,-1.493084073E0,1.199195743E0,7.371747017E0
3.085206123E1,-2.091634512E0,1.658882499E0,5.295974255E0
3.087212081E1,-2.503437042E0,1.840841889E0,5.264849663E0
3.089218019E1,-2.694973230E0,1.797746181E0,6.564900875E0
3.091223956E1,-2.426822662E0,1.670853496E0,7.505822182E0
3.093229899E1,-1.354220390E0,1.780986786E0,8.212111473E0
3.095235946E1,-7.077859044E-1,1.792957783E0,8.566453934E0
3.097241941E1,-3.414730132E-1,1.850418687E0,8.647856712E0
3.099247878E1,-2.528875470E-1,1.943792462E0,8.628703117E0
3.101253816E1,-1.978209168E-1,2.120963335E0,8.825027466E0
3.103259758E1,-1.858499050E-1,2.307711124E0,9.119514465E0
3.105265795E1,-4.276642799E-1,2.640505314E0,9.074024200E0
3.107271805E1,-8.753799796E-1,3.157652855E0,8.671798706E0
3.109277742E1,-1.222539186E0,3.583820581E0,8.420407295E0
3.111283680E1,-1.136348009E0,3.693953991E0,8.688557625E0
3.113289618E1,-1.141136408E0,3.710713387E0,9.203310966E0
3.115295805E1,-9.304466248E-1,3.749020576E0,9.885659218E0
3.117301258E1,-6.072294116E-1,3.686771393E0,9.859322548E0
3.119307664E1,-4.180874825E-1,3.440168619E0,9.866505623E0
3.121313602E1,-3.749918342E-1,3.248632431E0,1.120007515E1
3.123319539E1,-4.540005028E-1,2.949357271E0,1.149695683E1
3.125325581E1,-6.886322498E-1,2.693177700E0,1.163821411E1
3.127331524E1,-3.127425909E-1,2.616563082E0,1.267250919E1
3.129337461E1,4.159925506E-2,2.997241259E0,1.278743172E1
3.131343399E1,3.265092671E-1,3.100191832E0,1.118092155E1
3.133349352E1,2.379238009E-1,2.403479338E0,1.113543224E1
3.135355446E1,1.828571558E-1,1.239897251E0,1.248336792E1
3.137361394E1,4.941033721E-1,4.498106539E-1,1.278982544E1
3.139367331E1,4.366425276E-1,6.078279614E-1,1.009874249E1
3.141373269E1,7.885901928E-1,1.223137736E0,7.388506413E0
3.143379217E1,8.173205853E-1,1.608604312E0,6.169857979E0
3.145385316E1,8.125321865E-1,1.663670897E0,7.070077419E0
3.147391253E1,2.115875781E-1,1.560720205E0,8.125920296E0
3.149397191E1,-5.354033709E-1,1.682824492E0,8.659827232E0
3.151403128E1,-1.095646501E0,1.797746181E0,8.803479195E0
3.153409092E1,-1.284788489E0,1.991676569E0,8.930372238E0
3.155415185E1,-1.244087100E0,2.159270763E0,8.734047890E0
3.157421123E1,-1.011849523E0,2.362777710E0,8.350975990E0
3.159427060E1,-6.455366611E-1,2.453757524E0,7.841010571E0
3.161432998E1,-1.666962951E-1,2.496853113E0,7.661445618E0
3.163438961E1,-1.834557056E-1,2.671629906E0,7.565677166E0
3.165445055E1,-2.768295705E-1,2.913444281E0,7.738059998E0
3.167450998E1,-2.768295705E-1,3.114557028E0,7.972691536E0
3.169456935E1,-2.265513390E-1,3.203142643E0,8.341399193E0
3.171462873E1,-8.050503582E-2,3.255815029E0,8.892065048E0
3.173468836E1,-8.289923519E-2,3.277362823E0,9.318233490E0
3.175474909E1,-4.947019219E-1,3.090615034E0,9.725247383E0
3.177480878E1,-1.344643474E0,3.045125246E0,1.046745014E1
3.179486816E1,-2.477100849E0,3.157652855E0,1.146583176E1
3.181492753E1,-2.852990627E0,3.174412251E0,1.187284660E1
3.183498706E1,-2.467524052E0,3.037942648E0,1.141315937E1
3.185504696E1,-1.868973732E0,3.071461439E0,1.113303757E1
3.187510685E1,-1.761234641E0,3.016394854E0,1.066137981E1
3.189516675E1,-1.902492523E0,2.848800659E0,9.943120003E0
3.191522664E1,-1.648707151E0,2.075473547E0,1.019929886E1
3.193528654E1,-1.351826191E0,1.304540634E0,1.186566353E1
3.195534675E1,-1.634341955E0,1.330876827E0,1.259350109E1
3.197540071E1,-1.945588112E0,1.764227390E0,9.959878922E0
3.199546628E1,-2.055721521E0,1.986888170E0,7.711723804E0
3.201552566E1,-1.845031738E0,1.749862194E0,7.647080421E0
3.203558503E1,-1.928828716E0,1.591844797E0,8.319850922E0
3.205564440E1,-1.890521526E0,1.730708599E0,8.032546997E0
3.207570409E1,-1.359008789E0,1.998859167E0,7.829039574E0
3.209576399E1,-8.442553878E-1,2.214337349E0,8.173804283E0
3.211582388E1,-2.552817464E-1,2.334047318E0,8.183381081E0
3.213588378E1,5.357026309E-2,2.415450335E0,8.034940720E0
3.215594368E1,1.756745428E-1,2.539948702E0,8.080430984E0
3.217600357E1,1.277905107E-1,2.633322477E0,8.449137688E0
3.219606347E1,-4.459200799E-2,2.925415277E0,8.655038834E0
3.221612336E1,-3.055599928E-1,3.320458412E0,8.248024940E0
3.223618326E1,-6.479308605E-1,3.705924988E0,8.078036308E0
3.225624248E1,-9.304466248E-1,3.942950964E0,8.497021675E0
3.227630045E1,-8.490437865E-1,3.986046553E0,8.896853447E0
3.229636253E1,-8.011597395E-1,4.043507576E0,9.346963882E0
3.231642190E1,-2.792237699E-1,4.218284130E0,9.131484985E0
3.233648128E1,-2.409165502E-1,4.254197121E0,8.848969460E0
3.235654066E1,-5.186439157E-1,4.108150959E0,9.801861763E0
3.237660034E1,-6.120178103E-1,3.835211754E0,1.089361763E1
3.239666024E1,-6.311714053E-1,3.485658407E0,1.193509579E1
3.241672013E1,-3.342904150E-1,3.234267235E0,1.225591850E1
3.243678003E1,-2.289455384E-1,3.313275814E0,1.220085144E1
3.245684034E1,8.708908409E-2,3.480870008E0,1.147062016E1
3.247689883E1,5.036801696E-1,3.461716413E0,1.009874249E1
3.249695920E1,9.442132711E-1,2.750638485E0,9.923966408E0
3.251701961E1,7.502829432E-1,1.622969508E0,1.166215611E1
3.253707930E1,7.454945445E-1,5.958569646E-1,1.284010410E1
3.255713904E1,5.611410141E-1,6.126163602E-1,1.107078838E1
3.257719763E1,4.534019530E-1,1.201589942E0,8.231265068E0
3.259725805E1,8.436568379E-1,1.733102798E0,5.916072369E0
3.261731847E1,1.049558163E0,1.876754880E0,5.626373768E0
3.263737784E1,9.226654768E-1,1.685218692E0,6.916848660E0
3.265743722E1,8.469488472E-2,1.608604312E0,8.513781548E0
3.267749659E1,-5.593453646E-1,1.745073795E0,9.095572472E0
3.269755623E1,-1.042974114E0,1.994070768E0,9.361329079E0
3.271761612E1,-1.191414595E0,2.123357534E0,9.868899345E0
3.273767602E1,-7.604582906E-1,2.223914146E0,9.746794701E0
3.275773592E1,-3.980360180E-2,2.396296740E0,8.719682693E0
3.277779581E1,-4.219780490E-2,2.626139879E0,7.699752808E0
3.279785571E1,-1.586158574E-2,2.918232679E0,7.481880188E0
3.281791560E1,-2.313397378E-1,3.095403433E0,7.716512203E0
3.283797550E1,-2.576759458E-1,3.215113640E0,8.432378769E0
3.285803378E1,-2.289455384E-1,3.248632431E0,8.927978516E0
3.287809222E1,-3.022679687E-2,3.195960045E0,9.356540680E0
3.289815472E1,8.230068535E-2,3.243844032E0,9.615114212E0
3.291821409E1,1.765723713E-2,3.200748444E0,9.634267807E0
3.293827347E1,-5.832874179E-1,3.104980230E0,9.947908401E0
3.295833404E1,-1.277605891E0,2.932597876E0,1.081700325E1
3.297839342E1,-1.710956335E0,2.906261683E0,1.154484081E1
3.299845279E1,-1.768417239E0,3.018789053E0,1.150653362E1
3.301851217E1,-1.868973732E0,3.212719440E0,1.121683502E1
3.303857175E1,-1.976712823E0,3.274968624E0,1.130302620E1
3.305863263E1,-1.622370958E0,3.006818056E0,1.120007515E1
3.307869201E1,-1.033397317E0,2.417844534E0,1.075954247E1
3.309875138E1,-9.615712762E-1,1.625363708E0,1.043393135E1
3.311881076E1,-1.509843469E0,8.448539376E-1,1.049378586E1
3.313887045E1,-1.244087100E0,5.192424655E-1,1.122641182E1
3.315893133E1,-7.365162969E-1,7.107786536E-1,1.009395409E1
3.317899071E1,-1.009455323E0,1.163282752E0,8.209717751E0
3.319905008E1,-1.679831743E0,1.527201414E0,6.677428722E0
3.321910946E1,-2.185008287E0,1.783380985E0,6.900089264E0
3.323916909E1,-2.405274868E0,1.943792462E0,7.369352818E0
3.325922899E1,-2.077269316E0,2.164059162E0,7.771578789E0
3.327928888E1,-9.088988304E-1,2.235885143E0,8.595184326E0
3.329934878E1,-3.151367903E-1,2.211943150E0,8.822632790E0
3.331940868E1,-1.212064624E-1,2.171241760E0,8.851364136E0
3.333946857E1,-1.044470519E-1,2.068290949E0,9.210494041E0
3.335952847E1,4.638765752E-2,1.970128775E0,9.557653427E0
3.337958836E1,-1.825578883E-2,2.202366352E0,9.761159897E0
3.339964779E1,-3.271078169E-1,2.611774683E0,9.191340446E0
3.341970717E1,-7.508814931E-1,3.009212255E0,8.554482460E0
3.343976654E1,-9.472060204E-1,3.234267235E0,8.643068314E0
3.345982727E1,-1.174655199E0,3.365948200E0,8.865729332E0
3.347988664E1,-1.337460876E0,3.344400406E0,9.583989143E0
3.349994602E1,-1.320701480E0,3.411438227E0,9.969455719E0
3.352000539E1,-1.007061124E0,3.471293211E0,9.143456459E0
3.354006498E1,-8.658031821E-1,3.411438227E0,9.085995674E0
3.356012586E1,-9.065046310E-1,3.160047054E0,1.023042393E1
3.358018524E1,-6.072294116E-1,2.877531052E0,1.114022064E1
3.360024461E1,-8.538321853E-1,2.788945675E0,1.095107841E1
3.362030399E1,-1.145924807E0,2.812887669E0,1.104924107E1
3.364036368E1,-7.844003439E-1,2.980481863E0,1.152329254E1
3.366042456E1,2.962824516E-2,3.401861429E0,1.124077702E1
3.368048394E1,4.007295072E-1,3.320458412E0,1.082418633E1
3.370054331E1,4.749497473E-1,2.489670515E0,1.215536213E1
3.372060269E1,5.611410141E-1,1.297358036E0,1.294544888E1
3.374066237E1,4.605845511E-1,5.695207119E-1,1.239957047E1
3.376072326E1,6.928220987E-1,4.905120730E-1,9.823410034E0
3.378078263E1,1.111807466E0,8.735843301E-1,7.180211067E0
3.380084201E1,1.004068375E0,1.213560939E0,5.880159378E0
3.382090138E1,3.911527097E-1,1.285387039E0,6.909666061E0
3.384096112E1,-4.324526787E-1,1.290175438E0,8.207323074E0
3.386102102E1,-1.215356588E0,1.273416042E0,9.210494041E0
3.388108092E1,-1.536179662E0,1.306934834E0,1.011071396E1
3.390114081E1,-1.521814466E0,1.424250722E0,1.033816338E1
3.392120071E1,-1.313518882E0,1.809717178E0,9.459490776E0
3.394126060E1,-1.155501604E0,2.250250340E0,8.068459511E0
3.396131982E1,-9.543886781E-1,2.554313898E0,7.261613846E0
3.398137941E1,-6.359598041E-1,2.654870510E0,7.230489254E0
3.400144034E1,-7.556698918E-1,2.803310871E0,7.788338184E0
3.402149972E1,-9.807248712E-1,2.923021078E0,8.420407295E0
3.404155909E1,-1.007061124E0,2.980481863E0,8.796297073E0
3.406161951E1,-1.021426320E0,3.045125246E0,9.028534889E0
3.408167888E1,-9.783306718E-1,3.148076057E0,9.114726067E0
3.410173826E1,-8.897452354E-1,3.272574425E0,9.114726067E0
3.412179769E1,-1.404498577E0,3.176806450E0,9.265560150E0
3.414185758E1,-1.924040318E0,3.126528263E0,9.907206535E0
3.416191836E1,-2.196979284E0,3.095403433E0,1.061589050E1
3.418197774E1,-2.570474863E0,3.160047054E0,1.072362900E1
3.420203711E1,-2.639906645E0,3.310881615E0,1.053448772E1
3.422209659E1,-2.884115219E0,3.382707834E0,1.053688145E1
3.424215649E1,-3.219303370E0,3.358765602E0,1.045308495E1
3.426221732E1,-3.808277130E0,2.779368877E0,1.079784966E1
3.428227670E1,-3.571251154E0,1.563114405E0,1.255040550E1
3.430233607E1,-2.539350271E0,6.772598028E-1,1.463575459E1
3.432239550E1,-1.445199966E0,5.360019207E-1,1.250970364E1
3.434245539E1,-1.162684202E0,1.031601667E0,8.676587105E0
3.436251628E1,-1.198597193E0,1.563114405E0,5.731719017E0
3.438257566E1,-1.624765158E0,1.701978087E0,4.644751072E0
3.440263503E1,-1.959953308E0,1.673247695E0,5.358223438E0
3.442269451E1,-2.501042843E0,1.749862194E0,6.294356346E0
3.444275440E1,-2.438793659E0,1.737891197E0,6.727706909E0
3.446281519E1,-1.732504249E0,1.709160686E0,7.955932140E0
3.448287456E1,-7.939771414E-1,1.642123103E0,8.930372238E0
3.450293394E1,-2.648585737E-1,1.723526001E0,9.378087997E0
3.452299352E1,-2.911947966E-1,1.910273671E0,9.787496567E0
3.454305342E1,-2.648585737E-1,2.338835716E0,1.029746151E1
3.456311440E1,-6.670844555E-1,2.944568872E0,9.586383820E0
3.458317378E1,-9.376292229E-1,3.550301790E0,8.523358345E0
3.460323316E1,-1.229721904E0,3.902249575E0,7.975085735E0
3.462329258E1,-1.289576888E0,3.964498758E0,7.893682957E0
3.464335248E1,-1.210568190E0,3.808875561E0,8.068459511E0
3.466340966E1,-8.370727897E-1,3.581426382E0,8.784325600E0
3.468347107E1,-1.834557056E-1,3.421015024E0,9.433155060E0
3.470353305E1,3.289034665E-1,3.394678831E0,9.366117477E0
3.472359242E1,-1.236006618E-1,3.179200649E0,1.006282997E1
3.474365180E1,-5.282207727E-1,3.071461439E0,1.117373943E1
3.476371253E1,-8.251017332E-1,2.918232679E0,1.185369301E1
3.478377190E1,-1.031003118E0,2.702754498E0,1.271560478E1
3.480383128E1,-8.346785903E-1,2.592621088E0,1.445379543E1
3.482389086E1,-8.418611884E-1,2.702754498E0,1.477940750E1
3.484395076E1,-6.862380505E-1,2.525583506E0,1.296460247E1
3.486401066E1,-4.204816818E-1,1.838447571E0,1.204044056E1
3.488407055E1,-3.342904150E-1,1.000477076E0,1.206198788E1
3.490413045E1,7.272387296E-2,4.474164546E-1,1.075954247E1
3.492419034E1,4.749497473E-1,5.000888705E-1,8.075642586E0
3.494425024E1,6.616975069E-1,9.956886172E-1,5.777208805E0
3.496431013E1,5.659294128E-1,1.429039121E0,5.147533417E0
3.498437003E1,4.055179060E-1,1.445798516E0,5.875370979E0
3.500442993E1,-1.499368846E-1,1.409885526E0,7.460332394E0
3.502448982E1,-2.624643743E-1,1.431433320E0,8.339004517E0
3.504454972E1,-4.085106552E-1,1.407491326E0,8.978256226E0
3.506461024E1,-6.335656047E-1,1.493682623E0,9.572018623E0
3.508466961E1,-4.540005028E-1,1.589450598E0,9.612719536E0
3.510472899E1,-4.707598984E-1,1.766621590E0,8.920795441E0
3.512478852E1,-3.175309896E-1,1.984493971E0,8.288725853E0
3.514484842E1,-5.856816173E-1,2.097021341E0,8.183381081E0
3.516490831E1,-7.125743032E-1,2.250250340E0,8.343792915E0
3.518496821E1,-5.593453646E-1,2.403479338E0,8.051700592E0
3.520502810E1,-6.359598041E-1,2.566284895E0,8.145073891E0
3.522508800E1,-7.820061445E-1,2.645293713E0,8.611943245E0
3.524514789E1,-5.832874179E-1,2.674024105E0,8.789113998E0
3.526520878E1,-3.989338577E-1,2.784157276E0,8.798690796E0
3.528526847E1,-5.090671182E-1,2.642899513E0,8.975862503E0
3.530532784E1,-7.628524899E-1,2.405873537E0,9.864110947E0
3.532538722E1,-8.993220329E-1,2.221519947E0,1.089122391E1
3.534544701E1,-1.220144987E0,2.197577953E0,1.107797146E1
3.536550691E1,-1.794753432E0,2.077867746E0,1.163342571E1
3.538556680E1,-1.476324677E0,1.773804188E0,1.305079365E1
3.540562670E1,-9.639654756E-1,1.268627644E0,1.345301914E1
3.542568659E1,-1.007061124E0,7.083844543E-1,1.226549530E1
3.544574649E1,-1.370979786E0,9.546878934E-2,1.219127464E1
3.546580748E1,-1.679831743E0,-3.929483593E-1,1.292629528E1
3.548586701E1,-1.593640566E0,-3.570353389E-1,1.366370869E1
3.550592638E1,-2.165854692E0,-3.142389655E-2,1.096783829E1
3.552598586E1,-2.690184832E0,3.564367890E-1,7.872135162E0
3.554604576E1,-2.996642590E0,8.352771401E-1,6.296750546E0
3.556610685E1,-3.274370193E0,1.244685650E0,6.098031521E0
3.558616675E1,-3.382109165E0,1.457769513E0,6.426037312E0
3.560622618E1,-2.690184832E0,1.642123103E0,6.502651691E0
3.562628555E1,-1.603217363E0,1.795351982E0,6.385335922E0
3.564634513E1,-1.105223417E0,1.903091073E0,6.739677906E0
3.566640607E1,-9.807248712E-1,1.749862194E0,7.417236805E0
3.568646545E1,-5.737105608E-1,1.419462323E0,8.547300339E0
3.570652482E1,-1.140238568E-1,1.192013144E0,9.806650162E0
3.572658467E1,-2.289455384E-1,1.419462323E0,1.038604736E1
3.574664456E1,-6.335656047E-1,1.982099771E0,9.746794701E0
3.576670555E1,-8.298901916E-1,2.513612509E0,9.095572472E0
3.578676492E1,-8.705915809E-1,2.705148697E0,9.174580574E0
3.580682430E1,-5.689221621E-1,2.851194859E0,9.437943459E0
3.582688409E1,-1.236006618E-1,2.997241259E0,9.184157372E0
3.584694399E1,1.301847100E-1,2.911050081E0,9.318233490E0
3.586700388E1,-9.487023950E-2,2.585438490E0,1.029746151E1
3.588706378E1,6.554127485E-2,2.401085138E0,1.162624359E1
3.590712368E1,-4.444237053E-1,2.209548950E0,1.187524033E1
3.592718357E1,-6.407482028E-1,1.900696874E0,1.261744308E1
3.594724347E1,-1.586158574E-2,1.912667871E0,1.412818432E1
3.596730461E1,2.139817774E-1,2.029983759E0,1.326866627E1
3.598736451E1,4.342483282E-1,1.168071151E0,1.330936718E1
3.600742440E1,8.221089840E-1,-9.127894044E-2,1.466927338E1
3.602748430E1,8.795698285E-1,-7.041945457E-1,1.416409683E1
3.604754420E1,3.121440411E-1,-4.144961834E-1,1.043632507E1
3.606760258E1,2.666542232E-1,3.660135865E-1,6.912060261E0
3.608766352E1,2.714426219E-1,9.286509752E-1,5.018246651E0
3.610772388E1,5.596446618E-2,9.956886172E-1,5.858611584E0
3.612778378E1,-8.753799796E-1,1.036390066E0,7.331045628E0
3.614784368E1,-1.421257973E0,1.113004565E0,7.929595947E0
3.616789925E1,-1.639130354E0,1.079485655E0,8.324639320E0
3.618796352E1,-1.787570834E0,1.113004565E0,8.702922821E0
3.620802342E1,-1.600823164E0,1.182436347E0,8.825027466E0
3.622808331E1,-1.229721904E0,1.297358036E0,8.595184326E0
3.624814321E1,-8.681973815E-1,1.464952111E0,8.456320763E0
3.626820316E1,-5.617395639E-1,1.567902803E0,8.312667847E0
3.628826305E1,-3.271078169E-1,1.795351982E0,7.996633530E0
3.630832295E1,-4.563947022E-1,2.025195360E0,7.920019150E0
3.632838284E1,-6.742670536E-1,2.185606956E0,8.157045364E0
3.634844274E1,-5.665279627E-1,2.257432938E0,8.978256226E0
3.636850029E1,-6.374561787E-2,2.183212757E0,9.727641106E0
3.638856180E1,3.202244639E-2,2.101809740E0,1.035492229E1
3.640862253E1,-5.976526141E-1,1.816899776E0,1.072841740E1
3.642868243E1,-1.014243722E0,1.737891197E0,1.137245846E1
3.644874232E1,-1.342249274E0,1.994070768E0,1.133654499E1
3.646879956E1,-1.540968060E0,2.257432938E0,1.095347309E1
3.648886185E1,-1.840243340E0,2.623745680E0,1.107557678E1
3.650892211E1,-2.441187859E0,2.796128273E0,1.140837097E1
3.652898201E1,-2.637512445E0,2.209548950E0,1.197579670E1
3.654904190E1,-2.311901093E0,1.141734958E0,1.340992355E1
3.656909842E1,-1.624765158E0,2.917933464E-1,1.494939518E1
3.658916128E1,-1.825878024E0,5.647323132E-1,1.321359921E1
3.660922175E1,-2.163460493E0,1.098639250E0,9.674968719E0
3.662928164E1,-2.319083691E0,1.536778212E0,6.557718277E0
3.664934154E1,-2.187402487E0,1.804928780E0,5.027823448E0
3.666939263E1,-2.309506893E0,1.888725877E0,5.928043365E0
3.668946144E1,-2.441187859E0,1.733102798E0,6.971915245E0
3.670952133E1,-1.718139052E0,1.737891197E0,7.331045628E0
3.672958123E1,-8.442553878E-1,1.919850469E0,7.235277653E0
3.674964112E1,-2.528875470E-1,2.154482365E0,7.371747017E0
3.676969769E1,-1.738788933E-1,2.384325504E0,7.671022415E0
3.678976086E1,-1.690904945E-1,2.621351480E0,8.003816605E0
3.680982097E1,-1.978209168E-1,2.695571899E0,8.623914719E0
3.682988086E1,-7.571662962E-2,2.882319689E0,9.255983353E0
3.684994076E1,-2.480991483E-1,3.267786026E0,9.117119789E0
3.686999779E1,-4.635773003E-1,3.749020576E0,8.580819130E0
3.689006071E1,-6.455366611E-1,4.002806187E0,8.341399193E0
3.691012060E1,-7.221511006E-1,3.940556765E0,8.731653214E0
3.693018050E1,-1.020528451E-1,3.904643774E0,9.524134636E0
3.695024039E1,3.145382404E-1,3.729866982E0,9.593565941E0
3.697030029E1,1.972223669E-1,3.485658407E0,9.983820915E0
3.699036019E1,8.948329091E-2,3.598185778E0,1.030703831E1
3.701042008E1,1.637035459E-1,3.404255629E0,9.847352028E0
3.703047998E1,-1.355716735E-1,3.172018051E0,1.029985619E1
3.705053987E1,1.637035459E-1,3.014000654E0,1.147780323E1
3.707059753E1,3.743932843E-1,2.434603930E0,1.190397072E1
3.709065946E1,4.055179060E-1,1.443404317E0,1.256716442E1
3.711071987E1,6.569091082E-1,2.630629241E-1,1.475307083E1
3.713077977E1,2.690484226E-1,-3.522469103E-1,1.583285618E1
3.715084008E1,3.480570614E-1,1.167173311E-2,1.255279922E1
3.717089742E1,5.755062103E-1,7.059902549E-1,8.422801971E0
3.719095914E1,8.029553890E-1,1.395520329E0,5.451597214E0
3.721101946E1,6.664859056E-1,1.769015789E0,5.049371243E0
3.723107935E1,-1.690904945E-1,1.802534580E0,7.165845871E0
3.725113925E1,-9.256582260E-1,1.654094100E0,8.566453934E0
3.727119914E1,-1.162684202E0,1.520018816E0,9.346963882E0
3.729125904E1,-1.318307281E0,1.555931807E0,9.538499832E0
3.731131894E1,-1.311124682E0,1.752256393E0,9.279925346E0
3.733137883E1,-9.352350235E-1,1.950975060E0,8.719682693E0
3.735143873E1,-4.779425263E-1,2.221519947E0,8.420407295E0
3.737149862E1,-1.427542716E-1,2.477699518E0,7.845798969E0
3.739155852E1,9.427168965E-2,2.705148697E0,7.144298077E0
3.741161842E1,-1.020528451E-1,3.025971651E0,7.287950039E0
3.743167831E1,-1.068412513E-1,3.172018051E0,8.056488991E0
3.745173888E1,-1.107318327E-2,3.033154249E0,8.858546257E0
3.747179623E1,1.876455545E-1,2.870348454E0,9.818621635E0
3.749185795E1,1.230021119E-1,2.920626879E0,1.018014526E1
3.751191826E1,-1.379658729E-1,2.894290686E0,9.555258751E0
3.753197816E1,-8.107365370E-1,2.803310871E0,9.775525093E0
3.755203878E1,-1.447594166E0,2.719513893E0,1.037647057E1
3.757209456E1,-2.359785080E0,2.611774683E0,1.114261436E1
3.759215789E1,-3.094805002E0,2.712331295E0,1.213620853E1
3.761221779E1,-3.085228205E0,2.824858665E0,1.189678860E1
3.763227769E1,-3.027767420E0,2.781763077E0,1.038604736E1
3.765233842E1,-3.530549765E0,2.281374931E0,1.050096893E1
3.767239378E1,-3.374926567E0,1.407491326E0,1.244984913E1
3.769245742E1,-3.116352797E0,6.461352110E-1,1.410184765E1
3.771251732E1,-2.438793659E0,6.006453633E-1,1.274433517E1
3.773257722E1,-2.283170700E0,9.071031809E-1,9.325415611E0
3.775263711E1,-2.309506893E0,1.419462323E0,6.933608055E0
3.777269701E1,-2.465129852E0,1.831264973E0,6.131550789E0
3.779275691E1,-2.273593903E0,1.962946177E0,5.980715752E0
3.781281680E1,-1.507449269E0,2.080261946E0,6.076483727E0
3.783287670E1,-6.575076580E-1,2.216731548E0,6.514622688E0
3.785293664E1,-2.337339371E-1,2.178424358E0,7.139509678E0
3.787299404E1,8.230068535E-2,2.154482365E0,7.888894558E0
3.789305644E1,1.349731237E-1,2.142511129E0,8.279149055E0
3.791311633E1,4.399345443E-2,2.228702545E0,8.810662270E0
3.793317623E1,-3.501519933E-2,2.381931305E0,9.244012833E0
3.795323612E1,-3.890577704E-3,2.717119694E0,9.208099365E0
3.797329602E1,-9.247604012E-2,3.112162828E0,8.681375504E0
3.799335592E1,-5.234323740E-1,3.454533815E0,8.695740700E0
3.801341581E1,-6.431424022E-1,3.626916409E0,9.251194954E0
3.803347571E1,-3.893570602E-1,3.897461176E0,9.595960617E0
3.805353560E1,-1.403600723E-1,3.998017550E0,9.133879662E0
3.807359550E1,-2.840121686E-1,3.976469755E0,9.303867340E0
3.809365539E1,-3.702034354E-1,3.765779972E0,1.083136845E1
3.811371529E1,-1.738788933E-1,3.435380220E0,1.174355888E1
3.813377482E1,-6.455366611E-1,3.028365850E0,1.203565216E1
3.815383503E1,-3.486556113E-1,2.963722467E0,1.353442192E1
3.817389352E1,5.084685683E-1,3.140893459E0,1.358709431E1
3.819395430E1,1.250671148E0,2.930203676E0,1.157835960E1
3.821401446E1,1.394323230E0,2.130540133E0,1.177947235E1
3.823407383E1,6.712743044E-1,1.019630671E0,1.328063679E1
3.825413446E1,-2.304419130E-2,4.857236743E-1,1.337879944E1
3.827419409E1,-3.740940243E-2,6.461352110E-1,1.024478912E1
3.829425347E1,3.049614429E-1,1.208772540E0,7.343016624E0
3.831431284E1,4.103063047E-1,1.582268000E0,6.002263546E0
3.833437274E1,3.815758824E-1,1.723526001E0,6.593631268E0
3.835443383E1,-3.702034354E-1,1.694795489E0,7.455543995E0
3.837449362E1,-1.208173990E0,1.649305701E0,7.750030994E0
3.839455300E1,-1.452382565E0,1.560720205E0,8.219294548E0
3.841461237E1,-1.337460876E0,1.522413015E0,8.813055992E0
3.843467206E1,-1.174655199E0,1.639728904E0,8.779537201E0
3.845473316E1,-1.042974114E0,1.891120076E0,8.449137688E0
3.847479305E1,-6.527192593E-1,2.108992338E0,8.032546997E0
3.849485263E1,-3.534440398E-1,2.353200912E0,7.685387611E0
3.851491201E1,-5.018845201E-1,2.623745680E0,7.376535416E0
3.853497138E1,-8.227075338E-1,2.836829662E0,7.572859764E0
3.855503128E1,-1.105223417E0,2.867954254E0,8.372523308E0
3.857509118E1,-8.370727897E-1,2.966116667E0,9.440337181E0
3.859515107E1,-6.527192593E-1,2.915838480E0,1.010831928E1
3.861521097E1,-1.064521909E0,2.808099270E0,1.058955383E1
3.863527086E1,-1.512237668E0,2.800916672E0,1.115458584E1
3.865533076E1,-1.962347627E0,2.882319689E0,1.150174522E1
3.867539066E1,-2.335843086E0,2.899079084E0,1.195903778E1
3.869545055E1,-2.388515472E0,3.073855639E0,1.248815632E1
3.871551045E1,-2.254440069E0,3.078644037E0,1.197340298E1
3.873557034E1,-2.070086718E0,2.618957281E0,1.176271248E1
3.875563097E1,-1.943193913E0,1.551143408E0,1.316332054E1
3.877568982E1,-1.560121655E0,6.652888060E-1,1.497333717E1
3.879574977E1,-1.548150659E0,9.262567759E-1,1.301248646E1
3.881581019E1,-1.687014341E0,1.472134829E0,9.033323288E0
3.883587045E1,-1.818695426E0,2.041954756E0,5.935225964E0
3.885592998E1,-1.777994037E0,2.389113903E0,5.078101635E0
3.887598821E1,-2.050933123E0,2.535160303E0,5.477933407E0
3.889604998E1,-2.041356325E0,2.702754498E0,5.937620163E0
3.891610946E1,-8.849567771E-1,2.628534079E0,6.531382084E0
3.893616883E1,-3.980360180E-2,2.484882116E0,7.637503624E0
3.895622946E1,3.217208385E-1,2.391508341E0,8.535328865E0
3.897628883E1,3.528454900E-1,2.475305319E0,8.803479195E0
3.899634821E1,3.265092671E-1,2.650082111E0,8.652645111E0
3.901640774E1,4.462193549E-1,2.846406460E0,8.860940933E0
3.903646763E1,3.983353078E-1,3.140893459E0,8.841787338E0
3.905652868E1,3.528454900E-1,3.593397379E0,8.535328865E0
3.907658805E1,-1.547252834E-1,3.986046553E0,8.276755333E0
3.909664742E1,-4.707598984E-1,4.096179962E0,8.571242332E0
3.911670690E1,-4.300584793E-1,4.474463940E0,8.698134422E0
3.913676680E1,5.835866556E-2,4.783315659E0,7.405265808E0
3.915682779E1,4.869207740E-1,4.886266232E0,7.247248650E0
3.917688732E1,4.414309263E-1,4.531924725E0,9.445125580E0
3.919694670E1,2.067991644E-1,4.417002678E0,1.095107841E1
3.921700607E1,-6.718728542E-1,4.170400143E0,1.109473038E1
3.923706586E1,-6.934206486E-1,3.749020576E0,1.283052731E1
3.925712690E1,-3.501519933E-2,3.581426382E0,1.451843929E1
3.927718638E1,3.552396894E-1,3.998017550E0,1.255998230E1
3.929724576E1,1.130961061E0,3.456928015E0,1.104684639E1
3.931730513E1,1.315314531E0,1.895908475E0,1.288080502E1
3.933736498E1,1.018433571E0,8.328829408E-1,1.410184765E1
3.935742597E1,3.073556423E-1,1.002871275E0,1.154484081E1
3.937748555E1,4.342483282E-1,1.536778212E0,8.197746277E0
3.939754493E1,9.274538755E-1,1.979705572E0,5.765237808E0
3.941760430E1,1.085471153E0,2.219125748E0,5.446808815E0
3.943766399E1,5.180453658E-1,2.209548950E0,6.660669327E0
3.945772503E1,-3.007715940E-1,2.097021341E0,8.133103371E0
3.947778446E1,-5.425859690E-1,1.871966481E0,9.232041359E0
3.949784383E1,-6.359598041E-1,1.850418687E0,9.509769440E0
3.951790321E1,-7.029974461E-1,2.087444544E0,8.813055992E0
3.953796305E1,-5.234323740E-1,2.384325504E0,8.101978302E0
3.955802295E1,-3.390788138E-1,2.621351480E0,7.838616371E0
3.957808284E1,-2.409165502E-1,2.769792080E0,7.524975777E0
3.959814274E1,-1.259948611E-1,2.906261683E0,7.101202011E0
3.961820263E1,-4.938041046E-2,3.164835453E0,6.782773495E0
3.963826253E1,-2.600701451E-1,3.495235205E0,6.629544735E0
3.965832274E1,-2.169745266E-1,3.607762575E0,7.311892033E0
3.967838154E1,2.962824516E-2,3.655646801E0,8.329427719E0
3.969844144E1,7.990647852E-2,3.519177198E0,9.696516991E0
3.971850133E1,-5.713163614E-1,3.251026630E0,1.077390766E1
3.973856123E1,-8.179191351E-1,3.164835453E0,1.176271248E1
3.975862191E1,-1.375768185E0,3.282151222E0,1.204283428E1
3.977868128E1,-1.936011314E0,3.413832426E0,1.235168648E1
3.979874066E1,-2.120364904E0,3.658041000E0,1.324472427E1
3.981880008E1,-1.945588112E0,3.921403170E0,1.273954678E1
3.983885998E1,-1.924040318E0,4.170400143E0,1.123598862E1
3.985891899E1,-2.479495049E0,3.459322214E0,1.147062016E1
3.987897706E1,-2.601599455E0,2.243067741E0,1.275870132E1
3.989904050E1,-2.173037291E0,1.608604312E0,1.284968090E1
3.991909987E1,-1.888127327E0,1.644517303E0,9.964667320E0
3.993915925E1,-1.799541831E0,1.905485272E0,7.175422668E0
3.995921862E1,-2.062904119E0,2.362777710E0,5.911283970E0
3.997927842E1,-2.201767683E0,2.719513893E0,5.580883980E0
3.999933831E1,-2.074875116E0,2.970905066E0,4.876988888E0
4.001939821E1,-1.576881051E0,3.093009233E0,5.382165432E0
4.003945810E1,-6.096236110E-1,2.961328268E0,7.077260017E0
4.005951800E1,8.978256374E-4,2.894290686E0,8.068459511E0
4.007957789E1,2.211643755E-1,2.978087664E0,8.159439087E0
4.009963779E1,3.600280881E-1,3.215113640E0,8.221688271E0
4.011969769E1,2.666542232E-1,3.428197622E0,8.468291283E0
4.013975758E1,3.839701116E-1,3.567061186E0,8.887276649E0
4.015981560E1,1.708861440E-1,3.974075556E0,8.937555313E0
4.017987492E1,-4.132990539E-1,4.496011734E0,8.700529099E0
4.019993701E1,-6.072294116E-1,4.761767864E0,8.334216118E0
4.021999638E1,-3.725976348E-1,4.835988045E0,8.219294548E0
4.024005576E1,3.552396894E-1,4.970063686E0,8.030152321E0
4.026011644E1,7.095815539E-1,5.008370876E0,7.838616371E0
4.028017586E1,4.270657301E-1,4.606144905E0,9.299078941E0
4.030023524E1,3.241150677E-1,4.342782497E0,1.096544361E1
4.032029461E1,-1.451484710E-1,4.311657906E0,1.122641182E1
4.034035430E1,-1.906383038E-1,4.062661171E0,1.189918232E1
4.036041524E1,4.534019530E-1,3.820846558E0,1.342668343E1
4.038047461E1,1.095047951E0,4.208707333E0,1.270363426E1
4.040053399E1,1.643320203E0,4.254197121E0,1.040520096E1
4.042059336E1,2.076670647E0,3.310881615E0,1.071405220E1
4.044065316E1,1.140537858E0,2.271798134E0,1.216015053E1
4.046071409E1,8.795698285E-1,1.831264973E0,1.151371574E1
4.048077352E1,9.178770781E-1,1.970128775E0,9.255983353E0
4.050083289E1,1.104624867E0,2.372354507E0,7.103596210E0
4.052089227E1,9.920973182E-1,2.535160303E0,6.074089527E0
4.054095196E1,6.952162981E-1,2.417844534E0,6.878541470E0
4.056101279E1,-8.768763393E-2,1.989282370E0,8.145073891E0
4.058107216E1,-5.425859690E-1,1.601421714E0,1.008437729E1
4.060113154E1,-9.543886781E-1,1.469740510E0,1.108036518E1
4.062119092E1,-9.663596749E-1,1.840841889E0,9.526528358E0
4.064125081E1,-7.604582906E-1,2.343624115E0,7.460332394E0
4.066131159E1,-4.947019219E-1,2.827252865E0,6.026205540E0
4.068137097E1,-4.492121041E-1,3.116951227E0,5.396530628E0
4.070143034E1,-8.529343456E-2,3.274968624E0,5.748478413E0
4.072148972E1,-6.853402406E-2,3.382707834E0,6.121973515E0
4.074154961E1,-1.403600723E-1,3.610156775E0,6.519411087E0
4.076161045E1,-3.534440398E-1,3.567061186E0,7.805097580E0
4.078166982E1,-2.073977292E-1,3.528753996E0,9.356540680E0
4.080172920E1,1.110311002E-1,3.593397379E0,1.019211674E1
4.082178857E1,2.498947978E-1,3.449745417E0,1.070208168E1
4.084184842E1,-3.821744323E-1,3.200748444E0,1.157357121E1
4.086190920E1,-8.586205840E-1,3.219902039E0,1.277785492E1
4.088196857E1,-1.639130354E0,3.361159801E0,1.267969227E1
4.090202795E1,-2.012625694E0,3.674800396E0,1.266053867E1
4.092208732E1,-2.146701097E0,3.840000153E0,1.314895535E1
4.094214722E1,-1.945588112E0,3.873519182E0,1.254801083E1
4.096220795E1,-1.689408541E0,3.322852612E0,1.149695683E1
4.098226732E1,-2.012625694E0,2.195183754E0,1.249773312E1
4.100232670E1,-1.806724429E0,1.232714653E0,1.358470058E1
4.102238612E1,-1.665466547E0,1.249474049E0,1.244506073E1
4.104244602E1,-2.189796686E0,1.649305701E0,8.731653214E0
4.106250685E1,-2.199373484E0,2.020406961E0,5.602431774E0
4.108256623E1,-2.268805504E0,2.393902540E0,3.840299606E0
4.110262560E1,-2.345419884E0,2.477699518E0,3.890577793E0
4.112268498E1,-2.388515472E0,2.357989311E0,4.438849926E0
4.114274477E1,-1.461959362E0,2.202366352E0,5.492298603E0
4.116280560E1,-7.628524899E-1,2.013224363E0,6.706159115E0
4.118286498E1,-2.672527730E-1,1.950975060E0,7.785943985E0
4.120292435E1,7.990647852E-2,1.893514276E0,8.355764389E0
4.122298373E1,-1.188122630E-1,1.941398263E0,8.798690796E0
4.124304357E1,1.526303589E-2,2.125751734E0,9.742006302E0
4.126310435E1,-6.135141850E-2,2.544737101E0,9.892841339E0
4.128316373E1,-5.066729188E-1,3.169623852E0,9.085995674E0
4.130322310E1,-9.160814285E-1,3.782539368E0,8.645462036E0
4.132328248E1,-1.191414595E0,4.191947937E0,8.789113998E0
4.134334237E1,-1.064521909E0,4.278139114E0,9.241618156E0
4.136340310E1,-4.516063035E-1,4.244620323E0,9.947908401E0
4.138346248E1,-2.193687260E-1,4.151246548E0,1.057997704E1
4.140352185E1,-3.007715940E-1,3.883095980E0,1.140597725E1
4.142358123E1,2.163759768E-1,3.732261181E0,1.225352383E1
4.144364112E1,7.511807978E-2,3.514388800E0,1.235647488E1
4.146369951E1,1.996165663E-1,2.985270262E0,1.321359921E1
4.148375977E1,8.245031834E-1,2.700360298E0,1.451125622E1
4.150382138E1,1.051952362E0,3.073855639E0,1.361582470E1
4.152388076E1,1.140537858E0,3.042731047E0,1.176989555E1
4.154394013E1,5.802946091E-1,1.998859167E0,1.321359921E1
4.156400076E1,4.399345443E-2,7.107786536E-1,1.420719242E1
4.158406013E1,-3.175309896E-1,4.091092050E-1,1.271321106E1
4.160411951E1,-1.714846939E-1,6.868366003E-1,8.760383606E0
4.162417888E1,1.732803434E-1,1.421856523E0,5.269638062E0
4.164423868E1,4.438251257E-1,1.960551858E0,3.878606796E0
4.166429951E1,3.456628621E-1,2.044348955E0,4.572925091E0
4.168435888E1,-4.420294762E-1,1.903091073E0,5.987898350E0
4.170441826E1,-5.689221621E-1,1.579873800E0,7.548917770E0
4.172447763E1,-3.606266379E-1,1.433827519E0,8.992621422E0
4.174453743E1,-1.810615063E-1,1.551143408E0,8.990227699E0
4.176459732E1,-1.212064624E-1,1.972522974E0,7.726089001E0
4.178465722E1,-4.180874825E-1,2.410661936E0,7.110779285E0
4.180471711E1,-3.773860335E-1,2.616563082E0,7.699752808E0
