"Time (s)","Linear Acceleration x (m/s^2)","Linear Acceleration y (m/s^2)","Linear Acceleration z (m/s^2)"
7.623552100E-2,2.824038565E-1,6.379038095E-1,-2.003637791E0
9.627927100E-2,-3.074365854E-1,4.704141617E-2,-1.223755836E0
1.163622400E-1,1.069772482E0,3.520094156E-1,-1.490214348E0
1.364216150E-1,-1.795266271E-1,-3.495540619E-1,-4.878044128E-3
1.564809900E-1,-5.887700915E-1,3.184585571E-1,2.674602509E0
1.765403650E-1,-6.592488289E-1,-8.463055491E-1,9.848232269E-1
1.965997400E-1,-3.309059143E-1,2.328156233E-1,-1.107790947E0
2.166591150E-1,-1.111270428E0,2.064415216E0,-1.867238522E0
2.367189590E-1,-1.010512114E-1,2.472149611E0,-8.529310226E-1
2.567788540E-1,5.273822546E-1,2.421225786E0,-8.918056488E-1
2.768387500E-1,4.345785677E-1,2.282423735E0,-1.645619392E0
2.968986460E-1,9.030532837E-1,1.975063324E0,-1.584416866E0
3.169582810E-1,1.104955435E0,1.056068659E0,-8.412036896E-1
3.370176560E-1,6.656453013E-1,1.221247435E0,-3.467798233E-1
3.570770310E-1,5.535426140E-1,9.588470459E-1,-3.133430481E-1
3.771364060E-1,4.252331257E-1,8.930871487E-1,-5.255517960E-1
3.971957810E-1,-1.172990799E-1,8.377506733E-1,-9.288377762E-1
4.172551560E-1,-4.325200617E-1,1.061361074E0,-7.810707092E-1
4.373150000E-1,-5.234525204E-1,1.109653473E0,-1.121796608E0
4.573748960E-1,-6.268500090E-1,6.917600632E-1,-1.581792355E0
4.774347920E-1,-8.089647889E-1,9.019243717E-1,-1.269935608E0
4.974946880E-1,-8.765902519E-1,1.287380457E0,-1.476644516E0
5.175543230E-1,-8.063394427E-1,1.490318060E0,-1.618125916E0
5.376136980E-1,-4.189978838E-1,1.391789913E0,-1.003212929E0
5.576730730E-1,2.329140007E-1,1.387035131E0,-1.454391479E-1
5.777324480E-1,5.552108288E-1,1.747913361E0,5.866012573E-1
5.977918230E-1,7.439246178E-1,1.459367990E0,1.028923988E0
6.178511980E-1,3.771950006E-1,1.189802647E0,9.953155518E-1
6.379110940E-1,4.660296440E-2,1.761000156E0,1.362578392E0
6.579709900E-1,1.963961124E-1,2.281762838E0,1.562571526E0
6.780309380E-1,3.219521046E-1,2.657688379E0,1.300309181E0
6.980895840E-1,5.702774525E-1,2.981526613E0,1.271308899E0
7.181500000E-1,8.728832006E-1,2.087912560E0,1.153398514E0
7.382101040E-1,3.758875132E-1,1.275944471E0,9.411563873E-1
7.582694790E-1,-5.311968327E-1,-2.559595108E-1,1.237966537E0
7.783283860E-1,-6.061918736E-1,-5.940654278E-1,1.342697144E0
7.983875000E-1,-4.449067116E-1,-1.070918560E0,-3.038883209E-2
8.184485420E-1,4.619438648E-1,-1.467808247E0,-1.805325508E0
8.385079170E-1,6.062753201E-1,-1.033134222E0,-3.612637997E0
8.585672920E-1,3.255031109E-1,-1.180603027E0,-3.608379841E0
8.786266670E-1,-1.417816162E0,-1.478560448E0,-3.452602386E0
8.986860420E-1,-1.113363266E0,-1.896350265E0,-2.493062019E0
9.187454690E-1,-2.083550453E0,-1.426197290E0,-8.259944916E-1
9.388053650E-1,-1.054248333E0,-8.912878036E-1,-2.967864990E0
9.588652610E-1,1.485910416E-1,-3.399658203E-1,-4.666361332E0
9.789251560E-1,1.127775908E0,-5.455329418E-1,-4.943037987E0
9.989850520E-1,1.497474909E0,-3.884909153E-1,-2.646104336E0
1.019044740E0,5.960407257E-1,7.920193672E-2,6.768989563E-2
1.039104115E0,-9.215259552E-2,6.158990860E-1,1.498463631E0
1.059163490E0,1.031574249E0,1.154184341E0,1.804740906E0
1.079222865E0,1.898833275E0,1.831658602E0,1.540974140E0
1.099282240E0,1.575816154E0,1.763178110E0,1.457929134E0
1.119341823E0,1.387107134E0,1.854633808E0,2.117834568E0
1.139401719E0,1.125148296E0,2.020147800E0,2.608001232E0
1.159461615E0,1.098278522E0,2.392356873E0,2.318163872E0
1.179521511E0,1.201049566E0,2.447417974E0,1.756082058E0
1.199581406E0,1.774110317E0,2.176867485E0,1.568252563E0
1.219641042E0,1.932769537E0,2.133155823E0,1.414396286E0
1.239700417E0,1.274815798E0,1.897660255E0,1.952488899E0
1.259759792E0,9.627928734E-1,1.757111549E0,2.593668461E0
1.279819167E0,8.283019066E-1,1.608102560E0,2.515799046E0
1.299878542E0,6.181912422E-1,1.465198755E0,2.259540558E0
1.319938334E0,5.553379059E-1,1.361441851E0,2.174191475E0
1.339998229E0,4.939711094E-1,1.430389881E0,2.229611397E0
1.360058125E0,6.051664352E-1,1.305530787E0,1.696022987E0
1.380118229E0,7.352883816E-1,1.078846693E0,1.035745621E0
1.400177604E0,9.459052086E-1,3.698379993E-1,1.198184013E0
1.420236979E0,4.867517948E-1,-1.080131531E-1,2.063448906E0
1.440296354E0,-2.994246483E-1,-7.803568840E-1,1.980970383E0
1.460355729E0,5.679011345E-2,-9.945516586E-1,7.056264877E-1
1.480416511E0,8.582158089E-1,-1.377391219E0,-1.310857296E0
1.500475886E0,1.796370983E0,-1.478609204E0,-2.793815136E0
1.520535261E0,2.464622974E0,-1.329592228E0,-3.075569630E0
1.540594636E0,1.867629528E0,-1.041808605E0,-2.354893208E0
1.560654011E0,3.068656921E-1,-8.915598392E-1,-1.299940586E0
1.580714844E0,-8.128495216E-1,-7.345829010E-1,-5.326585770E-1
1.600774219E0,-8.817267418E-1,-6.665766239E-1,2.754240036E-1
1.620833594E0,-9.865641594E-2,-7.457907200E-1,1.040456772E0
1.640892969E0,5.464076996E-1,-5.546102524E-1,1.378035545E0
1.660952344E0,8.837919235E-1,-4.165599346E-1,1.001048088E0
1.681012084E0,1.173323154E0,-3.431792259E-1,5.680179596E-2
1.701071979E0,1.515707016E0,-2.972016335E-1,-9.786787033E-1
1.721131875E0,2.406093836E0,-3.174669743E-1,-1.612959862E0
1.741191771E0,2.498076916E0,8.415889740E-2,-2.069741249E0
1.761251667E0,1.744152904E0,3.523094654E-1,-2.048104286E0
1.781311511E0,1.267056465E0,7.155714035E-1,-1.775114059E0
1.801370886E0,1.047937632E0,7.133896351E-1,-1.167306900E0
1.821430261E0,1.650809169E0,5.905489922E-1,-3.118381500E-1
1.841489636E0,1.549954653E0,8.861391544E-1,1.253890991E-2
1.861549011E0,4.876248837E-1,9.087746143E-1,-1.390676498E-1
1.881608802E0,-3.194360733E-1,8.872041702E-1,2.247982025E-1
1.901668698E0,-1.189886808E0,8.454337120E-1,1.500936508E0
1.921728594E0,-1.755350590E0,8.866080046E-1,2.270038605E0
1.941788490E0,-1.766217709E0,1.002799749E0,2.077678680E0
1.961848386E0,-1.714317799E0,1.110548615E0,2.260220528E0
1.981908229E0,-1.847394228E0,9.983881712E-1,3.193880081E0
2.001967604E0,-2.267257929E0,1.000370741E0,3.792332649E0
2.022026979E0,-2.550989389E0,8.637580872E-1,4.355013847E0
2.042086354E0,-2.659514904E0,7.002507448E-1,4.928982735E0
2.062145729E0,-2.121405840E0,1.929522753E-1,4.723741531E0
2.082205521E0,-9.604327679E-1,-2.933766842E-1,2.539114952E0
2.102265417E0,-5.628893375E-1,-5.278725624E-1,-4.640607834E-1
2.122325313E0,-3.456099033E-1,-8.371953368E-1,-2.927078247E0
2.142385209E0,-1.389944553E-1,-8.111272454E-1,-3.853312492E0
2.162445104E0,-6.016857624E-1,-7.798817158E-1,-3.349922657E0
2.182505000E0,-1.059734583E0,-9.993689060E-1,-2.390275955E0
2.202564427E0,-1.279039145E0,-9.620190859E-1,-1.704464436E0
2.222623802E0,-1.290530443E0,-8.554608822E-1,-1.753745079E0
2.242683177E0,-8.433737755E-1,-8.125386238E-1,-1.860120296E0
2.262742552E0,3.773832321E-2,-7.962927818E-1,-1.400325775E0
2.282802292E0,2.892372608E-1,-5.748617649E-1,-6.527090073E-1
2.302862188E0,-1.085872650E-1,-2.140365839E-1,3.927803040E-2
2.322922084E0,-4.461905956E-1,1.744604111E-2,2.230663300E-1
2.342981979E0,-6.805920601E-1,6.285394430E-1,2.651882172E-2
2.363041875E0,-8.848547935E-1,1.071788192E0,-1.096853256E0
2.383101771E0,-7.697203159E-1,1.274608135E0,-2.165363789E0
2.403161354E0,-5.644879341E-1,1.573810577E0,-2.598966122E0
2.423220729E0,-6.821167469E-1,1.673039675E0,-2.246887684E0
2.443280104E0,-6.276693344E-1,1.715551615E0,-1.623349667E0
2.463339479E0,-2.399121523E-1,1.601202965E0,-1.414909840E0
2.483399063E0,3.706011772E-1,1.431140423E0,-9.704809189E-1
2.503458959E0,5.899011493E-1,1.235754728E0,-2.771949768E-1
2.523518854E0,4.257111549E-1,9.910812378E-1,8.438396454E-1
2.543578750E0,-2.417671680E-2,8.294506073E-1,1.789565086E0
2.563638646E0,-2.330905199E-1,1.107844830E0,2.472309113E0
2.583698542E0,-4.195297956E-1,1.000834227E0,2.805572510E0
2.603758334E0,-2.741937637E-1,1.245019436E0,3.332004547E0
2.623817709E0,-3.055577278E-1,1.116921425E0,2.986805916E0
2.643877084E0,-1.871911287E-1,5.795726776E-1,2.076152802E0
2.663936459E0,-2.507942915E-1,-5.499598980E-1,1.921578407E0
2.683997031E0,-5.693706870E-1,-1.853015184E0,2.178842545E0
2.704056406E0,-1.921069622E-1,-2.709488869E0,1.669948578E0
2.724115781E0,1.229505539E-1,-2.470580578E0,3.660964966E-2
2.744175156E0,5.933771729E-1,-2.250607729E0,-2.177146435E0
2.764234740E0,1.135670781E0,-1.789580941E0,-3.514254570E0
2.784294636E0,1.403595448E0,-1.605353475E0,-3.654345512E0
2.804354531E0,9.364306927E-1,-1.631010175E0,-2.370923519E0
2.824414427E0,1.307119727E-1,-1.648198009E0,-1.114958763E0
2.844474323E0,-7.174959183E-1,-1.433494329E0,1.426506042E-2
2.864534219E0,-1.002220392E0,-1.182741165E0,6.130990982E-1
2.884594063E0,-5.877978206E-1,-8.889087439E-1,5.973720551E-1
2.904653438E0,2.293372750E-1,-6.209112406E-1,-7.582569122E-2
2.924712813E0,6.399393082E-1,-3.399002552E-1,-1.032944679E0
2.944772188E0,8.072575927E-1,-5.340790749E-2,-1.616425991E0
2.964831667E0,6.707414389E-1,1.953315735E-1,-1.743308067E0
2.984891563E0,5.757405758E-1,5.396294594E-1,-1.798826694E0
3.004951459E0,3.214009404E-1,9.586558342E-1,-1.691772461E0
3.025011354E0,3.844569027E-1,1.058231831E0,-1.151194572E0
3.045071250E0,7.160217762E-1,1.065025806E0,-7.081604004E-1
3.065131146E0,6.663170457E-1,9.578390121E-1,-3.823385239E-1
3.085191042E0,5.027959943E-1,6.791179180E-1,8.489513397E-2
3.105250677E0,4.906057119E-1,4.915301800E-1,8.089609146E-1
3.125310052E0,1.148311496E-1,4.179723263E-1,1.299677849E0
3.145369427E0,-4.187157750E-1,4.826922417E-1,1.447124481E0
3.165428802E0,-7.518374920E-1,6.100974083E-1,1.304313660E0
3.185488490E0,-1.047345996E0,7.119967937E-1,1.037396431E0
3.205548386E0,-1.247902989E0,7.897379398E-1,6.823949814E-1
3.225608281E0,-9.435065985E-1,6.154623032E-1,1.344070435E-1
3.245668177E0,-5.491267443E-1,3.438720703E-1,7.819366455E-2
3.265728073E0,1.579618454E-2,7.910394669E-2,4.658889771E-1
3.285787969E0,4.342496395E-2,-1.842720509E-1,1.033328056E0
3.305847865E0,-5.092360973E-1,-4.689786434E-1,2.433649063E0
3.325907396E0,-1.042119861E0,-9.851437807E-1,3.937090874E0
3.345966771E0,-1.289456248E0,-1.500177979E0,4.622496605E0
3.366026146E0,-8.346387148E-1,-1.839248419E0,3.840230942E0
3.386086563E0,-1.451501846E-1,-1.704880118E0,1.942476273E0
3.406145938E0,-2.667570114E-1,-1.516946554E0,-6.203880310E-1
3.426205313E0,-6.316164732E-1,-1.159082770E0,-2.569905281E0
3.446264688E0,-8.348194361E-1,-6.092149019E-1,-3.619452477E0
3.466324531E0,-9.666298628E-1,-9.033465385E-2,-3.614093781E0
3.486385156E0,-9.308567047E-1,2.686886787E-1,-2.463642597E0
3.506444531E0,-1.067481399E0,6.516463757E-1,-1.858725548E0
3.526503906E0,-1.245144963E0,7.316770554E-1,-1.845026970E0
3.546563281E0,-7.181092501E-1,3.988356590E-1,-1.794443607E0
3.566623125E0,4.438626766E-2,1.554417610E-1,-9.973564148E-1
3.586683698E0,3.757742643E-1,-1.852512360E-2,-2.392740250E-1
3.606743073E0,3.282682896E-1,4.259157181E-2,-4.373645782E-2
3.626802448E0,1.935485601E-1,1.364066601E-1,-4.605426788E-1
3.646861823E0,4.303879738E-1,4.292111397E-1,-9.502382278E-1
3.666921719E0,4.374222755E-1,5.880064964E-1,-8.527860641E-1
3.686981615E0,2.474870682E-1,6.977066994E-1,-9.303321838E-1
3.707041511E0,6.907880306E-2,8.925442696E-1,-1.136447906E0
3.727101406E0,-1.961410046E-1,1.055348158E0,-1.327812195E0
3.747161302E0,-3.655475378E-1,1.095690250E0,-1.135303497E0
3.767221198E0,6.986856461E-3,1.062530279E0,-9.474821091E-1
3.787281094E0,3.107651472E-1,1.061606169E0,-4.652910233E-1
3.807340781E0,1.815891266E-2,9.771313667E-1,5.846786499E-1
3.827400156E0,-1.246833801E-2,9.074323177E-1,2.114268303E0
3.847459531E0,4.415707588E-1,7.027037144E-1,3.209597588E0
3.867518906E0,7.806797028E-1,5.506203175E-1,3.527624130E0
3.887578698E0,3.529298306E-1,6.001598835E-1,3.474477768E0
3.907638594E0,1.268153787E-1,7.805850506E-1,2.658213615E0
3.927698490E0,4.298079014E-2,5.965003967E-1,1.279814720E0
3.947758386E0,1.753907800E-1,-8.521819115E-2,7.874870300E-2
3.967818281E0,2.035286129E-1,-1.299231291E0,4.069566727E-1
3.987878177E0,7.854545116E-2,-2.401781797E0,1.428690910E0
4.007938073E0,4.714950919E-1,-2.909207106E0,1.382567406E0
4.027997969E0,6.907656193E-1,-2.529623747E0,-1.258792877E-1
4.048057448E0,9.082518816E-1,-2.268888712E0,-1.547317028E0
4.068116823E0,1.263242841E0,-1.797616839E0,-2.294764996E0
4.088176198E0,1.126830697E0,-1.477509499E0,-2.263758659E0
4.108235781E0,2.091607749E-1,-1.190350771E0,-1.532944679E0
4.128295677E0,-7.555277944E-1,-1.020989656E0,-8.005104065E-1
4.148355573E0,-9.952763915E-1,-8.333599567E-1,-2.858610153E-1
4.168415469E0,-7.350152731E-1,-6.905946732E-1,-9.928035736E-2
4.188475729E0,-3.296555877E-1,-5.390589237E-1,-3.262033463E-1
4.208535104E0,1.073947549E-1,-2.641687393E-1,-9.801969528E-1
4.228594479E0,1.844643950E-1,-1.038315296E-1,-1.381406307E0
4.248654011E0,4.681330919E-2,1.397714615E-1,-1.164438725E0
4.268713906E0,-2.274906039E-1,3.425619602E-1,-7.554988861E-1
4.288774479E0,-1.356142163E-1,6.378853321E-1,-8.288469315E-1
4.308833854E0,8.958953619E-2,8.614108562E-1,-1.062757492E0
4.328893229E0,4.151564837E-2,1.023305655E0,-8.175764084E-1
4.348952865E0,-6.828033924E-2,8.334081173E-1,1.464376450E-1
4.369012761E0,-3.087032437E-1,6.318423748E-1,9.792118073E-1
4.389072656E0,-2.936468124E-1,4.666361809E-1,1.554679871E0
4.409132552E0,-3.597151041E-1,3.853378296E-1,1.562294960E0
4.429192448E0,-7.879333496E-1,2.845699787E-1,1.397317886E0
4.449252344E0,-9.596117735E-1,4.423496723E-1,1.092219353E0
4.469312240E0,-9.103915691E-1,5.654470921E-1,6.026191711E-1
4.489372136E0,-1.227509856E0,5.916056633E-1,8.161993027E-1
4.509432031E0,-1.412030816E0,5.673801899E-1,1.183762550E0
4.529491927E0,-1.264560699E0,3.707988262E-1,8.847465515E-1
4.549551823E0,-7.711412907E-1,8.245325089E-2,4.756793976E-1
4.569611250E0,-6.021001339E-1,-6.571547985E-1,1.045354843E0
4.589670625E0,-4.204471111E-1,-1.403047800E0,2.158072472E0
4.609730000E0,4.876577854E-2,-1.866313457E0,2.407235146E0
4.629789792E0,5.837367177E-1,-1.787525892E0,1.675271034E0
4.649849688E0,2.396188974E-1,-1.498251438E0,5.762100220E-3
4.669909584E0,-1.167823076E-1,-1.028871059E0,-1.327896595E0
4.689969479E0,-2.090624571E-1,-5.722386837E-1,-2.300315857E0
4.710029375E0,-3.670893908E-1,-2.222306728E-1,-2.829850197E0
4.730089271E0,2.217237949E-1,-1.757142544E-1,-2.358171463E0
4.750149167E0,8.771356344E-1,-4.401445389E-3,-1.758544445E0
4.770209063E0,9.959238768E-1,-1.452531815E-1,-1.382169247E0
4.790268959E0,9.098907709E-1,-7.853293419E-2,-9.522199631E-1
4.810328854E0,8.687863350E-1,1.364278793E-2,-4.926128387E-1
4.830388750E0,5.945396423E-1,2.306940556E-1,-4.339742661E-1
4.850448646E0,1.654059887E-1,3.948984146E-1,-8.897333145E-1
4.870508386E0,-2.093279362E-2,5.196235180E-1,-1.335028172E0
4.890567761E0,-1.155191660E-2,5.123708248E-1,-1.200340271E0
4.910627136E0,-2.823597789E-1,6.111712456E-1,-6.324863434E-1
4.930686719E0,-5.444115996E-1,8.591384888E-1,-1.797676086E-3
4.950746615E0,-2.798750997E-1,1.080104828E0,1.269578934E-1
4.970806511E0,4.632517099E-1,1.241214275E0,-4.811229706E-1
4.990866406E0,6.667119861E-1,1.323548317E0,-9.521055222E-1
5.010926302E0,5.928397179E-2,1.239998102E0,-3.992767334E-1
5.030986198E0,-3.186889887E-1,9.632802010E-1,1.222395897E0
5.051046094E0,-2.752724886E-1,7.427523136E-1,2.347814560E0
5.071105990E0,-1.109899879E-1,5.757610798E-1,2.511229515E0
5.091165886E0,6.169676781E-4,1.148304939E-1,3.199668884E0
5.111225781E0,4.531086683E-1,4.746031761E-2,3.474208832E0
5.131285677E0,8.787232637E-1,-1.339797974E-1,2.138823509E0
5.151345573E0,4.187409580E-1,-4.512221813E-1,6.131210327E-1
5.171405469E0,-2.700376511E-2,-1.507533312E0,-1.853141785E-1
5.191465365E0,2.727822363E-1,-2.657577991E0,8.048505783E-1
5.211525261E0,8.456501961E-1,-3.296892881E0,1.307454109E0
5.231585156E0,1.182973504E0,-2.724228621E0,4.624481201E-1
5.251644896E0,8.175060153E-1,-1.694839954E0,-1.070888519E0
5.271704271E0,6.883624792E-1,-7.092669010E-1,-2.578955650E0
5.291763646E0,9.471316934E-1,-1.848506927E-2,-3.134479523E0
5.311823281E0,2.881520391E-1,-4.070615768E-2,-2.248698235E0
5.331883177E0,-6.196947694E-1,-2.717547417E-1,-2.062864304E-1
5.351943073E0,-9.853255153E-1,-6.634814739E-1,1.733977318E0
5.372004011E0,-5.664308071E-1,-7.000772953E-1,2.352173805E0
5.392063490E0,2.011158466E-1,-4.266805649E-1,6.557617188E-1
5.412122865E0,6.548077464E-1,-9.727120399E-2,-1.197448730E0
5.432182240E0,5.348014832E-1,3.373544216E-1,-2.277201176E0
5.452242136E0,-4.734218121E-2,7.314414978E-1,-2.218691826E0
5.472303177E0,-3.992202878E-1,1.019191980E0,-1.795561790E0
5.492362813E0,-5.281484723E-1,1.047153473E0,-1.621879578E0
5.512422188E0,-4.435936809E-1,1.053092003E0,-1.159491539E0
5.532481563E0,4.818367660E-1,8.626952171E-1,-6.320514679E-1
5.552541354E0,9.920331240E-1,7.125678062E-1,-4.306583405E-1
5.572602396E0,6.584121585E-1,4.986364841E-1,2.401113510E-1
5.592661927E0,3.575822711E-1,2.614145279E-1,1.247840881E0
5.612721302E0,1.965110302E-1,9.791684151E-2,2.107291222E0
5.632780677E0,-3.659020066E-1,1.960582733E-1,2.060760498E0
5.652840573E0,-6.775977612E-1,4.522094727E-1,2.037675858E0
5.672900469E0,-9.088370204E-1,7.000832558E-1,2.054279327E0
5.692960365E0,-1.212983131E0,7.271635532E-1,2.482746124E0
5.713020261E0,-1.227507114E0,7.406916618E-1,2.745576859E0
5.733080156E0,-1.154278994E0,6.213896275E-1,2.172386169E0
5.753140052E0,-1.261952758E0,3.147578239E-1,1.041418076E0
5.773199948E0,-1.158112884E0,-4.929840565E-1,1.094594955E0
5.793259844E0,-7.127029896E-1,-1.405478716E0,1.416653633E0
5.813319740E0,-6.400680542E-2,-1.862479687E0,2.720718384E-1
5.833379636E0,3.686054945E-1,-2.008185387E0,-1.485286713E0
5.853439531E0,-3.688728809E-2,-1.799544811E0,-2.505950928E0
5.873499427E0,-3.524992466E-1,-1.442640305E0,-2.503434181E0
5.893559323E0,-2.981554270E-1,-1.018895626E0,-2.281096935E0
5.913619219E0,-3.839235902E-1,-5.170264244E-1,-2.046353340E0
5.933679115E0,-6.609160304E-1,-1.598660946E-1,-1.340203762E0
5.953739011E0,-4.945379496E-1,8.435249329E-3,-7.429742813E-1
5.973798906E0,2.124735713E-1,-5.854725838E-2,-5.137367249E-1
5.993858802E0,5.419859290E-1,-3.619313240E-2,-5.380678177E-1
6.013918698E0,3.122362494E-1,4.188585281E-2,-4.632616043E-1
6.033978594E0,1.430807710E-1,1.831488609E-1,-6.998739243E-1
6.054038490E0,1.544184089E-1,3.659820557E-1,-1.096957207E0
6.074098750E0,6.049525738E-2,6.088874340E-1,-1.239864826E0
6.094158281E0,-4.119080901E-1,7.451102734E-1,-9.356021881E-1
6.114217656E0,-6.619323492E-1,7.736027241E-1,-5.884037018E-1
6.134277084E0,-6.993012428E-1,7.723333836E-1,-4.245319366E-1
6.154336979E0,-4.423649311E-1,9.282283783E-1,-5.314273834E-1
6.174398073E0,-2.024819851E-1,9.866991043E-1,-7.989158630E-1
6.194457448E0,-1.165236831E-1,9.819717407E-1,-5.082845688E-1
6.214516823E0,-2.104838490E-1,6.910266876E-1,7.636775970E-1
6.234576406E0,-2.773356438E-2,6.090159416E-1,1.713387489E0
6.254636302E0,-2.684816122E-1,4.320011139E-1,1.674147606E0
6.274697396E0,-3.947345614E-1,1.747441292E-1,2.998614311E0
6.294757031E0,-2.008974552E-3,-1.451766491E-1,4.031213760E0
6.314816406E0,4.975893199E-1,-2.582376003E-1,2.871068001E0
6.334875781E0,8.329415321E-1,-3.684241772E-1,1.208147049E0
6.354935625E0,6.022440195E-1,-9.490313530E-1,1.148768425E0
6.374995521E0,1.150243878E-1,-1.704924583E0,1.919989586E0
6.395055417E0,6.052810550E-1,-2.178627729E0,1.727300644E0
6.415115313E0,1.015849710E0,-1.912980080E0,-1.403236389E-1
6.435175209E0,1.375469685E0,-1.578232765E0,-1.924055099E0
6.455235104E0,1.575253487E0,-1.190515280E0,-2.505476952E0
6.475295000E0,1.038976550E0,-9.072551727E-1,-1.724340439E0
6.495354896E0,-2.463685870E-1,-6.618926525E-1,-9.311676025E-1
6.515414792E0,-6.248137951E-1,-6.222369671E-1,-2.378196716E-1
6.535474688E0,-1.079959869E-1,-5.200853348E-1,7.421970367E-2
6.555534584E0,2.937232852E-1,-4.141647816E-1,1.338062286E-1
6.575594479E0,4.247130752E-1,-2.659528255E-1,-1.489019394E-1
6.595654375E0,5.674108267E-1,-1.306657791E-1,-8.790416718E-1
6.615714271E0,9.211160541E-1,-7.348608971E-2,-1.329503059E0
6.635774167E0,9.529041052E-1,9.169459343E-2,-1.217041969E0
6.655834063E0,6.634249687E-1,2.655320168E-1,-8.721570969E-1
6.675893959E0,4.705668688E-1,4.099404812E-1,-8.140563965E-1
6.695953854E0,5.613855124E-1,3.319325447E-1,-5.126905441E-1
6.716013750E0,7.481047511E-1,2.171146870E-1,4.940795898E-2
6.736073646E0,9.423366785E-1,1.210708618E-1,4.329938889E-1
6.756133542E0,7.956788540E-1,-1.684358120E-1,8.228054047E-1
6.776193438E0,1.514635086E-1,-2.128973007E-1,1.646908760E0
6.796253334E0,-2.970253825E-1,-1.824486256E-1,2.236354828E0
6.816313229E0,-6.561716199E-1,1.955318451E-2,1.947477341E0
6.836373125E0,-8.410555124E-1,3.706467152E-1,1.753286362E0
6.856433021E0,-9.717971683E-1,7.734682560E-1,1.676849365E0
6.876492917E0,-8.186302185E-1,9.083640575E-1,1.437829018E0
6.896552813E0,-8.187103271E-1,6.505963802E-1,1.367113113E0
6.916612709E0,-1.071636319E0,-4.481983185E-2,1.806659698E0
6.936672604E0,-1.046185613E0,-1.008515358E0,2.324552536E0
6.956732500E0,-7.213435173E-1,-1.475287080E0,2.378216743E0
6.976792396E0,-4.904860854E-1,-1.422742009E0,7.990379333E-1
6.996852292E0,-3.712002635E-1,-1.308418751E0,-1.556077480E0
7.016912188E0,-1.390441656E-1,-1.030439615E0,-2.824972153E0
7.036972084E0,-2.303072810E-1,-7.818570137E-1,-2.966985703E0
7.057031979E0,-8.852267265E-1,-4.522604942E-1,-2.663414001E0
7.077091875E0,-1.322695017E0,-2.378320694E-2,-2.484915257E0
7.097151771E0,-9.470895529E-1,5.708217621E-2,-2.406867027E0
7.117211667E0,-1.513043642E-1,-3.218317032E-2,-1.708551407E0
7.137271563E0,4.035355151E-1,-2.266106606E-1,-1.162704945E0
7.157331459E0,5.005819201E-1,-1.904103756E-1,-4.430351257E-1
7.177391354E0,1.795603335E-1,-7.688617706E-2,1.196565628E-1
7.197451250E0,-1.980443001E-1,1.066291332E-1,1.829872131E-1
7.217511146E0,-4.599339366E-1,2.918956280E-1,-5.282068253E-1
7.237571042E0,-4.178752303E-1,5.032172203E-1,-9.532022476E-1
7.257630938E0,-3.811056018E-1,5.584743023E-1,-1.001099586E0
7.277690834E0,-3.082833886E-1,4.992272854E-1,-7.545976639E-1
7.297750729E0,-1.794713736E-2,5.510966778E-1,-6.707153320E-1
7.317810625E0,2.851979136E-1,7.364971638E-1,-9.144020081E-1
7.337870521E0,1.093454957E-1,9.098951817E-1,-1.010507584E0
7.357930417E0,-3.450268507E-1,8.858151436E-1,-7.059383392E-2
7.377988646E0,-5.775567293E-1,1.056369781E0,9.899845123E-1
7.398047969E0,-1.136744976E0,1.120267868E0,1.923251152E0
7.418110261E0,-1.335635424E0,9.636077881E-1,3.387838364E0
7.438169844E0,-8.197741508E-1,4.685969353E-1,4.247841835E0
7.458229219E0,1.457402110E-1,2.425241470E-2,3.433975220E0
7.478289896E0,9.560613632E-1,-2.177670002E-1,1.914628029E0
7.498349375E0,1.045165062E0,-5.403332710E-1,8.223800659E-1
7.518408750E0,1.706419587E-1,-9.688925743E-1,5.198440552E-1
7.538468281E0,-5.167746544E-2,-1.121815205E0,2.230806351E-1
7.558528177E0,6.402872205E-1,-1.228496075E0,-2.645435333E-1
7.578588073E0,1.163058043E0,-1.189563990E0,-1.042539597E0
7.598647969E0,1.105483651E0,-1.099236250E0,-1.345584393E0
7.618707865E0,7.553608418E-1,-1.127658129E0,-1.070514679E0
7.638767761E0,2.010299265E-1,-1.064035654E0,-6.926908493E-1
7.658827656E0,-2.298747897E-1,-9.054934978E-1,-3.441467285E-1
7.678887552E0,-2.789789438E-2,-8.340306282E-1,-2.576656342E-1
7.698947448E0,4.591792226E-1,-6.470663548E-1,-6.305923462E-1
7.719007344E0,3.961518407E-1,-3.800923824E-1,-1.166668892E0
7.739067240E0,3.817560375E-1,-1.630961895E-1,-1.475424767E0
7.759127136E0,4.660511613E-1,-9.133195877E-2,-1.662650585E0
7.779187031E0,5.101513863E-1,7.474637032E-2,-1.551101208E0
7.799246927E0,4.793488979E-2,2.863047123E-1,-1.288724899E0
7.819306823E0,-2.205582261E-1,4.569160938E-1,-8.263645172E-1
7.839366719E0,-1.614549160E-1,4.026589394E-1,-4.329290390E-1
7.859426615E0,3.508627415E-3,3.549273014E-1,2.946071625E-1
7.879486511E0,2.892079949E-1,3.168711662E-1,9.305343628E-1
7.899546406E0,2.745411694E-1,1.901233196E-1,1.327405930E0
7.919606302E0,-3.026314974E-1,4.055881500E-2,1.766045570E0
7.939666198E0,-7.040402293E-1,2.952997684E-1,1.603180885E0
7.959726094E0,-8.000530601E-1,4.646141529E-1,1.250019073E0
7.979785990E0,-7.969214916E-1,4.821965694E-1,1.309995651E0
7.999845886E0,-6.586986780E-1,6.504383087E-1,1.854515076E0
8.019905781E0,-5.814561844E-1,5.601468086E-1,2.108610153E0
8.039965677E0,-7.698450089E-1,3.216433525E-1,2.410232544E0
8.060025573E0,-9.163882732E-1,-4.505426884E-1,2.984584808E0
8.080086198E0,-9.395703077E-1,-1.175437450E0,3.134903908E0
8.100146094E0,-9.048147202E-1,-1.163908243E0,1.567844391E0
8.120205990E0,-6.513398886E-1,-9.656660557E-1,-1.005077362E0
8.140265677E0,-4.429007769E-1,-6.443295479E-1,-3.302558899E0
8.160325052E0,-9.400737286E-2,-4.822592735E-1,-3.974347591E0
8.180385625E0,-3.800740242E-1,-4.524736404E-1,-2.876243591E0
8.200445365E0,-8.900533915E-1,-5.105414391E-1,-1.542902946E0
8.220504740E0,-6.482512951E-1,-5.227482319E-1,-6.564960480E-1
8.240564115E0,1.477603912E-1,-3.826737404E-1,-7.098512650E-1
8.260623906E0,5.457636714E-1,-1.899204254E-1,-1.430387974E0
8.280685000E0,5.099589825E-1,5.739521980E-2,-1.710230350E0
8.300744896E0,2.605140805E-1,1.576611996E-1,-1.587174892E0
8.320804636E0,3.965868354E-1,2.841331959E-1,-1.262433052E0
8.340864011E0,4.727892280E-1,2.882053852E-1,-1.001153946E0
8.360923386E0,2.743291259E-1,4.526462555E-1,-6.324596405E-1
8.380983177E0,-1.500114202E-1,6.032886505E-1,-3.785486221E-1
8.401043073E0,-3.342474699E-1,6.673862934E-1,8.172035217E-3
8.421102969E0,-2.118166089E-1,8.443026543E-1,1.732873917E-1
8.441162865E0,-5.456376076E-2,1.030298233E0,-2.465324402E-1
8.461222761E0,-5.530130863E-2,1.110110998E0,-7.235622406E-2
8.481282656E0,-3.601605892E-1,9.992156029E-1,1.209482193E0
8.501342552E0,-3.511838913E-1,8.027138710E-1,2.398044586E0
8.521402448E0,-3.092573881E-1,6.286489964E-1,2.542787552E0
8.541462344E0,-4.326050878E-1,5.717079639E-1,2.082862854E0
8.561522240E0,-7.373976707E-2,4.029467106E-1,2.371356010E0
8.581582136E0,5.690340996E-1,2.733676434E-1,2.070386887E0
8.601642031E0,9.494755864E-1,2.280991077E-1,1.134730339E0
8.621701927E0,6.739897132E-1,-1.851089001E-1,7.039060593E-1
8.641761823E0,-1.643148363E-1,-9.008002281E-1,1.794914246E0
8.661821719E0,-3.406207561E-1,-1.499718904E0,1.504218102E0
8.681881615E0,4.091212153E-1,-1.492542028E0,-5.044460297E-2
8.701941511E0,9.517983794E-1,-1.385931730E0,-1.307146549E0
8.722001406E0,9.550672770E-1,-1.232774258E0,-1.917352200E0
8.742061302E0,7.048226595E-1,-1.236984015E0,-1.909237385E0
8.762121198E0,5.843458176E-1,-1.191255093E0,-1.605860233E0
8.782181094E0,1.470154524E-1,-1.028872490E0,-1.156941891E0
8.802240990E0,-2.102643251E-1,-7.847833633E-1,-7.273273468E-1
8.822300886E0,-2.595403790E-1,-7.506392002E-1,-1.945781708E-1
8.842360781E0,2.157101631E-1,-4.850168228E-1,-3.081092834E-1
8.862420677E0,3.925675154E-1,-3.283417225E-1,-8.481864929E-1
8.882480573E0,4.534164071E-1,-1.723453999E-1,-9.575519562E-1
8.902540469E0,2.827693224E-1,-2.684235573E-2,-1.125446320E0
8.922600365E0,3.737055063E-1,2.935433388E-2,-1.187114239E0
8.942660261E0,4.501810670E-1,6.339955330E-2,-1.228721619E0
8.962720156E0,4.029067159E-1,3.977799416E-2,-1.040891647E0
8.982780677E0,5.489544868E-1,7.406306267E-2,-4.278974533E-1
9.002840417E0,5.840008259E-1,1.756887436E-1,7.592964172E-2
9.022899792E0,6.668210030E-2,-7.333517075E-2,9.709043503E-1
9.042959167E0,-3.885322213E-1,-2.664816380E-1,2.696466446E0
9.063018906E0,-9.632554650E-1,-9.974980354E-2,3.701385498E0
9.083078802E0,-1.561181426E0,1.206915379E-1,3.524289131E0
9.103138698E0,-1.617213964E0,6.423110962E-1,3.202164650E0
9.123198594E0,-1.638090611E0,9.535815716E-1,2.436223030E0
9.143258490E0,-1.550329328E0,9.974071980E-1,1.530532837E0
9.163318386E0,-1.597000241E0,5.926806927E-1,1.184092522E0
9.183378281E0,-1.607316971E0,-3.737339973E-1,2.149459839E0
9.203438177E0,-1.219686031E0,-1.252409577E0,2.297554016E0
9.223498073E0,-8.559410572E-1,-1.412964106E0,1.125760078E0
9.243557969E0,-8.198690414E-1,-1.402624846E0,-9.491052628E-1
9.263617865E0,-9.855768681E-1,-1.204425573E0,-2.786381721E0
9.283677761E0,-1.244170070E0,-1.012374401E0,-3.603177547E0
9.303737656E0,-1.253705263E0,-8.376286030E-1,-4.093587399E0
9.323797552E0,-1.025685191E0,-6.237170696E-1,-4.220170021E0
9.343857448E0,-7.779359221E-1,-4.840309620E-1,-3.440020561E0
9.363917344E0,-3.111909628E-1,-3.904998302E-1,-2.219930172E0
9.383977240E0,-7.797843218E-2,-2.621388435E-1,-1.199807644E0
9.404037136E0,-1.426677108E-1,-5.393862724E-2,-3.520078659E-1
9.424097031E0,-7.028698921E-3,1.403017044E-1,1.094388962E-1
9.444156927E0,2.463176250E-1,2.822751999E-1,3.595838547E-1
9.464216823E0,2.221084237E-1,5.843250751E-1,3.296976089E-1
9.484276719E0,4.747951031E-2,8.498833179E-1,-1.660366058E-1
9.504336615E0,-5.003511906E-3,9.858968258E-1,-4.453372955E-1
9.524396511E0,-1.026055217E-1,1.016860485E0,-4.032411575E-1
9.544456406E0,-2.420936227E-1,9.939341545E-1,-2.427873611E-1
9.564516302E0,9.662526846E-2,1.022459984E0,-2.844314575E-1
9.584576198E0,3.326785862E-1,9.516766071E-1,-6.265449524E-2
9.604636094E0,-1.398645639E-1,6.218888760E-1,1.026154518E0
9.624695990E0,-1.523743272E-1,2.275788784E-1,2.545324326E0
9.644755886E0,-1.330046058E-1,1.214222908E-1,2.890299797E0
9.664815781E0,-5.145215392E-1,1.234054565E-1,2.346752167E0
9.684875677E0,3.559535742E-2,-1.134462357E-1,2.400747299E0
9.704935573E0,6.676368713E-1,-4.614374638E-1,1.910327911E0
9.724995469E0,1.074586630E0,-6.358792782E-1,9.974832535E-1
9.745055365E0,1.043292999E0,-1.242981195E0,9.562416077E-1
9.765115261E0,4.371499121E-1,-1.843088984E0,1.858384132E0
9.785175156E0,7.944674790E-2,-2.175236702E0,1.532704353E0
9.805235052E0,2.128612399E-1,-1.744974375E0,1.730346680E-2
9.825294948E0,4.371420145E-1,-1.210661411E0,-1.474710464E0
9.845354844E0,6.132254601E-1,-8.892605305E-1,-2.389010906E0
9.865414740E0,7.168667316E-1,-7.199351788E-1,-2.116412163E0
9.885474636E0,-7.975903153E-2,-7.224135399E-1,-1.403998375E0
9.905534531E0,-6.297877431E-1,-5.675098896E-1,-4.111747742E-1
9.925594427E0,-6.212375760E-1,-4.987456799E-1,4.278631210E-1
9.945654323E0,-4.003175497E-1,-4.655404091E-1,7.797317505E-1
9.965714219E0,-1.896365881E-1,-1.662166119E-1,-4.154109955E-2
9.985774115E0,1.493829489E-2,8.831000328E-2,-1.159699440E0
1.000583401E1,1.295102239E-1,2.824449539E-1,-1.730585575E0
1.002589391E1,2.682175338E-1,3.897626400E-1,-1.721940517E0
1.004595380E1,1.719383001E-1,4.683454037E-1,-1.602838516E0
1.006601370E1,1.978108585E-1,4.646494389E-1,-1.437724590E0
1.008607078E1,2.986724377E-1,4.581475258E-1,-1.141082764E0
1.010613344E1,5.693143606E-1,2.855811119E-1,-5.025711060E-1
1.012619318E1,9.675955772E-1,1.764516830E-1,-1.525402069E-2
1.014625255E1,8.556307554E-1,2.199506760E-2,3.355522156E-1
1.016631198E1,1.294796169E-1,7.200956345E-3,8.620262146E-1
1.018637297E1,-6.144430637E-1,5.462074280E-2,1.323389053E0
1.020643234E1,-8.909723759E-1,4.195594788E-2,1.740812302E0
1.022649172E1,-1.228697658E0,1.550509930E-1,2.485017776E0
1.024655151E1,-1.360108852E0,2.759721279E-1,3.263524055E0
1.026661141E1,-1.245436668E0,2.459363937E-1,3.328984261E0
1.028667234E1,-9.925336242E-1,2.667188644E-1,2.282495499E0
1.030673172E1,-1.038804770E0,-1.468048096E-1,1.970024109E0
1.032679109E1,-1.324656487E0,-8.582891226E-1,2.682992935E0
1.034685094E1,-9.413750172E-1,-1.356918216E0,2.384541512E0
1.036691083E1,-4.173653126E-1,-1.213291168E0,7.103757858E-1
1.038697073E1,-2.992579341E-1,-1.085568666E0,-1.549559116E0
1.040703062E1,-4.521580338E-1,-8.571074009E-1,-3.349838734E0
1.042709052E1,-3.347898722E-1,-7.770068645E-1,-3.804407597E0
1.044715042E1,-6.032174230E-1,-6.340422630E-1,-3.235766888E0
1.046721031E1,-7.486036420E-1,-5.969173908E-1,-2.268301964E0
1.048727021E1,-3.843056560E-1,-4.291472435E-1,-1.327846527E0
1.050733010E1,3.242868185E-2,-3.758423328E-1,-6.664381027E-1
1.052739000E1,1.660766006E-1,-1.490325928E-1,-4.411325455E-1
1.054744990E1,2.238523662E-1,6.548595428E-2,-5.391340256E-1
1.056750979E1,3.820782304E-1,2.301945686E-1,-5.644025803E-1
1.058756969E1,3.531894684E-1,3.337819576E-1,-3.981132507E-1
1.060762958E1,4.030163586E-2,5.788981915E-1,-4.987039566E-1
1.062768953E1,-2.257825583E-1,8.856418133E-1,-8.423032761E-1
1.064774995E1,-2.546240091E-1,1.110494852E0,-1.296605110E0
1.066781037E1,-3.425138891E-1,1.160488129E0,-1.184283257E0
1.068787047E1,-2.648528814E-1,1.206436872E0,-1.041559219E0
1.070793037E1,4.946947098E-3,1.140366077E0,-8.499917984E-1
1.072799026E1,3.185687959E-2,9.028980732E-1,-1.735601425E-1
1.074805016E1,-3.146737218E-1,5.462191105E-1,1.115885735E0
1.076811005E1,-3.770086169E-1,2.968637943E-1,2.547659874E0
1.078816995E1,-1.271120310E-1,1.026895046E-1,2.772601128E0
1.080822984E1,-2.347247154E-1,7.394242287E-2,2.454629898E0
1.082828974E1,-1.100319624E-2,4.268646240E-3,2.821230888E0
1.084834964E1,4.096962214E-1,-1.263267994E-1,2.366595268E0
1.086840953E1,8.858379722E-1,-2.596101761E-1,1.185980797E0
1.088846839E1,1.005652189E0,-7.398259640E-1,9.088478088E-1
1.090852865E1,1.488406062E-1,-1.584161401E0,2.104770660E0
1.092858906E1,-2.209032476E-1,-2.071069241E0,2.664469719E0
1.094864938E1,-2.695372105E-1,-1.804139733E0,5.713748932E-1
1.096870927E1,2.052424401E-1,-1.472803831E0,-1.708910942E0
1.098876583E1,7.961040735E-1,-1.185605049E0,-3.056516647E0
1.100882901E1,1.138499856E0,-1.080082893E0,-2.847656727E0
1.102888906E1,2.208357304E-1,-9.311392307E-1,-1.628406525E0
1.104894896E1,-9.680451155E-1,-8.330266476E-1,-1.082236290E0
1.106900885E1,-1.032073379E0,-7.644748688E-1,-4.062185287E-1
1.108906875E1,-6.042734385E-1,-7.450766563E-1,2.248697281E-1
1.110912865E1,-1.138904095E-1,-6.228134632E-1,2.542352676E-1
1.112918854E1,2.209925354E-1,-4.285736084E-1,-5.946302414E-1
1.114924844E1,5.979285240E-1,-2.377905846E-1,-1.369375706E0
1.116930833E1,9.084361792E-1,-7.364511490E-2,-1.983807564E0
1.118936823E1,7.836433649E-1,2.597546577E-1,-2.366163731E0
1.120942812E1,3.559871614E-1,5.577263832E-1,-2.305509567E0
1.122948802E1,4.706257582E-2,5.514853001E-1,-1.348647594E0
1.124954792E1,1.648375988E-1,3.258371353E-1,-1.147680283E-1
1.126960781E1,5.617551804E-1,1.903607845E-1,6.528654099E-1
1.128966771E1,5.693377256E-1,2.201287746E-1,1.038869858E0
1.130972760E1,-2.324978709E-1,-1.187603474E-1,1.821350098E0
1.132978750E1,-8.407834768E-1,-1.458399296E-1,3.111495018E0
1.134984740E1,-1.340139747E0,1.184728146E-1,2.963267326E0
1.136990729E1,-1.225635409E0,3.210384846E-1,1.789383888E0
1.138996719E1,-7.231850624E-1,5.000195503E-1,1.268320084E0
1.141002708E1,-1.104735136E-1,4.696006775E-1,1.195139885E0
1.143008698E1,1.425555944E-1,5.383758545E-1,1.567081451E0
1.145014688E1,-3.273862600E-1,3.340525627E-1,1.879216194E0
1.147020677E1,-6.146469116E-1,-1.947731972E-1,2.129186630E0
1.149026667E1,-6.534008980E-1,-6.838774681E-1,1.887114525E0
1.151032656E1,-4.504419565E-1,-8.963410854E-1,6.936416626E-1
1.153038646E1,-3.172322512E-1,-1.147743821E0,-8.968286514E-1
1.155044635E1,-5.044937134E-3,-1.095020056E0,-2.136882305E0
1.157050625E1,2.776461840E-1,-8.036429882E-1,-2.489338875E0
1.159056615E1,-1.180410385E-2,-5.205600262E-1,-2.462035179E0
1.161062635E1,-3.362514973E-1,-2.318646908E-1,-2.073750019E0
1.163068677E1,-1.809459925E-1,-1.903629303E-1,-1.265838623E0
1.165074719E1,2.864027619E-1,-2.200841904E-1,-8.314418793E-1
1.167080714E1,6.257455945E-1,-2.146925926E-1,-7.339448929E-1
1.169086703E1,6.048105955E-1,-9.536933899E-2,-5.734052658E-1
1.171092693E1,2.618020177E-1,3.059911728E-2,-3.360366821E-1
1.173098682E1,1.261043549E-2,1.925213337E-1,-5.621395111E-1
1.175104672E1,-6.608170271E-2,3.665444851E-1,-8.137588501E-1
1.177110662E1,-1.311998963E-1,6.468498707E-1,-1.485012054E0
1.179116651E1,-4.028291702E-1,9.556658268E-1,-2.069556713E0
1.181122641E1,-5.128679276E-1,1.144405127E0,-2.001858234E0
1.183128630E1,-2.252690196E-1,1.211309910E0,-1.447149277E0
1.185134620E1,2.304902077E-1,1.060436964E0,-7.355813980E-1
1.187140609E1,9.598243237E-2,8.871932030E-1,2.300052643E-1
1.189146599E1,-3.158297539E-1,7.905471325E-1,1.586919785E0
1.191152589E1,-5.008291006E-1,8.089475632E-1,2.390522957E0
1.193158578E1,-5.507298708E-1,1.061434507E0,1.963751793E0
1.195164568E1,-8.914733529E-1,1.017083883E0,1.598248482E0
1.197170557E1,-7.412837148E-1,8.201167583E-1,2.474007607E0
1.199176547E1,-3.537538052E-1,5.914463997E-1,3.030255318E0
1.201182536E1,-6.299495697E-2,4.657080173E-1,2.767128944E0
1.203188526E1,-1.927809715E-1,-1.841783524E-3,2.012225151E0
1.205194516E1,-5.860440135E-1,-8.813474178E-1,1.817356110E0
1.207200635E1,-4.373245239E-1,-1.835970402E0,1.352005005E0
1.209206625E1,4.808771014E-1,-2.013638973E0,-1.911926270E-2
1.211212615E1,1.481442213E0,-1.741144061E0,-1.858736038E0
1.213218604E1,1.390102863E0,-1.350928187E0,-2.739732742E0
1.215224594E1,8.367856145E-1,-1.244132757E0,-2.459168434E0
1.217230615E1,4.939225912E-1,-1.040126801E0,-1.323329926E0
1.219236359E1,-1.476401091E-2,-9.774637222E-1,-4.537611008E-1
1.221242604E1,-1.775630116E-1,-8.258283138E-1,3.257179260E-1
1.223248599E1,-3.677270412E-1,-7.632901669E-1,9.737329483E-1
1.225254589E1,-2.574799657E-1,-3.948533535E-1,4.488677979E-1
1.227260578E1,1.672827601E-1,-1.381502151E-1,-1.022486687E0
1.229266568E1,4.925752878E-1,1.588337421E-1,-1.871263504E0
1.231272557E1,5.053503513E-1,3.316636086E-1,-2.237833500E0
1.233278547E1,3.745346069E-1,4.653425217E-1,-2.124185085E0
1.235284536E1,-1.587009430E-2,5.759778023E-1,-1.684974194E0
1.237290526E1,5.332952738E-2,6.301918030E-1,-1.180523872E0
1.239296516E1,1.262193918E-2,6.166601181E-1,-5.577774048E-1
1.241302505E1,2.399467826E-1,6.433498859E-1,1.426839828E-1
1.243308495E1,5.129581690E-2,7.453331947E-1,5.707263947E-1
1.245314484E1,6.647206545E-1,4.770324230E-1,9.126882553E-1
1.247320474E1,9.015946984E-1,1.361362934E-1,1.322703362E0
1.249326464E1,2.313005626E-1,1.973998547E-1,2.095970154E0
1.251332453E1,-2.601116300E-1,3.130974770E-1,2.378299713E0
1.253338443E1,-6.426066756E-1,5.623252392E-1,1.910442352E0
1.255344432E1,-9.092811346E-1,7.477409840E-1,1.319585800E0
1.257350422E1,-1.021730661E0,6.096475124E-1,1.079266548E0
1.259356458E1,-9.154322147E-1,6.002593040E-2,1.533518791E0
1.261362500E1,-8.349561691E-1,-6.607298851E-1,2.464044571E0
1.263368542E1,-4.653569460E-1,-1.291793585E0,3.384531021E0
1.265374531E1,-2.436528206E-1,-1.390860677E0,2.717167854E0
1.267380521E1,-2.385168672E-1,-1.068127275E0,-5.778121948E-2
1.269386510E1,-2.121250629E-1,-8.044792414E-1,-3.104987621E0
1.271392500E1,-8.421361446E-3,-4.710824490E-1,-4.689856052E0
1.273398490E1,-1.580427885E-1,-2.605395317E-1,-4.711328506E0
1.275404479E1,-9.124708772E-1,-1.252388954E-2,-3.435095310E0
1.277410521E1,-1.385330677E0,1.190273762E-1,-1.768367290E0
1.279416510E1,-1.023031831E0,-3.083467484E-2,-1.251897812E-1
1.281422500E1,-8.538901806E-2,-1.645946503E-1,1.023182869E0
1.283428490E1,4.189313054E-1,-6.404995918E-2,1.311175346E0
1.285434479E1,4.306275845E-1,2.746150494E-1,6.997928619E-1
1.287440510E1,1.401141286E-1,6.586658955E-1,-1.345233917E-1
1.289446500E1,-7.380777597E-2,9.784176350E-1,-1.072116852E0
1.291452490E1,1.568675041E-3,1.189729691E0,-1.491765499E0
1.293458479E1,-9.085273743E-2,1.312629938E0,-1.443163395E0
1.295464469E1,-3.936781287E-1,1.328777313E0,-1.064763069E0
1.297470474E1,-3.492133617E-1,1.193251371E0,-9.718790054E-1
1.299476349E1,-1.111227274E-2,1.091256857E0,-1.030692101E0
1.301482495E1,4.256745279E-1,9.367439747E-1,-7.116346359E-1
1.303488490E1,3.864631951E-1,8.022680283E-1,5.826950073E-3
1.305494479E1,-3.274124861E-2,6.657757759E-1,1.118567467E0
1.307500469E1,-1.296815872E-1,4.892513752E-1,2.560994148E0
1.309506458E1,-1.463720202E-1,2.928204536E-1,3.444532394E0
1.311512448E1,-3.573480844E-1,2.907600403E-1,3.799198151E0
1.313518438E1,3.276228905E-3,4.278693199E-1,3.784939766E0
1.315524427E1,1.706324518E-1,3.255996704E-1,2.414014816E0
1.317530417E1,3.335236609E-1,-8.834934235E-2,1.065638542E0
1.319536406E1,1.336142719E-1,-1.078603506E0,1.473929405E0
1.321542396E1,-2.557384968E-2,-1.939928770E0,1.743236542E0
1.323548385E1,2.751961350E-1,-2.163642406E0,3.345441818E-1
1.325554375E1,7.980741858E-1,-1.890572190E0,-1.993891716E0
1.327560365E1,8.423970342E-1,-1.402324200E0,-3.435541630E0
1.329566354E1,7.100335360E-1,-1.150440454E0,-3.690691948E0
1.331572391E1,4.900792241E-1,-9.930174351E-1,-2.838773251E0
1.333578432E1,-2.339519858E-1,-8.396902084E-1,-1.816835880E0
1.335584474E1,-6.591840982E-1,-7.482874393E-1,-7.847938538E-1
1.337590469E1,-8.941521049E-1,-7.147731781E-1,2.562818527E-1
1.339596458E1,-5.280072093E-1,-6.163547039E-1,4.173345566E-1
1.341602448E1,1.271023154E-1,-4.407229424E-1,-4.288082123E-1
1.343608438E1,4.214084446E-1,-3.026590347E-1,-1.342843056E0
1.345614427E1,4.769721925E-1,-2.327928543E-1,-1.388017654E0
1.347620417E1,3.706000745E-1,-1.313951015E-1,-1.233553886E0
1.349626406E1,2.970952094E-1,1.090419292E-1,-1.020273209E0
1.351632396E1,1.265686750E-2,2.164251804E-1,-8.862695694E-1
1.353638385E1,2.557522953E-1,1.524441242E-1,-3.229465485E-1
1.355644375E1,5.168102980E-1,9.800148010E-2,3.835201263E-2
1.357650365E1,5.615137815E-1,9.117460251E-2,5.600433350E-1
1.359656354E1,1.112149954E-1,3.624987602E-2,1.569921494E0
1.361662375E1,-5.988332033E-1,1.708533764E-1,2.262959480E0
1.363668417E1,-1.250659704E0,4.132792950E-1,2.356884956E0
1.365674458E1,-1.375748634E0,5.294561386E-1,2.056155205E0
1.367680474E1,-8.141577244E-1,3.649127483E-1,1.712604523E0
1.369686464E1,-1.709861755E-1,2.738316059E-1,1.404411316E0
1.371692453E1,-8.266425133E-2,1.702067852E-1,7.126445770E-1
1.373698443E1,-7.091679573E-1,6.941556931E-2,5.053720474E-1
1.375704432E1,-8.583668470E-1,-3.951447010E-1,1.802006721E0
1.377710422E1,-4.380658865E-1,-1.019794583E0,2.518560410E0
1.379716412E1,1.518579721E-1,-9.862689972E-1,2.004162788E0
1.381722401E1,9.304976463E-2,-8.110692501E-1,2.111501694E-1
1.383728391E1,-8.820950985E-2,-6.192004681E-1,-1.908861160E0
1.385734380E1,-1.641386747E-1,-4.076147079E-1,-3.037353516E0
1.387740370E1,-4.992117882E-1,-1.371855736E-1,-3.009360313E0
1.389746370E1,-9.931727648E-1,3.548121452E-2,-2.284881592E0
1.391752412E1,-3.102046251E-1,1.410498619E-1,-1.796322823E0
1.393758453E1,5.257434249E-1,1.436617374E-1,-1.346839905E0
1.395764495E1,8.452762365E-1,1.333839893E-1,-8.295536041E-1
1.397770484E1,6.223661900E-1,1.549916267E-1,-5.355720520E-1
1.399776474E1,6.723839045E-1,2.079889774E-1,-2.664031982E-1
1.401782464E1,5.144432783E-1,2.572054863E-1,-1.571893692E-1
1.403788453E1,2.558642030E-1,4.876544476E-1,-2.496929169E-1
1.405794443E1,-1.607134938E-1,7.587716579E-1,-8.155059814E-1
1.407800469E1,-4.114128351E-1,9.558115005E-1,-1.099810600E0
1.409806380E1,-5.118151903E-1,1.000154972E0,-9.042263031E-1
1.411812412E1,-3.350797892E-1,1.092622757E0,-7.809534073E-1
1.413818453E1,1.475809813E-1,1.167687893E0,-9.412240982E-1
1.415824495E1,4.187926054E-1,1.310467005E0,-9.315662384E-1
1.417830250E1,2.094470263E-1,1.102422237E0,-1.402978897E-1
1.419836250E1,2.954643965E-2,8.905568123E-1,1.383378983E0
1.421842510E1,4.204463959E-2,5.699222088E-1,2.572162628E0
1.423848500E1,2.544885874E-2,4.321784973E-1,3.430337906E0
1.425854490E1,2.827680707E-1,3.313848972E-1,4.094355583E0
1.427860479E1,9.828972816E-1,3.331580162E-1,3.348167419E0
1.429866469E1,9.363969564E-1,-2.154314518E-1,2.336193085E0
1.431872458E1,1.885012984E-1,-1.081709743E0,2.572196007E0
1.433878448E1,-2.507552803E-1,-1.881931543E0,2.281774521E0
1.435884438E1,8.383154869E-2,-2.043355465E0,6.122999191E-1
1.437890427E1,4.065555930E-1,-1.651510239E0,-1.141615868E0
1.439896417E1,5.233309269E-1,-1.382677913E0,-2.245308399E0
1.441902453E1,4.693874717E-1,-1.232472062E0,-2.645789146E0
1.443908495E1,4.754775763E-1,-1.196692228E0,-2.251474380E0
1.445914537E1,8.502805233E-2,-1.249447107E0,-1.515251160E0
1.447920547E1,-3.460629582E-1,-1.242524981E0,-6.215171814E-1
1.449926537E1,-3.678887486E-1,-1.218847871E0,-9.816741943E-2
1.451932526E1,7.924085855E-2,-9.670529366E-1,-4.518308640E-1
1.453938516E1,3.882051110E-1,-7.217197418E-1,-9.948921204E-1
1.455944505E1,2.335163653E-1,-3.797039986E-1,-1.075131416E0
1.457950495E1,2.400672436E-1,-1.411573887E-1,-1.000106812E0
1.459956484E1,4.842000902E-1,-1.490926743E-2,-1.305407524E0
1.461962474E1,4.083292484E-1,2.972602844E-2,-1.194473267E0
1.463968464E1,6.451678276E-2,7.240319252E-2,-6.579866409E-1
1.465974464E1,1.301985979E-2,-8.826208115E-2,8.042335510E-3
1.467980505E1,3.711105287E-1,-1.439099312E-1,5.494813919E-1
1.469986547E1,5.985625982E-1,-1.263823509E-1,7.379293442E-1
1.471992589E1,3.547530174E-1,-2.644512653E-1,1.073235512E0
1.473998589E1,-2.187030911E-1,-4.452174902E-1,1.422869682E0
1.476004578E1,-7.472296953E-1,-3.842444420E-1,1.510727882E0
1.478010516E1,-1.357268810E0,-2.670049667E-1,1.202894211E0
1.480016500E1,-1.635274410E0,-1.550178528E-1,1.257737160E0
1.482022594E1,-1.013101935E0,-1.357140541E-1,1.770333290E0
1.484028609E1,-7.556779385E-1,-7.706475258E-2,1.721485138E0
1.486034599E1,-1.519302845E0,1.138145924E-1,1.764659882E0
1.488040537E1,-1.819451571E0,-1.821626425E-1,2.802320480E0
1.490046521E1,-1.710390687E0,-4.993867874E-1,3.382790565E0
1.492052615E1,-9.059630632E-1,-5.193657875E-1,1.183462143E0
1.494058625E1,-1.819335222E-1,-5.266231298E-1,-1.222205162E0
1.496064615E1,1.314179897E-1,-4.095567465E-1,-2.962478638E0
1.498070469E1,-5.242848396E-2,-3.856093884E-1,-2.930265903E0
1.500076490E1,-6.103175879E-1,-2.032649517E-1,-2.682048798E0
1.502082646E1,-2.588133812E-1,6.016683578E-2,-2.839259624E0
1.504088635E1,5.706019402E-1,1.300513744E-1,-2.514119148E0
1.506094625E1,8.619658947E-1,1.540122032E-1,-1.311746597E0
1.508100615E1,9.212542176E-1,5.386924744E-2,-6.187601089E-1
1.510106604E1,1.169885397E0,1.403617859E-2,-3.297634125E-1
1.512112594E1,1.261070728E0,1.139075756E-1,-4.040355682E-1
1.514118583E1,1.133272529E0,3.170287609E-1,-4.675712585E-1
1.516124573E1,6.558371186E-1,5.302991867E-1,-5.893154144E-1
1.518130562E1,3.216007352E-1,6.746513844E-1,-6.198740005E-1
1.520136604E1,1.629469395E-1,6.924238205E-1,-3.302783966E-1
1.522142646E1,-1.015314460E-1,7.420647144E-1,6.563758850E-2
1.524148688E1,-2.666791081E-1,9.662702084E-1,-8.265590668E-2
1.526154698E1,-1.294928193E-1,1.094051361E0,-4.259290695E-1
1.528160688E1,4.346561730E-1,9.683248997E-1,-3.296966553E-1
1.530166677E1,3.149338365E-1,6.756153107E-1,1.168652534E0
1.532172667E1,1.011076868E-1,4.647352695E-1,2.746446609E0
1.534178656E1,3.100394011E-1,2.907598019E-1,3.314492226E0
1.536184646E1,3.019228578E-1,2.795305252E-1,3.456274033E0
1.538190635E1,2.981469333E-1,3.995285034E-1,3.297950745E0
1.540196625E1,2.546059191E-1,6.218504906E-2,2.508300781E0
1.542202620E1,-7.211363316E-2,-8.471245766E-1,2.637278557E0
1.544208662E1,1.535334438E-2,-1.909657478E0,3.611510277E0
1.546214703E1,-1.426353157E-1,-2.424533606E0,2.619283676E0
1.548220745E1,1.896890439E-2,-2.285621166E0,-2.616777420E-1
1.550226750E1,3.772700131E-1,-1.831782460E0,-2.731462955E0
1.552232740E1,5.573447347E-1,-1.451055408E0,-4.075325966E0
1.554238729E1,4.830271304E-1,-1.334555030E0,-3.983047009E0
1.556244719E1,-5.229044706E-2,-1.444924474E0,-2.772239685E0
1.558250708E1,-8.156183362E-1,-1.628624082E0,-1.702064514E0
1.560256698E1,-1.040430784E0,-1.782803893E0,-8.702468872E-1
1.562262688E1,-8.406035900E-1,-1.863064170E0,-6.536960602E-2
1.564268677E1,-4.334093332E-1,-1.722692490E0,2.673397064E-1
1.566274682E1,3.537612557E-1,-1.245933414E0,-3.890666962E-1
1.568280724E1,7.961806059E-1,-7.901303768E-1,-1.008267403E0
1.570286766E1,5.172132850E-1,-3.027138710E-1,-1.337380409E0
1.572292807E1,-5.857944489E-4,1.655647755E-1,-1.493508339E0
1.574298802E1,-7.749831676E-2,4.394845963E-1,-1.332571983E0
1.576304792E1,-1.868532300E-1,4.250695705E-1,-5.987653732E-1
1.578310781E1,2.750709057E-1,3.953480721E-1,3.806734085E-1
1.580316771E1,4.371680915E-1,4.640862942E-1,4.188060760E-1
1.582322760E1,2.128860056E-1,3.477864265E-1,6.076192856E-1
1.584328750E1,-6.009671688E-1,2.418899536E-1,1.071087837E0
1.586334740E1,-1.132179141E0,1.702768803E-1,1.907365799E0
1.588340729E1,-1.613752723E0,8.618235588E-2,2.830217361E0
1.590346740E1,-1.375969410E0,2.354741096E-2,3.012675285E0
1.592352781E1,-4.126364589E-1,2.177696228E-1,1.627045631E0
1.594358823E1,-4.918396473E-2,3.550212383E-1,1.109228134E-1
1.596364865E1,-3.301709294E-1,-5.481576920E-2,-9.219493866E-1
1.598370854E1,-1.085258007E0,-1.053114176E0,7.997722626E-1
1.600376844E1,-1.117067218E0,-1.940541387E0,3.456036568E0
1.602382833E1,-8.599338531E-1,-2.032105207E0,5.673051834E0
1.604388823E1,-7.820819616E-1,-1.230327606E0,2.527986526E0
1.606394812E1,-7.918813229E-1,-8.866668344E-1,-1.897009373E0
1.608400849E1,-4.980728626E-1,-2.672371864E-1,-4.649401188E0
1.610406786E1,-6.423109770E-1,3.006567955E-1,-5.552589417E0
1.612412792E1,-1.250006557E0,7.067914009E-1,-4.759654999E0
1.614418833E1,-1.746934772E0,6.015405655E-1,-2.704577923E0
1.616424875E1,-7.351145744E-1,4.796533585E-1,-3.271007538E-1
1.618430573E1,4.493583441E-1,1.537511349E-1,6.063861847E-1
1.620436787E1,9.462803006E-1,1.123507023E-1,9.931039810E-1
1.622442906E1,7.520380020E-1,2.191507816E-1,1.095535278E0
1.624448896E1,5.566928387E-1,3.982592821E-1,8.928041458E-1
1.626454885E1,1.969382167E-1,6.285780668E-1,4.347190857E-1
1.628460875E1,-2.579587698E-2,8.441478014E-1,-5.133104324E-1
1.630466865E1,-9.196847677E-2,9.959073067E-1,-1.228668213E0
1.632472854E1,-8.541190624E-2,1.043617249E0,-1.487842560E0
1.634478844E1,-1.670268178E-1,1.044072151E0,-1.439385414E0
1.636484833E1,-1.531380415E-1,1.046409369E0,-1.234975815E0
1.638490823E1,-6.147509813E-2,8.985097408E-1,-9.683237076E-1
1.640496854E1,4.936364889E-1,1.016465187E0,-9.484291077E-1
1.642502896E1,8.410344124E-1,8.979144096E-1,-6.285362244E-1
1.644508938E1,7.115808725E-1,8.332388401E-1,4.524183273E-1
1.646514958E1,3.551126719E-1,9.130787849E-1,1.803010941E0
1.648520948E1,4.096564949E-1,1.012544632E0,3.198206902E0
1.650526938E1,8.395981789E-1,1.018852711E0,4.255400658E0
1.652532927E1,7.842673063E-1,9.325959682E-1,3.985760689E0
1.654538917E1,4.640430808E-1,2.217884064E-1,3.655251503E0
1.656544906E1,4.876016974E-1,-1.162897706E0,4.305820465E0
1.658550896E1,7.437418699E-1,-2.420313835E0,4.452404976E0
1.660556885E1,5.961470604E-1,-2.726054192E0,1.985294342E0
1.662562875E1,2.821633220E-1,-2.184779406E0,-1.213614464E0
1.664568880E1,1.716981828E-1,-1.622335792E0,-3.864514351E0
1.666574922E1,5.418726802E-1,-1.340218186E0,-5.372512817E0
1.668580964E1,9.139149189E-1,-1.188321829E0,-4.957828999E0
1.670587005E1,3.265371621E-1,-1.298724651E0,-2.976588249E0
1.672593000E1,-5.284262300E-1,-1.585873604E0,-1.247028351E0
1.674598990E1,-1.152395606E0,-1.570910215E0,3.075332642E-1
1.676604979E1,-1.026077747E0,-1.377882481E0,8.243770599E-1
1.678610974E1,-1.220888197E-1,-8.628309965E-1,-2.364673615E-1
1.680616912E1,8.776915669E-1,-4.337608814E-1,-1.475248814E0
1.682622927E1,1.395907760E0,-4.012370110E-1,-1.272003174E0
1.684628969E1,1.495011330E0,-4.775454998E-1,-4.993133545E-1
1.686635010E1,1.462415934E0,-1.480989456E-1,-8.999814987E-1
1.688640828E1,1.261488557E0,3.962152004E-1,-1.412473679E0
1.690646943E1,7.281235456E-1,5.365736485E-1,-9.732179642E-1
1.692653042E1,2.183764875E-1,5.814042091E-1,-5.617237091E-2
1.694659031E1,1.073517650E-2,5.291240215E-1,6.327676773E-1
1.696665021E1,-1.076531485E-1,3.979172707E-1,8.742494583E-1
1.698670885E1,-9.740098715E-1,5.246300697E-1,9.381284714E-1
1.700677005E1,-1.804334044E0,6.365816593E-1,1.210779190E0
1.702683063E1,-2.012233496E0,5.789756775E-1,1.508838654E0
1.704689052E1,-1.845185995E0,4.423971176E-1,2.188457489E0
1.706695042E1,-1.735846519E0,4.329624176E-1,2.190047264E0
1.708701031E1,-1.681751728E0,2.237474918E-1,1.145274162E0
1.710707021E1,-1.752302885E0,-4.474059343E-1,1.857648849E0
1.712713010E1,-1.057638884E0,-1.408603430E0,3.402031898E0
1.714719000E1,-3.081510067E-1,-1.783270359E0,4.520682335E0
1.716724990E1,-7.923997045E-1,-1.215886831E0,2.874836922E0
1.718730979E1,-1.279866934E0,-7.469809055E-1,-7.161750793E-1
1.720737010E1,-8.151730895E-1,-4.630146027E-1,-3.378891945E0
1.722743052E1,-2.536751628E-1,-3.377897739E-1,-4.254976273E0
1.724749094E1,-7.016356587E-1,-3.461129665E-1,-3.636667728E0
1.726755115E1,-9.884553552E-1,-1.527161598E-1,-2.726833820E0
1.728761104E1,-4.923477173E-1,-2.069993019E-1,-2.253423691E0
1.730767094E1,1.739561856E-1,-2.409808636E-1,-1.590196133E0
1.732773083E1,4.749872983E-1,-2.844810486E-1,-8.755865097E-1
1.734779073E1,5.855041742E-1,-2.641735077E-1,-4.323348999E-1
1.736785063E1,5.149918795E-1,-9.696924686E-2,-1.190204620E-1
1.738791052E1,3.498383164E-1,1.802462339E-1,2.073268890E-1
1.740797042E1,-1.680042446E-1,6.264929771E-1,6.512546539E-2
1.742803031E1,-4.383382201E-1,9.911248684E-1,1.700077057E-1
1.744809042E1,-3.499263227E-1,1.129532337E0,2.562351227E-1
1.746815083E1,-3.209714293E-1,1.248981953E0,2.005653381E-1
1.748821125E1,-1.625273526E-1,1.381369352E0,5.803108215E-3
1.750827162E1,8.228760958E-2,1.436940670E0,-2.589063644E-1
1.752833151E1,-2.750771642E-1,1.160278320E0,6.496562958E-1
1.754839123E1,-4.168365598E-1,1.013771296E0,1.736722946E0
1.756845112E1,-1.028055549E-1,9.032535553E-1,1.996815681E0
1.758851149E1,-1.044018865E-1,7.812790871E-1,1.860322952E0
1.760857138E1,-2.700623870E-2,7.702374458E-1,2.017811775E0
1.762863128E1,4.640224278E-1,8.175327778E-1,1.689334869E0
1.764869118E1,5.466061831E-1,6.540267467E-1,5.059690475E-1
1.766875107E1,2.654477656E-1,-7.703454494E-1,6.525449753E-1
1.768881123E1,5.941064358E-1,-2.166857243E0,2.853157043E0
1.770887060E1,6.314934492E-1,-2.755564928E0,4.002551079E0
1.772893086E1,-1.457825303E-1,-2.468967438E0,1.429658890E0
1.774899128E1,3.738967478E-1,-1.776296616E0,-1.700174809E0
1.776905170E1,9.413012266E-1,-1.204080701E0,-3.778502941E0
1.778911185E1,1.565055013E0,-1.204327822E0,-4.239772797E0
1.780917175E1,1.693901658E0,-1.296918392E0,-2.498761177E0
1.782923164E1,4.540162981E-1,-1.511435628E0,-1.133794785E0
1.784929154E1,-5.734588504E-1,-1.537301302E0,1.576261520E-1
1.786935144E1,-8.647342324E-1,-1.367771268E0,8.154163361E-1
1.788941133E1,-3.914417028E-1,-1.004718900E0,6.585083008E-1
1.790947123E1,2.864248753E-1,-5.422482491E-1,-3.432559967E-1
1.792953112E1,7.674150467E-1,-1.090917587E-1,-1.264058113E0
1.794959102E1,8.335287571E-1,1.902689934E-1,-1.604420185E0
1.796965092E1,9.047164321E-1,5.371818542E-1,-1.432548523E0
1.798971133E1,5.031497478E-1,7.409973145E-1,-1.054848671E0
1.800977175E1,4.038835466E-1,7.395343781E-1,-5.524902344E-1
1.802983217E1,6.327791214E-1,5.223875046E-1,2.690610886E-1
1.804989222E1,1.215438604E0,4.248702526E-1,6.931571960E-1
1.806995211E1,1.134499550E0,3.405308723E-1,4.671783447E-1
1.809001201E1,6.234187484E-1,1.100864410E-1,3.172912598E-1
1.811007190E1,-3.416787982E-1,8.349895477E-3,1.087684631E0
1.813013180E1,-5.299193263E-1,-5.560922623E-2,1.626578331E0
1.815019170E1,-8.759874105E-2,-1.327526569E-1,1.613538742E0
1.817025159E1,1.766368151E-1,-6.881427765E-2,1.714235306E0
1.819031149E1,-2.405272126E-1,2.009105682E-1,1.442713737E0
1.821037138E1,-2.622159123E-1,6.167314053E-1,7.337913513E-1
1.823043128E1,-6.219955683E-1,5.816326141E-1,4.178781509E-1
1.825049123E1,-1.483134747E0,2.029109001E-2,2.006656647E0
1.827055164E1,-1.741932511E0,-7.682260275E-1,3.517868996E0
1.829061206E1,-1.839031935E0,-1.064416409E0,3.170116425E0
1.831067248E1,-1.372550607E0,-1.186284781E0,1.658220291E-1
1.833073237E1,-9.969331622E-1,-1.194932699E0,-2.315663815E0
1.835079227E1,-5.249114037E-1,-1.075792789E0,-2.652503967E0
1.837085217E1,-9.502121806E-1,-7.919908762E-1,-2.312623978E0
1.839091206E1,-1.467258930E0,-4.686625004E-1,-1.826036930E0
1.841097196E1,-1.354556084E0,-2.721536160E-1,-7.998514175E-1
1.843103185E1,-4.637566805E-1,-1.565189362E-1,-7.413864136E-3
1.845109175E1,3.226202130E-1,-9.251642227E-2,-7.642908096E-1
1.847115164E1,6.147601008E-1,1.232790947E-1,-1.542904377E0
1.849121154E1,5.914992690E-1,4.374516010E-1,-1.586692333E0
1.851127144E1,3.683812618E-1,6.796920300E-1,-1.299739838E0
1.853133133E1,3.068678379E-1,9.446206093E-1,-8.906307220E-1
1.855139149E1,-1.875500083E-1,9.983232021E-1,-8.908672333E-1
1.857145190E1,-4.109250307E-1,1.148028612E0,-6.222200394E-1
1.859151232E1,-2.282565832E-1,1.098582029E0,-4.576530457E-1
1.861157248E1,1.482046247E-1,9.326007366E-1,-4.481573105E-1
1.863163237E1,4.523363709E-1,8.758430481E-1,-3.461828232E-1
1.865169227E1,2.927921116E-1,7.817623615E-1,-2.659206390E-1
1.867175216E1,1.239609718E-2,5.707075596E-1,4.512777328E-1
1.869181206E1,-4.997530580E-2,2.785282135E-1,1.764522552E0
1.871187196E1,3.661905527E-1,1.778967381E-1,2.873862267E0
1.873193185E1,1.122853458E-1,-2.480030060E-3,3.299173355E0
1.875199175E1,2.487082183E-1,1.262180805E-1,3.048262596E0
1.877205248E1,8.091196418E-1,3.526606560E-1,1.612616539E0
1.879211237E1,9.196476340E-1,6.451296806E-2,5.378589630E-1
1.881217227E1,7.033467293E-1,-1.003126144E0,1.693804741E0
1.883223216E1,2.786655426E-1,-2.364205837E0,4.075429916E0
1.885229206E1,2.099263668E-1,-3.045989752E0,4.400623322E0
1.887235237E1,2.004015744E-1,-2.625085592E0,7.092332840E-1
1.889241097E1,5.805027485E-1,-1.826328039E0,-2.630212307E0
1.891247190E1,7.728795409E-1,-1.339488745E0,-4.851488590E0
1.893253227E1,1.154049635E0,-1.237940550E0,-4.627463341E0
1.895259217E1,8.506282568E-1,-1.361466646E0,-2.802520275E0
1.897265227E1,-1.768906116E-1,-1.523208380E0,-1.212628365E0
1.899270941E1,-5.599008799E-1,-1.615456462E0,2.458810806E-1
1.901277222E1,-5.106165409E-1,-1.433708310E0,1.075138092E0
1.903283211E1,-1.390407681E-1,-1.134320974E0,8.421621323E-1
1.905289201E1,4.912197590E-1,-6.666605473E-1,-1.779384613E-1
1.907295190E1,7.009602785E-1,-2.505421638E-1,-7.627735138E-1
1.909301180E1,7.564412355E-1,3.260040283E-2,-1.224930763E0
1.911307170E1,4.327496290E-1,3.570628166E-1,-1.078488350E0
1.913313159E1,2.770225108E-1,5.595281124E-1,-9.066524506E-1
1.915319149E1,2.890484035E-1,5.945625305E-1,-4.750137329E-1
1.917325138E1,3.561367691E-1,4.971783161E-1,-1.955213547E-1
1.919331128E1,5.313281417E-1,3.107838631E-1,1.150054932E-1
1.921337118E1,7.790029049E-1,8.151268959E-2,4.871978760E-1
1.923343107E1,7.846327424E-1,-1.200675964E-1,6.256370544E-1
1.925349097E1,5.272918940E-2,-2.034125328E-1,7.440519333E-1
1.927355086E1,-8.233698606E-1,-7.810688019E-2,1.181458473E0
1.929361076E1,-8.039534688E-1,3.162860870E-2,1.528182030E0
1.931367066E1,-7.172264457E-1,1.162881851E-1,1.694126129E0
1.933373055E1,-1.225057602E0,2.886185646E-1,1.821928024E0
1.935379045E1,-1.362389445E0,2.988226414E-1,2.007868767E0
1.937385034E1,-1.065405250E0,2.308065891E-1,1.743811607E0
1.939391024E1,-7.280387878E-1,-4.240775108E-2,1.721599579E0
1.941397024E1,-6.389710903E-1,-5.995329618E-1,2.003282547E0
1.943403066E1,-3.005516529E-1,-1.004737496E0,2.004911423E0
1.945409107E1,-1.479375362E-2,-1.140489101E0,6.762685776E-1
1.947415123E1,4.438209534E-2,-1.045886755E0,-7.323780060E-1
1.949421112E1,-2.120732069E-1,-9.038739204E-1,-1.999586582E0
1.951427102E1,-4.353610277E-1,-8.724433184E-1,-2.322782516E0
1.953433092E1,-6.823561192E-1,-8.294517994E-1,-2.025605202E0
1.955439081E1,-4.368840456E-1,-6.451262236E-1,-1.961010456E0
1.957445071E1,-1.359466314E-1,-2.013499737E-1,-1.866631031E0
1.959451060E1,2.560718656E-1,8.909702301E-3,-1.070463181E0
1.961457050E1,4.475523829E-1,-7.759678364E-2,-3.419981003E-1
1.963463039E1,7.387838960E-1,-1.116571426E-1,-6.058979034E-2
1.965469029E1,4.573984742E-1,6.853532791E-2,2.470664978E-1
1.967475066E1,1.103481650E-1,4.480255842E-1,2.273235321E-1
1.969481055E1,-3.079278171E-1,7.234117985E-1,-3.633165359E-1
1.971487045E1,-6.052414775E-1,9.643750191E-1,-8.795433044E-1
1.973493034E1,-6.059906483E-1,1.149848461E0,-1.179096222E0
1.975499024E1,-5.423244238E-1,1.173637629E0,-1.537506104E0
1.977505013E1,-2.472520471E-1,1.086372375E0,-1.056455612E0
1.979511003E1,-1.967579126E-2,9.475264549E-1,-4.254817963E-1
1.981516993E1,1.550961733E-1,9.149010181E-1,-4.027757645E-1
1.983522982E1,1.550063491E-2,9.191987514E-1,-5.269641876E-1
1.985528972E1,8.726233244E-2,6.629114151E-1,5.256805420E-1
1.987534961E1,2.624045014E-1,4.547860622E-1,1.867042542E0
1.989540951E1,-3.507137299E-4,2.992477417E-1,2.272866249E0
1.991546940E1,-2.632967830E-1,8.107686043E-2,2.423563957E0
1.993552930E1,3.425393105E-1,-4.114437103E-2,3.274036407E0
1.995558920E1,5.761521459E-1,1.125290394E-1,3.483793259E0
1.997564909E1,7.211614847E-1,2.139928341E-1,2.216967583E0
1.999570899E1,3.727842569E-1,-3.217546940E-1,1.481248856E0
2.001576888E1,3.354202211E-1,-1.320694804E0,2.071711540E0
2.003582878E1,2.472350150E-1,-2.249269962E0,2.455159187E0
2.005588868E1,4.031959772E-1,-2.421411276E0,1.027555466E0
2.007594857E1,4.796734452E-1,-2.101577759E0,-1.406608582E0
2.009600847E1,5.668442249E-1,-1.802888274E0,-3.387387753E0
2.011606836E1,1.103627682E0,-1.684019327E0,-3.911841393E0
2.013612826E1,1.282509565E0,-1.752072334E0,-3.014612675E0
2.015618816E1,3.796469569E-1,-1.713421345E0,-1.617428303E0
2.017624805E1,-3.623621762E-1,-1.624151945E0,-7.224016190E-1
2.019630795E1,-4.340223670E-1,-1.223796248E0,4.596204758E-1
2.021636784E1,-3.807192445E-1,-7.166812420E-1,5.756816864E-1
2.023642774E1,1.541442871E-1,-2.397941351E-1,-7.062377930E-1
2.025648763E1,5.016968846E-1,2.501416206E-2,-1.067740440E0
2.027654753E1,6.246684790E-1,1.313395500E-1,-4.085102081E-1
2.029660742E1,3.716636896E-1,2.299044132E-1,-5.224800110E-2
2.031666732E1,-4.159092903E-3,4.945414066E-1,-4.421482086E-1
2.033672722E1,-3.374670148E-1,7.083401680E-1,-7.319974899E-1
2.035678711E1,1.314199567E-1,6.379272938E-1,-4.880828857E-1
2.037684701E1,3.015518486E-1,4.247179031E-1,-1.918992996E-1
2.039690690E1,3.892176449E-1,3.186371326E-1,1.747426987E-1
2.041696680E1,3.264915347E-1,2.191712856E-1,3.044424057E-1
2.043702670E1,-8.402538300E-2,-6.662964821E-2,8.337202072E-1
2.045708659E1,-5.745980740E-1,-2.347503901E-1,1.513527870E0
2.047714649E1,-8.496110439E-1,-1.659491062E-1,1.743208885E0
2.049720638E1,-9.007911086E-1,-1.419687271E-2,1.464803696E0
2.051726628E1,-8.596925735E-1,2.484471798E-1,1.501210213E0
2.053732618E1,-8.871947527E-1,5.177984238E-1,1.380864143E0
2.055738607E1,-9.891839027E-1,6.602602005E-1,1.371885300E0
2.057744597E1,-1.232522607E0,2.619640827E-1,2.035262108E0
2.059750586E1,-1.186625957E0,-7.263795137E-1,3.503560066E0
2.061756576E1,-1.010969281E0,-1.599565506E0,4.675928116E0
2.063762566E1,-2.815956473E-1,-1.767910719E0,2.057607651E0
2.065768555E1,-2.060830593E-3,-1.765929699E0,-1.964484692E0
2.067774545E1,3.493005037E-1,-1.689573765E0,-4.241704941E0
2.069780534E1,4.316033423E-1,-1.460851908E0,-4.241792202E0
2.071786524E1,-2.493499517E-1,-9.723054171E-1,-3.139884949E0
2.073792513E1,-7.714360952E-1,-5.915473700E-1,-2.284947395E0
2.075798503E1,-1.333342195E-1,-5.077577829E-1,-5.988168716E-1
2.077804592E1,5.576335788E-1,-5.087134838E-1,3.179149628E-1
2.079810581E1,6.738322973E-1,-3.413792849E-1,2.762813568E-1
2.081816571E1,3.150708079E-1,-3.187656403E-3,-4.468307495E-1
2.083822560E1,1.355755329E-2,4.374706745E-1,-8.383951187E-1
2.085828550E1,-2.342869639E-1,7.937090397E-1,-9.548683167E-1
2.087834305E1,-4.077970386E-1,1.117489338E0,-1.038060188E0
2.089840289E1,-6.194580197E-1,1.372456431E0,-1.054143906E0
2.091846513E1,-7.241948247E-1,1.427552819E0,-9.225358963E-1
2.093852503E1,-5.053238869E-1,1.340960741E0,-8.419961929E-1
2.095858492E1,-1.300364733E-2,1.184672594E0,-9.189815521E-1
2.097864482E1,5.164555907E-1,9.607863426E-1,-6.381769180E-1
2.099870472E1,7.445570230E-1,7.772073746E-1,-1.046228409E-1
2.101876461E1,3.134123981E-1,6.451659203E-1,6.051845551E-1
2.103882451E1,1.636984348E-1,5.400552750E-1,1.750224113E0
2.105888440E1,1.103955805E-1,3.704798222E-1,2.479025841E0
2.107894430E1,-2.949168682E-1,-1.039433479E-2,2.771542549E0
2.109900373E1,1.686572097E-2,-1.251022816E-1,3.939661026E0
2.111906310E1,1.361782551E-1,1.780576706E-1,4.208005905E0
2.113912269E1,1.101663783E-1,3.580238819E-1,2.105164528E0
2.115918258E1,-3.121510744E-1,-2.635512352E-1,1.501858711E0
2.117924248E1,-4.752629995E-1,-1.438893557E0,2.449629784E0
2.119930237E1,-6.291840672E-1,-2.462662697E0,2.585750580E0
2.121936227E1,-2.565360069E-1,-2.690131187E0,8.191251755E-1
2.123942216E1,6.288594007E-1,-2.393121243E0,-2.345668793E0
2.125948206E1,5.839883685E-1,-1.857619882E0,-4.683329105E0
2.127954196E1,7.922381759E-1,-1.578394771E0,-4.958741188E0
2.129960185E1,3.181066215E-1,-1.484642625E0,-3.184246540E0
2.131966175E1,-6.661369205E-1,-1.380786896E0,-1.284710884E0
2.133972164E1,-7.806675434E-1,-1.344920635E0,2.585372925E-1
2.135978154E1,-4.422788620E-1,-1.101876140E0,1.262169838E0
2.137984144E1,2.120741010E-1,-7.727143764E-1,9.355039597E-1
2.139990133E1,6.640224457E-1,-3.371487856E-1,-1.642227173E-2
2.141996123E1,8.662394285E-1,-7.279872894E-2,-7.440061569E-1
2.144002112E1,8.671829700E-1,-9.626626968E-2,-9.342975616E-1
2.146008102E1,7.235599160E-1,1.334905624E-2,-6.431493759E-1
2.148014092E1,1.729224920E-1,1.428062916E-1,-5.433206558E-1
2.150020081E1,-2.753984332E-1,3.667907715E-1,-5.488500595E-1
2.152026071E1,-5.985234976E-1,3.669159412E-1,-6.522064209E-1
2.154032060E1,-3.607942462E-1,2.623686790E-1,-3.692302704E-1
2.156038050E1,-1.495990157E-1,1.339783669E-1,-1.020622253E-1
2.158044133E1,-2.849339843E-1,5.109238625E-2,2.563467026E-1
2.160050071E1,-9.398798347E-1,2.106568813E-1,5.213747025E-1
2.162056008E1,-1.387001991E0,2.186126709E-1,9.875974655E-1
2.164061982E1,-1.629237056E0,3.425149918E-1,1.562304497E0
2.166067972E1,-1.186054230E0,4.742281437E-1,1.683917046E0
2.168074081E1,-8.751842380E-1,3.976445198E-1,1.617390633E0
2.170080071E1,-7.844152451E-1,2.319016457E-1,2.124954224E0
2.172086060E1,-6.367187500E-1,-1.085932255E-1,2.176259995E0
2.174092050E1,-7.740057707E-1,-6.689058542E-1,2.238216400E0
2.176098039E1,-7.186635733E-1,-1.322956920E0,2.650568008E0
2.178103977E1,-3.145867586E-1,-1.637226343E0,2.617243767E0
2.180109914E1,2.575845718E-1,-1.701619148E0,1.018754959E0
2.182115878E1,6.381059885E-1,-1.582702160E0,-1.327729225E0
2.184121868E1,3.041998148E-1,-1.234858751E0,-3.349668503E0
2.186127857E1,-4.470619559E-1,-7.491916418E-1,-3.117162228E0
2.188133847E1,-9.368706942E-1,-3.373495340E-1,-2.657629490E0
2.190139836E1,-1.055011988E0,4.380273819E-2,-2.594407082E0
2.192145826E1,-7.206557989E-1,3.307149410E-1,-2.005666256E0
2.194151816E1,-3.009528518E-1,3.226451874E-1,-9.730243683E-1
2.196157805E1,8.944910765E-2,1.846328974E-1,-5.160140991E-1
2.198163795E1,2.454525530E-1,1.172883511E-1,-3.767185211E-1
2.200169784E1,4.157328606E-1,1.729749441E-1,-2.857599258E-1
2.202175774E1,4.207781851E-1,3.089551926E-1,-1.666717529E-1
2.204181763E1,2.173085213E-1,6.419317722E-1,-5.307264328E-1
2.206187753E1,-1.664277315E-1,1.016315222E0,-1.038303375E0
2.208193743E1,-2.223765850E-2,1.234560251E0,-1.325051308E0
2.210199732E1,-6.021571159E-2,1.245552778E0,-7.421064377E-1
2.212205722E1,-1.202708483E-2,1.108873248E0,-1.568574905E-1
2.214211711E1,4.457739890E-1,9.581646919E-1,-4.800224304E-2
2.216217701E1,6.541358829E-1,7.411708832E-1,2.763204575E-1
2.218223690E1,3.337416053E-2,5.810868740E-1,1.647274017E0
2.220229680E1,-3.073085546E-1,4.890036583E-1,3.104366302E0
2.222235670E1,-4.767840803E-1,2.275745869E-1,3.356990814E0
2.224241659E1,-5.100842714E-1,-3.814554214E-2,3.659106255E0
2.226247649E1,6.729374826E-2,-6.374812126E-2,4.480682373E0
2.228253638E1,4.204053879E-1,5.543565750E-2,3.252964020E0
2.230259628E1,2.422548831E-3,3.711867332E-2,1.362147331E0
2.232265618E1,-3.570686579E-1,-9.612988234E-1,1.097625732E0
2.234271607E1,-3.288593292E-1,-2.165414333E0,2.280054092E0
2.236277597E1,-4.075564444E-2,-2.680181980E0,1.496859550E0
2.238283586E1,1.950555444E-1,-2.444873571E0,-8.978729248E-1
2.240289576E1,3.856433034E-1,-2.154644251E0,-3.026579380E0
2.242295566E1,2.934897542E-1,-1.746367097E0,-3.812317848E0
2.244301555E1,2.710454464E-1,-1.566174865E0,-2.849514008E0
2.246307545E1,-2.700086534E-1,-1.603036165E0,-1.655463696E0
2.248313534E1,-7.659729719E-1,-1.491342664E0,-8.533668518E-1
2.250319524E1,-9.985484481E-1,-1.075735331E0,-2.017297745E-1
2.252325513E1,-9.010804892E-1,-6.473813057E-1,-2.808904648E-1
2.254331503E1,-5.596930981E-1,-3.278179169E-1,-1.191026688E0
2.256337492E1,-1.590184569E-1,-7.900857925E-2,-1.819490910E0
2.258343482E1,2.255726457E-1,-3.254318237E-2,-1.673449516E0
2.260349472E1,2.538270950E-1,8.072304726E-2,-1.387815475E0
2.262355461E1,9.419608116E-2,2.301092148E-1,-1.023981094E0
2.264361451E1,-5.792140961E-2,3.692243099E-1,-7.642593384E-1
2.266367441E1,-2.507778406E-1,3.470761776E-1,-3.454122543E-1
2.268373430E1,-4.144930840E-2,2.754304409E-1,3.373899460E-1
2.270379420E1,3.132804036E-1,2.927873135E-1,5.503320694E-1
2.272385409E1,1.938673258E-1,2.681472301E-1,6.624927521E-1
2.274391399E1,2.179622650E-3,2.137789726E-1,1.094847679E0
2.276397388E1,-1.611559391E-1,1.003859043E-1,1.331572533E0
2.278403154E1,-8.516414165E-1,1.098086834E-1,1.515431404E0
2.280409331E1,-1.285412550E0,3.794291019E-1,1.964976311E0
2.282415352E1,-1.417351007E0,6.538152695E-1,2.207297325E0
2.284421289E1,-1.466643691E0,7.560765743E-1,2.088457108E0
2.286427227E1,-1.508221269E0,6.205751896E-1,1.723938942E0
2.288433336E1,-1.141331434E0,-6.360244751E-2,2.574013710E0
2.290439289E1,-5.130090714E-1,-8.677877188E-1,3.507879257E0
2.292445227E1,1.657658815E-1,-1.362154126E0,2.210153580E0
2.294451164E1,4.469211102E-1,-1.416803241E0,5.704708099E-1
2.296457154E1,4.480124712E-1,-1.355453014E0,-1.083029747E0
2.298463144E1,4.128098488E-1,-1.395293236E0,-2.201072693E0
2.300469133E1,2.024772167E-1,-1.264493227E0,-2.127027988E0
2.302475123E1,-3.177334070E-1,-1.108896494E0,-1.796196938E0
2.304481112E1,-4.732072353E-2,-1.011137247E0,-1.205793381E0
2.306487102E1,5.484352112E-1,-7.868971825E-1,-9.314393997E-1
2.308493092E1,7.516773343E-1,-5.200297832E-1,-1.490869999E0
2.310499081E1,8.140171766E-1,-1.619346142E-1,-2.117990494E0
2.312505071E1,6.146955490E-1,1.768894196E-1,-2.050833702E0
2.314511060E1,5.263563991E-1,4.971437454E-1,-1.393416882E0
2.316517050E1,3.078343868E-1,6.489124298E-1,-1.168035507E0
2.318523039E1,3.861142397E-1,7.400207520E-1,-7.048282623E-1
2.320529029E1,2.045660019E-1,9.134743214E-1,-4.084768295E-1
2.322535019E1,-2.644845247E-1,9.673409462E-1,-3.064641953E-1
2.324541008E1,-4.006134868E-1,1.045575380E0,-1.852464676E-1
2.326546998E1,-6.118673086E-2,1.112984180E0,-2.288360596E-1
2.328552987E1,7.323956490E-2,9.005072117E-1,-3.727130890E-1
2.330558977E1,-3.859663010E-1,7.400460243E-1,4.408960342E-1
2.332564966E1,-6.457792521E-1,5.476737022E-1,1.832147598E0
2.334570956E1,-3.385832906E-1,1.533048153E-1,2.885869026E0
2.336576946E1,-4.225380421E-1,-1.745555401E-1,2.396889687E0
2.338582935E1,6.972014904E-2,-1.543335915E-1,2.606085777E0
2.340588925E1,8.162131906E-1,-5.261588097E-2,2.042829514E0
2.342594862E1,1.177662373E0,-8.493280411E-2,1.045735359E0
2.344600800E1,5.328813195E-1,-8.706264496E-1,1.964315414E0
2.346606748E1,1.755789816E-1,-1.734605432E0,4.257728577E0
2.348612847E1,5.086370707E-1,-2.175338984E0,4.465265274E0
2.350618784E1,3.997967541E-1,-1.996789455E0,9.989738464E-1
2.352624722E1,8.235361576E-1,-1.423676014E0,-1.803125381E0
2.354630675E1,9.289273024E-1,-1.262278795E0,-2.910124779E0
2.356636664E1,1.048644543E0,-1.165536642E0,-2.278203487E0
2.358642758E1,5.364301801E-1,-1.177741528E0,-1.344754219E0
2.360648696E1,1.637942791E-1,-1.203419209E0,-4.031419754E-1
2.362654633E1,-1.111396551E-1,-1.246520281E0,-1.620874405E-1
2.364660586E1,-3.711059690E-1,-1.043112278E0,-1.478719711E-1
2.366666576E1,-9.670490026E-2,-8.268887997E-1,-4.798440933E-1
2.368672644E1,2.745960951E-1,-6.606059074E-1,-1.177122116E0
2.370678581E1,4.075577259E-1,-5.064873695E-1,-1.692437172E0
2.372684519E1,8.497511148E-1,-4.274616241E-1,-1.844547272E0
2.374690498E1,1.037566066E0,-2.470197678E-1,-2.047779560E0
2.376696487E1,5.844792128E-1,4.389047623E-3,-1.669356346E0
2.378702477E1,4.402168989E-1,3.626084328E-2,-1.051188469E0
2.380708466E1,4.778792560E-1,-3.162455559E-2,-2.469396591E-1
2.382714456E1,6.863691807E-1,-5.983233452E-2,4.670372009E-1
2.384720446E1,6.508339047E-1,-1.000120640E-1,6.787357330E-1
2.386726435E1,1.359226704E-1,-3.998942375E-1,5.836305618E-1
2.388732425E1,-6.152465343E-1,-5.106756687E-1,5.287666321E-1
2.390738414E1,-1.005798101E0,-5.811481476E-1,6.630716324E-1
2.392744404E1,-1.756582022E0,-6.050865650E-1,1.505576134E0
2.394750394E1,-2.924600363E0,-1.740581989E-1,3.003664970E0
2.396756383E1,-2.390416384E0,1.389448643E-1,3.051278114E0
2.398762373E1,-1.759460568E0,2.032897472E-1,1.685806274E0
2.400768362E1,-1.513138890E0,-4.582238197E-2,1.673796654E0
2.402774305E1,-1.400235057E0,-7.975854874E-1,3.351123810E0
2.404780242E1,-4.534710646E-1,-1.260156393E0,3.712790489E0
2.406786180E1,6.440269947E-2,-1.294938207E0,1.962485313E0
2.408792164E1,-8.384466171E-2,-1.033879757E0,-4.556083679E-2
2.410798154E1,-5.380096436E-1,-9.536650181E-1,-1.524753094E0
2.412804144E1,-7.907240391E-1,-7.736668587E-1,-2.130033970E0
2.414810133E1,-8.115937710E-1,-7.124011517E-1,-2.763192654E0
2.416816123E1,-5.700862408E-1,-5.753612518E-1,-3.160226822E0
2.418822112E1,2.141216993E-1,-4.092965126E-1,-3.031513691E0
2.420828102E1,6.116268635E-1,-2.148587704E-1,-2.691343784E0
2.422834076E1,8.240112662E-1,-1.138689518E-1,-2.119637966E0
2.424839987E1,5.586267114E-1,-5.885362625E-3,-1.845812321E0
2.426845977E1,6.719071865E-1,2.007300854E-1,-1.277946472E0
2.428852055E1,6.683408022E-1,2.599248886E-1,-7.560195923E-1
2.430857992E1,6.381639838E-1,4.850931168E-1,-2.215709686E-1
2.432863930E1,4.109477401E-1,6.985213757E-1,-5.381402969E-1
2.434869883E1,5.112993121E-1,7.963070869E-1,-7.873058319E-2
2.436875873E1,3.696256578E-1,9.312074184E-1,4.146308899E-1
2.438881862E1,2.125108242E-1,1.036150694E0,4.265279770E-1
2.440887852E1,3.410027623E-1,1.228499174E0,2.799930573E-1
2.442893842E1,3.490877151E-1,1.161235571E0,1.714572906E-1
2.444899831E1,-1.392747462E-1,9.115915298E-1,1.546312332E0
2.446905821E1,-1.053853631E-1,7.919459343E-1,2.829320908E0
2.448911597E1,-1.330485642E-1,3.900017738E-1,3.204450607E0
2.450917789E1,-5.173623562E-3,1.698746681E-1,3.416694641E0
2.452923779E1,9.057173729E-1,-1.086807251E-2,3.627265930E0
2.454929717E1,1.536511302E0,8.279275894E-2,2.649132729E0
2.456935654E1,1.470797896E0,-6.717419624E-2,2.448783875E0
2.458941618E1,3.146227002E-1,-6.715390682E-1,3.592911720E0
2.460947607E1,-9.313793778E-1,-1.267676592E0,4.096273422E0
2.462953597E1,-1.131225824E0,-1.337612510E0,1.698267937E0
2.464959586E1,-3.929610848E-1,-1.049306154E0,-1.030872345E0
2.466965576E1,-1.319574118E-1,-8.472945690E-1,-2.765362263E0
2.468971566E1,-1.507702470E-2,-9.179956913E-1,-2.631500244E0
2.470977555E1,-3.104080260E-1,-1.136503458E0,-2.167072296E0
2.472983545E1,-7.190085649E-1,-1.290965080E0,-2.127054214E0
2.474989534E1,-8.794927001E-1,-1.706364870E0,-1.393766403E0
2.476995524E1,-6.793088913E-1,-2.145108700E0,2.919797897E-1
2.479001258E1,-2.821778059E-1,-2.081269503E0,1.281054497E0
2.481007414E1,7.512772083E-2,-1.638420582E0,1.197652817E-1
2.483013430E1,1.947606206E-1,-1.194455385E0,-1.338278294E0
2.485019368E1,2.716281414E-1,-8.522977829E-1,-2.192780018E0
2.487025362E1,4.491805434E-1,-5.946812630E-1,-2.716938972E0
2.489030982E1,2.649427652E-1,-3.544874191E-1,-2.744844913E0
2.491037357E1,5.429941416E-2,-9.556937218E-2,-2.457877159E0
2.493043310E1,1.347029805E-1,-4.665851593E-3,-1.790830612E0
2.495049248E1,3.926486373E-1,5.034017563E-2,-5.047292709E-1
2.497055248E1,5.274158716E-1,2.175776958E-1,5.965518951E-2
2.499061237E1,3.972454965E-1,1.180708408E-1,1.167373657E-1
2.501067175E1,-7.931464911E-2,7.964301109E-2,9.386634827E-1
2.503073112E1,-3.901492357E-1,4.710054398E-2,1.755833626E0
2.505079066E1,-7.174875140E-1,1.627659798E-2,2.524827957E0
2.507085144E1,-9.076511264E-1,3.343932629E-1,2.967612267E0
2.509091112E1,-9.232612848E-1,7.574529648E-1,2.717002869E0
2.511097050E1,-8.868553042E-1,9.472329617E-1,1.433114052E0
2.513102987E1,-1.511348724E0,6.519219875E-1,1.417547226E0
2.515108940E1,-1.888154745E0,-2.152609825E-2,3.128858566E0
2.517114930E1,-1.593228936E0,-7.466495037E-1,4.614308357E0
2.519120920E1,-1.447331429E0,-6.585853100E-1,2.916084290E0
2.521126909E1,-1.437071204E0,-4.522738457E-1,-4.276266098E-1
2.523132899E1,-1.321645975E0,-3.513870239E-1,-3.129369259E0
2.525138888E1,-1.121411800E0,-4.909861088E-1,-4.231457233E0
2.527144967E1,-1.206331491E0,-7.172970772E-1,-3.380715847E0
2.529150555E1,-1.354178786E0,-9.056880474E-1,-2.229022026E0
2.531156852E1,-9.263625145E-1,-9.120171070E-1,-1.262444019E0
2.533162789E1,-2.403295040E-2,-6.504497528E-1,-9.361629486E-1
2.535168727E1,3.204973936E-1,-3.557822704E-1,-1.102479935E0
2.537174737E1,4.120560884E-1,-9.997820854E-2,-1.400076389E0
2.539180717E1,3.645134568E-1,1.237454414E-1,-1.222959995E0
2.541186654E1,4.863369167E-1,2.399208546E-1,-6.830186844E-1
2.543192592E1,4.446989298E-1,3.809282780E-1,-4.302539825E-1
2.545198545E1,1.558899879E-1,7.536535263E-1,-7.341117859E-1
2.547204623E1,-1.620674729E-1,1.048154116E0,-1.140388489E0
2.549210586E1,-3.727539182E-1,1.102760792E0,-1.038765907E0
2.551216524E1,-4.883427620E-1,1.039991617E0,-5.602455139E-1
2.553222461E1,-3.892379403E-1,1.142887831E0,-4.110288620E-1
2.555228409E1,3.429830074E-2,1.121811390E0,-8.180294037E-1
2.557234399E1,-1.874070764E-1,8.674321175E-1,-3.082885742E-1
2.559240388E1,-1.984700561E-1,6.681151390E-1,9.725093842E-1
2.561246378E1,-1.320602894E-1,5.839743614E-1,2.159115791E0
2.563252368E1,-1.395254135E-1,3.690891266E-1,2.156656265E0
2.565258357E1,2.133271396E-1,2.219038010E-1,2.611242294E0
2.567264368E1,1.219768882E0,-6.688451767E-2,2.544266701E0
2.569270175E1,1.852098107E0,-6.630539894E-2,1.401265144E0
2.571276305E1,1.721525788E0,-5.881371498E-1,1.687083244E0
2.573282253E1,4.006840587E-1,-1.180689812E0,3.617957115E0
2.575288191E1,-4.916906059E-1,-1.741840005E0,4.716732025E0
2.577294227E1,-5.377718210E-1,-1.804547071E0,2.042998314E0
2.579300170E1,2.774735689E-1,-1.510802507E0,-8.871383667E-1
2.581306107E1,9.464750886E-1,-1.267646790E0,-3.180053711E0
2.583312045E1,1.070891142E0,-1.062179327E0,-4.082514763E0
2.585317987E1,9.553768039E-1,-1.329066753E0,-2.902210236E0
2.587324086E1,1.165364087E-1,-1.415880680E0,-1.261033535E0
2.589330024E1,-3.442577124E-1,-1.576708078E0,2.131681442E-1
2.591335961E1,-3.612447381E-1,-1.409614801E0,1.291914940E0
2.593341899E1,1.520680189E-1,-1.138049126E0,6.685495377E-1
2.595347852E1,3.762950301E-1,-7.906641960E-1,-6.466064453E-1
2.597353842E1,5.660723448E-1,-4.033441544E-1,-1.397058964E0
2.599359831E1,9.162785411E-1,-1.019620895E-1,-1.978570461E0
2.601365821E1,1.161095738E0,1.468627453E-1,-2.081890106E0
2.603371810E1,1.078012466E0,3.594894409E-1,-1.561142445E0
2.605377800E1,7.655707002E-1,5.584452152E-1,-5.852384567E-1
2.607383800E1,5.957428217E-1,4.714024067E-1,2.220563889E-1
2.609389508E1,5.003551245E-1,3.223054409E-1,6.526451111E-1
2.611395743E1,5.495085716E-1,2.937684059E-1,7.420186996E-1
2.613401685E1,3.191749454E-1,2.796802521E-1,4.763250351E-1
2.615407623E1,-6.156361103E-2,1.740686893E-1,3.761835098E-1
2.617413560E1,-7.516459227E-1,-9.156107903E-2,1.199267387E0
2.619419503E1,-1.202834606E0,-8.570480347E-2,2.043240547E0
2.621425493E1,-1.426047325E0,2.324707508E-1,1.858949661E0
2.623431482E1,-1.526851654E0,6.285030842E-1,1.259819031E0
2.625437472E1,-1.709048033E0,1.004700184E0,9.634017944E-1
2.627443461E1,-1.647420406E0,9.432356358E-1,5.161056519E-1
2.629449451E1,-1.408931851E0,3.783421516E-1,6.308679581E-1
2.631455441E1,-1.324723005E0,-6.848814487E-1,1.953535080E0
2.633461420E1,-1.011552930E0,-1.655849338E0,3.368974686E0
2.635467357E1,-2.574135065E-1,-2.041507006E0,2.868178368E0
2.637473295E1,-2.045619488E-2,-1.784237146E0,2.517728806E-1
2.639479232E1,-3.177982569E-1,-1.475425839E0,-2.301150799E0
2.641485191E1,-7.737593651E-1,-1.069189548E0,-2.721777916E0
2.643491180E1,-8.854563236E-1,-8.424143791E-1,-2.862758636E0
2.645497170E1,-5.596611500E-1,-6.181080341E-1,-3.001725674E0
2.647503159E1,1.188995838E-1,-3.497791290E-1,-2.221366882E0
2.649509149E1,5.467128158E-1,-2.132077217E-1,-1.599896908E0
2.651515138E1,9.293690324E-1,-1.818795204E-1,-1.052482605E0
2.653521128E1,1.080789328E0,-1.664941311E-1,-6.703872681E-1
2.655527097E1,9.632771611E-1,-3.693842888E-2,-6.321144104E-2
2.657533024E1,8.467452526E-1,1.620361805E-1,5.476427078E-1
2.659538784E1,6.604716778E-1,4.868164062E-1,3.441791534E-1
2.661545019E1,2.753928900E-1,8.336021900E-1,-2.825059891E-1
2.663550956E1,-1.385902166E-1,1.049728155E0,-7.258949280E-1
2.665556894E1,-2.132561803E-1,1.082645893E0,-7.938957214E-1
2.667562831E1,-9.407687187E-2,1.080074787E0,-6.623849869E-1
2.669568789E1,2.375514507E-1,1.072215796E0,-8.147830963E-1
2.671574779E1,1.958141625E-1,9.066147804E-1,-5.064458847E-1
2.673580769E1,7.913708687E-4,6.654727459E-1,4.416913986E-1
2.675586758E1,-1.629462242E-1,4.256036282E-1,1.437877655E0
2.677592774E1,-5.426196456E-1,3.008282185E-1,2.107867241E0
2.679598633E1,-3.864029646E-1,-1.964704990E-1,3.412157059E0
2.681604675E1,1.932751536E-1,-4.569447041E-1,4.661266327E0
2.683610711E1,6.212027073E-1,-2.622132301E-1,3.516407013E0
2.685616649E1,8.519688845E-1,-9.888625145E-2,1.188358307E0
2.687622482E1,8.471256495E-2,-5.863499641E-1,1.129301071E0
2.689627987E1,3.572262526E-1,-1.732086182E0,2.781271935E0
2.691634592E1,3.301136494E-1,-2.344319344E0,2.862633705E0
2.693640529E1,9.988325834E-2,-2.125352621E0,6.511974335E-1
2.695646467E1,3.195930421E-1,-1.469302416E0,-2.238253593E0
2.697652513E1,4.876539111E-1,-1.026170254E0,-4.422514439E0
2.699658451E1,8.626118302E-1,-1.093048096E0,-4.259524345E0
2.701664388E1,2.193821371E-1,-1.284489155E0,-2.396206379E0
2.703670326E1,-4.212986231E-1,-1.650467157E0,-3.238210678E-1
2.705676279E1,-7.292284369E-1,-1.758195996E0,1.884963036E0
2.707682373E1,-3.976137638E-1,-1.822322130E0,2.509357452E0
2.709688310E1,-1.461650133E-1,-1.450809717E0,7.632312775E-1
2.711694248E1,-1.528643370E-1,-8.628834486E-1,-1.167997360E0
2.713700185E1,7.951140404E-3,-4.683623314E-1,-2.282749653E0
2.715706138E1,1.847247481E-1,-2.446196079E-1,-2.464871883E0
2.717712232E1,6.524199247E-2,6.683826447E-3,-2.160173893E0
2.719718175E1,-3.162711859E-1,2.898528576E-1,-1.822589874E0
2.721724112E1,-2.892338037E-1,4.975445271E-1,-1.340665817E0
2.723730050E1,-2.043719888E-1,5.008254051E-1,-8.992586136E-1
2.725735998E1,-2.120300531E-1,4.904773235E-1,-1.685791016E-1
2.727742092E1,-2.153183222E-1,3.474228382E-1,8.008317947E-1
2.729748029E1,-5.411812663E-1,1.053934097E-1,1.729009628E0
2.731753966E1,-9.082261920E-1,-3.702760935E-1,2.915826797E0
2.733759904E1,-1.270338774E0,-2.604030371E-1,3.768404007E0
2.735765868E1,-1.675422668E0,2.734055519E-1,2.593036652E0
2.737771951E1,-1.411789417E0,9.250667095E-1,4.052429199E-1
2.739777888E1,-1.158311367E0,1.149416685E0,-1.294859886E0
2.741783826E1,-1.099611759E0,-3.803348541E-2,-3.015995026E-2
2.743789763E1,-1.186108708E0,-1.535043478E0,3.299118042E0
2.745795732E1,-6.388914585E-1,-2.286339283E0,6.341567039E0
2.747801821E1,-2.065777779E-1,-1.966508389E0,4.744960785E0
2.749807758E1,3.170528412E-1,-1.519773126E0,9.636974335E-2
2.751813696E1,4.822627306E-1,-9.480782747E-1,-3.606719494E0
2.753819633E1,2.849762440E-1,-6.413776875E-1,-5.394783020E0
2.755825592E1,2.179741859E-2,-6.651619673E-1,-3.756040096E0
2.757831685E1,-6.321140528E-1,-8.903220892E-1,-1.382777214E0
2.759837623E1,-8.064061403E-1,-1.070667148E0,8.638954163E-2
2.761843560E1,-2.186605930E-1,-7.965230942E-1,7.455997467E-1
2.763849498E1,4.372839928E-1,-4.161472321E-1,2.094554901E-1
2.765855456E1,8.138152361E-1,-1.653244495E-1,-8.117895126E-1
2.767861545E1,9.665360451E-1,-3.516674042E-4,-1.559990883E0
2.769867482E1,1.006849051E0,2.322030067E-1,-1.665904045E0
2.771873420E1,7.924230695E-1,6.278922558E-1,-1.271124840E0
2.773879357E1,5.287302732E-1,1.045092821E0,-1.278818130E0
2.775885321E1,1.621227264E-1,1.495996237E0,-1.417055130E0
2.777891409E1,-1.028668880E-1,1.749425173E0,-1.689157009E0
2.779897347E1,-3.226622343E-1,1.839565039E0,-1.732614994E0
2.781903284E1,-2.744640112E-1,1.824955702E0,-1.604289055E0
2.783909222E1,7.496118546E-2,1.721366882E0,-1.560030460E0
2.785915180E1,6.648334861E-1,1.571732759E0,-1.724190712E0
2.787921170E1,1.119256377E0,1.434516668E0,-1.717381001E0
2.789927159E1,1.270861626E0,1.121553183E0,-8.111581802E-1
2.791933149E1,1.175493240E0,7.509057522E-1,6.779241562E-1
2.793939138E1,7.518824935E-1,4.552032948E-1,2.150010109E0
2.795945128E1,1.040269494E0,1.989583969E-1,3.339213371E0
2.797951008E1,1.179819822E0,3.815770149E-1,3.082111359E0
2.799956894E1,8.233345151E-1,1.193305492E0,2.080385208E0
2.801963076E1,8.010592461E-1,2.334891796E0,4.361810684E-1
2.803969013E1,8.870660663E-1,2.646950483E0,-1.757364273E0
2.805974951E1,-4.262320399E-1,5.982658863E-1,-1.323871613E-1
2.807980993E1,-2.141780853E0,-1.587498903E0,6.074773788E0
2.809986930E1,-1.790160894E0,-2.507071495E0,9.598183632E0
2.811992868E1,-1.245710850E-1,-2.507353783E0,4.458791733E0
2.813998805E1,1.349902034E0,-2.035541534E0,-9.482374191E-1
2.816004888E1,1.472942114E0,-1.887612939E0,-3.270203590E0
2.818008269E1,9.886360765E-1,-2.303482771E0,-1.146177292E0
2.820016826E1,-7.016800642E-1,-2.252457380E0,4.280338287E-1
2.822022763E1,-1.424585700E0,-2.108433723E0,2.711286545E-1
2.824028701E1,-1.052161574E0,-1.939860463E0,-4.454488754E-1
2.826034638E1,-4.831985235E-1,-1.714820981E0,-1.229975700E0
2.828040602E1,-4.908024073E-1,-1.472426534E0,-2.433507919E0
2.830046592E1,-7.104279995E-1,-1.339830279E0,-2.959278107E0
2.832052581E1,-1.083370328E0,-1.249689221E0,-2.907434464E0
2.834058571E1,-9.604721069E-1,-1.332794309E0,-2.862054825E0
2.836064550E1,-9.668712616E-1,-1.290700912E0,-2.497333050E0
2.838070461E1,-8.695855141E-1,-1.132266879E0,-1.584247589E0
2.840076503E1,-7.134168148E-1,-7.108263969E-1,-9.336299896E-1
2.842082519E1,-6.679536104E-1,-3.095116615E-1,-7.917785645E-2
2.844088456E1,-1.185245156E0,-7.046413422E-2,1.223496437E0
2.846094394E1,-1.395725846E0,1.581618786E-1,2.410095215E0
2.848100331E1,-1.056141853E0,1.983008385E-1,2.552373886E0
2.850106284E1,-2.967702150E-1,7.282831669E-1,1.993940353E0
2.852112274E1,-1.411038280E0,9.724311829E-1,2.509960175E0
2.854118263E1,-1.614935398E0,7.592272758E-2,5.839937210E0
2.856124253E1,-2.058116674E0,-1.372650504E0,8.668126106E0
2.858130242E1,-1.469833970E0,-1.921926498E0,8.415665627E0
2.860136232E1,-3.792150021E-1,-1.731517673E0,3.627195358E0
2.862142222E1,5.063946247E-1,-1.080476284E0,-1.415216446E0
2.864148185E1,3.078446388E-1,-6.180082560E-1,-5.093083382E0
2.866154123E1,-6.427991390E-1,-2.185537815E-1,-4.994070530E0
2.868160060E1,-9.880142212E-1,-1.976733208E-1,-2.793793201E0
2.870165998E1,-3.933175802E-1,-6.267448664E-1,-1.314061165E0
2.872171972E1,8.098658323E-1,-6.368986368E-1,-1.517351627E0
2.874177961E1,1.688666940E0,-4.314380884E-1,-2.544872761E0
2.876183951E1,2.191024542E0,-1.313984394E-1,-3.063821793E0
2.878189940E1,2.055163383E0,-1.115210056E-1,-2.732493877E0
2.880195930E1,1.740718365E0,-2.092185020E-1,-1.565240860E0
2.882201920E1,1.321157575E0,-3.200685978E-1,-3.016948700E-1
2.884207909E1,8.673883677E-1,-1.198189259E-1,2.630796432E-1
2.886213847E1,7.646528482E-1,1.851394176E-1,2.252578735E-2
2.888219784E1,9.363408089E-1,5.334844589E-1,-2.966413498E-1
2.890225722E1,1.118783116E0,9.633097649E-1,-5.729055405E-1
2.892231664E1,7.413834929E-1,1.261926651E0,-8.345270157E-1
2.894237654E1,-3.170710802E-2,1.238745213E0,7.296657562E-2
2.896243722E1,-4.510414600E-1,1.144363403E0,1.421099663E0
2.898249659E1,-6.112306118E-1,8.239014149E-1,2.160503387E0
2.900255597E1,-1.943347454E-1,5.161883831E-1,2.344348907E0
2.902261534E1,6.912797093E-1,4.897546768E-1,2.643565178E0
2.904267493E1,1.014619350E0,4.720571041E-1,1.841109276E0
2.906273576E1,1.179091692E0,-1.123847961E-1,1.591879845E0
2.908279513E1,1.284425974E0,-1.033364892E0,3.215053558E0
2.910285451E1,1.229513526E0,-1.797628641E0,4.012293816E0
2.912291388E1,5.167224407E-1,-1.644286633E0,1.526247978E0
2.914297342E1,7.343019843E-1,-1.338413477E0,-8.958320618E-1
2.916303420E1,8.725497723E-1,-1.291302323E0,-1.896456242E0
2.918309357E1,6.517417431E-1,-1.515310049E0,-1.070403099E0
2.920315295E1,1.856647432E-1,-1.764711618E0,-1.754083633E-1
2.922321232E1,-2.832989097E-1,-1.720899105E0,2.808361053E-1
2.924327196E1,-6.740980744E-1,-1.539292812E0,1.731519699E-1
2.926333050E1,-8.379948139E-1,-1.308411360E0,-6.535491943E-1
2.928339076E1,-1.127634525E0,-1.046038151E0,-1.614428043E0
2.930345206E1,-6.889950633E-1,-6.373368502E-1,-2.085764408E0
2.932351144E1,-5.366041660E-1,-3.177020550E-1,-2.711313248E0
2.934357081E1,-4.917032719E-1,1.554059982E-2,-2.979403019E0
2.936363118E1,-4.578281641E-1,3.956575394E-1,-3.236947060E0
2.938369055E1,-4.190068245E-1,6.603200436E-1,-3.252573013E0
2.940374993E1,-3.270626068E-2,5.805363655E-1,-2.071788788E0
2.942380930E1,2.647113204E-1,4.350931644E-1,3.300666809E-2
2.944386894E1,8.555558324E-1,3.423156738E-1,1.323175430E0
2.946392972E1,7.105710506E-1,3.240886927E-1,1.500740051E0
2.948398909E1,3.117281795E-1,2.356630564E-1,1.933489799E0
2.950404847E1,2.123904228E-2,2.720952034E-1,2.539632797E0
2.952410784E1,-2.249354124E-1,2.778089046E-1,2.780090332E0
2.954416737E1,-7.910294533E-1,4.288328886E-1,2.948569298E0
2.956422821E1,-1.121026516E0,8.162369728E-1,3.006569862E0
2.958428758E1,-1.502212882E0,8.248125315E-1,2.694215775E0
2.960434696E1,-1.532881737E0,1.346474886E-1,3.262503624E0
2.962440633E1,-1.228644490E0,-9.180236459E-1,4.844676018E0
2.964446586E1,-5.662832260E-1,-1.383490324E0,4.858738899E0
2.966452576E1,-4.469340444E-1,-1.146564364E0,1.411624908E0
2.968458566E1,-4.161453247E-1,-7.457665205E-1,-2.238735676E0
2.970464555E1,-8.579819798E-1,-4.234787226E-1,-4.689756393E0
2.972470545E1,-1.385120630E0,-3.472982645E-1,-5.012501240E0
2.974476534E1,-1.609512806E0,-4.500883818E-1,-4.105346203E0
2.976482342E1,-1.466152430E0,-6.102814674E-1,-3.702428818E0
2.978488336E1,-6.076721549E-1,-5.966026783E-1,-2.591429234E0
2.980494451E1,1.287119985E-1,-4.714624882E-1,-1.882274628E0
2.982500388E1,5.750970840E-1,-3.414711952E-1,-1.113450050E0
2.984506326E1,4.348581433E-1,-1.664128304E-1,-9.827117920E-1
2.986512357E1,3.709608912E-1,1.364374161E-2,-7.332344055E-1
2.988518295E1,5.317191482E-1,2.076439857E-1,-3.691759109E-1
2.990524232E1,-1.590608358E-1,5.960365534E-1,-1.808261871E-2
2.992530170E1,-4.605739117E-1,1.217200398E0,-1.613178253E-1
2.994536144E1,-6.779829264E-1,1.453351498E0,-5.071477890E-1
2.996542217E1,-6.710750461E-1,1.561421394E0,-5.184316635E-1
2.998548154E1,-7.956777811E-1,1.481405973E0,-3.541383743E-1
3.000554092E1,-5.630106926E-1,1.442293167E0,1.117277145E-1
3.002560029E1,-8.200585842E-2,1.363753080E0,-3.080501556E-1
3.004565987E1,3.442770839E-1,9.070568085E-1,3.382205963E-2
3.006572066E1,3.824324012E-1,5.926957130E-1,1.109344482E0
3.008578003E1,4.655027390E-1,3.529722691E-1,1.544569016E0
3.010583940E1,3.644445837E-1,-1.548790932E-2,1.866001129E0
3.012589878E1,5.754042268E-1,-2.130792141E-1,2.660052299E0
3.014595842E1,8.634265661E-1,-1.927781105E-2,2.747058868E0
3.016601914E1,3.416486084E-1,-2.831785679E-1,2.488963127E0
3.018607852E1,4.797658622E-1,-1.429177880E0,4.807927132E0
3.020613789E1,8.778793812E-1,-2.559575558E0,6.940537453E0
3.022619727E1,2.846094072E-1,-2.450904369E0,4.135625839E0
3.024625691E1,3.112240732E-1,-1.873939514E0,-3.175029755E-1
3.026631763E1,4.586949348E-1,-1.356064558E0,-3.796468735E0
3.028637701E1,8.399167061E-1,-1.262881041E0,-4.294460297E0
3.030643638E1,1.067853332E0,-1.505234599E0,-2.599845409E0
3.032649576E1,7.382217050E-1,-1.822512388E0,-9.415998459E-1
3.034655545E1,3.132457137E-1,-2.057458162E0,-3.715143204E-1
3.036661534E1,3.264707327E-2,-2.020940065E0,-2.604808807E-1
3.038667524E1,1.266062260E-2,-1.854315162E0,-3.046760559E-1
3.040673513E1,2.380933166E-1,-1.613501906E0,-1.036066055E0
3.042679503E1,2.536051273E-1,-1.365155578E0,-1.614103317E0
3.044685492E1,4.160622954E-1,-1.103342891E0,-1.565653801E0
3.046691170E1,7.182321548E-1,-9.648594856E-1,-1.463224411E0
3.048697430E1,6.901632547E-1,-6.952598095E-1,-1.859649181E0
3.050703399E1,6.188635826E-1,-3.513698578E-1,-2.336296558E0
3.052709336E1,3.387233913E-1,-1.888453960E-1,-1.759867191E0
3.054715274E1,3.386934698E-1,-2.125296593E-1,-4.105968475E-1
3.056721326E1,7.087380886E-1,-1.926624775E-1,7.401561737E-1
3.058727263E1,6.618019342E-1,-8.838677406E-2,1.073336601E0
3.060733201E1,2.012991905E-2,-1.423466206E-1,1.242945671E0
3.062739138E1,-4.976781011E-1,-7.200479507E-2,1.853142738E0
3.064745112E1,-1.056662560E0,1.079325676E-1,2.111249924E0
3.066751102E1,-1.419305086E0,2.537758350E-1,1.743748665E0
3.068757092E1,-1.506031752E0,5.090548992E-1,1.822365761E0
3.070763081E1,-1.111108184E0,4.156546593E-1,2.122985840E0
3.072769071E1,-6.896595955E-1,8.915925026E-2,2.291278839E0
3.074775060E1,-7.820148468E-1,-5.780687332E-1,2.792728424E0
3.076780732E1,-7.637082338E-1,-1.341458559E0,3.958945274E0
3.078786993E1,2.797746658E-2,-1.608733892E0,4.271192551E0
3.080792967E1,-8.581340313E-2,-1.251982689E0,1.520240784E0
3.082798904E1,-3.828259706E-1,-7.828788757E-1,-1.650735378E0
3.084804842E1,-8.400665522E-1,-5.956060886E-1,-3.904277802E0
3.086810894E1,-1.227204680E0,-4.697042704E-1,-4.412605762E0
3.088816831E1,-1.356663942E0,-6.163029671E-1,-3.084437370E0
3.090822769E1,-1.265371919E0,-7.703717947E-1,-2.089996815E0
3.092828706E1,-2.971891165E-1,-6.330914497E-1,-1.288097382E0
3.094834690E1,3.009697795E-1,-5.578408241E-1,-9.733781815E-1
3.096840753E1,6.753705144E-1,-4.221030474E-1,-8.038291931E-1
3.098846691E1,6.923090219E-1,-3.067294359E-1,-8.975343704E-1
3.100852628E1,6.753776073E-1,-8.742237091E-2,-7.366447449E-1
3.102858566E1,6.431363821E-1,1.184906960E-1,-4.462442398E-1
3.104864550E1,3.688981533E-1,3.959908485E-1,-4.034862518E-1
3.106870618E1,-8.192056417E-2,8.357586861E-1,-7.766160965E-1
3.108876555E1,-4.286813736E-1,1.223346472E0,-1.067132950E0
3.110882492E1,-4.149851203E-1,1.267011881E0,-8.779344559E-1
3.112888430E1,-3.447464108E-1,1.148509026E0,-3.497867584E-1
3.114894409E1,-1.827791333E-1,1.080275297E0,3.703441620E-1
3.116900066E1,6.495463848E-2,1.038789034E0,4.985876083E-1
3.118906441E1,2.860167325E-1,7.372822762E-1,3.865118027E-1
3.120912414E1,2.167185545E-1,4.328846931E-1,1.603473663E0
3.122918352E1,2.161941230E-1,1.249690056E-1,2.151328087E0
3.124924289E1,-7.588487864E-2,-1.621632576E-1,2.225682259E0
3.126930336E1,1.657617092E-1,-3.083953857E-1,3.067106247E0
3.128936274E1,5.281131268E-1,1.953601837E-2,3.641148567E0
3.130942211E1,7.599008083E-1,1.965179443E-1,2.123443604E0
3.132948154E1,7.011885643E-1,-2.902772427E-1,1.541474342E0
3.134954144E1,5.883088112E-1,-1.374822617E0,2.932703018E0
3.136960206E1,9.790390134E-1,-2.374732733E0,3.650443077E0
3.138966144E1,7.975082994E-1,-2.301788568E0,1.307563782E0
3.140972081E1,1.052147031E0,-1.730181575E0,-1.512661457E0
3.142978019E1,1.178268433E0,-1.515368938E0,-3.104889870E0
3.144984008E1,1.266065240E0,-1.451243997E0,-2.447560787E0
3.146990066E1,8.794143796E-1,-1.653341770E0,-1.304737568E0
3.148996003E1,1.737463474E-1,-1.589129090E0,-6.203374863E-1
3.151001940E1,-3.319703341E-1,-1.444597960E0,-4.679965973E-1
3.153007894E1,-4.884778261E-1,-1.224183679E0,-3.115253448E-1
3.155013883E1,-4.437278509E-1,-1.015492678E0,-4.858551025E-1
3.157019935E1,-1.940584183E-1,-8.040058613E-1,-7.760572433E-1
3.159025873E1,1.100503802E-1,-7.008388042E-1,-1.350545883E0
3.161031810E1,6.032000780E-1,-6.671309471E-1,-1.565004826E0
3.163037763E1,6.409132481E-1,-5.086636543E-1,-1.680340767E0
3.165043753E1,4.967455566E-1,-2.635321617E-1,-1.589976788E0
3.167049810E1,4.811837077E-1,-3.658318520E-2,-1.329144955E0
3.169055748E1,4.603418708E-1,1.134843826E-1,-1.032259941E0
3.171061685E1,5.839575529E-1,1.617820263E-1,-5.095062256E-1
3.173067638E1,5.972901583E-1,1.858913898E-1,-3.375816345E-2
3.175073628E1,2.724471390E-1,5.208849907E-2,3.451118469E-1
3.177079690E1,-3.787620664E-1,-4.996252060E-2,1.009749413E0
3.179085628E1,-1.531388283E0,1.467740536E-1,1.950256348E0
3.181091566E1,-1.984121919E0,2.349727154E-1,2.570445061E0
3.183097508E1,-1.681511402E0,1.547482014E-1,2.179854393E0
3.185103498E1,-1.004090786E0,2.062511444E-1,1.870063782E0
3.187109487E1,-7.839450240E-1,2.055871487E-1,1.437613487E0
3.189115477E1,-9.303163290E-1,1.786854267E-1,6.367893219E-1
3.191121467E1,-6.451301575E-1,-3.599736691E-1,6.868810654E-1
3.193127456E1,-3.139336109E-1,-1.144466281E0,2.069032669E0
3.195133503E1,-4.851136208E-1,-1.191917896E0,3.259995461E0
3.197138810E1,-8.631176949E-1,-7.731693983E-1,1.154396057E0
3.199145430E1,-9.484041929E-1,-6.004581451E-1,-1.364830017E0
3.201151378E1,-7.043646574E-1,-9.189891815E-1,-1.899325848E0
3.203157316E1,-6.789711714E-1,-1.180141568E0,-1.047456741E0
3.205163253E1,-7.129361629E-1,-1.131440282E0,-1.197230339E0
3.207169211E1,-2.741816044E-1,-8.630424738E-1,-1.490110397E0
3.209175201E1,1.529335380E-1,-6.233983040E-1,-1.234127045E0
3.211181190E1,6.959492564E-1,-4.394187927E-1,-1.133666992E0
3.213187180E1,9.901424646E-1,-3.201127052E-1,-1.311888695E0
3.215193170E1,1.059644580E0,-1.817204952E-1,-1.322970390E0
3.217199159E1,9.851375818E-1,-9.307503700E-2,-1.059828758E0
3.219205149E1,8.180247545E-1,1.874237061E-1,-7.198534012E-1
3.221211138E1,5.629928112E-1,5.314073563E-1,-1.055418968E0
3.223217128E1,1.834689975E-1,8.566925526E-1,-1.294503212E0
3.225223154E1,-1.015251875E-1,1.075596571E0,-9.799346924E-1
3.227228821E1,-3.233706951E-2,1.018272161E0,-4.744720459E-1
3.229235055E1,-7.085031271E-2,9.242794514E-1,7.202148438E-3
3.231241003E1,3.528017104E-1,1.003998041E0,-2.031612396E-2
3.233246941E1,4.385861158E-1,9.167993069E-1,-3.804655075E-1
3.235252878E1,1.114780903E-1,7.163107395E-1,4.247159958E-1
3.237258836E1,-1.369559765E-2,4.521868229E-1,1.496339798E0
3.239264826E1,-1.410572529E-1,1.403179169E-1,2.601429939E0
3.241270816E1,1.136485934E-1,-1.494150162E-1,3.065158844E0
3.243276805E1,1.405060589E-1,-1.174719334E-1,3.053153992E0
3.245282868E1,3.263193071E-1,3.528261185E-2,2.489858627E0
3.247288701E1,6.375246048E-1,1.082580090E-1,1.181212425E0
3.249294711E1,1.066205263E0,-4.360625744E-1,5.438098907E-1
3.251300753E1,8.928560615E-1,-1.430167794E0,2.084917068E0
3.253306742E1,8.298861980E-1,-2.478616238E0,3.476113319E0
3.255312748E1,6.194089651E-1,-2.612358093E0,2.373102188E0
3.257318560E1,3.735406101E-1,-2.067179918E0,-5.070095062E-1
3.259324597E1,7.283921838E-1,-1.575240254E0,-2.976198196E0
3.261330638E1,1.019096851E0,-1.470412850E0,-3.703664303E0
3.263336597E1,1.030485272E0,-1.668015957E0,-2.582943439E0
3.265342534E1,3.912617266E-1,-1.779077291E0,-9.916696548E-1
3.267348472E1,-2.327547371E-1,-1.568123460E0,-1.735029221E-1
3.269354425E1,-6.089800596E-1,-1.229944825E0,-1.110553741E-2
3.271360414E1,-7.106194496E-1,-8.942737579E-1,4.750242233E-1
3.273366404E1,-3.765807748E-1,-7.059440613E-1,4.932508469E-1
3.275372394E1,3.851943016E-1,-4.623036385E-1,-4.035577774E-1
3.277378383E1,4.657225311E-1,-2.091672421E-1,-1.584692478E0
3.279384373E1,5.031075478E-1,9.651041031E-2,-1.869539261E0
3.281390362E1,2.844521999E-1,2.935824394E-1,-1.807844162E0
3.283396352E1,2.403633595E-1,4.593226910E-1,-1.088633537E0
3.285402342E1,2.205003798E-1,5.389349461E-1,-5.708093643E-1
3.287407951E1,3.779851198E-1,4.738054276E-1,-1.331176758E-1
3.289414284E1,5.215610862E-1,4.948604107E-1,1.816072464E-1
3.291420222E1,4.757781029E-1,4.800863266E-1,2.226743698E-1
3.293426159E1,1.585391164E-2,3.457956314E-1,4.263734818E-1
3.295432206E1,-5.873714089E-1,2.040724754E-1,1.253548622E0
3.297438154E1,-1.029453993E0,1.091055870E-1,2.058532715E0
3.299444092E1,-1.094832420E0,2.307806015E-1,2.177425385E0
3.301450029E1,-1.059173822E0,4.609069824E-1,1.859210968E0
3.303455977E1,-1.142060041E0,5.764472485E-1,1.885422707E0
3.305462076E1,-8.147846460E-1,3.870680332E-1,1.874192238E0
3.307468013E1,-1.690889597E-1,-9.925246239E-2,1.464854240E0
3.309473951E1,8.270680904E-2,-7.989211082E-1,1.085371971E0
3.311479888E1,-4.017350674E-1,-1.469586849E0,9.343166351E-1
3.313485847E1,-3.539371490E-1,-1.746217728E0,1.728230476E0
3.315491914E1,1.478866935E-1,-1.592059135E0,9.319391251E-1
3.317497883E1,-2.806782722E-4,-1.112280369E0,-9.230003357E-1
3.319503821E1,-6.261636019E-1,-8.437900543E-1,-2.622476101E0
3.321509758E1,-1.123261452E0,-6.804156303E-1,-2.711821556E0
3.323515711E1,-1.327621937E0,-5.549646616E-1,-2.124010086E0
3.325521701E1,-1.160402417E0,-2.974636555E-1,-1.803138256E0
3.327527691E1,-1.515314579E-1,-1.338932514E-1,-9.851036072E-1
3.329533680E1,5.099663138E-1,-5.346703529E-2,-6.912088394E-1
3.331539670E1,6.582996249E-1,1.488852501E-2,-6.949291229E-1
3.333545659E1,5.747600198E-1,-1.858425140E-2,-4.274053574E-1
3.335551649E1,6.385163069E-1,-2.658748627E-2,-1.207160950E-1
3.337557638E1,6.069182158E-1,1.733433008E-1,2.288494110E-1
3.339563592E1,2.774333656E-1,4.965274334E-1,-2.509088516E-1
3.341569529E1,-1.019114852E-1,8.819582462E-1,-9.381055832E-1
3.343575467E1,-3.230242729E-1,1.073030233E0,-9.533185959E-1
3.345581534E1,-4.727781415E-1,1.141459227E0,-7.335147858E-1
3.347587477E1,-6.169707179E-1,1.005508184E0,-1.001567841E-1
3.349593414E1,-6.383715868E-1,1.016875267E0,5.040884018E-1
3.351599352E1,-4.167017341E-1,1.026862383E0,-1.153898239E-1
3.353605300E1,-2.568150163E-1,8.312571049E-1,-4.829521179E-1
3.355611399E1,-3.658254743E-1,5.286855698E-1,5.521173477E-1
3.357617336E1,-1.199379563E-1,2.201759815E-1,1.627308846E0
3.359623274E1,-3.061737716E-1,6.528520584E-2,1.651188850E0
3.361629211E1,-7.317258716E-1,3.251504898E-2,1.525768280E0
3.363635170E1,-5.353785157E-1,1.883873940E-1,2.097801208E0
3.365641263E1,1.180993617E-1,5.767979622E-1,1.908121109E0
3.367647206E1,5.493658781E-1,7.570173740E-1,1.392592430E0
3.369653144E1,6.030592918E-1,7.009768486E-2,2.366292953E0
3.371659081E1,6.568951607E-1,-1.001230001E0,3.329283714E0
3.373665039E1,6.422187090E-1,-1.883496404E0,3.301806450E0
3.375671133E1,7.566210628E-1,-2.108288050E0,8.578739166E-1
3.377677076E1,1.187922716E0,-1.833927631E0,-1.776601791E0
3.379683013E1,1.269719243E0,-1.674960017E0,-3.416226864E0
3.381688951E1,8.985255957E-1,-1.625906467E0,-2.794793606E0
3.383694914E1,2.100984454E-1,-1.627219677E0,-1.303373337E0
3.385700904E1,-4.556571841E-1,-1.651879311E0,-3.462572098E-1
3.387706894E1,-7.132411003E-1,-1.467864513E0,5.920886993E-1
3.389712883E1,-6.231245399E-1,-1.297880054E0,9.861154556E-1
3.391718873E1,-4.300353527E-1,-9.024025202E-1,3.097581863E-1
3.393724862E1,-2.179747224E-1,-4.215385914E-1,-1.092199326E0
3.395730836E1,-6.601923704E-2,-1.184685230E-1,-2.017075062E0
3.397736711E1,2.003487349E-1,-1.503515244E-2,-2.235957623E0
3.399742836E1,1.879074574E-1,1.442482471E-1,-1.742052555E0
3.401748784E1,-9.819489717E-2,3.016748428E-1,-1.114670753E0
3.403754722E1,-1.678010821E-1,3.735427856E-1,-6.702861786E-1
3.405760763E1,-1.932530403E-1,4.422731400E-1,-4.349365234E-1
3.407766701E1,-1.541812420E-1,4.942827225E-1,-3.065900803E-1
3.409772638E1,-3.702056408E-2,5.821750164E-1,-2.764692307E-1
3.411778576E1,-3.819413185E-1,4.334135056E-1,-1.593990326E-1
3.413784560E1,-8.213285208E-1,3.439936638E-1,4.221134186E-1
3.415790649E1,-1.054618239E0,3.084664345E-1,1.176301956E0
3.417796586E1,-1.346482873E0,3.300442696E-1,1.409886360E0
3.419802524E1,-1.366833448E0,4.909555912E-1,1.256072998E0
3.421808461E1,-1.503316998E0,5.906610489E-1,1.210743904E0
3.423814451E1,-1.679610610E0,6.413340569E-1,1.181486130E0
3.425820545E1,-2.232763290E0,2.409312725E-1,1.353015900E0
3.427826482E1,-2.104579210E0,-7.642133236E-1,2.673433304E0
3.429832420E1,-1.213611364E0,-1.624903440E0,5.101902962E0
3.431838357E1,-1.119911671E-1,-1.860448599E0,3.844611168E0
3.433844342E1,2.247140408E-1,-1.481059074E0,6.504058838E-3
3.435850441E1,1.936377287E-1,-1.029393911E0,-3.192732334E0
3.437856378E1,-2.022511959E-1,-1.000234008E0,-4.607363224E0
3.439862316E1,-4.657433033E-1,-1.160593390E0,-4.158932209E0
3.441868253E1,-9.851266146E-1,-1.127276182E0,-3.085659027E0
3.443874242E1,-1.068597913E0,-1.086094141E0,-2.681042194E0
3.445880331E1,-5.218850374E-1,-9.897295237E-1,-1.642841339E0
3.447886269E1,3.538964391E-1,-8.542083502E-1,-5.801906586E-1
3.449892206E1,8.653739691E-1,-6.061218977E-1,-1.425294876E-1
3.451898154E1,7.453206778E-1,-2.664088011E-1,1.526012421E-1
3.453904144E1,7.257896662E-1,2.270543575E-1,7.362604141E-1
3.455910242E1,3.769359589E-1,8.262771368E-1,2.521810532E-1
3.457916190E1,3.336244822E-2,1.341904879E0,-8.193368912E-1
3.459922128E1,-2.071907520E-1,1.632556438E0,-1.479322433E0
3.461928066E1,-2.987489104E-1,1.674664974E0,-1.575141907E0
3.463934050E1,-2.817271948E-1,1.456299067E0,-1.468759060E0
3.465939940E1,-3.244304657E-2,1.183169127E0,-8.306722641E-1
3.467945769E1,4.334252179E-1,9.209036827E-1,-1.000051498E-1
3.469952118E1,9.495893121E-1,8.559460640E-1,-2.442359924E-2
3.471958055E1,5.244460702E-1,5.877408981E-1,3.661193848E-1
3.473963992E1,-5.557072163E-2,5.125169754E-1,1.556161880E0
3.475970066E1,-3.775444329E-1,4.176352024E-1,2.296670914E0
3.477976003E1,-6.784871817E-1,2.484288216E-1,2.963073730E0
3.479981940E1,-5.673986673E-1,2.042224407E-1,4.618054390E0
3.481987888E1,-5.721396804E-1,3.407266140E-1,5.426126480E0
3.483993878E1,-5.414712429E-1,2.668001652E-1,3.832011223E0
3.485999868E1,-2.756182849E-1,-3.388364315E-1,2.545876503E0
3.488005857E1,-2.292947173E-1,-1.180299878E0,2.567368507E0
3.490011847E1,1.252848208E-1,-1.866706133E0,1.652037621E0
3.492017836E1,4.429751635E-1,-1.949149013E0,-8.719377518E-1
3.494023826E1,7.476172447E-1,-1.722987652E0,-3.342103481E0
3.496029816E1,6.725526452E-1,-1.386013865E0,-4.243113041E0
3.498035805E1,6.357260346E-1,-1.384776950E0,-3.771613598E0
3.500041795E1,2.107623816E-1,-1.450053334E0,-2.226082802E0
3.502047784E1,5.896481872E-2,-1.387420535E0,-1.150659561E0
3.504053774E1,5.179643631E-5,-1.375254273E0,-5.748863220E-1
3.506059826E1,-1.906395555E-1,-1.194954157E0,3.450965881E-2
3.508065774E1,7.684111595E-3,-8.950369358E-1,2.002677917E-1
3.510071711E1,-1.199811697E-3,-6.374573708E-1,-4.279184341E-1
3.512077654E1,1.515123844E-1,-4.203885794E-1,-1.065176010E0
3.514083644E1,-8.627387881E-2,-2.972974777E-1,-1.401921272E0
3.516089633E1,-2.164930701E-1,-9.647321701E-2,-1.150746346E0
3.518095623E1,-8.873134851E-2,8.107638359E-2,-1.407487869E0
3.520101612E1,-1.090850234E-1,2.533323765E-1,-1.430308342E0
3.522107602E1,-3.161968887E-1,3.931066990E-1,-1.035604477E0
3.524113592E1,-1.308864951E-1,4.434058666E-1,-7.534818649E-1
3.526119680E1,7.524776459E-2,5.852468014E-1,-7.538595200E-1
3.528125659E1,4.311272502E-2,4.972841740E-1,-6.526832581E-1
3.530131597E1,-1.652082801E-1,2.685401440E-1,8.782672882E-2
3.532137534E1,-2.406229377E-1,1.568431854E-1,1.184385300E0
3.534143503E1,-4.540244937E-1,1.771037579E-1,1.515284538E0
3.536149492E1,-1.016443253E0,2.084795237E-1,1.789416313E0
3.538155482E1,-7.967892289E-1,9.431672096E-2,3.226634026E0
3.540161472E1,-2.611376047E-1,-2.803508043E-1,3.836436272E0
3.542167461E1,-7.752132416E-2,-6.303120255E-1,2.862873077E0
3.544173451E1,-4.151882529E-1,-1.137876630E0,2.452968597E0
3.546179550E1,-8.956074715E-1,-1.578933239E0,3.037705421E0
3.548185513E1,-7.293965816E-1,-1.543202043E0,3.995744705E0
3.550191451E1,-1.187285423E0,-1.249079943E0,2.050225258E0
3.552197388E1,-1.680884838E0,-1.077371716E0,-1.311812401E0
3.554203378E1,-1.894758940E0,-8.165472150E-1,-3.142412186E0
3.556209487E1,-2.063160658E0,-4.952629805E-1,-3.533952713E0
3.558215477E1,-2.251638412E0,-3.458795547E-1,-3.201723576E0
3.560221430E1,-1.769538641E0,-1.693717241E-1,-3.069977283E0
3.562227368E1,-7.066376209E-1,3.521335125E-2,-3.181266785E0
3.564233316E1,-1.725601554E-1,1.846235991E-1,-2.987937450E0
3.566239420E1,-9.429574013E-2,1.642198563E-1,-2.346634865E0
3.568245357E1,1.984180212E-1,-3.106892109E-2,-1.378482819E0
3.570251295E1,6.352217197E-1,-2.074809074E-1,-9.893703461E-2
3.572257269E1,5.813319683E-1,2.966594696E-2,6.918315887E-1
3.574263258E1,9.716665745E-2,5.520713329E-1,2.115402222E-1
3.576269368E1,-1.084191799E-1,1.013995528E0,-5.014629364E-1
3.578275305E1,-1.876537800E-1,1.157855988E0,-5.591764450E-1
3.580281242E1,4.560005665E-2,1.140736222E0,-2.114200592E-1
3.582287211E1,3.647625744E-1,1.127528429E0,-3.411989212E-1
3.584293201E1,5.567094684E-1,9.836375713E-1,-4.027013779E-1
3.586299190E1,3.869513273E-1,5.900347233E-1,4.277086258E-1
3.588305180E1,4.498085380E-1,4.057769775E-1,1.852966309E0
3.590311170E1,7.387474179E-2,1.845376492E-1,2.290088654E0
3.592317159E1,-3.409723938E-1,-6.944930553E-2,2.742269516E0
3.594323149E1,2.123399377E-1,-5.756139755E-2,4.296089172E0
3.596329263E1,4.194247723E-1,1.730512381E-1,3.988048553E0
3.598335253E1,6.188799739E-1,-4.269045591E-1,3.350793839E0
3.600341242E1,9.260771871E-1,-1.550827503E0,4.777201653E0
3.602347232E1,1.064851880E0,-2.371560574E0,4.935628891E0
3.604353222E1,5.325938463E-1,-2.302401543E0,1.570311546E0
3.606359086E1,3.713662028E-1,-1.703396559E0,-2.096531868E0
3.608365123E1,3.830931783E-1,-1.315803289E0,-4.370973110E0
3.610371191E1,3.800758123E-1,-1.361211538E0,-3.963039398E0
3.612377180E1,-3.341249824E-1,-1.390492678E0,-2.426187515E0
3.614383170E1,-8.697407246E-1,-1.346508384E0,-1.596922398E0
3.616388784E1,-1.050995827E0,-1.418370962E0,-1.252776146E0
3.618395019E1,-1.079652548E0,-1.362812161E0,-8.149394989E-1
3.620401144E1,-8.603219390E-1,-1.262830377E0,-6.196403503E-1
3.622407133E1,-4.855729938E-1,-1.114039898E0,-8.314876556E-1
3.624413123E1,-1.623864174E-1,-9.533528090E-1,-9.730291367E-1
3.626419118E1,1.767862439E-1,-8.183782101E-1,-1.153891563E0
3.628425107E1,4.450187683E-1,-5.992631912E-1,-1.399162292E0
3.630431097E1,2.887943089E-1,-3.871216774E-1,-1.602953434E0
3.632437086E1,9.271854162E-2,-1.705040932E-1,-1.443833351E0
3.634443076E1,5.765628815E-2,-5.835843086E-2,-6.834859848E-1
3.636448878E1,4.886388779E-1,-1.131939888E-1,7.222366333E-2
3.638454920E1,6.939746737E-1,-1.725962162E-1,7.898445129E-1
3.640461055E1,9.982031584E-2,-3.983734846E-1,1.081365585E0
3.642467045E1,-3.053025007E-1,-5.566229820E-1,1.764160156E0
3.644473034E1,-5.851522684E-1,-3.603857756E-1,1.903801918E0
3.646478800E1,-7.805808187E-1,-9.781122208E-2,1.479598999E0
3.648484914E1,-9.462134838E-1,2.395784855E-1,1.551844597E0
3.650491013E1,-1.493448496E0,5.361294746E-1,1.818932533E0
3.652497003E1,-1.735639811E0,1.605215073E-1,2.350949287E0
3.654502992E1,-1.418774486E0,-7.316440344E-1,3.491482735E0
3.656508696E1,-7.504326105E-1,-1.553092480E0,5.235163689E0
3.658514826E1,-7.541970015E-1,-1.520384789E0,4.356616020E0
3.660520977E1,-1.202784300E0,-1.136736751E0,7.940530777E-1
3.662526967E1,-1.300063133E0,-7.748029232E-1,-2.357642174E0
3.664532956E1,-1.220265269E0,-6.726450920E-1,-4.319023609E0
3.666538175E1,-1.120016932E0,-7.790797949E-1,-3.690968513E0
3.668544748E1,-1.328388810E0,-9.568586349E-1,-2.552793980E0
3.670550935E1,-8.047267199E-1,-9.989333153E-1,-2.034945011E0
3.672556925E1,-8.919715881E-3,-8.253422976E-1,-2.129107952E0
3.674562914E1,6.680052876E-1,-5.647945404E-1,-2.072563171E0
3.676568602E1,6.970204711E-1,-2.860407829E-1,-1.788085461E0
3.678574795E1,6.737661362E-1,7.022380829E-3,-1.504808426E0
3.680580899E1,5.565837622E-1,1.305954456E-1,-9.824714661E-1
3.682586888E1,6.169637442E-1,3.011527061E-1,-2.702960968E-1
3.684592878E1,3.960956931E-1,5.661540031E-1,-2.143611908E-1
3.686598602E1,1.208376884E-1,9.349744320E-1,-7.168807983E-1
3.688604810E1,-9.268563986E-2,1.150760651E0,-1.037940025E0
3.690610862E1,-2.444928885E-1,1.043984413E0,-7.665109634E-1
3.692616852E1,2.228447348E-1,8.868710995E-1,1.047525406E-1
3.694622842E1,6.083006859E-1,7.253212929E-1,2.528390884E-1
3.696628831E1,5.512142181E-1,4.042830467E-1,5.808992386E-1
3.698634821E1,2.670917213E-1,4.116740227E-1,1.067505836E0
3.700640810E1,3.429828286E-1,2.191202641E-1,6.547632217E-1
3.702646800E1,3.262625635E-2,1.177811623E-2,8.357276917E-1
3.704652789E1,1.736960858E-1,-9.048557281E-2,2.005312920E0
3.706658586E1,3.652149737E-1,-4.647493362E-1,2.541646957E0
3.708664685E1,3.896172941E-1,-1.205179572E0,2.919545174E0
3.710670789E1,6.768215299E-1,-2.232913971E0,4.838657379E0
3.712676779E1,4.201349020E-1,-2.808221579E0,6.415059090E0
3.714682769E1,3.234375119E-1,-2.566843033E0,3.913324356E0
3.716688560E1,5.317771435E-1,-1.995565176E0,-2.540111542E-1
3.718694664E1,7.627244592E-1,-1.450381756E0,-3.548128128E0
3.720700748E1,8.674291968E-1,-1.137094736E0,-4.501964092E0
3.722706737E1,2.848008573E-1,-1.187009573E0,-2.586854458E0
3.724712727E1,-3.762391210E-1,-1.311759353E0,-9.997653961E-1
3.726718716E1,-4.950686693E-1,-1.408849239E0,-7.479190826E-2
3.728724706E1,-4.916869402E-1,-1.283983707E0,1.586122513E-1
3.730730696E1,-4.181276560E-1,-9.738680124E-1,-2.072334290E-2
3.732736685E1,-3.986811638E-2,-7.653352022E-1,-5.805139542E-1
3.734742675E1,4.717067480E-1,-5.037634373E-1,-9.008054733E-1
3.736748664E1,8.405863047E-1,-2.471866608E-1,-1.369430542E0
3.738754654E1,1.127945542E0,-7.000613213E-2,-2.114174843E0
3.740760644E1,9.370870590E-1,2.523691654E-1,-2.186839581E0
3.742766633E1,8.543534875E-1,4.740359783E-1,-1.476662159E0
3.744772623E1,8.721336126E-1,3.948199749E-1,-6.843748093E-1
3.746778440E1,1.028013349E0,2.524614334E-1,2.142057419E-1
3.748784545E1,9.429721236E-1,2.820351124E-1,8.230752945E-1
3.750790628E1,7.286210656E-1,2.352063656E-1,2.434043884E-1
3.752796618E1,1.330338120E-1,1.124832630E-1,2.871952057E-1
3.754802607E1,-3.781477809E-1,8.025860786E-2,8.203239441E-1
3.756808269E1,-1.182208657E0,-5.382776260E-3,1.580487251E0
3.758814529E1,-1.894356489E0,4.196786880E-2,2.562605858E0
3.760820581E1,-1.951651335E0,2.731759548E-1,2.706600189E0
3.762826571E1,-1.670495749E0,2.735736370E-1,1.255932808E0
3.764832560E1,-2.053507805E0,-3.516554832E-2,8.502779007E-1
3.766838175E1,-2.034552574E0,-7.160116434E-1,2.693327904E0
3.768844534E1,-1.832353711E0,-1.485765338E0,4.408047676E0
3.770850534E1,-1.232189894E0,-1.553021431E0,3.881257057E0
3.772856524E1,-9.877547026E-1,-1.404066563E0,5.527410507E-1
3.774862513E1,-9.417562485E-1,-1.058549404E0,-2.179862499E0
3.776868503E1,-1.016685247E0,-7.887914181E-1,-3.151546478E0
3.778874492E1,-9.526631832E-1,-6.946308613E-1,-3.347102642E0
3.780880482E1,-2.952111959E-1,-6.283979416E-1,-3.299148560E0
3.782886472E1,4.646113515E-1,-4.640173912E-1,-2.982146263E0
3.784892461E1,9.168709517E-1,-3.934314251E-1,-2.364416599E0
3.786898196E1,1.161639214E0,-3.649241924E-1,-1.639315128E0
3.788904414E1,1.190537214E0,-3.070766926E-1,-1.279432297E0
3.790910435E1,1.100200534E0,-1.695108414E-1,-7.246732712E-1
3.792916425E1,8.871671557E-1,-2.625465393E-3,-3.033266068E-1
3.794922414E1,8.319591880E-1,2.871539593E-1,-2.059192657E-1
3.796928404E1,7.466936707E-1,6.498055458E-1,-7.052879333E-1
3.798934394E1,3.307071328E-1,9.637551308E-1,-8.338432312E-1
3.800940383E1,8.533072472E-2,1.031462193E0,-3.244962692E-1
3.802946373E1,2.298483551E-1,1.206033945E0,1.920471191E-1
3.804952362E1,4.487005174E-1,1.260363579E0,-1.903247833E-1
3.806958352E1,3.147839904E-1,1.144401789E0,-1.847591400E-1
3.808964342E1,5.574804544E-2,8.670783043E-1,1.171440125E0
3.810970331E1,3.096506894E-1,5.547714233E-1,2.290282249E0
3.812976295E1,-1.678245366E-1,1.937806606E-1,2.562046051E0
3.814982232E1,-1.252700686E-1,6.504750252E-2,3.845685005E0
3.816988170E1,5.881991386E-1,2.634322643E-1,4.479763985E0
3.818994211E1,1.255895615E0,1.876268387E-1,2.525565147E0
3.821000258E1,1.595923781E0,-4.501802921E-1,2.048716545E0
3.823006196E1,9.694016576E-1,-1.427115202E0,3.593469620E0
3.825012133E1,2.224056125E-1,-2.176978588E0,4.284895897E0
3.827018222E1,2.138040960E-3,-2.120937109E0,1.456301689E0
3.829024159E1,3.877750337E-1,-1.659945130E0,-1.555762768E0
3.831030097E1,5.544647574E-1,-1.422629833E0,-3.248917103E0
3.833036076E1,6.933882236E-1,-1.413628459E0,-2.901153088E0
3.835042066E1,2.126009762E-1,-1.487267613E0,-1.927598476E0
3.837048175E1,-6.326514482E-1,-1.564695477E0,-1.547719955E0
3.839054112E1,-8.617377877E-1,-1.697271585E0,-1.137063026E0
3.841060050E1,-6.635153890E-1,-1.719822884E0,-4.948902130E-1
3.843066008E1,-4.512215257E-1,-1.581156850E0,-4.494810104E-1
3.845071998E1,-3.348085284E-1,-1.274602056E0,-7.535743713E-1
3.847078107E1,4.887807369E-2,-1.061905622E0,-1.096790314E0
3.849084076E1,3.429805040E-1,-8.693666458E-1,-1.507278919E0
3.851090013E1,2.750140131E-1,-5.868697166E-1,-1.849715233E0
3.853095951E1,-8.908450603E-3,-3.434107304E-1,-1.768887997E0
3.855101930E1,-4.198900461E-1,-2.629272938E-1,-1.134944916E0
3.857107920E1,-1.928923726E-1,-1.178565025E-1,-1.457309723E-2
3.859113909E1,1.481914520E-2,-6.038165092E-2,6.933317184E-1
3.861119899E1,-2.878414989E-1,-1.649754047E-1,1.184799194E0
3.863125888E1,-7.555570602E-1,-1.477601528E-1,1.726052284E0
3.865131878E1,-1.046934605E0,-6.297063828E-2,2.132901192E0
3.867137868E1,-1.491434574E0,-1.459097862E-2,2.478644371E0
3.869143857E1,-1.480003715E0,1.751859188E-1,3.124799728E0
3.871149847E1,-1.424121261E0,2.869894505E-1,2.767139435E0
3.873155836E1,-1.104503274E0,5.224990845E-2,2.300265312E0
3.875161920E1,-1.001272440E0,-8.061060905E-1,3.339733124E0
3.877167805E1,-6.826232076E-1,-1.658448696E0,5.351242065E0
3.879173769E1,-6.106731296E-1,-1.626018286E0,4.334013939E0
3.881179810E1,-8.581342697E-1,-1.162066936E0,3.372468948E-1
3.883185847E1,-9.001508355E-1,-7.505711317E-1,-2.965342999E0
3.885191862E1,-8.865448833E-1,-5.788161755E-1,-4.238849163E0
3.887197618E1,-9.704986215E-1,-6.103191376E-1,-3.852579594E0
3.889203763E1,-1.195412159E0,-5.113070011E-1,-3.408418179E0
3.891209758E1,-1.561304927E-1,-5.273470879E-1,-2.848480225E0
3.893215696E1,6.989975572E-1,-6.274304390E-1,-1.836496353E0
3.895221716E1,1.056878924E0,-7.076725960E-1,-8.701992035E-1
3.897227696E1,9.726741314E-1,-5.510265827E-1,-5.166988373E-1
3.899233633E1,8.729519844E-1,-3.177971840E-1,-6.705341339E-1
3.901239576E1,8.790550232E-1,-1.280887127E-1,-5.405845642E-1
3.903245566E1,7.926433086E-1,1.371376514E-1,-4.682874680E-1
3.905251597E1,6.803906560E-1,5.128746033E-1,-7.366704941E-1
3.907257618E1,2.513476312E-1,8.637092113E-1,-9.983425140E-1
3.909263555E1,-1.224172711E-1,9.075756073E-1,-8.179721832E-1
3.911269492E1,-1.730040312E-1,1.025779009E0,-4.004392624E-1
3.913275482E1,2.157603502E-1,1.222441673E0,-1.478816986E0
3.915281581E1,6.717146039E-1,1.237018347E0,-1.975996017E0
3.917287545E1,6.285143495E-1,8.287682533E-1,-1.484346390E-1
3.919293482E1,3.944427967E-1,7.179598808E-1,1.744123459E0
3.921299420E1,-3.239053488E-1,5.493576527E-1,1.963703156E0
3.923305388E1,-7.522081137E-1,1.447579861E-1,3.242245674E0
3.925311493E1,-1.590340883E-1,8.167505264E-3,5.216156006E0
3.927317451E1,2.717569470E-1,5.403702259E-1,3.968516350E0
3.929323388E1,6.378603578E-1,2.329740524E-1,1.917078972E0
3.931329326E1,1.096153498E0,-1.191645384E0,3.220764160E0
3.933335300E1,7.822308540E-1,-2.299711227E0,4.837895393E0
3.935341352E1,-2.687951922E-2,-2.295701027E0,3.009238243E0
3.937347368E1,-1.065869927E-1,-1.884355426E0,-3.742446899E-1
3.939353305E1,3.996763825E-1,-1.573010325E0,-3.072863579E0
3.941359243E1,7.419265509E-1,-1.444578648E0,-3.760265350E0
3.943365201E1,4.496130347E-1,-1.498974323E0,-2.659997463E0
3.945371263E1,-3.493683040E-1,-1.653056145E0,-1.203517914E0
3.947377258E1,-4.637729526E-1,-1.822594762E0,-2.058410645E-2
3.949383196E1,-3.858420551E-1,-1.713206291E0,4.022798538E-1
3.951389133E1,-4.091407955E-1,-1.420130491E0,-1.865949631E-1
3.953395107E1,-1.819297969E-1,-1.129013538E0,-9.634666443E-1
3.955401097E1,3.967177868E-2,-8.950240612E-1,-1.288438320E0
3.957407086E1,1.862441897E-1,-7.362611294E-1,-1.536579132E0
3.959413076E1,3.281692863E-1,-6.450014114E-1,-1.955104828E0
3.961419066E1,4.420188367E-1,-4.247796535E-1,-2.298719406E0
3.963425055E1,2.899050415E-1,-7.811188698E-2,-2.490830898E0
3.965431107E1,2.509589195E-1,4.680252075E-2,-2.039054871E0
3.967436956E1,4.956880212E-1,2.054319382E-1,-1.022812843E0
3.969442946E1,6.030955315E-1,1.285617352E-1,2.017240524E-1
3.971448935E1,6.669670343E-2,-5.109786987E-2,1.433292389E0
3.973454925E1,-2.719090581E-1,-2.074310780E-1,2.350276947E0
3.975461003E1,-6.477656364E-1,-4.057526588E-2,2.836579323E0
3.977466941E1,-1.195659399E0,1.391074657E-1,2.981316566E0
3.979472878E1,-1.372806311E0,4.466962814E-1,3.854669571E0
3.981478816E1,-1.251604438E0,7.408330441E-1,3.703138351E0
3.983484800E1,-1.037791133E0,1.064208746E0,2.255881310E0
3.985490894E1,-1.522462130E0,5.680162907E-1,1.929016113E0
3.987496425E1,-1.649611712E0,-5.357124805E-1,3.208342552E0
3.989502852E1,-1.378469825E0,-1.329185843E0,3.886759758E0
3.991508800E1,-1.080206752E0,-1.415975451E0,1.242365837E0
3.993514737E1,-9.536731839E-1,-1.231987357E0,-1.606121063E0
3.995520675E1,-1.102609634E0,-1.082295656E0,-3.146436691E0
3.997526644E1,-1.285042048E0,-8.497555256E-1,-3.471580505E0
3.999532633E1,-1.188620448E0,-6.613876820E-1,-4.086421490E0
4.001538623E1,-8.058016300E-1,-5.579788685E-1,-3.948802948E0
4.003544612E1,2.027004957E-2,-5.538871288E-1,-2.362363338E0
4.005550602E1,6.572060585E-1,-5.561904907E-1,-1.178545475E0
4.007556592E1,8.025313616E-1,-4.114267826E-1,-1.019153595E0
4.009562581E1,8.876054287E-1,-1.316339970E-1,-1.018547058E0
4.011568571E1,7.327095866E-1,1.201112270E-1,-8.496122360E-1
4.013574560E1,7.464821339E-1,3.139953613E-1,-4.422950745E-1
4.015580493E1,5.958664417E-1,6.087055206E-1,-2.631797791E-1
4.017586227E1,-4.854279757E-2,9.684822559E-1,-4.245185852E-1
4.019592513E1,-2.956468165E-1,1.111189365E0,-7.018594742E-1
4.021598451E1,-1.823036373E-1,1.085819960E0,-8.704881668E-1
4.023604388E1,4.224978387E-1,1.083641529E0,-9.039983749E-1
4.025610446E1,8.540522456E-1,1.088974953E0,-1.174572945E0
4.027616399E1,5.421260595E-1,6.540641785E-1,-1.243276596E-1
4.029622336E1,4.149269760E-1,3.738355637E-1,1.837691307E0
4.031628274E1,1.400733739E-2,3.162219524E-1,2.293248177E0
4.033634232E1,-2.698961198E-1,1.573998928E-1,2.660696030E0
4.035640331E1,2.125117183E-1,-6.861495972E-2,4.155218124E0
4.037646274E1,7.806491852E-1,2.874078751E-1,4.152973175E0
4.039652211E1,1.154576302E0,4.498829842E-1,1.756193161E0
4.041658149E1,1.689111471E0,-2.835323811E-1,1.287773132E0
4.043664118E1,8.292309642E-1,-1.280772448E0,3.001940727E0
4.045670211E1,4.621345401E-1,-1.917849779E0,2.862245560E0
4.047676164E1,3.457446694E-1,-1.847853780E0,6.659221649E-1
4.049682102E1,5.991430283E-1,-1.494425297E0,-1.541470528E0
