"Time (s)","Acceleration x (m/s^2)","Acceleration y (m/s^2)","Acceleration z (m/s^2)"
0.000000000E0,-4.121235371E0,2.310519457E0,5.780752182E0
2.000156300E-2,-3.582606792E0,2.216676474E0,6.299872398E0
4.200000000E-2,-3.648753881E0,2.210212231E0,6.183571815E0
6.200625000E-2,-4.069194794E0,2.249812365E0,6.244489670E0
8.399843800E-2,-4.238130093E0,2.346557140E0,6.612976551E0
1.040062500E-1,-4.072441578E0,2.405923843E0,7.048884392E0
1.259984380E-1,-3.606041193E0,2.334921360E0,7.221372128E0
1.460046880E-1,-3.864270210E0,2.520481348E0,7.503600597E0
1.679984380E-1,-4.186089516E0,2.432738781E0,8.592397690E0
1.880062500E-1,-4.178954601E0,1.930157423E0,1.019018173E1
2.100000000E-1,-4.279760361E0,1.702037930E0,1.166674423E1
2.300015630E-1,-4.349278450E0,1.821709752E0,1.120316887E1
2.520000000E-1,-4.271102428E0,2.386415720E0,1.056076622E1
2.720000000E-1,-3.494452477E0,1.941649675E0,9.977385521E0
2.920000000E-1,-2.703101635E0,1.364244819E0,1.056178093E1
3.120046880E-1,-2.323840857E0,1.131001711E0,1.106306076E1
3.339984380E-1,-2.674457312E0,1.382000208E0,1.178373432E1
3.540046880E-1,-2.625366688E0,1.790269136E0,1.132866287E1
3.760000000E-1,-1.888632417E0,1.667599678E0,9.912406921E0
3.960031250E-1,-1.529435158E0,2.382374287E0,9.215415955E0
4.179984380E-1,-9.951164126E-1,2.570711851E0,8.770411491E0
4.379984380E-1,-1.027639270E0,2.292659044E0,8.309095383E0
4.580000000E-1,-1.188069940E0,2.120975256E0,8.125278473E0
4.780046880E-1,-1.884581566E0,2.003238201E0,7.909092426E0
5.000000000E-1,-2.707114220E0,2.578296661E0,7.578127384E0
5.200000000E-1,-2.431120396E0,2.349937677E0,7.128515244E0
5.400000000E-1,-1.137916088E0,2.127362967E0,7.553802013E0
5.600000000E-1,-1.411132932E0,2.241489887E0,7.210933208E0
5.800000000E-1,-1.431780577E0,2.668653727E0,7.588106632E0
6.000000000E-1,-1.442008495E0,2.421236992E0,7.832841396E0
6.200000000E-1,-1.036555290E0,2.313402176E0,8.041567802E0
6.400000000E-1,-1.051648259E0,2.271589756E0,7.976206779E0
6.600062500E-1,-1.111675739E0,2.302130461E0,8.324036598E0
6.820000000E-1,-1.872878671E0,2.431053162E0,9.198877335E0
7.020046880E-1,-1.884533525E0,2.217318058E0,9.731031418E0
7.239984380E-1,-1.832387924E0,1.309254885E0,1.053852940E1
7.440015630E-1,-2.039831161E0,8.078994155E-1,1.144367123E1
7.640187500E-1,-1.475939155E0,2.799588144E-1,1.141902065E1
7.859984380E-1,-1.136872292E0,-2.300349027E-1,1.076633167E1
8.060000000E-1,-1.164396048E0,-8.084836006E-1,1.219604397E1
8.260062500E-1,-2.686945438E0,-6.015575528E-1,1.281762695E1
8.480000000E-1,-2.873798609E0,1.450215876E-1,1.154833603E1
8.680015630E-1,-1.957288623E0,-1.047817588E0,1.096454430E1
8.899984380E-1,-1.304418564E0,-1.182840943E0,1.006054115E1
9.100031250E-1,-1.488647580E0,-1.985080540E-1,9.154354095E0
9.319984380E-1,-1.567435861E0,-7.992132306E-1,1.015404892E1
9.520046880E-1,-1.977706254E-1,-4.344039440E0,1.279253578E1
9.739984380E-1,-1.547401190E0,-9.889872670E-1,7.831778526E0
9.940000000E-1,-2.161600113E0,3.189747036E-1,9.139462471E0
1.016015625E0,-1.915916920E0,-9.783570170E-1,9.813755989E0
1.037998438E0,-2.505359650E0,6.260454059E-1,9.016160965E0
1.058000000E0,-1.988690972E0,3.307062984E-1,7.774691582E0
1.080000000E0,-5.845395327E-1,2.418814152E-1,8.000205994E0
1.100000000E0,-3.352265358E-1,6.068247557E-1,7.650202274E0
1.120000000E0,-1.407359600E0,1.255758762E0,8.235574722E0
1.140000000E0,-1.655408621E0,1.698379636E0,5.921789646E0
1.160003125E0,-2.731783986E-1,2.275918484E0,5.813792229E0
1.182000000E0,6.764385700E-1,2.819756508E0,7.968736172E0
1.202000000E0,1.702574372E0,3.132066011E0,1.012726307E1
1.223998438E0,1.052672982E0,2.676698208E0,9.575983047E0
1.244000000E0,2.747681439E-1,1.416017056E0,9.073325157E0
1.264018750E0,8.574880958E-1,1.203613043E0,1.167941380E1
1.285998438E0,2.276780605E0,1.364637494E0,1.144903374E1
1.306000000E0,3.333925724E0,6.098414660E-1,1.094055367E1
1.326006250E0,2.481695414E0,1.664362788E0,1.232606792E1
1.348000000E0,1.079478502E0,6.678099036E-1,1.207471561E1
1.368004688E0,4.601081014E-1,9.177166820E-1,1.115923023E1
1.389998438E0,1.483495235E0,1.247570634E0,1.014885807E1
1.410000000E0,2.632549286E0,1.182908058E0,9.656044960E0
1.430001563E0,3.038883448E0,1.445705175E0,8.980622292E0
1.452000000E0,2.583448887E0,1.550580859E0,8.125863075E0
1.472000000E0,1.528889298E0,1.620012641E0,7.562593937E0
1.492004688E0,1.631983638E0,1.070332646E0,7.834910393E0
1.514000000E0,4.585087895E-1,1.927533388E0,7.999487877E0
1.534001563E0,-1.975312233E-1,2.655351639E0,7.973390579E0
1.555998438E0,6.292728186E-1,2.345177889E0,8.478308678E0
1.575998438E0,1.543235302E0,1.498885155E0,6.394692421E0
1.596000000E0,4.470165968E-1,2.297839880E0,6.075229645E0
1.616007813E0,-1.046840772E-1,2.776211023E0,7.479179859E0
1.637998438E0,4.710543752E-1,2.832551241E0,9.154507637E0
1.658001563E0,4.118697345E-1,3.135973454E0,9.296771049E0
1.680000000E0,1.040520072E0,1.601222873E0,8.068919182E0
1.700000000E0,8.001422137E-2,3.209321976E0,8.110654831E0
1.720000000E0,-3.228724599E-1,3.969404459E0,8.743203163E0
1.740010938E0,3.845949769E-1,3.831450462E0,8.868630409E0
1.762000000E0,1.101447701E0,3.293827772E0,1.003193474E1
1.782007813E0,1.004750729E0,2.652536154E0,1.185651779E1
1.804000000E0,9.370905161E-2,2.334260464E0,1.199171352E1
1.824001563E0,-5.179041028E-1,2.796542406E0,1.036472893E1
1.845998438E0,-3.494864106E-1,3.210739613E0,9.624566078E0
1.866012500E0,-6.236033440E-1,3.270278215E0,1.070266628E1
1.887998438E0,-8.757127523E-1,2.071511269E0,1.191691875E1
1.908000000E0,-1.322806001E0,2.114759922E0,1.163965130E1
1.930000000E0,-9.242097139E-1,2.170660019E0,9.813009262E0
1.951998438E0,-3.169827163E-1,2.016664743E0,9.014207840E0
1.972000000E0,-4.009808898E-1,1.940950513E0,8.363195419E0
1.992000000E0,-7.610017657E-1,2.184661150E0,7.643230438E0
2.012000000E0,-8.675437570E-1,2.303087950E0,7.156412601E0
2.032003125E0,-8.513014913E-1,2.855238676E0,7.178238392E0
2.053998438E0,-6.272616982E-1,3.345303297E0,7.728550434E0
2.074006250E0,-5.143798590E-1,3.567379713E0,7.041089058E0
2.096000000E0,-2.651913464E-1,3.309610367E0,7.142468929E0
2.116003125E0,1.226760268E0,1.872600913E0,6.692138672E0
2.137998438E0,6.714873910E-1,2.902385235E0,7.534964561E0
2.158000000E0,3.892397583E-1,3.047387600E0,8.860404015E0
2.180000000E0,-1.425124705E-1,3.452525139E0,8.687561989E0
2.200000000E0,1.020887587E-2,3.554364681E0,9.240920067E0
2.220000000E0,5.209496021E-1,2.670406580E0,9.110340118E0
2.240000000E0,6.574286222E-1,2.163362265E0,9.923410416E0
2.260000000E0,4.086902142E-1,1.983347178E0,1.091629601E1
2.280015625E0,3.020142019E-1,2.397582293E0,1.174554157E1
2.301998438E0,5.171762705E-1,2.532730341E0,1.186876678E1
2.322000000E0,7.149469852E-1,3.023014784E0,1.191355801E1
2.342000000E0,1.170802951E0,2.699950933E0,1.136996746E1
2.364025000E0,1.547458768E0,2.556720257E0,1.008900261E1
2.384028125E0,1.831334472E0,1.970724821E0,1.040582371E1
2.406006250E0,1.344535708E0,1.829869270E0,1.122530079E1
2.428000000E0,1.464035153E0,1.822820663E0,1.039578629E1
2.448003125E0,1.584607124E0,2.220746517E0,9.060827255E0
2.470000000E0,1.323112369E0,2.562379837E0,8.094249725E0
2.491998438E0,1.091660142E0,2.993183136E0,7.717230320E0
2.512000000E0,1.012105703E0,2.971922636E0,7.266392708E0
2.532000000E0,1.254494667E0,2.783278465E0,7.098453522E0
2.552000000E0,1.035099626E0,2.621727467E0,7.777018547E0
2.572003125E0,4.097436965E-1,2.769401789E0,8.193742752E0
2.593998438E0,7.024587691E-2,3.178417683E0,7.727008343E0
2.614000000E0,5.155961514E-1,3.412676096E0,6.922470093E0
2.634000000E0,9.514269829E-1,3.458519936E0,6.746295452E0
2.654007813E0,1.255777955E0,3.308499575E0,7.559826374E0
2.676000000E0,1.033998251E0,3.519438267E0,7.767173290E0
2.696003125E0,8.687599897E-1,3.568729877E0,7.580397129E0
2.717998438E0,6.906697154E-1,3.816376686E0,7.998625278E0
2.738004688E0,6.188245416E-1,3.895193815E0,8.625724792E0
2.760000000E0,4.212933183E-1,3.965947151E0,9.559233665E0
2.780006250E0,5.659796596E-1,3.844245195E0,1.023427391E1
2.801998438E0,1.907881856E0,3.167519331E0,1.065835381E1
2.822000000E0,1.907393456E0,3.019672632E0,1.109073734E1
2.844001563E0,3.332728744E-1,3.599605799E0,1.035245132E1
2.864018750E0,-3.268277049E-1,4.160614967E0,1.014493179E1
2.886000000E0,2.458940893E-1,3.722370625E0,1.124126530E1
2.908000000E0,-2.116665840E-1,3.194793940E0,1.249867153E1
2.928006250E0,-8.664137125E-1,3.230563402E0,1.224277973E1
2.950000000E0,-9.602184892E-1,3.582989931E0,1.032639217E1
2.970006250E0,-8.489264250E-1,3.954052687E0,8.315196037E0
2.992000000E0,-1.733497828E-1,3.844810247E0,6.970086098E0
3.012007813E0,4.749330282E-1,3.155155420E0,7.341781139E0
3.033998438E0,8.406041861E-1,2.565712690E0,8.133591652E0
3.054003125E0,7.013670206E-1,2.300272465E0,8.006354332E0
3.075998438E0,3.419111669E-1,2.329787970E0,7.068028450E0
3.096000000E0,1.715876460E-1,2.635010481E0,6.329024315E0
3.118000000E0,3.548973203E-1,2.630413532E0,5.929700375E0
3.140000000E0,5.969223380E-1,2.915620565E0,5.879862309E0
3.160001563E0,5.624458790E-1,3.150367260E0,5.678797245E0
3.180001563E0,4.444404542E-1,3.680845737E0,6.123419762E0
3.201998438E0,3.882245719E-1,4.010163307E0,6.928283215E0
3.222000000E0,2.705352306E-1,4.376303673E0,7.467878819E0
3.242000000E0,2.865572274E-1,4.688708782E0,7.891777515E0
3.262007813E0,3.585460782E-1,4.748295784E0,8.479841232E0
3.284000000E0,6.380547285E-1,4.413107395E0,9.714166641E0
3.306000000E0,9.568474889E-1,3.941258192E0,1.153569412E1
3.328004688E0,1.277047992E0,3.720953465E0,1.205192280E1
3.350000000E0,1.440198541E0,3.776767015E0,1.100700665E1
3.370007813E0,1.529942751E0,3.736975431E0,1.034494305E1
3.392000000E0,2.345005512E0,2.978856087E0,1.177272034E1
3.412003125E0,3.743066072E0,1.667858362E0,1.375565624E1
3.434000000E0,4.004378796E0,1.883231163E0,1.363927841E1
3.456000000E0,4.262128830E0,2.239066839E0,1.103411961E1
3.478004688E0,4.606645107E0,2.371006489E0,8.086062431E0
3.500000000E0,4.113525867E0,2.538734913E0,6.829259396E0
3.520000000E0,2.608511448E0,3.099198341E0,6.988607883E0
3.540000000E0,1.822006583E0,2.455215693E0,7.359843254E0
3.560006250E0,9.541085362E-1,2.353002310E0,7.757289886E0
3.581998438E0,5.750010610E-1,2.254361153E0,8.154804230E0
3.602000000E0,8.569231033E-1,2.434424400E0,7.871168137E0
3.622000000E0,1.356746197E0,2.616211176E0,6.828713417E0
3.644007813E0,1.811845660E0,2.738832712E0,5.935311794E0
3.664018750E0,1.882244706E0,2.861511469E0,5.557334900E0
3.685998438E0,1.798227429E0,2.986967802E0,5.685146809E0
3.706000000E0,1.733641505E0,3.084995747E0,6.002349377E0
3.726001563E0,1.766700506E0,2.984966040E0,6.725667000E0
3.747998438E0,1.882311821E0,2.736381054E0,8.088982582E0
3.768004688E0,1.527280450E0,2.707545280E0,9.428692818E0
3.790000000E0,7.334301472E-1,2.838239908E0,1.022144032E1
3.810004688E0,5.568817258E-1,3.041143894E0,1.016318512E1
3.832000000E0,5.213996768E-1,3.127200842E0,1.023991394E1
3.852003125E0,2.889418304E-1,3.143529415E0,1.070753098E1
3.873998438E0,-9.550949186E-2,3.369484663E0,1.084298515E1
3.894000000E0,2.883863747E-1,3.554403067E0,1.190482330E1
3.914000000E0,1.178521872E0,2.917344332E0,1.560745621E1
3.934006250E0,1.224854469E0,2.189382553E0,1.682697678E1
3.956000000E0,1.583716571E-1,2.610704660E0,1.534849930E1
3.976003125E0,-3.116005659E-1,3.205328703E0,1.367721176E1
3.997998438E0,-4.498896599E-1,3.566087008E0,1.273492146E1
4.018003125E0,-9.188849926E-1,3.890846014E0,1.214945316E1
4.040000000E0,-8.878082633E-1,4.147303104E0,1.185470772E1
4.060000000E0,-9.766427428E-2,4.656923294E0,1.235103512E1
4.080000000E0,1.117469668E0,5.084259987E0,1.233193970E1
4.100004688E0,2.668462515E0,5.424906731E0,1.185142326E1
4.121998438E0,3.819154024E0,5.058277607E0,9.968479156E0
4.142004688E0,4.823061943E0,4.902941704E0,7.788750172E0
4.164018750E0,5.309103966E0,4.317914009E0,6.285028458E0
4.186000000E0,3.281799316E0,4.467302799E0,6.013085365E0
4.206000000E0,2.019059181E0,3.666154861E0,6.189164639E0
4.226003125E0,2.561843634E0,2.869872093E0,7.340363979E0
4.247998438E0,2.703254938E0,2.386329651E0,8.178180695E0
4.268000000E0,2.898229122E0,1.770263195E0,7.701830864E0
4.290000000E0,3.649654150E0,1.824238062E0,5.290697098E0
4.310000000E0,4.590134621E0,2.635939360E0,4.712842464E0
4.332000000E0,5.385115147E0,3.414256096E0,4.810679436E0
4.354000000E0,4.234088421E0,3.538630009E0,2.584540844E0
4.376000000E0,1.979669690E0,4.830129623E0,1.554229498E0
4.397998438E0,2.721613407E0,6.023275375E0,2.860534668E0
4.417998438E0,3.188846827E0,5.994602203E0,4.437126160E0
4.437998438E0,3.029440880E0,6.120268822E0,4.382308483E0
4.458001563E0,3.388810635E0,6.897235394E0,2.129345417E0
4.480000000E0,4.186328411E0,7.496235847E0,9.474143386E-1
4.500009375E0,3.900279045E0,7.794831276E0,1.947884202E0
4.521998438E0,3.045625687E0,8.141310692E0,3.547230005E0
4.542000000E0,2.574408531E0,8.192009926E0,4.117327690E0
4.564018750E0,2.692624569E0,7.832918167E0,4.343436241E0
4.586000000E0,2.677512407E0,7.416231632E0,4.775972843E0
4.606000000E0,3.016952753E0,7.052724838E0,5.037247181E0
4.627998438E0,3.147187710E0,6.682762623E0,4.246700764E0
4.648003125E0,2.959079981E0,6.414928436E0,3.795460939E0
4.670000000E0,2.447381496E0,6.193033695E0,3.716586351E0
4.690006250E0,1.958773017E0,6.380125999E0,3.712975740E0
4.712000000E0,2.240005732E0,6.715209007E0,3.578105688E0
4.732003125E0,2.607563496E0,7.102523804E0,3.735969782E0
4.754000000E0,2.761261463E0,7.785378933E0,4.621182442E0
4.774006250E0,2.676018238E0,8.550220490E0,5.128198147E0
4.795998438E0,2.793717384E0,8.790024757E0,4.495553970E0
4.816000000E0,2.786448479E0,8.854063988E0,4.274119377E0
4.838000000E0,2.832848072E0,9.116344452E0,5.474198818E0
4.860000000E0,2.459208965E0,9.436209679E0,7.154756069E0
4.880000000E0,1.972103834E0,9.046654701E0,7.527552128E0
4.900000000E0,2.200060844E0,8.896116257E0,7.313041210E0
4.920000000E0,3.133646011E0,8.724892616E0,7.715248108E0
4.940004688E0,3.261544466E0,8.089012146E0,8.980516434E0
4.962000000E0,2.155068874E0,7.222914219E0,9.976618767E0
4.982001563E0,1.766279221E0,6.683835506E0,1.007223415E1
5.004000000E0,1.951446772E0,6.459153652E0,1.000476551E1
5.026000000E0,2.371638775E0,6.328516483E0,9.343497276E0
5.048001563E0,2.227402449E0,6.109179020E0,7.948576927E0
5.070000000E0,2.225238085E0,5.481036186E0,6.133169174E0
5.090003125E0,2.236567497E0,5.684734821E0,5.009330750E0
5.112000000E0,2.545266390E0,5.193119049E0,3.905086756E0
5.132000000E0,2.412771225E0,4.870802402E0,2.957154989E0
5.154000000E0,2.086374521E0,4.536064148E0,1.982456446E0
5.174000000E0,1.704029918E0,4.376466751E0,1.336836100E0
5.196007813E0,9.706093669E-1,4.563204765E0,6.145149469E-1
5.217998438E0,1.009663582E0,4.375680923E0,2.701521218E-1
5.238000000E0,4.496119320E-1,4.619928360E0,4.068514705E-1
5.258000000E0,7.870219946E-1,3.397286177E0,1.139601707E0
5.278000000E0,1.356257796E0,2.184278011E0,2.904156923E0
5.300000000E0,1.353154898E0,1.104272842E0,6.158097744E0
5.320000000E0,1.647794962E0,8.174666762E-1,7.873858929E0
5.340000000E0,1.897203684E0,1.064414144E0,8.277262688E0
5.360000000E0,2.040501356E0,1.218093276E0,7.584955692E0
5.380004688E0,3.130897522E0,5.064119697E-1,6.650814533E0
5.402000000E0,5.547193050E0,-1.047616482E0,9.814723969E0
5.422004688E0,6.421334743E0,-2.078301191E0,1.522177887E1
5.443998438E0,4.623394966E0,-1.712332964E0,1.748657799E1
5.464018750E0,3.135666847E0,-5.366459489E-1,1.670754242E1
5.485998438E0,2.602190733E0,1.996668428E-1,1.712628937E1
5.505998438E0,2.194304943E0,1.070122004E0,1.665285110E1
5.526000000E0,2.450656891E0,1.947654247E0,1.415964317E1
5.546003125E0,2.293769836E0,2.504861832E0,1.243839455E1
5.567998438E0,1.905238628E0,2.709489346E0,1.250927258E1
5.588001563E0,7.718427777E-1,2.816538811E0,1.221000671E1
5.609998438E0,-1.149791405E-1,2.807996273E0,1.067964363E1
5.630000000E0,-5.475730300E-1,2.607074976E0,9.733636856E0
5.650000000E0,-7.152916789E-1,2.454391956E0,9.449387550E0
5.670003125E0,-4.485872090E-1,2.298443079E0,9.439140320E0
5.692000000E0,3.456269503E-1,2.105336428E0,9.876350403E0
5.712001563E0,1.069643140E0,2.004023552E0,1.059568405E1
5.733998438E0,1.605130196E0,1.223609447E0,1.085882473E1
5.754003125E0,1.301727414E0,1.052759290E0,1.079087830E1
5.775998438E0,1.095548391E0,8.264592886E-1,1.087637043E1
5.795998438E0,1.381588459E0,6.184223294E-1,1.130000973E1
5.816000000E0,1.912172198E0,2.550973892E-1,1.131765938E1
5.836007813E0,2.728815317E0,-6.092190146E-1,1.160912991E1
5.857998438E0,1.870771766E0,4.296730161E-1,1.153274536E1
5.878004688E0,1.826660991E0,2.242313474E-1,1.053466988E1
5.900000000E0,1.616430879E0,3.772208691E-1,1.114618683E1
5.920007813E0,1.581226587E0,-4.357447326E-1,1.293612957E1
5.941998438E0,1.024124503E0,-8.049784899E-1,1.371284771E1
5.962001563E0,5.895003676E-1,-6.229617596E-1,1.294992065E1
5.984029688E0,6.223966479E-1,-3.859453201E-1,1.112166119E1
6.005998438E0,7.756064534E-1,-1.782339513E-1,9.775640488E0
6.026000000E0,5.293962955E-1,-1.471667886E-1,9.042057037E0
6.048000000E0,-3.929363936E-2,1.794023216E-1,7.702884197E0
6.070000000E0,9.284905791E-1,-3.032687306E-1,6.481410503E0
6.090000000E0,-5.617180467E-1,2.164722204E0,6.350514412E0
6.110000000E0,7.793605328E-2,1.152492046E0,6.175661087E0
6.130000000E0,1.186183318E-1,1.411381960E0,6.375404835E0
6.150000000E0,4.326705635E-1,1.154225469E0,6.518204689E0
6.170006250E0,5.744456053E-1,1.044753075E0,7.012492180E0
6.192000000E0,5.969032049E-1,8.641439676E-1,7.922815323E0
6.212000000E0,3.687932491E-1,1.033078909E0,8.185488701E0
6.232000000E0,5.324512720E-1,1.366342187E0,7.784909725E0
6.252007813E0,1.199916363E0,1.453759313E0,7.773714542E0
6.274000000E0,1.365690947E0,1.425488472E0,8.575590134E0
6.294003125E0,1.412923813E0,1.364963174E0,9.049920082E0
6.314003125E0,1.585919142E0,1.551030874E0,9.435290337E0
6.334007813E0,1.956177711E0,2.021204233E0,1.004878044E1
6.355998438E0,2.040941954E0,2.420298576E0,1.000848103E1
6.376003125E0,2.229222059E0,2.160604239E0,9.715210915E0
6.397998438E0,3.465645313E0,1.139850736E0,1.083278656E1
6.418004688E0,2.915764093E0,1.054071307E0,1.354809761E1
6.440000000E0,1.777512789E0,1.146707654E0,1.369736195E1
6.460003125E0,1.695544958E0,1.772705197E0,1.159397984E1
6.481998438E0,2.609526634E0,2.014203548E0,9.137996674E0
6.501998438E0,2.990999460E0,1.915275097E0,8.487655640E0
6.521998438E0,2.604575396E0,1.613184333E0,8.859695435E0
6.542003125E0,1.766997457E0,1.443157673E0,9.109994888E0
6.564018750E0,1.127305031E0,1.444757104E0,8.864560127E0
6.585998438E0,6.489914656E-1,1.578219533E0,8.029740334E0
6.606000000E0,3.149620295E-1,1.744530320E0,7.172511101E0
6.626001563E0,3.061609566E-1,1.867362380E0,6.604721069E0
6.647998438E0,4.866071045E-1,2.020600796E0,6.398647308E0
6.668003125E0,7.851065993E-1,2.064156294E0,6.526038647E0
6.690000000E0,8.444157839E-1,2.087226868E0,6.913056374E0
6.712000000E0,7.668915391E-1,2.187764168E0,7.264208794E0
6.732000000E0,7.631182671E-1,2.281626225E0,7.628549099E0
6.752000000E0,9.225242138E-1,2.458280087E0,7.719748974E0
6.774000000E0,1.003496051E0,2.618576765E0,7.838233471E0
6.794000000E0,9.235681295E-1,2.751196384E0,8.483365059E0
6.816000000E0,8.538681269E-1,2.721316576E0,9.642417908E0
6.838000000E0,1.500427008E0,2.433610439E0,1.061847591E1
6.858001563E0,1.704901457E0,2.179422617E0,1.090006256E1
6.880000000E0,1.205269933E0,2.086412668E0,1.101196766E1
6.900001563E0,9.234818816E-1,1.264397144E0,1.342154026E1
6.921998438E0,1.317730308E0,4.710448384E-1,1.591399956E1
6.942006250E0,1.199916363E0,6.028599739E-1,1.514050961E1
6.964018750E0,7.065001726E-1,1.036076427E0,1.232630730E1
6.985998438E0,1.174154758E0,1.290637612E0,1.131126308E1
7.005998438E0,1.628813744E0,1.266657233E0,1.118789387E1
7.025998438E0,1.410529494E0,1.168274641E0,1.048581791E1
7.045998438E0,9.694793224E-1,1.229106545E0,9.583070755E0
7.065998438E0,6.719949245E-1,1.378495097E0,8.454347610E0
7.085998438E0,5.862154961E-1,1.656270385E0,7.348982811E0
7.105998438E0,7.483412623E-1,1.909500360E0,6.682083130E0
7.125998438E0,8.877891302E-1,2.047942638E0,6.688623905E0
7.145998438E0,9.710977674E-1,2.086939335E0,6.674861908E0
7.166006250E0,1.037953496E0,2.058927298E0,6.537645340E0
7.188000000E0,1.092656255E0,1.976202726E0,6.607728481E0
7.208003125E0,1.002251148E0,1.820752025E0,7.047763824E0
7.230000000E0,6.779996157E-1,1.564333081E0,7.494157791E0
7.252000000E0,2.907231152E-1,1.501461267E0,7.616147041E0
7.274001563E0,6.532244086E-1,1.510147452E0,7.871417046E0
7.295998438E0,1.004693270E0,1.530105591E0,8.451733589E0
7.316000000E0,1.335485697E0,1.492411256E0,9.054718018E0
7.338000000E0,2.145195007E0,1.414973140E0,9.983486176E0
7.360000000E0,2.441386700E0,1.492928505E0,1.113960743E1
7.380000000E0,2.419790983E0,1.561766505E0,1.091842175E1
7.400000000E0,3.213018894E0,1.596195102E0,9.424277306E0
7.420000000E0,5.212512016E0,1.038288713E0,1.026343536E1
7.440004688E0,5.775015831E0,-3.045424353E-3,1.320594692E1
7.462000000E0,4.726250172E0,-2.410003394E-1,1.540252209E1
7.482001563E0,3.789216757E0,4.395850301E-1,1.366580677E1
7.504000000E0,4.343369007E0,5.981386304E-1,1.076241493E1
7.526000000E0,4.373000145E0,9.631011486E-1,9.273269653E0
7.548004688E0,3.652977228E0,1.325679064E0,8.084509850E0
7.570000000E0,2.712745428E0,1.417089701E0,7.340306282E0
7.590000000E0,1.919670939E0,1.466189981E0,7.228832722E0
7.612000000E0,1.340752959E0,1.475623131E0,6.992744923E0
7.634000000E0,1.024689555E0,1.518220663E0,6.585979462E0
7.654000000E0,5.281800628E-1,1.592402697E0,6.034719467E0
7.676000000E0,7.912357897E-2,1.704489589E0,5.509680748E0
7.698000000E0,2.138501033E-2,1.679206967E0,5.622351646E0
7.720000000E0,2.822476625E-1,1.576342463E0,6.134002209E0
7.740000000E0,8.774845004E-1,1.380084872E0,6.642923355E0
7.760000000E0,1.160498261E0,1.347293973E0,7.681068420E0
7.780004688E0,1.288348675E0,1.328628659E0,8.759302139E0
7.802000000E0,1.453740120E0,1.437679768E0,9.748767853E0
7.822000000E0,2.256420135E0,1.296766758E0,1.079429722E1
7.842000000E0,3.339451551E0,1.073205709E0,1.217102909E1
7.862000000E0,3.970841169E0,9.075556397E-1,1.326028633E1
7.883998438E0,3.936402798E0,1.205221891E0,1.393073940E1
7.904006250E0,3.283647776E0,2.280170679E0,1.243751335E1
7.925998438E0,3.031270027E0,3.043269873E0,9.329830170E0
7.946000000E0,3.332546949E0,2.692940712E0,9.077510834E0
7.966000000E0,3.359917164E0,1.697029352E0,1.076052952E1
7.988004688E0,2.489395380E0,1.001341343E0,1.213834381E1
8.010000000E0,1.744951606E0,6.180392504E-1,1.152212429E1
8.030007813E0,1.833843589E0,3.665426970E-1,1.180194950E1
8.052000000E0,2.213813066E0,-6.253655069E-3,1.249552059E1
8.072000000E0,2.101285458E0,-2.010171860E-1,1.233575058E1
8.092000000E0,1.703627706E0,-7.196970284E-2,1.155819035E1
8.112000000E0,1.339479208E0,4.116207361E-1,1.025718117E1
8.134000000E0,1.047683477E0,1.145625472E0,8.305696487E0
8.154007813E0,9.221698642E-1,1.761902571E0,6.560332775E0
8.176000000E0,1.222469807E0,2.152990818E0,5.439492226E0
8.196001563E0,1.676467896E0,2.246642351E0,5.314936161E0
8.218000000E0,2.015716791E0,2.204753399E0,5.513549805E0
8.238000000E0,1.980158091E0,2.009146929E0,6.236014366E0
8.260000000E0,1.895537376E0,1.750669122E0,7.109016895E0
8.280000000E0,2.193682671E0,1.461305737E0,7.897437096E0
8.300000000E0,2.643227339E0,1.144734859E0,8.635483742E0
8.320000000E0,2.907087564E0,7.981501818E-1,9.211834908E0
8.340000000E0,2.787367821E0,6.466834545E-1,9.418760300E0
8.360000000E0,2.706463099E0,7.507737279E-1,9.047046661E0
8.380000000E0,2.695315599E0,1.107720494E0,8.447653770E0
8.400000000E0,2.268218756E0,1.559831977E0,7.626078129E0
8.420003125E0,1.788363338E0,1.678383350E0,7.089901447E0
8.441998438E0,2.566603184E0,1.147943139E0,8.120021820E0
8.462003125E0,4.132459164E0,1.345924437E-1,1.123990536E1
8.483998438E0,3.743104458E0,1.093767062E-1,1.515912819E1
8.504001563E0,3.352485895E0,6.105980277E-1,1.413433266E1
8.526000000E0,4.475299358E0,1.190205574E0,1.094854069E1
8.548000000E0,5.742837429E0,1.356094956E0,8.848979950E0
8.570004688E0,5.066494465E0,1.178636670E0,7.985208511E0
8.591998438E0,2.813790321E0,8.594226837E-1,8.581479073E0
8.612003125E0,1.531120777E0,7.008690238E-1,9.338612556E0
8.634000000E0,8.963699341E-1,8.611560464E-1,9.265397072E0
8.654000000E0,8.599876761E-1,1.089112759E0,8.526910782E0
8.676000000E0,7.644302845E-1,1.391270638E0,7.291205883E0
8.697998438E0,7.177625299E-1,1.547765255E0,6.452833652E0
8.717998438E0,6.682983041E-1,1.657994270E0,6.255943775E0
8.737998438E0,6.118813753E-1,1.766480327E0,6.282030582E0
8.757998438E0,4.292803705E-1,1.869229913E0,6.347852707E0
8.778000000E0,3.265212476E-1,1.908475637E0,6.420300961E0
8.800000000E0,5.792148709E-1,1.881928682E0,6.694858551E0
8.820000000E0,8.327991366E-1,1.688199520E0,7.412783623E0
8.840000000E0,8.932383657E-1,1.543446064E0,8.628368378E0
8.860004688E0,1.011703372E0,1.378926158E0,1.018242455E1
8.881998438E0,1.321647167E0,1.092483759E0,1.141284370E1
8.902000000E0,1.804117203E0,7.911016941E-1,1.245989418E1
8.924000000E0,2.225151777E0,3.932237029E-1,1.356340122E1
8.944003125E0,2.406871796E0,2.564860582E-1,1.355509853E1
8.964021875E0,2.198585987E0,3.431369737E-2,1.357418537E1
8.985998438E0,2.002826214E0,-4.904474318E-1,1.462807465E1
9.005998438E0,1.453462362E0,-2.447257191E-1,1.475573349E1
9.026000000E0,1.024852395E0,9.525091946E-2,1.287722397E1
9.048000000E0,1.019192457E0,3.075974286E-1,1.146543980E1
9.068003125E0,1.513949513E0,3.106045723E-1,1.103534508E1
9.090000000E0,1.465385556E0,3.256784678E-1,1.098239422E1
9.110007813E0,1.045595884E0,4.348157644E-1,1.074395084E1
9.132000000E0,7.607815266E-1,6.866858006E-1,9.868908882E0
9.152000000E0,7.898949981E-1,8.808363676E-1,8.691632271E0
9.172000000E0,9.165578485E-1,1.149408340E0,7.472025871E0
9.192006250E0,1.036133885E0,1.343932509E0,6.956218719E0
9.214000000E0,1.388838172E0,1.434213042E0,6.671778202E0
9.234000000E0,1.877973557E0,1.319846749E0,6.712153912E0
9.255998438E0,2.116359472E0,1.126385689E0,6.833654881E0
9.276003125E0,1.789397597E0,1.122133613E0,6.627657890E0
9.297998438E0,1.575106978E0,1.252780437E0,6.628462315E0
9.317998438E0,1.946600914E0,1.350329757E0,6.995713711E0
9.337998438E0,2.186825514E0,1.284805298E0,7.704579353E0
9.358003125E0,2.257770538E0,1.402858496E0,8.414200783E0
9.380000000E0,2.907633543E0,1.769123554E0,9.837171555E0
9.400003125E0,3.980494499E0,1.804663062E0,1.090112591E1
9.421998438E0,4.004666328E0,1.955564857E0,1.143385506E1
9.442006250E0,3.028100014E0,2.595534801E0,1.096755123E1
9.464021875E0,2.275372744E0,2.769372940E0,1.047501564E1
9.485998438E0,3.788239956E0,1.834312916E0,1.181902409E1
9.505998438E0,3.522042990E0,1.604852557E0,1.542785263E1
9.526000000E0,2.323630095E0,1.627836943E0,1.533397198E1
9.548000000E0,1.610962510E0,2.034381866E0,1.198462677E1
9.569998438E0,2.391242504E0,2.200079918E0,9.285336494E0
9.590003125E0,3.380593777E0,2.060306311E0,7.570092201E0
9.612029688E0,3.475365639E0,1.886085033E0,6.238801479E0
9.634000000E0,2.963763237E0,1.636714578E0,6.331073761E0
9.654000000E0,1.933461547E0,1.477730036E0,6.998624802E0
9.674007813E0,1.127831817E0,1.655341387E0,6.885925293E0
9.695998438E0,9.716436863E-1,2.168983936E0,6.230383396E0
9.716003125E0,1.061052680E0,2.606662989E0,5.354632378E0
9.737998438E0,9.210302234E-1,2.941286325E0,5.039880753E0
9.758000000E0,7.229435444E-1,3.093787432E0,6.288006783E0
9.780000000E0,1.064184308E0,3.044955254E0,7.268604755E0
9.800000000E0,1.345062494E0,3.030523062E0,7.672487259E0
9.820000000E0,9.165099859E-1,3.069653749E0,8.339530945E0
9.840003125E0,7.026790380E-1,3.082458019E0,8.977499962E0
9.862000000E0,8.072865009E-1,3.078838110E0,9.512096405E0
9.882003125E0,6.739965081E-1,3.192773104E0,9.882124901E0
9.903998438E0,1.192503944E-1,3.484569073E0,1.032681465E1
9.924073438E0,1.833479553E-1,3.541053057E0,1.047607803E1
9.946000000E0,6.953336000E-1,3.306220293E0,1.083988190E1
9.966000000E0,5.161707401E-1,3.319167852E0,1.038122940E1
9.986000000E0,-3.014491498E-1,3.588764668E0,9.172560692E0
1.000600625E1,2.435860783E-1,3.147877216E0,9.680983543E0
1.002799844E1,4.807269573E-1,2.370259762E0,1.179537964E1
1.004800000E1,-3.352169693E-1,2.155317783E0,1.229180241E1
1.006999844E1,-1.320957661E0,2.525269747E0,1.048949623E1
1.009000000E1,-1.042464137E0,2.804654121E0,8.545433044E0
1.011000000E1,-7.552174330E-1,2.719449282E0,8.174436569E0
1.013000000E1,-5.458588004E-1,2.358815432E0,8.631337166E0
1.015000000E1,-3.086413145E-1,2.120170832E0,8.544466019E0
1.017200625E1,-2.091095746E-1,2.171627283E0,8.235948563E0
1.019400000E1,-2.141948491E-1,2.228139877E0,8.027566910E0
1.021400156E1,-3.114473224E-1,2.379166126E0,7.440039158E0
1.023600000E1,-4.086614847E-1,2.649308681E0,7.033350468E0
1.025799844E1,-2.863273621E-1,2.869038820E0,7.290296555E0
1.027800000E1,-2.387402207E-1,2.913609266E0,7.699331284E0
1.029800313E1,-4.147140384E-1,2.971951485E0,8.117129326E0
1.032000000E1,-5.570732951E-1,3.026395559E0,8.489849091E0
1.034000000E1,-5.856983662E-1,3.056840181E0,8.859216690E0
1.036000000E1,-4.843661487E-1,3.040023088E0,9.085372925E0
1.038000000E1,-2.915945947E-1,2.997952461E0,9.328853607E0
1.040000000E1,-1.285686344E-1,3.036642551E0,9.491324425E0
1.042200312E1,4.435976967E-2,2.986450672E0,1.011803055E1
1.044399844E1,2.168284804E-1,3.163200140E0,1.033042526E1
1.046402188E1,4.364438057E-1,3.657248497E0,1.026400948E1
1.048599844E1,4.983099997E-1,4.071608067E0,9.889891624E0
1.050599844E1,1.106283903E0,3.743324757E0,9.197450638E0
1.052600000E1,2.466908932E0,2.600227594E0,1.017626667E1
1.054600469E1,2.544758797E0,1.544604897E0,1.259010124E1
1.056799844E1,1.623469830E0,1.350693703E0,1.349440002E1
1.058800156E1,1.260959029E0,2.105901718E0,1.189897156E1
1.060999844E1,1.894158363E0,2.304572344E0,8.880553246E0
1.063000625E1,2.102741241E0,2.556873322E0,7.451818943E0
1.065200000E1,1.934802294E0,2.551979542E0,7.290526390E0
1.067200000E1,1.339163184E0,2.393723011E0,7.838109016E0
1.069200000E1,5.861771703E-1,2.287487268E0,8.283794403E0
1.071200000E1,1.191737801E-1,2.303786993E0,8.272733688E0
1.073200000E1,1.946964860E-1,2.444384336E0,7.824748993E0
1.075200000E1,7.095935345E-1,2.635355234E0,7.127117157E0
1.077200000E1,7.927106619E-1,2.802068472E0,6.617372513E0
1.079200000E1,5.615552664E-1,2.858762980E0,6.737896442E0
1.081200000E1,6.836882234E-1,2.861961603E0,7.271784306E0
1.083399844E1,1.180197716E0,2.844953299E0,7.604568958E0
1.085400781E1,1.250290394E0,2.942828178E0,7.800969601E0
1.087600000E1,1.284029484E0,3.202340603E0,8.399080276E0
1.089600000E1,1.564246893E0,3.400934696E0,9.132011414E0
1.091800000E1,1.847825646E0,3.706233978E0,9.588088036E0
1.094000000E1,2.047770262E0,4.022881508E0,9.668475151E0
1.096000000E1,2.104656458E0,4.044965744E0,1.015046692E1
1.098000000E1,2.112605333E0,3.529235363E0,1.120777512E1
1.100000000E1,1.713961005E0,2.966837406E0,1.165142059E1
1.102000469E1,-1.221042778E-2,3.199620962E0,1.050397587E1
1.104200000E1,-9.695080519E-1,3.128991604E0,9.726769447E0
1.106401875E1,-1.432403028E-1,2.396040440E0,1.184763050E1
1.108600000E1,1.898697615E-1,2.078205347E0,1.352904987E1
1.110799844E1,-3.214455247E-1,2.405377865E0,1.170719624E1
1.112800625E1,-4.849120378E-1,2.871222496E0,9.835141182E0
1.115000000E1,5.293101072E-2,2.692921400E0,9.038015366E0
1.117000313E1,1.760983318E-1,2.226617098E0,9.159124374E0
1.119200000E1,-5.576574802E-2,1.946447611E0,8.657241821E0
1.121200000E1,-3.692816794E-1,1.871068597E0,7.552930832E0
1.123399844E1,-7.469526529E-1,2.103248835E0,6.226725101E0
1.125399844E1,-7.216315269E-1,2.422031879E0,6.167779922E0
1.127399844E1,-6.162675098E-2,2.580595016E0,7.015107155E0
1.129400313E1,5.287929773E-1,2.734025240E0,7.590136528E0
1.131600000E1,5.761215091E-1,2.991813421E0,7.235727310E0
1.133600313E1,2.126625627E-1,3.091575146E0,7.369094372E0
1.135799844E1,-1.605264246E-1,3.023924589E0,7.966744423E0
1.137799844E1,-4.640250206E-1,2.995471954E0,8.130000114E0
1.139799844E1,-5.788509250E-1,3.029086351E0,8.460466385E0
1.141800781E1,-4.775666296E-1,3.032342434E0,8.912616730E0
1.144000000E1,-1.934802234E-1,3.015535355E0,9.138399124E0
1.146000469E1,2.504430711E-1,2.954703331E0,9.840494156E0
1.148200000E1,3.394403458E-1,2.989965439E0,1.085889244E1
1.150200469E1,5.584715009E-1,3.099380255E0,1.178365707E1
1.152399844E1,9.661657214E-1,3.439500570E0,1.182882118E1
1.154400000E1,8.760671616E-1,3.384510517E0,1.040663719E1
1.156401875E1,1.780567765E0,2.725377083E0,9.832785606E0
1.158600000E1,2.927840471E0,1.625222445E0,1.225404072E1
1.160600000E1,2.183301210E0,1.472223401E0,1.400337029E1
1.162600312E1,1.417740822E0,1.952730060E0,1.295799446E1
1.164800000E1,2.193184614E0,2.210480213E0,1.014879131E1
1.167000000E1,2.641043901E0,2.291576624E0,8.469392776E0
1.169200313E1,2.000001192E0,2.187237263E0,7.805595875E0
1.171400000E1,1.154771328E0,2.159196615E0,7.726424217E0
1.173400781E1,8.828475475E-1,2.201478004E0,7.242278099E0
1.175599844E1,4.050318897E-1,2.409065008E0,6.191433907E0
1.177599844E1,2.281003892E-1,2.498722792E0,5.493457317E0
1.179601719E1,5.725015402E-1,2.410980225E0,5.656502247E0
1.181799844E1,9.320914149E-1,2.362483501E0,6.138244629E0
1.183799844E1,1.130302668E0,2.381627560E0,6.475032330E0
1.185800000E1,1.282755852E0,2.414351225E0,6.855298519E0
1.187800000E1,1.407666087E0,2.478305101E0,7.088762283E0
1.190000469E1,1.261514425E0,2.761845589E0,7.422178745E0
1.192004375E1,1.221033335E0,2.934381485E0,8.175872803E0
1.194200000E1,1.180322289E0,3.153479815E0,9.221880913E0
1.196200000E1,1.042014003E0,3.494241714E0,9.704934120E0
1.198200781E1,8.065490723E-1,3.849866629E0,1.022223568E1
1.200400000E1,9.277914166E-1,3.966445208E0,1.098293114E1
1.202400312E1,1.140032768E0,3.748687744E0,1.145326805E1
1.204599844E1,9.194500446E-1,3.389691591E0,1.149723434E1
1.206600312E1,3.766462505E-1,3.205970287E0,1.140203094E1
1.208799844E1,4.230171144E-1,2.283493996E0,1.179320526E1
1.210800469E1,3.775560260E-1,1.608348131E0,1.303514481E1
1.213000000E1,-1.314225197E-1,1.360050201E0,1.246978855E1
1.215000000E1,-1.008974075E0,1.685594559E0,1.081265545E1
1.217200000E1,-1.119863868E0,2.107520103E0,8.844899178E0
1.219200000E1,-5.160845518E-1,2.053995132E0,8.693394661E0
1.221200000E1,1.498770248E-2,1.582950473E0,9.642992020E0
1.223399844E1,-7.405745238E-2,1.135378242E0,1.037674809E1
1.225399844E1,-1.771900803E-1,9.818333983E-1,9.976342201E0
1.227399844E1,6.319735199E-2,1.116579056E0,8.895972252E0
1.229400000E1,2.313660681E-1,1.309772015E0,8.165290833E0
1.231600000E1,2.443713844E-1,1.543465257E0,7.625216484E0
1.233800000E1,3.591111004E-1,1.835701585E0,6.811494350E0
1.236000000E1,6.141893268E-1,2.123206854E0,6.430547714E0
1.238000000E1,9.127367735E-1,2.162146091E0,6.591668606E0
1.240000000E1,8.216134310E-1,2.190186977E0,6.735167027E0
1.242000000E1,5.427080393E-1,2.273936272E0,6.485202789E0
1.244000000E1,4.078283012E-1,2.283263922E0,6.969300747E0
1.246000000E1,6.216688156E-1,2.369800091E0,6.736229897E0
1.248000000E1,6.730867028E-1,2.524187803E0,6.947399139E0
1.250000000E1,9.417927861E-1,2.578919172E0,7.716062069E0
1.252000000E1,1.730385423E0,2.256362677E0,9.209555626E0
1.254000156E1,2.331081152E0,1.984879375E0,1.099227810E1
1.256200000E1,2.380564213E0,1.825320244E0,1.231522751E1
1.258399844E1,2.163975239E0,1.945317626E0,1.156017303E1
1.260399844E1,4.035168648E0,1.482863188E0,1.186100960E1
1.262399844E1,6.330403328E0,1.930205375E-1,1.361481953E1
1.264400000E1,6.583671570E0,-1.102692723E0,1.536142731E1
1.266402500E1,4.235591888E0,-4.982716739E-1,1.487527084E1
1.268600000E1,3.190589905E0,2.711768448E-1,1.242675877E1
1.270600781E1,3.330382586E0,7.603697777E-1,9.543728828E0
1.272799844E1,3.109637022E0,1.287419677E0,7.461098671E0
1.274799844E1,2.799683571E0,1.483131289E0,6.535212994E0
1.276800000E1,2.016760588E0,1.481474638E0,5.985906124E0
1.279000000E1,1.335064292E0,1.436769962E0,6.701753616E0
1.281200000E1,1.150921464E0,1.252608061E0,7.251759052E0
1.283200000E1,8.951920271E-1,1.305845499E0,7.039891720E0
1.285200000E1,6.651283503E-1,1.331769943E0,6.254746437E0
1.287200312E1,-1.292006969E-1,1.871470809E0,5.108393192E0
1.289399844E1,2.561987340E-1,1.609162092E0,5.633728981E0
1.291399844E1,1.040759563E0,1.550887227E0,6.718465328E0
1.293400000E1,1.619878531E0,1.360155463E0,7.952101707E0
1.295600000E1,2.307502985E0,1.281376719E0,8.823696136E0
1.297799844E1,2.136547327E0,1.099676013E0,9.588739395E0
1.299800000E1,1.915514708E0,9.839594364E-1,1.090404701E1
1.302000000E1,1.883719563E0,1.139553785E0,1.117820168E1
1.304000000E1,1.978922606E0,1.292667866E0,1.091412163E1
1.306000000E1,2.504631758E0,1.209617734E0,1.122803974E1
1.308000000E1,2.609584093E0,9.809139967E-1,1.157444191E1
1.310000000E1,2.317501068E0,9.352039099E-1,1.162089920E1
1.312000000E1,1.917046905E0,9.608123302E-1,1.097177410E1
1.314000000E1,2.020610571E0,1.696914434E-1,1.162640667E1
1.316000156E1,2.505857706E0,-3.760141730E-1,1.332938290E1
1.318000312E1,2.782225132E0,-7.090763450E-1,1.398334503E1
1.320199844E1,2.143145800E0,-5.754607320E-1,1.253548431E1
1.322200000E1,1.404084325E0,-3.002520502E-1,1.119419575E1
1.324400000E1,1.631332397E0,-2.201229036E-1,1.030998802E1
1.326401719E1,2.638822079E0,-3.236960769E-1,9.955301285E0
1.328600156E1,2.634608507E0,-1.342764199E-1,9.728446007E0
1.330799844E1,2.197225809E0,2.234843671E-1,9.143647194E0
1.332800312E1,2.112145424E0,8.247737288E-1,8.031244278E0
1.335000000E1,2.569677591E0,1.262529492E0,6.527513027E0
1.337000625E1,2.701981306E0,1.782837510E0,4.699387074E0
1.339200000E1,2.784016132E0,1.995911837E0,2.477366686E0
1.341200156E1,2.736946106E0,1.591799259E0,1.598407388E0
1.343400000E1,2.713798761E0,1.115458608E0,1.596884608E0
1.345400469E1,3.830875874E0,9.507566690E-1,-5.375078917E-1
1.347599844E1,5.316985607E0,4.799416661E-1,-3.843153238E0
1.349599844E1,5.754368305E0,-5.309094191E-1,-3.345427513E0
1.351601563E1,5.487845898E0,-2.015372038E0,-2.324291021E-1
1.353799844E1,5.489339352E0,-3.950183868E0,2.371820688E0
1.355800000E1,6.240410328E0,-5.837322235E0,2.550820827E0
1.357800156E1,7.743250370E0,-8.006727219E0,1.839541793E0
1.360000000E1,8.118709564E0,-9.591851234E0,1.697632670E0
1.362000000E1,8.708947182E0,-1.235802650E1,1.031872153E0
1.364199844E1,1.029272079E1,-1.753339005E1,-6.693230271E-1
1.366200000E1,1.079510117E1,-2.000083542E1,-2.020802051E-1
1.368200000E1,1.115919209E1,-2.053903389E1,3.100050688E0
1.370200469E1,1.080354786E1,-1.977489090E1,5.684150696E0
1.372400000E1,1.102746296E1,-1.880750847E1,6.270164967E0
1.374400312E1,1.218251228E1,-1.738243103E1,5.226025581E0
1.376401719E1,1.240785408E1,-1.592168045E1,4.283887863E0
1.378600469E1,1.153284073E1,-1.439321327E1,2.649509668E0
1.380799844E1,1.019473171E1,-1.287621784E1,6.252122521E-1
1.382800156E1,1.000730324E1,-1.168340683E1,-1.158448815E0
1.384999844E1,9.175127029E0,-1.010572433E1,-9.896385074E-1
1.387000000E1,8.599886894E0,-9.171746254E0,-5.514134169E-1
1.389000000E1,8.520465851E0,-8.469067574E0,-6.395295858E-1
1.391000469E1,8.595854759E0,-8.135267258E0,-1.117785811E0
1.393199844E1,8.739621162E0,-7.923294544E0,-1.185886383E0
1.395200469E1,9.492272377E0,-7.963641644E0,-1.073847294E0
1.397399844E1,1.016347313E1,-7.595623970E0,-6.423643231E-1
1.399400000E1,1.032317448E1,-7.072289944E0,-6.308242679E-2
1.401601563E1,1.036709499E1,-6.439933300E0,5.388199091E-1
1.403799844E1,1.120656872E1,-6.068468094E0,1.006282926E0
1.405800000E1,1.273103333E1,-5.924595833E0,1.097166896E0
1.408000000E1,1.422885513E1,-6.075161934E0,9.694027305E-1
1.410000156E1,1.498941708E1,-6.231810093E0,7.934097052E-1
1.412200000E1,1.428359699E1,-6.766492844E0,1.171578646E0
1.414400000E1,1.342236423E1,-9.476624489E0,1.332411528E0
1.416401875E1,1.307713985E1,-1.307197762E1,1.404381275E0
1.418599844E1,1.217094326E1,-1.542548752E1,1.331760406E0
1.420599844E1,1.054006195E1,-1.528503418E1,4.247696698E-1
1.422600781E1,9.783100128E0,-1.534032059E1,-8.185967207E-1
1.424799844E1,9.633865356E0,-1.578661919E1,-1.484108210E0
1.426800000E1,9.564347267E0,-1.652164841E1,-1.279633760E0
1.428999844E1,9.317150116E0,-1.711423302E1,-7.293983102E-1
1.431000000E1,8.409939766E0,-1.638735390E1,-1.412578970E-1
1.433000313E1,7.723857403E0,-1.504742336E1,5.914731622E-1
1.435000312E1,7.341666698E0,-1.394861889E1,8.828092217E-1
1.437200000E1,7.141290665E0,-1.313515568E1,-2.598666251E-1
1.439200000E1,7.151451588E0,-1.307516575E1,-9.469929934E-1
1.441200000E1,6.401271820E0,-1.287087440E1,-8.421460390E-1
1.443400000E1,5.409325123E0,-1.245339298E1,-1.698925532E-2
1.445600000E1,4.664000511E0,-1.180503273E1,3.659968376E-1
1.447800000E1,4.171216488E0,-1.119475079E1,8.052179217E-2
1.449800000E1,3.811109304E0,-1.041036224E1,-5.062299967E-2
1.452000000E1,3.976108074E0,-9.761438370E0,7.846277952E-2
1.454000000E1,3.883529186E0,-9.402327538E0,3.094266355E-1
1.456000000E1,3.131204128E0,-8.982566833E0,7.916284204E-1
1.458000000E1,2.273122072E0,-8.788779259E0,9.016946554E-1
1.460000781E1,1.202636242E0,-8.093608856E0,7.367532849E-1
1.462200000E1,2.885204554E-1,-7.078897953E0,6.545364261E-1
1.464400000E1,2.269224375E-1,-6.748536110E0,2.955594063E-1
1.466401875E1,7.232787609E-1,-6.956295490E0,-1.808962971E-1
1.468599844E1,2.490333796E0,-8.955023766E0,-8.572774529E-1
1.470599844E1,2.355865717E0,-9.851785660E0,-1.700927138E0
1.472599844E1,1.358747840E0,-8.861879349E0,-1.477615118E0
1.474600000E1,2.158995390E0,-8.744285583E0,-7.915901542E-1
1.476600313E1,4.333878517E0,-9.399904251E0,-9.483433366E-1
1.478799844E1,6.326754570E0,-9.995456696E0,-1.783938885E0
1.480800000E1,7.299336910E0,-1.095464134E1,-2.362473726E0
1.482999844E1,6.925094128E0,-1.153200817E1,-2.418852329E0
1.484999844E1,6.888195038E0,-1.210941219E1,-2.136796474E0
1.487000000E1,7.484791279E0,-1.281679440E1,-1.807718039E0
1.489000469E1,8.123105049E0,-1.347093773E1,-1.563835025E0
1.491200000E1,8.592148781E0,-1.408204269E1,-9.587724805E-1
1.493200156E1,9.138371468E0,-1.447555351E1,4.435019195E-2
1.495399844E1,1.022721577E1,-1.444684315E1,8.123143315E-1
1.497400000E1,1.158094501E1,-1.393556499E1,8.379610181E-1
1.499400000E1,1.251279640E1,-1.268084145E1,5.740242600E-1
1.501400312E1,1.313689804E1,-1.112571144E1,7.724364996E-1
1.503600000E1,1.352628231E1,-9.305649757E0,7.719002366E-1
1.505600625E1,1.393104553E1,-8.250074387E0,-7.884585112E-2
1.507799844E1,1.443614578E1,-7.656532764E0,-1.264128923E0
1.509800156E1,1.464954567E1,-7.306356430E0,-1.955267906E0
1.512000000E1,1.396969700E1,-7.231006145E0,-2.168371201E0
1.514000156E1,1.270774174E1,-7.663083076E0,-1.653789997E0
1.516199844E1,1.138600922E1,-7.765085220E0,-8.238065243E-1
1.518199844E1,1.088018131E1,-7.808037758E0,-4.422760904E-1
1.520199844E1,1.065345955E1,-7.328670502E0,-4.363863468E-1
1.522200625E1,1.200024605E1,-8.571941376E0,-5.368661880E-1
1.524399844E1,1.282965565E1,-1.026537037E1,-4.215710461E-1
1.526401875E1,1.237740040E1,-1.039354610E1,-4.863102436E-1
1.528599844E1,1.153218937E1,-9.883733749E0,-6.925563216E-1
1.530600469E1,1.103151512E1,-1.020136833E1,-7.537425756E-1
1.532799844E1,1.100552273E1,-1.160733891E1,-3.885118961E-1
1.534800000E1,1.055781651E1,-1.300267982E1,1.668471247E-1
1.537000000E1,9.465064049E0,-1.397997379E1,5.508196354E-1
1.539000469E1,8.342461586E0,-1.408529854E1,9.036579132E-1
1.541200000E1,7.333219528E0,-1.346037388E1,1.299610972E0
1.543400000E1,6.898557186E0,-1.278934669E1,1.435141921E0
1.545400313E1,6.487099171E0,-1.243499470E1,9.616454840E-1
1.547599844E1,5.944410324E0,-1.188424206E1,3.490841985E-1
1.549600781E1,5.588123798E0,-1.147144413E1,-2.239440531E-1
1.551601406E1,5.300532818E0,-1.092827606E1,-4.160356522E-1
1.553800469E1,5.157847881E0,-1.029276848E1,-3.222882748E-1
1.556000000E1,4.904713631E0,-9.847628593E0,-1.022707224E-1
1.558000000E1,4.619047165E0,-9.610010147E0,2.166656852E-1
1.560000000E1,4.250052929E0,-9.319736481E0,6.766109467E-1
1.562000938E1,3.758006096E0,-8.980229378E0,8.683386445E-1
1.564200000E1,3.436924219E0,-8.831271172E0,6.560974717E-1
1.566200313E1,3.152301788E0,-8.690683365E0,2.499738187E-1
1.568399844E1,2.663740873E0,-8.576825142E0,-9.708967060E-2
1.570400469E1,1.965697050E0,-8.507365227E0,2.960669994E-1
1.572599844E1,1.439173818E0,-8.701581955E0,7.993282080E-1
1.574600156E1,1.691053391E0,-9.726041794E0,4.520731568E-1
1.576800000E1,2.730299711E0,-1.194288158E1,-9.878763556E-1
1.578800469E1,2.276866674E0,-1.146648312E1,-2.347610712E0
1.581000000E1,2.316773176E0,-9.919771194E0,-1.759929776E0
1.583000000E1,4.298128605E0,-9.807780266E0,-2.197398394E-1
1.585000469E1,6.452689648E0,-1.035680008E1,-4.047158360E-2
1.587000469E1,8.316672325E0,-1.103285408E1,-1.193337202E0
1.589200000E1,8.733453751E0,-1.122191143E1,-2.613070011E0
1.591207500E1,8.072548866E0,-1.063574314E1,-3.353462696E0
1.593400000E1,7.571979046E0,-9.882660866E0,-3.757345200E0
1.595400313E1,7.330049992E0,-9.491295815E0,-3.294249296E0
1.597599844E1,6.894639969E0,-9.413588524E0,-1.537699938E0
1.599600000E1,6.648353577E0,-9.546601295E0,3.670790046E-2
1.601601562E1,6.893232346E0,-9.404252052E0,1.033854604E0
1.603799844E1,7.595719814E0,-9.371662140E0,4.194449782E-1
1.605800000E1,8.427091599E0,-9.073143959E0,-3.908199072E-1
1.607800313E1,9.265742302E0,-8.909015656E0,-1.201841354E0
1.610000000E1,1.020990086E1,-8.648948669E0,-1.825329781E0
1.612000156E1,1.100286007E1,-8.603133202E0,-2.281367779E0
1.614199844E1,1.143052292E1,-8.213174820E0,-2.012767076E0
1.616200000E1,1.170386314E1,-7.570580482E0,-1.396509171E0
1.618200000E1,1.214756680E1,-7.188398838E0,-1.132409573E0
1.620200312E1,1.286738777E1,-7.097869396E0,-1.332823396E0
1.622400000E1,1.300862694E1,-7.159295082E0,-1.400349379E0
1.624400625E1,1.239209080E1,-6.919013023E0,-1.212040663E0
1.626401875E1,1.162997818E1,-6.560102940E0,-7.653784156E-1
1.628600625E1,1.151067066E1,-7.225787163E0,-6.238906980E-1
1.630799844E1,1.298850632E1,-1.036838722E1,-6.614508629E-1
1.632799844E1,1.312272453E1,-1.118557644E1,-7.703295946E-1
1.634800000E1,1.245988560E1,-1.008683872E1,-1.319722295E0
1.637000000E1,1.197583485E1,-9.689449310E0,-1.879419565E0
1.639001719E1,1.226682663E1,-1.168885612E1,-1.271244526E0
1.641200000E1,1.177079582E1,-1.383145618E1,-3.229203522E-1
1.643400000E1,1.044799042E1,-1.418355751E1,5.488851070E-1
1.645400000E1,9.328030586E0,-1.316333961E1,1.273533344E0
1.647600781E1,8.957560539E0,-1.202842140E1,1.731639862E0
1.649800000E1,9.056967735E0,-1.183042049E1,1.403232098E0
1.651800625E1,8.553802490E0,-1.194130039E1,5.952559710E-1
1.654000000E1,7.408014297E0,-1.196035004E1,-1.086201370E-1
1.656000156E1,6.316172600E0,-1.182694435E1,-4.832456708E-1
1.658199844E1,5.403761387E0,-1.140067101E1,-4.979939461E-1
1.660200000E1,5.110883236E0,-1.120539093E1,-5.662670135E-1
1.662200000E1,5.017135620E0,-1.087704945E1,-3.091105819E-1
1.664200313E1,5.050415039E0,-1.081746292E1,-5.158259869E-1
1.666401875E1,4.591255188E0,-1.063042736E1,-1.190425754E0
1.668599844E1,3.305185795E0,-1.019366837E1,-4.764844477E-1
1.670599844E1,2.167537928E0,-9.805664062E0,6.026492715E-1
1.672600313E1,1.323935986E0,-9.297595024E0,1.008849502E0
1.674799844E1,9.611666203E-1,-9.139941216E0,3.330047429E-1
1.676800000E1,1.319779754E-1,-8.573453903E0,-5.049467087E-1
1.678800312E1,-4.669267833E-1,-8.229349136E0,-1.661949515E0
1.680800625E1,-5.572935343E-1,-8.956335068E0,-2.830597639E0
1.683000000E1,4.723760188E-1,-1.147285175E1,-3.349114656E0
1.685000781E1,1.390274644E0,-1.270408440E1,-2.954971790E0
1.687199844E1,2.309322596E0,-1.175306892E1,2.636878192E-1
1.689200000E1,3.953660250E0,-1.147878933E1,2.683229685E0
1.691200000E1,6.869424343E0,-1.204996967E1,2.846351624E0
1.693200938E1,9.879921913E0,-1.291872978E1,1.172105312E0
1.695399844E1,1.144111443E1,-1.356502914E1,-1.103229046E0
1.697400000E1,1.089746761E1,-1.318557739E1,-2.696867228E0
1.699400000E1,9.758661270E0,-1.242896175E1,-3.429617405E0
1.701400000E1,8.743222237E0,-1.178105259E1,-3.153786182E0
1.703599844E1,8.610172272E0,-1.142836761E1,-1.688429356E0
1.705599844E1,9.377858162E0,-1.078120518E1,-3.033166230E-1
1.707599844E1,9.634028435E0,-9.844420433E0,3.669449091E-1
1.709600000E1,9.090353012E0,-9.164228439E0,4.113525748E-1
1.711600313E1,8.774499893E0,-8.932489395E0,2.287133038E-1
1.713800000E1,9.199825287E0,-8.875008583E0,2.348233014E-1
1.715800312E1,9.662337303E0,-8.654646873E0,-2.621171772E-1
1.718000000E1,1.021858692E1,-8.415121078E0,-1.177545071E0
1.720000000E1,1.033138275E1,-7.912712097E0,-1.161523104E0
1.722000000E1,1.050828552E1,-7.403446198E0,-7.303943634E-1
1.724000156E1,1.078830147E1,-6.950721741E0,-6.301634312E-1
1.726200000E1,1.127459240E1,-6.825361252E0,-1.029372692E0
1.728200469E1,1.187145805E1,-6.892015934E0,-1.374434590E0
1.730399844E1,1.214477062E1,-6.762307644E0,-1.472606421E0
1.732400625E1,1.183150291E1,-6.451454163E0,-1.310174227E0
1.734599844E1,1.234306717E1,-7.348686218E0,-1.096745491E0
1.736599844E1,1.379076481E1,-1.037124157E1,-8.205120564E-1
1.738600000E1,1.350357533E1,-1.226514053E1,-7.203578353E-1
1.740600156E1,1.146167564E1,-1.096156502E1,-7.022672147E-2
1.742800000E1,1.054457188E1,-1.025764179E1,9.845915437E-2
1.744800156E1,1.087410069E1,-1.161428261E1,6.808152050E-2
1.747000000E1,1.122554016E1,-1.373994064E1,5.416642129E-2
1.749000625E1,1.027986908E1,-1.463354301E1,3.901495337E-1
1.751200000E1,8.913249016E0,-1.446701145E1,9.532274604E-1
1.753200781E1,8.252209663E0,-1.371241665E1,1.565319419E0
1.755399844E1,8.304327011E0,-1.277209854E1,1.608300209E0
1.757400000E1,8.272244453E0,-1.221300507E1,1.236969113E0
1.759600000E1,7.922250271E0,-1.200309086E1,5.401989222E-1
1.761600000E1,7.303933620E0,-1.183802509E1,-3.555868566E-2
1.763800000E1,6.545019627E0,-1.150809479E1,-2.615904808E-1
1.766000000E1,5.888069630E0,-1.109130192E1,-3.062663078E-1
1.768000000E1,5.205856323E0,-1.064514732E1,-6.054361463E-1
1.770000000E1,4.231359005E0,-1.023718548E1,-7.470483780E-1
1.772000000E1,3.304793119E0,-1.000665188E1,-7.102925777E-1
1.774000000E1,2.361018181E0,-9.730725288E0,-4.104236364E-1
1.776000000E1,1.723490000E0,-9.894641876E0,-3.197887242E-1
1.778000312E1,6.823474765E-1,-1.013937664E1,-3.975332528E-2
1.780200000E1,-5.450256467E-1,-9.913048744E0,-4.257943928E-1
1.782200000E1,-1.794032812E0,-9.269918442E0,-8.658295274E-1
1.784200000E1,-1.835002303E0,-9.624030113E0,-6.716310382E-1
1.786402188E1,1.098478913E0,-1.341216469E1,-7.650623918E-1
1.788600000E1,1.728393316E0,-1.397984886E1,-1.070792317E0
1.790804375E1,2.070620537E0,-1.303942585E1,8.720831871E-1
1.793000938E1,3.780099630E0,-1.237469959E1,2.904588223E0
1.795200000E1,6.850070000E0,-1.321462440E1,2.097713470E0
1.797200000E1,9.497271538E0,-1.370077133E1,-8.472601324E-2
1.799200000E1,1.003534508E1,-1.328219795E1,-2.031997204E0
1.801200469E1,9.162055016E0,-1.248845291E1,-2.830664635E0
1.803399844E1,8.447988510E0,-1.182817936E1,-2.906915188E0
1.805400000E1,8.231648445E0,-1.162667465E1,-2.653666019E0
1.807400000E1,9.128880501E0,-1.125692368E1,-2.091248989E0
1.809600313E1,9.550690651E0,-1.050973129E1,-1.410318851E0
1.811800000E1,9.039595604E0,-1.000826073E1,-1.975082278E0
1.813800312E1,8.464325905E0,-9.858719826E0,-1.962565422E0
1.816000000E1,8.716148376E0,-1.001877594E1,-8.945120573E-1
1.818000156E1,9.670190811E0,-1.010022736E1,-4.246356338E-2
1.820200000E1,1.056846619E1,-9.671981812E0,1.717504561E-1
1.822400000E1,1.120645428E1,-8.930085182E0,4.003392756E-1
1.824600312E1,1.155538464E1,-7.946786404E0,6.329886317E-1
1.826800000E1,1.175508022E1,-7.209209442E0,3.764451146E-1
1.829000000E1,1.204203987E1,-7.239577770E0,-1.573086232E-1
1.831000000E1,1.247372341E1,-7.824931145E0,-3.627598584E-1
1.833200000E1,1.245261574E1,-8.088561058E0,-8.394071460E-2
1.835400469E1,1.180549240E1,-7.603965282E0,1.090702489E-1
1.837599844E1,1.136544800E1,-7.081081390E0,5.674737096E-1
1.839600000E1,1.246206856E1,-8.991634369E0,4.773750901E-1
1.841600000E1,1.312618160E1,-1.194922161E1,5.051765591E-2
1.843799844E1,1.186257076E1,-1.187475204E1,5.600325465E-1
1.845799844E1,1.069244766E1,-1.053242874E1,6.773867011E-1
1.847800156E1,1.074070549E1,-1.130019188E1,1.750831753E-1
1.850000000E1,1.103804588E1,-1.312355804E1,1.934323460E-1
1.852000469E1,1.084783077E1,-1.478403187E1,4.245494008E-1
1.854200000E1,9.821388245E0,-1.563904953E1,7.213538289E-1
1.856401875E1,8.766780853E0,-1.547091961E1,9.907781482E-1
1.858600156E1,8.258463860E0,-1.482460976E1,1.439260006E0
1.860799844E1,8.295142174E0,-1.430652332E1,1.377096891E0
1.862800313E1,8.093732834E0,-1.391705418E1,8.060223460E-1
1.865000000E1,7.185679436E0,-1.344727325E1,4.436168373E-1
1.867000156E1,6.186866283E0,-1.287433147E1,3.353414536E-1
1.869200000E1,5.228294849E0,-1.201205444E1,4.512782991E-1
1.871200000E1,4.667314529E0,-1.117179489E1,3.220775723E-1
1.873200000E1,4.263623238E0,-1.032835674E1,-6.087975949E-2
1.875200469E1,3.855536222E0,-9.735963821E0,-5.924308300E-1
1.877399844E1,3.333762884E0,-9.385414124E0,-1.070955157E0
1.879400625E1,2.496989489E0,-9.552280426E0,-1.316897154E0
1.881600000E1,7.543363571E-1,-9.198474884E0,-6.442700624E-1
1.883600000E1,-2.840864062E-1,-8.863325119E0,-1.761270612E-1
1.885799844E1,-8.237011433E-1,-8.761064529E0,1.626716405E-1
1.887799844E1,-9.954324365E-1,-8.787467003E0,1.686475724E-1
1.889799844E1,-5.811972618E-1,-9.305476189E0,3.053756356E-1
1.891800000E1,7.610400915E-1,-1.111233330E1,9.862195700E-2
1.894000000E1,2.167796373E0,-1.368384933E1,-1.126749635E0
1.896000625E1,1.915342212E0,-1.288580513E1,-2.842587829E-1
1.898200000E1,2.977994442E0,-1.215290070E1,1.710044146E0
1.900200000E1,5.285592556E0,-1.258220005E1,2.740278721E0
1.902399844E1,8.261432648E0,-1.344298267E1,2.453051329E0
1.904399844E1,1.044463730E1,-1.403082657E1,1.131691337E0
1.906401875E1,1.077997017E1,-1.380651855E1,-6.600814462E-1
1.908599844E1,1.013178349E1,-1.329809570E1,-2.407465458E0
1.910600000E1,9.179656029E0,-1.260751152E1,-3.336233854E0
1.912799844E1,8.538211823E0,-1.209869671E1,-3.362637281E0
1.914799844E1,8.675715446E0,-1.157043934E1,-2.079191923E0
1.916800938E1,8.946910858E0,-1.110465240E1,-1.341500044E0
1.919000312E1,9.552922249E0,-1.058214188E1,-9.711552858E-1
1.921200000E1,9.930267334E0,-1.025719166E1,-9.920231104E-1
1.923399844E1,1.021133709E1,-9.915987968E0,-2.647604048E-1
1.925400000E1,1.078625202E1,-9.600346565E0,-3.471592441E-2
1.927600156E1,1.132546520E1,-9.088628769E0,-3.938174546E-1
1.929799844E1,1.160022354E1,-8.418885231E0,-3.883107901E-1
1.931799844E1,1.184921074E1,-7.749743462E0,-4.385028481E-1
1.933800000E1,1.224935818E1,-7.273153782E0,-8.158864975E-1
1.935800625E1,1.247211552E1,-7.143023968E0,-1.414197564E0
1.938000000E1,1.255751133E1,-7.322311401E0,-2.095079899E0
1.940001719E1,1.222425747E1,-7.367121696E0,-2.431474686E0
1.942200000E1,1.145062447E1,-6.996623516E0,-2.111886978E0
1.944200313E1,1.112524223E1,-6.976703644E0,-1.189994931E0
1.946401875E1,1.224937820E1,-9.009218216E0,-3.478870988E-1
1.948599844E1,1.297649670E1,-1.190393257E1,-1.214626357E-1
1.950600000E1,1.173552418E1,-1.163947868E1,6.174071431E-1
1.952600000E1,1.098233700E1,-1.080470657E1,9.441869259E-1
1.954799844E1,1.127871132E1,-1.164961147E1,5.041805506E-1
1.956799844E1,1.162947083E1,-1.333061790E1,3.262530863E-1
1.958800781E1,1.123135376E1,-1.476881504E1,4.481658340E-1
1.960999844E1,1.008945274E1,-1.535206127E1,6.556186080E-1
1.963000000E1,9.024176598E0,-1.492197609E1,1.253173113E0
1.965000156E1,8.596065521E0,-1.433116531E1,1.943076611E0
1.967000156E1,8.437847137E0,-1.398961735E1,2.123264074E0
1.969200625E1,7.993779659E0,-1.362301731E1,1.671612382E0
1.971400000E1,7.365464687E0,-1.334941673E1,9.079004526E-1
1.973600000E1,6.231551647E0,-1.283557415E1,4.155280888E-1
1.975600625E1,5.203423977E0,-1.209573746E1,2.196057588E-1
1.977800000E1,4.475327969E0,-1.114883041E1,-5.578489974E-2
1.979800156E1,4.150406361E0,-1.022109604E1,-2.148460895E-1
1.982000000E1,3.931930304E0,-9.321862221E0,-2.519083321E-1
1.984000156E1,3.709978342E0,-8.848308563E0,-5.256708860E-1
1.986199844E1,3.284615040E0,-8.632447243E0,-8.551322222E-1
1.988200000E1,2.306229353E0,-8.919693947E0,-7.112599015E-1
1.990200000E1,8.229829073E-1,-8.716915131E0,1.074230447E-1
1.992200000E1,-4.326131046E-1,-8.286495209E0,1.038566351E0
1.994200000E1,-1.078042030E0,-7.887189865E0,1.203268290E0
1.996402656E1,-4.598303735E-1,-8.613571167E0,7.100723386E-1
1.998599844E1,1.186374903E0,-1.070872784E1,1.230619624E-1
2.000600781E1,2.062489748E0,-1.227293682E1,-7.254143953E-1
2.002799844E1,2.195789337E0,-1.144557762E1,8.185296506E-2
2.004800000E1,3.643218517E0,-1.153035069E1,1.173743010E0
2.007000000E1,6.016379833E0,-1.227369308E1,1.599719405E0
2.009000000E1,7.862213612E0,-1.294180012E1,1.082351565E0
2.011000000E1,8.663534164E0,-1.295643330E1,-1.477222443E-1
2.013000000E1,8.707433701E0,-1.273786163E1,-1.398405313E0
2.015000000E1,8.518541336E0,-1.237435436E1,-2.499546528E0
2.017000000E1,8.180307388E0,-1.196277237E1,-3.099073648E0
2.019000156E1,7.963220119E0,-1.198809338E1,-2.858954668E0
2.021200000E1,7.978801727E0,-1.196647835E1,-1.275640249E0
2.023200625E1,8.209602356E0,-1.200507355E1,-1.011885405E-1
2.025400000E1,8.818639755E0,-1.196985912E1,7.465120405E-2
2.027599844E1,9.492330551E0,-1.186575031E1,-1.371494383E-1
2.029599844E1,1.008339119E1,-1.157744026E1,1.027782932E-1
2.031600000E1,1.084037971E1,-1.119618797E1,1.966884583E-1
2.033800000E1,1.167946148E1,-1.032858562E1,-1.982686371E-1
2.035800000E1,1.231016159E1,-9.111210823E0,-2.809931040E-1
2.038000938E1,1.331430817E1,-7.803172588E0,-8.349347711E-1
2.040200000E1,1.389629078E1,-6.979979038E0,-1.953572869E0
2.042200625E1,1.447183800E1,-6.813035965E0,-2.946132421E0
2.044400000E1,1.442784309E1,-7.086205006E0,-3.483697414E0
2.046402188E1,1.330725098E1,-7.242316246E0,-2.842750549E0
2.048599844E1,1.168058205E1,-7.100541592E0,-1.527558088E0
2.050600469E1,1.202936935E1,-8.345947266E0,-5.471996069E-1
2.052799844E1,1.354320431E1,-1.163517857E1,1.349946707E-1
2.054799844E1,1.250874615E1,-1.147377110E1,7.537138462E-1
2.056800000E1,1.139888954E1,-1.054211998E1,7.202141881E-1
2.058800156E1,1.147600269E1,-1.121964073E1,3.842406273E-1
2.060999844E1,1.207010937E1,-1.365638256E1,2.060450017E-1
2.063000312E1,1.181059647E1,-1.555554008E1,3.497545421E-1
2.065000625E1,1.045487499E1,-1.614359474E1,6.661722660E-1
2.067200000E1,9.151548386E0,-1.559297562E1,1.659842491E0
2.069200000E1,8.825371742E0,-1.497803974E1,2.266868353E0
2.071200938E1,8.827259064E0,-1.455540562E1,2.305223703E0
2.073399844E1,8.524257660E0,-1.421063042E1,1.639769554E0
2.075399844E1,8.029932022E0,-1.409037495E1,6.983599067E-1
2.077399844E1,7.479754448E0,-1.382713795E1,-1.012268476E-2
2.079400000E1,6.757548332E0,-1.337515068E1,-2.869498730E-1
2.081600000E1,5.816760540E0,-1.269165325E1,-1.206773445E-1
2.083800000E1,5.033473969E0,-1.197078800E1,-9.251195006E-3
2.085800000E1,4.539530754E0,-1.122998428E1,2.237812430E-1
2.088000781E1,4.210356712E0,-1.051907825E1,7.941088080E-2
2.090204375E1,3.944744110E0,-1.031558132E1,-1.067038178E0
2.092400000E1,2.337459326E0,-1.012848854E1,-1.005354047E0
2.094400000E1,2.511804998E-1,-9.628808975E0,2.170583159E-1
2.096401875E1,-1.710666776E0,-8.528988838E0,1.575480461E0
2.098599844E1,-2.442947865E0,-8.070594788E0,1.766422868E0
2.100599844E1,-2.152914047E0,-8.607806206E0,1.056503773E0
2.102600000E1,-1.563116789E0,-9.672737122E0,3.829956651E-1
2.104600313E1,-2.146162465E-2,-1.195041752E1,-1.050527811E0
2.106800000E1,7.434666753E-1,-1.218842125E1,-2.211706161E0
2.108800000E1,2.636705637E0,-1.192119026E1,-9.539936185E-1
2.111000000E1,5.431303978E0,-1.246762276E1,5.999677777E-1
2.113000000E1,7.693212032E0,-1.315041161E1,1.018206120E0
2.115199844E1,8.812242508E0,-1.387345123E1,5.578106642E-1
2.117199844E1,8.856314659E0,-1.411700821E1,-4.424676299E-1
2.119200000E1,9.132893562E0,-1.429858398E1,-1.927140832E0
2.121200781E1,9.308915138E0,-1.393423462E1,-3.218103886E0
2.123399844E1,9.000742912E0,-1.338555050E1,-3.160020828E0
2.125400000E1,8.936165810E0,-1.327079201E1,-1.497333765E0
2.127599844E1,9.166238785E0,-1.339618111E1,5.734591931E-2
2.129599844E1,9.537637711E0,-1.327793694E1,2.837320566E-1
2.131600000E1,1.003899288E1,-1.295027542E1,7.241023332E-2
2.133600312E1,1.092390919E1,-1.254537773E1,5.013266802E-1
2.135799844E1,1.169715023E1,-1.173623371E1,8.267369866E-1
2.137799844E1,1.228533840E1,-1.069131756E1,2.894781530E-1
2.139799844E1,1.253367519E1,-9.417525291E0,-2.465836108E-1
2.141800000E1,1.275746536E1,-8.308742523E0,-8.499607444E-1
2.144000000E1,1.304329491E1,-7.474458694E0,-1.879227996E0
2.146000469E1,1.302204418E1,-6.888463020E0,-2.550916433E0
2.148200000E1,1.265811539E1,-7.031224728E0,-2.753312826E0
2.150200625E1,1.190717030E1,-7.330557346E0,-2.188894033E0
2.152399844E1,1.083168411E1,-7.039259434E0,-1.366849780E0
2.154400312E1,1.067949009E1,-6.637167454E0,-4.402458072E-1
2.156401875E1,1.189319706E1,-7.705010414E0,1.940069646E-1
2.158600312E1,1.374622250E1,-1.077170467E1,-1.546654403E-1
2.160800156E1,1.265208244E1,-1.081145763E1,-9.862195700E-2
2.163000000E1,1.204549694E1,-1.063870239E1,-1.621066183E-1
2.165199844E1,1.257409859E1,-1.198798847E1,-3.860027790E-1
2.167199844E1,1.304352474E1,-1.417856693E1,-4.966244698E-1
2.169200000E1,1.262957668E1,-1.607260132E1,-1.203996092E-1
2.171200000E1,1.158176899E1,-1.686237335E1,6.798288226E-1
2.173200000E1,1.070303917E1,-1.683050919E1,1.318477273E0
2.175200156E1,1.001195812E1,-1.642113113E1,1.890116930E0
2.177399844E1,9.424995422E0,-1.596610737E1,2.141172886E0
2.179400000E1,8.729968071E0,-1.553563023E1,1.622435570E0
2.181400000E1,7.984767914E0,-1.520347786E1,8.946844339E-1
2.183599844E1,6.912768841E0,-1.460723495E1,2.251603156E-1
2.185599844E1,5.704855919E0,-1.375083923E1,2.544557489E-2
2.187600312E1,4.794657230E0,-1.275159454E1,-8.140285499E-3
2.189799844E1,4.096096039E0,-1.148921871E1,-3.037284315E-1
2.191800313E1,3.686716318E0,-1.064826012E1,-6.046795845E-1
2.194000000E1,3.143797636E0,-1.004533291E1,-7.264774442E-1
2.196199844E1,2.604058266E0,-1.005965042E1,-6.518453360E-1
2.198199844E1,1.437105179E0,-1.002029896E1,-2.152100056E-1
2.200200000E1,4.252102226E-3,-9.903931618E0,3.207272589E-1
2.202399844E1,-2.082926750E0,-8.967453957E0,9.814119935E-1
2.204400000E1,-3.259983301E0,-8.495182991E0,6.501694322E-1
2.206402031E1,-2.661260605E0,-9.421710014E0,-8.782889694E-2
2.208599844E1,-6.499778479E-2,-1.223191929E1,-8.144978881E-1
2.210600000E1,7.658092976E-1,-1.295055294E1,-1.107528925E0
2.212800000E1,1.739492893E0,-1.214690495E1,8.328374028E-1
2.214800000E1,4.063304901E0,-1.254216003E1,2.011004925E0
2.216800000E1,6.897264004E0,-1.350761700E1,1.602621198E0
2.218999844E1,9.043828964E0,-1.449792576E1,5.267818570E-1
2.220999844E1,9.426862717E0,-1.418712997E1,-7.680598497E-1
2.223000000E1,9.358647346E0,-1.377504921E1,-2.115909100E0
2.225000156E1,9.161949158E0,-1.332808018E1,-2.958313942E0
2.227200000E1,9.022356987E0,-1.308215714E1,-2.937886715E0
2.229200469E1,8.806506157E0,-1.290501595E1,-2.191613913E0
2.231399844E1,8.490528107E0,-1.268995857E1,-7.776367068E-1
2.233400000E1,8.513685226E0,-1.271987724E1,-1.336922348E-1
2.235400000E1,9.037384033E0,-1.266614056E1,6.491638422E-1
2.237400625E1,9.735973358E0,-1.240688801E1,8.576318026E-1
2.239600000E1,1.027559757E1,-1.197929192E1,1.091899633E0
2.241800000E1,1.119424343E1,-1.139805698E1,1.152817726E0
2.244000625E1,1.223312569E1,-1.060355568E1,8.117492795E-1
2.246199844E1,1.272115040E1,-9.516089439E0,-3.388274461E-2
2.248200313E1,1.280249500E1,-8.494991302E0,-7.518463731E-1
2.250400000E1,1.316289902E1,-7.523654461E0,-1.489193439E0
2.252400312E1,1.339662075E1,-7.112033844E0,-2.068800926E0
2.254600000E1,1.313060665E1,-6.918093681E0,-2.190627337E0
2.256600312E1,1.243998432E1,-6.810335636E0,-1.641426444E0
2.258799844E1,1.175467777E1,-6.374312878E0,-1.001370072E0
2.260799844E1,1.225101566E1,-7.110875130E0,-8.611847758E-1
2.262800000E1,1.378996944E1,-1.001106739E1,-1.028338432E0
2.264800625E1,1.320279694E1,-1.105644226E1,-8.845042586E-1
2.267000000E1,1.211156750E1,-1.084536076E1,-4.136701524E-1
2.269000625E1,1.189766884E1,-1.139423561E1,-3.159675896E-1
2.271200000E1,1.234814358E1,-1.348091698E1,-4.390774369E-1
2.273200000E1,1.218868923E1,-1.534953308E1,-2.042732835E-1
2.275200000E1,1.138959122E1,-1.643971825E1,4.471602440E-1
2.277200000E1,1.040619659E1,-1.654733467E1,1.013063312E0
2.279200000E1,9.845446587E0,-1.606703758E1,1.575442195E0
2.281201719E1,9.639218330E0,-1.558795834E1,1.792146087E0
2.283400000E1,9.429218292E0,-1.527603149E1,1.549355030E0
2.285400000E1,8.647952080E0,-1.500377274E1,8.682141900E-1
2.287599844E1,7.893913269E0,-1.467875481E1,7.906611264E-2
2.289600000E1,6.874030590E0,-1.421259403E1,-1.811261475E-1
2.291799844E1,5.935752869E0,-1.354037857E1,-4.491522443E-3
2.293799844E1,5.169857502E0,-1.267746067E1,3.390093744E-1
2.295799844E1,4.900873661E0,-1.209611034E1,2.474168092E-1
2.297799844E1,4.447833061E0,-1.140038395E1,2.013044804E-2
2.299800312E1,3.773003340E0,-1.107137299E1,-6.847033501E-1
2.302000000E1,2.228044271E0,-1.080039787E1,-6.924605966E-1
2.304000000E1,5.738422871E-1,-1.022801113E1,6.833051145E-2
2.306000000E1,-5.236023664E-1,-9.588414192E0,8.489934802E-1
2.308000625E1,-8.926829100E-1,-9.350736618E0,1.355798125E0
2.310200000E1,-6.374514103E-1,-9.956249237E0,1.173513174E0
2.312200000E1,3.758896515E-2,-1.180848026E1,5.816569328E-1
2.314400000E1,-4.195024371E-1,-1.207077026E1,-3.029335737E-1
2.316402500E1,-3.158622384E-1,-1.063208485E1,4.415674210E-1
2.318600000E1,2.343128681E0,-1.054819107E1,1.172507524E0
2.320800000E1,5.895386696E0,-1.168709469E1,3.867497444E-1
2.323000313E1,8.513972282E0,-1.291469765E1,-1.576964855E0
2.325200000E1,8.652117729E0,-1.292166901E1,-3.188377380E0
2.327200469E1,8.026858330E0,-1.257838821E1,-4.066685677E0
2.329400000E1,7.879901886E0,-1.233496571E1,-4.028885841E0
2.331600000E1,8.240717888E0,-1.227452660E1,-2.912345171E0
2.333800156E1,8.442922592E0,-1.206778240E1,-1.325717449E0
2.336000000E1,8.332952499E0,-1.176830578E1,-7.521049380E-1
2.338000312E1,8.088791847E0,-1.184695053E1,-6.164973974E-1
2.340000781E1,8.154354095E0,-1.221185589E1,-1.000680551E-1
2.342200000E1,8.899056435E0,-1.262720203E1,4.945079982E-1
2.344400000E1,1.017493534E1,-1.279300499E1,5.523902178E-1
2.346401875E1,1.130802536E1,-1.259493732E1,4.833605886E-1
2.348600000E1,1.235682869E1,-1.183769894E1,2.579704523E-1
2.350799844E1,1.331116772E1,-1.033480167E1,-2.357905507E-1
2.352800000E1,1.364226627E1,-8.866112709E0,-7.418864965E-1
2.355000000E1,1.393373680E1,-7.974501610E0,-1.413010001E0
2.357000781E1,1.392637253E1,-7.752799034E0,-1.987101197E0
2.359200000E1,1.342708492E1,-7.602941036E0,-2.525978565E0
2.361200000E1,1.247542858E1,-7.313979626E0,-2.089371920E0
2.363200000E1,1.149595070E1,-6.905030727E0,-1.361764550E0
2.365200000E1,1.179845333E1,-7.945350170E0,-8.297058344E-1
2.367399844E1,1.296560764E1,-1.088673210E1,-6.456779242E-1
2.369399844E1,1.146930885E1,-1.035533428E1,-5.890693888E-2
2.371400000E1,1.077463531E1,-9.405631065E0,4.426496029E-1
2.373600312E1,1.095127010E1,-9.562202454E0,3.438360989E-1
2.375799844E1,1.122446823E1,-1.139389992E1,-1.341423392E-1
2.377800469E1,1.112649727E1,-1.302939796E1,-5.716396123E-2
2.380000000E1,1.031065845E1,-1.414345932E1,3.000701070E-1
2.382000000E1,9.687294006E0,-1.455584526E1,6.804225445E-1
2.384000000E1,9.455937386E0,-1.449085712E1,1.198498964E0
2.386200469E1,9.233076096E0,-1.424751186E1,1.447582245E0
2.388399844E1,9.030909538E0,-1.423541641E1,1.011138439E0
2.390400000E1,8.355936050E0,-1.426286316E1,3.304860294E-1
2.392400000E1,7.452335835E0,-1.400282383E1,-2.873233557E-1
2.394400156E1,6.928005695E0,-1.377814293E1,-4.616212547E-1
2.396401875E1,6.215529919E0,-1.329979992E1,-1.463814825E-1
2.398600625E1,5.652365208E0,-1.256230927E1,2.237716615E-1
2.400800000E1,5.170814991E0,-1.170787621E1,4.694550633E-1
2.402800000E1,4.598639011E0,-1.101466942E1,4.519103765E-1
2.404999844E1,3.906034708E0,-1.036192322E1,1.594921350E-1
2.407000156E1,3.336454153E0,-1.003311348E1,-4.769058228E-1
2.409200000E1,2.488332033E0,-1.014974880E1,-9.020490050E-1
2.411200000E1,1.183272004E0,-9.977491379E0,-3.611222208E-1
2.413200000E1,-5.332366005E-2,-9.709991455E0,1.283483654E-1
2.415200781E1,-1.376120090E0,-9.130604744E0,3.785903454E-1
2.417399844E1,-2.149035454E0,-9.378087997E0,4.523317218E-1
2.419400469E1,-1.489672184E0,-1.083465290E1,5.706819296E-1
2.421600000E1,-2.650860138E-2,-1.241528606E1,-3.462207317E-1
2.423799844E1,1.870053411E0,-1.242948818E1,-2.294602990E-2
2.425799844E1,4.105576992E0,-1.265220737E1,9.094997644E-1
2.427800000E1,6.467514515E0,-1.312430477E1,1.297379613E0
2.430000000E1,8.188323021E0,-1.362886906E1,1.533821464E0
2.432000000E1,8.529726982E0,-1.366623688E1,1.256429195E0
2.434000000E1,8.493219376E0,-1.364501572E1,2.355607152E-1
2.436000313E1,8.741354942E0,-1.363074589E1,-1.215804338E0
2.438199844E1,8.799754143E0,-1.313504982E1,-2.496721506E0
2.440200625E1,8.820909500E0,-1.248861599E1,-2.727579832E0
2.442400000E1,8.738961220E0,-1.208483887E1,-1.721220374E0
2.444400000E1,8.682016373E0,-1.201464081E1,-8.078036308E-1
2.446401875E1,8.735560417E0,-1.210756493E1,-6.807002425E-1
2.448599844E1,9.276650429E0,-1.228633404E1,-5.150694251E-1
2.450599844E1,1.022599030E1,-1.223895836E1,1.453376114E-1
2.452600625E1,1.136163712E1,-1.184803295E1,5.108364820E-1
2.454799844E1,1.179867363E1,-1.089843464E1,6.606464386E-1
2.456800312E1,1.176265526E1,-9.790665627E0,4.919126928E-1
2.458800938E1,1.203153419E1,-8.565055847E0,-1.120199114E-1
2.460999844E1,1.299581337E1,-7.482292175E0,-1.428955317E0
2.463000000E1,1.368553448E1,-7.003001690E0,-2.957337141E0
2.465000156E1,1.322304153E1,-6.631373405E0,-4.302581310E0
2.467199844E1,1.188126469E1,-6.535605431E0,-4.821127415E0
2.469200000E1,1.051894474E1,-6.708611012E0,-3.873033047E0
2.471200000E1,1.064022446E1,-8.123948097E0,-2.150452852E0
2.473200000E1,1.218346024E1,-1.135969257E1,-1.057097554E0
2.475399844E1,1.186427498E1,-1.277049923E1,-4.443638399E-2
2.477399844E1,1.102745342E1,-1.254804993E1,8.663466573E-1
2.479400000E1,1.087565136E1,-1.259557915E1,1.357493162E0
2.481600312E1,1.161099720E1,-1.414958858E1,1.331233621E0
2.483799844E1,1.181680298E1,-1.572536659E1,1.478362083E0
2.485800313E1,1.101317501E1,-1.630572128E1,1.543484330E0
2.488000000E1,9.811668396E0,-1.594969368E1,1.896360993E0
2.490000781E1,8.749676704E0,-1.524646759E1,2.146076202E0
2.492199844E1,8.015356064E0,-1.450148869E1,2.442382574E0
2.494200469E1,7.629401207E0,-1.408419800E1,2.353241682E0
2.496401875E1,7.047620296E0,-1.346817970E1,1.768098712E0
2.498599844E1,6.699838161E0,-1.296098232E1,8.693059087E-1
2.500599844E1,6.005893230E0,-1.236796665E1,3.506452143E-1
2.502600000E1,5.277241707E0,-1.160295296E1,1.823423989E-2
2.504600000E1,4.831068039E0,-1.081957912E1,-1.129297018E-1
2.506600312E1,4.634226799E0,-1.015149212E1,-2.851972878E-1
2.508799844E1,4.111945629E0,-9.670152664E0,-7.289195061E-1
2.510800313E1,3.565655708E0,-9.581978798E0,-1.104234457E0
2.512999844E1,2.470911980E0,-9.786586761E0,-1.031355143E0
2.515000000E1,1.400311112E0,-1.001268578E1,-4.593324065E-1
2.517000000E1,6.240247190E-2,-9.573838234E0,9.687897563E-2
2.519000312E1,-5.391072035E-1,-9.363569260E0,-1.501643360E-1
2.521200625E1,-1.098344803E0,-9.352297783E0,-4.395562708E-1
2.523399844E1,-1.276502252E0,-1.021853924E1,2.369206250E-1
2.525399844E1,2.986623049E-1,-1.264255333E1,-2.181596458E-1
2.527400156E1,1.326933622E0,-1.289003754E1,-3.891152442E-1
2.529600000E1,2.738851786E0,-1.200715160E1,1.190167189E0
2.531600000E1,4.829967022E0,-1.183178139E1,1.868511558E0
2.533799844E1,7.766751766E0,-1.239542389E1,1.365116358E0
2.535799844E1,9.295843124E0,-1.299693394E1,4.507994354E-1
2.537799844E1,9.273835182E0,-1.299914551E1,-6.461471319E-1
2.539800000E1,9.129847527E0,-1.326745892E1,-2.268199682E0
2.541800000E1,9.070489883E0,-1.328394985E1,-3.585240364E0
2.544000781E1,9.166747093E0,-1.292444611E1,-3.672896862E0
2.546199844E1,9.322063446E0,-1.253327274E1,-2.144946098E0
2.548200469E1,9.348821640E0,-1.203188896E1,-4.583842754E-1
2.550400000E1,8.980161667E0,-1.167634010E1,-1.605072804E-2
2.552600000E1,9.016880035E0,-1.145541191E1,-1.248336807E-1
2.554600000E1,9.870059013E0,-1.146386909E1,1.715110391E-1
2.556800000E1,1.117104816E1,-1.114165688E1,7.373375297E-1
2.559000156E1,1.194593620E1,-1.048429585E1,1.026375175E0
2.561200000E1,1.204109192E1,-9.678263664E0,8.996835351E-1
2.563200000E1,1.194009495E1,-8.704886436E0,6.270701289E-1
2.565200000E1,1.211302376E1,-7.912721634E0,-1.947922446E-2
2.567200938E1,1.275888252E1,-7.512209892E0,-1.107586384E0
2.569399844E1,1.297025299E1,-7.410859108E0,-2.186605215E0
2.571400000E1,1.258508301E1,-7.488507271E0,-2.711318493E0
2.573599844E1,1.154072285E1,-7.147295475E0,-2.871816158E0
2.575600469E1,1.120807266E1,-7.214735508E0,-2.669477463E0
2.577800000E1,1.290983200E1,-9.691871643E0,-1.827197313E0
2.580000000E1,1.296676636E1,-1.093285370E1,-9.755030870E-1
2.582000000E1,1.171328735E1,-9.728723526E0,-1.819497496E-1
2.584000000E1,1.110472870E1,-9.247585297E0,2.272480428E-1
2.586000000E1,1.151842785E1,-1.101355743E1,2.349765301E-1
2.588000312E1,1.150866890E1,-1.312265778E1,3.498120010E-1
2.590200000E1,1.084520721E1,-1.478032589E1,6.456300020E-1
2.592200000E1,9.900455475E0,-1.538832951E1,1.118695498E0
2.594200000E1,9.435357094E0,-1.522231579E1,1.529894948E0
2.596200156E1,9.375597954E0,-1.471515656E1,1.836218596E0
2.598399844E1,9.170251846E0,-1.432401085E1,1.658023000E0
2.600400469E1,8.744649887E0,-1.416304398E1,1.065726161E0
2.602600313E1,7.778636932E0,-1.411377144E1,6.055510640E-1
2.604600313E1,7.015595436E0,-1.366698456E1,5.516145229E-1
2.606800000E1,6.432204723E0,-1.312139320E1,2.198834866E-1
2.608800312E1,6.092314243E0,-1.249168968E1,3.715992570E-1
2.611000000E1,5.738671303E0,-1.185292721E1,4.542662799E-1
2.613000156E1,5.178572178E0,-1.122969627E1,5.397967100E-1
2.615199844E1,4.442604065E0,-1.049483013E1,5.386953950E-1
2.617200000E1,3.938270330E0,-9.769912720E0,4.186980128E-1
2.619200000E1,3.799942970E0,-9.412957191E0,5.214380026E-1
2.621200469E1,3.731861353E0,-9.345919609E0,7.173411250E-1
2.623400000E1,3.614526272E0,-9.079933167E0,5.389444232E-1
2.625599844E1,3.095175982E0,-9.050828934E0,-1.231194288E-1
2.627599844E1,2.418747187E0,-9.928371429E0,-8.605813980E-1
2.629600313E1,1.325774789E0,-1.137298393E1,-1.705801606E0
2.631800000E1,-9.645089507E-1,-1.090482235E1,-1.923233509E0
2.634000000E1,-1.875655890E0,-9.853356361E0,4.301901534E-2
2.636000000E1,7.220146656E-1,-1.026010227E1,2.008332968E0
2.638000000E1,3.745450974E0,-1.142907619E1,1.742049932E0
2.640000000E1,5.869232655E0,-1.226354218E1,2.937685549E-1
2.642000938E1,6.581440449E0,-1.230216503E1,-7.475367785E-1
2.644200000E1,6.750040054E0,-1.205465221E1,-1.275391221E0
2.646200313E1,6.896842957E0,-1.212824059E1,-1.421341777E0
2.648399844E1,7.018650532E0,-1.236598396E1,-1.780462384E0
2.650400000E1,7.193397999E0,-1.270690060E1,-1.873443723E0
2.652600000E1,7.675944805E0,-1.317199707E1,-1.042818427E0
2.654799844E1,9.244108200E0,-1.355963802E1,-4.002243280E-1
2.656800000E1,1.046890545E1,-1.380376911E1,-9.763363004E-1
2.658800938E1,1.086993504E1,-1.387596989E1,-1.439231157E0
2.661000781E1,1.134093189E1,-1.377898502E1,-9.244491458E-1
2.663200000E1,1.250146770E1,-1.305858898E1,-1.185800284E-1
2.665200156E1,1.467435932E1,-1.148660469E1,-6.866762042E-1
2.667400000E1,1.558306408E1,-8.825037003E0,-2.053545237E0
2.669400000E1,1.506845379E1,-6.854637623E0,-2.937541723E0
2.671400000E1,1.430277920E1,-5.966417313E0,-3.357551813E0
2.673600313E1,1.370201683E1,-6.112090111E0,-2.995280504E0
2.675799844E1,1.257404137E1,-6.441446304E0,-2.328897476E0
2.677800156E1,1.115237331E1,-6.560907841E0,-1.672464848E0
2.680000000E1,1.010159683E1,-6.436275005E0,-1.061407089E0
2.682000000E1,1.033948421E1,-7.205771446E0,-8.082058430E-1
2.684000000E1,1.202137280E1,-9.894316673E0,-6.043826938E-1
2.686000469E1,1.190401840E1,-9.817788124E0,-2.702862322E-1
2.688200000E1,1.238685226E1,-8.957685471E0,-6.789190173E-1
2.690200625E1,1.358823395E1,-9.068144798E0,-1.654422164E0
2.692399844E1,1.416640568E1,-1.068311024E1,-2.024967909E0
2.694400469E1,1.345726204E1,-1.248171139E1,-1.421724796E0
2.696401875E1,1.235211754E1,-1.346541214E1,-2.597134113E-1
2.698599844E1,1.184863567E1,-1.386828899E1,9.129474163E-1
2.700599844E1,1.211827183E1,-1.420956802E1,1.258871198E0
2.702600000E1,1.168515015E1,-1.468138885E1,9.604005218E-1
2.704600000E1,1.028252125E1,-1.522605991E1,5.457630754E-1
2.706800469E1,8.725697517E0,-1.537274837E1,2.569552958E-1
2.709000000E1,7.811810970E0,-1.533003521E1,2.062461078E-1
2.711000625E1,6.971254349E0,-1.450291538E1,1.890844703E-1
2.713000625E1,6.632513046E0,-1.366571140E1,-1.941218786E-2
2.715200000E1,6.300227165E0,-1.270459175E1,9.367074817E-2
2.717399844E1,5.485221863E0,-1.172629166E1,4.492671490E-1
2.719399844E1,4.802318573E0,-1.084228611E1,8.574594259E-1
2.721400000E1,4.130064964E0,-9.904505730E0,6.569784880E-1
2.723599844E1,2.978568792E0,-9.105101585E0,-5.436753109E-2
2.725600000E1,1.978194833E0,-8.515486717E0,-5.124836564E-1
2.727800000E1,1.218773246E0,-7.517630577E0,-6.047945023E-1
2.730000156E1,1.126739979E0,-6.730072498E0,-9.405286312E-1
2.732199844E1,1.748897314E0,-6.836624146E0,-1.242590666E0
2.734200469E1,2.724400282E0,-8.027662277E0,-1.632184863E0
2.736401875E1,2.703743219E0,-9.330060959E0,-2.265594721E0
2.738600000E1,1.495169401E0,-8.744591713E0,-1.866356850E0
2.740600000E1,2.095022202E0,-8.428767204E0,-2.956551909E-1
2.742600000E1,3.793852091E0,-8.774950027E0,1.067009568E0
2.744799844E1,5.301567078E0,-9.562067986E0,1.076222420E0
2.746799844E1,5.867163658E0,-1.029103470E1,5.605496764E-1
2.748800000E1,5.982698441E0,-1.089926720E1,-3.570233658E-2
2.751000000E1,5.883425236E0,-1.110825253E1,-3.113898635E-1
2.753000625E1,6.138196945E0,-1.138907433E1,-7.342920899E-1
2.755200000E1,6.382424831E0,-1.157145405E1,-1.151400328E0
2.757400469E1,6.689782619E0,-1.182992268E1,-6.991164684E-1
2.759599844E1,7.468367577E0,-1.209963512E1,2.680835426E-1
2.761600469E1,8.501637459E0,-1.223143101E1,6.318010688E-1
2.763800000E1,9.429774284E0,-1.228437138E1,1.210508309E-2
2.765800469E1,1.037892151E1,-1.224387074E1,-7.192660570E-1
2.768000000E1,1.128470612E1,-1.201134586E1,-1.238664150E0
2.770000625E1,1.174135685E1,-1.142603970E1,-1.574551463E0
2.772199844E1,1.199358082E1,-1.045442581E1,-1.615348697E0
2.774200156E1,1.244870853E1,-9.348609924E0,-1.307444811E0
2.776401875E1,1.314882088E1,-8.106527328E0,-1.199562192E0
2.778599844E1,1.407676697E1,-7.343753815E0,-1.615913868E0
2.780599844E1,1.450698566E1,-7.171792984E0,-2.040261984E0
2.782600000E1,1.393095875E1,-7.284674644E0,-2.183866262E0
2.784800000E1,1.237561893E1,-7.088119984E0,-2.050815582E0
2.787000000E1,1.191491699E1,-8.399702072E0,-1.923089862E0
2.789000000E1,1.235433006E1,-1.064489841E1,-1.250137210E0
2.791000000E1,1.119705868E1,-1.002919674E1,-6.738432646E-1
2.793200469E1,1.086378574E1,-9.162256241E0,-9.166727662E-1
2.795399844E1,1.155375671E1,-9.407958031E0,-1.233052135E0
2.797400313E1,1.185796356E1,-1.066098690E1,-1.028520226E0
2.799599844E1,1.129504871E1,-1.192910099E1,-4.435498118E-1
2.801601562E1,1.058684349E1,-1.227580929E1,1.144332662E-1
2.803799844E1,1.001388264E1,-1.193037415E1,7.595269680E-1
2.805800000E1,9.965414047E0,-1.165187073E1,1.071711659E0
2.808000000E1,9.882785797E0,-1.178934574E1,9.146903753E-1
2.810000000E1,9.523770332E0,-1.232495785E1,1.755237132E-1
2.812000000E1,8.837563515E0,-1.296207428E1,-4.417206347E-1
2.814000625E1,7.734411240E0,-1.311536026E1,-7.017979622E-1
2.816200000E1,6.642358303E0,-1.269457436E1,-6.731824875E-1
2.818200000E1,6.028206825E0,-1.213913822E1,-5.630971193E-1
2.820200000E1,5.598697186E0,-1.153021717E1,-1.445619017E-1
2.822200312E1,5.256862164E0,-1.103982735E1,2.413163781E-1
2.824400000E1,4.968361378E0,-1.060827637E1,4.153844416E-1
2.826402188E1,4.588994980E0,-1.021008301E1,1.436042190E-1
2.828599844E1,3.727446556E0,-1.029408073E1,-8.442817330E-1
2.830600625E1,2.100097895E0,-1.010394382E1,-4.729314446E-1
2.832799844E1,4.886565506E-1,-9.516453743E0,8.069417626E-2
2.834800469E1,-2.124327272E-1,-9.313866615E0,-3.056725264E-1
2.837000000E1,-3.790308535E-1,-1.001471615E1,-7.447499633E-1
2.839000781E1,2.723643929E-2,-1.176502037E1,-9.893607497E-1
2.841200000E1,-9.175155759E-1,-1.180516720E1,-8.804053664E-1
2.843400000E1,-4.887331724E-1,-1.100804138E1,6.386581063E-1
2.845400000E1,1.809480190E0,-1.165350914E1,1.642882109E0
2.847400000E1,4.458482265E0,-1.289888573E1,1.572262645E0
2.849400000E1,6.449299335E0,-1.387692642E1,5.244355202E-1
2.851400156E1,7.429476261E0,-1.399443436E1,-6.521996856E-1
2.853600000E1,7.658017159E0,-1.345881367E1,-1.036124229E0
2.855600000E1,7.899840832E0,-1.311649990E1,-9.890543222E-1
2.857799844E1,8.430998802E0,-1.303897572E1,-1.146669388E0
2.859799844E1,8.854639053E0,-1.263751602E1,-1.545868993E0
2.861799844E1,9.217848778E0,-1.223480129E1,-2.199601173E0
2.863800312E1,9.293161392E0,-1.178833103E1,-2.154436827E0
2.866000156E1,9.608294487E0,-1.152578354E1,-1.617101312E0
2.868200000E1,1.017946625E1,-1.131045818E1,-1.770244002E0
2.870200000E1,1.115171242E1,-1.097985649E1,-2.394709110E0
2.872200156E1,1.216433620E1,-1.030492210E1,-2.202263355E0
2.874399844E1,1.301164341E1,-9.280126572E0,-1.602726579E0
2.876401875E1,1.366199493E1,-8.206316948E0,-1.661001325E0
2.878599844E1,1.386270618E1,-6.860910416E0,-2.393004656E0
2.880599844E1,1.406247711E1,-6.270126820E0,-3.328332901E0
2.882600000E1,1.425996113E1,-6.353589058E0,-4.520185471E0
2.884600313E1,1.352869511E1,-6.975822926E0,-5.091049671E0
2.886799844E1,1.134228134E1,-7.157629013E0,-3.840711355E0
2.888800312E1,1.010918140E1,-7.111602306E0,-2.277594566E0
2.891000000E1,1.063228607E1,-7.966313362E0,-6.514527202E-1
2.893199844E1,1.242916298E1,-1.057583046E1,1.633037180E-1
2.895199844E1,1.272378445E1,-1.218434143E1,3.156036735E-1
2.897200000E1,1.197325897E1,-1.183244133E1,3.465750813E-1
2.899200000E1,1.202358532E1,-1.217045498E1,-2.477232665E-1
2.901200313E1,1.282320976E1,-1.396950626E1,-4.676163197E-1
2.903399844E1,1.280241871E1,-1.579607105E1,5.878243968E-2
2.905400312E1,1.191439056E1,-1.658773804E1,7.059351802E-1
2.907600000E1,1.050553703E1,-1.627543831E1,1.473200202E0
2.909799844E1,9.541152000E0,-1.545417976E1,2.124604940E0
2.911799844E1,8.776874542E0,-1.481729317E1,2.326455355E0
2.913800000E1,8.032719612E0,-1.426601410E1,2.080532551E0
2.915800000E1,7.285785675E0,-1.391198826E1,1.464858770E0
2.917800625E1,6.546973228E0,-1.346591854E1,8.932000399E-1
2.920000000E1,5.516633511E0,-1.286618137E1,2.070505619E-1
2.922000312E1,4.300120354E0,-1.206038857E1,-4.574744999E-1
2.924199844E1,2.794473886E0,-1.102133369E1,-7.273010015E-1
2.926200156E1,1.318017602E0,-9.784402847E0,-5.922105908E-1
2.928400000E1,4.931768179E-1,-8.977920532E0,-7.568071485E-1
2.930400000E1,-5.484637246E-2,-8.352824211E0,-8.928935528E-1
2.932600000E1,-3.636505008E-1,-7.963479042E0,-6.762949228E-1
2.934800000E1,-3.282354772E-1,-8.071122169E0,-2.652105093E-1
2.937000781E1,-2.022717446E-1,-8.589121819E0,-1.330026835E-1
2.939000781E1,-2.530575395E-1,-8.475330353E0,5.928043276E-2
2.941200000E1,3.899101317E-1,-8.972662926E0,-9.640971571E-2
2.943200000E1,1.662706017E0,-1.054124928E1,-4.620713592E-1
2.945200312E1,3.894456387E0,-1.378838921E1,-1.198834181E0
2.947400000E1,3.550352097E0,-1.248914242E1,-5.751063824E-1
2.949400156E1,4.812441349E0,-1.249281025E1,5.772994757E-1
2.951601562E1,7.483038902E0,-1.361958885E1,9.034280181E-1
2.953799844E1,9.787304878E0,-1.425064278E1,4.372099638E-1
2.955800000E1,1.062173271E1,-1.417031288E1,-2.167518586E-1
2.958000000E1,1.022235012E1,-1.395228672E1,-1.170755029E0
2.960000000E1,9.386888504E0,-1.344021511E1,-1.721536398E0
2.962000000E1,8.896422386E0,-1.283913708E1,-1.800458908E0
2.964000000E1,8.755289078E0,-1.236491203E1,-9.963422418E-1
2.966000469E1,8.864532471E0,-1.152896214E1,-9.643844329E-3
2.968200000E1,9.105119705E0,-1.084642315E1,1.976557225E-1
2.970200312E1,9.586699486E0,-1.050000095E1,-4.772889018E-1
2.972400000E1,1.000939178E1,-1.004030514E1,-1.522788882E0
2.974600000E1,1.026254463E1,-9.530742645E0,-1.546271205E0
2.976800000E1,1.119743252E1,-9.041711807E0,-1.366303802E0
2.978800938E1,1.205964184E1,-8.452116013E0,-1.435285687E0
2.981000000E1,1.262438583E1,-7.495163441E0,-1.514533639E0
2.983000000E1,1.285816574E1,-6.654693127E0,-1.579196334E0
2.985000469E1,1.346608162E1,-6.056525707E0,-1.961894989E0
2.987200000E1,1.384208679E1,-6.015565872E0,-2.487632990E0
2.989399844E1,1.362838936E1,-6.327654839E0,-2.554996252E0
2.991399844E1,1.298121738E1,-6.460618973E0,-2.182209492E0
2.993400469E1,1.246857166E1,-6.255599022E0,-1.807267904E0
2.995600000E1,1.296066570E1,-7.334311485E0,-1.795928955E0
2.997600000E1,1.392283821E1,-9.825258255E0,-1.600629091E0
2.999799844E1,1.350856400E1,-1.083722973E1,-1.465337634E0
3.001800625E1,1.288273048E1,-1.132691097E1,-1.356008768E0
3.004000000E1,1.289831161E1,-1.296133709E1,-1.008523941E0
3.006000000E1,1.291815472E1,-1.519653416E1,-2.775837481E-1
3.008000000E1,1.227715969E1,-1.674528503E1,8.529103994E-1
3.010000625E1,1.091736794E1,-1.688845825E1,1.787453532E0
3.012200000E1,9.685761452E0,-1.604397583E1,2.346777439E0
3.014200469E1,9.005196571E0,-1.487881470E1,2.747432709E0
3.016401875E1,8.475369453E0,-1.402244663E1,2.627789497E0
3.018600000E1,8.044756889E0,-1.365610504E1,1.926010728E0
3.020800156E1,7.649416924E0,-1.345853519E1,1.075667024E0
3.023000000E1,6.965613842E0,-1.329577732E1,-1.410663594E-2
3.025000938E1,5.909224987E0,-1.264548302E1,-5.348933935E-1
3.027200000E1,5.103873253E0,-1.184609890E1,-1.092742443E0
3.029200000E1,4.358969688E0,-1.125461483E1,-1.393616915E0
3.031200000E1,3.775282383E0,-1.078944111E1,-1.258277416E0
3.033200469E1,3.295704842E0,-1.057484341E1,-9.523177147E-1
3.035400000E1,2.776919603E0,-1.064805889E1,-5.732676387E-1
3.037400312E1,1.912047744E0,-1.038440895E1,-2.122124583E-1
3.039599844E1,5.380920172E-1,-9.612355232E0,4.907155633E-1
3.041600781E1,-5.208824873E-1,-8.707481384E0,9.630245566E-1
3.043799844E1,-9.148052931E-1,-8.899170876E0,7.965317369E-1
3.045799844E1,-9.497415423E-1,-9.394244194E0,8.632437587E-1
3.047799844E1,3.708905578E-1,-1.099937439E1,5.167453885E-1
3.049800312E1,1.733258367E0,-1.198775864E1,-1.214865804E0
3.052000000E1,3.142897129E0,-1.115670204E1,-1.270066500E0
3.054000000E1,4.882361412E0,-1.097680187E1,-4.945846200E-1
3.056000000E1,6.613292694E0,-1.099649239E1,-6.287173927E-2
3.058200625E1,7.721625805E0,-1.133388329E1,-1.895345747E-1
3.060399844E1,7.820401192E0,-1.139313507E1,-1.057786942E0
3.062400625E1,7.931386948E0,-1.154047394E1,-2.321120977E0
3.064599844E1,8.145084381E0,-1.177898407E1,-2.971836329E0
3.066599844E1,8.240114212E0,-1.173222065E1,-2.480345011E0
3.068600000E1,8.535635948E0,-1.193326664E1,-1.591684461E0
3.070600781E1,9.007609367E0,-1.221597385E1,-5.696476698E-1
3.072799844E1,9.572995186E0,-1.235667610E1,-3.183330595E-2
3.074800000E1,1.014632034E1,-1.237548542E1,5.446329713E-2
3.076999844E1,1.106346226E1,-1.215209675E1,-1.526447237E-1
3.079000625E1,1.230928993E1,-1.177616787E1,-4.515847564E-1
3.081200000E1,1.323174667E1,-1.071114159E1,-1.004530430E0
3.083200000E1,1.389714336E1,-9.382789612E0,-1.607936263E0
3.085200000E1,1.459762001E1,-7.814051628E0,-2.399670124E0
3.087200156E1,1.493509769E1,-6.321879864E0,-3.594989538E0
3.089399844E1,1.497252369E1,-5.601292610E0,-4.899925232E0
3.091400000E1,1.480004501E1,-5.874661922E0,-5.150895119E0
3.093400000E1,1.398999119E1,-6.463799000E0,-4.207943439E0
3.095600156E1,1.280742741E1,-6.802061081E0,-2.844780684E0
3.097799844E1,1.255403519E1,-7.654061317E0,-1.825741529E0
3.099800000E1,1.325238514E1,-9.492272377E0,-1.141220212E0
3.102000000E1,1.298339176E1,-9.736797333E0,-4.132008851E-1
3.104000313E1,1.232891273E1,-9.047018051E0,-1.341040134E-1
3.106200000E1,1.171933937E1,-9.138887405E0,-5.105778575E-1
3.108200000E1,1.176600742E1,-1.100156784E1,-4.078857601E-1
3.110399844E1,1.123960876E1,-1.311921978E1,-1.150844842E-1
3.112399844E1,1.027708244E1,-1.420304585E1,3.644549549E-1
3.114400000E1,9.339829445E0,-1.425860119E1,8.070088029E-1
3.116401875E1,8.811638832E0,-1.369427872E1,1.195329070E0
3.118600000E1,8.471767426E0,-1.271300983E1,1.567416906E0
3.120600469E1,8.166181564E0,-1.206549358E1,1.651826739E0
3.122799844E1,7.669978619E0,-1.169480324E1,1.406641364E0
3.124800312E1,7.341503620E0,-1.173594570E1,9.107159972E-1
3.127000000E1,6.873398781E0,-1.172905064E1,3.603943884E-1
3.129000781E1,6.229693890E0,-1.143401718E1,2.414983362E-1
3.131200000E1,5.273526192E0,-1.090642166E1,4.727207720E-1
3.133200000E1,4.971511841E0,-1.066577625E1,2.641187310E-1
3.135399844E1,4.470232964E0,-1.018863106E1,-8.385452032E-1
3.137400000E1,3.941966772E0,-1.024320889E1,-1.640028238E0
3.139600625E1,2.281147480E0,-1.042166328E1,-1.132534027E0
3.141800000E1,6.990590096E-1,-9.990782738E0,-4.447469115E-2
3.143800000E1,1.797854006E-1,-9.372781754E0,3.660351336E-1
3.146000000E1,1.299563169E0,-9.910184860E0,9.594045579E-2
3.148000000E1,2.311007977E0,-1.170002365E1,-4.106343091E-1
3.150000000E1,2.171148300E0,-1.344596100E1,-4.946708083E-1
3.152000000E1,-1.255327761E-1,-1.177824593E1,7.041922212E-1
3.154000000E1,-6.045550704E-1,-1.020799541E1,2.618586063E0
3.156000000E1,1.675950766E0,-1.011968708E1,3.591053486E0
3.158000469E1,5.170776367E0,-1.148418045E1,1.665693998E0
3.160200781E1,8.037411690E0,-1.209097767E1,-1.494987369E0
3.162400000E1,8.093474388E0,-1.142421055E1,-3.024719477E0
3.164400000E1,7.673847198E0,-1.083098507E1,-3.098039627E0
3.166401875E1,7.641295910E0,-1.040540123E1,-2.218294859E0
3.168600000E1,7.890158653E0,-1.019287300E1,-1.949636698E0
3.170800000E1,7.855567455E0,-9.981254578E0,-1.422883630E0
3.172800469E1,7.823092461E0,-9.995514870E0,-7.314860821E-1
3.175000000E1,8.204087257E0,-1.022625828E1,3.926490620E-2
3.177000313E1,9.184463501E0,-1.040265369E1,-7.870220393E-2
3.179001406E1,9.967444420E0,-1.029365921E1,-3.158430755E-1
3.181200000E1,1.054317379E1,-1.000871086E1,-2.154206783E-1
3.183200000E1,1.116736126E1,-9.695913315E0,-1.589271128E-1
3.185399844E1,1.169792557E1,-9.282751083E0,-3.843076825E-1
3.187400000E1,1.237444973E1,-8.537273407E0,-8.965231776E-1
3.189600000E1,1.310976791E1,-7.583087921E0,-2.108238220E0
3.191800000E1,1.317144203E1,-6.899849892E0,-3.687482357E0
3.194000000E1,1.272884083E1,-6.821933270E0,-4.758265018E0
3.196000000E1,1.199648285E1,-6.739582062E0,-4.732283115E0
3.198000000E1,1.118031883E1,-6.666328907E0,-4.372463226E0
3.200000000E1,1.098705864E1,-6.821655273E0,-3.197456360E0
3.202000312E1,1.177977943E1,-8.305686951E0,-2.099868059E0
3.204200000E1,1.291923714E1,-1.107397747E1,-1.496462226E0
3.206200000E1,1.200489998E1,-1.119524860E1,-6.819069386E-1
3.208400000E1,1.073871326E1,-1.022314548E1,1.040041223E-1
3.210600000E1,1.051129246E1,-1.028895664E1,4.330440462E-1
3.212800000E1,1.056609058E1,-1.124781609E1,8.512440920E-1
3.214800000E1,1.021640301E1,-1.214391804E1,1.085751295E0
3.217000625E1,9.432101250E0,-1.270512772E1,9.490232468E-1
3.219200000E1,8.673991203E0,-1.259103012E1,8.643738627E-1
3.221200000E1,7.926109791E0,-1.190185452E1,1.057327390E0
3.223200000E1,7.445842743E0,-1.126969910E1,1.218868852E0
3.225200625E1,7.401071072E0,-1.095414352E1,1.183272004E0
3.227399844E1,7.210847378E0,-1.101546383E1,9.627851248E-1
3.229400625E1,6.603084087E0,-1.079421997E1,8.129942417E-1
3.231600000E1,5.790443897E0,-1.020172310E1,7.222731709E-1
3.233600313E1,5.239643574E0,-9.884691238E0,3.508941829E-1
3.235800000E1,4.421535015E0,-9.725141525E0,1.235120744E-1
3.238000000E1,3.511269331E0,-9.734862328E0,5.602144599E-1
3.240200000E1,2.863513231E0,-9.582839966E0,7.030333877E-1
3.242200000E1,2.643399954E0,-9.564950943E0,4.434061646E-1
3.244400000E1,2.354467630E0,-9.412708282E0,6.277596951E-2
3.246401875E1,1.974421501E0,-9.173584938E0,-1.588026136E-1
3.248599844E1,1.482633352E0,-9.219907761E0,-7.796670198E-1
3.250599844E1,1.231261373E0,-1.036616516E1,-1.942387104E0
3.252600156E1,1.326110005E0,-1.282081604E1,-2.295091391E0
3.254800000E1,3.931566477E-1,-1.414455032E1,-9.425397515E-1
3.256800000E1,-9.395231009E-1,-1.285845280E1,1.714909196E0
3.258800781E1,9.067320824E-2,-1.179225826E1,3.713837862E0
3.260999844E1,3.226914644E0,-1.186882401E1,4.176474094E0
3.263000000E1,5.991815567E0,-1.278744984E1,1.441884041E0
3.265200469E1,7.385863304E0,-1.316001701E1,-1.092531681E0
3.267399844E1,7.522246361E0,-1.285980320E1,-2.524838924E0
3.269400000E1,7.046212196E0,-1.191138268E1,-2.353049994E0
3.271400000E1,6.339788437E0,-1.116366386E1,-1.721421361E0
3.273400156E1,6.173285961E0,-1.106676674E1,-8.999804258E-1
3.275600000E1,6.572562695E0,-1.100868225E1,1.060631350E-1
3.277600156E1,7.659711838E0,-1.103452110E1,2.128062248E-1
3.279799844E1,8.687073708E0,-1.069180584E1,-1.489384919E-1
3.281800000E1,9.135115623E0,-1.050505733E1,-1.559199989E-1
3.284000000E1,9.406445503E0,-1.041193295E1,-9.552864730E-2
3.286000000E1,9.692169189E0,-1.030791855E1,-6.370683312E-1
3.288000000E1,1.018844795E1,-9.968708992E0,-1.062901020E0
3.290000000E1,1.078674984E1,-9.529190063E0,-5.848651528E-1
3.292000000E1,1.140594864E1,-9.020624161E0,-9.315360337E-2
3.294000000E1,1.175226498E1,-8.162322044E0,1.739148051E-2
3.296000000E1,1.200534153E1,-7.491562366E0,-2.278418094E-1
3.298000000E1,1.263933563E1,-7.182202816E0,-7.259506583E-1
3.300000312E1,1.305652046E1,-6.982603073E0,-1.541099787E0
3.302200000E1,1.316667271E1,-6.616251945E0,-2.426849127E0
3.304200312E1,1.345372868E1,-7.123832226E0,-2.845029831E0
3.306401875E1,1.404041290E1,-9.073488235E0,-2.848649979E0
3.308599844E1,1.341945267E1,-1.108001041E1,-2.472214460E0
3.310600000E1,1.198651409E1,-1.096565437E1,-1.068953633E0
3.312800000E1,1.128913975E1,-1.055071068E1,-1.349946707E-1
3.314800000E1,1.177502823E1,-1.176153469E1,2.213295698E-1
3.317000000E1,1.184712315E1,-1.382429314E1,4.846726060E-1
3.319000000E1,1.086785603E1,-1.516334057E1,8.538872600E-1
3.321000000E1,9.300841331E0,-1.503700352E1,1.500350475E0
3.323000000E1,8.063058853E0,-1.409638023E1,2.204542637E0
3.325000000E1,7.508312702E0,-1.321639538E1,2.450733662E0
3.327000000E1,7.208376408E0,-1.242844391E1,2.142494440E0
3.329200938E1,6.994603157E0,-1.197807598E1,1.401929617E0
3.331399844E1,6.361978054E0,-1.166360283E1,8.666914701E-1
3.333400000E1,5.957291126E0,-1.150913906E1,4.228830636E-1
3.335600156E1,5.135112286E0,-1.102580643E1,3.048776686E-1
3.337799844E1,4.776221752E0,-1.047387600E1,2.426379770E-1
3.339800469E1,4.589071751E0,-1.005144310E1,3.265690990E-3
3.342000000E1,4.342229366E0,-9.839517593E0,-4.043136239E-1
3.344000156E1,3.949647427E0,-9.854227066E0,-5.932353139E-1
3.346200000E1,3.257684708E0,-9.883954048E0,-5.618712902E-1
3.348200312E1,2.843009233E0,-1.018047142E1,-5.290227756E-2
3.350400156E1,2.186461687E0,-9.931004524E0,3.487489820E-1
3.352599844E1,1.428888321E0,-9.600882530E0,2.323620617E-1
3.354599844E1,6.752511263E-1,-9.768582344E0,7.825209200E-2
3.356599844E1,5.454087257E-1,-1.090392303E1,4.073973373E-2
3.358599844E1,6.529945731E-1,-1.208676338E1,-1.715972275E-1
3.360600469E1,1.184325457E0,-1.306783962E1,-4.816559255E-1
3.362799844E1,1.763434887E0,-1.225868607E1,3.208900690E-1
3.364800625E1,3.227604151E0,-1.192512608E1,1.466122866E0
3.367000000E1,5.011293888E0,-1.225828457E1,1.845919967E0
3.369000781E1,6.270682812E0,-1.275035000E1,1.521237373E0
3.371200000E1,6.822948456E0,-1.296427631E1,7.368777990E-1
3.373200000E1,7.050827980E0,-1.275119209E1,-2.035454512E-1
3.375200000E1,7.476028919E0,-1.213231087E1,-8.826176524E-1
3.377200625E1,8.057887077E0,-1.150094986E1,-9.086665511E-1
3.379400000E1,8.580426216E0,-1.109426212E1,-7.046710253E-1
3.381400000E1,8.714138031E0,-1.095596313E1,-7.765257955E-1
3.383400000E1,8.667660713E0,-1.087602520E1,-8.396177888E-1
3.385600625E1,8.827910423E0,-1.097466564E1,-8.256931305E-1
3.387604219E1,1.026670074E1,-1.076919651E1,-7.022097707E-1
3.389799844E1,1.211666203E1,-1.001305008E1,-9.329150319E-1
3.391800000E1,1.292936897E1,-9.199614525E0,-1.629752159E0
3.393800156E1,1.238474655E1,-8.181571007E0,-2.273687363E0
3.396000000E1,1.197675514E1,-6.788375854E0,-2.625606298E0
3.398000781E1,1.243829918E1,-5.721261024E0,-3.266313791E0
3.400200000E1,1.338081932E1,-5.427406311E0,-4.638833046E0
3.402200313E1,1.338914204E1,-5.860756874E0,-5.326140881E0
3.404399844E1,1.227310848E1,-6.581363678E0,-4.517121315E0
3.406401875E1,1.140813160E1,-7.065404415E0,-3.441061497E0
3.408599844E1,1.203123760E1,-8.610507011E0,-2.766433001E0
3.410600000E1,1.325932789E1,-1.021575165E1,-2.177938223E0
3.412799844E1,1.291422844E1,-1.031093693E1,-1.915246487E0
3.414800000E1,1.173149204E1,-9.160741806E0,-1.506958365E0
3.417000625E1,1.142049503E1,-9.736615181E0,-1.210249782E0
3.419200000E1,1.168765926E1,-1.192435074E1,-5.566423535E-1
3.421200000E1,1.136268902E1,-1.370960140E1,1.436904073E-1
3.423200000E1,1.037019730E1,-1.461812401E1,6.065853834E-1
3.425400469E1,9.225012779E0,-1.442353344E1,1.091755986E0
3.427599844E1,8.730744362E0,-1.358380985E1,1.551797032E0
3.429600469E1,8.469201088E0,-1.288928986E1,1.745104909E0
3.431799844E1,8.170941353E0,-1.237143326E1,1.727397323E0
3.433800000E1,7.412419796E0,-1.184349346E1,1.541272044E0
3.435800000E1,6.752280712E0,-1.148556042E1,1.180657506E0
3.438000000E1,5.957233429E0,-1.099335098E1,9.799563885E-1
3.440000000E1,5.447124958E0,-1.045997906E1,8.078324199E-1
3.442000312E1,5.192305088E0,-1.025514126E1,4.408587217E-1
3.444199844E1,4.809577465E0,-1.006507015E1,8.135497570E-2
3.446200156E1,4.270872593E0,-1.000383663E1,-2.736380994E-1
3.448400000E1,3.688755989E0,-9.928170204E0,-6.621212959E-1
3.450400313E1,2.938873053E0,-9.678062439E0,-1.081231117E0
3.452599844E1,1.922563076E0,-9.651189804E0,-4.995453954E-1
3.454600000E1,1.303958893E0,-9.473712921E0,7.147171348E-2
3.456800000E1,7.217656374E-1,-9.749457359E0,1.422155797E-1
3.458800938E1,-1.132936310E-2,-9.755768776E0,7.250504494E-1
3.460999844E1,-6.425175071E-1,-9.929721832E0,1.500264287E0
3.463000000E1,-1.925033927E-1,-1.095482349E1,1.856607676E0
3.465200625E1,7.155981660E-1,-1.193920422E1,5.232192278E-1
3.467399844E1,2.210997343E0,-1.177232838E1,9.722373635E-2
3.469400781E1,4.378688335E0,-1.235546017E1,-1.166359335E-1
3.471599844E1,7.173248768E0,-1.345960808E1,-4.213603437E-1
3.473600156E1,8.950714111E0,-1.401733303E1,-7.663456202E-1
3.475799844E1,9.244779587E0,-1.348967934E1,-3.380995691E-1
3.477800313E1,8.627113342E0,-1.252979565E1,-1.589366943E-1
3.480000000E1,8.061899185E0,-1.169939995E1,-5.659796596E-1
3.482000156E1,8.240785599E0,-1.143020630E1,-7.878168225E-1
3.484200000E1,8.626902580E0,-1.132581902E1,-7.711436152E-1
3.486401875E1,9.192173958E0,-1.112104797E1,-5.250101089E-1
3.488600781E1,9.158520699E0,-1.086233997E1,-7.343878746E-1
3.490799844E1,8.927384377E0,-1.073041058E1,-1.079229474E0
3.492800000E1,9.160435677E0,-1.061423302E1,-1.119078636E0
3.495000000E1,9.673139572E0,-1.041148376E1,-8.966093659E-1
3.497000000E1,1.028859329E1,-1.018880272E1,-9.679757953E-1
3.499000000E1,1.113744354E1,-9.687534332E0,-1.097377539E0
3.501000000E1,1.171333504E1,-8.904390335E0,-1.240340114E0
3.503000000E1,1.212913132E1,-7.956429958E0,-1.464801311E0
3.505000000E1,1.276129627E1,-7.338601589E0,-1.816250920E0
3.507000000E1,1.363426113E1,-6.974414825E0,-2.448348761E0
3.509000000E1,1.400131035E1,-6.649148464E0,-3.354333878E0
3.511000469E1,1.367019272E1,-6.163834095E0,-3.999159575E0
3.513201719E1,1.365315533E1,-6.919357777E0,-3.702699900E0
3.515400000E1,1.425709724E1,-1.050021172E1,-2.943603992E0
3.517600625E1,1.204483604E1,-1.133322144E1,-1.653311133E0
3.519799844E1,1.048147964E1,-1.078952694E1,-6.374322623E-2
3.521800156E1,1.063716030E1,-1.131750679E1,6.125900149E-1
3.524000000E1,1.125431824E1,-1.299056435E1,9.703507423E-1
3.526000156E1,1.120236397E1,-1.437926006E1,1.240675330E0
3.528199844E1,1.049654388E1,-1.505235577E1,1.403777957E0
3.530200312E1,9.762874603E0,-1.460414124E1,1.542746902E0
3.532399844E1,9.328948975E0,-1.372081566E1,1.960784197E0
3.534400000E1,9.311949730E0,-1.335446453E1,1.920523286E0
3.536402188E1,9.068622589E0,-1.335249138E1,1.476753116E0
3.538600000E1,8.167963028E0,-1.340611267E1,1.101562619E0
3.540600000E1,7.588134766E0,-1.357223129E1,9.139434099E-1
3.542600156E1,6.860566139E0,-1.361545086E1,6.491255760E-1
3.544799844E1,5.529140472E0,-1.309312344E1,4.359554052E-1
3.546800312E1,4.204122543E0,-1.282975101E1,6.846555471E-1
3.549000000E1,1.426043987E0,-1.251935768E1,1.830922604E0
3.551000000E1,-3.354659677E-1,-1.225775719E1,2.832915306E0
3.553000625E1,-1.118590236E0,-1.136584949E1,2.888355494E0
3.555200000E1,-8.088475466E-1,-1.086252117E1,2.327307701E0
3.557200000E1,-8.337472677E-1,-9.987881660E0,1.733804226E0
3.559200156E1,-8.426249623E-1,-9.169446945E0,1.574130177E0
3.561400000E1,-3.057299852E-1,-9.424085617E0,1.098948121E0
3.563400625E1,5.273947492E-2,-9.943320274E0,6.456683278E-1
3.565600000E1,6.056372523E-1,-1.098510456E1,-9.909121692E-2
3.567600000E1,1.921442628E0,-1.276580620E1,-2.244439602E0
3.569799844E1,2.298146248E0,-1.235457897E1,-3.128158808E0
3.571800000E1,3.104341030E0,-1.206028366E1,-1.377968431E0
3.574000000E1,3.987542868E0,-1.264554119E1,1.040673375E0
3.576200000E1,4.429934025E0,-1.293392754E1,3.101286173E0
3.578399844E1,4.960843086E0,-1.316414452E1,3.305760384E0
3.580400000E1,5.631219864E0,-1.313847828E1,2.118495226E0
3.582400469E1,6.252783298E0,-1.315483570E1,7.593641281E-1
3.584599844E1,6.336331367E0,-1.309115028E1,3.506356180E-1
3.586600000E1,6.500228882E0,-1.295921993E1,4.046296775E-1
3.588799844E1,6.780963421E0,-1.306378937E1,1.153919101E0
3.590799844E1,7.338515759E0,-1.307605648E1,1.908408523E0
3.592800000E1,8.282596588E0,-1.315885830E1,2.002673149E0
3.594800000E1,9.096635818E0,-1.298999023E1,1.454477549E0
3.597000000E1,9.926436424E0,-1.282617855E1,7.427675724E-1
3.599000469E1,1.038543320E1,-1.271382427E1,3.959243596E-1
3.601200000E1,1.032405663E1,-1.218779850E1,8.514739573E-2
3.603200000E1,1.021787834E1,-1.164859581E1,-6.481582671E-2
3.605200000E1,1.010769749E1,-1.109682846E1,1.526543032E-2
3.607200000E1,1.014497948E1,-1.035292053E1,-1.159837484E0
3.609200000E1,1.106396961E1,-1.053862476E1,-1.048028350E0
3.611200000E1,1.097327709E1,-1.015704632E1,4.415482581E-1
3.613200625E1,1.166637039E1,-9.345450401E0,-8.100446463E-1
3.615400156E1,1.142033291E1,-8.095609665E0,-2.789350271E0
3.617400312E1,1.097915840E1,-6.914463997E0,-3.056533575E0
3.619599844E1,1.199194336E1,-8.641008377E0,-3.315605402E0
3.621600000E1,1.224125671E1,-1.173804283E1,-3.688909531E0
3.623799844E1,1.012299156E1,-1.209645462E1,-2.742443085E0
3.625799844E1,9.202430725E0,-1.177944374E1,-1.046074629E0
3.627800000E1,1.038445663E1,-1.410575485E1,5.897972584E-1
3.629800781E1,1.188396454E1,-1.757674408E1,2.607697487E0
3.632000000E1,1.243550301E1,-1.940436363E1,4.421975613E0
3.634000625E1,1.283633995E1,-1.997403908E1,4.703035831E0
3.636199844E1,1.222812653E1,-2.000697517E1,4.617227554E0
3.638200000E1,1.128873730E1,-1.894050026E1,4.699961662E0
3.640200000E1,1.022252369E1,-1.828083229E1,4.173055172E0
3.642200312E1,9.011114120E0,-1.813503265E1,2.919422626E0
3.644400000E1,7.136664867E0,-1.757649612E1,1.920073152E0
3.646402656E1,5.127910614E0,-1.619994354E1,1.854108095E0
3.648599844E1,3.835568666E0,-1.428999424E1,1.799855471E0
3.650600312E1,3.805200338E0,-1.306033230E1,1.319099784E0
3.652799844E1,4.325355053E0,-1.222591400E1,7.345889807E-1
3.654799844E1,4.399412632E0,-1.168923092E1,6.264572144E-1
3.656800000E1,4.348186493E0,-1.187154388E1,4.968256056E-1
3.658800312E1,3.571593523E0,-1.144550037E1,8.645557761E-1
3.660999844E1,2.368334770E0,-1.060144806E1,1.706194282E0
3.663000312E1,1.539988875E0,-1.005733299E1,2.127276897E0
3.665200000E1,5.690634251E-1,-9.334896088E0,2.537920952E0
3.667200156E1,-2.037561387E-1,-9.614568710E0,2.072411299E0
3.669399844E1,6.047753617E-2,-1.127072334E1,3.457131386E-1
3.671400469E1,-1.559104174E-1,-1.175622940E1,-1.470959187E0
3.673599844E1,-1.345838308E0,-8.867691994E0,-9.236447215E-1
3.675600000E1,1.712620407E-1,-8.741977692E0,9.548171759E-1
3.677800000E1,3.008391142E0,-1.106718731E1,2.028655052E0
3.680000000E1,5.108910084E0,-1.296736050E1,1.255806684E0
3.682000000E1,6.490441322E0,-1.368440437E1,2.067057937E-1
3.684000000E1,7.439081669E0,-1.405103302E1,-8.723034859E-1
3.686000000E1,8.220644951E0,-1.406407738E1,-1.376397848E0
3.688000781E1,8.920517921E0,-1.389736462E1,-1.163323522E0
3.690200000E1,9.624586105E0,-1.399847603E1,-2.920446992E-1
3.692200000E1,9.921877861E0,-1.403712749E1,8.255782127E-1
3.694400000E1,9.846480370E0,-1.414118958E1,1.470422983E0
3.696402188E1,9.592436790E0,-1.410163784E1,1.409514427E0
3.698599844E1,9.412459373E0,-1.415488434E1,1.596673965E0
3.700599844E1,1.010347366E1,-1.446165848E1,1.713137507E0
3.702599844E1,1.124903202E1,-1.443285179E1,1.399181008E0
3.704600938E1,1.228374863E1,-1.384396362E1,8.159152269E-1
3.706800000E1,1.270375919E1,-1.261314297E1,3.900058866E-1
3.708800312E1,1.295311928E1,-1.103196430E1,1.047319546E-1
3.711000000E1,1.401605892E1,-9.717452049E0,-8.976244926E-1
3.713000000E1,1.468548775E1,-8.822422981E0,-2.040444136E0
3.715000000E1,1.485367489E1,-8.523703575E0,-3.509009123E0
3.717000156E1,1.413246441E1,-8.324936867E0,-4.859252453E0
3.719200000E1,1.239689827E1,-7.516423702E0,-5.006994247E0
3.721200000E1,1.112712860E1,-6.898470879E0,-3.980858326E0
3.723200000E1,1.140505791E1,-7.512564659E0,-2.771681070E0
3.725399844E1,1.252807236E1,-9.544878006E0,-2.017708778E0
3.727399844E1,1.204160881E1,-9.704647064E0,-9.273222089E-1
3.729400156E1,1.117493629E1,-9.793491364E0,-3.196355104E-1
3.731600000E1,1.138088608E1,-1.183377266E1,-1.231481582E-1
3.733600313E1,1.203282738E1,-1.469788933E1,4.807269573E-1
3.735800000E1,1.182748032E1,-1.670974541E1,1.685288191E0
3.737800625E1,1.113267422E1,-1.708047485E1,2.705936193E0
3.740000000E1,1.033872795E1,-1.662482071E1,3.237946987E0
3.742000000E1,9.567527771E0,-1.616744041E1,3.504402637E0
3.744199844E1,8.648019791E0,-1.494261551E1,4.045080185E0
3.746200156E1,8.441266060E0,-1.453683567E1,3.573413134E0
3.748399844E1,8.304556847E0,-1.426721096E1,2.594031334E0
3.750400000E1,7.717105865E0,-1.409281731E1,1.476159453E0
3.752599844E1,6.784947395E0,-1.362657070E1,1.214722157E0
3.754599844E1,6.021196842E0,-1.319692612E1,9.552769065E-1
3.756599844E1,5.148510456E0,-1.236895275E1,4.676258862E-1
3.758600469E1,4.279137611E0,-1.181894779E1,5.648400635E-2
3.760800000E1,2.894130230E0,-1.104595566E1,1.171530783E-1
3.762800000E1,1.742902279E0,-9.924415588E0,5.200302005E-1
3.765000000E1,1.089352131E0,-9.225577354E0,4.803917706E-1
3.767000000E1,1.157069802E0,-9.359422684E0,6.387155652E-1
3.769200000E1,1.096065521E0,-9.381545067E0,1.066971183E0
3.771200000E1,3.871424198E-1,-8.505564690E0,1.641407251E0
3.773400000E1,-2.562753484E-2,-7.952101707E0,1.902557135E0
3.775600000E1,8.278000355E-1,-9.046252251E0,8.823112249E-1
3.777600469E1,2.043269157E0,-1.102316284E1,-3.703064024E-1
3.779799844E1,2.260921478E0,-1.173982430E1,-9.472227693E-1
3.781800313E1,2.190033674E0,-1.074211216E1,4.347870126E-2
3.784000000E1,3.970046043E0,-1.128411198E1,1.111445904E0
3.786000156E1,5.949016571E0,-1.189049625E1,1.570404768E0
3.788200000E1,7.729431152E0,-1.261538410E1,1.109415650E0
3.790200312E1,8.694773674E0,-1.292623711E1,1.613787711E-1
3.792399844E1,8.686134338E0,-1.231036186E1,-7.351348400E-1
3.794400000E1,8.329734802E0,-1.140345764E1,-1.352905869E0
3.796402188E1,8.343611717E0,-1.104591751E1,-1.934811831E0
3.798600000E1,8.673829079E0,-1.101057911E1,-2.134507418E0
3.800600000E1,8.970728874E0,-1.116580009E1,-1.455435157E0
3.802600469E1,9.363760948E0,-1.162028694E1,-3.604039550E-1
3.804799844E1,9.714215279E0,-1.190181637E1,3.368354440E-1
3.806800625E1,1.029833317E1,-1.178716183E1,2.343061566E-1
3.809000000E1,1.155923462E1,-1.135307407E1,5.237651467E-1
3.811000000E1,1.264124107E1,-1.056145573E1,7.116141915E-1
3.813200000E1,1.343607807E1,-9.333153725E0,3.058544993E-1
3.815400000E1,1.335460854E1,-7.520953655E0,-9.053146839E-1
3.817600000E1,1.332256413E1,-6.452363968E0,-2.709249973E0
3.819799844E1,1.317873955E1,-6.354795456E0,-4.935369015E0
3.821800000E1,1.281804752E1,-6.761187553E0,-6.459872246E0
3.824000000E1,1.169655704E1,-6.854235172E0,-7.009619236E0
3.826000000E1,1.063993740E1,-6.513961792E0,-5.451204777E0
3.828199844E1,1.071127510E1,-7.361624718E0,-3.246728897E0
3.830199844E1,1.198400402E1,-1.007869816E1,-1.938862801E0
3.832199844E1,1.263157845E1,-1.218582630E1,-7.999602556E-1
3.834200469E1,1.133551121E1,-1.096593285E1,8.053040504E-1
3.836402188E1,1.044676399E1,-9.940744400E0,9.721800089E-1
3.838599844E1,1.160003090E1,-1.211060905E1,4.032697380E-1
3.840599844E1,1.193607235E1,-1.399196434E1,3.997263610E-1
3.842599844E1,1.122260094E1,-1.503317261E1,6.843681931E-1
3.844599844E1,1.009771824E1,-1.501189327E1,1.149762750E0
3.846600469E1,9.036598206E0,-1.385756207E1,1.749098420E0
3.848800000E1,8.467400551E0,-1.265118122E1,2.334222078E0
3.850800000E1,8.369726181E0,-1.214995098E1,2.347141266E0
3.853000000E1,8.182328224E0,-1.188343811E1,2.058055639E0
3.855000156E1,7.771138191E0,-1.188604259E1,1.499603391E0
3.857200000E1,6.863151550E0,-1.164827061E1,9.377130270E-1
3.859200000E1,5.980792522E0,-1.127332783E1,7.719480395E-1
3.861200000E1,5.142294884E0,-1.068473816E1,5.856983662E-1
3.863200156E1,4.588449001E0,-1.013080597E1,2.543695569E-1
3.865400000E1,3.963380575E0,-9.807770729E0,-3.566402942E-2
3.867600000E1,3.084296942E0,-9.578702927E0,-1.268064976E-1
3.869600000E1,2.091814041E0,-9.622966766E0,2.666374445E-1
3.871600156E1,9.433251023E-1,-9.513302803E0,5.710554123E-1
3.873799844E1,-4.681047499E-1,-9.053128242E0,1.199792027E0
3.875799844E1,-1.174250603E0,-8.251654625E0,1.921931028E0
3.877800000E1,-2.880895138E-1,-8.829527855E0,1.817926884E0
3.879800312E1,1.727857113E0,-1.161955833E1,6.997485161E-1
3.882000000E1,1.858542085E0,-1.291029167E1,3.171934187E-1
3.884000625E1,5.600037575E-1,-9.447528839E0,2.634407282E0
3.886199844E1,3.360003471E0,-9.713343620E0,3.409467697E0
3.888200000E1,6.655219555E0,-1.119219303E1,2.250003576E0
3.890399844E1,9.166603088E0,-1.313783646E1,-1.022122979E0
3.892399844E1,9.506522179E0,-1.329675484E1,-4.267712593E0
3.894400000E1,8.392539024E0,-1.150481892E1,-5.666098595E0
3.896402656E1,7.326209545E0,-9.940303802E0,-5.185869694E0
3.898599844E1,7.166018009E0,-9.944565773E0,-3.366621017E0
3.900600781E1,7.219485283E0,-9.910836220E0,-5.211315155E-1
3.902799844E1,7.625398636E0,-9.788368225E0,1.367654204E0
3.904799844E1,7.759243488E0,-9.393391609E0,1.267557383E0
3.906800000E1,7.667411804E0,-9.216144562E0,3.595899343E-1
3.908800156E1,7.911725521E0,-9.495298386E0,-6.525636464E-2
3.911000000E1,8.693729401E0,-9.508869171E0,6.105310321E-1
3.913000312E1,9.074158669E0,-9.451800346E0,2.063323110E-1
3.915199844E1,9.125777245E0,-9.047065735E0,-3.495343029E-1
3.917200156E1,9.358685493E0,-8.676415443E0,-3.565636575E-1
3.919400000E1,9.968842506E0,-8.253789902E0,6.177997962E-2
3.921599844E1,1.039525032E1,-7.785187721E0,4.488649219E-2
3.923599844E1,1.045642662E1,-7.851956844E0,2.769612521E-2
3.925600000E1,1.096650696E1,-8.443821907E0,2.614468336E-3
3.927800000E1,1.199024773E1,-8.770172119E0,-3.754108250E-1
3.930000000E1,1.300152016E1,-8.603046417E0,-1.020322561E0
3.932000000E1,1.301092434E1,-8.237729073E0,-1.697833776E0
3.934000000E1,1.336597538E1,-9.850148201E0,-2.323429108E0
3.936000000E1,1.334059811E1,-1.149828815E1,-2.270057678E0
3.938000000E1,1.123350811E1,-9.651180267E0,-1.086756825E0
3.940000000E1,9.444828987E0,-7.848739147E0,-2.382709533E-1
3.942000000E1,9.592330933E0,-8.567172050E0,-1.959127337E-1
3.944000000E1,1.036813831E1,-1.054485893E1,-3.130562305E-1
3.946000000E1,9.866112709E0,-1.160950279E1,-2.748447955E-1
3.948000156E1,9.018115044E0,-1.210902977E1,-4.785338640E-1
3.950000156E1,8.331324577E0,-1.203609276E1,-2.722973228E-1
3.952000312E1,8.263721466E0,-1.200589657E1,5.434071422E-1
3.954199844E1,8.404663086E0,-1.199090958E1,1.578181148E0
3.956200313E1,8.447528839E0,-1.196384430E1,2.024316549E0
3.958400000E1,8.550738335E0,-1.211099339E1,1.753896356E0
3.960400156E1,8.701581955E0,-1.264399052E1,1.251889825E0
3.962599844E1,8.079903603E0,-1.302004242E1,1.001054049E0
3.964600156E1,7.259851456E0,-1.298521233E1,1.136307240E0
3.966799844E1,6.111669064E0,-1.250260735E1,1.254140258E0
3.968800156E1,4.999456882E0,-1.152057362E1,1.669783354E0
3.971000000E1,4.327586651E0,-1.077410793E1,1.730174661E0
3.973199844E1,3.947444916E0,-1.051396465E1,1.373831272E0
3.975200000E1,3.335841417E0,-1.044749260E1,1.227775335E0
3.977200000E1,2.323706865E0,-9.950187683E0,1.442745924E0
3.979200000E1,1.133568406E0,-8.624776840E0,1.723672032E0
3.981200313E1,1.196037889E0,-8.050120354E0,1.901695371E0
3.983400000E1,2.516957283E0,-9.461627007E0,1.084056258E0
3.985400156E1,3.636466742E0,-1.191719627E1,-1.257722080E-1
3.987599844E1,2.650888920E0,-1.230095768E1,-8.655230999E-1
3.989600000E1,5.265232325E-1,-9.829260826E0,6.480625272E-2
3.991800000E1,1.846513629E0,-9.636384010E0,1.960669160E0
3.994000000E1,4.585873127E0,-1.098770046E1,2.678862810E0
3.996000000E1,5.769135475E0,-1.148832798E1,1.755505204E0
3.998000000E1,5.651905537E0,-1.119219303E1,1.533342600E-1
4.000000000E1,4.996191502E0,-1.040466404E1,-8.604090810E-1
4.002000781E1,4.636161327E0,-1.008382225E1,-1.311141491E0
4.004199844E1,4.892819405E0,-1.036938381E1,-8.895992041E-1
4.006200469E1,5.556932449E0,-1.084325314E1,1.801876277E-1
4.008400000E1,6.263212204E0,-1.107328796E1,1.186796308E0
4.010600000E1,7.236063004E0,-1.138822174E1,1.089122295E0
4.012800469E1,8.070164680E0,-1.166902351E1,6.358520985E-1
4.014999844E1,8.923362732E0,-1.196284866E1,3.767132759E-1
4.017000781E1,9.997487068E0,-1.257767105E1,3.072048128E-1
4.019001250E1,1.074029255E1,-1.277822781E1,1.503271312E-1
4.021200000E1,1.078001785E1,-1.216429710E1,1.372164935E-1
4.023400000E1,1.068136692E1,-1.162321663E1,4.540651441E-1
4.025600000E1,1.061630154E1,-1.081113243E1,1.077745080E0
4.027600000E1,1.072339916E1,-1.032705402E1,1.287649512E0
4.029799844E1,1.125863743E1,-1.004419327E1,1.358230591E0
4.031799844E1,1.170434284E1,-9.529133797E0,1.205911517E0
4.033799844E1,1.171821022E1,-8.934576035E0,1.140789241E-1
4.035800000E1,1.119573689E1,-7.924548626E0,-1.358345628E0
4.038000000E1,1.112797165E1,-7.845664978E0,-2.856225014E0
4.040000000E1,1.223684216E1,-1.008597660E1,-3.481159687E0
4.042000000E1,1.226747799E1,-1.161461735E1,-3.459870338E0
4.044000000E1,9.771205902E0,-9.611560822E0,-1.363344550E0
4.046000312E1,9.282109261E0,-9.421777725E0,3.644549549E-1
4.048200000E1,1.031925869E1,-1.178960419E1,1.370939136E0
4.050200000E1,1.057420254E1,-1.382242584E1,2.119625092E0
4.052200000E1,1.016654682E1,-1.471120071E1,2.608961582E0
4.054200625E1,9.760872841E0,-1.476928425E1,2.654623747E0
4.056401875E1,9.420177460E0,-1.499115086E1,2.376369715E0
4.058600000E1,8.582916260E0,-1.456692696E1,2.773673058E0
4.060600000E1,8.035275459E0,-1.401025581E1,3.086537838E0
4.062600469E1,8.032853127E0,-1.392982864E1,2.814633131E0
4.064800000E1,7.778368473E0,-1.387479115E1,2.157530069E0
4.066800313E1,6.799953938E0,-1.343148136E1,1.725683093E0
4.069000000E1,5.633805752E0,-1.270222664E1,1.610378385E0
4.071000000E1,4.644166946E0,-1.187706947E1,1.305261374E0
4.073200000E1,4.101344109E0,-1.093242264E1,9.798414111E-1
4.075399844E1,3.694846869E0,-1.075138283E1,4.219636917E-1
4.077400000E1,3.007414341E0,-1.039150620E1,3.833500147E-1
4.079400000E1,2.195540428E0,-1.024992180E1,3.670407236E-1
4.081600156E1,1.176932096E0,-1.015152073E1,4.912710190E-1
4.083799844E1,2.677675188E-1,-9.431239128E0,4.795298874E-1
4.085800000E1,-1.110526472E-1,-8.887084961E0,2.277173102E-1
4.088000000E1,1.227727413E0,-1.018961716E1,-4.618319273E-1
4.090000469E1,3.631515741E0,-1.343215179E1,-9.221507311E-1
4.092200000E1,3.107961178E0,-1.233185291E1,1.381205440E0
4.094200312E1,1.785490274E0,-9.832508087E0,4.527540684E0
4.096401875E1,3.638152361E0,-1.022382545E1,5.266793251E0
4.098599844E1,7.553754330E0,-1.228309727E1,3.252925396E0
4.100600000E1,9.741853714E0,-1.291491795E1,-3.572148969E-3
4.102799844E1,9.007571220E0,-1.118803692E1,-3.650649786E0
4.104799844E1,6.845223427E0,-8.781520844E0,-5.863217831E0
4.106799844E1,5.313097477E0,-8.016840935E0,-5.912787437E0
4.108799844E1,4.248759747E0,-7.075459957E0,-4.496291637E0
4.110800781E1,4.672830582E0,-8.433795929E0,-1.901235580E0
4.112999844E1,5.105577469E0,-9.127376556E0,4.117068946E-1
4.115000469E1,5.467265129E0,-9.780687332E0,1.691628098E0
4.117200000E1,6.187440872E0,-1.041092777E1,2.203996897E0
4.119200000E1,7.231284142E0,-1.145852470E1,2.245646238E0
4.121200000E1,8.182529449E0,-1.207236958E1,2.596463919E0
4.123200313E1,8.991673470E0,-1.251062298E1,2.864058971E0
4.125399844E1,9.654006004E0,-1.243939018E1,2.591531754E0
4.127400625E1,1.030871391E1,-1.196095276E1,2.152119160E0
4.129599844E1,1.107519436E1,-1.103224182E1,1.098153353E0
4.131600625E1,1.154623890E1,-1.003810215E1,-1.750640273E-1
4.133799844E1,1.197368050E1,-9.555584908E0,-2.055824518E0
4.135800000E1,1.212251377E1,-9.113824844E0,-3.493255138E0
4.138000000E1,1.163584900E1,-8.291398048E0,-4.361709118E0
4.140000000E1,1.084565735E1,-7.525665760E0,-4.509038448E0
4.142000000E1,1.074890232E1,-8.023046494E0,-3.973733187E0
4.144000156E1,1.177661800E1,-1.046801472E1,-2.919173479E0
4.146199844E1,1.171199417E1,-1.189921093E1,-1.258066773E0
4.148200156E1,1.002869797E1,-1.078864670E1,7.097467184E-1
4.150400000E1,8.792274475E0,-1.012370968E1,2.197436571E0
4.152400781E1,8.897092819E0,-1.168720913E1,2.328476191E0
4.154600000E1,8.937641144E0,-1.378232670E1,2.365461588E0
4.156800000E1,8.021811485E0,-1.448713303E1,3.128350019E0
4.159000312E1,6.784641266E0,-1.322915268E1,4.003861904E0
4.161200000E1,6.412342072E0,-1.218589211E1,4.169377804E0
4.163200000E1,6.311709404E0,-1.142400932E1,3.802547932E0
4.165400000E1,6.535260677E0,-1.092836189E1,3.087208271E0
4.167600000E1,6.726490498E0,-1.069930458E1,2.198518753E0
4.169800156E1,6.742934227E0,-1.059434319E1,1.041152120E0
4.172000000E1,6.525856495E0,-1.071658134E1,3.558166921E-1
4.174000156E1,6.101986885E0,-1.054038715E1,5.688431859E-1
4.176200000E1,6.022700787E0,-1.054203415E1,9.753785729E-1
4.178399844E1,5.969692707E0,-1.057534218E1,1.108304739E0
4.180400000E1,5.557143211E0,-1.073684597E1,8.086847067E-1
4.182600000E1,4.748573303E0,-1.092693520E1,6.510696411E-1
4.184800469E1,3.291778326E0,-1.090572262E1,7.599387765E-1
4.187000000E1,1.457503796E0,-1.042904663E1,9.490424395E-1
4.189000000E1,-7.417237014E-2,-1.048938084E1,4.541896284E-1
4.191000000E1,-2.331464052E0,-9.692695618E0,-6.105501652E-1
4.193000313E1,-2.580892086E0,-9.791231155E0,-5.073696375E-1
4.195200000E1,-1.455281973E0,-1.125802422E1,4.118697345E-1
4.197200781E1,8.447605371E-1,-1.341501808E1,1.005861521E0
4.199400000E1,5.912911892E-1,-1.121397209E1,3.313670874E0
4.201400000E1,1.857919693E0,-1.093824577E1,4.457074642E0
4.203600000E1,4.651646614E0,-1.160575867E1,3.922803640E0
4.205600313E1,7.540288925E0,-1.232846260E1,2.019020796E0
4.207800000E1,9.577409744E0,-1.254998398E1,-6.125038266E-1
4.210000000E1,9.178938866E0,-1.115653038E1,-2.659125090E0
4.212200469E1,7.867634296E0,-9.642944336E0,-3.242764235E0
4.214400000E1,7.432473660E0,-9.520399094E0,-2.946563244E0
4.216402188E1,7.057628155E0,-8.828139305E0,-3.131386042E0
4.218600000E1,6.985035419E0,-8.240459442E0,-3.322663546E0
4.220800000E1,7.540624619E0,-8.422025681E0,-2.613596678E0
4.223000625E1,7.775361538E0,-8.652922630E0,-1.930636406E0
4.225200000E1,7.647204399E0,-8.787121773E0,-8.263922334E-1
4.227200000E1,7.625982285E0,-8.810183525E0,2.204580791E-2
4.229200000E1,7.974587917E0,-9.126419067E0,6.469516158E-1
4.231200313E1,8.350334167E0,-9.220252991E0,1.081863165E0
4.233399844E1,8.948309898E0,-9.087048531E0,1.025493979E0
4.235400000E1,9.475446701E0,-8.773331642E0,6.905739903E-1
4.237400000E1,1.049732876E1,-8.795578957E0,4.659595191E-1
4.239600469E1,1.190571404E1,-8.894028664E0,1.105163470E-1
4.241799844E1,1.281576920E1,-8.667298317E0,-2.071559131E-1
4.243799844E1,1.310809135E1,-7.885102272E0,-2.923416197E-1
4.245799844E1,1.332885647E1,-7.112388134E0,-3.816740811E-1
4.247799844E1,1.407821274E1,-7.519278049E0,-3.716279864E-1
4.249800000E1,1.535043335E1,-1.014312172E1,-1.932503879E-1
4.252000312E1,1.490219116E1,-1.129748154E1,5.321448445E-1
4.254199844E1,1.130781460E1,-8.547443390E0,1.643523693E0
4.256200625E1,9.974148750E0,-9.050034523E0,1.253460288E0
4.258400000E1,9.966678619E0,-1.111077118E1,9.103041887E-1
4.260400625E1,9.369219780E0,-1.234439850E1,9.489753246E-1
4.262599844E1,8.426603317E0,-1.273612785E1,7.505056262E-1
4.264599844E1,7.793461800E0,-1.231619549E1,4.230075777E-1
4.266599844E1,7.751869678E0,-1.179115582E1,5.642080307E-1
4.268600469E1,8.125039101E0,-1.165556717E1,7.386112213E-1
4.270800000E1,8.358291626E0,-1.162466335E1,7.065672278E-1
4.272800625E1,8.352910042E0,-1.194562054E1,4.767334163E-1
4.275000000E1,7.897398949E0,-1.219194508E1,-6.806236506E-2
4.277001094E1,7.242422104E0,-1.211894131E1,-2.522435188E-1
4.279200000E1,6.648516178E0,-1.189490128E1,-1.092043296E-1
4.281200469E1,5.955346584E0,-1.139456177E1,4.244440794E-1
4.283399844E1,5.455868721E0,-1.082642651E1,8.107724786E-1
4.285399844E1,5.023159504E0,-1.050073910E1,6.576967835E-1
4.287400000E1,4.589857101E0,-1.030370617E1,1.306851059E-1
4.289400625E1,3.464716196E0,-1.024012470E1,-3.543227017E-1
4.291600000E1,1.792720795E0,-1.000272560E1,1.076816171E-1
4.293600469E1,2.446969897E-1,-9.442721367E0,9.556407928E-1
4.295799844E1,-6.947015524E-1,-8.755969048E0,8.319467902E-1
4.297799844E1,-3.314820230E-1,-9.415514946E0,1.076241508E-1
4.299800000E1,6.993846297E-1,-1.107169819E1,-5.725206733E-1
4.301800625E1,1.015352249E0,-1.183392620E1,-7.978820801E-1
4.304000000E1,2.947453856E-1,-9.592004776E0,1.108055711E0
4.306000469E1,1.680145383E0,-9.222790718E0,2.834782600E0
4.308199844E1,5.347640991E0,-1.128032875E1,2.497066259E0
4.310199844E1,7.883177280E0,-1.316625118E1,6.438008547E-1
4.312200000E1,8.798490524E0,-1.347988224E1,-1.065438986E0
4.314400625E1,8.414479256E0,-1.238185310E1,-2.260117054E0
4.316402031E1,7.824183941E0,-1.130550671E1,-2.506700516E0
4.318600000E1,7.575675964E0,-1.057290077E1,-2.136480331E0
4.320800625E1,7.768542767E0,-1.032990837E1,-1.767792344E0
4.323000000E1,7.855021477E0,-1.011018753E1,-1.296967745E0
4.325000000E1,7.811877728E0,-9.959035873E0,-5.375270247E-1
