"Time (s)","Gyroscope x (rad/s)","Gyroscope y (rad/s)","Gyroscope z (rad/s)"
2.134831250E-1,1.978156120E-1,-3.568500280E-1,-1.533271670E-1
2.354784380E-1,4.309741557E-1,-2.439970225E-1,-1.288402081E-1
2.554800000E-1,5.174028277E-1,-1.803797781E-1,-4.398229532E-3
2.754800000E-1,5.046445131E-1,-3.699574471E-1,1.310742199E-1
2.954800000E-1,2.169793248E-1,-9.958325028E-1,-1.207069680E-1
3.154800000E-1,-2.674717009E-1,-1.277703166E0,-6.001489162E-1
3.374831250E-1,-5.807059407E-1,-7.330383062E-1,-6.011263132E-1
3.594784380E-1,-3.764675260E-1,-1.897521913E-1,6.489133835E-2
3.794878130E-1,-6.651449949E-2,-1.666789502E-2,5.169141889E-1
4.014800000E-1,-7.784168236E-3,-5.576326847E-1,4.509057999E-1
4.214815630E-1,-1.644798219E-1,-9.068730474E-1,-2.897246508E-3
4.434784380E-1,-3.577401340E-1,-7.807032466E-1,-4.713959694E-1
4.634800000E-1,-3.765722513E-1,-4.557229280E-1,-6.013531685E-1
4.854800000E-1,-3.110525906E-1,-3.212453127E-1,-5.469687581E-1
5.054800000E-1,-3.193952441E-1,-4.790754318E-1,-3.382098973E-1
5.274784380E-1,-3.960151970E-1,-6.649006009E-1,-1.966462433E-1
5.474784380E-1,-4.248829484E-1,-8.591907024E-1,-1.410924196E-1
5.674800000E-1,-4.968079627E-1,-6.199933290E-1,-9.428268671E-2
5.874862500E-1,-5.639682412E-1,-2.091602534E-1,1.404990107E-1
6.094784380E-1,-5.183802247E-1,2.725157142E-1,2.954842448E-1
6.294815630E-1,-4.154581726E-1,3.950378299E-1,2.869146764E-1
6.514815630E-1,-3.765198886E-1,2.918713987E-1,8.546877652E-2
6.714862500E-1,-4.045673311E-1,2.335250564E-2,-1.201310083E-1
6.934784380E-1,-4.318642616E-1,-1.911659092E-1,-2.062630057E-1
7.134800000E-1,-4.599989653E-1,-3.904301524E-1,-2.546958923E-1
7.354784380E-1,-4.791975915E-1,-8.698022962E-1,-4.351629317E-1
7.554784380E-1,-4.342553616E-1,-1.245432019E0,-5.352575779E-1
7.754800000E-1,-4.461934268E-1,-1.215639234E0,-4.806636870E-1
7.954815630E-1,-6.707300544E-1,-9.252513647E-1,-1.443212777E-1
8.174800000E-1,-1.050374031E0,-1.413437486E0,1.892809570E-1
8.374862500E-1,-1.237071872E0,-1.422478199E0,5.076988339E-1
8.594784380E-1,-1.071213245E0,-5.759412050E-1,1.151271582E0
8.794784380E-1,-8.230274320E-1,5.689773336E-2,1.615319729E0
8.994800000E-1,-5.771978498E-1,8.298691511E-1,1.965781808E0
9.214800000E-1,-1.675167084E-1,1.869945765E0,2.403946638E0
9.414800000E-1,3.641629517E-1,1.970214963E0,2.409043074E0
9.614800000E-1,4.970174134E-1,1.889318973E-1,8.491550088E-1
9.814800000E-1,8.113511801E-1,4.053003490E-1,-4.649557173E-1
1.001480000E0,1.415706396E0,8.117526025E-2,-6.241646409E-1
1.021480000E0,1.753829002E0,-1.516987801E0,-5.550670624E-1
1.041480000E0,1.640225530E0,-2.904210329E0,-3.163409233E-1
1.061480000E0,1.631882787E0,-2.635237694E0,-1.661204398E-1
1.081480000E0,1.519204378E0,-1.927559018E0,-1.080707833E-1
1.101480000E0,1.275870562E0,-1.709445238E0,-1.898918152E-1
1.121480000E0,1.122997165E0,-1.721261144E0,-2.454980165E-1
1.141480000E0,8.870286942E-1,-1.289571404E0,-9.660397470E-2
1.161483125E0,4.355120063E-1,4.936489165E-1,2.966187000E-1
1.183480000E0,-1.733635515E-1,8.680220246E-1,4.251098335E-1
1.203480000E0,-2.770710289E-1,3.475299478E-1,2.090904415E-1
1.225478438E0,7.592182141E-3,5.962044746E-2,2.182883322E-1
1.245480000E0,-1.368338149E-2,9.744696617E-1,6.401867867E-1
1.265498750E0,-1.483878940E-1,1.458885789E0,9.527577758E-1
1.287478438E0,6.412339956E-2,1.410365701E0,8.925439119E-1
1.307480000E0,-9.869837016E-2,6.759310961E-1,2.799507976E-1
1.327486250E0,-4.106410742E-1,-5.697278380E-1,-3.368485570E-1
1.349480000E0,-3.039839864E-1,-1.192566037E0,-3.237585723E-1
1.369484688E0,7.860963047E-2,-9.885021448E-1,3.574434295E-2
1.391478438E0,2.955191433E-1,-5.737071633E-1,4.303109348E-1
1.411480000E0,1.944122314E-1,-4.366813898E-1,3.687357008E-1
1.431481563E0,7.827802002E-2,-4.011290073E-1,1.243547052E-1
1.453480000E0,-6.138322875E-2,-2.186024934E-1,-1.909041107E-1
1.473480000E0,-2.476447672E-1,2.311863154E-1,-3.111398518E-1
1.493484688E0,-4.752880633E-1,4.383918047E-1,-5.148372054E-1
1.515480000E0,-3.942873180E-1,4.819203019E-1,-4.557578266E-1
1.535481563E0,-8.311257511E-2,2.651154995E-1,-3.245614171E-1
1.557478438E0,3.615798652E-1,6.813765317E-2,-3.061830997E-1
1.577478438E0,4.820599258E-1,1.955641359E-1,-3.232698739E-1
1.597480000E0,3.942175210E-1,7.594276667E-1,-3.776543438E-1
1.617487813E0,2.991494238E-1,6.190333962E-1,-1.700299680E-1
1.639478438E0,4.990769029E-1,2.956064045E-1,-1.691747606E-1
1.659481563E0,7.459886074E-1,-2.146929502E-1,-1.960179210E-1
1.681480000E0,7.754672170E-1,-4.744153917E-1,-3.309493363E-1
1.701480000E0,6.573607922E-1,-3.034080267E-1,-4.011115730E-1
1.721480000E0,4.231027067E-1,-3.326073885E-1,-1.563465893E-1
1.741490938E0,1.738871485E-1,-6.801547855E-2,2.661627159E-2
1.763480000E0,-4.607669264E-2,2.797588110E-1,8.290314116E-3
1.783487813E0,1.764353365E-1,3.525564969E-1,-7.110471278E-2
1.805480000E0,6.503620148E-1,-7.476990670E-2,-1.805194020E-1
1.825481563E0,7.348708510E-1,-5.020614266E-1,-1.443561763E-1
1.847478438E0,2.114466429E-1,-6.529800296E-1,-1.041961536E-1
1.867492500E0,-2.492679209E-1,-2.683443725E-1,-6.122614816E-2
1.889478438E0,-1.456826329E-1,5.285031199E-1,1.117359772E-1
1.909480000E0,2.426705807E-1,5.017123222E-1,2.570346296E-1
1.931480000E0,3.078237176E-1,6.838200241E-2,2.699675262E-1
1.953478438E0,1.032013148E-1,-1.120152324E-1,2.143962383E-1
1.973480000E0,-2.211332135E-2,-5.991715193E-2,1.819854826E-1
1.993480000E0,-7.703883201E-2,2.893406749E-1,2.923077345E-1
2.013480000E0,-6.328564137E-2,6.838200092E-1,4.794768393E-1
2.033483125E0,9.424777701E-3,6.487563252E-1,5.529901385E-1
2.055478438E0,1.171115935E-1,-3.570943773E-1,4.603655040E-1
2.075486250E0,4.841543362E-2,-9.154077172E-1,2.520255446E-1
2.097480000E0,-8.733627200E-2,-7.758163214E-1,2.079036236E-1
2.117483125E0,-3.118379712E-1,-2.200685591E-1,1.314232945E-1
2.139478438E0,-5.934991837E-1,5.567425489E-1,-3.089232743E-2
2.159480000E0,-7.120245099E-1,4.974188209E-1,-1.383173466E-1
2.181480000E0,-7.667406201E-1,8.175121993E-2,-6.072000414E-2
2.201480000E0,-6.740636230E-1,-1.339365691E-1,5.707226694E-3
2.221480000E0,-4.161562920E-1,1.112472862E-1,-3.378957510E-2
2.241480000E0,-1.530304700E-1,1.188569218E-1,2.124065720E-2
2.261480000E0,3.040363453E-2,7.422885299E-2,9.571385384E-2
2.281495625E0,2.400874943E-1,1.722989082E-1,2.064200938E-1
2.303478438E0,6.017197371E-1,5.673367381E-1,4.175176620E-1
2.323480000E0,9.000488520E-1,5.147674084E-1,3.905872405E-1
2.343480000E0,9.561786056E-1,-1.612160653E-1,1.136732921E-1
2.365505000E0,3.934146762E-1,-9.020559788E-1,-1.794372946E-1
2.385508125E0,2.705260413E-3,-5.511575341E-1,-1.890540570E-1
2.407486250E0,5.312782153E-2,-3.173008561E-2,-6.318091601E-2
2.429480000E0,2.381501794E-1,-5.459389836E-2,2.853613347E-2
2.449483125E0,2.229483575E-1,-2.059663087E-1,-3.211405827E-3
2.471480000E0,1.059240326E-1,-2.472782433E-1,-5.747369304E-2
2.493478438E0,3.846705705E-2,-2.093522400E-1,-1.078962535E-1
2.513480000E0,-9.948376566E-3,-2.364223003E-1,-1.646718085E-1
2.533480000E0,-1.634326279E-1,-1.889144331E-1,-2.328443676E-1
2.553480000E0,-2.394591719E-1,-5.422737822E-2,-2.688330710E-1
2.573483125E0,-8.070402592E-2,2.047271281E-2,-1.937664598E-1
2.595478438E0,1.672548950E-1,-9.150761366E-2,-2.427753061E-2
2.615480000E0,1.833992004E-1,-2.748544514E-1,5.223770440E-2
2.635480000E0,7.257079333E-2,-2.468768209E-1,4.267330095E-2
2.655487813E0,1.394867152E-1,-1.017177850E-1,1.448623277E-2
2.677480000E0,2.630734742E-1,-7.853981806E-4,-3.888593614E-2
2.697483125E0,2.572266161E-1,1.138827354E-1,-1.528908405E-2
2.719478438E0,1.610589772E-1,1.442165524E-1,3.382448107E-2
2.739484688E0,1.098684743E-1,1.181587875E-1,7.773696631E-2
2.761480000E0,1.628043056E-1,1.349139493E-2,1.199564785E-1
2.781486250E0,2.940007150E-1,-1.765749604E-1,1.457873583E-1
2.803478438E0,5.292187333E-1,-1.037249193E-1,1.060636565E-1
2.823480000E0,6.961769462E-1,2.255663574E-1,-5.007349700E-2
2.845481563E0,7.130717039E-1,5.528854132E-1,-4.850269854E-2
2.865498750E0,1.512851417E-1,3.294483423E-1,8.260643482E-2
2.887480000E0,-6.213197708E-1,-3.743731230E-2,1.380380839E-1
2.909480000E0,-5.535835028E-1,2.990796268E-1,1.163087413E-1
2.929486250E0,1.299921274E-1,7.131240964E-1,2.939308882E-1
2.951480000E0,6.957231164E-1,5.084143877E-1,3.866078854E-1
2.971486250E0,6.776415110E-1,-6.422811747E-2,3.877947032E-1
2.993480000E0,1.942027807E-1,-5.440365672E-1,3.890338838E-1
3.013487813E0,-2.061233819E-1,-4.376238585E-1,3.968704045E-1
3.035478438E0,-1.573588848E-1,-5.427974090E-2,3.995756805E-1
3.055483125E0,1.610066295E-1,1.521403491E-1,3.538480401E-1
3.077478438E0,3.892084360E-1,-3.279473633E-2,3.295879662E-1
3.097480000E0,3.666064143E-1,-2.699326277E-1,3.295530677E-1
3.119480000E0,2.593908310E-1,-2.760761678E-1,3.651228845E-1
3.141480000E0,1.403942853E-1,-1.422617882E-1,3.364471197E-1
3.161481563E0,-1.605702913E-3,4.975933582E-2,2.716779411E-1
3.181481563E0,-1.952325255E-1,1.118406951E-1,2.040115297E-1
3.203478438E0,-2.992192507E-1,5.139994621E-2,1.074599251E-1
3.223480000E0,-3.167248964E-1,4.607669078E-3,4.773475602E-2
3.243480000E0,-3.655592203E-1,-3.689625859E-2,-8.429939859E-3
3.263487813E0,-4.891110659E-1,-1.064127237E-1,-9.293878078E-2
3.285480000E0,-6.741508842E-1,-1.728225052E-1,-1.377064735E-1
3.307480000E0,-6.760009527E-1,-2.370680720E-1,-8.883725852E-2
3.329484688E0,-3.481233716E-1,-6.524040550E-2,9.477137588E-3
3.351480000E0,-7.038912922E-2,1.738173366E-1,6.983062625E-2
3.371487813E0,-3.885626495E-1,-1.907470375E-1,7.380997390E-2
3.393480000E0,-1.056063771E0,-6.785316467E-1,2.567379177E-1
3.413483125E0,-8.143531680E-1,-3.914424479E-1,3.525564969E-1
3.435480000E0,1.725432426E-1,2.998475730E-2,3.246137798E-1
3.457480000E0,7.199832201E-1,-2.246762365E-1,1.659808159E-1
3.479484688E0,4.573111832E-1,-4.377460182E-1,-1.429948211E-1
3.501480000E0,-1.648288965E-1,-3.506191969E-1,-4.785692692E-1
3.521480000E0,-5.490282178E-1,4.461061582E-2,-5.527108908E-1
3.541480000E0,-6.858794689E-1,2.537010610E-1,-6.186144948E-1
3.561486250E0,-6.252990961E-1,2.332632542E-1,-5.663244128E-1
3.583478438E0,-3.672347367E-1,3.563962504E-2,-3.528008461E-1
3.603480000E0,3.844960406E-2,-1.948485523E-1,-1.607448310E-1
3.623480000E0,3.164805472E-1,-3.932226896E-1,-6.382668763E-2
3.645487813E0,3.403566480E-1,-4.050211012E-1,-5.297074094E-2
3.665498750E0,2.180439830E-1,-2.109579444E-1,-1.503950208E-1
3.687478438E0,1.610938832E-2,-8.114035428E-2,-2.249903977E-1
3.707480000E0,-2.328967303E-1,-2.771582827E-2,-2.923949957E-1
3.727481563E0,-5.382944345E-1,8.799950033E-2,-3.176848292E-1
3.749478438E0,-7.246432304E-1,2.728822231E-1,-3.716329634E-1
3.769484688E0,-6.617939472E-1,4.288099408E-1,-4.262268543E-1
3.791480000E0,-3.925245404E-1,4.775569737E-1,-3.634124696E-1
3.811484688E0,-1.821076572E-1,3.295181692E-1,-3.044552207E-1
3.833480000E0,-8.140215278E-2,-6.298892945E-2,-4.310614169E-1
3.853483125E0,-8.213519305E-2,-3.210183978E-1,-5.017297864E-1
3.875478438E0,-3.267954588E-1,-7.022157907E-1,-3.326597512E-1
3.895480000E0,-9.351823330E-1,-7.899185419E-1,-4.960225895E-2
3.915480000E0,-1.143714309E0,-6.363121271E-1,1.130624264E-1
3.935486250E0,-4.561766982E-1,-2.278701812E-1,1.093099713E-1
3.957480000E0,4.177271128E-1,-1.047197584E-4,1.521927118E-1
3.977483125E0,6.091897488E-1,-2.623578906E-1,1.923876405E-1
3.999478438E0,5.774596334E-1,-6.701191664E-1,1.404640973E-1
4.019483125E0,5.430068374E-1,-7.969522476E-1,1.515294909E-1
4.041480000E0,5.345768929E-1,-5.206142664E-1,4.232946932E-1
4.061480000E0,8.752302527E-1,-4.949928224E-1,6.660699844E-1
4.081480000E0,1.516638756E0,-7.130891681E-1,6.404660344E-1
4.101484688E0,2.059226751E0,-1.292364001E0,3.917216957E-1
4.123478438E0,2.479519367E0,-1.529466867E0,-8.656833321E-2
4.143484688E0,2.453601360E0,-1.302574158E0,-5.032656789E-1
4.165498750E0,2.227127314E0,-8.120493293E-1,-1.189127684E0
4.187480000E0,1.999990225E0,-5.355368257E-1,-1.650226235E0
4.207480000E0,1.840816259E0,-1.183891773E0,-1.917418718E0
4.227483125E0,1.694243431E0,-2.043815374E0,-2.050849199E0
4.249478438E0,1.888707995E0,-2.034390688E0,-2.210511923E0
4.269480000E0,2.445293427E0,-1.873471260E0,-2.166494608E0
4.291480000E0,2.435502291E0,-1.789381385E0,-1.885566473E0
4.311480000E0,1.806171417E0,-1.320725560E0,-1.524405479E0
4.333480000E0,1.470300317E0,-6.255260110E-1,-1.340186000E0
4.355480000E0,1.367360711E0,-5.955063552E-2,-1.183944106E0
4.377480000E0,6.030112505E-1,-3.560471535E-2,-5.795540214E-1
4.399478438E0,-8.677776903E-2,2.460914198E-3,-1.795071065E-1
4.419478438E0,-3.412118554E-2,1.521228999E-1,-9.327039123E-2
4.439478438E0,3.878470659E-1,-1.347394194E-2,2.378883772E-2
4.459481563E0,4.432612658E-1,-2.188817412E-1,2.005383372E-1
4.481480000E0,-8.686503768E-2,-1.803623289E-1,2.370680720E-1
4.501489375E0,-5.998871326E-1,1.733111963E-2,2.269800752E-1
4.523478438E0,-7.290763855E-1,1.196248680E-1,2.377836555E-1
4.543480000E0,-6.686182022E-1,9.068730474E-2,2.322684228E-1
4.565498750E0,-5.757142901E-1,-7.400196046E-3,2.043955028E-1
4.587480000E0,-4.161388576E-1,-4.921828583E-2,1.887224466E-1
4.607480000E0,-1.524370611E-1,-1.388583928E-1,1.427504718E-1
4.629478438E0,5.401793867E-2,-4.471533373E-2,2.298598550E-2
4.649483125E0,8.677776903E-2,1.471312530E-2,-1.053306237E-1
4.671480000E0,2.544690110E-2,-6.665412337E-2,-1.820029318E-1
4.691486250E0,-3.623303398E-2,-3.958406672E-2,-7.801621407E-2
4.713480000E0,-9.691813588E-2,1.299572140E-1,7.543312758E-2
4.733483125E0,-2.252521962E-1,2.803173363E-1,1.505520940E-1
4.755480000E0,-2.458994389E-1,4.230852723E-1,1.694365591E-1
4.775486250E0,-8.616690338E-2,4.538030624E-1,1.400277615E-1
4.797478438E0,8.552113432E-4,4.132241607E-1,9.634217620E-2
4.817480000E0,-2.221280485E-1,4.041833580E-1,7.890633494E-2
4.839480000E0,-5.860990286E-1,4.445353448E-1,1.156629696E-1
4.861480000E0,-6.511125565E-1,6.581811309E-1,1.288402081E-1
4.881480000E0,-4.341855645E-1,6.691766977E-1,2.149547487E-1
4.901480000E0,-4.236263037E-1,1.952325255E-1,3.376339376E-1
4.921480000E0,-7.469136715E-1,-6.866125017E-2,3.138800263E-1
4.941484688E0,-9.177464843E-1,2.446602583E-1,2.304881811E-1
4.963480000E0,-7.709293962E-1,5.431115627E-1,2.830225825E-1
4.983481563E0,-5.389227867E-1,5.370727181E-1,4.706105888E-1
5.005480000E0,-1.942202449E-1,4.261744916E-1,6.099925637E-1
5.027480000E0,2.723062634E-1,3.421019912E-1,6.335021853E-1
5.049481563E0,7.491651177E-1,2.892359495E-1,5.558175445E-1
5.071480000E0,9.801245332E-1,2.174156606E-1,4.737696350E-1
5.091483125E0,1.014490128E0,2.547831535E-1,4.224569499E-1
5.113480000E0,9.399121404E-1,3.146654069E-1,3.201980889E-1
5.133480000E0,7.868991494E-1,4.312883019E-1,2.529505789E-1
5.155480000E0,5.504419208E-1,6.394013762E-1,1.802052408E-1
5.175480000E0,2.752384245E-1,8.236033916E-1,1.345823407E-1
5.197487813E0,-2.277480066E-1,9.495638013E-1,2.376789302E-1
5.219478438E0,-9.024050236E-1,1.171569705E0,3.158347905E-1
5.239480000E0,-1.560376763E0,1.491540909E0,3.937637210E-1
5.259480000E0,-2.353524208E0,1.592071891E0,5.391147733E-1
5.279480000E0,-2.971370697E0,1.808963895E0,6.210230589E-1
5.301480000E0,-3.228160858E0,1.806188822E0,6.769259572E-1
5.321480000E0,-2.940146685E0,1.533097267E0,8.357160091E-1
5.341480000E0,-2.516729832E0,1.224889517E0,9.462651610E-1
5.361480000E0,-2.290779591E0,7.201228738E-1,9.998292923E-1
5.381484688E0,-2.879705906E0,-2.972295694E-2,9.504539371E-1
5.403480000E0,-4.121996403E0,-5.040685534E-1,7.754323483E-1
5.423484688E0,-4.237694263E0,2.148849368E-1,6.126105785E-1
5.445478438E0,-3.351346254E0,9.919927716E-1,4.557403624E-1
5.465498750E0,-2.802632332E0,8.297469616E-1,3.855606914E-1
5.487478438E0,-2.291320562E0,6.147049740E-2,1.685988009E-1
5.507478438E0,-1.594986558E0,-6.737145185E-1,9.211847931E-2
5.527480000E0,-1.175182581E0,-8.263610601E-1,2.068215236E-2
5.547483125E0,-1.199442625E0,-3.753156066E-1,-1.286831200E-1
5.569478438E0,-1.121391535E0,1.236565784E-1,-3.157126009E-1
5.589481563E0,-7.173826694E-1,1.917593181E-1,-4.366813898E-1
5.611478438E0,-3.143337965E-1,9.131562710E-2,-4.491430223E-1
5.631480000E0,-1.047721133E-1,1.181587856E-2,-3.946014941E-1
5.651480000E0,1.043881401E-1,-4.845033959E-2,-3.038443625E-1
5.671483125E0,3.004584312E-1,-7.857472450E-2,-2.019520402E-1
5.693480000E0,4.389677644E-1,-2.216044515E-1,-1.525417715E-1
5.713481563E0,5.597270727E-1,-3.904999793E-1,-2.371029854E-1
5.735478438E0,7.011685967E-1,-3.428175747E-1,-3.256260753E-1
5.755483125E0,7.961319089E-1,-5.956808850E-2,-2.995683253E-1
5.777478438E0,8.556476831E-1,4.476245940E-1,-6.642723083E-2
5.797478438E0,8.986700177E-1,6.052627563E-1,1.045975834E-1
5.817480000E0,8.978497386E-1,4.927588105E-1,1.652826816E-1
5.837487813E0,8.367108107E-1,2.847679257E-1,6.780604273E-2
5.859478438E0,1.036481261E0,4.629485905E-1,1.888620704E-1
5.879484688E0,8.966105580E-1,4.791452289E-1,1.653175801E-1
5.901480000E0,1.841845959E-1,-8.995427191E-2,5.796238407E-2
5.921487813E0,-1.037772745E-1,-1.714087874E-1,-4.747295752E-3
5.943478438E0,2.376091182E-1,2.068389654E-1,3.900810704E-2
5.963481563E0,6.342002749E-1,2.525666058E-1,1.142841578E-1
5.985509688E0,7.375063300E-1,-1.830850355E-2,1.030093357E-1
6.007478438E0,6.802420616E-1,-5.377359316E-2,8.726646006E-2
6.027480000E0,6.799628139E-1,1.887573600E-1,1.341634542E-1
6.049480000E0,7.977027297E-1,5.145579576E-1,2.407856286E-1
6.071480000E0,7.620456815E-1,4.523195326E-1,1.859473735E-1
6.091480000E0,7.568969131E-1,3.256609738E-1,1.578824818E-1
6.111480000E0,6.420891881E-1,1.387536712E-2,1.057320461E-1
6.131480000E0,5.567425489E-1,6.824237294E-3,7.810348272E-2
6.151480000E0,4.131194353E-1,1.346696019E-1,3.173008561E-2
6.171486250E0,2.361779511E-1,2.631433010E-1,-1.380555425E-2
6.193480000E0,2.526364028E-1,3.946538568E-1,-6.167993695E-2
6.213480000E0,4.044626057E-1,3.944095075E-1,-6.300638616E-2
6.233480000E0,3.903603256E-1,2.058092207E-1,-4.729842395E-2
6.253487813E0,1.841845959E-1,5.258677155E-2,-1.278104633E-1
6.275480000E0,1.939060725E-2,-6.129596382E-2,-2.441191971E-1
6.295483125E0,-6.522295624E-2,-1.912706345E-1,-2.665466964E-1
6.315483125E0,-1.807812005E-1,-2.281668931E-1,-2.184454054E-1
6.335487813E0,-2.257757932E-1,-7.641051710E-2,-1.574636102E-1
6.357478438E0,-1.604481190E-1,-1.867502369E-2,-2.093173414E-1
6.377483125E0,-3.818082213E-1,-6.077934504E-1,-3.299545050E-1
6.399478438E0,-1.069590092E0,-1.109697819E0,-4.689699709E-1
6.419484688E0,-9.927607179E-1,-5.869367719E-1,-3.917391598E-1
6.441480000E0,-9.054768085E-2,1.439896673E-1,-8.037241548E-2
6.461483125E0,4.189139307E-1,-1.354724616E-1,1.106189713E-1
6.483478438E0,2.750289738E-1,-6.929655075E-1,-5.592034757E-2
6.503478438E0,-1.478817463E-1,-8.203570843E-1,-3.663271666E-1
6.523478438E0,-4.279896319E-1,-4.331558049E-1,-5.617167354E-1
6.543483125E0,-4.429296553E-1,1.238311082E-1,-5.831494331E-1
6.565498750E0,-2.638414204E-1,4.379205704E-1,-5.095837712E-1
6.587478438E0,-5.735151842E-2,3.247185051E-1,-4.701044261E-1
6.607480000E0,7.681193948E-2,1.554041207E-1,-3.872711062E-1
6.627481563E0,1.425759494E-1,3.406882659E-2,-2.926219106E-1
6.649478438E0,1.437802166E-1,-3.989822790E-2,-1.848129183E-1
6.669483125E0,1.244419739E-1,-1.087689176E-1,-1.536762416E-1
6.691480000E0,1.044405028E-1,-1.966113448E-1,-1.255938858E-1
6.713480000E0,9.836675972E-2,-2.160368562E-1,-2.628465928E-2
6.733480000E0,8.740609139E-2,-1.891064197E-1,1.097113937E-1
6.753480000E0,5.951572582E-2,-7.305948436E-2,2.519731820E-1
6.775480000E0,-5.626941472E-2,1.923003793E-1,3.765896857E-1
6.795480000E0,-1.566083878E-1,3.565358520E-1,4.451113045E-1
6.817480000E0,-1.776221544E-1,3.042109013E-1,5.320112705E-1
6.839480000E0,-1.579173952E-1,1.314058453E-1,5.294456482E-1
6.859481563E0,-1.818109453E-1,2.507688999E-1,4.977853596E-1
6.881480000E0,-3.876550794E-1,5.866225958E-1,5.218883753E-1
6.901481563E0,-8.280016184E-1,1.199390292E-1,4.696157277E-1
6.923478438E0,-6.430316567E-1,-4.276580215E-1,4.847477376E-1
6.943486250E0,1.610938832E-2,-3.074572086E-1,5.153957009E-1
6.965498750E0,2.811550796E-1,-1.923527420E-1,5.547180176E-1
6.987478438E0,9.815731645E-2,-2.894977629E-1,5.582435727E-1
7.007478438E0,9.990264475E-2,-3.400250375E-1,4.454254806E-1
7.027478438E0,1.890715212E-1,-2.608394623E-1,3.469365537E-1
7.047478438E0,3.366391063E-1,-5.297074094E-2,3.411595225E-1
7.067478438E0,4.867548645E-1,1.522276103E-1,3.881088495E-1
7.087478438E0,5.602506995E-1,2.015855312E-1,4.239579141E-1
7.107478438E0,5.206665993E-1,9.229300916E-2,3.948807418E-1
7.127478438E0,4.682194889E-1,-9.079203010E-2,2.907718420E-1
7.147478438E0,4.468566477E-1,-1.614080518E-1,2.062979192E-1
7.167486250E0,3.637266159E-1,-1.026777178E-1,1.244943365E-1
7.189480000E0,2.008699477E-1,5.550147034E-3,2.773328125E-2
7.209483125E0,6.914994121E-2,4.618141055E-2,-7.480481267E-2
7.231480000E0,2.888519876E-2,6.684610993E-2,-1.309345961E-1
7.253480000E0,6.981316954E-3,-9.808750823E-3,-9.358455241E-2
7.275481563E0,-7.328637689E-2,-1.735555381E-1,-2.340486459E-2
7.297478438E0,-1.493303776E-1,-2.829004228E-1,-1.211258490E-2
7.317480000E0,-2.301565707E-1,-3.970798552E-1,3.921754658E-2
7.339480000E0,-3.514395058E-1,-4.735601842E-1,7.981390506E-2
7.361480000E0,-2.836509049E-1,-3.166201711E-1,1.250877529E-1
7.381480000E0,-4.625122622E-2,-6.565928459E-2,2.239606529E-1
7.401480000E0,-1.687733382E-1,-2.503325641E-1,2.541199327E-1
7.421480000E0,-8.936783671E-1,-1.023565769E0,-4.537856206E-2
7.441484688E0,-1.247543931E0,-1.134446502E0,-3.356268108E-1
7.463480000E0,-5.897293091E-1,-4.524067938E-1,-2.685538232E-1
7.483481563E0,1.544790864E-1,1.164309159E-1,1.989675313E-2
7.505480000E0,3.208787739E-1,8.218755573E-2,1.269901544E-1
7.527480000E0,2.276607454E-1,-1.526639462E-1,-5.942846090E-2
7.549484688E0,6.609562039E-2,-1.986882836E-1,-2.703863978E-1
7.571480000E0,-1.203928143E-1,6.394886225E-2,-3.804643154E-1
7.591480000E0,-1.978156120E-1,2.259328663E-1,-4.081626832E-1
7.613480000E0,-1.618792862E-1,2.093173414E-1,-3.789633512E-1
7.635480000E0,-7.197737694E-2,1.471312493E-1,-3.615275025E-1
7.655480000E0,2.120575123E-2,1.322610527E-1,-3.163758218E-1
7.677480000E0,3.806563094E-2,1.273915768E-1,-2.313084900E-1
7.699480000E0,-2.640683204E-2,-3.902556375E-2,-1.539031267E-1
7.721480000E0,-1.025380939E-1,-2.703514993E-1,-9.482374042E-2
7.741480000E0,-2.220756859E-1,-3.260624111E-1,-7.801621407E-2
7.761480000E0,-3.133738637E-1,-1.289623827E-1,-4.361577705E-2
7.781484688E0,-3.224146664E-1,1.338492930E-1,5.370378122E-2
7.803480000E0,-3.161838353E-1,2.466324717E-1,1.765225977E-1
7.823480000E0,-3.293261826E-1,1.843591332E-1,2.661103606E-1
7.843480000E0,-3.083473146E-1,4.991641734E-3,2.482556254E-1
7.863480000E0,-2.046049535E-1,-6.590363383E-2,1.731541157E-1
7.885478438E0,1.544267386E-1,2.473131567E-1,2.179567218E-1
7.905486250E0,6.418448091E-1,7.126528621E-1,3.902207017E-1
7.927478438E0,6.810798049E-1,9.290387630E-1,5.134758353E-1
7.947480000E0,8.274605870E-2,3.479313850E-1,2.856580317E-1
7.967480000E0,-3.375641406E-1,-1.513025910E-1,1.333431527E-2
7.989484688E0,-2.231927067E-1,-3.916518763E-2,-1.117185280E-1
8.011480000E0,-1.080533341E-1,1.409178823E-1,-7.012733072E-2
8.031487813E0,-1.816364080E-1,2.110103145E-2,-4.281292483E-2
8.053480000E0,-1.174781099E-1,-2.061408311E-1,-1.244768798E-1
8.073480000E0,7.415904105E-2,-1.746376455E-1,-1.310393214E-1
8.093480000E0,3.735004663E-1,1.035329327E-1,4.555309191E-3
8.113480000E0,7.468612790E-1,3.195174336E-1,1.613556892E-1
8.135480000E0,1.072661877E0,2.828655243E-1,2.778913081E-1
8.155487813E0,1.186073422E0,1.826312542E-1,3.175277412E-1
8.177480000E0,1.066832542E0,3.316125646E-2,2.655344009E-1
8.197481563E0,8.559967279E-1,-9.442231059E-2,1.441118419E-1
8.219480000E0,5.947034955E-1,-2.071705833E-2,-2.462659590E-2
8.239480000E0,3.923849165E-1,7.257079333E-2,-1.572367102E-1
8.261480000E0,2.559700012E-1,4.555309191E-3,-2.299296707E-1
8.281480000E0,1.719672978E-1,-1.280024499E-1,-2.845933735E-1
8.301480000E0,7.946483791E-2,-2.842268646E-1,-3.617194891E-1
8.321480000E0,-1.286307629E-2,-3.316823840E-1,-4.525115192E-1
8.341480000E0,-7.185520232E-2,-1.221206859E-1,-4.372049868E-1
8.361480000E0,-1.662949771E-1,1.884955615E-1,-3.549999595E-1
8.381480000E0,-2.811550796E-1,4.275358617E-1,-3.383844197E-1
8.401480000E0,-4.034154117E-1,5.977403522E-1,-3.581241071E-1
8.421483125E0,-6.792646646E-1,5.601459742E-1,-3.191683590E-1
8.443478438E0,-1.342699289E0,-1.226966456E-1,-3.067066967E-1
8.463483125E0,-1.834550500E0,-3.175452054E-1,-3.831870258E-1
8.485478438E0,-1.226215959E0,2.352878302E-1,-3.095515966E-1
8.505481563E0,-1.380380839E-1,4.265061021E-1,-3.857177496E-2
8.527480000E0,3.069859743E-1,-2.914525270E-1,-1.993165910E-2
8.549480000E0,5.401793867E-2,-7.722907662E-1,-4.697902799E-1
8.571484688E0,-4.674864411E-1,-4.058588743E-1,-9.839817286E-1
8.593478438E0,-8.151735067E-1,2.626371384E-1,-1.121775508E0
8.613483125E0,-7.441560030E-1,4.398578703E-1,-1.049710870E0
8.635480000E0,-4.258079827E-1,1.542696506E-1,-9.295274615E-1
8.655480000E0,-1.291369051E-1,-1.883210242E-1,-8.460832834E-1
8.677480000E0,3.028146178E-2,-2.994984984E-1,-7.422710657E-1
8.699478438E0,2.881538495E-2,-2.148325741E-1,-6.447770000E-1
8.719478438E0,-2.391101094E-3,-1.419825405E-1,-5.656611919E-1
8.739478438E0,-9.215338156E-3,-1.529257447E-1,-5.153433681E-1
8.759478438E0,-9.494591504E-3,-2.819579542E-1,-4.794594049E-1
8.779480000E0,-6.333799660E-2,-3.650356233E-1,-4.069933295E-1
8.801480000E0,-2.246587873E-1,-3.104940653E-1,-2.953097224E-1
8.821480000E0,-4.185648561E-1,-1.271995902E-1,-1.975014508E-1
8.841480000E0,-5.903401375E-1,4.256857932E-2,-7.124433666E-2
8.861484688E0,-6.125233173E-1,1.716705859E-1,5.913175642E-2
8.883478438E0,-4.712738097E-1,1.594532728E-1,1.670803726E-1
8.903480000E0,-4.328241944E-1,-1.392772794E-1,1.871342063E-1
8.925480000E0,-3.352079391E-1,-2.824989855E-1,2.411696017E-1
8.945483125E0,-2.303485572E-1,-7.122688740E-2,3.172484934E-1
8.965501875E0,-3.248755932E-1,-7.993607782E-3,3.825412691E-1
8.987478438E0,-2.863387167E-1,-1.002691686E-1,4.383569062E-1
9.007478438E0,1.456128210E-1,-1.253844500E-1,4.868595898E-1
9.027480000E0,4.847128391E-1,-1.418254524E-1,5.409473181E-1
9.049480000E0,4.973664880E-1,-2.316226512E-1,5.714731812E-1
9.069483125E0,3.985633850E-1,-2.743133903E-1,4.960225821E-1
9.091480000E0,3.602184951E-1,-5.326744914E-2,4.331209064E-1
9.111487813E0,5.072973967E-1,2.199289352E-1,4.595626295E-1
9.133480000E0,8.002508879E-1,2.406110913E-1,5.178566575E-1
9.153480000E0,1.032973170E0,1.234820411E-1,5.378057361E-1
9.173480000E0,1.105107546E0,2.691297606E-2,4.993212521E-1
9.193486250E0,1.048244715E0,-1.218239777E-2,4.701742530E-1
9.215480000E0,9.262811542E-1,-1.567305624E-2,3.976383507E-1
9.235480000E0,7.995353341E-1,-7.922049612E-2,2.620437443E-1
9.257478438E0,7.235437036E-1,-1.624726951E-1,3.216641769E-2
9.277483125E0,6.336243153E-1,-1.147379428E-1,-1.242499873E-1
9.299478438E0,4.519879222E-1,-1.968731359E-2,-1.436056942E-1
9.319478438E0,2.604380250E-1,5.724680051E-2,-1.568352878E-1
9.339478438E0,1.344601661E-1,9.091419727E-2,-2.182010561E-1
9.359483125E0,2.057743259E-2,-2.241002768E-2,-2.604031265E-1
9.381480000E0,-1.160294861E-1,-2.553765774E-1,-2.320415229E-1
9.401483125E0,-1.635548025E-1,-2.016029805E-1,-2.759365439E-1
9.423478438E0,-1.069014147E-1,2.849599123E-1,-4.264537394E-1
9.443486250E0,7.278022822E-3,6.266604662E-1,-4.616744816E-1
9.465501875E0,-3.035825789E-1,3.205471635E-1,-3.920533061E-1
9.487478438E0,-1.053585410E0,-1.589820385E-1,-4.225442111E-1
9.507478438E0,-7.754672170E-1,3.526088595E-1,-3.574085236E-1
9.527480000E0,3.383320868E-1,6.853209734E-1,-1.626297832E-1
9.549480000E0,1.062626243E0,1.567305624E-1,7.941248268E-2
9.571478438E0,1.175147653E0,-4.022983909E-1,1.858601123E-1
9.591483125E0,1.015380144E0,-5.337740183E-1,2.155481651E-2
9.613509688E0,6.091722846E-1,-2.770186663E-1,-2.340486497E-1
9.635480000E0,1.739395112E-1,7.532840967E-2,-4.668930173E-1
9.655480000E0,5.592034757E-2,2.955889702E-1,-5.420643687E-1
9.675487813E0,2.033832222E-1,3.383146226E-1,-4.818854034E-1
9.697478438E0,3.307747841E-1,2.541722953E-1,-3.905174136E-1
9.717483125E0,3.232000768E-1,2.228785455E-1,-3.770260215E-1
9.739478438E0,2.951351739E-2,3.243868947E-1,-4.224394858E-1
9.759480000E0,-1.529257447E-1,3.884055614E-1,-4.070980549E-1
9.781480000E0,-9.875072539E-2,3.670951128E-1,-3.783699274E-1
9.801480000E0,-6.049311161E-2,3.048566580E-1,-4.410272539E-1
9.821480000E0,-5.209807679E-2,1.925621778E-1,-4.528431296E-1
9.841483125E0,-2.445206232E-2,2.381152660E-1,-3.330786228E-1
9.863480000E0,2.963569015E-2,3.969751298E-1,-1.712691635E-1
9.883483125E0,1.027998924E-1,5.976705551E-1,-5.586798862E-2
9.905478438E0,2.559176385E-1,5.830621123E-1,8.475318551E-2
9.925553438E0,3.108431399E-1,3.096388578E-1,1.618967354E-1
9.947480000E0,3.585080802E-1,2.168920636E-1,1.988104582E-1
9.967480000E0,4.203101993E-1,4.523369670E-1,1.917069703E-1
9.987480000E0,2.711194456E-1,6.059259772E-1,2.508561611E-1
1.000748625E1,-2.649933398E-1,2.563888580E-2,1.936093718E-1
1.002947844E1,-5.945464373E-1,-2.349213213E-1,1.595230959E-2
1.004948000E1,-2.350783944E-1,2.452187538E-1,6.213372201E-2
1.007147844E1,1.807986498E-1,6.246358752E-1,3.076840937E-1
1.009148000E1,9.454448521E-2,3.537433445E-1,3.374070525E-1
1.011148000E1,-1.525766850E-1,1.968731359E-2,2.546609938E-1
1.013148000E1,-2.432116270E-1,-9.112364054E-2,2.378185689E-1
1.015148000E1,-1.729097664E-1,4.885176569E-2,2.948559225E-1
1.017348625E1,-8.051203936E-2,2.136981189E-1,3.436727822E-1
1.019548000E1,4.715879634E-2,1.224348471E-1,3.508635461E-1
1.021548156E1,1.478293836E-1,1.874483563E-2,3.469714522E-1
1.023748000E1,1.159596741E-1,-1.481784508E-2,3.371627033E-1
1.025947844E1,3.054326214E-2,-2.354449220E-2,2.966012657E-1
1.027948000E1,-1.221730490E-4,1.774999872E-2,2.284461409E-1
1.029948312E1,2.207841538E-2,4.796164855E-2,1.698728949E-1
1.032148000E1,4.408701509E-2,-2.104867063E-2,1.295383424E-1
1.034148000E1,6.656685472E-2,-7.002261281E-2,1.102175415E-1
1.036148000E1,1.091005281E-1,-6.696828455E-2,1.269203424E-1
1.038148000E1,1.457524449E-1,-8.393288404E-2,1.368338168E-1
1.040148000E1,1.690700501E-1,-9.772098809E-2,1.356644481E-1
1.042348312E1,1.328893751E-1,-1.627519578E-1,1.674992442E-1
1.044547844E1,1.362927556E-1,-1.621410809E-2,2.838603556E-1
1.046550188E1,1.181936935E-1,2.060535699E-1,3.391698301E-1
1.048747844E1,2.234021388E-2,3.462035060E-1,3.057118654E-1
1.050747844E1,-1.054527909E-1,-1.308124214E-1,1.584758908E-1
1.052748000E1,-6.822317243E-1,-5.958902836E-1,8.691739291E-3
1.054748469E1,-9.372243285E-1,-4.872784615E-1,-1.267109066E-1
1.056947844E1,-3.212976754E-1,3.359758854E-1,1.260825843E-1
1.058948156E1,3.120474219E-1,4.524242580E-1,3.588222265E-1
1.061147844E1,4.085815847E-1,2.022836544E-2,3.130247891E-1
1.063148625E1,9.470156580E-2,-2.754478753E-1,1.354026496E-1
1.065348000E1,-3.018372357E-1,-1.265363693E-1,-5.176646635E-2
1.067348000E1,-4.686034620E-1,1.122944802E-1,-1.593660116E-1
1.069348000E1,-3.699399829E-1,1.894729435E-1,-1.477421224E-1
1.071348000E1,-1.533620805E-1,2.727949619E-2,-5.016076192E-2
1.073348000E1,3.478441015E-2,-1.388758421E-1,8.761552721E-2
1.075348000E1,1.353502870E-1,-7.951720059E-2,1.469392627E-1
1.077348000E1,1.257335246E-1,1.189616397E-1,1.273043156E-1
1.079348000E1,7.201228291E-2,1.388758421E-1,1.069886833E-1
1.081348000E1,5.396557972E-2,-6.670648605E-2,1.006356850E-1
1.083547844E1,7.117452472E-2,-2.180963457E-1,7.099999487E-2
1.085548781E1,4.040437192E-2,-1.710946262E-1,5.988224596E-2
1.087748000E1,8.726646192E-4,-2.975786291E-2,1.385965943E-1
1.089748000E1,8.328711241E-2,9.560913593E-2,2.203652710E-1
1.091948000E1,2.122494876E-1,9.836675972E-2,2.251474708E-1
1.094148000E1,2.408030778E-1,5.230751634E-2,1.596278101E-1
1.096148000E1,1.504997462E-1,9.250245057E-4,3.447025269E-2
1.098148000E1,9.834930301E-2,-4.834562074E-3,-8.183848858E-2
1.100148000E1,1.878846884E-1,1.223301291E-1,-1.652303189E-1
1.102148469E1,3.030764163E-1,6.336243153E-1,-7.436847687E-2
1.104348000E1,-2.340486459E-2,5.096012354E-1,1.136383861E-1
1.106549875E1,-5.341405869E-1,-2.992716134E-1,9.211847931E-2
1.108748000E1,-2.255314440E-1,-3.917915225E-1,1.658062823E-2
1.110947844E1,2.828131616E-1,1.936791837E-1,1.160294861E-1
1.112948625E1,2.329665422E-1,2.058964968E-1,1.668011099E-1
1.115148000E1,-6.836454570E-2,3.195697814E-2,6.012659147E-2
1.117148312E1,-2.017600536E-1,9.314822406E-2,-1.148426626E-2
1.119348000E1,-9.412560612E-2,3.106686175E-1,3.686135262E-2
1.121348000E1,5.298819765E-2,4.067838788E-1,1.251226515E-1
1.123547844E1,7.297221571E-2,3.947062194E-1,2.432639897E-1
1.125547844E1,-3.933972120E-2,1.751263440E-1,3.408453465E-1
1.127547844E1,-5.288347602E-2,-1.309520602E-1,3.661002517E-1
1.129548312E1,7.801621407E-2,-2.776644230E-1,2.866528630E-1
1.131748000E1,9.557422996E-2,-1.431868076E-1,1.518611014E-1
1.133748312E1,-4.511675984E-2,4.822344705E-2,6.457718462E-2
1.135947844E1,-9.470156580E-2,1.810255498E-1,1.474803220E-2
1.137947844E1,-5.092870817E-2,1.687035263E-1,-1.518436475E-3
1.139947844E1,-1.469567232E-2,3.378957510E-2,1.562069636E-2
1.141948781E1,5.318018049E-2,-1.781457514E-1,2.853613347E-2
1.144148000E1,1.089085415E-1,-3.479837477E-1,2.513274178E-2
1.146148469E1,6.089453772E-2,-4.216017425E-1,5.096361507E-3
1.148348000E1,1.616174914E-2,-2.727949619E-1,6.129596382E-2
1.150348469E1,6.243042648E-2,-7.740534842E-2,1.668534726E-1
1.152547844E1,2.828305960E-1,1.270599663E-1,1.906423122E-1
1.154548000E1,3.082251549E-1,3.780383244E-2,9.054768085E-2
1.156549875E1,-2.978753448E-1,-5.052379370E-1,-4.518657550E-2
1.158748000E1,-7.984008789E-1,-4.619188309E-1,-1.595056355E-1
1.160748000E1,-3.960675597E-1,-8.159413934E-2,-9.311331809E-2
1.162748313E1,2.065946162E-1,4.961971194E-2,1.753357798E-1
1.164948000E1,3.417878151E-1,-2.097187638E-1,2.508736253E-1
1.167148000E1,1.104793400E-1,-2.155830711E-1,8.262388408E-2
1.169348312E1,-1.426283121E-1,7.960446924E-2,-7.377506793E-2
1.171548000E1,-1.731890142E-1,3.590840399E-1,-8.531169593E-2
1.173548781E1,-1.352630183E-2,4.131368995E-1,-9.848892689E-2
1.175747844E1,1.114567220E-1,2.938087285E-1,-1.131147891E-1
1.177747844E1,6.396631896E-2,1.338318437E-1,-8.681267500E-2
1.179749719E1,-4.241149873E-3,3.150319308E-2,-6.824237108E-2
1.181947844E1,-1.726130582E-2,-1.825614460E-2,-6.920230389E-2
1.183947844E1,-2.426007576E-2,-5.012585595E-2,-8.765043318E-2
1.185948000E1,-6.593853980E-2,-7.285004109E-2,-8.025024086E-2
1.187948000E1,-1.371479779E-1,-7.421139628E-2,-1.016305238E-1
1.190148469E1,-2.795319259E-1,2.963569015E-2,-1.019097716E-1
1.192152375E1,-3.866427839E-1,1.143365204E-1,-7.730063051E-2
1.194348000E1,-4.136604965E-1,1.252273768E-1,-5.686282739E-2
1.196348000E1,-3.671998084E-1,2.096489519E-1,-1.895427518E-2
1.198348781E1,-3.253119290E-1,2.489537597E-1,4.406956211E-2
1.200548000E1,-2.453758419E-1,1.460491568E-1,7.970918715E-2
1.202548313E1,-1.519832760E-1,-1.103048120E-2,3.323106840E-2
1.204747844E1,-1.229409948E-1,-5.976007506E-2,-1.410226058E-2
1.206748312E1,-1.640260369E-1,6.003932562E-3,4.223696887E-2
1.208947844E1,-4.092797041E-1,-7.424630970E-2,6.921976060E-2
1.210948469E1,-4.264188409E-1,-3.184353113E-1,3.851941600E-2
1.213148000E1,-6.148795038E-2,-1.352455616E-1,7.295475900E-2
1.215148000E1,2.581691146E-1,1.441118419E-1,2.185152173E-1
1.217348000E1,1.748645306E-1,1.320167035E-1,2.952049971E-1
1.219348000E1,-1.677610427E-1,-1.288576573E-1,2.014808059E-1
1.221348000E1,-3.700796068E-1,-2.160368562E-1,2.256710641E-2
1.223547844E1,-2.790781558E-1,-6.435029209E-2,-3.836233541E-2
1.225547844E1,-2.754129469E-2,1.069014147E-1,2.583087236E-2
1.227547844E1,1.199913844E-1,1.318247169E-1,7.784168422E-2
1.229548000E1,1.843242198E-1,3.691371530E-2,8.649851382E-2
1.231748000E1,3.166725338E-1,-7.733553648E-2,9.232791513E-2
1.233948000E1,3.644596636E-1,-1.282991469E-1,8.513715863E-2
1.236148000E1,2.298947722E-1,-2.006081492E-1,2.904227935E-2
1.238148000E1,1.147030368E-1,-3.152762651E-1,-9.768607467E-2
1.240148000E1,7.813838869E-2,-4.579918385E-1,-2.330712676E-1
1.242148000E1,3.574434295E-2,-5.951747298E-1,-2.932153046E-1
1.244148000E1,1.640609466E-3,-8.049807549E-1,-2.653424144E-1
1.246148000E1,-6.602580845E-2,-7.918558717E-1,-2.694264650E-1
1.248148000E1,-2.658310831E-1,-7.185695171E-1,-2.520255446E-1
1.250148000E1,-5.606521368E-1,-8.318239450E-1,-2.820102870E-1
1.252148000E1,-8.227307796E-1,-8.241444826E-1,-3.045250475E-1
1.254148156E1,-8.514763117E-1,-5.881236196E-1,-2.583436370E-1
1.256348000E1,-5.962044597E-1,-3.290643692E-1,-2.036624700E-1
1.258547844E1,-3.480710089E-1,-1.089958102E-1,1.213003788E-2
1.260547844E1,-6.052801609E-1,-8.855102658E-1,-1.298350394E-1
1.262547844E1,-1.178847790E0,-1.683631897E0,-5.145056248E-1
1.264548000E1,-1.138460755E0,-1.002394915E0,-7.896044254E-1
1.266550500E1,-5.013458133E-1,-5.881759338E-3,-5.068784952E-1
1.268748000E1,1.792104095E-1,2.983640432E-1,-1.427155733E-1
1.270748781E1,4.274834991E-1,-2.109753937E-1,-1.444958150E-1
1.272947844E1,3.448596001E-1,-7.380822897E-1,-2.887298167E-1
1.274947844E1,8.192575723E-2,-4.956735075E-1,-4.248305857E-1
1.276948000E1,-1.814269722E-1,6.405358203E-3,-4.335048795E-1
1.279148000E1,-3.670951128E-1,1.999274641E-1,-4.270820618E-1
1.281348000E1,-2.535788715E-1,4.475024343E-2,-4.092797041E-1
1.283348000E1,-6.675884128E-2,-1.105666086E-1,-3.811450005E-1
1.285348000E1,-4.475024343E-2,-3.088011146E-1,-2.902831733E-1
1.287348312E1,-1.476373971E-1,-2.789036185E-2,-1.770461947E-1
1.289547844E1,-3.596076369E-1,6.363470107E-2,-3.183480725E-2
1.291547844E1,-5.935166478E-1,-1.050688233E-2,1.940806210E-2
1.293548000E1,-6.743952036E-1,-1.942551434E-1,-8.918632753E-3
1.295748000E1,-6.922499537E-1,-1.992642432E-1,-6.225589290E-2
1.297947844E1,-7.925016284E-1,1.099382862E-1,-7.283259183E-2
1.299948000E1,-7.735299468E-1,3.871663809E-1,4.310963303E-2
1.302148000E1,-5.323603153E-1,4.869119525E-1,2.067167908E-1
1.304148000E1,-3.638313413E-1,4.796688259E-1,3.500432372E-1
1.306148000E1,-3.245788813E-1,3.603755832E-1,3.410722315E-1
1.308148000E1,-2.917841375E-1,4.080928862E-1,3.306526244E-1
1.310148000E1,-2.362303138E-1,6.342526674E-1,3.591364026E-1
1.312148000E1,-2.121447772E-1,8.959996700E-1,4.294207990E-1
1.314148000E1,-4.624773562E-1,6.054547429E-1,4.280943573E-1
1.316148156E1,-5.716302395E-1,3.303908184E-2,3.194127083E-1
1.318148313E1,-1.836784482E-1,-1.992991418E-1,2.094569653E-1
1.320347844E1,2.068564296E-1,-3.295181692E-2,1.265538186E-1
1.322348000E1,2.108008713E-1,1.631708294E-1,2.191784531E-1
1.324548000E1,7.862707973E-2,2.349038571E-1,3.624525368E-1
1.326549719E1,-2.094394993E-3,1.667138487E-1,3.219957948E-1
1.328748156E1,6.614797562E-2,7.602654397E-2,1.951801628E-1
1.330947844E1,4.296651483E-1,1.989675313E-2,2.759365439E-1
1.332948313E1,8.462228775E-1,-2.220058739E-1,4.435579777E-1
1.335148000E1,1.276167274E0,-9.022828341E-1,4.802971482E-1
1.337148625E1,1.616523981E0,-1.851288199E0,3.268827200E-1
1.339348000E1,1.561877728E0,-2.767079830E0,1.978679746E-1
1.341348156E1,1.351408482E0,-3.077312231E0,2.011317462E-1
1.343548000E1,1.287529349E0,-3.338308811E0,2.727600634E-1
1.345548469E1,1.175496697E0,-3.415958405E0,3.024131954E-1
1.347747844E1,8.656833321E-3,-2.828026772E0,1.854935884E-1
1.349747844E1,-1.525522470E0,-1.997267485E0,2.141519077E-2
1.351749562E1,-2.475819349E0,-1.537355781E0,8.203047328E-4
1.353947844E1,-2.660352945E0,-1.615878224E0,9.450957924E-2
1.355948000E1,-2.515630245E0,-2.074742794E0,2.950304449E-1
1.357948156E1,-2.603577375E0,-2.343610764E0,4.631929398E-1
1.360148000E1,-2.812667847E0,-2.559437990E0,5.116258264E-1
1.362148000E1,-3.141505480E0,-2.830051422E0,6.118600965E-1
1.364347844E1,-3.710360527E0,-3.100228310E0,9.042725563E-1
1.366348000E1,-4.753107548E0,-3.635695457E0,1.344793677E0
1.368348000E1,-5.426752090E0,-4.256840706E0,1.891762376E0
1.370348469E1,-5.077930927E0,-4.716577530E0,2.658852100E0
1.372548000E1,-3.927339792E0,-5.250805378E0,3.554415464E0
1.374548313E1,-2.505961180E0,-5.457889080E0,4.026736259E0
1.376549719E1,-1.070427895E0,-5.338770390E0,4.145837784E0
1.378748469E1,2.642952204E-1,-4.922840595E0,3.995023727E0
1.380947844E1,9.585523009E-1,-4.244535923E0,3.748251677E0
1.382948156E1,9.799674749E-1,-3.282964230E0,3.508408546E0
1.385147844E1,7.161085606E-1,-2.236395121E0,3.296560526E0
1.387148000E1,6.272014976E-1,-1.447069883E0,3.273452282E0
1.389148000E1,5.745449066E-1,-7.829896212E-1,3.273714066E0
1.391148469E1,4.235565066E-1,-2.007826716E-1,3.226694822E0
1.393347844E1,1.100779176E-1,2.562317848E-1,3.134262323E0
1.395348469E1,-1.763306111E-1,4.144458771E-1,2.961928368E0
1.397547844E1,-4.111472070E-1,3.202330172E-1,2.640316725E0
1.399548000E1,-5.272639394E-1,2.094395168E-4,2.328653097E0
1.401749562E1,-4.890238047E-1,-3.300417662E-1,2.099037647E0
1.403947844E1,-3.198839426E-1,-5.916840434E-1,1.906039119E0
1.405948000E1,-5.916666240E-2,-7.182728052E-1,1.522206306E0
1.408148000E1,2.931455076E-1,-6.973288655E-1,8.281063437E-1
1.410148156E1,5.500579476E-1,-5.729392171E-1,-7.824310660E-2
1.412348000E1,8.114559054E-1,-4.582012892E-1,-1.222830057E0
1.414548000E1,1.168620110E0,-3.944793046E-1,-2.249781847E0
1.416549875E1,1.597499847E0,-4.180761576E-1,-2.953219175E0
1.418747844E1,2.198381901E0,-5.397256017E-1,-3.445803642E0
1.420747844E1,2.625376701E0,-8.302705884E-1,-3.650094271E0
1.422748781E1,2.607033253E0,-1.190558910E0,-3.746628523E0
1.424947844E1,2.148290873E0,-1.575910091E0,-3.893515348E0
1.426948000E1,1.636647582E0,-1.926285028E0,-4.039023399E0
1.429147844E1,1.156298041E0,-2.285944939E0,-4.132730007E0
1.431148000E1,8.198858500E-1,-2.544026852E0,-4.102500916E0
1.433148312E1,5.760284662E-1,-2.686375856E0,-4.025741577E0
1.435148313E1,4.701393247E-1,-2.718891382E0,-4.021675110E0
1.437348000E1,2.498787940E-1,-2.298895359E0,-3.954427481E0
1.439348000E1,-1.085245758E-1,-1.600746155E0,-3.982282877E0
1.441348000E1,-4.461759627E-1,-9.336289763E-1,-4.010033607E0
1.443548000E1,-6.176196337E-1,-5.579643250E-1,-3.870913267E0
1.445748000E1,-6.539399624E-1,-4.083546698E-1,-3.628626823E0
1.447948000E1,-6.239901185E-1,-2.936865389E-1,-3.353719950E0
1.449948000E1,-6.672393680E-1,-1.231155246E-1,-3.050259590E0
1.452148000E1,-7.010114789E-1,1.808161102E-2,-2.806384802E0
1.454148000E1,-7.136301994E-1,1.331686229E-1,-2.706394911E0
1.456148000E1,-6.252816319E-1,2.152689099E-1,-2.598760366E0
1.458148000E1,-4.518308342E-1,1.459793448E-1,-2.404976368E0
1.460148781E1,-2.428451180E-1,1.185602173E-1,-2.012975454E0
1.462348000E1,1.076868176E-2,1.833992004E-1,-1.346748352E0
1.464548000E1,1.935919225E-1,1.499063224E-1,-6.196442246E-1
1.466549875E1,2.664943337E-1,1.791580468E-1,-3.869394958E-2
1.468747844E1,2.864608765E-1,1.868724078E-1,4.138350189E-1
1.470747844E1,9.386380762E-2,2.385166883E-1,8.482300043E-1
1.472747844E1,-1.752310544E-1,2.871590257E-1,1.726409912E0
1.474748000E1,-2.197893113E-1,3.180164397E-1,2.707668781E0
1.476748312E1,-4.846779257E-2,3.755075932E-1,3.399883986E0
1.478947844E1,7.435102481E-3,5.239478350E-1,3.706136942E0
1.480948000E1,-1.521752626E-1,6.104463339E-1,3.756297588E0
1.483147844E1,-4.673642516E-1,6.891607046E-1,3.931546211E0
1.485147844E1,-7.889062762E-1,7.028964758E-1,4.282618999E0
1.487148000E1,-1.085716963E0,7.395309210E-1,4.623219967E0
1.489148469E1,-1.412058592E0,7.478037477E-1,4.856448650E0
1.491348000E1,-1.773778081E0,7.067710757E-1,5.065259457E0
1.493348156E1,-1.872685909E0,6.174625754E-1,5.294595718E0
1.495547844E1,-1.610013843E0,5.510178804E-1,5.467906952E0
1.497548000E1,-1.214347720E0,4.683940113E-1,5.405598640E0
1.499548000E1,-8.832936883E-1,3.793298602E-1,5.120953083E0
1.501548313E1,-4.802971482E-1,2.637890577E-1,4.656922340E0
1.503748000E1,1.046150327E-1,1.663298719E-2,4.067873955E0
1.505748625E1,5.075591803E-1,-2.155656219E-1,3.487953186E0
1.507947844E1,6.344620585E-1,-2.566855848E-1,2.745333195E0
1.509948156E1,5.577374101E-1,-4.747295752E-3,1.964455366E0
1.512148000E1,3.651577830E-1,4.393168390E-1,1.059170485E0
1.514148156E1,2.278003693E-1,7.641400695E-1,4.302062094E-1
1.516347844E1,2.736676335E-1,7.610508204E-1,5.136504024E-2
1.518347844E1,4.137826562E-1,4.831071496E-1,-1.395216137E-1
1.520347844E1,5.508608222E-1,4.747295380E-2,-3.515791297E-1
1.522348625E1,6.029937863E-1,-4.296651483E-1,-7.462678552E-1
1.524547844E1,7.254635692E-1,-8.510050774E-1,-1.327898860E0
1.526549875E1,8.181056380E-1,-1.190000415E0,-1.791877151E0
1.528747844E1,7.459362745E-1,-1.459217429E0,-2.320519924E0
1.530748469E1,5.082922578E-1,-1.516359448E0,-2.803138494E0
1.532947844E1,2.177123725E-1,-1.404239535E0,-3.378922462E0
1.534948000E1,9.965830296E-2,-1.260022998E0,-3.843075275E0
1.537148000E1,5.407030135E-2,-1.121251822E0,-4.140915871E0
1.539148469E1,4.321435094E-2,-1.073272824E0,-4.205475330E0
1.541348000E1,7.726572454E-2,-1.075070500E0,-4.154057980E0
1.543548000E1,2.122320384E-1,-1.037842631E0,-4.064557552E0
1.545548312E1,3.695211112E-1,-8.513715863E-1,-3.966522455E0
1.547747844E1,4.591612220E-1,-5.432337523E-1,-3.755965948E0
1.549748781E1,4.205719829E-1,-2.772106528E-1,-3.516314745E0
1.551749406E1,2.837730944E-1,-1.023112014E-1,-3.264516115E0
1.553948469E1,7.553785294E-2,-8.021533489E-2,-3.039316416E0
1.556148000E1,-1.159422249E-1,-1.790009737E-1,-2.862566948E0
1.558148000E1,-2.630036771E-1,-2.876477242E-1,-2.704823971E0
1.560148000E1,-3.085393012E-1,-3.715980351E-1,-2.530325890E0
1.562148938E1,-2.802649736E-1,-4.226663709E-1,-2.317919493E0
1.564348000E1,-2.392148226E-1,-3.741811514E-1,-2.032069445E0
1.566348312E1,-2.606823742E-1,-2.024232894E-1,-1.747231603E0
1.568547844E1,-3.611609936E-1,5.363396928E-2,-1.461748123E0
1.570548469E1,-3.848101795E-1,3.323106766E-1,-1.143469930E0
1.572747844E1,-1.583886296E-1,4.858298600E-1,-6.615670323E-1
1.574748156E1,1.896125674E-1,4.871214032E-1,-1.611986160E-1
1.576948000E1,4.134685099E-1,3.396061659E-1,4.670501053E-1
1.578948469E1,1.707630157E-1,1.422443390E-1,1.179825068E0
1.581148000E1,-2.974041104E-1,-1.049117446E-1,2.059471130E0
1.583148000E1,-2.409776151E-1,-2.100503743E-1,2.679883242E0
1.585148469E1,2.283588797E-1,-2.152165473E-1,2.963516712E0
1.587148469E1,5.628512502E-1,-2.048667520E-1,2.923827887E0
1.589348000E1,5.558524728E-1,-5.967280641E-2,2.784410954E0
1.591355500E1,2.794621289E-1,1.921432912E-1,2.850855589E0
1.593548000E1,-2.745926380E-1,5.103167892E-1,3.041340828E0
1.595548312E1,-8.727169633E-1,9.046041369E-1,3.180094719E0
1.597747844E1,-1.261838078E0,1.250528455E0,3.349478722E0
1.599748000E1,-1.192356586E0,1.379560590E0,3.574678659E0
1.601749563E1,-7.326892018E-1,1.269011497E0,3.810647249E0
1.603947844E1,-1.123293936E-1,9.960768819E-1,4.014309406E0
1.605948000E1,2.345897108E-1,6.616542935E-1,4.046755314E0
1.607948312E1,4.003087282E-1,3.702017963E-1,3.963311195E0
1.610148000E1,4.283387065E-1,1.755801290E-1,3.778027058E0
1.612148156E1,2.953795195E-1,2.530727349E-2,3.514604330E0
1.614347844E1,7.993607968E-2,-5.981243402E-2,3.215332747E0
1.616348000E1,2.085668407E-2,-1.111425683E-1,2.927527905E0
1.618348000E1,5.707226694E-2,-1.547757983E-1,2.541216850E0
1.620348312E1,6.897541136E-2,-9.539970011E-2,1.980128407E0
1.622548000E1,1.745329238E-2,1.427504718E-1,1.270477533E0
1.624548625E1,-1.424188633E-2,4.765272439E-1,6.656685472E-1
1.626549875E1,3.588397056E-2,7.064743638E-1,1.295557916E-1
1.628748625E1,1.632406414E-1,7.424281836E-1,-3.907094002E-1
1.630947844E1,3.377561271E-1,5.164952874E-1,-8.959124088E-1
1.632947844E1,5.481032133E-1,1.284911335E-1,-1.306605816E0
1.634948000E1,6.020338535E-1,-4.219857156E-1,-1.694365621E0
1.637148000E1,2.153910846E-1,-1.032467008E0,-2.310030460E0
1.639149719E1,-2.643650174E-1,-1.426579714E0,-2.965052605E0
1.641348000E1,-5.884726644E-1,-1.647904992E0,-3.515023232E0
1.643548000E1,-6.945188642E-1,-1.635984421E0,-3.701267481E0
1.645548000E1,-6.328563690E-1,-1.523288488E0,-3.677967310E0
1.647748781E1,-4.081103504E-1,-1.388042927E0,-3.743713856E0
1.649948000E1,-1.396961510E-1,-1.118110299E0,-4.015828133E0
1.651948625E1,1.347394194E-2,-7.038389444E-1,-4.316897392E0
1.654148000E1,5.373868719E-2,-2.176774591E-1,-4.473610401E0
1.656148156E1,-1.418952644E-2,1.567654759E-1,-4.403011799E0
1.658347844E1,-1.010545641E-1,3.925943673E-1,-4.124265194E0
1.660348000E1,-1.875356287E-1,4.331558049E-1,-3.813526869E0
1.662348000E1,-2.646791935E-1,3.664493263E-1,-3.480814934E0
1.664348312E1,-3.115063608E-1,2.720270157E-1,-3.232262611E0
1.666549875E1,-5.560444593E-1,3.401472270E-1,-3.076701403E0
1.668747844E1,-7.982961535E-1,5.565505624E-1,-2.907474279E0
1.670747844E1,-6.857049465E-1,5.886297226E-1,-2.610663414E0
1.672748313E1,-2.845584750E-1,4.347440600E-1,-2.187909842E0
1.674947844E1,1.194503307E-1,1.301317513E-1,-1.750739813E0
1.676948000E1,3.092199862E-1,-4.537856206E-3,-1.326485157E0
1.678948312E1,3.125361204E-1,7.347836345E-2,-8.230274320E-1
1.680948625E1,4.438372329E-2,2.451140434E-1,-1.598721594E-1
1.683148000E1,-5.229006410E-1,2.500009537E-1,9.015498161E-1
1.685148781E1,-1.188429594E0,9.656906873E-2,2.008978605E0
1.687347844E1,-1.491436243E0,-2.317797244E-1,3.153827429E0
1.689348000E1,-9.131213427E-1,-6.084741354E-1,4.029476643E0
1.691348000E1,1.385616958E-1,-9.477312565E-1,4.537541866E0
1.693348938E1,1.062538981E0,-1.124166608E0,4.572727680E0
1.695547844E1,1.570901036E0,-1.055051565E0,4.303772449E0
1.697548000E1,1.470055938E0,-7.546803951E-1,4.131368637E0
1.699548000E1,9.571385384E-1,-2.906496823E-1,4.176694870E0
1.701548000E1,2.224247605E-1,3.025179207E-1,4.356725693E0
1.703747844E1,-4.143760800E-1,1.018225074E0,4.497277260E0
1.705747844E1,-5.502499342E-1,1.485414863E0,4.363986492E0
1.707747844E1,-3.921580315E-1,1.747859955E0,3.990607977E0
1.709748000E1,-1.926668882E-1,1.743706107E0,3.660287142E0
1.711748312E1,-7.843509316E-2,1.566816926E0,3.473676443E0
1.713948000E1,9.843657166E-2,1.216058135E0,3.269385576E0
1.715948312E1,2.719222903E-1,7.319736481E-1,3.007132530E0
1.718148000E1,2.600191534E-1,3.039839864E-1,2.688592434E0
1.720148000E1,1.640085876E-1,3.368485346E-2,2.416059256E0
1.722148000E1,1.838355362E-1,-1.325577497E-1,2.169618845E0
1.724148156E1,3.184702396E-1,-2.085668445E-1,1.884781003E0
1.726348000E1,4.148298502E-1,-1.598547101E-1,1.515347242E0
1.728348469E1,4.175874889E-1,1.743583940E-2,1.101966023E0
1.730547844E1,3.602534235E-1,2.039940804E-1,5.651550889E-1
1.732548625E1,2.554114759E-1,2.401922047E-1,2.563888580E-2
1.734747844E1,1.024508253E-1,1.225395650E-1,-6.088231802E-1
1.736747844E1,2.698278986E-2,-4.251622036E-2,-1.305017591E0
1.738748000E1,-2.506292798E-2,-2.265611887E-1,-1.932987094E0
1.740748156E1,-1.612684131E-2,-4.056145251E-1,-2.284932613E0
1.742948000E1,8.709193207E-3,-6.255608797E-1,-2.663337469E0
1.744948156E1,-5.335471407E-2,-8.539023399E-1,-3.113562584E0
1.747148000E1,-1.908517480E-1,-1.119593859E0,-3.638138771E0
1.749148625E1,-2.975088358E-1,-1.313552260E0,-3.945805550E0
1.751348000E1,-3.840771616E-1,-1.468886495E0,-3.967220545E0
1.753348781E1,-3.291167319E-1,-1.526063561E0,-3.847333908E0
1.755547844E1,-1.291543692E-1,-1.484838843E0,-3.803369045E0
1.757548000E1,4.667010531E-2,-1.294947028E0,-3.881769419E0
1.759748000E1,1.378984600E-1,-8.984780312E-1,-3.964061499E0
1.761748000E1,1.079311594E-1,-4.996528625E-1,-3.973608494E0
1.763948000E1,3.368485486E-3,-2.037497312E-1,-3.904493570E0
1.766148000E1,-1.229759008E-1,-7.124433666E-2,-3.783210516E0
1.768148000E1,-2.897595465E-1,4.391248524E-2,-3.680201292E0
1.770148000E1,-5.216789246E-1,2.246587873E-1,-3.544170380E0
1.772148000E1,-7.318514585E-1,4.832118452E-1,-3.345045567E0
1.774148000E1,-8.807454705E-1,7.512769699E-1,-3.068498135E0
1.776148000E1,-8.943765163E-1,1.022012472E0,-2.865341902E0
1.778148312E1,-7.747865319E-1,1.206964970E0,-2.568723202E0
1.780348000E1,-6.677106023E-1,1.161080241E0,-2.075562954E0
1.782348000E1,-7.988197207E-1,9.204168320E-1,-1.396176100E0
1.784348000E1,-1.070096254E0,5.206142664E-1,-5.530075431E-1
1.786550188E1,-1.177311897E0,1.941504180E-1,3.594505489E-1
1.788748000E1,-1.412093520E0,7.126179338E-2,1.224714994E0
1.790952375E1,-1.587760925E0,-4.958829582E-1,2.224457026E0
1.793148938E1,-8.301483989E-1,-9.009389281E-1,3.259367466E0
1.795348000E1,4.487590492E-1,-1.127151132E0,3.953222990E0
1.797348000E1,1.269569993E0,-1.059449792E0,4.103007317E0
1.799348000E1,1.540061116E0,-6.838200092E-1,4.059827805E0
1.801348469E1,1.390276909E0,-1.869073063E-1,4.204533100E0
1.803547844E1,1.015886307E0,3.563613296E-1,4.489580154E0
1.805548000E1,6.286152601E-1,7.498632669E-1,4.717816830E0
1.807548000E1,2.920284867E-1,1.033915639E0,4.735392570E0
1.809748312E1,1.845511198E-1,1.105980277E0,4.475425720E0
1.811948000E1,-6.941174716E-2,9.939475656E-1,4.180290222E0
1.813948312E1,-4.623551667E-1,9.675930738E-1,4.103600502E0
1.816148000E1,-7.826754451E-1,8.266053796E-1,4.139589310E0
1.818148156E1,-7.986626625E-1,5.138598084E-1,4.074069500E0
1.820348000E1,-7.134556770E-1,1.023810133E-1,3.811938763E0
1.822548000E1,-5.726076365E-1,-2.095267773E-1,3.450323820E0
1.824748313E1,-3.248406649E-1,-3.597297966E-1,3.041340828E0
1.826948000E1,-6.176720187E-2,-3.602184951E-1,2.562143326E0
1.829148000E1,4.888667166E-2,-1.139176413E-1,2.017635584E0
1.831148000E1,5.536184460E-2,2.753605843E-1,1.466041684E0
1.833348000E1,8.381070942E-2,6.519502997E-1,8.342150450E-1
1.835548469E1,1.360658705E-1,8.377580643E-1,2.306801677E-1
1.837747844E1,1.714436859E-1,6.509205699E-1,-3.402693868E-1
1.839748000E1,2.287079394E-1,3.824889064E-1,-9.636660814E-1
1.841748000E1,2.509085238E-1,1.605179310E-1,-1.622318387E0
1.843947844E1,3.555410206E-1,-4.139921069E-2,-2.095582008E0
1.845947844E1,5.296027064E-1,-3.738844395E-1,-2.462816715E0
1.847948156E1,5.361825824E-1,-7.492175102E-1,-2.967339039E0
1.850148000E1,3.833441138E-1,-1.157764196E0,-3.600142956E0
1.852148469E1,2.414837480E-1,-1.507458329E0,-4.126289845E0
1.854348000E1,1.231155246E-1,-1.761909842E0,-4.431565285E0
1.856549875E1,3.136356547E-2,-1.826905966E0,-4.428092480E0
1.858748156E1,6.044075266E-2,-1.770653963E0,-4.329969883E0
1.860947844E1,1.940806061E-1,-1.607029319E0,-4.331959724E0
1.862948312E1,2.728124261E-1,-1.361566305E0,-4.427533627E0
1.865148000E1,2.602111399E-1,-1.002185464E0,-4.423781395E0
1.867148156E1,2.209237814E-1,-7.310311794E-1,-4.323093414E0
1.869348000E1,2.184977680E-1,-5.862735510E-1,-4.088241577E0
1.871348000E1,1.986533701E-1,-5.818927884E-1,-3.817820549E0
1.873348000E1,1.045975834E-1,-5.602506995E-1,-3.576825380E0
1.875348469E1,-1.028347984E-1,-4.355120063E-1,-3.386881113E0
1.877547844E1,-4.474326074E-1,-8.117526025E-2,-3.212749720E0
1.879548625E1,-7.951196432E-1,4.983787537E-1,-3.133127689E0
1.881748000E1,-9.789202809E-1,1.096799850E0,-2.864661217E0
1.883748000E1,-9.817128181E-1,1.206930041E0,-2.390001535E0
1.885947844E1,-9.522516131E-1,8.440063000E-1,-1.646526098E0
1.887947844E1,-9.439962506E-1,3.157126009E-1,-8.820893764E-1
1.889947844E1,-9.399121404E-1,-1.398532391E-1,-1.362578571E-1
1.891948000E1,-8.515635729E-1,-3.602708578E-1,5.955936313E-1
1.894148000E1,-9.409419298E-1,-3.617194891E-1,1.531316996E0
1.896148625E1,-1.262867928E0,-4.456698298E-1,2.637454271E0
1.898348000E1,-1.155844331E0,-7.260743976E-1,3.793036699E0
1.900348000E1,-4.862661958E-1,-8.926486373E-1,4.544540882E0
1.902547844E1,6.512696147E-1,-7.346439958E-1,4.875559807E0
1.904547844E1,1.597534776E0,-4.122991264E-1,4.738586426E0
1.906549875E1,2.134293318E0,-7.410667837E-2,4.441304207E0
1.908747844E1,2.084586382E0,2.390926480E-1,4.225756168E0
1.910748000E1,1.580395579E0,5.186769366E-1,4.195788860E0
1.912947844E1,7.978947163E-1,8.688074350E-1,4.323250294E0
1.914947844E1,2.740341425E-1,1.048768401E0,4.418946743E0
1.916948938E1,7.136651129E-2,1.077793121E0,4.450502396E0
1.919148312E1,-9.773843922E-4,1.065436244E0,4.364195824E0
1.921348000E1,-1.249481216E-1,1.006025195E0,4.144755363E0
1.923547844E1,-1.402022988E-1,8.024849296E-1,3.859708309E0
1.925548000E1,3.113667294E-2,5.823640227E-1,3.569337845E0
1.927748156E1,1.933126599E-1,3.543018401E-1,3.159953594E0
1.929947844E1,3.184702396E-1,1.685115397E-1,2.720566750E0
1.931947844E1,4.916941524E-1,6.670648605E-2,2.312212229E0
1.933948000E1,6.412688494E-1,-3.508111835E-2,1.820622802E0
1.935948625E1,6.903998852E-1,-7.285004109E-2,1.249620795E0
1.938148000E1,5.733930469E-1,3.001966281E-3,6.200107336E-1
1.940149719E1,3.131993413E-1,7.852236181E-2,8.819148690E-2
1.942348000E1,-9.396852553E-2,7.689920813E-2,-4.169591665E-1
1.944348312E1,-3.806912005E-1,4.839798063E-2,-8.243713379E-1
1.946549875E1,-4.692666829E-1,1.033234876E-2,-1.364393711E0
1.948747844E1,-4.544662833E-1,-1.158549562E-1,-1.974560738E0
1.950748000E1,-3.686135411E-1,-3.563613296E-1,-2.316854715E0
1.952748000E1,-2.101376355E-1,-7.268249393E-1,-2.634155512E0
1.954947844E1,-2.157226950E-1,-1.142160892E0,-3.141976595E0
1.956947844E1,-3.847578466E-1,-1.402790904E0,-3.703414202E0
1.958948781E1,-5.512797236E-1,-1.510163546E0,-4.155768394E0
1.961147844E1,-7.077310085E-1,-1.445045352E0,-4.367337227E0
1.963148000E1,-7.600385547E-1,-1.329975843E0,-4.343251705E0
1.965148156E1,-6.284232736E-1,-1.229514599E0,-4.287662983E0
1.967148156E1,-3.527659476E-1,-1.150625706E0,-4.311504364E0
1.969348625E1,-3.244566917E-2,-1.027772069E0,-4.364510059E0
1.971548000E1,1.714611501E-1,-8.152083755E-1,-4.382504463E0
1.973748000E1,2.363350391E-1,-5.530773997E-1,-4.261901855E0
1.975748625E1,2.434559762E-1,-4.126482010E-1,-3.968180656E0
1.977948000E1,1.730668545E-1,-3.792425990E-1,-3.537503242E0
1.979948156E1,1.694714651E-2,-4.045498669E-1,-3.130544662E0
1.982148000E1,-1.990373433E-1,-4.012511969E-1,-2.754199266E0
1.984148156E1,-4.428772926E-1,-2.663721442E-1,-2.542787552E0
1.986347844E1,-7.740709782E-1,7.623597980E-2,-2.390193462E0
1.988348000E1,-1.093954921E0,5.475795865E-1,-2.283710957E0
1.990348000E1,-1.177835464E0,9.688147902E-1,-2.022295475E0
1.992348000E1,-9.927607179E-1,1.023635626E0,-1.516952872E0
1.994348000E1,-7.313104272E-1,7.532840967E-1,-8.403585553E-1
1.996550656E1,-5.211204290E-1,3.729943037E-1,-6.576400250E-2
1.998747844E1,-3.975510895E-1,1.583711803E-1,7.169114351E-1
2.000748781E1,-4.137477577E-1,8.780751377E-2,1.478224039E0
2.002947844E1,-5.877745152E-1,-8.932594955E-2,2.489223480E0
2.004948000E1,-4.255636334E-1,-2.810503542E-1,3.291010380E0
2.007148000E1,1.758244634E-1,-3.786491752E-1,3.871873379E0
2.009148000E1,8.721584678E-1,-4.000120163E-1,4.036196232E0
2.011148000E1,1.380363464E0,-2.857976556E-1,4.003087044E0
2.013148000E1,1.539170980E0,-2.455678210E-2,3.992300987E0
2.015148000E1,1.342088342E0,3.149970174E-1,4.056214809E0
2.017148000E1,8.177914619E-1,6.764372587E-1,4.153394699E0
2.019148156E1,1.719847471E-1,1.055400610E0,4.288448334E0
2.021348000E1,-2.934422195E-1,1.243721604E0,4.404233456E0
2.023348625E1,-3.406708241E-1,1.204347014E0,4.519914150E0
2.025548000E1,-1.950056404E-1,1.115474820E0,4.591786861E0
2.027747844E1,-1.366069168E-1,9.605594277E-1,4.557211876E0
2.029747844E1,-5.293583497E-2,7.174350619E-1,4.429314137E0
2.031748000E1,1.796118319E-1,4.107457995E-1,4.267923355E0
2.033948000E1,4.514817595E-1,8.571311831E-2,3.991777420E0
2.035948000E1,6.944490671E-1,-1.707106531E-1,3.679677725E0
2.038148938E1,1.006793141E0,-3.691720366E-1,3.206344366E0
2.040348000E1,1.099138498E0,-3.921231329E-1,2.504983902E0
2.042348625E1,8.799077272E-1,-2.436305135E-1,1.708049059E0
2.044548000E1,3.739717007E-1,1.209338605E-1,7.014652491E-1
2.046550188E1,-8.611454815E-2,4.320213497E-1,-5.023057386E-2
2.048747844E1,-4.234168828E-1,4.593532085E-1,-5.796412826E-1
2.050748469E1,-5.700070858E-1,2.748544514E-1,-1.005763412E0
2.052947844E1,-5.710193515E-1,-7.934267074E-2,-1.648184180E0
2.054947844E1,-4.156676233E-1,-3.702366948E-1,-2.135323048E0
2.056948000E1,-2.699849904E-1,-6.557376385E-1,-2.531076431E0
2.058948156E1,-3.190112710E-1,-9.325643182E-1,-2.993990183E0
2.061147844E1,-5.528679490E-1,-1.159195304E0,-3.639831781E0
2.063148313E1,-7.739662528E-1,-1.201153040E0,-4.155663967E0
2.065148625E1,-9.264207482E-1,-1.042956352E0,-4.406083584E0
2.067348000E1,-8.916189075E-1,-8.299913406E-1,-4.354160309E0
2.069348000E1,-6.153332591E-1,-7.458140850E-1,-4.308485031E0
2.071348938E1,-2.038893551E-1,-7.463377118E-1,-4.366255283E0
2.073547844E1,1.750914305E-1,-7.362846136E-1,-4.500698090E0
2.075547844E1,3.378608227E-1,-6.525437236E-1,-4.588068962E0
2.077547844E1,3.178069890E-1,-5.038416386E-1,-4.605016232E0
2.079548000E1,2.006430477E-1,-3.949680030E-1,-4.544715405E0
2.081748000E1,5.054473504E-2,-4.208686948E-1,-4.341611385E0
2.083948000E1,-9.135053307E-2,-5.166523457E-1,-4.032286644E0
2.085948000E1,-1.991944313E-1,-6.226636767E-1,-3.703937769E0
2.088148781E1,-3.366042078E-1,-6.559470892E-1,-3.410966873E0
2.090352375E1,-6.302034855E-1,-3.399552405E-1,-3.294413567E0
2.092548000E1,-1.113799334E0,3.267779946E-1,-3.262823105E0
2.094548000E1,-1.183717251E0,8.601331711E-1,-2.972906590E0
2.096549875E1,-8.838696480E-1,8.321729898E-1,-2.333766937E0
2.098747844E1,-3.761009872E-1,2.293013632E-1,-1.419389009E0
2.100747844E1,-4.326671362E-2,-2.195624262E-1,-6.010913849E-1
2.102748000E1,2.394591719E-1,-2.748369873E-1,2.838952541E-1
2.104748313E1,3.694687486E-1,-1.396787018E-1,1.297530174E0
2.106948000E1,-5.077162758E-2,6.073745899E-3,2.570677996E0
2.108948000E1,-4.739790559E-1,-8.686503768E-2,3.583160877E0
2.111148000E1,-3.385764062E-1,-2.103121728E-1,4.260418415E0
2.113148000E1,2.234021425E-1,-2.159321308E-1,4.467170238E0
2.115347844E1,9.512044191E-1,-1.695587337E-1,4.500627995E0
2.117347844E1,1.391027451E0,-1.006531343E-1,4.585346222E0
2.119348000E1,1.464383602E0,7.559020817E-2,4.738690853E0
2.121348781E1,1.044579506E0,4.517959356E-1,4.824264526E0
2.123547844E1,2.326872945E-1,9.218305349E-1,4.895194530E0
2.125548000E1,-3.362202346E-1,1.195585489E0,4.950155258E0
2.127747844E1,-4.172733128E-1,1.356469870E0,5.004086018E0
2.129747844E1,-2.551671267E-1,1.331878185E0,5.008780956E0
2.131748000E1,-2.166477144E-1,1.203020573E0,4.922439575E0
2.133748313E1,-9.751154482E-2,9.923942089E-1,4.758622646E0
2.135947844E1,2.806489468E-1,6.005678177E-1,4.453748703E0
2.137947844E1,6.390174031E-1,1.804670393E-1,4.051031590E0
2.139947844E1,8.857720494E-1,-1.164832711E-1,3.583038807E0
2.141948000E1,1.055732250E0,-2.459518015E-1,3.059195757E0
2.144148000E1,1.045748949E0,-1.637991518E-1,2.367294788E0
2.146148469E1,7.999193072E-1,9.110618383E-2,1.641429782E0
2.148348000E1,4.136604965E-1,4.492652118E-1,9.170657992E-1
2.150348625E1,1.003738865E-1,5.964662433E-1,3.768340349E-1
2.152547844E1,-1.164483652E-1,4.881860316E-1,1.403244678E-2
2.154548312E1,-2.030166984E-1,1.819505692E-1,-2.336646765E-1
2.156549875E1,-1.638864130E-1,-2.436654121E-1,-6.429967284E-1
2.158748313E1,-7.791149616E-2,-6.024876833E-1,-1.395669937E0
2.160948156E1,-5.223770440E-2,-7.497760057E-1,-2.007477760E0
2.163148000E1,-1.196772233E-1,-9.862855673E-1,-2.512401342E0
2.165347844E1,-3.989473581E-1,-1.260843277E0,-3.159394979E0
2.167347844E1,-7.711911798E-1,-1.375127435E0,-3.829147577E0
2.169348000E1,-1.103135347E0,-1.263269305E0,-4.363934040E0
2.171348000E1,-1.262222052E0,-1.059990764E0,-4.670867443E0
2.173348000E1,-1.229113221E0,-8.697499037E-1,-4.825049877E0
2.175348156E1,-1.017439723E0,-7.182378769E-1,-4.931864262E0
2.177547844E1,-6.179163456E-1,-6.120694876E-1,-5.065207481E0
2.179548000E1,-2.538930476E-1,-5.024453998E-1,-5.182720184E0
2.181548000E1,1.110029407E-2,-3.455053866E-1,-5.200662136E0
2.183747844E1,1.556310058E-1,-1.371479779E-1,-5.091073036E0
2.185747844E1,1.811826229E-1,-2.478367416E-3,-4.821000576E0
2.187748312E1,1.830152273E-1,-4.644321278E-2,-4.422053337E0
2.189947844E1,8.086110651E-2,-1.433962435E-1,-3.934687614E0
2.191948313E1,-1.284736842E-1,-1.648812592E-1,-3.568604946E0
2.194148000E1,-4.251621962E-1,-5.068436265E-2,-3.251199245E0
2.196347844E1,-6.995454431E-1,2.063502818E-1,-2.980620861E0
2.198347844E1,-8.209679723E-1,5.230576992E-1,-2.722626448E0
2.200348000E1,-7.541567683E-1,7.718020678E-1,-2.393718958E0
2.202547844E1,-5.021137595E-1,7.302457690E-1,-1.703720570E0
2.204548000E1,-2.873684466E-1,5.276130438E-1,-7.776139975E-1
2.206550031E1,-2.799158990E-1,3.234618604E-1,2.702642381E-1
2.208747844E1,-3.939731717E-1,2.798461020E-1,1.283253312E0
2.210748000E1,-6.453529596E-1,3.353999257E-1,2.196374655E0
2.212948000E1,-8.077732921E-1,-1.239183708E-3,3.209817648E0
2.214948000E1,-4.260697663E-1,-4.522322714E-1,3.928544044E0
2.216948000E1,2.464055866E-1,-7.814362645E-1,4.274415970E0
2.219147844E1,9.087405801E-1,-9.824807644E-1,4.293230534E0
2.221147844E1,1.246025443E0,-9.680992365E-1,4.245530605E0
2.223148000E1,1.191274524E0,-7.423932552E-1,4.261884689E0
2.225148156E1,7.617489696E-1,-2.553416789E-1,4.338068008E0
2.227348000E1,1.369210780E-1,5.090950727E-1,4.437499523E0
2.229348469E1,-3.888244629E-1,1.183595061E0,4.515882492E0
2.231547844E1,-7.423757911E-1,1.576451182E0,4.621509552E0
2.233548000E1,-8.593826890E-1,1.718852639E0,4.768763065E0
2.235548000E1,-8.015773892E-1,1.654432535E0,4.846622467E0
2.237548625E1,-6.281963587E-1,1.391812801E0,4.805799007E0
2.239748000E1,-3.772878349E-1,9.500874281E-1,4.662577152E0
2.241948000E1,-1.061160211E-2,3.649832606E-1,4.433956623E0
2.244148625E1,4.265061021E-1,-2.404889166E-1,4.033228874E0
2.246347844E1,7.643843889E-1,-6.791599989E-1,3.480238914E0
2.248348313E1,9.054942727E-1,-8.140389919E-1,2.965157270E0
2.250548000E1,9.165771008E-1,-5.832890272E-1,2.343104601E0
2.252548312E1,7.937234044E-1,-1.454208344E-1,1.695430279E0
2.254748000E1,5.272814035E-1,3.353300989E-1,9.686228037E-1
2.256748313E1,3.409675360E-1,5.244016051E-1,3.939382732E-1
2.258947844E1,2.482556254E-1,3.478964865E-1,-1.155931577E-1
2.260947844E1,1.706059277E-1,4.886921868E-2,-6.501874924E-1
2.262948000E1,7.644542307E-2,-2.205572575E-1,-1.344235182E0
2.264948625E1,-2.021091245E-2,-3.475997746E-1,-1.990984321E0
2.267148000E1,-9.611528367E-2,-5.755572319E-1,-2.515857220E0
2.269148625E1,-1.857903004E-1,-8.439365029E-1,-3.007935286E0
2.271348000E1,-4.136604965E-1,-1.096153975E0,-3.627003670E0
2.273348000E1,-6.625793576E-1,-1.189913154E0,-4.154040813E0
2.275348000E1,-8.144229650E-1,-1.193648100E0,-4.470259666E0
2.277348000E1,-8.445997238E-1,-1.198203444E0,-4.586498260E0
2.279348000E1,-7.613649964E-1,-1.215517044E0,-4.623063087E0
2.281349719E1,-5.545783639E-1,-1.212218404E0,-4.709788322E0
2.283548000E1,-2.963743508E-1,-1.157048583E0,-4.894897938E0
2.285548000E1,-1.464680284E-1,-9.770352840E-1,-5.018537045E0
2.287747844E1,-1.694540232E-1,-6.623524427E-1,-4.996982574E0
2.289748000E1,-2.857627571E-1,-3.475823104E-1,-4.851683617E0
2.291947844E1,-3.872536421E-1,-1.858251989E-1,-4.534313202E0
2.293947844E1,-4.345346093E-1,-2.177996337E-1,-4.161877155E0
2.295947844E1,-4.690048695E-1,-3.333055377E-1,-3.815376997E0
2.297947844E1,-6.080726981E-1,-3.575830460E-1,-3.543454647E0
2.299948312E1,-8.484394550E-1,-9.360200912E-2,-3.394176722E0
2.302148000E1,-1.158566952E0,4.699997008E-1,-3.184946537E0
2.304148000E1,-1.219391704E0,9.225984812E-1,-2.781967640E0
2.306148000E1,-1.115597010E0,9.150586724E-1,-2.249153376E0
2.308148625E1,-8.787558079E-1,4.685510993E-1,-1.654781580E0
2.310348000E1,-5.734977126E-1,-1.510931551E-1,-1.019621372E0
2.312348000E1,-2.670702934E-1,-4.476420581E-1,-3.468318284E-1
2.314548000E1,-1.516691148E-1,-5.340009332E-1,7.295825481E-1
2.316550500E1,-1.273741275E-1,-6.987251043E-1,1.955431938E0
2.318748000E1,3.569372892E-1,-6.210230589E-1,3.043173552E0
2.320948000E1,1.154238582E0,-3.753505051E-1,3.599619389E0
2.323148312E1,1.684120536E0,-1.031140536E-1,3.716783285E0
2.325348000E1,1.634186625E0,1.006356850E-1,3.799669027E0
2.327348469E1,1.184083700E0,3.641629517E-1,4.085815907E0
2.329548000E1,4.295255244E-1,6.688974500E-1,4.421512604E0
2.331748000E1,-2.356369048E-1,1.017876029E0,4.628874779E0
2.333948156E1,-5.286427736E-1,1.265066981E0,4.719300270E0
2.336148000E1,-5.547180176E-1,1.273374796E0,4.724344254E0
2.338148313E1,-6.263114214E-1,1.235378981E0,4.788991451E0
2.340148781E1,-6.502224207E-1,1.167468190E0,4.934900761E0
2.342348000E1,-4.817283154E-1,9.766862392E-1,5.102784157E0
2.344548000E1,-2.178519964E-1,6.183701754E-1,5.134461880E0
2.346549875E1,6.099925563E-2,1.711993515E-1,4.969929695E0
2.348748000E1,4.018969536E-1,-3.067066967E-1,4.647061348E0
2.350947844E1,7.295650840E-1,-6.608514786E-1,4.099708557E0
2.352948000E1,9.311156869E-1,-7.953465581E-1,3.436378717E0
2.355148000E1,9.984155893E-1,-6.026796699E-1,2.617819309E0
2.357148781E1,9.398946762E-1,-1.148950234E-1,1.845406413E0
2.359348000E1,6.666808724E-1,4.996353984E-1,1.033234954E0
2.361348000E1,3.362202346E-1,8.236033916E-1,3.903952539E-1
2.363348000E1,1.267283559E-1,8.309163451E-1,-1.004611477E-1
2.365348000E1,1.518436475E-3,6.130468845E-1,-5.902528763E-1
2.367547844E1,-3.352777660E-2,2.508561611E-1,-1.227193356E0
2.369547844E1,-5.654866807E-3,-5.560619012E-2,-1.635513186E0
2.371548000E1,1.096241325E-1,-4.617617726E-1,-1.944506168E0
2.373748312E1,2.083923072E-1,-9.377828836E-1,-2.476901531E0
2.375947844E1,8.890707046E-2,-1.295802236E0,-3.127141237E0
2.377948469E1,-1.063778177E-1,-1.476216912E0,-3.652677298E0
2.380148000E1,-2.914699912E-1,-1.544738531E0,-3.993679762E0
2.382148000E1,-4.089829922E-1,-1.530374527E0,-4.113688469E0
2.384148000E1,-3.973242044E-1,-1.439023972E0,-4.183676243E0
2.386348469E1,-2.408903390E-1,-1.327584743E0,-4.333547592E0
2.388547844E1,-4.686209187E-2,-1.181360960E0,-4.552534103E0
2.390548000E1,-9.093165398E-3,-9.908932447E-1,-4.711969852E0
2.392548000E1,-1.185078546E-1,-7.413285971E-1,-4.651354790E0
2.394548156E1,-2.952224314E-1,-4.498760700E-1,-4.499092102E0
2.396549875E1,-4.531049132E-1,-2.413964868E-1,-4.264938831E0
2.398748625E1,-5.047666430E-1,-1.728574038E-1,-3.977762461E0
2.400948000E1,-5.099852085E-1,-2.559350729E-1,-3.700551748E0
2.402948000E1,-5.050808191E-1,-3.419100046E-1,-3.446868181E0
2.405147844E1,-5.701816082E-1,-3.396061659E-1,-3.184667349E0
2.407148156E1,-7.579092383E-1,-1.551248580E-1,-2.983972073E0
2.409348000E1,-1.100988626E0,3.474077880E-1,-2.780449152E0
2.411348000E1,-1.253443122E0,9.077108502E-1,-2.533938885E0
2.413348000E1,-1.186055899E0,1.253373265E0,-2.169880629E0
2.415348781E1,-1.070951462E0,1.257684231E0,-1.587254763E0
2.417547844E1,-9.238376617E-1,9.900031090E-1,-6.621255279E-1
2.419548469E1,-6.760183573E-1,5.253266692E-1,4.533143640E-1
2.421748000E1,-5.240350962E-1,2.925171889E-2,1.761962175E0
2.423947844E1,-6.237283349E-1,-5.493772626E-1,2.966850281E0
2.425947844E1,-5.068261623E-1,-9.543285966E-1,3.760870457E0
2.427948000E1,-9.103637189E-2,-1.066448569E0,4.191600323E0
2.430148000E1,6.482501626E-1,-1.002674222E0,4.367005825E0
2.432148000E1,1.421762705E0,-8.865399957E-1,4.447203636E0
2.434148000E1,2.021562576E0,-7.478386760E-1,4.584054947E0
2.436148313E1,2.226691008E0,-4.616744816E-1,4.716944218E0
2.438347844E1,1.940718889E0,3.829252347E-2,4.783650875E0
2.440348625E1,1.384464979E0,5.146452188E-1,4.781015396E0
2.442548000E1,8.466243148E-1,9.022305012E-1,4.741343975E0
2.444548000E1,6.803642511E-1,1.139700055E0,4.728253841E0
2.446549875E1,5.914571881E-1,1.264595747E0,4.749145508E0
2.448747844E1,4.226140380E-1,1.278715491E0,4.746963978E0
2.450747844E1,4.020016789E-1,1.088195324E0,4.625366688E0
2.452748625E1,5.548925400E-1,6.835756302E-1,4.317002296E0
2.454947844E1,8.763123751E-1,9.138543904E-2,3.823510170E0
2.456948312E1,1.270110965E0,-3.953345418E-1,3.428594589E0
2.458948938E1,1.680682302E0,-7.021285295E-1,3.027989149E0
2.461147844E1,1.923649549E0,-7.963413596E-1,2.364240408E0
2.463148000E1,1.810604572E0,-6.728419065E-1,1.442479730E0
2.465148156E1,1.297547579E0,-2.638588846E-1,4.536808729E-1
2.467347844E1,4.252320230E-1,4.129798114E-1,-4.201880097E-1
2.469348000E1,-3.604104817E-1,8.582307696E-1,-9.635264874E-1
2.471348000E1,-8.914094567E-1,8.471304774E-1,-1.395984173E0
2.473348000E1,-1.172704220E0,5.262691379E-1,-1.940544367E0
2.475547844E1,-1.318561316E0,1.136034802E-1,-2.452938080E0
2.477547844E1,-1.308578014E0,-3.120474219E-1,-2.738735676E0
2.479548000E1,-1.263897657E0,-8.191877604E-1,-3.054308653E0
2.481748313E1,-1.343205333E0,-1.384569645E0,-3.564503431E0
2.483947844E1,-1.478974581E0,-1.759291887E0,-4.128332138E0
2.485948312E1,-1.550079226E0,-1.824706793E0,-4.508517265E0
2.488148000E1,-1.521944523E0,-1.654065967E0,-4.673101425E0
2.490148781E1,-1.348755479E0,-1.344811082E0,-4.667411804E0
2.492347844E1,-9.930574298E-1,-1.037476063E0,-4.591280460E0
2.494348469E1,-5.971643925E-1,-8.680744171E-1,-4.543127060E0
2.496549875E1,-1.886700988E-1,-7.151486874E-1,-4.414513588E0
2.498747844E1,5.475097895E-2,-5.301961303E-1,-4.281275272E0
2.500747844E1,1.125737354E-1,-3.902905285E-1,-4.093076229E0
2.502748000E1,8.349654824E-2,-3.099704683E-1,-3.803055048E0
2.504748000E1,-2.998475730E-2,-3.095166981E-1,-3.475404263E0
2.506748313E1,-1.951801628E-1,-3.497988880E-1,-3.212418079E0
2.508947844E1,-5.048713684E-1,-2.506118119E-1,-3.017883778E0
2.510948312E1,-8.617737889E-1,4.944517836E-2,-2.886582613E0
2.513147844E1,-1.255066276E0,6.272538900E-1,-2.724546194E0
2.515148000E1,-1.425584912E0,1.094496012E0,-2.516886950E0
2.517148000E1,-1.410941601E0,1.376942635E0,-2.126142740E0
2.519148312E1,-1.338685036E0,1.413891196E0,-1.630032778E0
2.521348625E1,-1.416177630E0,1.201781392E0,-9.972811341E-1
2.523547844E1,-1.424520254E0,7.605621219E-1,-5.536184460E-2
2.525547844E1,-1.219548821E0,2.790955901E-1,1.022850156E0
2.527548156E1,-1.226477742E0,-2.410299629E-1,2.116874933E0
2.529748000E1,-1.084041476E0,-8.895245194E-1,3.162536621E0
2.531748000E1,-5.080828071E-1,-1.263740540E0,3.876795053E0
2.533947844E1,3.346668780E-1,-1.353886843E0,4.160847664E0
2.535947844E1,1.050042391E0,-1.150957346E0,4.139763832E0
2.537947844E1,1.557165265E0,-9.107826352E-1,4.134807110E0
2.539948000E1,1.613923430E0,-5.702863336E-1,4.278116226E0
2.541948000E1,1.171133399E0,-4.276056774E-3,4.525673866E0
2.544148781E1,3.754377663E-1,6.107430458E-1,4.725217342E0
2.546347844E1,-3.785444498E-1,1.031925917E0,4.805257797E0
2.548348469E1,-5.636191964E-1,1.228519797E0,4.771642685E0
2.550548000E1,-4.378682077E-1,1.372439623E0,4.761432648E0
2.552748000E1,-4.439594150E-1,1.392964721E0,4.793930531E0
2.554748000E1,-4.335048795E-1,1.321912408E0,4.768344402E0
2.556948000E1,-2.467895597E-1,9.691638947E-1,4.478637218E0
2.559148156E1,1.351233870E-1,3.371627033E-1,3.964986563E0
2.561348000E1,5.725727081E-1,-2.408205271E-1,3.494114161E0
2.563348000E1,1.009707928E0,-6.418797374E-1,3.108239412E0
2.565348000E1,1.380485654E0,-9.066461921E-1,2.683548450E0
2.567348938E1,1.547600865E0,-9.497907162E-1,2.089455843E0
2.569547844E1,1.438186169E0,-6.990392804E-1,1.275329590E0
2.571548000E1,1.151777625E0,-2.918016016E-1,5.908637643E-1
2.573747844E1,7.697250843E-1,1.134638563E-1,4.445353523E-2
2.575748469E1,3.188716471E-1,2.854835093E-1,-3.135483861E-1
2.577948000E1,-1.197819486E-1,9.819222242E-2,-8.557698131E-1
2.580148000E1,-3.370579779E-1,-1.655968428E-1,-1.494333506E0
2.582148000E1,-4.054749012E-1,-4.192979038E-1,-1.952272892E0
2.584148000E1,-4.621980786E-1,-7.706675529E-1,-2.470548391E0
2.586148000E1,-5.951747298E-1,-1.104060411E0,-3.108274221E0
2.588148313E1,-7.509802580E-1,-1.312487602E0,-3.727429867E0
2.590348000E1,-8.751604557E-1,-1.335508466E0,-4.184601307E0
2.592348000E1,-9.209578633E-1,-1.304930329E0,-4.304505348E0
2.594348000E1,-8.699768186E-1,-1.269063830E0,-4.290839672E0
2.596348156E1,-7.117277980E-1,-1.218920469E0,-4.344281673E0
2.598547844E1,-4.950277209E-1,-1.167904496E0,-4.534173489E0
2.600548469E1,-3.722438216E-1,-9.729686975E-1,-4.703906536E0
2.602748313E1,-3.206344247E-1,-6.690719724E-1,-4.754852772E0
2.604748313E1,-2.699151635E-1,-4.106410742E-1,-4.596132755E0
2.606948000E1,-2.828305960E-1,-1.812175363E-1,-4.344002247E0
2.608948312E1,-2.977880836E-1,-1.136034802E-1,-4.086025238E0
2.611148000E1,-2.903878689E-1,-1.464505792E-1,-3.823597431E0
2.613148156E1,-2.930407822E-1,-2.169269770E-1,-3.578500986E0
2.615347844E1,-2.918713987E-1,-3.178069890E-1,-3.231407404E0
2.617348000E1,-3.428001106E-1,-3.471110761E-1,-2.878815889E0
2.619348000E1,-3.959977627E-1,-3.292738199E-1,-2.518422842E0
2.621348469E1,-3.774798214E-1,-2.592686713E-1,-2.172114611E0
2.623548000E1,-2.915048897E-1,-1.182460561E-1,-1.912427068E0
2.625747844E1,-2.674891651E-1,2.438748628E-1,-1.826609254E0
2.627747844E1,-2.922553718E-1,7.205068469E-1,-1.736201167E0
2.629748313E1,-4.898441136E-1,1.136890054E0,-1.310846925E0
2.631948000E1,-9.484119415E-1,1.253094077E0,-2.541722953E-1
2.634148000E1,-1.243198037E0,7.631626725E-1,1.345980406E0
2.636148000E1,-8.005127311E-1,3.361155093E-1,2.601936817E0
2.638148000E1,-2.021091245E-2,4.747295752E-3,3.367490530E0
2.640148000E1,5.110847354E-1,-9.489355236E-2,3.734899759E0
2.642148938E1,7.123386860E-1,-7.314674556E-2,3.934303761E0
2.644348000E1,6.737843752E-1,-5.698499829E-2,4.176032066E0
2.646348313E1,6.193126440E-1,-3.661700711E-2,4.461462975E0
2.648547844E1,4.251971245E-1,-4.508185387E-2,4.801749706E0
2.650548000E1,1.498539746E-1,7.792895287E-2,5.099991798E0
2.652748000E1,-8.691739291E-2,2.882585824E-1,5.452967167E0
2.654947844E1,1.333431527E-2,5.170188546E-1,5.609680176E0
2.656948000E1,1.002342552E-1,6.980618834E-1,5.489671230E0
2.658948938E1,-6.138322875E-2,8.565203547E-1,5.314248085E0
2.661148781E1,-2.635796368E-1,8.639030457E-1,5.182405949E0
2.663348000E1,-1.434660703E-1,5.969026089E-1,5.004958630E0
2.665348156E1,1.376541108E-1,1.892460436E-1,4.473383427E0
2.667548000E1,2.846283019E-1,-2.174680233E-1,3.488756180E0
2.669548000E1,1.557880938E-1,-4.791452289E-1,2.508055687E0
2.671548000E1,-4.822344705E-2,-2.815390527E-1,1.731139660E0
2.673748312E1,-2.971073985E-1,1.545314491E-1,9.705601335E-1
2.675947844E1,-3.977605402E-1,5.017821789E-1,2.947860956E-1
2.677948156E1,-4.171860516E-1,6.604500413E-1,-1.221381426E-1
2.680148000E1,-3.692069352E-1,5.896245837E-1,-3.978129029E-1
2.682148000E1,-2.767219543E-1,4.178318083E-1,-6.095387936E-1
2.684148000E1,-1.157676876E-1,1.465902030E-1,-8.811120391E-1
2.686148469E1,1.562069654E-1,-1.902234405E-1,-1.109017134E0
2.688348000E1,3.285233378E-1,-8.471828103E-1,-1.414170504E0
2.690348625E1,1.370956153E-1,-1.295104146E0,-2.051878929E0
2.692547844E1,-3.835709989E-1,-1.497911334E0,-3.020972967E0
2.694548469E1,-8.357334733E-1,-1.384342790E0,-3.749246359E0
2.696549875E1,-1.075087905E0,-1.092314363E0,-4.128768444E0
2.698747844E1,-1.045993328E0,-5.428671837E-1,-4.405054092E0
2.700747844E1,-7.835655808E-1,1.481609941E-1,-4.755201817E0
2.702748000E1,-4.460188746E-1,1.001766682E0,-5.155789852E0
2.704748000E1,-1.135511175E-1,1.763271213E0,-5.363117695E0
2.706948469E1,2.074498385E-1,2.203129053E0,-5.246250153E0
2.709148000E1,5.000368357E-1,2.262033939E0,-4.900919437E0
2.711148625E1,7.298792601E-1,2.017635584E0,-4.460904598E0
2.713148625E1,7.999716401E-1,1.519885063E0,-4.095502377E0
2.715348000E1,7.471405268E-1,8.517381549E-1,-3.837786913E0
2.717547844E1,6.939952970E-1,1.759466380E-1,-3.616008043E0
2.719547844E1,7.434579134E-1,-3.602184951E-1,-3.401192904E0
2.721548000E1,8.369726539E-1,-6.169390082E-1,-3.177703619E0
2.723747844E1,8.258374333E-1,-5.458691716E-1,-2.801480293E0
2.725748000E1,7.188138366E-1,-2.292838991E-1,-2.266763926E0
2.727948000E1,6.597693563E-1,1.395565271E-1,-1.556153059E0
2.730148156E1,5.548401475E-1,3.729943037E-1,-8.739736080E-1
2.732347844E1,3.531324565E-1,4.725653529E-1,-3.348763287E-1
2.734348469E1,1.411098689E-1,5.736199021E-1,2.062979154E-2
2.736549875E1,-1.847605556E-1,6.274807453E-1,4.458443522E-1
2.738748000E1,-7.270692587E-1,3.296403289E-1,1.223912120E0
2.740748000E1,-1.019953012E0,-2.150594741E-1,2.054898262E0
2.742748000E1,-8.337612152E-1,-7.195294499E-1,2.673006535E0
2.744947844E1,-4.145855010E-1,-1.174850941E0,3.013764620E0
2.746947844E1,-8.302531391E-2,-1.398951173E0,3.167440891E0
2.748948000E1,1.155582517E-1,-1.405705571E0,3.329110861E0
2.751148000E1,2.230705321E-1,-1.244768858E0,3.608119249E0
2.753148625E1,2.413441241E-1,-1.087043405E0,3.922261000E0
2.755348000E1,5.096361414E-2,-8.299913406E-1,4.230922222E0
2.757548469E1,-1.608146429E-1,-5.326395631E-1,4.555222034E0
2.759747844E1,-1.317199916E-1,-2.845235765E-1,4.845121384E0
2.761748469E1,1.635548025E-1,-4.417428374E-2,4.989442348E0
2.763948000E1,4.856727719E-1,2.401922047E-1,4.961534500E0
2.765948469E1,5.464974642E-1,4.477118552E-1,4.794506550E0
2.768148000E1,4.766145051E-1,5.232671499E-1,4.466402054E0
2.770148625E1,3.185575008E-1,3.526263237E-1,4.110459805E0
2.772347844E1,1.461538672E-1,1.185776666E-1,3.744760990E0
2.774348156E1,1.492431015E-1,-3.736750036E-2,3.434214592E0
2.776549875E1,2.970899343E-1,-9.466665983E-2,2.993728399E0
2.778747844E1,4.046371281E-1,1.839577034E-2,2.307552099E0
2.780747844E1,4.081976116E-1,3.494847417E-1,1.475117326E0
2.782748000E1,3.447898030E-1,8.003207445E-1,6.374117136E-1
2.784948000E1,2.184454054E-1,1.108179331E0,-8.236208558E-2
2.787148000E1,7.007496804E-2,1.189808369E0,-6.091024280E-1
2.789148000E1,7.197737694E-2,1.029761672E0,-9.652369022E-1
2.791148000E1,2.236813903E-1,6.629633307E-1,-1.178498626E0
2.793348469E1,2.751336992E-1,-4.642575979E-2,-1.375563741E0
2.795547844E1,6.227334589E-2,-7.100871801E-1,-1.851933956E0
2.797548312E1,-2.239606529E-1,-1.115195632E0,-2.449360132E0
2.799747844E1,-4.696855545E-1,-1.331546545E0,-2.960863829E0
2.801749563E1,-5.933595896E-1,-1.332890511E0,-3.192312002E0
2.803947844E1,-5.971643925E-1,-1.215185523E0,-3.346511841E0
2.805948000E1,-4.542044699E-1,-1.034282088E0,-3.567034006E0
2.808148000E1,-2.183406949E-1,-7.687302828E-1,-3.958336830E0
2.810148000E1,-6.585127115E-2,-4.761432707E-1,-4.309601784E0
2.812148000E1,-5.194099993E-2,-1.639736891E-1,-4.555012703E0
2.814148625E1,-1.154186204E-1,4.482005537E-2,-4.597424030E0
2.816348000E1,-2.136283070E-1,1.357866228E-1,-4.389537811E0
2.818348000E1,-3.166899979E-1,9.133307636E-2,-4.114875317E0
2.820348000E1,-3.812148273E-1,-8.901178837E-2,-3.823248386E0
2.822348312E1,-3.986332119E-1,-3.630633950E-1,-3.541482449E0
2.824548000E1,-3.568674624E-1,-6.435028911E-1,-3.268844604E0
2.826550188E1,-3.895749450E-1,-7.629008889E-1,-3.068655252E0
2.828747844E1,-6.074094772E-1,-4.244815111E-1,-2.980045080E0
2.830748625E1,-7.666358948E-1,1.704488546E-1,-2.766992569E0
2.832947844E1,-6.918310523E-1,5.634795427E-1,-2.202919722E0
2.834948469E1,-6.327167749E-1,6.391569972E-1,-1.598564506E0
2.837148000E1,-7.541218400E-1,6.102369428E-1,-9.191427231E-1
2.839148781E1,-8.628384471E-1,5.956982970E-1,-1.820727438E-1
2.841348000E1,-1.058594584E0,5.064771175E-1,8.490328789E-1
2.843548000E1,-1.096764922E0,1.447401494E-1,2.085598707E0
2.845548000E1,-7.009416819E-1,1.670280099E-2,2.968229055E0
2.847548000E1,-5.485569686E-2,-5.497787148E-2,3.533994913E0
2.849548000E1,4.880289733E-1,-1.215621829E-1,3.841557026E0
2.851548156E1,8.058708906E-1,-8.576548100E-2,4.053474903E0
2.853748000E1,9.382541180E-1,-7.590436935E-2,4.277836800E0
2.855748000E1,1.042380452E0,-2.295806110E-1,4.493577003E0
2.857947844E1,1.177992463E0,-3.870965838E-1,4.678390026E0
2.859947844E1,1.279169202E0,-4.307996035E-1,4.760839462E0
2.861947844E1,1.185497403E0,-3.639883995E-1,4.758849621E0
2.863948312E1,9.948027730E-1,-1.959481090E-1,4.736631393E0
2.866148156E1,9.853779674E-1,1.357342601E-1,4.741536140E0
2.868348000E1,1.139734864E0,4.595800936E-1,4.741431236E0
2.870348000E1,1.047232509E0,5.273163319E-1,4.634512424E0
2.872348156E1,9.347459674E-1,4.852189720E-1,4.373096943E0
2.874547844E1,1.058489799E0,1.827708781E-1,3.942314863E0
2.876549875E1,1.297704697E0,-2.392846346E-1,3.412554979E0
2.878747844E1,1.428552032E0,-5.611931682E-1,2.685241461E0
2.880747844E1,1.336259007E0,-5.033354759E-1,1.863156438E0
2.882748000E1,9.667029381E-1,-8.141960949E-2,9.080948234E-1
2.884748312E1,2.927615345E-1,5.135631561E-1,-5.724680051E-2
2.886947844E1,-4.024729133E-1,9.728639722E-1,-6.998595595E-1
2.888948312E1,-7.568795085E-1,9.735969901E-1,-9.364389777E-1
2.891148000E1,-8.806058764E-1,4.826184511E-1,-1.212305665E0
2.893347844E1,-8.076685667E-1,-2.827607989E-1,-1.723809361E0
2.895347844E1,-7.023728490E-1,-8.340753913E-1,-2.259922028E0
2.897348000E1,-5.808281302E-1,-1.235762954E0,-2.604432583E0
2.899348000E1,-7.677004933E-1,-1.524894118E0,-2.988928795E0
2.901348312E1,-1.179947257E0,-1.635111690E0,-3.506680727E0
2.903547844E1,-1.603643417E0,-1.536570430E0,-4.091121674E0
2.905548313E1,-1.829698443E0,-1.293882370E0,-4.463155746E0
2.907748000E1,-1.858705878E0,-9.165421724E-1,-4.641127110E0
2.909947844E1,-1.645077586E0,-5.490806103E-1,-4.736858368E0
2.911947844E1,-1.286255240E0,-2.305579931E-1,-4.811348915E0
2.913948000E1,-8.491026759E-1,8.773770183E-2,-4.846814156E0
2.915948000E1,-4.482180178E-1,3.799407184E-1,-4.805222988E0
2.917948625E1,-1.557531804E-1,6.019465923E-1,-4.693993092E0
2.920148000E1,3.804817796E-2,7.305948138E-1,-4.522427559E0
2.922148313E1,3.595378250E-2,7.874925733E-1,-4.273316383E0
2.924347844E1,-7.489208132E-2,8.547052145E-1,-3.870564222E0
2.926348156E1,-1.543918252E-1,8.649677038E-1,-3.308760166E0
2.928548000E1,-2.280098200E-1,7.761479020E-1,-2.653912783E0
2.930548000E1,-3.456450105E-1,6.734004021E-1,-2.069349527E0
2.932748000E1,-4.714657962E-1,4.518657327E-1,-1.437645197E0
2.934948000E1,-5.145056248E-1,1.033933014E-1,-8.329234719E-1
2.937148781E1,-4.640655816E-1,-2.717477679E-1,-2.031388730E-1
2.939148781E1,-3.564311266E-1,-4.760211110E-1,4.458094537E-1
2.941348000E1,-2.552369535E-1,-4.935965538E-1,1.097969174E0
2.943348000E1,-2.241526395E-1,-3.931179643E-1,1.683335185E0
2.945348312E1,-3.132866025E-1,-3.281567991E-1,2.325895548E0
2.947548000E1,-5.905495882E-1,-1.866804212E-1,3.136339188E0
2.949548156E1,-6.300464272E-1,-4.023682177E-1,3.768340349E0
2.951749563E1,-3.373721540E-1,-4.896346629E-1,4.165996075E0
2.953947844E1,1.365196556E-1,-3.947411180E-1,4.105066776E0
2.955948000E1,4.491255879E-1,-2.710496187E-1,3.822410583E0
2.958148000E1,5.739689469E-1,3.003711626E-2,3.670811415E0
2.960148000E1,4.032059610E-1,2.637366951E-1,3.778986931E0
2.962148000E1,6.625270098E-2,4.818854034E-1,3.971915483E0
2.964148000E1,-2.027723491E-1,6.933669448E-1,4.135697365E0
2.966148469E1,-1.320865154E-1,8.214566708E-1,4.225581646E0
2.968348000E1,2.051285505E-1,8.739038110E-1,4.239108086E0
2.970348312E1,4.653571248E-1,8.279492855E-1,4.172802925E0
2.972548000E1,4.943994284E-1,7.375237942E-1,4.054452419E0
2.974748000E1,3.877947032E-1,5.252568126E-1,3.945316792E0
2.976948000E1,4.052654505E-1,1.713564247E-1,3.768445015E0
2.978948938E1,4.879067838E-1,-2.124240249E-1,3.472454786E0
2.981148000E1,5.693264008E-1,-4.927937090E-1,3.062476873E0
2.983148000E1,6.457020044E-1,-6.274458766E-1,2.641678095E0
2.985148469E1,6.765070558E-1,-6.251420379E-1,2.090747356E0
2.987348000E1,5.883854032E-1,-3.880215883E-1,1.304825544E0
2.989547844E1,4.314628541E-1,-1.281071641E-2,5.485046506E-1
2.991547844E1,3.153635561E-1,1.488416791E-1,-8.377580671E-4
2.993548469E1,2.239082903E-1,-4.768239334E-2,-5.068436265E-1
2.995748000E1,3.991568089E-2,-4.482180178E-1,-1.163628459E0
2.997748000E1,-1.408480704E-1,-7.953290939E-1,-1.808195949E0
2.999947844E1,-3.527135849E-1,-9.774018526E-1,-2.437945604E0
3.001948625E1,-6.299940348E-1,-1.051438689E0,-2.920808554E0
3.004148000E1,-1.087759018E0,-1.053585410E0,-3.475613832E0
3.006148000E1,-1.449792624E0,-9.547474384E-1,-3.982021093E0
3.008148000E1,-1.556467175E0,-8.218755126E-1,-4.354264736E0
3.010148625E1,-1.399457335E0,-7.000690103E-1,-4.484641075E0
3.012348000E1,-1.068176389E0,-6.270793676E-1,-4.460363388E0
3.014348469E1,-6.458765268E-1,-6.298893094E-1,-4.426242352E0
3.016549875E1,-9.827949107E-2,-6.679723859E-1,-4.438686371E0
3.018748000E1,3.378084898E-1,-6.924942732E-1,-4.475076675E0
3.020948156E1,5.985257626E-1,-7.374365330E-1,-4.504869461E0
3.023148000E1,6.205518246E-1,-6.808704138E-1,-4.464465141E0
3.025148938E1,4.573460817E-1,-5.347863436E-1,-4.264258385E0
3.027348000E1,1.186998412E-1,-3.481059074E-1,-3.935123920E0
3.029348000E1,-2.963918149E-1,-6.391395628E-2,-3.608031988E0
3.031348000E1,-6.964387298E-1,2.800555229E-1,-3.276122570E0
3.033348469E1,-1.027423024E0,6.057513952E-1,-2.967112064E0
3.035548000E1,-1.245641470E0,9.518676400E-1,-2.642498255E0
3.037548313E1,-1.311161160E0,1.228921175E0,-2.360575199E0
3.039747844E1,-1.232132673E0,1.323291183E0,-1.986167192E0
3.041748781E1,-1.035311818E0,1.116417289E0,-1.532451391E0
3.043947844E1,-7.755196095E-1,8.122762442E-1,-9.540842175E-1
3.045947844E1,-4.835434556E-1,5.537056923E-1,-2.442762852E-1
3.047947844E1,-6.710790843E-2,1.770811081E-1,6.413561106E-1
3.049948312E1,2.965314314E-2,-1.549503356E-1,1.574461460E0
3.052148000E1,-2.336646765E-1,-5.093219876E-1,2.481334686E0
3.054148000E1,-2.486395985E-1,-6.734527349E-1,3.049893141E0
3.056148000E1,-6.894050632E-3,-6.307969093E-1,3.329581976E0
3.058348625E1,4.087037444E-1,-4.878369868E-1,3.404317141E0
3.060547844E1,7.271041870E-1,-3.794694841E-1,3.525372982E0
3.062548625E1,6.489134431E-1,-2.279749066E-1,3.747448683E0
3.064747844E1,2.072229385E-1,-1.352630183E-2,4.036946774E0
3.066747844E1,-2.788861692E-1,1.989326328E-1,4.280437469E0
3.068748000E1,-5.796587467E-1,3.891735077E-1,4.487049580E0
3.070748781E1,-6.235537529E-1,4.704535007E-1,4.637130260E0
3.072947844E1,-4.310090542E-1,4.445004463E-1,4.746457577E0
3.074948000E1,-1.567654759E-1,3.551395833E-1,4.816340923E0
3.077147844E1,2.225294858E-1,1.769414842E-1,4.849519253E0
3.079148625E1,6.103765368E-1,-1.176351905E-1,4.722651482E0
3.081348000E1,1.035730720E0,-5.076639056E-1,4.414129734E0
3.083348000E1,1.347429037E0,-8.623846173E-1,4.032129288E0
3.085348000E1,1.571791172E0,-1.065977335E0,3.553822041E0
3.087348156E1,1.554285526E0,-1.085612297E0,2.862322569E0
3.089547844E1,1.171220660E0,-5.673716068E-1,2.029276848E0
3.091548000E1,6.651100516E-1,2.381501794E-1,1.269255757E0
3.093548000E1,1.921258420E-1,7.977376580E-1,5.825908780E-1
3.095748156E1,-1.497318000E-1,8.032528758E-1,-3.621558100E-2
3.097947844E1,-3.849847317E-1,3.493101895E-1,-5.497786999E-1
3.099948000E1,-5.011887550E-1,-1.353328228E-1,-1.015415072E0
3.102148000E1,-4.825137258E-1,-4.563337862E-1,-1.501663804E0
3.104148313E1,-3.836931884E-1,-6.269222498E-1,-1.979849100E0
3.106348000E1,-4.439768493E-1,-7.091447115E-1,-2.623648643E0
3.108348000E1,-6.426302195E-1,-7.512944341E-1,-3.241844416E0
3.110547844E1,-7.914544344E-1,-7.474197745E-1,-3.760067463E0
3.112547844E1,-8.355589509E-1,-7.075215578E-1,-3.938701868E0
3.114548000E1,-8.225911260E-1,-6.868568659E-1,-3.884142876E0
3.116549875E1,-7.357609868E-1,-6.775367856E-1,-3.777136803E0
3.118748000E1,-5.271941423E-1,-6.524389982E-1,-3.745825529E0
3.120748469E1,-2.659358084E-1,-6.342177391E-1,-3.781500101E0
3.122947844E1,-1.082104165E-3,-6.072872877E-1,-3.848294020E0
3.124948312E1,1.386140436E-1,-5.850692987E-1,-3.884491920E0
3.127148000E1,1.774650812E-1,-5.230576992E-1,-3.893934250E0
3.129148781E1,1.209164113E-1,-4.964065552E-1,-3.818221807E0
3.131348000E1,7.923794538E-2,-5.972167850E-1,-3.581660032E0
3.133348000E1,3.342305496E-2,-7.453777790E-1,-3.270939112E0
3.135547844E1,-2.223723978E-1,-5.644394755E-1,-3.004339933E0
3.137548000E1,-6.967005134E-1,-5.759586394E-2,-2.870420933E0
3.139748625E1,-1.139961839E0,7.827801704E-1,-2.632933855E0
3.141948000E1,-1.163209558E0,1.310340881E0,-1.985888004E0
3.143948000E1,-1.066518307E0,1.277179599E0,-1.264595747E0
3.146148000E1,-1.021488905E0,8.837125301E-1,-7.315896749E-1
3.148148000E1,-1.118459344E0,6.378130913E-1,-5.026373863E-1
3.150148000E1,-1.248870373E0,5.139819980E-1,-1.280198991E-1
3.152148000E1,-1.256759286E0,3.118379712E-1,6.359805465E-1
3.154148000E1,-8.336564898E-1,-1.210211292E-1,1.656998158E0
3.156148000E1,1.878846884E-1,-5.184326172E-1,2.620489597E0
3.158148469E1,1.242011189E0,-8.487012386E-1,3.201946020E0
3.160348781E1,1.660768032E0,-9.431410432E-1,3.280381203E0
3.162548000E1,1.375267029E0,-8.358381987E-1,3.274831057E0
3.164548000E1,8.712159991E-1,-6.051754355E-1,3.450725317E0
3.166549875E1,5.102644563E-1,-2.900562584E-1,3.664336205E0
3.168748000E1,2.328269184E-1,8.911651373E-2,3.844646215E0
3.170948000E1,2.478367416E-3,5.173679590E-1,3.997519493E0
3.172948469E1,-1.120675877E-1,8.131837845E-1,4.153691769E0
3.175148000E1,-2.003637888E-2,9.263334870E-1,4.288186550E0
3.177148313E1,1.716705859E-1,9.642420411E-1,4.290263653E0
3.179149406E1,3.207042515E-1,9.059829712E-1,4.155716419E0
3.181348000E1,5.696754456E-1,7.586771846E-1,3.979123831E0
3.183348000E1,9.125453830E-1,4.102571011E-1,3.794398069E0
3.185547844E1,1.322296381E0,-9.135053307E-2,3.520625830E0
3.187548000E1,1.714454412E0,-5.582610369E-1,3.165765524E0
3.189748000E1,2.011073112E0,-8.785638213E-1,2.534549713E0
3.191948000E1,1.948799729E0,-8.557174802E-1,1.763236284E0
3.194148000E1,1.492622972E0,-5.112593174E-1,1.009882450E0
3.196148000E1,9.279915690E-1,-1.509011686E-1,4.689699709E-1
3.198148000E1,3.593807518E-1,8.820894361E-2,5.714207888E-2
3.200148000E1,-1.260302216E-1,7.216936350E-2,-3.085393012E-1
3.202148312E1,-4.003261626E-1,-1.644623727E-1,-7.658853531E-1
3.204348000E1,-5.937784910E-1,-4.805240333E-1,-1.320271730E0
3.206348000E1,-6.784793139E-1,-7.644193172E-1,-1.687646151E0
3.208548000E1,-7.157071829E-1,-1.213771820E0,-1.987423897E0
3.210748000E1,-8.026245832E-1,-1.624465227E0,-2.359161615E0
3.212948000E1,-8.330631256E-1,-1.883140445E0,-2.801550150E0
3.214948000E1,-7.636862397E-1,-1.953390002E0,-3.140109062E0
3.217148625E1,-7.105584145E-1,-1.886875391E0,-3.323403597E0
3.219348000E1,-7.353595495E-1,-1.720056891E0,-3.345482111E0
3.221348000E1,-7.585549951E-1,-1.541841269E0,-3.315165520E0
3.223348000E1,-7.116230726E-1,-1.319189668E0,-3.236608267E0
3.225348625E1,-6.688450575E-1,-1.095420957E0,-3.205384493E0
3.227547844E1,-5.999045968E-1,-8.523315191E-1,-3.219870567E0
3.229548625E1,-5.911430120E-1,-6.571862698E-1,-3.165154696E0
3.231748000E1,-6.138148308E-1,-4.611334503E-1,-3.015737057E0
3.233748312E1,-6.998420954E-1,-2.294584364E-1,-2.912657738E0
3.235948000E1,-8.676380515E-1,7.094763219E-2,-2.822284698E0
3.238148000E1,-9.426174164E-1,3.099006712E-1,-2.583174467E0
3.240348000E1,-8.634667397E-1,4.493175745E-1,-2.210616589E0
3.242348000E1,-8.003032804E-1,5.097757578E-1,-1.868235350E0
3.244548000E1,-8.155400157E-1,6.366263032E-1,-1.575404048E0
3.246549875E1,-8.247553110E-1,8.102167249E-1,-1.412058592E0
3.248747844E1,-9.295623302E-1,1.070218444E0,-1.286953449E0
3.250747844E1,-1.296901822E0,1.452410698E0,-1.143836379E0
3.252748156E1,-1.911571860E0,1.972448945E0,-8.398175240E-1
3.254948000E1,-2.365584373E0,2.411957741E0,-1.253670007E-1
3.256948000E1,-2.288580418E0,2.152339935E0,9.039933085E-1
3.258948781E1,-1.613242745E0,1.245990515E0,1.937978745E0
3.261147844E1,-2.906322181E-1,2.560572624E-1,2.633701801E0
3.263148000E1,6.905744076E-1,-2.468070090E-1,2.876320124E0
3.265348469E1,9.752900004E-1,-4.515341222E-1,2.944806814E0
3.267547844E1,7.092843652E-1,-3.749665320E-1,3.125186443E0
3.269548000E1,3.203202784E-1,-2.080606967E-1,3.357158184E0
3.271548000E1,2.078687213E-2,-7.799876481E-2,3.615833521E0
3.273548156E1,-1.535191536E-1,-3.143338114E-2,3.933396101E0
3.275748000E1,-8.670795709E-2,-8.883725852E-3,4.281693935E0
3.277748156E1,9.913469851E-2,-4.911356419E-2,4.447185993E0
3.279947844E1,1.767669469E-1,-1.367814541E-1,4.383377075E0
3.281948000E1,2.481858134E-1,-3.537782282E-2,4.223382473E0
3.284148000E1,3.858050406E-1,8.532914519E-2,4.066040993E0
3.286148000E1,5.015901923E-1,2.881014943E-1,3.932924986E0
3.288148000E1,4.105538130E-1,4.080579877E-1,3.752283335E0
3.290148000E1,3.361678720E-1,3.767467737E-1,3.515127897E0
3.292148000E1,4.939107299E-1,2.181661576E-1,3.215856314E0
3.294148000E1,7.737742662E-1,-4.665265232E-2,2.846666813E0
3.296148000E1,1.048646212E0,-2.785719931E-1,2.445660114E0
3.298148000E1,1.270704389E0,-4.250051379E-1,1.947490692E0
3.300148312E1,1.352246165E0,-4.218460917E-1,1.319992542E0
3.302348000E1,1.148496509E0,-2.931629419E-1,5.099328160E-1
3.304348312E1,6.998770237E-1,-1.805194020E-1,-2.594606578E-1
3.306549875E1,1.218065247E-1,-8.866272867E-3,-1.177695870E0
3.308747844E1,-3.711791635E-1,1.781632155E-1,-1.952168226E0
3.310748000E1,-6.513394117E-1,1.587027907E-1,-2.330538034E0
3.312948000E1,-7.928507328E-1,-1.705710292E-1,-2.732539892E0
3.314948000E1,-9.076933861E-1,-5.420469046E-1,-3.262177467E0
3.317148000E1,-1.070811868E0,-8.836427331E-1,-3.932436228E0
3.319148000E1,-1.195114255E0,-1.082488060E0,-4.372591019E0
3.321148000E1,-1.220508695E0,-1.164937496E0,-4.498917580E0
3.323148000E1,-1.085804224E0,-1.203701258E0,-4.410796165E0
3.325148000E1,-7.723081708E-1,-1.192461252E0,-4.273019791E0
3.327148000E1,-4.255985320E-1,-1.083570242E0,-4.175316334E0
3.329348938E1,-1.541649252E-1,-8.484045267E-1,-4.134981632E0
3.331547844E1,-2.930407785E-2,-5.551368594E-1,-3.996873856E0
3.333548000E1,2.672099136E-2,-3.677234054E-1,-3.805812597E0
3.335748156E1,-3.211405827E-3,-2.420422584E-1,-3.485963583E0
3.337947844E1,-2.542944625E-2,-3.132866025E-1,-3.119653940E0
3.339948469E1,-1.360484213E-1,-4.429645538E-1,-2.834885836E0
3.342148000E1,-3.706904650E-1,-4.998972118E-1,-2.601343393E0
3.344148156E1,-6.536781788E-1,-3.937462866E-1,-2.371500969E0
3.346348000E1,-9.613273740E-1,-3.413863853E-2,-2.034652472E0
3.348348312E1,-1.105404258E0,3.221354187E-1,-1.646334171E0
3.350548156E1,-1.067617893E0,6.255783439E-1,-1.239148855E0
3.352747844E1,-9.719389677E-1,8.398349881E-1,-8.990889192E-1
3.354747844E1,-9.638755322E-1,8.927010298E-1,-5.531122684E-1
3.356747844E1,-9.336813092E-1,8.691216111E-1,-9.763371944E-2
3.358747844E1,-8.728566170E-1,7.937932014E-1,5.502499342E-1
3.360748469E1,-8.860687613E-1,5.238780379E-1,1.370502353E0
3.362947844E1,-9.306444526E-1,9.628981352E-2,2.276066303E0
3.364948625E1,-6.968052387E-1,-3.237062097E-1,2.875883818E0
3.367148000E1,-1.533097178E-1,-5.937260985E-1,3.280800104E0
3.369148781E1,4.501902163E-1,-6.313379407E-1,3.511759520E0
3.371348000E1,9.827250838E-1,-6.370451450E-1,3.748932362E0
3.373348000E1,1.212864161E0,-6.557725668E-1,3.995041132E0
3.375348000E1,1.160434484E0,-5.714207888E-1,4.202299118E0
3.377348625E1,9.798802137E-1,-4.829325974E-1,4.235931396E0
3.379548000E1,8.635889292E-1,-3.702366948E-1,4.155646324E0
3.381548000E1,7.918733358E-1,-1.431868076E-1,4.033228874E0
3.383548000E1,7.116754651E-1,9.234537184E-2,3.955823660E0
3.385748625E1,5.999569297E-1,4.222649634E-1,3.973032475E0
3.387752219E1,6.139544845E-1,5.309989452E-1,3.918927431E0
3.389947844E1,8.182801604E-1,2.742435932E-1,3.460865736E0
3.391948000E1,1.002499700E0,-1.967684180E-1,2.849703789E0
3.393948156E1,1.126732230E0,-6.260670424E-1,2.396738529E0
3.396148000E1,1.315472126E0,-7.166671157E-1,2.145288944E0
3.398148781E1,1.485624313E0,-4.711690843E-1,1.869579196E0
3.400348000E1,1.419493675E0,6.586872786E-2,1.326328039E0
3.402348313E1,1.080446124E0,7.059333324E-1,6.774321198E-1
3.404547844E1,6.916565299E-1,1.186562061E0,1.198517606E-1
3.406549875E1,4.476245940E-1,1.073307633E0,-1.853190660E-1
3.408747844E1,1.668709219E-1,4.132415950E-1,-5.095663071E-1
3.410748000E1,-6.262241304E-2,-3.000046313E-1,-9.580286741E-1
3.412947844E1,-2.652202249E-1,-7.890284657E-1,-1.538368106E0
3.414948000E1,-4.646590054E-1,-1.011784792E0,-2.008437634E0
3.417148625E1,-8.331329226E-1,-1.187766314E0,-2.578706503E0
3.419348000E1,-1.157938719E0,-1.266759992E0,-3.190025568E0
3.421348000E1,-1.288698792E0,-1.294615388E0,-3.641088486E0
3.423348000E1,-1.302713752E0,-1.284859061E0,-3.831870317E0
3.425548469E1,-1.279326320E0,-1.263496161E0,-3.759701014E0
3.427747844E1,-1.170784354E0,-1.239288449E0,-3.650391102E0
3.429748469E1,-9.944711328E-1,-1.238991737E0,-3.646341801E0
3.431947844E1,-8.028514385E-1,-1.169457912E0,-3.728529453E0
3.433948000E1,-6.201503873E-1,-9.564055204E-1,-3.732107401E0
3.435948000E1,-4.710818231E-1,-6.804340482E-1,-3.659135103E0
3.438148000E1,-3.678106964E-1,-4.019667804E-1,-3.507117033E0
3.440148000E1,-2.735454440E-1,-3.222575784E-1,-3.314135790E0
3.442148312E1,-2.722539008E-1,-3.347890675E-1,-3.139463425E0
3.444347844E1,-3.866951466E-1,-3.467271030E-1,-2.960584641E0
3.446348156E1,-5.939355493E-1,-2.637541592E-1,-2.767533779E0
3.448548000E1,-9.009040594E-1,2.303834632E-2,-2.501178980E0
3.450548313E1,-1.255275726E0,5.471781492E-1,-2.296137810E0
3.452747844E1,-1.534615636E0,1.119646192E0,-2.008036137E0
3.454748000E1,-1.563308835E0,1.437610269E0,-1.684748888E0
3.456948000E1,-1.536832213E0,1.472569227E0,-1.279989600E0
3.458948938E1,-1.464348674E0,1.273008227E0,-7.749611139E-1
3.461147844E1,-1.126575112E0,8.223468065E-1,-5.918411538E-2
3.463148000E1,-5.419945717E-1,3.080331683E-1,8.194844127E-1
3.465348625E1,-7.073819637E-2,-1.779712290E-1,1.886107445E0
3.467547844E1,8.808676898E-2,-5.904623270E-1,2.882184267E0
3.469548781E1,1.833992004E-1,-6.806609631E-1,3.556928635E0
3.471747844E1,2.853438854E-1,-6.345667839E-1,3.966644764E0
3.473748156E1,3.595727384E-1,-4.750437140E-1,4.004012108E0
3.475947844E1,5.062327385E-1,-2.818532288E-1,3.933657885E0
3.477948312E1,7.245036364E-1,-1.562069654E-1,3.982387543E0
3.480148000E1,8.366584778E-1,4.895648360E-2,4.115085125E0
3.482148156E1,7.907737494E-1,2.779611349E-1,4.207761765E0
3.484348000E1,6.895796061E-1,5.828875899E-1,4.216104507E0
3.486549875E1,7.187440395E-1,7.777885199E-1,4.079934120E0
3.488748781E1,7.799876332E-1,8.999615908E-1,3.921964169E0
3.490947844E1,7.642447948E-1,1.007072449E0,3.879308462E0
3.492948000E1,7.200530171E-1,1.036743045E0,3.896587133E0
3.495148000E1,7.385884523E-1,8.495389819E-1,3.872344494E0
3.497148000E1,8.196066022E-1,4.969126880E-1,3.759316921E0
3.499148000E1,9.157393575E-1,1.289100200E-1,3.530521870E0
3.501148000E1,1.060147882E0,-1.770636588E-1,3.189903259E0
3.503148000E1,1.241644621E0,-4.053003490E-1,2.822022915E0
3.505148000E1,1.403454185E0,-5.522221923E-1,2.406669378E0
3.507148000E1,1.471120596E0,-6.236061454E-1,1.854813695E0
3.509148000E1,1.298612237E0,-6.035522819E-1,1.116295099E0
3.511148469E1,8.168140650E-1,-4.501029551E-1,3.285233378E-1
3.513349719E1,5.701990798E-2,-3.014881611E-1,-6.561041474E-1
3.515548000E1,-6.098529696E-1,-1.925796270E-1,-1.681362987E0
3.517748625E1,-9.885894060E-1,6.949900836E-2,-2.255768299E0
3.519947844E1,-1.057337880E0,-7.312929723E-3,-2.454840422E0
3.521948156E1,-1.024682760E0,-4.340808392E-1,-2.728770018E0
3.524148000E1,-1.030791402E0,-1.110814810E0,-3.205995321E0
3.526148156E1,-1.058315277E0,-1.709550023E0,-3.619673252E0
3.528347844E1,-1.083866954E0,-2.123280287E0,-3.851854324E0
3.530348312E1,-1.117778659E0,-2.190632582E0,-3.885748625E0
3.532547844E1,-1.043829083E0,-2.048178673E0,-3.900950432E0
3.534548000E1,-8.783195019E-1,-1.820605278E0,-4.028551579E0
3.536550188E1,-7.733379602E-1,-1.509954095E0,-4.237589359E0
3.538748000E1,-7.299490571E-1,-1.089417100E0,-4.328207016E0
3.540748000E1,-7.269819975E-1,-7.938979268E-1,-4.325187683E0
3.542748156E1,-7.434579134E-1,-5.129173398E-1,-4.230800152E0
3.544947844E1,-8.561712503E-1,-2.746101022E-1,-4.012686253E0
3.546948313E1,-1.058018565E0,-1.482657194E-1,-3.723014116E0
3.549148000E1,-1.137605548E0,1.934871972E-1,-3.131103277E0
3.551148000E1,-8.325220346E-1,5.749638081E-1,-2.333801985E0
3.553148625E1,-3.974114656E-1,8.191528320E-1,-1.550917029E0
3.555348000E1,-1.853539608E-2,8.359603286E-1,-9.137845635E-1
3.557348000E1,1.902757883E-1,7.350105047E-1,-5.027595162E-1
3.559348156E1,3.576877713E-1,4.041833580E-1,-1.404291838E-1
3.561548000E1,5.051855445E-1,-9.953612834E-2,1.652128696E-1
3.563548625E1,6.406754851E-1,-4.143237174E-1,4.415682852E-1
3.565748000E1,7.632499337E-1,-5.684013963E-1,8.573406339E-1
3.567748000E1,4.747470021E-1,-4.623377025E-1,1.289466739E0
3.569947844E1,-5.205095410E-1,-9.107127786E-2,1.786222339E0
3.571948000E1,-1.360850692E0,2.848202884E-1,2.121028900E0
3.574148000E1,-1.643541694E0,5.990319252E-1,2.375532627E0
3.576348000E1,-1.141166091E0,6.853209734E-1,2.630734682E0
3.578547844E1,-2.539628446E-1,5.637239218E-1,2.959729433E0
3.580548000E1,3.915646076E-1,4.836132824E-1,3.280747652E0
3.582548469E1,6.462430358E-1,4.847652018E-1,3.532075167E0
3.584747844E1,6.761056185E-1,5.675461888E-1,3.814294815E0
3.586748000E1,6.358408928E-1,7.103838921E-1,4.075186729E0
3.588947844E1,6.494544744E-1,7.486066222E-1,4.398177147E0
3.590947844E1,8.969596028E-1,6.673964262E-1,4.645420551E0
3.592948000E1,1.336992025E0,5.674239993E-1,4.758046627E0
3.594948000E1,1.764370799E0,5.474573970E-1,4.689908981E0
3.597148000E1,2.038282871E0,6.030287147E-1,4.472772598E0
3.599148469E1,2.200144529E0,6.747617126E-1,4.192577362E0
3.601348000E1,2.326314449E0,7.417823672E-1,3.898402214E0
3.603348000E1,2.367661238E0,7.308217287E-1,3.662695646E0
3.605348000E1,2.456760406E0,6.410943270E-1,3.437809944E0
3.607348000E1,2.415012121E0,6.449340582E-1,3.289910793E0
3.609348000E1,2.154067993E0,7.869689465E-1,2.947250128E0
3.611348000E1,2.391572237E0,5.822942257E-1,2.419235706E0
3.613348625E1,2.660946369E0,2.197369486E-1,1.849769711E0
3.615548156E1,2.249537468E0,-1.471312530E-2,9.427570701E-1
3.617548312E1,1.596854091E0,-1.975538135E-1,2.365619242E-1
3.619747844E1,7.769333124E-1,-4.461410642E-1,-7.128273845E-1
3.621748000E1,-7.496189326E-2,-5.649107099E-1,-1.736061573E0
3.623947844E1,-1.149194598E0,-8.433082104E-1,-2.530657530E0
3.625947844E1,-2.195502043E0,-1.655671716E0,-2.886704683E0
3.627948000E1,-3.140405893E0,-2.564639091E0,-3.248319626E0
3.629948781E1,-3.789808035E0,-3.231843710E0,-3.807435751E0
3.632148000E1,-4.061311245E0,-3.730484247E0,-4.377635002E0
3.634148625E1,-4.046790123E0,-3.824539900E0,-4.795379162E0
3.636347844E1,-3.942821026E0,-3.045285463E0,-5.153101921E0
3.638348000E1,-3.608834743E0,-2.097327232E0,-5.557145596E0
3.640348000E1,-3.144210577E0,-1.111006737E0,-5.912930965E0
3.642348313E1,-2.720636606E0,-1.241103634E-1,-6.193911552E0
3.644548000E1,-2.302543163E0,8.007745147E-1,-6.146054745E0
3.646550656E1,-1.894450188E0,1.365405917E0,-5.753791809E0
3.648747844E1,-1.406613231E0,1.335700512E0,-5.024157047E0
3.650748312E1,-1.084879160E0,9.955532551E-1,-4.324000835E0
3.652947844E1,-9.136973023E-1,5.250124931E-1,-3.791186810E0
3.654947844E1,-9.000837207E-1,9.450957924E-2,-3.505458832E0
3.656948000E1,-9.142732620E-1,-1.307949722E-1,-3.265999794E0
3.658948312E1,-9.361073375E-1,-1.714960486E-1,-3.034342051E0
3.661147844E1,-8.796982765E-1,-2.341708243E-1,-2.578252792E0
3.663148312E1,-6.710441709E-1,-1.652128696E-1,-2.088460922E0
3.665348000E1,-2.520779073E-1,5.113814492E-3,-1.574810624E0
3.667348156E1,1.852143407E-1,8.930850029E-2,-1.002569437E0
3.669547844E1,4.517435730E-1,2.409776151E-1,-2.015506178E-1
3.671548469E1,2.371204346E-1,5.081176758E-1,7.008718848E-1
3.673747844E1,-2.839476168E-1,7.187615037E-1,1.819872260E0
3.675748000E1,-4.556879997E-1,6.015102863E-1,2.682745695E0
3.677948000E1,3.794345632E-2,4.558625519E-1,3.384769440E0
3.680148000E1,6.838025451E-1,1.811477244E-1,3.982178211E0
3.682148000E1,9.800722003E-1,-7.545058429E-2,4.497661114E0
3.684148000E1,9.103986621E-1,-2.775946259E-1,4.953052521E0
3.686148000E1,5.436002612E-1,-3.121346831E-1,5.299064159E0
3.688148781E1,8.730136603E-2,-2.011142820E-1,5.460419655E0
3.690348000E1,-2.587625086E-1,1.219985113E-1,5.405668736E0
3.692348000E1,-2.526538670E-1,5.726774335E-1,5.258484840E0
3.694548000E1,7.993607782E-3,9.912772179E-1,5.051017761E0
3.696550188E1,2.343802601E-1,1.278087139E0,4.912176609E0
3.698747844E1,4.525638819E-1,1.500878453E0,4.889103413E0
3.700747844E1,7.734426260E-1,1.549398541E0,4.918076038E0
3.702747844E1,1.154029131E0,1.437784791E0,4.836028099E0
3.704748938E1,1.485275149E0,1.148095012E0,4.554419041E0
3.706948000E1,1.812681556E0,7.343996167E-1,4.178440571E0
3.708948312E1,2.153038263E0,3.369183540E-1,3.802566290E0
3.711148000E1,2.481561422E0,-7.115707546E-2,3.182031870E0
3.713148000E1,2.617889166E0,-2.351656556E-1,2.381501675E0
3.715148000E1,2.499381304E0,-8.354891092E-2,1.459636331E0
3.717148156E1,2.077308416E0,3.239680231E-1,6.006724834E-1
3.719348000E1,1.320917487E0,7.576823235E-1,-7.400196046E-2
3.721348000E1,6.040409803E-1,6.538352370E-1,-4.162959456E-1
3.723348000E1,2.200860158E-2,9.728465229E-2,-7.728317976E-1
3.725547844E1,-5.101771951E-1,-5.954365134E-1,-1.376872778E0
3.727547844E1,-8.573406339E-1,-1.057896376E0,-1.996115565E0
3.729548156E1,-1.222603083E0,-1.566572666E0,-2.531617641E0
3.731748000E1,-1.846191764E0,-2.001159668E0,-3.070714712E0
3.733748313E1,-2.451384783E0,-2.164592266E0,-3.570873737E0
3.735948000E1,-2.904402494E0,-2.143264294E0,-4.025567055E0
3.737948625E1,-3.021950245E0,-2.086820364E0,-4.308310509E0
3.740148000E1,-2.877698898E0,-1.986987591E0,-4.477886677E0
3.742148000E1,-2.559752226E0,-1.752432704E0,-4.527837753E0
3.744347844E1,-1.979953885E0,-1.479358554E0,-4.521781445E0
3.746348156E1,-1.371183038E0,-1.310375690E0,-4.517121315E0
3.748547844E1,-8.528376818E-1,-1.008014917E0,-4.571767807E0
3.750548000E1,-6.128548980E-1,-6.387904882E-1,-4.578295231E0
3.752747844E1,-5.126904845E-1,-2.385516018E-1,-4.449228287E0
3.754747844E1,-4.234343171E-1,-2.413790300E-2,-4.296825886E0
3.756747844E1,-4.546582699E-1,8.592256159E-2,-4.117179394E0
3.758748469E1,-6.180559993E-1,2.358114272E-1,-3.925489902E0
3.760948000E1,-7.861661315E-1,5.061454773E-1,-3.549319029E0
3.762948000E1,-8.302356601E-1,5.832890272E-1,-3.045145750E0
3.765148000E1,-8.979544640E-1,5.676508546E-1,-2.398117304E0
3.767148000E1,-9.031381011E-1,4.778013229E-1,-1.832421184E0
3.769348000E1,-7.549247146E-1,4.347440600E-1,-1.289292216E0
3.771348000E1,-4.490732253E-1,2.960427403E-1,-7.879638076E-1
3.773548000E1,-2.762856148E-2,-1.005833223E-1,-1.566956639E-1
3.775748000E1,3.018372357E-1,-3.904825151E-1,4.163308442E-1
3.777748469E1,3.278426528E-1,-3.407231867E-1,9.286722541E-1
3.779947844E1,1.175130159E-1,-4.918337986E-2,1.664415836E0
3.781948313E1,-8.883725852E-2,6.555456668E-2,2.552963018E0
3.784148000E1,-2.687806962E-3,-3.584906086E-2,3.460691214E0
3.786148156E1,4.027172625E-1,-1.687733382E-1,3.934041977E0
3.788348000E1,9.656034112E-1,-2.296155095E-1,4.129763126E0
3.790348312E1,1.355527401E0,-1.292241812E-1,4.128750801E0
3.792547844E1,1.529711246E0,1.783377379E-1,4.118540764E0
3.794548000E1,1.421186686E0,4.208163321E-1,4.151440144E0
3.796550188E1,1.073883653E0,6.818652153E-1,4.204288483E0
3.798748000E1,5.318192840E-1,1.021907687E0,4.210851192E0
3.800748000E1,7.391469181E-2,1.274195075E0,4.164233208E0
3.802748469E1,-1.031140536E-1,1.432740808E0,4.131194115E0
3.804947844E1,4.530874640E-2,1.457507014E0,4.147914410E0
3.806948625E1,2.006954104E-1,1.236914873E0,4.161772728E0
3.809148000E1,4.268900752E-1,7.874751091E-1,4.056284904E0
3.811148000E1,8.866097927E-1,2.917667031E-1,3.765355825E0
3.813348000E1,1.553395391E0,-2.238384783E-1,3.238440990E0
3.815548000E1,2.102493525E0,-5.632875562E-1,2.600819826E0
3.817748000E1,2.353244781E0,-7.419220209E-1,1.900262117E0
3.819947844E1,2.162480354E0,-7.225139737E-1,1.126941681E0
3.821948000E1,1.556153059E0,-4.872260988E-1,4.473104179E-1
3.824148000E1,5.296201706E-1,-1.166054457E-1,-1.459618807E-1
3.826148000E1,-4.022285640E-1,1.082453206E-1,-5.276479125E-1
3.828347844E1,-1.042834282E0,7.337363809E-2,-8.327489495E-1
3.830347844E1,-1.376401544E0,-4.029965401E-2,-1.185724378E0
3.832347844E1,-1.436720133E0,-5.743878707E-2,-1.601479173E0
3.834348469E1,-1.155582547E0,-1.896823794E-1,-1.941155195E0
3.836550188E1,-8.932245970E-1,-7.899534702E-1,-2.267165184E0
3.838747844E1,-9.276948571E-1,-1.357255340E0,-2.708209991E0
3.840747844E1,-1.079468727E0,-1.607884526E0,-3.225071669E0
3.842747844E1,-1.221363902E0,-1.683474779E0,-3.567889214E0
3.844747844E1,-1.305139780E0,-1.605423689E0,-3.652956724E0
3.846748469E1,-1.290147424E0,-1.469829082E0,-3.591712952E0
3.848948000E1,-1.089190125E0,-1.416160107E0,-3.538497925E0
3.850948000E1,-8.450709581E-1,-1.373469353E0,-3.591329098E0
3.853148000E1,-5.980195999E-1,-1.207471132E0,-3.751131535E0
3.855148156E1,-4.429645538E-1,-9.672091007E-1,-3.891857386E0
3.857348000E1,-3.945142329E-1,-5.893628001E-1,-3.937026501E0
3.859348000E1,-3.895749450E-1,-3.233571351E-1,-3.854629517E0
3.861348000E1,-4.177271128E-1,-1.901710778E-1,-3.702262163E0
3.863348156E1,-5.344023705E-1,-1.184904054E-1,-3.503154993E0
3.865548000E1,-7.676306963E-1,3.420845419E-2,-3.334276915E0
3.867748000E1,-1.023949742E0,3.490309417E-1,-3.128572464E0
3.869748000E1,-1.172163129E0,6.799278855E-1,-2.820137978E0
3.871748156E1,-1.194730282E0,9.672788978E-1,-2.345059395E0
3.873947844E1,-1.079870105E0,1.132579088E0,-1.590134621E0
3.875947844E1,-8.429940343E-1,9.743126035E-1,-7.354468107E-1
3.877948000E1,-5.568472743E-1,6.607642174E-1,7.120943163E-3
3.879948312E1,-4.135906696E-1,4.884827435E-1,5.591860414E-1
3.882148000E1,-4.859345555E-1,5.693264008E-1,1.201414824E0
3.884148625E1,-2.454282045E-1,2.771059275E-1,2.093452692E0
3.886347844E1,6.853733659E-1,-3.137229383E-1,2.911314011E0
3.888348000E1,1.832072139E0,-6.664190888E-1,3.107715845E0
3.890547844E1,2.557029486E0,-1.006775737E0,2.983448267E0
3.892547844E1,2.361151218E0,-9.039234519E-1,2.811463594E0
3.894548000E1,1.468834162E0,-3.022735715E-1,2.860350370E0
3.896550656E1,3.120997846E-1,3.781430423E-1,3.122516155E0
3.898747844E1,-7.969697118E-1,1.140118837E0,3.383425474E0
3.900748781E1,-1.190384388E0,1.623051524E0,3.518845558E0
3.902947844E1,-8.716349006E-1,1.749971867E0,3.552600145E0
3.904947844E1,-4.502774775E-1,1.569661856E0,3.476381779E0
3.906948000E1,-3.093421459E-1,1.374219894E0,3.433691025E0
3.908948156E1,-3.281567991E-1,1.321092010E0,3.445873260E0
3.911148000E1,-2.182359695E-1,1.204434276E0,3.398784399E0
3.913148312E1,2.120575123E-2,9.967226386E-1,3.284133673E0
3.915347844E1,1.172861233E-1,7.678576112E-1,3.200986147E0
3.917348156E1,1.511978656E-1,5.400397778E-1,3.199764490E0
3.919548000E1,3.275983036E-1,2.282541543E-1,3.158557177E0
3.921747844E1,5.941973329E-1,-1.894205809E-1,3.014532566E0
3.923747844E1,8.462926745E-1,-5.392543674E-1,2.866266966E0
3.925748000E1,1.103693843E0,-8.765916228E-1,2.682326794E0
3.927948000E1,1.341669440E0,-1.136506081E0,2.228174686E0
3.930148000E1,1.450368643E0,-1.156385303E0,1.462812781E0
3.932148000E1,1.350954652E0,-1.063289523E0,6.318441033E-1
3.934148000E1,1.029168248E0,-7.945611477E-1,-7.510151714E-2
3.936148000E1,7.236832976E-1,-3.398679495E-1,-6.890734434E-1
3.938148000E1,6.244264245E-1,5.169665068E-2,-1.127465248E0
3.940148000E1,5.796064138E-1,-1.340063810E-1,-1.437278628E0
3.942148000E1,4.568922818E-1,-6.022258401E-1,-1.780218363E0
3.944148000E1,2.692868412E-1,-1.003162861E0,-2.320781708E0
3.946148000E1,5.316272750E-2,-1.333937645E0,-2.820748806E0
3.948148156E1,-3.118205369E-1,-1.631865382E0,-3.089826107E0
3.950148156E1,-8.151735067E-1,-1.782592058E0,-3.149690866E0
3.952148312E1,-1.222620606E0,-1.845458746E0,-3.141208649E0
3.954347844E1,-1.416282296E0,-1.860014796E0,-3.226782084E0
3.956348313E1,-1.420069695E0,-1.905550480E0,-3.402205229E0
3.958548000E1,-1.380520582E0,-1.790219069E0,-3.616933107E0
3.960548156E1,-1.436789989E0,-1.482185960E0,-3.875922441E0
3.962747844E1,-1.575089812E0,-9.799500108E-1,-4.099621296E0
3.964748156E1,-1.664520502E0,-5.511226058E-1,-4.148315907E0
3.966947844E1,-1.665113926E0,-1.049640998E-1,-4.053265572E0
3.968948156E1,-1.576049805E0,1.363276690E-1,-3.821852207E0
3.971148000E1,-1.427277923E0,1.541998386E-1,-3.526315451E0
3.973347844E1,-1.284213305E0,1.834864616E-1,-3.195802450E0
3.975348000E1,-1.153173923E0,3.254340887E-1,-2.823942661E0
3.977348000E1,-9.842959046E-1,4.494222701E-1,-2.303485632E0
3.979348000E1,-7.687128186E-1,4.821122885E-1,-1.588912845E0
3.981348313E1,-5.287474990E-1,3.528881073E-1,-9.303302765E-1
3.983548000E1,-2.960602045E-1,3.015230894E-1,-4.929856956E-1
3.985548156E1,-2.719048560E-1,4.704709649E-1,-2.826560736E-1
3.987747844E1,-5.361302495E-1,8.855800629E-1,9.297368675E-2
3.989748000E1,-9.129118919E-1,9.389871359E-1,9.465444088E-1
3.991948000E1,-9.413259029E-1,6.726324558E-1,2.010270119E0
3.994148000E1,-2.915048897E-1,4.155105352E-1,2.481020451E0
3.996148000E1,3.804119527E-1,2.382374406E-1,2.558931828E0
3.998148000E1,7.104188204E-1,2.840174139E-1,2.661749363E0
4.000148000E1,6.705031395E-1,4.207639694E-1,2.935067892E0
4.002148781E1,3.576877713E-1,5.023406744E-1,3.337313890E0
4.004347844E1,-3.593632951E-2,4.970348477E-1,3.815446854E0
4.006348469E1,-1.460142434E-1,4.170638621E-1,4.209472179E0
4.008548000E1,8.707447350E-2,2.385341525E-1,4.583391666E0
4.010748000E1,4.514643252E-1,6.188937649E-2,4.820616722E0
4.012948469E1,6.711838245E-1,3.967133537E-2,4.884426117E0
4.015147844E1,8.034273982E-1,2.226341963E-1,4.886485577E0
4.017148781E1,9.279566407E-1,4.524766207E-1,4.765447140E0
4.019149250E1,1.041647434E0,6.767165065E-1,4.472912312E0
4.021348000E1,1.105875492E0,8.083667159E-1,4.125295162E0
4.023548000E1,1.206179619E0,8.288568854E-1,3.862151861E0
4.025748000E1,1.487561584E0,7.095984817E-1,3.630092859E0
4.027748000E1,1.818825006E0,5.190434456E-1,3.394351244E0
4.029947844E1,2.192569971E0,2.955889702E-1,3.002908707E0
4.031947844E1,2.510865450E0,-7.330382708E-3,2.422272682E0
4.033947844E1,2.669847488E0,-3.092723489E-1,1.683178067E0
4.035948000E1,2.457371235E0,-4.693714082E-1,9.081471562E-1
4.038148000E1,1.764999151E0,-4.389677644E-1,1.190140024E-1
4.040148000E1,8.033750653E-1,-3.559249938E-1,-6.358408928E-1
4.042148000E1,-2.080606967E-1,-1.265712827E-1,-1.474873066E0
4.044148000E1,-1.007770538E0,-1.785297245E-1,-2.027234793E0
4.046148312E1,-1.582996130E0,-8.959996700E-1,-2.422010899E0
4.048348000E1,-2.045770168E0,-1.790742755E0,-3.032055855E0
4.050348000E1,-2.377260685E0,-2.361029148E0,-3.657546759E0
4.052348000E1,-2.590906382E0,-2.703375340E0,-4.116533756E0
4.054348625E1,-2.716604948E0,-2.771582842E0,-4.374807358E0
4.056549875E1,-2.769715309E0,-2.408868551E0,-4.524609089E0
4.058748000E1,-2.648694277E0,-1.745556116E0,-4.574054241E0
4.060748000E1,-2.346734762E0,-1.303184986E0,-4.574054241E0
4.062748469E1,-1.985730886E0,-9.792693257E-1,-4.617111206E0
4.064948000E1,-1.643576503E0,-5.635493398E-1,-4.708810806E0
4.066948312E1,-1.380241275E0,-1.532050073E-1,-4.662333012E0
4.069148000E1,-1.094583273E0,2.387086749E-1,-4.428301811E0
4.071148000E1,-8.738688827E-1,4.303109348E-1,-4.057332039E0
4.073348000E1,-7.278372049E-1,5.029515028E-1,-3.645207405E0
4.075547844E1,-6.793345213E-1,6.564357877E-1,-3.309231520E0
4.077548000E1,-6.287723184E-1,8.076860309E-1,-3.007027864E0
4.079548000E1,-5.490456820E-1,9.242565632E-1,-2.646652222E0
4.081748156E1,-3.765722513E-1,9.290910959E-1,-2.065160751E0
4.083947844E1,-1.941329688E-1,7.035073042E-1,-1.324652553E0
4.085948000E1,-1.488940418E-1,3.287676573E-1,-5.386958718E-1
4.088148000E1,-3.412991464E-1,-1.383871585E-1,2.929011583E-1
4.090148469E1,-6.954962611E-1,-4.363672137E-1,9.247801304E-1
4.092348000E1,-8.757887483E-1,-7.880336046E-1,1.580762148E0
4.094348312E1,-3.429223001E-1,-1.779572606E0,2.398780584E0
4.096549875E1,9.676803350E-1,-2.702223539E0,3.196326256E0
4.098747844E1,2.517742157E0,-2.781949997E0,3.268984318E0
4.100748000E1,3.442539692E0,-2.044932365E0,2.703043699E0
4.102947844E1,3.349531174E0,-7.916988134E-1,2.108322859E0
4.104947844E1,2.387505770E0,3.991044462E-1,2.053519487E0
4.106947844E1,1.049431562E0,1.443753839E0,2.265192986E0
4.108947844E1,-3.203726411E-1,2.344727755E0,2.883737803E0
4.110948781E1,-1.167538047E0,2.720706463E0,3.390022755E0
4.113147844E1,-1.412076116E0,2.858343124E0,3.817890167E0
4.115148469E1,-1.240772009E0,2.702886581E0,4.124579430E0
4.117348000E1,-8.852310181E-1,2.322125673E0,4.367075443E0
4.119348000E1,-5.546656251E-1,1.880138516E0,4.429523468E0
4.121348000E1,-1.710597128E-1,1.384796619E0,4.406886578E0
4.123348312E1,4.009719491E-1,8.419817090E-1,4.276405811E0
4.125547844E1,1.145040751E0,3.215419948E-1,4.096968651E0
4.127548625E1,1.839611888E0,-8.449138701E-2,3.848765135E0
4.129747844E1,2.534968615E0,-5.154480934E-1,3.379027128E0
4.131748625E1,3.003240347E0,-7.715402246E-1,2.791793823E0
4.133947844E1,3.150982618E0,-8.401317000E-1,2.071094990E0
4.135948000E1,2.903058529E0,-6.421415210E-1,1.422617912E0
4.138148000E1,2.280342579E0,-2.411346883E-1,7.341902256E-1
4.140148000E1,1.500860929E0,8.204792440E-2,1.839751601E-1
4.142148000E1,6.166597009E-1,2.653249502E-1,-2.667910159E-1
4.144148156E1,-2.588323355E-1,1.746027321E-1,-7.978772521E-1
4.146347844E1,-9.818175435E-1,-7.766715251E-3,-1.513409853E0
4.148348156E1,-1.258207798E0,-2.720793784E-1,-2.009083509E0
4.150548000E1,-1.298036218E0,-9.828647375E-1,-2.450337648E0
4.152548781E1,-1.402773499E0,-1.747947216E0,-2.824256897E0
4.154748000E1,-1.642843485E0,-2.248908997E0,-3.204110384E0
4.156948000E1,-1.795681953E0,-2.469885111E0,-3.377054930E0
4.159148312E1,-1.668238044E0,-2.652289629E0,-3.251338959E0
4.161348000E1,-1.319468856E0,-2.777831078E0,-3.025126934E0
4.163348000E1,-9.530894160E-1,-2.684805155E0,-2.857557774E0
4.165548000E1,-6.301860213E-1,-2.457633018E0,-2.767690659E0
4.167748000E1,-4.495968223E-1,-2.075266361E0,-2.797675610E0
4.169948156E1,-5.308418870E-1,-1.628793597E0,-2.869757652E0
4.172148000E1,-8.538499475E-1,-1.091581225E0,-2.906758547E0
4.174148156E1,-1.165932298E0,-7.108725905E-1,-2.876163006E0
4.176348000E1,-1.409178853E0,-4.715181589E-1,-2.820120335E0
4.178547844E1,-1.561528563E0,-2.995508611E-1,-2.864486694E0
4.180548000E1,-1.717578530E0,-1.019272301E-2,-2.986781836E0
4.182748000E1,-1.925237775E0,5.125333667E-1,-3.112480640E0
4.184948469E1,-2.090764761E0,1.134324431E0,-3.192259550E0
4.187148000E1,-2.082753658E0,1.626995921E0,-3.043068886E0
4.189148000E1,-1.894973755E0,2.136335373E0,-2.542525768E0
4.191148000E1,-1.884763598E0,2.465766191E0,-1.710265636E0
4.193148312E1,-2.202448368E0,2.162881851E0,-9.184097052E-1
4.195348000E1,-2.460634947E0,1.562942386E0,4.138175547E-1
4.197348781E1,-2.400613070E0,1.173280120E0,1.145162821E0
4.199548000E1,-1.949742198E0,6.548824310E-1,1.984578967E0
4.201548000E1,-1.070829272E0,-5.497787148E-2,2.844171047E0
4.203748000E1,1.691747606E-1,-6.552140713E-1,3.495301008E0
4.205748313E1,1.173349977E0,-8.422086239E-1,3.615327358E0
4.207948000E1,1.782277822E0,-6.385810375E-1,3.301988363E0
4.210148000E1,1.693876982E0,-2.700722516E-1,2.835060358E0
4.212348469E1,1.176316977E0,1.088212803E-1,2.652830601E0
4.214548000E1,6.999992132E-1,4.733856618E-1,2.689307928E0
