"Time (s)","Linear Acceleration x (m/s^2)","Linear Acceleration y (m/s^2)","Linear Acceleration z (m/s^2)"
1.799843800E-2,1.072099924E0,-6.589999795E-1,-1.871699929E0
3.800000000E-2,1.062199950E0,-6.784999967E-1,-1.930699944E0
5.800000000E-2,6.751999855E-1,-6.297000051E-1,-2.025599957E0
8.800000000E-2,4.597999752E-1,-5.188999772E-1,-1.416999936E0
1.180000000E-1,9.692999721E-1,-5.209000111E-1,-9.842999578E-1
1.380078130E-1,9.754999876E-1,-4.074999988E-1,-7.991999984E-1
1.679984380E-1,1.823000014E-1,-1.770000011E-1,1.930999905E-1
1.880062500E-1,1.507999897E-1,-6.345999837E-1,1.763899922E0
2.179984380E-1,-2.901999950E-1,-6.958999634E-1,3.099799871E0
2.380015630E-1,-5.576999784E-1,-3.883000016E-1,2.072900057E0
2.680000000E-1,1.789999940E-2,-4.438999891E-1,1.328299999E0
2.880000000E-1,8.086000085E-1,-1.172399998E0,1.559999943E0
3.080000000E-1,1.082999945E0,-1.405300021E0,2.093499899E0
3.280078130E-1,6.078999639E-1,-1.097499967E0,2.603499889E0
3.579984380E-1,4.518999755E-1,-2.969999909E-1,2.107699871E0
3.780078130E-1,1.104900002E0,-3.085999787E-1,8.761000037E-1
4.080000000E-1,1.457199931E0,5.762999654E-1,-3.149999976E-1
4.379984380E-1,1.329599977E0,3.745999932E-1,-1.030900002E0
4.580000000E-1,9.698999524E-1,3.048000038E-1,-1.275099993E0
4.780046880E-1,1.567000002E-1,3.016999960E-1,-1.548299909E0
5.080000000E-1,-8.069999814E-1,1.096799970E0,-1.849200010E0
5.280031250E-1,-9.779999405E-2,6.196999550E-1,-2.155900002E0
5.580000000E-1,1.846999973E-1,7.728999853E-1,-2.466699839E0
5.780046880E-1,4.010000080E-2,1.315199971E0,-2.066499949E0
6.079984380E-1,1.150999963E-1,1.165799975E0,-1.541499972E0
6.280015630E-1,4.720000029E-1,1.151399970E0,-1.776799917E0
6.579984380E-1,4.847999811E-1,1.227800012E0,-1.327299953E0
6.780031250E-1,-1.808999926E-1,1.366500020E0,-5.742999911E-1
7.079984380E-1,-2.308999896E-1,1.051599979E0,1.359999925E-1
7.280015630E-1,-4.315999746E-1,2.739000022E-1,1.167799950E0
7.580000000E-1,-4.759999812E-1,-2.890999913E-1,1.887499928E0
7.780015630E-1,-1.252000034E-1,-8.732999563E-1,1.110399961E0
8.079984380E-1,-2.483000010E-1,-1.563699961E0,2.880599976E0
8.280015630E-1,-2.414700031E0,-6.956999898E-1,2.848799944E0
8.579984380E-1,-2.379299879E0,-3.859999776E-1,1.471199989E0
8.779984380E-1,-1.459999919E0,-1.159699917E0,8.458999991E-1
8.980000000E-1,-1.159399986E0,-4.111000001E-1,-1.984999925E-1
9.279984380E-1,-1.167199969E0,-6.199999712E-3,-2.395000011E-1
9.479984380E-1,6.076999903E-1,-3.093999863E0,3.076999903E0
9.680031250E-1,-4.389999807E-2,-2.206500053E0,-1.153699994E0
9.979984380E-1,-8.750999570E-1,2.560999990E-1,-4.585999846E-1
1.018001563E0,-6.991999745E-1,-1.057799935E0,6.239999831E-2
1.048000000E0,-1.745799899E0,-8.709999919E-2,-1.386999965E0
1.077998438E0,-7.495999932E-1,-9.012999535E-1,-1.740199924E0
1.097998438E0,-6.943999529E-1,-8.560999632E-1,-2.077499866E0
1.118004688E0,-2.039299965E0,-4.549999833E-1,-1.463099957E0
1.148000000E0,-2.525699854E0,-3.399999812E-3,-4.167500019E0
1.168003125E0,-1.218599916E0,3.339999914E-1,-3.108700037E0
1.198000000E0,5.243999958E-1,1.192399979E0,1.726000011E-1
1.218003125E0,5.902999640E-1,1.194299936E0,7.143999934E-1
1.247998438E0,-5.134999752E-1,-6.240999699E-1,-2.355999947E-1
1.268000000E0,4.472000003E-1,-6.656999588E-1,2.497699976E0
1.297998438E0,2.903199911E0,-1.417799950E0,1.280699968E0
1.318003125E0,2.848799944E0,-4.219999909E-1,2.187299967E0
1.348000000E0,8.111999631E-1,-1.127099991E0,2.422600031E0
1.368004688E0,-2.939999849E-2,-8.357999921E-1,1.510699987E0
1.397998438E0,1.323799968E0,-5.054000020E-1,3.176999986E-1
1.418000000E0,2.060499907E0,-4.884999990E-1,-2.754999995E-1
1.448000000E0,1.734299898E0,-3.614999950E-1,-1.290099978E0
1.468000000E0,6.547999978E-1,-1.591999978E-1,-1.936199903E0
1.488000000E0,1.034500003E0,-6.875999570E-1,-1.714999914E0
1.508006250E0,-3.332999945E-1,1.136999950E-1,-1.866599917E0
1.537998438E0,-8.077999949E-1,1.194100022E0,-1.637199998E0
1.557998438E0,-2.199999988E-3,6.681999564E-1,-1.283699989E0
1.577998438E0,9.326999784E-1,-3.736999929E-1,-3.122599840E0
1.597998438E0,-2.487999946E-1,7.225999832E-1,-3.415199995E0
1.618001563E0,-5.925999880E-1,9.899999499E-1,-2.065999985E0
1.648000000E0,3.628999889E-1,8.387999535E-1,2.493999898E-1
1.677998438E0,6.762999892E-1,-6.510999799E-1,-1.331599951E0
1.698000000E0,-2.397999913E-1,6.674999595E-1,-1.498099923E0
1.727998438E0,-6.459999681E-1,1.424299955E0,-7.335999608E-1
1.748000000E0,1.709999889E-1,8.856999874E-1,-4.217000008E-1
1.768000000E0,6.455000043E-1,6.011999846E-1,1.217299938E0
1.788000000E0,2.820999920E-1,-1.682000011E-1,2.600499868E0
1.808004688E0,-4.915999770E-1,-2.821999788E-1,2.377199888E0
1.838000000E0,-8.797000051E-1,5.680000037E-2,2.674999833E-1
1.858004688E0,-1.100099921E0,4.759999812E-1,8.131999969E-1
1.887998438E0,-1.520799994E0,-8.491999507E-1,2.562999964E0
1.908000000E0,-1.872900009E0,-7.996999621E-1,2.278800011E0
1.937998438E0,-1.130800009E0,-9.144999981E-1,6.289999932E-2
1.957998438E0,-8.125000000E-1,-1.032699943E0,-4.560999870E-1
1.978000000E0,-9.851999879E-1,-1.042899966E0,-1.141099930E0
1.998006250E0,-1.334200025E0,-7.512999773E-1,-1.872999907E0
2.027998438E0,-1.252900004E0,-2.233999968E-1,-2.212199926E0
2.048006250E0,-8.804000020E-1,3.283999860E-1,-1.461099982E0
2.077998438E0,-9.067999721E-1,5.999000072E-1,-2.310799837E0
2.098006250E0,-8.455999494E-1,2.759000063E-1,-2.192899942E0
2.128000000E0,2.195999920E-1,-4.089999795E-1,-2.329799891E0
2.148000000E0,-6.279999763E-2,3.779999912E-2,-9.921999574E-1
2.177998438E0,-6.218000054E-1,7.759999633E-1,-8.430999517E-1
2.198007813E0,-5.195999742E-1,1.082800031E0,-2.442999929E-1
2.227998438E0,9.409999847E-2,4.699999932E-3,-2.741999924E-1
2.248004688E0,9.259999543E-2,-1.872999966E-1,6.055999994E-1
2.278000000E0,-1.352999955E-1,6.089999899E-2,2.224499941E0
2.298004688E0,-3.849999979E-2,2.119999975E-1,2.265499830E0
2.328000000E0,5.277000070E-1,4.116999805E-1,2.310099840E0
2.348004688E0,1.027199984E0,-1.063999981E-1,1.664499998E0
2.378000000E0,1.451799989E0,-7.967999578E-1,8.470000029E-1
2.398000000E0,9.228000045E-1,-1.008100033E0,1.589399934E0
2.428000000E0,8.888999820E-1,-1.094900012E0,1.036899924E0
2.448003125E0,9.939999580E-1,-7.445999980E-1,-2.821999788E-1
2.477998438E0,6.208999753E-1,-3.159999847E-1,-1.362499952E0
2.497998438E0,3.076999784E-1,7.499999832E-3,-1.729200006E0
2.517998438E0,3.206000030E-1,-8.389999717E-2,-2.205899954E0
2.538001563E0,5.026000142E-1,-2.945999801E-1,-2.060899973E0
2.567998438E0,-2.678000033E-1,-2.175000012E-1,-1.147099972E0
2.588003125E0,-7.272999883E-1,1.160999984E-1,-1.415899992E0
2.618000000E0,-1.186999977E-1,4.008999765E-1,-2.427099943E0
2.638004688E0,1.806999892E-1,4.256999791E-1,-2.325399876E0
2.667998438E0,2.403999865E-1,3.436000049E-1,-1.447099924E0
2.688003125E0,3.499999875E-3,4.605000019E-1,-1.656099916E0
2.717998438E0,-1.920999885E-1,6.523000002E-1,-1.251899958E0
2.738004688E0,-2.491999865E-1,7.012999654E-1,-6.261000037E-1
2.768000000E0,-4.544999897E-1,7.317000031E-1,6.021999717E-1
2.788000000E0,-1.289999951E-2,4.893999994E-1,1.199699998E0
2.817998438E0,1.155499935E0,-4.582999945E-1,1.900299907E0
2.838006250E0,-1.615999937E-1,-9.829999506E-2,1.552899957E0
2.867998438E0,-1.051200032E0,5.414999723E-1,1.164499998E0
2.888004688E0,-4.302999973E-1,-8.659999818E-2,2.334399939E0
2.918000000E0,-1.351300001E0,-2.513000071E-1,3.302399874E0
2.938070313E0,-1.553399920E0,-1.284999996E-1,2.426499844E0
2.967998438E0,-1.368699908E0,2.974999845E-1,-5.960999727E-1
2.988000000E0,-8.804000020E-1,1.994999945E-1,-1.951799989E0
3.017998438E0,-1.274999976E-1,-7.506999969E-1,-1.386399984E0
3.037998438E0,4.459999874E-2,-1.240800023E0,-8.806999922E-1
3.058000000E0,-2.120999992E-1,-1.396899939E0,-1.197899938E0
3.078004688E0,-5.289999843E-1,-1.371899962E0,-2.091699839E0
3.107998438E0,-6.690999866E-1,-1.171399951E0,-2.937199831E0
3.128004688E0,-5.503000021E-1,-1.126500010E0,-3.067499876E0
3.158000000E0,-4.736000001E-1,-8.143000007E-1,-3.270499945E0
3.178003125E0,-6.371999979E-1,-2.538999915E-1,-2.892199993E0
3.207998438E0,-7.164999843E-1,3.242000043E-1,-1.843799949E0
3.228003125E0,-7.942999601E-1,7.136999965E-1,-1.406599998E0
3.258000000E0,-7.106999755E-1,1.072199941E0,-7.189999819E-1
3.278006250E0,-5.051000118E-1,9.422000051E-1,1.794999987E-1
3.307998438E0,-9.719999880E-2,4.724999964E-1,2.508100033E0
3.328004688E0,1.352999955E-1,4.111000001E-1,2.875599861E0
3.357998438E0,3.780999780E-1,4.560999870E-1,1.304499984E0
3.378001563E0,5.224999785E-1,4.769999981E-1,1.320099950E0
3.408000000E0,2.243599892E0,-1.164499998E0,4.248099804E0
3.428006250E0,2.538599968E0,-1.033100009E0,4.547499657E0
3.457998438E0,2.895799875E0,-6.261999607E-1,1.434099913E0
3.478004688E0,3.114300013E0,-6.126999855E-1,-1.144699931E0
3.507998438E0,1.762799978E0,-9.299999475E-2,-2.560799837E0
3.528003125E0,7.852999568E-1,-2.842999995E-1,-2.142499924E0
3.558000000E0,-4.520999789E-1,-4.388999939E-1,-1.572199941E0
3.578001563E0,-8.392999768E-1,-4.594999850E-1,-1.218599916E0
3.607998438E0,-4.289999902E-1,-1.278999895E-1,-1.706999898E0
3.628000000E0,6.279999763E-2,-5.279999971E-2,-2.843299866E0
3.658000000E0,3.211999834E-1,-3.409999982E-2,-3.736899853E0
3.687998438E0,1.694999933E-1,1.318999976E-1,-3.524899960E0
3.708000000E0,1.290999949E-1,2.127999961E-1,-3.201799870E0
3.728000000E0,1.736999899E-1,1.367999911E-1,-2.435699940E0
3.758000000E0,2.590000033E-1,7.490000129E-2,-5.544999838E-1
3.787998438E0,-5.756999850E-1,3.233999908E-1,7.910999656E-1
3.807998438E0,-7.398999929E-1,6.150999665E-1,7.524999976E-1
3.828000000E0,-6.017999649E-1,7.256000042E-1,8.567000031E-1
3.848000000E0,-8.695999980E-1,7.676999569E-1,1.198300004E0
3.868001563E0,-1.321200013E0,8.388999701E-1,1.310699940E0
3.897998438E0,-9.794999957E-1,1.210899949E0,3.112699986E0
3.918004688E0,-2.611999810E-1,6.553999782E-1,6.675099850E0
3.947998438E0,-1.056999922E0,5.113999844E-1,6.730799675E0
3.968004688E0,-1.992599964E0,1.093199968E0,4.702799797E0
3.997998438E0,-2.200999975E0,1.471300006E0,3.302299976E0
4.018003125E0,-2.809399843E0,1.691299915E0,2.774299860E0
4.048000000E0,-2.711799860E0,1.918599963E0,2.741499901E0
4.077998438E0,-1.327399969E0,2.425799847E0,3.126999855E0
4.097998438E0,5.989999697E-2,2.639099836E0,2.817499876E0
4.118000000E0,9.344999790E-1,1.930399895E0,1.572399974E0
4.147998438E0,2.065099955E0,7.583000064E-1,-1.065999985E0
4.167998438E0,1.739099979E0,1.640000008E-2,-2.121199846E0
4.188000000E0,-5.570000038E-2,-3.376999795E-1,-2.001499891E0
4.208007813E0,-1.102100015E0,-1.560599923E0,-1.490599990E0
4.237998438E0,-3.583999872E-1,-3.123499870E0,4.328999817E-1
4.258003125E0,-5.083000064E-1,-3.954199791E0,1.300799966E0
4.287998438E0,2.734999955E-1,-5.019399643E0,-7.719999552E-1
4.307998438E0,1.366500020E0,-4.665800095E0,-1.208500028E0
4.327998438E0,2.249099970E0,-4.182300091E0,-6.624999642E-1
4.348000000E0,1.887299895E0,-4.197000027E0,-2.030400038E0
4.377998438E0,-7.335000038E-1,-2.995100021E0,-3.423399925E0
4.397998438E0,1.105000004E-1,-2.039200068E0,-2.102599859E0
4.417998438E0,6.006999612E-1,-2.065299988E0,-5.442999601E-1
4.437998438E0,4.682999849E-1,-1.938399911E0,-5.990999937E-1
4.458001563E0,8.022999763E-1,-1.203899980E0,-2.778800011E0
4.488000000E0,1.509199977E0,-5.022000074E-1,-3.698599815E0
4.508003125E0,8.891999722E-1,-1.626999974E-1,-2.315999985E0
4.528039063E0,1.252999902E-1,2.249999940E-1,-1.278900027E0
4.558004688E0,-1.215000004E-1,1.228999943E-1,-9.383999705E-1
4.588006250E0,-1.251000017E-1,-3.851999938E-1,-4.944999814E-1
4.618000000E0,2.552999854E-1,-8.348999619E-1,-7.656999826E-1
4.648003125E0,5.739999935E-2,-1.292199969E0,-1.564499974E0
4.677998438E0,-6.782999635E-1,-1.499899983E0,-1.578699946E0
4.698000000E0,-9.113000035E-1,-1.230599999E0,-1.656099916E0
4.727998438E0,-3.182999790E-1,-7.123000026E-1,-1.714100003E0
4.747998438E0,-8.479999751E-2,-1.105999947E-1,-1.049399972E0
4.768000000E0,-1.140999943E-1,7.095999718E-1,-4.136999846E-1
4.798004688E0,4.999999702E-2,1.172799945E0,-1.095199943E0
4.827998438E0,4.609999806E-2,1.395900011E0,-7.816999555E-1
4.848001563E0,2.819999866E-2,1.714299917E0,6.383000016E-1
4.877998438E0,-6.075999737E-1,1.677999973E0,1.652300000E0
4.898004688E0,-4.922999740E-1,1.533699989E0,1.363399982E0
4.927998438E0,6.816999912E-1,1.316299915E0,2.052199841E0
4.948006250E0,2.651000023E-1,6.645999551E-1,3.273099899E0
4.978000000E0,-8.450999856E-1,-1.516999900E-1,3.624099970E0
5.007998438E0,-5.746999979E-1,-3.759000003E-1,3.372299910E0
5.027998438E0,-2.965999842E-1,-4.583999813E-1,2.644399881E0
5.048001563E0,-4.833999872E-1,-6.786999702E-1,1.381099939E0
5.077998438E0,-5.209999681E-1,-1.383899927E0,-8.339999914E-1
5.098004688E0,-3.350999951E-1,-1.635199904E0,-1.638099909E0
5.127998438E0,-3.819999993E-1,-2.223899841E0,-2.932199955E0
5.148006250E0,-6.243999600E-1,-2.612900019E0,-3.800299883E0
5.178000000E0,-1.254899979E0,-2.743499994E0,-4.838200092E0
5.198000000E0,-1.662999988E0,-2.837599993E0,-5.475800037E0
5.227998438E0,-1.590399981E0,-2.903800011E0,-5.891999722E0
5.248000000E0,-1.964299917E0,-2.807999849E0,-5.638499737E0
5.268000000E0,-1.169799924E0,-3.841899872E0,-4.985300064E0
5.288006250E0,-6.575999856E-1,-4.711699963E0,-3.054100037E0
5.317998438E0,-1.714999974E-1,-4.681900024E0,-1.695999950E-1
5.338006250E0,2.735999823E-1,-4.009999752E0,1.719999872E-2
5.367998438E0,8.424999714E-1,-3.313199997E0,-1.790599942E0
5.388010938E0,2.340899944E0,-3.721299887E0,-1.697600007E0
5.418000000E0,4.726799965E0,-4.701699734E0,4.973000050E0
5.438003125E0,3.608999968E0,-4.084700108E0,8.001299858E0
5.467998438E0,1.606400013E0,-1.485899925E0,6.996299744E0
5.488001563E0,1.168699980E0,-2.048999965E-1,7.460499763E0
5.517998438E0,7.706999779E-1,1.719399929E0,5.541500092E0
5.538004688E0,8.350999951E-1,2.584300041E0,3.207599878E0
5.567998438E0,1.812999994E-1,3.314399958E0,2.866999865E0
5.588001563E0,-9.205999970E-1,3.618799925E0,2.572299957E0
5.618000000E0,-1.988699913E0,3.678599834E0,5.485999584E-1
5.638006250E0,-2.292599916E0,3.462599993E0,-4.759999737E-2
5.667998438E0,-2.146100044E0,3.208899975E0,-2.046999931E-1
5.688004688E0,-1.559700012E0,3.062299967E0,1.163999960E-1
5.717998438E0,-5.558999777E-1,2.553400040E0,1.071200013E0
5.737998438E0,-2.721999884E-1,1.725399971E0,1.263800025E0
5.758000000E0,-7.232999802E-1,1.431899905E0,1.108600020E0
5.778006250E0,-7.832999825E-1,1.039600015E0,1.293499947E0
5.807998438E0,-4.299999774E-2,4.435999990E-1,1.632799983E0
5.827998438E0,8.894999623E-1,-3.920999765E-1,1.793799996E0
5.848000000E0,4.219000041E-1,5.449999869E-2,2.062500000E0
5.878004688E0,3.850999773E-1,-4.068999887E-1,8.502999544E-1
5.908000000E0,2.620999813E-1,-6.894999743E-1,2.147699833E0
5.928003125E0,-4.079999775E-2,-1.393700004E0,3.809499979E0
5.957998438E0,-7.425000072E-1,-1.478299975E0,3.504400015E0
5.978003125E0,-7.771999836E-1,-1.401700020E0,1.881299973E0
6.007998438E0,-5.734999776E-1,-1.313399911E0,2.229999937E-2
6.028003125E0,-8.470999599E-1,-1.390599966E0,-6.972999573E-1
6.058000000E0,-1.394899964E0,-1.087999940E0,-2.504999876E0
6.078003125E0,-1.273899913E0,-6.376000047E-1,-3.267199993E0
6.107998438E0,-9.946999550E-1,-7.980999947E-1,-3.415400028E0
6.128000000E0,-1.006999969E0,-5.141999722E-1,-3.195600033E0
6.157998438E0,-5.866000056E-1,-9.749999642E-1,-2.851399899E0
6.178000000E0,-4.472999871E-1,-1.216099977E0,-2.196399927E0
6.198000000E0,-4.384000003E-1,-1.347599983E0,-1.408999920E0
6.218003125E0,-5.036000013E-1,-1.138700008E0,-1.411199927E0
6.247998438E0,2.964999974E-1,-9.381999969E-1,-1.782199979E0
6.268004688E0,5.577999949E-1,-9.638999701E-1,-1.127300024E0
6.297998438E0,6.387000084E-1,-1.058799982E0,-3.698999882E-1
6.318000000E0,8.230999708E-1,-7.856000066E-1,6.929999590E-2
6.338000000E0,1.182999969E0,-2.483999878E-1,6.405000091E-1
6.368006250E0,1.208500028E0,-2.319999970E-2,3.043999970E-1
6.397998438E0,2.452399969E0,-1.052699924E0,1.319999933E0
6.418004688E0,1.730699897E0,-9.399999976E-1,4.002200127E0
6.447998438E0,2.206999958E-1,-1.986999959E-1,3.603099823E0
6.468004688E0,8.215000033E-1,-6.719999760E-2,9.067999721E-1
6.497998438E0,1.606999993E0,-1.049999986E-2,-1.003700018E0
6.518001563E0,1.206399918E0,-3.046000004E-1,-7.615000010E-1
6.548000000E0,-1.239999942E-2,-4.422999918E-1,-4.309999943E-1
6.568007813E0,-3.993999958E-1,-3.797000051E-1,-7.978000045E-1
6.597998438E0,-9.509999752E-1,-1.177999973E-1,-2.056499958E0
6.618004688E0,-1.020499945E0,7.499999832E-3,-2.755300045E0
6.647998438E0,-7.997999787E-1,1.492999941E-1,-3.150300026E0
6.668003125E0,-5.001999736E-1,1.608999968E-1,-3.016799927E0
6.697998438E0,-5.052999854E-1,1.812999994E-1,-2.474799871E0
6.718000000E0,-6.028000116E-1,2.386999875E-1,-2.141499996E0
6.738000000E0,-5.945999622E-1,3.792999983E-1,-1.838099957E0
6.758000000E0,-4.512999952E-1,5.261999965E-1,-1.782099962E0
6.778000000E0,-4.535999894E-1,6.717999578E-1,-1.587299943E0
6.807998438E0,-5.860999823E-1,8.729999661E-1,-3.524000049E-1
6.827998438E0,-1.032999977E-1,6.557999849E-1,7.109000087E-1
6.848000000E0,3.880999982E-1,4.463000000E-1,1.249799967E0
6.877998438E0,-3.029999882E-2,4.030999839E-1,1.366199970E0
6.897998438E0,-2.282999903E-1,-3.194999993E-1,3.494899988E0
6.918000000E0,2.630000003E-2,-9.144999981E-1,6.047699928E0
6.947998438E0,-2.949999869E-1,-5.830000043E-1,4.818299770E0
6.967998438E0,-6.538999677E-1,-2.597000003E-1,2.309799910E0
6.987998438E0,-1.929999888E-1,-1.075999960E-1,1.694199920E0
7.008007813E0,1.145999953E-1,-1.472000033E-1,1.529199958E0
7.037998438E0,-4.774999917E-1,-2.321999967E-1,3.628999889E-1
7.058003125E0,-8.761999607E-1,-1.632999927E-1,-6.353999972E-1
7.087998438E0,-1.037400007E0,1.068999991E-1,-2.287400007E0
7.108003125E0,-8.021999598E-1,2.404999882E-1,-2.882999897E0
7.137998438E0,-6.966999769E-1,2.933999896E-1,-2.797899961E0
7.158006250E0,-6.557999849E-1,2.145999968E-1,-2.903800011E0
7.188000000E0,-5.891000032E-1,4.699999932E-3,-2.869699955E0
7.208003125E0,-6.841999888E-1,-1.828999966E-1,-2.422499895E0
7.237998438E0,-1.151600003E0,-5.149999857E-1,-1.912699938E0
7.258004688E0,-1.316900015E0,-5.325999856E-1,-1.805199981E0
7.287998438E0,-7.232999802E-1,-4.910999835E-1,-1.252599955E0
7.308000000E0,-5.681999922E-1,-4.648999870E-1,-6.017000079E-1
7.338000000E0,2.857999802E-1,-5.109999776E-1,5.331999660E-1
7.367998438E0,4.651999772E-1,-2.723999918E-1,1.872099996E0
7.387998438E0,5.110999942E-1,-1.533000022E-1,8.727999926E-1
7.408000000E0,1.888899922E0,-2.755999863E-1,-5.609999970E-2
7.428000000E0,3.492499828E0,-1.058499932E0,1.650599957E0
7.448001563E0,3.140899897E0,-1.620099902E0,5.227699757E0
7.478000000E0,1.306999922E0,-9.625999928E-1,4.791399956E0
7.498007813E0,1.649399996E0,-6.755999923E-1,2.024399996E0
7.527998438E0,1.783899903E0,-3.516999781E-1,-2.317999899E-1
7.548004688E0,1.093299985E0,-6.870000064E-2,-1.285799980E0
7.577998438E0,-1.913999915E-1,1.009999961E-2,-2.113800049E0
7.598004688E0,-8.905999660E-1,6.279999763E-2,-2.196899891E0
7.628000000E0,-1.333799958E0,1.307999939E-1,-2.690699816E0
7.658000000E0,-1.964800000E0,2.380999923E-1,-3.527199984E0
7.678000000E0,-2.313400030E0,2.865000069E-1,-3.934700012E0
7.698000000E0,-2.320799828E0,2.533999979E-1,-3.800899982E0
7.727998438E0,-1.876299977E0,1.145999953E-1,-3.136199951E0
7.747998438E0,-1.386199951E0,-5.240000039E-2,-2.399699926E0
7.768000000E0,-1.277899981E0,-1.059999969E-2,-1.298699975E0
7.788001563E0,-1.170300007E0,7.050000131E-2,-2.994999886E-1
7.817998438E0,-3.467999995E-1,1.517999917E-1,1.113899946E0
7.837998438E0,7.585999966E-1,1.079999935E-2,2.431900024E0
7.857998438E0,1.518299937E0,-9.669999778E-2,3.612200022E0
7.877998438E0,1.652199984E0,-3.399999812E-3,4.424799919E0
7.897998438E0,1.132599950E0,9.419999719E-1,3.661399841E0
7.918000000E0,7.644999623E-1,1.834100008E0,7.105000019E-1
7.947998438E0,1.307699919E0,1.441999912E0,-3.218999803E-1
7.968000000E0,1.324399948E0,3.817999959E-1,1.377300024E0
7.988004688E0,4.553999901E-1,-1.446999907E-1,2.600899935E0
8.018000000E0,-3.106999993E-1,-6.071000099E-1,1.935599923E0
8.038007813E0,4.030000046E-2,-8.434000015E-1,2.585700035E0
8.067998438E0,1.245999932E-1,-1.223799944E0,2.865900040E0
8.088000000E0,-2.945999801E-1,-1.157699943E0,2.226899862E0
8.118000000E0,-7.555999756E-1,-6.177999973E-1,1.929000020E-1
8.138001563E0,-9.547999501E-1,-9.919999540E-2,-1.590600014E0
8.168000000E0,-8.071999550E-1,3.965999782E-1,-3.797099829E0
8.188000000E0,-4.531999826E-1,3.673000038E-1,-4.133199692E0
8.208000000E0,3.500000015E-2,1.572999954E-1,-4.046499729E0
8.228004688E0,9.349999577E-2,-4.100000020E-3,-3.615099907E0
8.257998438E0,-2.779999934E-2,-5.072000027E-1,-2.316999912E0
8.278000000E0,2.352999896E-1,-8.262999654E-1,-1.530599952E0
8.307998438E0,8.905999660E-1,-1.402099967E0,-4.214999974E-1
8.328003125E0,9.368999600E-1,-1.735000014E0,3.899999894E-3
8.357998438E0,7.232999802E-1,-1.692799926E0,-2.278999984E-1
8.378001563E0,7.917000055E-1,-1.328499913E0,-8.046000004E-1
8.408000000E0,2.500000000E-1,-6.575999856E-1,-2.139799833E0
8.428000000E0,1.358000040E-1,-5.927999616E-1,-2.225199938E0
8.448000000E0,1.608500004E0,-1.251199961E0,-6.868999600E-1
8.478000000E0,2.350800037E0,-1.504299998E0,5.098299980E0
8.507998438E0,1.908100009E0,-5.975999832E-1,4.002699852E0
8.527998438E0,3.153999805E0,-1.208999977E-1,1.118000031E0
8.548000000E0,4.130199909E0,-2.929999866E-2,-7.321999669E-1
8.578006250E0,2.531499863E0,-2.784999907E-1,-1.530699968E0
8.607998438E0,2.389999852E-2,-5.029999614E-1,-3.502999842E-1
8.628004688E0,-6.164000034E-1,-2.793999910E-1,-2.629999816E-1
8.658000000E0,-6.984999776E-1,1.097999960E-1,-1.347999930E0
8.678004688E0,-7.712999582E-1,3.686999977E-1,-2.449100018E0
8.707998438E0,-9.522999525E-1,5.321999788E-1,-3.318300009E0
8.728000000E0,-9.594999552E-1,6.004999876E-1,-3.411199808E0
8.748000000E0,-1.102399945E0,7.028999925E-1,-3.279299974E0
8.768006250E0,-1.325500011E0,7.569999695E-1,-3.241899967E0
8.788007813E0,-1.378999949E0,7.899999619E-1,-3.102399826E0
8.818000000E0,-9.909999967E-1,5.882999897E-1,-2.250699997E0
8.838000000E0,-9.669999480E-1,5.496000051E-1,-1.177799940E0
8.867998438E0,-7.128999829E-1,4.192000031E-1,1.065199971E0
8.887998438E0,-2.845000029E-1,2.705999911E-1,2.079400063E0
8.908000000E0,1.551999897E-1,9.499999695E-3,3.190999985E0
8.937998438E0,5.573999882E-1,-2.550999820E-1,4.022200108E0
8.957998438E0,3.799999952E-1,-3.346999884E-1,3.846599817E0
8.978000000E0,2.763999999E-1,-7.795000076E-1,4.560199738E0
9.007998438E0,-5.115000010E-1,-4.891999960E-1,5.004499912E0
9.027998438E0,-9.415999651E-1,-2.329999954E-1,3.069599867E0
9.048000000E0,-9.473999739E-1,-1.127999946E-1,1.853899956E0
9.068003125E0,-5.011000037E-1,-1.815999895E-1,1.446599960E0
9.097998438E0,-7.585999966E-1,-2.597999871E-1,1.336499929E0
9.118007813E0,-1.188899994E0,-1.296999902E-1,9.339999557E-1
9.148000000E0,-1.228199959E0,-2.369999886E-2,-6.121000051E-1
9.168004688E0,-1.093400002E0,1.149000004E-1,-1.886199951E0
9.198000000E0,-8.793999553E-1,9.719999880E-2,-2.634999990E0
9.228000000E0,-3.227999806E-1,-1.613999903E-1,-2.809700012E0
9.258006250E0,3.979999945E-2,-6.164999604E-1,-2.618199825E0
9.287998438E0,-5.350999832E-1,-7.412999868E-1,-2.818099976E0
9.307998438E0,-3.513000011E-1,-7.321999669E-1,-2.620299816E0
9.327998438E0,5.370000005E-2,-7.667999864E-1,-2.050199986E0
9.348000000E0,1.085999981E-1,-7.858999968E-1,-1.321399927E0
9.377998438E0,7.522999644E-1,-4.139999747E-1,3.488999903E-1
9.397998438E0,1.812599897E0,-3.419999778E-1,1.462499976E0
9.417998438E0,2.093199968E0,-2.653999925E-1,2.040099859E0
9.437998438E0,1.108399987E0,4.508000016E-1,1.699999928E0
9.458003125E0,3.998000026E-1,6.096999645E-1,1.077700019E0
9.488000000E0,2.044600010E0,-2.492999882E-1,2.666100025E0
9.508004688E0,1.610099912E0,-2.309999913E-1,6.126299858E0
9.537998438E0,6.039999798E-2,1.237999946E-1,4.227200031E0
9.558001563E0,2.257999927E-1,1.603000015E-1,1.085899949E0
9.587998438E0,1.640900016E0,-2.689000070E-1,-1.650399923E0
9.607998438E0,1.753499985E0,-5.587999821E-1,-2.926899910E0
9.628000000E0,1.393700004E0,-9.319999814E-1,-3.103299856E0
9.648000000E0,4.917999804E-1,-1.155599952E0,-2.457299948E0
9.677998438E0,-5.756999850E-1,-9.994999766E-1,-2.542999983E0
9.698009375E0,-5.903999805E-1,-5.827999711E-1,-3.116999865E0
9.727998438E0,-4.350999892E-1,-9.389999509E-2,-4.325099945E0
9.748001563E0,-6.114000082E-1,1.193999946E-1,-3.728899956E0
9.777998438E0,-2.445999980E-1,1.401000023E-1,-2.078399897E0
9.798001563E0,1.782999933E-1,1.281999946E-1,-1.699999928E0
9.827998438E0,-2.313999981E-1,1.497000009E-1,-7.425999641E-1
9.848003125E0,-2.773999870E-1,1.876999885E-1,-1.604999900E-1
9.877998438E0,-1.083000004E-1,2.452999949E-1,4.782999754E-1
9.898003125E0,-5.428999662E-1,4.691999853E-1,9.066999555E-1
9.927998438E0,-3.470999897E-1,5.047999620E-1,1.223799944E0
9.948000000E0,1.551000029E-1,2.116999924E-1,1.524899960E0
9.977998438E0,-6.082999706E-1,4.079999924E-1,2.716999948E-1
9.998001563E0,-5.023999810E-1,1.660999954E-1,-2.740000002E-2
1.002799844E1,6.340000033E-2,-7.694999576E-1,2.503700018E0
1.004800000E1,-7.689999938E-1,-8.855999708E-1,2.962299824E0
1.007799844E1,-1.543799996E0,-3.301999867E-1,2.881000042E-1
1.009799844E1,-1.144400001E0,-2.097999901E-1,-1.107399940E0
1.011800000E1,-9.127999544E-1,-4.697999954E-1,-9.554999471E-1
1.014800469E1,-6.295999885E-1,-8.319000006E-1,-7.734999657E-1
1.017800000E1,-4.921000004E-1,-7.513999939E-1,-1.175999999E0
1.019800469E1,-4.770999849E-1,-6.868000031E-1,-1.413599968E0
1.022799844E1,-6.319999695E-1,-4.323999882E-1,-2.276399851E0
1.024800625E1,-6.836999655E-1,-1.789999902E-1,-2.210199833E0
1.027800000E1,-5.683000088E-1,-7.809999585E-2,-1.647899985E0
1.029800313E1,-7.518000007E-1,-1.829999872E-2,-1.226199985E0
1.032799844E1,-9.562999606E-1,7.209999859E-2,-6.938999891E-1
1.034800000E1,-9.248999953E-1,6.209999695E-2,-3.859999776E-1
1.037799844E1,-7.203999758E-1,-3.409999982E-2,-1.299999934E-2
1.039799844E1,-5.583999753E-1,-4.140000045E-2,1.438999921E-1
1.041800000E1,-4.596000016E-1,-1.096999943E-1,6.941999793E-1
1.043800312E1,-3.617999852E-1,-2.510000020E-2,1.076699972E0
1.046799844E1,-4.589999840E-2,5.995000005E-1,9.511999488E-1
1.048800000E1,1.299999934E-2,9.185999632E-1,5.523999929E-1
1.051799844E1,1.124199986E0,-2.087999880E-1,5.454999804E-1
1.053800156E1,2.143499851E0,-1.300999999E0,2.219799995E0
1.056799844E1,9.391999841E-1,-1.438899994E0,4.105000019E0
1.058800156E1,6.369999647E-1,-6.667000055E-1,2.493799925E0
1.061800000E1,1.376500010E0,-3.773999810E-1,-1.165300012E0
1.063800469E1,1.513199925E0,-3.282999992E-1,-2.130800009E0
1.066800000E1,8.289999962E-1,-3.955999911E-1,-1.665599942E0
1.068800156E1,8.449999988E-2,-4.679999948E-1,-1.202499986E0
1.071799844E1,-5.322999954E-1,-3.651999831E-1,-1.268899918E0
1.073800781E1,-2.347999960E-1,-1.700000018E-1,-1.770599961E0
1.076800000E1,1.782999933E-1,9.439999610E-2,-2.740299940E0
1.079799844E1,-6.889999658E-2,1.349000037E-1,-2.518299818E0
1.081799844E1,2.061000019E-1,1.254999936E-1,-2.005599976E0
1.083800000E1,5.820999742E-1,1.149999946E-1,-1.803999901E0
1.086799844E1,5.342999697E-1,3.562999964E-1,-1.246799946E0
1.088799844E1,6.845999956E-1,5.439000130E-1,-5.202000141E-1
1.090800000E1,1.031599998E0,8.185999990E-1,6.089999899E-2
1.092800469E1,1.205399990E0,1.061699986E0,2.166999876E-1
1.095799844E1,1.393299937E0,1.195400000E0,6.669999957E-1
1.097800156E1,1.411399961E0,7.382999659E-1,1.684999943E0
1.100799844E1,4.779999852E-1,8.190000057E-2,2.038899899E0
1.102800000E1,-1.283699989E0,3.321999907E-1,7.059999704E-1
1.104800000E1,-1.367599964E0,-8.039999753E-2,6.791999936E-1
1.107800312E1,-2.996999919E-1,-8.489999771E-1,4.086999893E0
1.110799844E1,-9.050999880E-1,-4.402999878E-1,2.332399845E0
1.112800625E1,-1.028100014E0,-4.270000011E-2,4.638999999E-1
1.115800000E1,-3.725999892E-1,-4.399999976E-1,-2.820000052E-1
1.118799844E1,-5.048999786E-1,-9.095999599E-1,-5.735999942E-1
1.120800000E1,-7.522999644E-1,-9.718999863E-1,-1.591499925E0
1.122800156E1,-1.047099948E0,-8.436999917E-1,-2.935199976E0
1.125799844E1,-9.235999584E-1,-4.321999848E-1,-3.091699839E0
1.127800469E1,-2.410999984E-1,-2.910999954E-1,-2.163800001E0
1.130799844E1,2.034000009E-1,-2.899999963E-3,-2.001399994E0
1.132799844E1,-1.030000001E-1,1.556999981E-1,-2.150799990E0
1.134800000E1,-4.563999772E-1,1.407999992E-1,-1.671700001E0
1.136800469E1,-7.425999641E-1,1.396999955E-1,-1.286499977E0
1.139799844E1,-9.531999826E-1,1.641999930E-1,-9.201999903E-1
1.141800781E1,-8.493999839E-1,1.641999930E-1,-4.689999819E-1
1.144799844E1,-4.745999873E-1,1.114999950E-1,-1.699999906E-2
1.146800313E1,-2.081999928E-1,4.749999940E-2,7.858999968E-1
1.149800000E1,-1.693999916E-1,1.684999913E-1,2.264499903E0
1.151800312E1,2.300999910E-1,4.411000013E-1,2.652099848E0
1.154800000E1,2.964999974E-1,3.215000033E-1,8.032999635E-1
1.156800625E1,1.394899964E0,-5.074999928E-1,6.441999674E-1
1.159799844E1,1.739799976E0,-1.326599956E0,4.315099716E0
1.161800469E1,6.301000118E-1,-9.438999891E-1,4.172999859E0
1.164800000E1,1.338099957E0,-5.995999575E-1,7.788999677E-1
1.167800000E1,1.606599927E0,-6.082999706E-1,-1.226400018E0
1.170800000E1,3.899999857E-1,-6.620999575E-1,-1.636899948E0
1.173799844E1,4.999999655E-4,-5.864999890E-1,-2.305199862E0
1.175800312E1,-3.638999760E-1,-3.720999956E-1,-3.288899899E0
1.178799844E1,-2.708999813E-1,-3.693999946E-1,-3.834699869E0
1.180800000E1,8.399999887E-2,-4.493999779E-1,-3.442799807E0
1.183799844E1,4.772999883E-1,-4.555999935E-1,-2.894799948E0
1.185800000E1,6.094999909E-1,-4.114999771E-1,-2.523299932E0
1.187800000E1,7.267999649E-1,-3.486000001E-1,-2.291300058E0
1.190800156E1,5.604000092E-1,9.759999812E-2,-1.758199930E0
1.193799844E1,5.564000010E-1,4.660999775E-1,-3.880999982E-1
1.195800625E1,4.759999812E-1,8.272999525E-1,1.673000008E-1
1.198800000E1,2.456000000E-1,1.457700014E0,9.210999608E-1
1.200800938E1,4.689999819E-1,1.523000002E0,1.610799909E0
1.203799844E1,5.442999601E-1,1.133999944E0,2.009099960E0
1.205800156E1,5.299999937E-2,9.218999743E-1,1.954899907E0
1.208799844E1,-9.749999642E-2,-1.069999952E-2,2.264600039E0
1.210800469E1,-1.657999903E-1,-6.033999920E-1,3.491899967E0
1.213800000E1,-1.158299923E0,-6.606999636E-1,2.331300020E0
1.215800000E1,-1.714299917E0,-2.847999930E-1,3.951999843E-1
1.217800000E1,-1.616299987E0,-6.449999660E-2,-8.902999759E-1
1.219800469E1,-8.736999631E-1,-2.750999928E-1,-6.061999798E-1
1.222799844E1,-6.902999878E-1,-8.761000037E-1,6.807000041E-1
1.224800000E1,-8.398000002E-1,-1.057799935E0,6.503999829E-1
1.226800000E1,-6.658999920E-1,-9.900999665E-1,-3.430999815E-1
1.229800625E1,-4.230999947E-1,-7.215999961E-1,-1.484699965E0
1.232799844E1,-3.412999809E-1,-4.720000029E-1,-2.379299879E0
1.234800000E1,-2.592000067E-1,-3.249000013E-1,-2.979699850E0
1.237799844E1,1.632999927E-1,-1.588999927E-1,-2.949199915E0
1.239800469E1,3.659999743E-2,-1.127000004E-1,-2.772399902E0
1.242799844E1,-4.453999996E-1,-7.859999686E-2,-2.970399857E0
1.244800156E1,-5.191999674E-1,-7.459999621E-2,-2.642400026E0
1.247799844E1,-5.961999893E-1,1.612999886E-1,-2.610299826E0
1.249800469E1,-4.985999763E-1,3.206999898E-1,-1.859599948E0
1.252799844E1,4.211999774E-1,7.609999925E-2,5.266000032E-1
1.254800469E1,6.949999928E-1,-1.028999984E-1,2.073699951E0
1.257799844E1,2.675999999E-1,6.039999798E-2,2.390799999E0
1.259800469E1,1.574800014E0,2.269999981E-1,2.138200045E0
1.262799844E1,4.505199909E0,-1.603599906E0,4.539999962E0
1.264800000E1,3.789499998E0,-2.382999897E0,6.184400082E0
1.266800000E1,1.274399996E0,-1.501199961E0,5.060599804E0
1.268801094E1,7.742999792E-1,-8.272999525E-1,2.630699873E0
1.271799844E1,7.027999759E-1,-7.949999720E-2,-1.035099983E0
1.273799844E1,5.166000128E-1,2.300000051E-3,-2.502599955E0
1.275799844E1,-2.199999988E-1,8.119999617E-2,-3.203599930E0
1.277800000E1,-9.851999879E-1,8.929999918E-2,-3.092599869E0
1.280799844E1,-1.418299913E0,-7.440000027E-2,-2.139699936E0
1.282799844E1,-1.616199970E0,-1.090000011E-2,-2.275399923E0
1.284800000E1,-1.705999970E0,-8.729999512E-2,-2.702699900E0
1.287799844E1,-2.681200027E0,4.638999999E-1,-3.923799992E0
1.289799844E1,-2.228100061E0,3.258999884E-1,-3.667599916E0
1.291804219E1,-1.462199926E0,3.553999960E-1,-2.387599945E0
1.294799844E1,-6.092999578E-1,3.244999945E-1,-8.876000047E-1
1.296799844E1,-3.624999821E-1,3.333999813E-1,-2.912999988E-1
1.298800000E1,-7.099999785E-1,3.066000044E-1,8.621999621E-1
1.301799844E1,-6.948999763E-1,6.022999883E-1,1.731299996E0
1.303800313E1,-5.654999614E-1,8.856999874E-1,1.447099924E0
1.306800000E1,2.502999902E-1,8.136000037E-1,1.843599916E0
1.309799844E1,1.490999907E-1,7.247999907E-1,2.117300034E0
1.311799844E1,-1.730999947E-1,8.824999928E-1,1.429899931E0
1.313800625E1,-6.000000052E-3,2.111999989E-1,1.884199977E0
1.316800000E1,8.233999610E-1,-4.458999932E-1,4.174900055E0
1.318800625E1,7.849999666E-1,-4.974999726E-1,4.014899731E0
1.321799844E1,-3.826999962E-1,-1.659999937E-1,1.772599936E0
1.323800156E1,-4.579999745E-1,-9.820000082E-2,8.537999988E-1
1.326800000E1,9.497999549E-1,-1.946000010E-1,2.630999982E-1
1.328800313E1,8.075999618E-1,5.020000041E-2,4.289999977E-2
1.331799844E1,3.127999902E-1,5.878999829E-1,-1.019600034E0
1.333800000E1,5.299000144E-1,1.076399922E0,-2.319000006E0
1.336799844E1,7.127000093E-1,1.275399923E0,-4.685100079E0
1.338799844E1,3.484999835E-1,1.371399999E0,-6.697999954E0
1.340800000E1,-2.053999901E-1,7.477999926E-1,-7.701599598E0
1.342800469E1,-8.463999629E-1,9.099999815E-2,-7.552499771E0
1.345799844E1,-3.303999901E-1,-6.096999645E-1,-9.896100044E0
1.347800625E1,4.472999871E-1,-1.193099976E0,-1.226449966E1
1.350800000E1,1.399999950E-3,-2.753499985E0,-9.446299553E0
1.353799844E1,-4.257999957E-1,-4.729099751E0,-5.424399853E0
1.355800000E1,5.199999735E-2,-6.191499710E0,-5.069499969E0
1.357800156E1,1.240700006E0,-7.948400021E0,-5.511899948E0
1.360799844E1,1.160099983E0,-9.698499680E0,-5.388700008E0
1.362800469E1,2.016900063E0,-1.297509956E1,-5.849999905E0
1.365800000E1,2.836799860E0,-1.767539978E1,-6.084799767E0
1.368799844E1,2.729599953E0,-1.721059990E1,-9.739999473E-2
1.370800000E1,2.262599945E0,-1.560539913E1,2.934000015E0
1.372800781E1,2.788399935E0,-1.392119980E1,4.345299721E0
1.375799844E1,4.477399826E0,-1.066309929E1,4.557499886E0
1.377800781E1,4.575299740E0,-8.572500229E0,4.224100113E0
1.380799844E1,3.776499987E0,-5.690499783E0,2.504099846E0
1.382800156E1,4.294699669E0,-4.005099773E0,1.077999949E0
1.385799844E1,4.168299675E0,-1.424199939E0,1.705999970E0
1.387799844E1,4.441599846E0,-3.014999926E-1,1.971499920E0
1.389799844E1,5.111899853E0,5.713999867E-1,1.678599954E0
1.391800781E1,5.772799969E0,1.033999920E0,1.204100013E0
1.394799844E1,7.356099606E0,1.351300001E0,1.263599992E0
1.396800313E1,8.604700089E0,1.668399930E0,1.618199944E0
1.399800000E1,9.592800140E0,2.495899916E0,2.515499830E0
1.401800313E1,1.008909988E1,3.060499907E0,3.156299829E0
1.404800000E1,1.225290012E1,3.459699869E0,3.740700006E0
1.406800469E1,1.404939938E1,3.505699873E0,3.709299803E0
1.409799844E1,1.593229961E1,3.210799932E0,3.384599924E0
1.411800156E1,1.536719990E1,2.892199993E0,3.568399906E0
1.414799844E1,1.372249985E1,-5.590000153E-1,3.493199825E0
1.416800312E1,1.314129925E1,-4.195799828E0,3.402499914E0
1.418800469E1,1.143330002E1,-5.836400032E0,2.877099991E0
1.420800938E1,9.226200104E0,-5.567199707E0,1.484300017E0
1.423799844E1,7.465299606E0,-5.993000031E0,-8.977999687E-1
1.425800156E1,6.626899719E0,-6.746199608E0,-1.338599920E0
1.428799844E1,5.321799755E0,-8.169199944E0,-9.113999605E-1
1.430800000E1,3.759099960E0,-7.957799911E0,-3.104999959E-1
1.433800000E1,1.790300012E0,-6.642099857E0,8.855999708E-1
1.435800156E1,6.960999966E-1,-5.991799831E0,9.735999703E-1
1.438799844E1,2.699999884E-2,-6.443599701E0,-3.639999777E-2
1.440800156E1,-1.066499949E0,-6.920099735E0,1.228000000E-1
1.443799844E1,-2.984999895E0,-7.360999584E0,1.329999924E0
1.445800313E1,-4.006599903E0,-7.394399643E0,1.791899920E0
1.448800000E1,-5.087199688E0,-7.405699730E0,1.565400004E0
1.450800469E1,-5.386699677E0,-7.155999660E0,1.736099958E0
1.453799844E1,-5.516099930E0,-7.396999836E0,2.040899992E0
1.455800000E1,-6.341799736E0,-7.492300034E0,2.509199858E0
1.458800000E1,-7.822799683E0,-7.776000023E0,2.638200045E0
1.460800469E1,-8.836099625E0,-7.448099613E0,2.395900011E0
1.463800000E1,-9.486000061E0,-6.925199986E0,2.091500044E0
1.465800312E1,-9.213799477E0,-7.002999783E0,1.572399974E0
1.468799844E1,-7.045599937E0,-9.428199768E0,6.111999750E-1
1.470800156E1,-7.495199680E0,-9.865900040E0,-1.630999893E-1
1.473799844E1,-8.063099861E0,-8.443799973E0,3.969999850E-1
1.475800000E1,-6.290199757E0,-8.296699524E0,7.303999662E-1
1.477800000E1,-4.110300064E0,-8.327099800E0,-1.420000009E-2
1.479800313E1,-2.533799887E0,-8.344499588E0,-8.325999975E-1
1.482799844E1,-2.257900000E0,-8.340099335E0,-1.343500018E0
1.484800156E1,-2.119999886E0,-8.165699959E0,-1.138000011E0
1.487799844E1,-6.301000118E-1,-8.059199333E0,-7.231000066E-1
1.489800625E1,4.486999810E-1,-7.971199989E0,-4.502999783E-1
1.492799844E1,2.014600039E0,-7.597699642E0,9.869999886E-1
1.494800000E1,3.661000013E0,-7.041100025E0,1.985099912E0
1.497800000E1,6.865499973E0,-5.397599697E0,2.325599909E0
1.499800625E1,8.621999741E0,-3.631599903E0,2.303499937E0
1.502799844E1,1.059070015E1,-6.125999689E-1,2.749500036E0
1.504800000E1,1.173549938E1,8.409999609E-1,2.154199839E0
1.506800000E1,1.295119953E1,1.662299991E0,1.023999929E0
1.509800156E1,1.413549995E1,2.366299868E0,-3.540999889E-1
1.512800000E1,1.341989994E1,2.253999949E0,-6.491000056E-1
1.514800469E1,1.222249985E1,1.949099898E0,8.460000157E-2
1.517800000E1,1.098390007E1,1.889799953E0,8.420000076E-1
1.519800156E1,1.061079979E1,2.381099939E0,8.793999553E-1
1.522799844E1,1.230249977E1,5.662999749E-1,5.679000020E-1
1.524799844E1,1.243579960E1,-5.819000006E-1,5.604000092E-1
1.526800000E1,1.162370014E1,-5.329999924E-1,3.008999825E-1
1.528800313E1,1.046770000E1,-1.108999997E-1,-2.249999903E-2
1.531799844E1,9.352999687E0,-1.351400018E0,-8.150000125E-2
1.533800469E1,8.550000191E0,-2.773099899E0,5.407999754E-1
1.536799844E1,6.212499619E0,-4.724800110E0,1.156899929E0
1.538801250E1,4.238999844E0,-5.282499790E0,1.605599999E0
1.541799844E1,1.987199903E0,-4.909299850E0,2.239699841E0
1.543799844E1,1.057500005E0,-4.867099762E0,2.315299988E0
1.545799844E1,-3.689999878E-2,-4.950900078E0,1.851199985E0
1.547800000E1,-1.046000004E0,-4.980099678E0,1.338699937E0
1.549800000E1,-1.865299940E0,-5.085999966E0,8.230999708E-1
1.552799844E1,-2.805199862E0,-5.000899792E0,6.243000031E-1
1.554800000E1,-3.279399872E0,-5.002599716E0,8.190999627E-1
1.556800000E1,-3.822599888E0,-5.174699783E0,1.074599981E0
1.558800000E1,-4.381599903E0,-5.454999924E0,1.546299934E0
1.561800000E1,-5.320699692E0,-5.616600037E0,2.110499859E0
1.563800469E1,-5.807399750E0,-5.856299877E0,2.087800026E0
1.566800000E1,-6.343100071E0,-6.247099876E0,1.581299901E0
1.569800000E1,-7.315499783E0,-6.578999996E0,1.616699934E0
1.572800312E1,-8.133500099E0,-7.120399952E0,2.187500000E0
1.575799844E1,-7.405599594E0,-9.233200073E0,1.112599969E0
1.577800313E1,-6.865499973E0,-1.057459927E1,-6.592999697E-1
1.580799844E1,-7.357999802E0,-8.038899422E0,-7.687999606E-1
1.582800312E1,-5.506799698E0,-7.429199696E0,7.886999846E-1
1.585799844E1,-1.933999896E0,-7.517299652E0,8.414999843E-1
1.587799844E1,-2.949999869E-1,-7.544799805E0,-5.144999623E-1
1.589799844E1,-2.154999971E-1,-6.859999657E0,-1.645599961E0
1.591799844E1,-6.636999846E-1,-5.677799702E0,-2.313499928E0
1.593799844E1,-7.523999810E-1,-4.574399948E0,-2.647500038E0
1.595799844E1,-6.541000009E-1,-3.759599924E0,-1.991099954E0
1.597800000E1,-7.032999992E-1,-3.240099907E0,-3.416999876E-1
1.600799844E1,-1.689999998E-1,-2.579200029E0,1.747900009E0
1.602800000E1,7.281000018E-1,-1.963400006E0,1.740499973E0
1.605800000E1,2.916699886E0,-9.767999649E-1,3.859999776E-1
1.607800313E1,4.421400070E0,-3.987999856E-1,-5.349999666E-1
1.610799844E1,6.685400009E0,4.473999739E-1,-1.486499906E0
1.612800625E1,7.983799934E0,7.716999650E-1,-1.880299926E0
1.615799844E1,9.426199913E0,1.814700007E0,-1.110800028E0
1.617800469E1,1.033909988E1,2.447799921E0,-7.186999917E-1
1.620800000E1,1.199879932E1,2.641099930E0,-9.856999516E-1
1.623799844E1,1.212370014E1,2.713699818E0,-9.369999766E-1
1.625799844E1,1.148180008E1,3.112399817E0,-4.777999818E-1
1.627800000E1,1.091909981E1,3.251099825E0,-1.752000004E-1
1.630799844E1,1.247099972E1,-5.674999952E-1,-3.445999920E-1
1.632799844E1,1.239789963E1,-1.391799927E0,-5.328999758E-1
1.634800000E1,1.146840000E1,-3.249000013E-1,-1.186399937E0
1.637799844E1,1.054229927E1,-6.640999913E-1,-1.719900012E0
1.639799844E1,1.017929935E1,-3.076900005E0,-8.341000080E-1
1.641800000E1,8.700300217E0,-4.708199978E0,1.948999912E-1
1.643800000E1,6.787199974E0,-4.846499920E0,1.154500008E0
1.646799844E1,4.645800114E0,-3.570199966E0,2.453099966E0
1.648800000E1,4.071000099E0,-3.434799910E0,2.660799980E0
1.650800000E1,3.320999861E0,-3.929199934E0,2.176199913E0
1.653799844E1,9.785999656E-1,-4.732399940E0,1.290799975E0
1.655800000E1,-7.034999728E-1,-5.254399776E0,8.941999674E-1
1.658800156E1,-2.698699951E0,-5.720200062E0,7.613999844E-1
1.661799844E1,-3.598699808E0,-6.268199921E0,8.640999794E-1
1.663800000E1,-3.830399990E0,-6.741899967E0,7.649999857E-1
1.666800625E1,-4.812699795E0,-7.376599789E0,-2.649999969E-2
1.669800000E1,-6.876299858E0,-7.675999641E0,1.241799951E0
1.671800156E1,-7.987199783E0,-7.697899818E0,1.932999969E0
1.674799844E1,-8.749300003E0,-7.984299660E0,1.193300009E0
1.676800000E1,-9.616899490E0,-7.742699623E0,3.592999876E-1
1.678800312E1,-1.020429993E1,-7.640100002E0,-8.041999936E-1
1.680800625E1,-1.031019974E1,-8.486700058E0,-2.003799915E0
1.683800000E1,-8.674099922E0,-1.197079945E1,-2.657500029E0
1.685800156E1,-8.192600250E0,-1.140499973E1,-1.250399947E0
1.688799844E1,-6.105499744E0,-9.765500069E0,3.144500017E0
1.690800469E1,-3.249899864E0,-9.477499962E0,3.984899998E0
1.693800000E1,1.528699994E0,-9.446000099E0,1.719099998E0
1.695800625E1,2.846099854E0,-9.029399872E0,-1.894999892E-1
1.698800156E1,2.242499828E0,-6.961499691E0,-1.977899909E0
1.700800313E1,1.553599954E0,-5.599099636E0,-2.069200039E0
1.703799844E1,2.086600065E0,-4.155699730E0,-4.014999866E-1
1.705800000E1,3.537400007E0,-2.911999941E0,8.379999995E-1
1.708799844E1,4.381199837E0,-9.072999954E-1,1.370199919E0
1.710800000E1,4.450999737E0,-2.241999954E-1,1.039700031E0
1.712800000E1,5.258199692E0,1.445000023E-1,8.393999934E-1
1.714800313E1,6.442399979E0,6.193000078E-1,6.037999988E-1
1.717799844E1,7.882899761E0,1.083899975E0,-7.066000104E-1
1.719800156E1,8.607399940E0,1.693599939E0,-8.387999535E-1
1.722800000E1,9.500499725E0,2.571300030E0,-3.041000068E-1
1.724800000E1,1.022309971E1,2.932399988E0,-4.898999929E-1
1.726800000E1,1.109099960E1,2.932799816E0,-9.750999808E-1
1.729800469E1,1.204799938E1,3.049599886E0,-1.371299982E0
1.732799844E1,1.186849976E1,3.382699966E0,-1.283900023E0
1.734800312E1,1.251169968E1,2.225600004E0,-1.163999915E0
1.737799844E1,1.388689995E1,-2.474699974E0,-9.337999821E-1
1.739800000E1,1.160659981E1,-1.744799972E0,-3.499999940E-1
1.741800000E1,9.668299675E0,-4.576999843E-1,3.299999982E-2
1.744800156E1,9.045599937E0,-1.965099931E0,1.159999985E-2
1.747800000E1,8.203899384E0,-4.834899902E0,2.300999910E-1
1.749800156E1,6.245999813E0,-5.547800064E0,7.387999892E-1
1.752799844E1,3.774199963E0,-5.206399918E0,1.883899927E0
1.754800625E1,3.068799973E0,-4.691699982E0,2.282699823E0
1.757799844E1,2.137799978E0,-4.495899677E0,2.029599905E0
1.759800781E1,1.236699939E0,-4.804800034E0,1.505999923E0
1.762800000E1,-4.974999726E-1,-5.392299652E0,9.812999964E-1
1.764800000E1,-1.675799966E0,-5.602099895E0,9.323999882E-1
1.766800000E1,-2.623199940E0,-5.818500042E0,8.177999854E-1
1.768800469E1,-3.793399811E0,-6.031899929E0,5.648999810E-1
1.771799844E1,-5.679199696E0,-6.497099876E0,5.480999947E-1
1.773800313E1,-6.884099960E0,-6.858999729E0,7.843999863E-1
1.776800000E1,-8.318599701E0,-7.920499802E0,8.222000003E-1
1.778800312E1,-9.394800186E0,-8.609399796E0,7.071999907E-1
1.781799844E1,-1.135649967E1,-8.528800011E0,-2.678999901E-1
1.783800156E1,-1.180459976E1,-8.760099411E0,-3.925999999E-1
1.786799844E1,-8.262999535E0,-1.352759933E1,-7.531999946E-1
1.788800781E1,-8.099599838E0,-1.329689980E1,-7.265999913E-1
1.790804375E1,-7.703999996E0,-1.215229988E1,1.127900004E0
1.793799844E1,-4.778599739E0,-1.094789982E1,3.474900007E0
1.795799844E1,-1.752399921E0,-1.103020000E1,2.178900003E0
1.797800000E1,6.571999788E-1,-1.054509926E1,7.019999623E-2
1.800799844E1,5.454999804E-1,-8.322199821E0,-1.805899978E0
1.802799844E1,2.167999893E-1,-6.936499596E0,-2.120899916E0
1.804799844E1,2.949999869E-1,-5.819200039E0,-2.050400019E0
1.806800000E1,1.532400012E0,-4.948199749E0,-1.867599964E0
1.809800781E1,3.193699837E0,-2.961999893E0,-1.238799930E0
1.812800000E1,3.363899946E0,-1.607199907E0,-2.092399836E0
1.814800000E1,3.988899946E0,-1.143499970E0,-1.581399918E0
1.817800781E1,6.006399632E0,-9.536999464E-1,-1.269999985E-2
1.820800000E1,8.350500107E0,8.499999531E-3,4.426999986E-1
1.822800625E1,9.539499283E0,8.614999652E-1,7.968999743E-1
1.825799844E1,1.087739944E1,2.280599833E0,1.067999959E0
1.827800469E1,1.158220005E1,2.709300041E0,6.434999704E-1
1.830799844E1,1.278100014E1,2.029999971E0,1.533000022E-1
1.832800000E1,1.310739994E1,1.693300009E0,3.621000051E-1
1.835799844E1,1.239190006E1,2.405900002E0,7.024999857E-1
1.837800625E1,1.219969940E1,2.622900009E0,1.030499935E0
1.840800000E1,1.390329933E1,-1.536099911E0,5.568000078E-1
1.842800312E1,1.288539982E1,-2.640100002E0,6.620000005E-1
1.845799844E1,1.037169933E1,-7.245000005E-1,9.393000007E-1
1.847800156E1,9.919499397E0,-1.515699983E0,3.385999799E-1
1.850800000E1,9.287699699E0,-4.169399738E0,3.467999995E-1
1.853799844E1,7.100899696E0,-6.179599762E0,7.792999744E-1
1.855799844E1,5.278599739E0,-6.552000046E0,1.051499963E0
1.857799844E1,3.842899799E0,-6.348000050E0,1.656599998E0
1.859800000E1,3.010799885E0,-6.212100029E0,1.989399910E0
1.861800781E1,2.363600016E0,-6.279999733E0,1.813899994E0
1.864799844E1,3.646000028E-1,-6.583199978E0,1.330299973E0
1.866800000E1,-1.155599952E0,-6.609299660E0,1.295300007E0
1.869800000E1,-3.154999971E0,-6.379299641E0,1.521199942E0
1.871800313E1,-3.998999834E0,-6.188999653E0,1.390799999E0
1.874799844E1,-5.007100105E0,-6.108399868E0,8.370999694E-1
1.876800000E1,-5.797299862E0,-6.307199955E0,4.878999889E-1
1.878800781E1,-6.591099739E0,-6.967899799E0,4.499999806E-2
1.881800469E1,-8.987400055E0,-7.565799713E0,7.501999736E-1
1.884800000E1,-1.038770008E1,-7.957799911E0,1.011999965E0
1.887799844E1,-1.075150013E1,-8.463299751E0,9.320999980E-1
1.889799844E1,-1.034589958E1,-9.132399559E0,1.036199927E0
1.891800000E1,-9.018699646E0,-1.094299984E1,8.739999533E-1
1.894799844E1,-7.813699722E0,-1.304409981E1,-1.950999945E-1
1.896799844E1,-7.592499733E0,-1.166930008E1,1.462700009E0
1.898800938E1,-6.127699852E0,-1.060089970E1,3.303099871E0
1.901800156E1,-1.875799894E0,-1.048859978E1,4.072799683E0
1.904799844E1,1.857199907E0,-1.000379944E1,2.253499985E0
1.906800469E1,2.313899994E0,-8.871699333E0,3.907999992E-1
1.909799844E1,1.795699954E0,-6.824199677E0,-2.006500006E0
1.911800625E1,1.533999920E0,-5.670399666E0,-2.758299828E0
1.914799844E1,2.589799881E0,-3.865799904E0,-1.749499917E0
1.916800938E1,3.359799862E0,-3.032399893E0,-1.120599985E0
1.919800000E1,5.208099842E0,-1.686599970E0,-9.380999804E-1
1.921800000E1,6.239699841E0,-1.054099917E0,-8.544999957E-1
1.924799844E1,7.994699955E0,-2.574999928E-1,-1.223999932E-1
1.926800000E1,9.228599548E0,2.976000011E-1,-3.693999946E-1
1.929799844E1,1.056909943E1,1.337399960E0,-5.611999631E-1
1.931799844E1,1.133769989E1,2.042899847E0,-6.729999781E-1
1.933800000E1,1.217070007E1,2.533099890E0,-1.170199990E0
1.935800625E1,1.271619987E1,2.661900043E0,-1.888199925E0
1.938800938E1,1.298359966E1,2.412099838E0,-2.943099976E0
1.941800000E1,1.218159962E1,2.657999992E0,-3.012399912E0
1.944799844E1,1.168319988E1,2.562500000E0,-1.622599959E0
1.946799844E1,1.273779964E1,1.926999986E-1,-9.460999966E-1
1.948799844E1,1.277279949E1,-2.182600021E0,-6.087999940E-1
1.950799844E1,1.109340000E1,-1.749599934E0,2.327999920E-1
1.952800000E1,9.959499359E0,-1.027999997E0,5.175999999E-1
1.955800000E1,9.723899841E0,-2.806099892E0,3.859999776E-2
1.958800781E1,8.244500160E0,-5.414400101E0,3.729999959E-1
1.961800000E1,5.553899765E0,-6.299499989E0,1.082999945E0
1.963800000E1,3.919499874E0,-6.134399891E0,2.033900023E0
1.965800625E1,3.013900042E0,-6.108200073E0,2.810999870E0
1.968799844E1,1.579999924E0,-6.375899792E0,2.843699932E0
1.970800469E1,4.916999936E-1,-6.733599663E0,2.338299990E0
1.973800000E1,-1.744599938E0,-7.038499832E0,1.720699906E0
1.975800000E1,-3.181399822E0,-6.951299667E0,1.578599930E0
1.977800000E1,-4.171000004E0,-6.732199669E0,1.388700008E0
1.979800156E1,-4.801199913E0,-6.462399960E0,1.283599973E0
1.982799844E1,-5.277199745E0,-6.105999947E0,1.228500009E0
1.984800000E1,-5.772999763E0,-6.229399681E0,1.121899962E0
1.987799844E1,-6.977999687E0,-7.036799908E0,9.096999764E-1
1.989799844E1,-8.479599953E0,-7.457999706E0,1.560299993E0
1.991800000E1,-9.848400116E0,-7.525699615E0,2.390399933E0
1.994799844E1,-1.075699997E1,-7.453799725E0,2.350499868E0
1.996799844E1,-9.959899902E0,-8.517899513E0,1.698599935E0
1.998800000E1,-8.355899811E0,-1.056029987E1,1.115199924E0
2.001799844E1,-7.899199963E0,-1.099819946E1,5.625000000E-1
2.003799844E1,-6.875599861E0,-1.023789978E1,1.726499915E0
2.005800000E1,-4.976500034E0,-1.011180019E1,2.659600019E0
2.008799844E1,-1.663299918E0,-1.001749992E1,2.449800014E0
2.010799844E1,-4.442999959E-1,-9.380700111E0,1.233199954E0
2.012800000E1,-3.999999724E-3,-8.420100212E0,-1.092000008E-1
2.014800313E1,2.983999848E-1,-7.170799732E0,-1.425099969E0
2.017799844E1,3.658999801E-1,-5.893799782E0,-2.411799908E0
2.019800000E1,8.655999899E-1,-5.289599895E0,-1.845799923E0
2.021800000E1,1.425799966E0,-4.653899670E0,-4.491999745E-1
2.024800625E1,3.082099915E0,-3.870999813E0,3.483999968E-1
2.027800000E1,5.191199780E0,-3.053699970E0,1.750000007E-2
2.029800312E1,6.579599857E0,-2.401499987E0,2.133999914E-1
2.032799844E1,9.000999451E0,-1.233399987E0,-5.299999844E-3
2.034800625E1,1.041969967E1,-1.630000025E-2,-3.322999775E-1
2.037799844E1,1.267049980E1,1.847799897E0,-9.545999765E-1
2.039799844E1,1.396849918E1,2.692600012E0,-2.263499975E0
2.041800000E1,1.494439983E1,2.977200031E0,-3.437599897E0
2.043800312E1,1.553939915E1,2.693099976E0,-4.313499928E0
2.046799844E1,1.406859970E1,2.482300043E0,-3.525599957E0
2.048800000E1,1.266809940E1,2.590999842E0,-2.261999846E0
2.051799844E1,1.382759953E1,-4.526000023E-1,-7.860999703E-1
2.053799844E1,1.370370007E1,-2.082099915E0,-1.817999929E-1
2.055800000E1,1.208780003E1,-1.239699960E0,3.094999790E-1
2.058800156E1,1.079080009E1,-1.433899999E0,-2.529999986E-2
2.061800000E1,1.047830009E1,-4.829499722E0,7.199999876E-3
2.063800000E1,9.040900230E0,-6.435800076E0,3.270999789E-1
2.066800000E1,5.703399658E0,-6.552499771E0,1.742499948E0
2.068800469E1,4.517699718E0,-6.335599899E0,2.641899824E0
2.071799844E1,3.324899912E0,-6.313399792E0,2.897500038E0
2.073800313E1,2.323600054E0,-6.551399708E0,2.287199974E0
2.076800000E1,5.631999969E-1,-7.184899807E0,1.055400014E0
2.078800938E1,-7.078999877E-1,-7.537299633E0,6.827999949E-1
2.081799844E1,-2.663100004E0,-7.658699989E0,8.938999772E-1
2.083800000E1,-3.761099815E0,-7.723399639E0,1.069399953E0
2.085800000E1,-4.545700073E0,-7.696399689E0,1.391499996E0
2.088800312E1,-5.198199749E0,-7.842599869E0,1.220899940E0
2.091800000E1,-6.648599625E0,-8.662699699E0,2.816999853E-1
2.094799844E1,-9.879099846E0,-8.836799622E0,1.980099916E0
2.096799844E1,-1.168519974E1,-8.383099556E0,3.035899878E0
2.098801094E1,-1.217289925E1,-8.492899895E0,2.851599932E0
2.101799844E1,-1.152989960E1,-9.915100098E0,1.761299968E0
2.103800313E1,-1.035809994E1,-1.159879971E1,9.065999985E-1
2.106800000E1,-8.988900185E0,-1.238959980E1,-9.466999769E-1
2.108800000E1,-7.092299938E0,-1.156610012E1,3.102000058E-1
2.111799844E1,-3.165899992E0,-1.121999931E1,2.130399942E0
2.113799844E1,-1.140299916E0,-1.116189957E1,2.298699856E0
2.115799844E1,-3.407999873E-1,-1.080119991E1,1.668200016E0
2.117800625E1,1.740000024E-2,-1.014489937E1,4.764999747E-1
2.120800000E1,1.111999989E0,-8.790699959E0,-1.967999935E0
2.122800312E1,1.414199948E0,-7.454499722E0,-2.479599953E0
2.125799844E1,2.255300045E0,-6.174599648E0,-4.728999734E-1
2.127800781E1,3.185099840E0,-5.644999981E0,7.026000023E-1
2.130799844E1,5.020099640E0,-4.523600101E0,5.034999847E-1
2.132800781E1,6.583299637E0,-3.711799860E0,6.504999995E-1
2.135799844E1,9.059700012E0,-2.285199881E0,1.089399934E0
2.137799844E1,1.046959972E1,-1.040799975E0,4.658999741E-1
2.139799844E1,1.149289989E1,3.476999998E-1,-1.915999949E-1
2.141800000E1,1.239519978E1,1.502799988E0,-9.708999991E-1
2.144799844E1,1.352740002E1,2.607199907E0,-2.637799978E0
2.146799844E1,1.376139927E1,2.877099991E0,-3.343400002E0
2.148800000E1,1.350119972E1,2.591399908E0,-3.352099895E0
2.151800469E1,1.228339958E1,2.512099981E0,-2.359400034E0
2.154799844E1,1.197119999E1,3.075099945E0,-9.607999921E-1
2.156800312E1,1.347429943E1,1.527799964E0,-4.617999792E-1
2.158800781E1,1.464929962E1,-1.145599961E0,-8.380999565E-1
2.161800469E1,1.268229961E1,-8.649999499E-1,-6.875999570E-1
2.164799844E1,1.206019974E1,-1.810199976E0,-9.332000017E-1
2.166800000E1,1.207059956E1,-3.971099854E0,-1.019600034E0
2.169800000E1,1.020919991E1,-6.870499611E0,-1.159999967E-1
2.171800625E1,8.305500031E0,-7.541899681E0,9.361000061E-1
2.174799844E1,5.857199669E0,-7.702899933E0,2.303599834E0
2.176800781E1,4.489799976E0,-7.708699703E0,2.908099890E0
2.178800938E1,2.988899946E0,-7.957499981E0,2.731499910E0
2.181800469E1,7.353000045E-1,-8.331699371E0,1.829399943E0
2.184800000E1,-1.819599986E0,-8.556099892E0,1.102499962E0
2.186800469E1,-3.355499983E0,-8.354399681E0,1.125999928E0
2.189799844E1,-4.958099842E0,-7.823799610E0,7.866999507E-1
2.191800313E1,-5.610199928E0,-7.683799744E0,5.091999769E-1
2.194799844E1,-6.574800014E0,-7.944499969E0,4.738999903E-1
2.196799844E1,-7.336699963E0,-8.746799469E0,6.248999834E-1
2.198800938E1,-8.549699783E0,-9.362099648E0,1.050699949E0
2.201800312E1,-1.137220001E1,-9.131199837E0,1.756399989E0
2.204799844E1,-1.305769920E1,-8.959599495E0,1.228099942E0
2.206800000E1,-1.208969975E1,-1.023979950E1,4.178999960E-1
2.208800000E1,-9.647199631E0,-1.283150005E1,-3.281999826E-1
2.210800469E1,-9.018899918E0,-1.285559940E1,-4.878000021E-1
2.213800000E1,-7.000000000E0,-1.145800018E1,2.047600031E0
2.215800781E1,-4.149300098E0,-1.154449940E1,2.506700039E0
2.218799844E1,-4.402999878E-1,-1.168190002E1,1.379400015E0
2.220800469E1,2.874000072E-1,-1.074839973E1,3.023999929E-1
2.223799844E1,6.475999951E-1,-8.908899307E0,-1.603899956E0
2.225800313E1,9.729999900E-1,-7.838199615E0,-2.152899981E0
2.228799844E1,1.506099939E0,-6.509799957E0,-1.622099996E0
2.230799844E1,1.796700001E0,-5.632199764E0,-4.411000013E-1
2.232799844E1,2.311399937E0,-4.998300076E0,3.191999793E-1
2.234800000E1,3.499499798E0,-4.540599823E0,1.014199972E0
2.237799844E1,5.718100071E0,-3.449399948E0,1.353899956E0
2.239799844E1,7.029899597E0,-2.698699951E0,1.595299959E0
2.241800000E1,8.747300148E0,-1.908399940E0,1.650200009E0
2.244799844E1,1.138989925E1,-5.252999663E-1,9.444999695E-1
2.246799844E1,1.222119999E1,6.207000017E-1,1.013000011E-1
2.248800000E1,1.303859997E1,1.605599999E0,-8.090999722E-1
2.250800625E1,1.392509937E1,2.398099899E0,-1.624199986E0
2.253799844E1,1.453800011E1,2.721999884E0,-2.542399883E0
2.255800000E1,1.421829987E1,2.816900015E0,-2.281699896E0
2.258799844E1,1.331190014E1,3.305799961E0,-1.448300004E0
2.260799844E1,1.377609921E1,2.574499846E0,-1.333400011E0
2.262800000E1,1.514890003E1,-3.061999977E-1,-1.539099932E0
2.264800625E1,1.422909927E1,-1.305499911E0,-1.408299923E0
2.267799844E1,1.233290005E1,-1.101799965E0,-8.413999677E-1
2.269800625E1,1.189939976E1,-2.220299959E0,-8.341000080E-1
2.271804375E1,1.156479931E1,-4.328499794E0,-8.320999742E-1
2.274799844E1,9.562799454E0,-6.729499817E0,1.010999978E-1
2.276800000E1,7.729499817E0,-7.219799995E0,9.321999550E-1
2.278800000E1,6.105499744E0,-7.106400013E0,1.720199943E0
2.281799844E1,4.674200058E0,-7.014400005E0,2.354899883E0
2.283800000E1,3.676199913E0,-7.273699760E0,2.237799883E0
2.285800000E1,2.061100006E0,-7.575399876E0,1.657899976E0
2.288799844E1,-1.096000001E-1,-8.152299881E0,9.679999948E-1
2.290799844E1,-1.679399967E0,-8.294499397E0,1.168200016E0
2.292800000E1,-2.935199976E0,-8.368100166E0,1.426999927E0
2.295799844E1,-4.091199875E0,-8.428799629E0,1.659500003E0
2.297799844E1,-4.780499935E0,-8.429499626E0,1.529999971E0
2.299800312E1,-5.656499863E0,-8.838600159E0,9.457999468E-1
2.302799844E1,-8.112299919E0,-9.233799934E0,1.272899985E0
2.304800312E1,-9.617599487E0,-9.298999786E0,1.870499969E0
2.307799844E1,-1.058020020E1,-9.367799759E0,2.560799837E0
2.309800312E1,-1.046570015E1,-1.007600021E1,2.386899948E0
2.312800000E1,-9.532999992E0,-1.289369965E1,1.510100007E0
2.314800313E1,-1.030379963E1,-1.226959991E1,1.143599987E0
2.317800000E1,-8.462100029E0,-1.056669998E1,2.453399897E0
2.319800000E1,-5.375400066E0,-1.067009926E1,2.596599817E0
2.322799844E1,-1.154199958E0,-1.127369976E1,3.172999918E-1
2.324799844E1,-6.613999605E-1,-1.072529984E1,-1.268399954E0
2.326800000E1,-1.082000017E0,-9.639399529E0,-2.384099960E0
2.328800313E1,-1.107999921E0,-8.556499481E0,-2.735800028E0
2.331800000E1,-1.467999965E-1,-7.295399666E0,-1.579699993E0
2.333800156E1,5.331000090E-1,-6.346999645E0,-2.705999911E-1
2.336799844E1,1.146999955E0,-4.997099876E0,1.430999935E-1
2.338801875E1,1.723099947E0,-4.472700119E0,3.475999832E-1
2.341800000E1,3.468899965E0,-4.332299709E0,1.140699983E0
2.343800312E1,5.342799664E0,-4.030099869E0,1.254599929E0
2.346799844E1,8.430500031E0,-3.186699867E0,1.128899932E0
2.348800000E1,1.031789970E1,-2.158099890E0,8.677999973E-1
2.351799844E1,1.263280010E1,2.245999873E-1,6.159999967E-2
2.353800781E1,1.362080002E1,1.454399943E0,-6.929999590E-1
2.356799844E1,1.459359932E1,2.027299881E0,-1.880299926E0
2.358801406E1,1.455109978E1,2.141399860E0,-2.604699850E0
2.361800000E1,1.334669971E1,2.611999989E0,-2.086999893E0
2.363800000E1,1.265889931E1,2.774499893E0,-1.459299922E0
2.365800000E1,1.337309933E1,1.095799923E0,-1.019299984E0
2.367800000E1,1.384809971E1,-1.296000004E0,-8.677999973E-1
2.369800000E1,1.200850010E1,-3.576000035E-1,-1.925999969E-1
2.372800625E1,1.100199986E1,5.715000033E-1,1.551000029E-1
2.375799844E1,1.068669987E1,-1.599399924E0,-4.730999768E-1
2.377800469E1,9.931699753E0,-3.293299913E0,-3.689000010E-1
2.380799844E1,7.747599602E0,-4.814599991E0,2.547000051E-1
2.382800469E1,6.453799725E0,-5.199599743E0,8.793999553E-1
2.385800000E1,5.060899734E0,-5.442199707E0,1.675699949E0
2.387800313E1,4.158899784E0,-5.753699780E0,1.592199922E0
2.390799844E1,2.090100050E0,-6.513499737E0,7.709999681E-1
2.392800312E1,6.492999792E-1,-6.881299973E0,3.613999784E-1
2.395799844E1,-1.239899993E0,-7.348199844E0,5.643999577E-1
2.397800312E1,-2.288300037E0,-7.451999664E0,1.057299972E0
2.400800000E1,-3.536000013E0,-7.293399811E0,1.541599989E0
2.402800000E1,-4.395499706E0,-7.262499809E0,1.613299966E0
2.405800000E1,-5.622999668E0,-7.373199940E0,1.309899926E0
2.407800156E1,-6.378299713E0,-7.865799904E0,6.832000017E-1
2.410799844E1,-8.159399986E0,-8.696499825E0,9.018999934E-1
2.412800313E1,-9.446000099E0,-8.950499535E0,1.300899982E0
2.415799844E1,-1.138249969E1,-8.853499413E0,1.264599919E0
2.417799844E1,-1.196129990E1,-9.508299828E0,1.191200018E0
2.419800000E1,-1.093109989E1,-1.146700001E1,9.018999934E-1
2.421800625E1,-9.718099594E0,-1.232919979E1,6.049999967E-2
2.424799844E1,-6.856599808E0,-1.165040016E1,1.055899978E0
2.426800312E1,-4.311899662E0,-1.142199993E1,1.825999975E0
2.429799844E1,-1.286999941E0,-1.090709972E1,2.531599998E0
2.431800625E1,-5.532000065E-1,-1.017010021E1,2.439599991E0
2.434800000E1,3.489999846E-2,-8.883199692E0,8.912000060E-1
2.436800312E1,8.256999850E-1,-7.915799618E0,-7.401999831E-1
2.438800938E1,1.449100018E0,-6.508899689E0,-1.861199975E0
2.441800000E1,2.300499916E0,-4.752500057E0,-1.660599947E0
2.444799844E1,3.298199892E0,-3.798699856E0,-6.753000021E-1
2.446799844E1,4.220099926E0,-3.448499918E0,-8.840000033E-1
2.448800000E1,5.661699772E0,-3.177699804E0,-8.277999759E-1
2.451800469E1,8.555799484E0,-2.552399874E0,-1.948999912E-1
2.454799844E1,1.068009949E1,-1.185400009E0,-1.551000029E-1
2.456800312E1,1.136969948E1,-3.799999878E-2,-5.073999763E-1
2.458800938E1,1.233609962E1,1.155799985E0,-1.382900000E0
2.461800312E1,1.439569950E1,2.330800056E0,-3.761600018E0
2.464799844E1,1.478149986E1,2.779700041E0,-6.481499672E0
2.466799844E1,1.362959957E1,2.818199873E0,-7.368299961E0
2.468799844E1,1.215810013E1,2.712999821E0,-6.789899826E0
2.470800000E1,1.171519947E1,1.739399910E0,-4.978099823E0
2.473799844E1,1.319320011E1,-2.503900051E0,-3.037400007E0
2.475800625E1,1.218349934E1,-3.214299917E0,-1.839399934E0
2.478800938E1,1.039039993E1,-2.672600031E0,-2.750999928E-1
2.481799844E1,1.040969944E1,-4.644499779E0,1.333999932E-1
2.483799844E1,9.815400124E0,-6.158499718E0,5.873000026E-1
2.485800313E1,8.183099747E0,-6.920099735E0,1.027300000E0
2.488800000E1,5.290100098E0,-6.799900055E0,2.076599836E0
2.490800469E1,3.512399912E0,-6.435299873E0,2.749599934E0
2.493799844E1,1.718400002E0,-6.457099915E0,3.285499811E0
2.495800469E1,5.133999586E-1,-6.494599819E0,3.078699827E0
2.498800938E1,-9.304999709E-1,-6.784100056E0,2.085299969E0
2.501799844E1,-2.653800011E0,-6.721899986E0,1.521699905E0
2.503799844E1,-3.598999977E0,-6.552099705E0,1.341199994E0
2.505800469E1,-4.154200077E0,-6.441899776E0,1.307399988E0
2.508799844E1,-5.082799911E0,-6.603899956E0,8.626999855E-1
2.510800313E1,-5.781300068E0,-7.087499619E0,5.582000017E-1
2.513800000E1,-7.422299862E0,-8.271800041E0,9.074999690E-1
2.515800469E1,-8.874599457E0,-8.788000107E0,1.296100020E0
2.518799844E1,-1.018709946E1,-9.025899887E0,1.029999971E0
2.520800312E1,-1.071819973E1,-9.203199387E0,4.767999947E-1
2.523799844E1,-1.086779976E1,-1.079699993E1,8.590999842E-1
2.525799844E1,-9.315199852E0,-1.294409943E1,1.123999953E-1
2.527800000E1,-8.206799507E0,-1.261789989E1,2.574999928E-1
2.529800000E1,-6.895799637E0,-1.129419994E1,1.859099984E0
2.531800000E1,-4.578199863E0,-1.052880001E1,2.629499912E0
2.534799844E1,-6.895999908E-1,-1.027629948E1,1.962299943E0
2.536799844E1,2.463999987E-1,-9.747699738E0,1.302899957E0
2.538799844E1,4.060999751E-1,-8.957699776E0,-2.789999917E-2
2.540799844E1,6.469999552E-1,-8.516300201E0,-1.662400007E0
2.542800000E1,1.136799932E0,-7.475499630E0,-2.478199959E0
2.544800781E1,1.773000002E0,-6.457499981E0,-2.226399899E0
2.547799844E1,2.903499842E0,-4.789700031E0,2.525999844E-1
2.549800625E1,3.312999964E0,-3.844599962E0,9.014999866E-1
2.552799844E1,4.442299843E0,-2.810199976E0,6.997999549E-1
2.554800625E1,6.220099926E0,-2.424599886E0,9.772999883E-1
2.557799844E1,9.097099304E0,-1.367200017E0,1.698399901E0
2.559800312E1,1.029519939E1,-6.414999962E-1,1.705999970E0
2.562800000E1,1.124300003E1,8.608999848E-1,1.281700015E0
2.564800000E1,1.202159977E1,1.758299947E0,5.137999654E-1
2.567800000E1,1.357339954E1,2.349599838E0,-1.450799942E0
2.569800313E1,1.391069984E1,2.344599962E0,-2.674299955E0
2.572799844E1,1.322620010E1,2.346699953E0,-3.579799891E0
2.574799844E1,1.234619999E1,2.742799997E0,-3.677199841E0
2.576800000E1,1.308549976E1,1.516299963E0,-3.155999899E0
2.578800313E1,1.445459938E1,-1.151600003E0,-2.505199909E0
2.581800000E1,1.249209976E1,-8.919999748E-2,-1.087599993E0
2.584799844E1,1.129889965E1,-2.730000019E-2,-4.860999882E-1
2.586799844E1,1.100729942E1,-1.947600007E0,-3.253999949E-1
2.588800000E1,1.010139942E1,-4.063099861E0,-5.810000002E-2
2.591800000E1,7.610699654E0,-5.852900028E0,8.804999590E-1
2.593800625E1,6.204799652E0,-6.020099640E0,1.578799963E0
2.596800000E1,4.924499989E0,-5.836899757E0,2.338299990E0
2.598801563E1,3.863600016E0,-6.001999855E0,2.264699936E0
2.601799844E1,2.013599873E0,-6.672299862E0,1.695199966E0
2.603800156E1,3.231999874E-1,-6.972099781E0,1.740099907E0
2.606800000E1,-1.341899991E0,-7.254099846E0,1.455899954E0
2.608800312E1,-2.143599987E0,-7.319499969E0,1.669799924E0
2.611799844E1,-3.202999830E0,-7.473000050E0,1.821799994E0
2.613800625E1,-4.173699856E0,-7.489599705E0,2.054299831E0
2.616799844E1,-5.343999863E0,-7.363299847E0,1.974499941E0
2.618800625E1,-5.668799877E0,-7.462100029E0,2.103999853E0
2.621800000E1,-5.879899979E0,-7.946399689E0,2.456300020E0
2.623800000E1,-6.043999672E0,-8.189399719E0,2.189300060E0
2.626800000E1,-6.926599979E0,-9.082799911E0,1.252399921E0
2.628800000E1,-7.915099621E0,-1.078509998E1,2.357999980E-1
2.631800000E1,-1.066449928E1,-1.128549957E1,-6.200999618E-1
2.634800000E1,-1.084239960E1,-1.010949993E1,1.972799897E0
2.637799844E1,-6.318299770E0,-1.090409946E1,2.694799900E0
2.639800000E1,-3.992999792E0,-1.115250015E1,1.283599973E0
2.641800000E1,-3.059499979E0,-1.051349926E1,2.063999921E-1
2.644799844E1,-2.515100002E0,-9.060199738E0,-4.506999850E-1
2.646799844E1,-2.095299959E0,-8.412199974E0,-7.127000093E-1
2.648800000E1,-1.579299927E0,-7.810999870E0,-1.042999983E0
2.651799844E1,-4.895999730E-1,-7.142999649E0,-6.651999950E-1
2.653799844E1,1.300999999E0,-6.713399887E0,1.668999940E-1
2.655800000E1,3.524699926E0,-6.247999668E0,6.879999489E-2
2.657800156E1,5.218499660E0,-5.791899681E0,-7.982999682E-1
2.660799844E1,7.082499981E0,-4.963799953E0,-5.716999769E-1
2.662800469E1,8.884300232E0,-3.981699944E0,2.651999891E-1
2.665800000E1,1.318289948E1,-1.162599921E0,-6.967999935E-1
2.667800469E1,1.444079971E1,1.362299919E0,-1.909699917E0
2.670799844E1,1.421770000E1,3.668799877E0,-3.010499954E0
2.672800469E1,1.394899940E1,3.868699789E0,-2.943199873E0
2.675799844E1,1.289179993E1,3.360100031E0,-1.932199955E0
2.677800156E1,1.150080013E1,3.237599850E0,-1.181499958E0
2.680799844E1,1.033259964E1,3.194000006E0,-3.147999942E-1
2.682799844E1,1.098789978E1,1.790199995E0,-1.260000002E-2
2.684800000E1,1.233369923E1,-6.721999645E-1,1.015999988E-1
2.686800000E1,1.173719978E1,3.562999964E-1,4.834999740E-1
2.688800000E1,1.224569988E1,1.029199958E0,-2.949999869E-1
2.690800000E1,1.314779949E1,3.647999763E-1,-1.263099909E0
2.692800000E1,1.288809967E1,-1.343699932E0,-1.302099943E0
2.695799844E1,1.042999935E1,-3.739300013E0,3.456999958E-1
2.697799844E1,8.914500237E0,-4.484600067E0,1.641199946E0
2.699800000E1,8.204699516E0,-5.039999962E0,2.692299843E0
2.701800469E1,7.424499989E0,-5.914799690E0,2.643800020E0
2.704799844E1,4.237899780E0,-7.519499779E0,1.984899998E0
2.706800469E1,2.001299858E0,-8.331999779E0,1.495999932E0
2.709799844E1,-3.244999945E-1,-9.120599747E0,8.914999962E-1
2.711799844E1,-1.546599984E0,-8.985899925E0,4.170999825E-1
2.713800000E1,-2.163800001E0,-8.879399300E0,-8.760000020E-2
2.716800469E1,-3.403299809E0,-8.631799698E0,-1.124999970E-1
2.719800000E1,-4.820699692E0,-8.281199455E0,3.240999877E-1
2.721800000E1,-5.702499866E0,-7.975299835E0,9.860000014E-2
2.724799844E1,-7.416100025E0,-7.853899956E0,-7.322999835E-1
2.726800000E1,-8.282599449E0,-7.563999653E0,-7.942999601E-1
2.728800000E1,-8.722599983E0,-6.982899666E0,-9.960999489E-1
2.730800313E1,-8.602299690E0,-6.649600029E0,-1.429600000E0
2.733799844E1,-7.250299931E0,-7.988299847E0,-2.033299923E0
2.735800625E1,-6.822299957E0,-9.404799461E0,-2.714699984E0
2.738800938E1,-8.312799454E0,-8.745999336E0,-2.512799978E0
2.741800000E1,-6.705199718E0,-8.145099640E0,-1.447999924E-1
2.744799844E1,-4.416800022E0,-8.312999725E0,5.169999599E-1
2.746799844E1,-3.774599791E0,-8.444799423E0,2.483999878E-1
2.748800000E1,-3.524399996E0,-8.449399948E0,-4.919999838E-2
2.751799844E1,-3.284199953E0,-7.806599617E0,-8.959999681E-2
2.753799844E1,-2.585599899E0,-7.379299641E0,-4.799999893E-1
2.755800781E1,-2.109699965E0,-6.780399799E0,-4.458999932E-1
2.758800781E1,-5.931000113E-1,-5.970099926E0,8.004999757E-1
2.761799844E1,1.757599950E0,-5.254799843E0,1.526799917E0
2.763800000E1,3.310899973E0,-4.641900063E0,8.718000054E-1
2.765800469E1,5.040100098E0,-4.039000034E0,4.299999774E-2
2.768799844E1,7.331799984E0,-2.935499907E0,-8.270999789E-1
2.770800000E1,8.447599411E0,-1.925799966E0,-1.212800026E0
2.773799844E1,1.001749992E1,-2.879999951E-2,-9.632999897E-1
2.775799844E1,1.123289967E1,1.274799943E0,-7.858999968E-1
2.777800000E1,1.265240002E1,2.231600046E0,-1.084499955E0
2.779800000E1,1.387609959E1,2.578299999E0,-1.640799999E0
2.782799844E1,1.360709953E1,2.547399998E0,-2.056099892E0
2.784800000E1,1.225999928E1,2.725499868E0,-1.991799951E0
2.787799844E1,1.179109955E1,6.843000054E-1,-1.618399978E0
2.789800781E1,1.168649960E1,-9.874999523E-1,-1.066499949E0
2.792800000E1,1.016129971E1,4.253000021E-1,-9.102999568E-1
2.794800313E1,1.034929943E1,6.071999669E-1,-1.322799921E0
2.797799844E1,1.022139931E1,-1.242799997E0,-1.027599931E0
2.799800000E1,9.150400162E0,-2.417199850E0,-3.924999833E-1
2.802800312E1,7.262300014E0,-2.790499926E0,7.073000073E-1
2.804800469E1,6.335299969E0,-2.558899879E0,1.420699954E0
2.807799844E1,5.394299984E0,-3.038399935E0,1.635699987E0
2.809800312E1,4.398200035E0,-3.949299812E0,1.052299976E0
2.812800000E1,2.227200031E0,-5.539199829E0,2.813999951E-1
2.814800469E1,2.228999883E-1,-6.278599739E0,1.731999964E-1
2.817800000E1,-1.609699965E0,-6.302399635E0,2.906000018E-1
2.819800469E1,-2.555899858E0,-6.338299751E0,6.848999858E-1
2.822799844E1,-3.601499796E0,-6.517499924E0,1.393399954E0
2.824800469E1,-4.167900085E0,-6.766299725E0,1.535399914E0
2.827800000E1,-5.106199741E0,-7.307799816E0,7.716000080E-1
2.830799844E1,-7.560899734E0,-8.050799370E0,1.129899979E0
2.832799844E1,-9.102399826E0,-8.042499542E0,1.553299904E0
2.834800469E1,-9.857199669E0,-8.260600090E0,1.094300032E0
2.837799844E1,-9.983300209E0,-9.899399757E0,3.897999823E-1
2.839800313E1,-9.777799606E0,-1.171150017E1,-2.249999903E-2
2.842800000E1,-1.060610008E1,-1.038659954E1,1.236599922E0
2.845799844E1,-7.345099926E0,-1.057189941E1,2.690399885E0
2.847799844E1,-4.630799770E0,-1.121039963E1,2.392499924E0
2.849800000E1,-2.695400000E0,-1.129119968E1,1.262599945E0
2.852799844E1,-1.342599988E0,-9.894299507E0,-4.659999907E-2
2.854799844E1,-8.876999617E-1,-8.655499458E0,-8.779999614E-2
2.856799844E1,-5.319999903E-2,-7.776399612E0,-2.330999970E-1
2.858799844E1,1.017799973E0,-6.691599846E0,-5.200999975E-1
2.860799844E1,1.996699929E0,-5.684400082E0,-1.306800008E0
2.862800000E1,2.865000010E0,-4.518300056E0,-1.702099919E0
2.864800000E1,3.813699961E0,-3.589200020E0,-1.542400002E0
2.867800000E1,5.587800026E0,-2.610599995E0,-1.497900009E0
2.869800000E1,7.278299809E0,-1.943199992E0,-2.383199930E0
2.871800000E1,9.216599464E0,-1.065099955E0,-2.638700008E0
2.873800313E1,1.089289951E1,1.260000002E-2,-2.241799831E0
2.876799844E1,1.291239929E1,1.812999964E0,-2.589599848E0
2.878801719E1,1.374709988E1,2.962100029E0,-3.616400003E0
2.880802969E1,1.435820007E1,3.466399908E0,-4.835700035E0
2.883800469E1,1.460400009E1,2.925699949E0,-6.724699974E0
2.886799844E1,1.196749973E1,2.474299908E0,-5.612400055E0
2.888800312E1,1.061889935E1,2.549700022E0,-3.933899879E0
2.891800000E1,1.137220001E1,1.178200006E0,-1.575799942E0
2.894799844E1,1.270790005E1,-2.544699907E0,-9.800999761E-1
2.896799844E1,1.133629990E1,-2.120699883E0,-5.880999565E-1
2.898801406E1,1.061359978E1,-2.260299921E0,-1.024799943E0
2.901800000E1,1.078439999E1,-4.972199917E0,-9.152999520E-1
2.903800000E1,9.795399666E0,-6.673299789E0,-3.819999844E-2
2.905800000E1,7.974599838E0,-7.513000011E0,1.031199932E0
2.907800469E1,5.917299747E0,-7.507899761E0,2.162999868E0
2.910799844E1,3.516199827E0,-7.190199852E0,3.415699959E0
2.912800156E1,2.045899868E0,-7.193599701E0,3.644500017E0
2.915800000E1,-7.580000162E-2,-7.604399681E0,3.041499853E0
2.917800625E1,-1.401799917E0,-7.916299820E0,2.449199915E0
2.920800000E1,-3.623299837E0,-8.171500206E0,1.324899912E0
2.922800625E1,-5.210199833E0,-8.080100060E0,6.750999689E-1
2.925799844E1,-7.888199806E0,-7.457699776E0,4.369999766E-1
2.927800000E1,-8.883600235E0,-7.221499920E0,2.025000006E-1
2.930799844E1,-9.841699600E0,-7.030999660E0,-1.917999983E-1
2.932800000E1,-1.011030006E1,-7.183300018E0,-7.509999722E-2
2.934800000E1,-1.010149956E1,-7.510599613E0,2.545999885E-1
2.937800781E1,-1.005900002E1,-8.161299706E0,5.388000011E-1
2.940799844E1,-9.556099892E0,-8.290599823E0,6.337000132E-1
2.942800313E1,-8.447299957E0,-9.427199364E0,3.983999789E-1
2.945800000E1,-5.696599960E0,-1.272099972E1,-5.230000019E-1
2.948800000E1,-5.262399673E0,-1.026929951E1,1.371999979E0
2.951799844E1,-1.488399982E0,-1.057709980E1,2.013900042E0
2.953799844E1,8.555999994E-1,-1.037090015E1,1.661099911E0
2.955800000E1,2.050199986E0,-9.570899963E0,1.079399943E0
2.958799844E1,1.889999986E0,-8.159199715E0,-1.687999964E-1
2.960800000E1,1.563300014E0,-7.040299892E0,-6.764999628E-1
2.962800000E1,1.712700009E0,-5.953999996E0,-5.440999866E-1
2.964800000E1,2.309599876E0,-4.700799942E0,5.008999705E-1
2.966800625E1,3.014499903E0,-3.441699982E0,1.105799913E0
2.969800000E1,4.565499783E0,-2.094500065E0,4.697999954E-1
2.971800313E1,5.757299900E0,-1.317600012E0,-7.150999904E-1
2.974799844E1,7.220099926E0,-1.736999899E-1,-1.096400023E0
2.976800000E1,8.834699631E0,4.827999771E-1,-1.044099927E0
2.978800938E1,1.047839928E1,1.233500004E0,-1.206099987E0
2.981800156E1,1.200549984E1,2.663399935E0,-1.407899976E0
2.984800000E1,1.345049953E1,3.695899963E0,-1.962700009E0
2.986800625E1,1.429909992E1,3.808899879E0,-2.646800041E0
2.989799844E1,1.431419945E1,3.399499893E0,-2.909799814E0
2.991800000E1,1.369619942E1,3.351999998E0,-2.549700022E0
2.994799844E1,1.352539921E1,2.915699959E0,-2.366999865E0
2.996800313E1,1.400959969E1,1.193400025E0,-2.189199924E0
2.998800938E1,1.415959930E1,-1.016999960E0,-2.091199875E0
3.001800625E1,1.238089943E1,-1.532499909E0,-1.781299949E0
3.004799844E1,1.154139996E1,-4.186100006E0,-9.569999576E-1
3.006800000E1,1.060029984E1,-6.362799644E0,3.172999918E-1
3.009799844E1,7.670699596E0,-7.739099979E0,2.339299917E0
3.011799844E1,5.696199894E0,-7.422199726E0,3.185400009E0
3.013800000E1,4.175899982E0,-6.663300037E0,3.854799986E0
3.015800156E1,2.948699951E0,-6.276000023E0,4.054100037E0
3.018799844E1,1.315599918E0,-6.574199677E0,3.335799932E0
3.020800156E1,4.448999763E-1,-6.965999603E0,2.587699890E0
3.023799844E1,-1.448899984E0,-7.569299698E0,1.326499939E0
3.025800781E1,-2.790199995E0,-7.578599930E0,8.873999715E-1
3.028800000E1,-4.384099960E0,-7.627299786E0,3.342999816E-1
3.030800625E1,-5.277499676E0,-7.710099697E0,4.539999962E-1
3.033799844E1,-6.216599941E0,-8.402799606E0,8.715999722E-1
3.035800000E1,-6.916899681E0,-8.981900215E0,1.081399918E0
3.038800938E1,-8.612699509E0,-9.231999397E0,1.472899914E0
3.041800000E1,-1.031809998E1,-8.423199654E0,1.904899955E0
3.044799844E1,-1.077400017E1,-9.254499435E0,1.420899987E0
3.046799844E1,-1.027960014E1,-1.017019939E1,1.484099984E0
3.048800000E1,-8.567899704E0,-1.200349998E1,1.048999950E-1
3.050800781E1,-7.567499638E0,-1.150570011E1,-1.046100020E0
3.053799844E1,-5.065499783E0,-1.015089989E1,1.137999967E-1
3.055800469E1,-3.242199898E0,-9.561299324E0,6.894999743E-1
3.058799844E1,-1.647099972E0,-8.929599762E0,6.493999958E-1
3.060799844E1,-1.459900022E0,-8.395500183E0,-3.378999829E-1
3.062800000E1,-1.062699914E0,-7.845999718E0,-1.515299916E0
3.064800000E1,-5.149999857E-1,-7.296999931E0,-2.001899958E0
3.067800000E1,3.103999794E-1,-6.392600060E0,-1.013899922E0
3.069800313E1,1.203699946E0,-5.928699970E0,6.169999763E-2
3.072799844E1,2.891299963E0,-5.225199699E0,9.630999565E-1
3.074800000E1,4.169600010E0,-4.648799896E0,1.022799969E0
3.077800000E1,6.684199810E0,-3.600399971E0,6.782999635E-1
3.080799844E1,9.623399734E0,-1.820699930E0,-9.059999883E-2
3.082799844E1,1.103009987E1,-2.685000002E-1,-7.969999909E-1
3.084800625E1,1.253819942E1,1.453199983E0,-1.789999962E0
3.087799844E1,1.400009918E1,3.737699986E0,-4.016799927E0
3.089800625E1,1.444749928E1,4.211199760E0,-5.226699829E0
3.092799844E1,1.426159954E1,3.517799854E0,-5.073800087E0
3.094800313E1,1.328269958E1,3.093600035E0,-3.801899910E0
3.097799844E1,1.261520004E1,2.145200014E0,-2.298099995E0
3.099800000E1,1.318799973E1,3.152000010E-1,-1.540199995E0
3.102799844E1,1.235109997E1,2.820000052E-1,-4.776999950E-1
3.104800156E1,1.119289970E1,9.880999923E-1,-4.183000028E-1
3.107799844E1,1.026389980E1,-8.808999658E-1,-4.754999876E-1
3.109799844E1,9.302599907E0,-2.981299877E0,-4.809999838E-2
3.111799844E1,7.734999657E0,-4.572999954E0,5.595999956E-1
3.113800625E1,5.983799934E0,-5.194299698E0,1.151999950E0
3.116799844E1,4.161900043E0,-4.879099846E0,2.060099840E0
3.118799844E1,3.164899826E0,-4.426399708E0,2.588099957E0
3.120800000E1,2.330800056E0,-4.171400070E0,2.776499987E0
3.123799844E1,8.387999535E-1,-4.525399685E0,2.487900019E0
3.125799844E1,-2.029999904E-2,-5.174399853E0,2.015799999E0
3.127800000E1,-9.669999480E-1,-5.627299786E0,1.603899956E0
3.130799844E1,-2.799399853E0,-5.913699627E0,1.927999973E0
3.132799844E1,-3.633499861E0,-6.147299767E0,2.002899885E0
3.134800000E1,-4.228399754E0,-6.321300030E0,1.186800003E0
3.137799844E1,-5.421899796E0,-7.119899750E0,1.972000003E-1
3.139799844E1,-7.161499977E0,-7.809599876E0,8.884999752E-1
3.141800000E1,-8.734600067E0,-7.910199642E0,1.735999942E0
3.143800000E1,-9.366600037E0,-7.672899723E0,1.918799996E0
3.146799844E1,-7.821499825E0,-9.112299919E0,1.169899940E0
3.148800938E1,-7.206799984E0,-1.138879967E1,7.073999643E-1
3.151799844E1,-9.583399773E0,-1.085589981E1,1.579399943E0
3.153799844E1,-1.035419941E1,-9.031999588E0,3.492799997E0
3.155800000E1,-8.258899689E0,-8.453599930E0,4.703599930E0
3.157800000E1,-4.712299824E0,-9.200900078E0,3.180599928E0
3.160800000E1,-9.434999824E-1,-8.903499603E0,-7.516999841E-1
3.162800000E1,-9.836999774E-1,-7.480599880E0,-1.728599906E0
3.164800000E1,-9.921999574E-1,-6.271199703E0,-1.524999976E0
3.167800469E1,-3.398999870E-1,-5.016299725E0,-5.852999687E-1
3.170800000E1,3.682999909E-1,-3.779500008E0,-3.309999779E-2
3.172800469E1,8.370999694E-1,-3.206399918E0,5.706999898E-1
3.175799844E1,2.462299824E0,-2.695299864E0,1.192799926E0
3.177800469E1,4.098400116E0,-2.304699898E0,8.108999729E-1
3.180799844E1,6.011499882E0,-1.345700026E0,5.191000104E-1
3.182800156E1,7.325599670E0,-6.715999842E-1,5.112000108E-1
3.185799844E1,9.119400024E0,2.590000033E-1,-8.590000123E-2
3.187800000E1,1.048929977E1,1.237999916E0,-1.014099956E0
3.190799844E1,1.194619942E1,2.548899889E0,-3.416399956E0
3.192800469E1,1.216569996E1,2.867899895E0,-5.118799686E0
3.195799844E1,1.146619987E1,2.999899864E0,-6.005699635E0
3.197800000E1,1.081689930E1,2.991199970E0,-5.893799782E0
3.199800000E1,1.045189953E1,2.953099966E0,-4.825699806E0
3.202800625E1,1.164379978E1,3.568999767E-1,-3.284299850E0
3.205800000E1,1.126569939E1,-1.640799999E0,-2.111999989E0
3.207800625E1,9.722899437E0,-8.798999786E-1,-1.148299932E0
3.210799844E1,8.554999352E0,-7.838999629E-1,-3.721999824E-1
3.212800000E1,8.094399452E0,-1.765499949E0,2.436999977E-1
3.214800000E1,7.008899689E0,-2.873999834E0,8.288999796E-1
3.217799844E1,5.192299843E0,-3.709899902E0,9.368000031E-1
3.219799844E1,3.931399822E0,-3.720099926E0,1.236199975E0
3.221800625E1,2.700999975E0,-3.310899973E0,1.755499959E0
3.224799844E1,1.560299993E0,-3.154500008E0,2.193099976E0
3.226800625E1,1.056399941E0,-3.626699924E0,2.307899952E0
3.229799844E1,-5.444999933E-1,-3.896899939E0,2.351999998E0
3.231800156E1,-1.589399934E0,-3.869599819E0,2.403800011E0
3.234800000E1,-2.972100019E0,-4.175099850E0,2.046000004E0
3.236800469E1,-4.139800072E0,-4.632499695E0,2.252199888E0
3.238800938E1,-5.171299934E0,-5.141599655E0,2.698400021E0
3.241800781E1,-6.057699680E0,-5.554599762E0,2.574499846E0
3.244800000E1,-6.672499657E0,-5.930599689E0,2.039299965E0
3.246800312E1,-7.220899582E0,-5.958099842E0,1.690699935E0
3.249800000E1,-7.941399574E0,-6.961799622E0,2.847000062E-1
3.251800469E1,-8.067600250E0,-9.387299538E0,-7.919999957E-1
3.254800000E1,-9.103699684E0,-1.194679928E1,1.745999902E-1
3.256800000E1,-1.046729946E1,-1.068410015E1,2.457399845E0
3.258800781E1,-9.422900200E0,-9.402799606E0,4.151999950E0
3.261800312E1,-4.896199703E0,-9.282400131E0,3.558099985E0
3.264800000E1,-1.799099922E0,-9.311399460E0,-3.912999928E-1
3.266800469E1,-1.237299919E0,-8.752799988E0,-1.949199915E0
3.269799844E1,-1.471499920E0,-6.595399857E0,-1.909999967E0
3.271800469E1,-1.732899904E0,-5.380399704E0,-1.199299932E0
3.274799844E1,-9.082999825E-1,-4.453499794E0,1.253999919E-1
3.276799844E1,5.467999578E-1,-3.930699825E0,6.215999722E-1
3.278800938E1,2.227599859E0,-3.037999868E0,3.702999949E-1
3.281800000E1,4.155299664E0,-2.042799950E0,1.897999942E-1
3.284800000E1,5.626800060E0,-1.380599976E0,1.999999949E-4
3.287804219E1,7.354199886E0,-6.006000042E-1,-9.517999887E-1
3.290800312E1,9.293999672E0,2.662000060E-1,-4.189999998E-1
3.293799844E1,1.091879940E1,1.535300016E0,-1.667999923E-1
3.295800469E1,1.169029999E1,2.275699854E0,-5.419999957E-1
3.298800938E1,1.324989986E1,2.709800005E0,-1.697899938E0
3.301799844E1,1.401970005E1,3.034199953E0,-3.373399973E0
3.303799844E1,1.422399998E1,2.812799931E0,-4.067199707E0
3.305800312E1,1.472109985E1,1.309000015E0,-4.337500095E0
3.308799844E1,1.365199947E1,-1.343599916E0,-3.806899786E0
3.310800625E1,1.193050003E1,-1.211599946E0,-2.292000055E0
3.313800000E1,1.072809982E1,-1.207499981E0,-1.037699938E0
3.315800000E1,1.068060017E1,-3.033399820E0,-6.667999625E-1
3.318800938E1,8.528100014E0,-5.613899708E0,2.198999971E-1
3.321800000E1,5.097499847E0,-5.658499718E0,1.543099999E0
3.324800625E1,2.721099854E0,-4.761699677E0,2.720799923E0
3.327800000E1,1.302199960E0,-4.359799862E0,2.512599945E0
3.330799844E1,-2.529000044E-1,-4.696599960E0,1.765499949E0
3.332799844E1,-1.188799977E0,-5.044600010E0,1.487699986E0
3.334800625E1,-2.342499971E0,-5.353899956E0,1.178799987E0
3.337799844E1,-3.552899837E0,-5.373099804E0,1.260800004E0
3.339800469E1,-4.028100014E0,-5.470900059E0,1.086899996E0
3.342799844E1,-4.709300041E0,-5.972499847E0,7.813000083E-1
3.344799844E1,-5.414700031E0,-6.361700058E0,6.961999536E-1
3.346799844E1,-6.165899754E0,-6.982599735E0,1.049999952E0
3.348800000E1,-6.703499794E0,-7.548999786E0,1.539199948E0
3.351799844E1,-7.667099953E0,-7.633899689E0,1.637899995E0
3.353799844E1,-8.581199646E0,-7.633999825E0,1.366599917E0
3.355800000E1,-9.086799622E0,-8.460399628E0,1.233899951E0
3.357800000E1,-8.984499931E0,-9.955299377E0,9.038999677E-1
3.359800313E1,-8.584099770E0,-1.105490017E1,5.727999806E-1
3.362799844E1,-7.763000011E0,-1.004199982E1,1.125199914E0
3.364800625E1,-6.158299923E0,-9.204199791E0,2.325999975E0
3.367800000E1,-3.504499912E0,-8.946599960E0,2.789299965E0
3.370800000E1,-1.882200003E0,-8.533999443E0,2.048099995E0
3.373799844E1,-9.397999644E-1,-7.143699646E0,6.606000066E-1
3.375799844E1,7.000000030E-2,-5.793699741E0,1.567000002E-1
3.377800000E1,1.136399984E0,-4.621699810E0,2.829000056E-1
3.379800469E1,2.321699858E0,-3.666499853E0,2.439000010E-1
3.382799844E1,3.170699835E0,-2.735399961E0,8.399999887E-2
3.384800000E1,3.847499847E0,-2.433599949E0,-1.997999996E-1
3.387800000E1,6.661599636E0,-1.634899974E0,-2.369999886E-1
3.390799844E1,9.915299416E0,-2.243999988E-1,-1.117299914E0
3.392800000E1,1.056419945E1,8.199999928E-1,-1.962799907E0
3.395799844E1,1.046780014E1,2.785199881E0,-2.816999912E0
3.397799844E1,1.125629997E1,3.938599825E0,-3.629799843E0
3.399800000E1,1.248110008E1,4.385399818E0,-5.147399902E0
3.402799844E1,1.270189953E1,3.710299969E0,-6.369799614E0
3.404799844E1,1.174049950E1,3.034299850E0,-5.585799694E0
3.406800000E1,1.110179996E1,2.469099998E0,-4.704299927E0
3.409799844E1,1.230959988E1,2.858999968E-1,-3.880100012E0
3.411799844E1,1.293779945E1,-1.113299966E0,-3.578399897E0
3.413800313E1,1.139830017E1,1.196999997E-1,-3.103600025E0
3.416799844E1,9.966499329E0,4.299999774E-2,-2.556499958E0
3.418799844E1,9.636799812E0,-1.976899981E0,-1.774099946E0
3.420800000E1,8.907699585E0,-3.993699789E0,-8.150999546E-1
3.423799844E1,6.334899902E0,-5.544600010E0,4.016000032E-1
3.425799844E1,4.726299763E0,-5.501599789E0,1.146700025E0
3.427800938E1,3.708299875E0,-5.036900043E0,1.919799924E0
3.430799844E1,2.514099836E0,-4.803499699E0,2.489799976E0
3.432799844E1,1.354099989E0,-4.674799919E0,2.666399956E0
3.434800000E1,1.885999888E-1,-4.824699879E0,2.680399895E0
3.437799844E1,-1.539899945E0,-5.001800060E0,2.498399973E0
3.439799844E1,-2.498600006E0,-5.006199837E0,2.463199854E0
3.441800000E1,-3.066099882E0,-5.344099998E0,2.181699991E0
3.443800312E1,-3.698799849E0,-5.634900093E0,1.951599956E0
3.446799844E1,-4.825200081E0,-6.353999615E0,1.590099931E0
3.448800000E1,-5.507199764E0,-6.798999786E0,1.234099984E0
3.450800000E1,-6.508100033E0,-7.009299755E0,1.048599958E0
3.452800469E1,-7.537199974E0,-7.452699661E0,1.537299991E0
3.455800000E1,-8.525099754E0,-8.052899361E0,1.837899923E0
3.457800469E1,-9.306200027E0,-8.502699852E0,1.755599976E0
3.460799844E1,-1.027330017E1,-8.933699608E0,2.535199881E0
3.462799844E1,-1.002320004E1,-9.767399788E0,2.909199953E0
3.464800000E1,-9.083499908E0,-1.084459972E1,1.626299977E0
3.466800000E1,-7.973799706E0,-1.022029972E1,1.184000015E0
3.469799844E1,-4.592299938E0,-1.016679955E1,9.882999659E-1
3.471799844E1,-1.821799994E0,-1.047839928E1,7.953999639E-1
3.473799844E1,9.679999948E-2,-1.019489956E1,6.062999964E-1
3.475799844E1,6.452999711E-1,-8.966699600E0,1.056599975E0
3.477800313E1,4.073999822E-1,-7.328799725E0,1.233099937E0
3.480799844E1,5.403999686E-1,-5.375099659E0,5.891999602E-1
3.482799844E1,1.422199965E0,-4.631799698E0,2.489999980E-1
3.484800000E1,2.423799992E0,-3.905200005E0,3.306999803E-1
3.486800625E1,3.450500011E0,-3.151999950E0,2.584999800E-1
3.489799844E1,4.201099873E0,-2.213599920E0,-4.867999852E-1
3.491800781E1,4.920700073E0,-1.751599908E0,-9.177999496E-1
3.494799844E1,6.552899837E0,-1.116699934E0,-9.887999892E-1
3.496800469E1,7.891299725E0,-6.954999566E-1,-1.193099976E0
3.498800938E1,9.496799469E0,-8.269999921E-2,-1.545199990E0
3.501800312E1,1.123359966E1,1.297500014E0,-2.008199930E0
3.504800000E1,1.283549976E1,2.340600014E0,-2.825099945E0
3.506800469E1,1.418750000E1,2.687700033E0,-3.723999977E0
3.509799844E1,1.490569973E1,3.237200022E0,-5.434299946E0
3.511799844E1,1.471949959E1,3.400899887E0,-6.001800060E0
3.513800000E1,1.500289917E1,1.773099899E0,-5.580699921E0
3.516800469E1,1.377289963E1,-1.865299940E0,-4.166500092E0
3.519799844E1,1.051099968E1,-1.113399982E0,-1.714499950E0
3.521800156E1,1.021689987E1,-1.621399999E0,-8.840000033E-1
3.524799844E1,1.000150013E1,-3.949699879E0,-9.499999881E-2
3.526799844E1,9.025300026E0,-5.179599762E0,4.217999876E-1
3.528800000E1,7.502799988E0,-5.616499901E0,7.883999944E-1
3.531800625E1,5.541899681E0,-4.869999886E0,1.780900002E0
3.534800000E1,4.429199696E0,-4.799699783E0,2.248899937E0
3.537799844E1,2.573899984E0,-5.526400089E0,2.065599918E0
3.539799844E1,1.355399966E0,-6.212499619E0,2.131700039E0
3.541800625E1,1.150999963E-1,-6.975100040E0,2.113499880E0
3.544799844E1,-2.302000046E0,-7.391499996E0,2.029700041E0
3.546800312E1,-4.051000118E0,-7.791699886E0,2.420799971E0
3.549799844E1,-8.164999962E0,-8.366199493E0,4.211299896E0
3.551799844E1,-9.677700043E0,-8.455200195E0,4.893799782E0
3.553799844E1,-1.021179962E1,-7.812599659E0,4.588999748E0
3.555800156E1,-9.939700127E0,-7.684599876E0,3.720199823E0
3.558800938E1,-1.012819958E1,-6.404900074E0,3.014499903E0
3.561799844E1,-9.475799561E0,-6.659499645E0,2.307999849E0
3.563800000E1,-9.187799454E0,-7.121699810E0,1.872799993E0
3.565800469E1,-8.473299980E0,-8.133500099E0,1.146299958E0
3.568800000E1,-7.009699821E0,-9.252299309E0,-1.603199959E0
3.570800781E1,-6.258800030E0,-8.448399544E0,-9.437999725E-1
3.573799844E1,-4.797199726E0,-8.439899445E0,2.404500008E0
3.575800781E1,-4.205500126E0,-8.330699921E0,4.467000008E0
3.578800938E1,-3.097899914E0,-7.931799889E0,4.711299896E0
3.581799844E1,-1.553499937E0,-7.237299919E0,2.517099857E0
3.583799844E1,-9.527999759E-1,-6.546799660E0,1.689099908E0
3.585800312E1,-3.192999959E-1,-6.011499882E0,1.363299966E0
3.588799844E1,9.183999896E-1,-5.243899822E0,1.999899983E0
3.590799844E1,2.185699940E0,-4.752599716E0,2.562700033E0
3.592800000E1,3.912099838E0,-4.374499798E0,2.429399967E0
3.594800000E1,5.576200008E0,-3.825799942E0,1.564799905E0
3.597799844E1,7.892199993E0,-3.165699959E0,1.387999952E-1
3.599800313E1,9.082499504E0,-2.912799835E0,-5.794000030E-1
3.602799844E1,1.004339981E1,-2.120800018E0,-1.619300008E0
3.604800469E1,1.070720005E1,-1.650399923E0,-1.966099977E0
3.607800000E1,1.211149979E1,-1.157699943E0,-4.456599712E0
3.609800313E1,1.323849964E1,-1.385999918E0,-3.363899946E0
3.612799844E1,1.435569954E1,-7.559999824E-1,-3.914299965E0
3.614800312E1,1.496649933E1,-4.916999936E-1,-6.739799976E0
3.617799844E1,1.450949955E1,8.517000079E-1,-7.728499889E0
3.619799844E1,1.547859955E1,-1.108899951E0,-8.197500229E0
3.621800000E1,1.527320004E1,-4.048699856E0,-8.620800018E0
3.624800313E1,1.195819950E1,-3.625099897E0,-6.786399841E0
3.627800000E1,1.197329998E1,-5.482699871E0,-3.836699963E0
3.629800781E1,1.264089966E1,-8.596799850E0,-1.295499921E0
3.632799844E1,1.186189938E1,-1.033239937E1,1.925799966E0
3.634800000E1,1.102719975E1,-1.071439934E1,2.413199902E0
3.637799844E1,8.252300262E0,-9.993000031E0,4.157999992E0
3.639800469E1,6.035399914E0,-9.512700081E0,4.585700035E0
3.642800000E1,2.703500032E0,-1.012729931E1,3.705299854E0
3.645799844E1,-1.455799937E0,-1.018299961E1,3.270499945E0
3.647799844E1,-3.764999866E0,-9.337999344E0,3.467700005E0
3.649800313E1,-4.804800034E0,-8.723799706E0,2.955600023E0
3.652799844E1,-4.736499786E0,-8.690799713E0,2.064699888E0
3.654799844E1,-4.905099869E0,-8.857799530E0,1.938399911E0
3.656800000E1,-5.125999928E0,-9.705699921E0,1.842999935E0
3.658800312E1,-6.033699989E0,-9.986499786E0,2.280699968E0
3.661799844E1,-7.618499756E0,-9.747200012E0,3.441299915E0
3.663800000E1,-8.562500000E0,-9.541799545E0,3.832000017E0
3.666799844E1,-9.803199768E0,-9.761499405E0,3.839999914E0
3.668799844E1,-9.670800209E0,-1.129579926E1,2.440099955E0
3.670800000E1,-9.567799568E0,-1.253469944E1,4.468999803E-1
3.673799844E1,-1.105410004E1,-8.920700073E0,5.983999968E-1
3.675799844E1,-9.318599701E0,-8.778900146E0,2.319099903E0
3.677800000E1,-6.717799664E0,-1.034509945E1,3.123899937E0
3.680799844E1,-3.907399893E0,-1.157979965E1,1.813199997E0
3.682799844E1,-2.502499819E0,-1.125059986E1,7.215999961E-1
3.684800000E1,-1.341499925E0,-1.059849930E1,-2.569999993E-1
3.687799844E1,3.529999852E-1,-8.980400085E0,-2.976000011E-1
3.689799844E1,1.667799950E0,-8.168700218E0,4.523999989E-1
3.691800000E1,2.669499874E0,-7.371799946E0,1.580899954E0
3.693800781E1,3.429699898E0,-6.797499657E0,2.318300009E0
3.696799844E1,4.203899860E0,-5.878699780E0,2.111000061E0
3.698802031E1,5.009500027E0,-5.409599781E0,2.147399902E0
3.701799844E1,7.519199848E0,-5.222699642E0,1.749799967E0
3.703800781E1,9.686900139E0,-4.651999950E0,9.532999992E-1
3.706800000E1,1.173250008E1,-2.869299889E0,-2.071999907E-1
3.708800312E1,1.279559994E1,-1.264899969E0,-8.784999847E-1
3.711799844E1,1.520469952E1,3.017999828E-1,-2.962499857E0
3.713800313E1,1.623839951E1,8.294999599E-1,-4.775499821E0
3.716799844E1,1.608670044E1,8.449999690E-1,-7.584599972E0
3.718800156E1,1.469189930E1,1.360099912E0,-8.324600220E0
3.721800000E1,1.305089951E1,2.031499863E0,-7.021299839E0
3.724799844E1,1.414890003E1,-9.919999540E-2,-5.681499958E0
3.726799844E1,1.388709927E1,-7.164999843E-1,-4.681099892E0
3.728800000E1,1.248859978E1,-4.601999819E-1,-3.672099829E0
3.731799844E1,1.167159939E1,-2.751999855E0,-3.018699884E0
3.733799844E1,1.156400013E1,-5.490200043E0,-1.996999979E0
3.735800000E1,1.053039932E1,-7.191999912E0,-3.515000045E-1
3.737800625E1,8.971300125E0,-7.605799675E0,1.312500000E0
3.740799844E1,6.586799622E0,-7.278199673E0,2.934899807E0
3.742800000E1,4.936100006E0,-6.965299606E0,3.953699827E0
3.744800000E1,3.503799915E0,-6.320699692E0,4.771500111E0
3.747799844E1,2.314899921E0,-6.768199921E0,4.236899853E0
3.749800000E1,1.257499933E0,-7.171999931E0,3.417099953E0
3.752800625E1,-8.259999752E-1,-7.630099773E0,3.055199862E0
3.755799844E1,-2.797699928E0,-7.692099571E0,2.665400028E0
3.757800625E1,-4.001800060E0,-7.822299957E0,2.164399862E0
3.760800000E1,-6.200200081E0,-7.915799618E0,2.094799995E0
3.762800000E1,-7.570099831E0,-7.460499763E0,2.441200018E0
3.765799844E1,-8.517899513E0,-7.525899887E0,2.388000011E0
3.767800156E1,-8.299099922E0,-8.337599754E0,2.494199991E0
3.770800000E1,-9.127299309E0,-7.894599915E0,3.175299883E0
3.773799844E1,-9.609700203E0,-7.471699715E0,3.422299862E0
3.775799844E1,-8.717999458E0,-8.628600121E0,2.380599976E0
3.777799844E1,-7.500599861E0,-1.048460007E1,1.265999913E0
3.779799844E1,-7.344999790E0,-1.078619957E1,8.319999576E-1
3.781800313E1,-7.381499767E0,-9.424499512E0,1.790699959E0
3.784800000E1,-4.609600067E0,-9.402999878E0,3.122200012E0
3.786806875E1,-2.591099977E0,-9.256099701E0,3.249300003E0
3.789799844E1,-1.949999928E-1,-8.908100128E0,2.109499931E0
3.791800625E1,3.479999900E-1,-7.818899632E0,1.076499939E0
3.794799844E1,5.058999658E-1,-5.405499935E0,-1.098999977E-1
3.796800312E1,1.116999984E0,-4.520599842E0,-9.164999723E-1
3.799800000E1,2.452100039E0,-3.644799948E0,-1.035599947E0
3.802799844E1,3.927500010E0,-3.509599924E0,2.802999914E-1
3.804799844E1,4.928199768E0,-3.331799984E0,7.211999893E-1
3.806800625E1,6.224699974E0,-2.855499983E0,4.721999764E-1
3.809799844E1,9.069099426E0,-1.714399934E0,6.934999824E-1
3.811799844E1,1.074499989E1,-6.426999569E-1,5.449000001E-1
3.813800000E1,1.191449928E1,8.443999887E-1,-3.482999802E-1
3.815800625E1,1.236819935E1,2.499199867E0,-1.851199985E0
3.818799844E1,1.294379997E1,3.398299932E0,-5.313999653E0
3.820800781E1,1.294089985E1,3.114199877E0,-7.641899586E0
3.823799844E1,1.179059982E1,2.690299988E0,-9.238800049E0
3.825800000E1,1.068949986E1,3.006599903E0,-7.948099613E0
3.827800000E1,1.036030006E1,2.616199970E0,-5.763099670E0
3.830799844E1,1.195549965E1,-1.371799946E0,-3.480099916E0
3.832799844E1,1.164219952E1,-2.416499853E0,-1.847599983E0
3.834800000E1,9.843699455E0,-7.922999859E-1,-2.854000032E-1
3.837799844E1,9.389599800E0,-1.502799988E0,-4.141999781E-1
3.839799844E1,9.673699379E0,-3.874199867E0,-4.403999746E-1
3.841800000E1,8.764299393E0,-5.310999870E0,1.869999990E-2
3.843800000E1,7.087699890E0,-6.015500069E0,7.599999905E-1
3.845800625E1,5.270899773E0,-5.548799992E0,1.588799953E0
3.848800000E1,3.408999920E0,-4.276400089E0,3.032099962E0
3.850800000E1,2.744999886E0,-4.163099766E0,3.371199846E0
3.853799844E1,1.629499912E0,-4.527400017E0,3.332799911E0
3.855800156E1,5.616999865E-1,-5.124199867E0,2.847299814E0
3.858799844E1,-1.518499970E0,-5.516299725E0,2.657500029E0
3.860799844E1,-2.735100031E0,-5.544600010E0,2.574599981E0
3.862799844E1,-3.730899811E0,-5.571099758E0,2.344099998E0
3.864800156E1,-4.576099873E0,-5.901899815E0,2.132599831E0
3.867799844E1,-6.064699650E0,-6.498099804E0,2.070199966E0
3.869800156E1,-7.264099598E0,-7.140100002E0,2.426800013E0
3.872799844E1,-9.270599365E0,-7.693099976E0,2.880399942E0
3.874800313E1,-1.051309967E1,-7.270199776E0,3.429399967E0
3.877800000E1,-9.911299706E0,-7.763199806E0,3.348500013E0
3.879800312E1,-7.926599979E0,-1.055060005E1,2.132499933E0
3.882799844E1,-8.555799484E0,-1.017039967E1,2.440399885E0
3.884800000E1,-8.476599693E0,-7.399199963E0,4.494800091E0
3.887799844E1,-3.369400024E0,-8.386899948E0,3.882900000E0
3.889800000E1,-6.036999822E-1,-9.585899353E0,1.289799929E0
3.891800000E1,6.022999883E-1,-9.888299942E0,-2.121599913E0
3.893800000E1,5.359999835E-2,-7.933199883E0,-4.234899998E0
3.896799844E1,-1.094599962E0,-4.844199657E0,-3.818799973E0
3.898800000E1,-8.306999803E-1,-4.363199711E0,-2.068099976E0
3.900800000E1,-4.254999757E-1,-3.808499813E0,7.113999724E-1
3.903799844E1,7.246999741E-1,-2.799899817E0,2.310199976E0
3.905799844E1,1.106599927E0,-1.891799927E0,1.450599909E0
3.907800000E1,1.743399978E0,-1.697699904E0,6.054999828E-1
3.909800313E1,2.677199841E0,-1.391399980E0,5.133000016E-1
3.912799844E1,4.363599777E0,-8.337000012E-1,5.493999720E-1
3.914800312E1,5.194600105E0,-1.445999891E-1,-1.184000000E-1
3.917800000E1,6.276999950E0,6.897000074E-1,-1.644999981E-1
3.920800000E1,7.937500000E0,1.650999904E0,5.409999937E-2
3.923799844E1,8.989399910E0,1.829599977E0,-1.621999890E-1
3.925799844E1,1.012189960E1,1.234399915E0,-3.682999909E-1
3.927800000E1,1.155569935E1,1.022300005E0,-9.595999718E-1
3.930799844E1,1.317549992E1,1.439700007E0,-2.218199968E0
3.932799844E1,1.328090000E1,1.179000020E0,-3.270799875E0
3.934800000E1,1.377859974E1,-1.011199951E0,-3.852699995E0
3.937799844E1,1.154199982E1,-2.509000003E-1,-2.939699888E0
3.939799844E1,9.354499817E0,1.694299936E0,-2.139400005E0
3.941800000E1,9.059999466E0,1.245100021E0,-2.107899904E0
3.943800625E1,9.511199951E0,-8.154999614E-1,-2.338299990E0
3.946799844E1,7.886499882E0,-2.331500053E0,-2.309799910E0
3.948800313E1,6.443599701E0,-2.823899984E0,-2.473599911E0
3.951799844E1,5.025899887E0,-2.845199823E0,-1.147099972E0
3.953799844E1,4.531399727E0,-3.041699886E0,1.613999903E-1
3.955799844E1,3.989399910E0,-3.251600027E0,1.144699931E0
3.957800000E1,3.411099911E0,-3.617499828E0,1.509400010E0
3.960800000E1,2.719699860E0,-4.965699673E0,1.378700018E0
3.962800312E1,1.461599946E0,-5.731800079E0,1.618299961E0
3.965799844E1,-6.832999587E-1,-6.423399925E0,2.292099953E0
3.967800000E1,-2.415199995E0,-6.341899872E0,2.800699949E0
3.970800000E1,-4.101099968E0,-6.133999825E0,3.285199881E0
3.972800000E1,-4.764699936E0,-6.447399616E0,3.088199854E0
3.975799844E1,-6.081799984E0,-7.174599648E0,2.977099895E0
3.977800625E1,-7.362599850E0,-6.986299992E0,3.209800005E0
3.980799844E1,-8.377200127E0,-5.903399944E0,3.578699827E0
3.982800312E1,-7.375599861E0,-7.013899803E0,2.965199947E0
3.985799844E1,-5.818199635E0,-1.061019993E1,1.120800018E0
3.987800469E1,-7.146999836E0,-1.031960011E1,5.903999805E-1
3.990799844E1,-8.877799988E0,-7.288899899E0,2.244999886E0
3.992800313E1,-6.271999836E0,-8.186100006E0,3.536700010E0
3.995799844E1,-3.620699883E0,-8.590299606E0,2.878999949E0
3.997800156E1,-3.456199884E0,-7.921599865E0,1.180499911E0
4.000800000E1,-4.118000031E0,-6.081399918E0,-3.700000048E-1
4.003799844E1,-3.648499966E0,-5.315000057E0,-4.901999831E-1
4.005800000E1,-2.620199919E0,-5.115099907E0,4.431999922E-1
4.007800781E1,-1.474900007E0,-4.751999855E0,1.424799919E0
4.010800000E1,7.174999714E-1,-4.168699741E0,1.396699905E0
4.012800469E1,2.196099997E0,-3.805199862E0,8.985999823E-1
4.015800000E1,4.663399696E0,-3.557399988E0,4.305000007E-1
4.017800000E1,6.577300072E0,-3.698099852E0,1.476999968E-1
4.020800000E1,8.280300140E0,-2.805899858E0,-3.249000013E-1
4.022800000E1,8.967999458E0,-2.112900019E0,-4.143999815E-1
4.025799844E1,1.000279999E1,-1.001899958E0,2.469999902E-2
4.027800313E1,1.083769989E1,-5.629999638E-1,-1.235999987E-1
4.030799844E1,1.254659939E1,-3.091999888E-1,-6.530999541E-1
4.032799844E1,1.330340004E1,1.437000036E-1,-1.661199927E0
4.034800000E1,1.333469963E1,7.310000062E-1,-3.592799902E0
4.036800625E1,1.307529926E1,1.271499991E0,-5.511699677E0
4.038800781E1,1.348950005E1,3.304999769E-1,-6.963599682E0
4.041800000E1,1.431659985E1,-2.958499908E0,-7.606199741E0
4.043800000E1,1.157299995E1,-9.743999839E-1,-5.599999905E0
4.046800781E1,1.059560013E1,-1.069499969E0,-2.861699820E0
4.049800000E1,1.059759998E1,-4.216399670E0,-1.216300011E0
4.051800312E1,9.436699867E0,-5.203899860E0,-1.525000036E-1
4.054799844E1,7.535299778E0,-5.400199890E0,7.135999799E-1
4.056800156E1,6.210799694E0,-5.778999805E0,1.190299988E0
4.059799844E1,3.785399914E0,-5.391599655E0,2.771699905E0
4.061800000E1,2.835500002E0,-5.546799660E0,3.326999903E0
4.063800000E1,2.091799974E0,-6.177499771E0,3.123099804E0
4.066800313E1,-1.207999960E-1,-6.583199978E0,2.946099997E0
4.069799844E1,-2.607499838E0,-6.603999615E0,2.988999844E0
4.071800156E1,-3.908499956E0,-6.355299950E0,2.729399920E0
4.074799844E1,-4.904200077E0,-6.801799774E0,1.950799942E0
4.076799844E1,-5.831999779E0,-6.963999748E0,1.827499986E0
4.078800938E1,-6.840999603E0,-7.464499950E0,1.591199994E0
4.081800313E1,-8.413700104E0,-7.945199966E0,1.570400000E0
4.084800000E1,-9.681499481E0,-7.393399715E0,1.223999977E0
4.086800000E1,-9.467299461E0,-7.577999592E0,7.926999927E-1
4.089799844E1,-6.189599991E0,-1.158510017E1,-6.700000167E-2
4.091800000E1,-6.157299995E0,-1.125719929E1,1.528100014E0
4.093800000E1,-7.656199932E0,-8.061800003E0,5.224899769E0
4.095800625E1,-6.515699863E0,-7.304199696E0,6.846499920E0
4.098800938E1,-1.020300031E0,-8.878499985E0,5.132899761E0
4.101799844E1,1.324000001E0,-7.807299614E0,3.243999779E-1
4.103799844E1,-2.105000019E-1,-4.945399761E0,-2.723700047E0
4.105800312E1,-1.120399952E0,-2.534199953E0,-3.967399836E0
4.108799844E1,-3.374199867E0,-1.047099948E0,-3.048099995E0
4.110800781E1,-2.639600039E0,-1.974599957E0,-7.437999845E-1
4.113800000E1,-1.409199953E0,-2.241199970E0,1.810099959E0
4.115800625E1,-4.590999782E-1,-2.263700008E0,2.613699913E0
4.118799844E1,2.032500029E0,-2.872299910E0,2.713500023E0
4.120800313E1,3.625199795E0,-3.168699980E0,2.922899961E0
4.123799844E1,5.973999977E0,-3.252099991E0,3.125399828E0
4.125800312E1,7.377499580E0,-2.897300005E0,2.575799942E0
4.128800000E1,9.550700188E0,-1.697799921E0,1.129099965E0
4.130800625E1,1.080579948E1,-6.240000129E-1,-4.763000011E-1
4.133799844E1,1.212919998E1,1.109999940E-1,-3.761299849E0
4.135800000E1,1.261149979E1,4.135999978E-1,-5.805099964E0
4.138799844E1,1.211639977E1,1.339200020E0,-7.534399986E0
4.140800312E1,1.147169971E1,1.688399911E0,-7.813799858E0
4.143800000E1,1.248479939E1,-1.087100029E0,-6.638000011E0
4.146799844E1,1.175539970E1,-2.459399939E0,-4.123699665E0
4.148799844E1,9.711199760E0,-1.192499995E0,-1.974999905E0
4.150800000E1,8.467599869E0,-9.355999827E-1,-6.991999745E-1
4.153799844E1,7.853199959E0,-3.740499973E0,-3.307999969E-1
4.155799844E1,6.743299961E0,-5.080999851E0,4.582999945E-1
4.157800000E1,4.813199997E0,-4.677099705E0,1.789099932E0
4.159800313E1,3.296099901E0,-3.600600004E0,2.839799881E0
4.162799844E1,2.140799999E0,-2.735100031E0,3.238899946E0
4.164800156E1,1.686899900E0,-2.388499975E0,3.130599976E0
4.167799844E1,1.331699967E0,-2.479399920E0,2.378700018E0
4.169800156E1,9.142999649E-1,-2.721699953E0,1.610199928E0
4.172799844E1,-7.660000026E-2,-3.320400000E0,1.389899969E0
4.174800625E1,-8.332999945E-1,-3.552899837E0,1.965399981E0
4.177800000E1,-1.361999989E0,-4.306600094E0,2.756500006E0
4.180799844E1,-2.496399879E0,-5.242199898E0,2.730900049E0
4.182799844E1,-3.566699982E0,-6.001599789E0,2.741899967E0
4.184800469E1,-5.252599716E0,-6.576599598E0,2.944299936E0
4.187799844E1,-8.086299896E0,-7.000799656E0,2.906399965E0
4.189800625E1,-1.010649967E1,-7.567999840E0,1.836199999E0
4.192800000E1,-1.165789986E1,-7.672599792E0,7.558999658E-1
4.195799844E1,-9.914099693E0,-1.063770008E1,1.374899983E0
4.197799844E1,-8.714599609E0,-1.080259991E1,2.254099846E0
4.199800000E1,-8.817999840E0,-8.626199722E0,4.294300079E0
4.202799844E1,-5.776599884E0,-8.209199905E0,5.021899700E0
4.204799844E1,-2.603999853E0,-8.366299629E0,3.697099924E0
4.206800000E1,1.421999931E-1,-8.255899429E0,1.455399990E0
4.208800156E1,1.314499974E0,-7.143799782E0,-7.290999889E-1
4.211799844E1,1.273999959E-1,-4.091899872E0,-2.581899881E0
4.213800156E1,-1.370999962E-1,-3.419399977E0,-2.502799988E0
4.216799844E1,-1.203999966E-1,-1.902699947E0,-2.965399981E0
4.218800625E1,3.155999780E-1,-1.054700017E0,-3.171700001E0
4.221800000E1,1.627799988E0,-8.844999671E-1,-2.300899982E0
4.223800313E1,2.110199928E0,-6.708999872E-1,-1.577600002E0
4.226799844E1,2.613699913E0,-2.958000004E-1,-9.239999950E-2
4.228800156E1,3.434899807E0,-3.527999818E-1,6.309999824E-1
4.231799844E1,4.793900013E0,-1.411999911E-1,1.422799945E0
4.233800469E1,5.875799656E0,2.816999853E-1,1.411599994E0
4.236800000E1,7.848499775E0,7.368999720E-1,1.099399924E0
4.238801562E1,9.774000168E0,8.057000041E-1,8.792999983E-1
4.241799844E1,1.190059948E1,1.079800010E0,5.090999603E-1
4.243799844E1,1.263569927E1,1.896600008E0,4.105999768E-1
4.245799844E1,1.321609974E1,2.682799816E0,3.019999862E-1
4.247799844E1,1.420899963E1,2.270999908E0,3.051999807E-1
4.249800000E1,1.556089973E1,-3.599999845E-1,5.004000068E-1
4.252800156E1,1.361859989E1,-4.477999806E-1,1.794899940E0
4.255799844E1,9.446299553E0,1.009699941E0,1.933099985E0
4.257800469E1,8.770699501E0,-7.994999886E-1,1.406199932E0
4.260800000E1,7.069699764E0,-2.937999964E0,1.264500022E0
4.262800156E1,5.510399818E0,-3.301999807E0,9.575999975E-1
4.265800000E1,3.879199982E0,-2.954999924E0,7.246999741E-1
4.267800156E1,3.536899805E0,-2.956499815E0,1.046999931E0
4.270800000E1,3.060999870E0,-3.374899864E0,1.338400006E0
4.272800625E1,2.500499964E0,-4.104799747E0,1.297999978E0
4.275799844E1,9.210000038E-1,-5.067899704E0,9.121999741E-1
4.277800313E1,-1.929999888E-1,-5.454400063E0,1.070899963E0
4.280799844E1,-1.792400002E0,-5.888199806E0,1.775499940E0
4.282800312E1,-2.710599899E0,-5.883800030E0,2.370100021E0
4.285804219E1,-3.795399904E0,-6.305299759E0,2.247099876E0
4.288799844E1,-5.262499809E0,-7.078999996E0,1.444299936E0
4.290799844E1,-6.888700008E0,-7.543799877E0,1.502599955E0
4.292800313E1,-8.692299843E0,-7.841199875E0,2.101999998E0
4.295799844E1,-1.035750008E1,-7.616099834E0,1.980199933E0
4.297799844E1,-1.004589939E1,-8.577199936E0,1.079299927E0
4.299800000E1,-9.049900055E0,-1.037150002E1,2.805999815E-1
4.301800625E1,-8.740300179E0,-1.108749962E1,-5.049999803E-2
4.304799844E1,-9.213600159E0,-7.910299778E0,2.569200039E0
4.306800313E1,-6.755099773E0,-7.998699665E0,3.652599812E0
4.309799844E1,-1.844499946E0,-1.006929970E1,1.848499894E0
4.311800312E1,-3.191999793E-1,-9.969399452E0,1.305000037E-1
4.314800000E1,-1.995999962E-1,-7.285299778E0,-1.518800020E0
4.316800469E1,-4.890999794E-1,-5.820299625E0,-1.649799943E0
4.318800938E1,-1.313000023E-1,-4.494800091E0,-1.361400008E0
4.321800000E1,8.974999785E-1,-3.396699905E0,-1.048699975E0
4.324799844E1,1.688099980E0,-2.286399841E0,-2.949999869E-1
4.326800312E1,2.164099932E0,-1.857299924E0,2.257999927E-1
4.329800000E1,3.290599823E0,-1.686999917E0,7.516999841E-1
4.332799844E1,5.381700039E0,-1.911899924E0,1.187899947E0
4.334800000E1,6.917099953E0,-1.770399928E0,1.542199969E0
4.336800625E1,7.941399574E0,-9.126999974E-1,1.866099954E0
4.338800781E1,9.146999359E0,-7.999999798E-4,1.607999921E0
4.341800000E1,1.093760014E1,1.274999976E0,4.651999772E-1
4.343800000E1,1.223829937E1,1.718599916E0,-6.757000089E-1
4.345800313E1,1.342079926E1,1.950499892E0,-2.036200047E0
4.348800000E1,1.413259983E1,2.523399830E0,-3.946299791E0
4.350800938E1,1.426399994E1,2.756099939E0,-4.371299744E0
4.353800000E1,1.518459988E1,1.233999953E-1,-4.471300125E0
4.355800313E1,1.513409996E1,-2.338999987E0,-4.532099724E0
4.358800781E1,1.102320004E1,-4.476999938E-1,-2.255499840E0
4.361800000E1,1.049269962E1,-2.346199989E0,-9.229999781E-1
4.363800000E1,1.023929977E1,-4.326699734E0,2.525999844E-1
4.365800469E1,9.466199875E0,-5.819699764E0,2.195299864E0
4.368800000E1,7.262699604E0,-6.042299747E0,4.571599960E0
4.370800156E1,5.789999962E0,-5.742799759E0,4.952600002E0
4.373799844E1,5.221099854E0,-5.488800049E0,5.224899769E0
4.375800156E1,5.024799824E0,-6.608599663E0,4.592299938E0
4.378800938E1,3.344399929E0,-8.070099831E0,3.497099876E0
4.381799844E1,2.556099892E0,-8.853699684E0,2.371099949E0
4.383799844E1,1.852399945E0,-8.929699898E0,1.799999952E0
4.385800312E1,1.263099909E0,-8.832099915E0,1.109099984E0
4.388799844E1,-1.166599989E0,-9.021100044E0,6.189999580E-1
4.390800000E1,-3.193699837E0,-8.797399521E0,-1.485999972E-1
4.392800000E1,-4.351500034E0,-8.129499435E0,-7.842999697E-1
4.394800625E1,-3.490700006E0,-7.763299942E0,-9.131000042E-1
4.397799844E1,-1.851699948E0,-7.778999805E0,-1.356799960E0
4.399800156E1,-1.826200008E0,-7.483500004E0,-1.332599998E0
4.402799844E1,-1.143199921E0,-7.144299984E0,-1.755800009E0
4.404800781E1,-5.425999761E-1,-6.814099789E0,-2.799799919E0
4.407800000E1,-1.641099930E0,-4.923999786E0,-3.665199995E0
4.410799844E1,-1.778199911E0,-2.944900036E0,-1.619899988E0
4.412799844E1,-1.151799917E0,-3.180099964E0,-1.950299978E0
4.414800781E1,-5.771999955E-1,-2.522099972E0,-2.469699860E0
4.417799844E1,-9.690000117E-2,-1.218099952E0,-2.230000019E0
4.419799844E1,5.812999606E-1,-7.602999806E-1,-1.820899963E0
4.421800000E1,1.347800016E0,-4.091999829E-1,-2.645699978E0
4.423800313E1,1.344099998E0,-2.908000052E-1,-3.760799885E0
4.426800000E1,4.136999846E-1,7.329999655E-2,-3.774599791E0
4.428800000E1,3.940000013E-2,7.679999620E-2,-3.020599842E0
4.431800000E1,-8.209999651E-2,7.899999619E-2,-3.278199911E0
4.434800156E1,-2.533999979E-1,2.143999934E-1,-3.711799860E0
4.437799844E1,-6.499999762E-2,3.905999959E-1,-3.039799929E0
4.439799844E1,-6.879999489E-2,4.411000013E-1,-3.072299957E0
4.441800156E1,-2.017000020E-1,5.813999772E-1,-3.408099890E0
4.444800156E1,-1.239999942E-2,8.518999815E-1,-2.110599995E0
4.447799844E1,6.699000001E-1,8.338999748E-1,-1.027999967E-1
4.449800156E1,8.615999818E-1,8.657999635E-1,5.968999863E-1
4.452799844E1,3.377999961E-1,7.132999897E-1,3.493999839E-1
4.454800312E1,-5.058999658E-1,3.771999776E-1,8.234999776E-1
4.457799844E1,-1.304000020E0,1.321799994E0,2.505499840E0
4.459799844E1,-2.813999951E-1,1.225600004E0,1.631799936E0
4.461799844E1,7.006999850E-1,8.051999807E-1,6.058999896E-1
4.463800313E1,4.009999931E-1,-8.219999820E-2,1.667599916E0
4.466799844E1,-1.676299930E0,1.438999921E-1,7.179999948E-1
4.468800781E1,-2.038800001E0,6.570000201E-2,-1.551800013E0
4.471799844E1,-1.574999928E0,-5.432000160E-1,-1.626699924E0
4.473800781E1,-1.225600004E0,-7.533999681E-1,-3.209999800E-1
4.476799844E1,-6.200999618E-1,-1.467000008E0,-1.731899977E0
4.478800000E1,-9.898999929E-1,-5.498999953E-1,-1.886699915E0
4.481799844E1,-4.957000017E-1,-8.924999833E-1,-3.327899933E0
4.483800156E1,-8.811999559E-1,-3.472999930E-1,-2.011100054E0
4.486800000E1,-9.733999968E-1,-2.025000006E-1,-1.153299928E0
4.488800000E1,-8.794999719E-1,-7.107999921E-1,-1.018399954E0
4.491799844E1,-6.636999846E-1,-2.169999853E-2,-3.456999958E-1
4.493800000E1,-2.391999960E-1,5.529999733E-2,-7.102000117E-1
4.496799844E1,-8.531999588E-1,2.374999970E-1,-1.338599920E0
4.498800625E1,-1.301199913E0,1.577000022E-1,-8.152999878E-1
4.501799844E1,-7.888000011E-1,1.220999956E-1,-2.802999914E-1
4.503799844E1,3.384999931E-1,-1.210299969E0,-5.309000015E-1
4.505799844E1,3.377999961E-1,3.977999985E-1,2.300199986E0
4.507800312E1,4.027999938E-1,-1.756999940E-1,1.835099936E0
4.510799844E1,-1.542999893E-1,-1.837999970E-1,1.486799955E0
4.512799844E1,8.725999594E-1,1.766999960E-1,3.360100031E0
4.514800000E1,1.137300014E0,-7.329999804E-1,2.122999907E0
4.517799844E1,1.638499975E0,-1.255499959E0,-5.159000158E-1
4.519799844E1,1.749199986E0,-3.291999996E-1,-1.100000024E0
4.521800000E1,1.507699966E0,-2.017999887E-1,-5.399999768E-2
4.524799844E1,2.426300049E0,-1.140699983E0,-7.615000010E-1
4.526799844E1,1.652400017E0,-6.703999639E-1,-1.202999949E-1
4.528800000E1,4.709999859E-1,-3.096999824E-1,2.841999829E-1
4.531799844E1,1.208999977E-1,5.895000100E-1,6.675999761E-1
4.533799844E1,9.085999727E-1,2.396999896E-1,-1.106699944E0
4.535799844E1,6.487999558E-1,3.260000050E-1,-2.144700050E0
4.537800625E1,7.439000010E-1,3.714999855E-1,-2.394399881E0
4.540799844E1,1.177199960E0,-7.499999553E-2,-2.189699888E0
4.542800469E1,1.092999935E0,-1.343999952E-1,-2.655200005E0
4.545799844E1,-1.129899979E0,1.480700016E0,-2.349999905E0
4.547799844E1,-1.320599914E0,2.154500008E0,-1.827799916E0
4.549800000E1,-2.456999868E-1,1.403100014E0,-1.299199939E0
4.551800625E1,1.014099956E0,-2.534999847E-1,-1.838699937E0
4.554799844E1,-3.667999804E-1,7.611999512E-1,5.339999869E-2
4.556800156E1,-4.708999991E-1,7.619999647E-1,1.852599978E0
4.559799844E1,8.200000040E-3,-3.425999880E-1,2.549599886E0
4.561800156E1,-6.930999756E-1,5.159999803E-2,2.044899940E0
4.564800000E1,-1.400399923E0,-4.519999772E-2,2.814699888E0
4.567800000E1,-6.301999688E-1,-1.014999971E-1,2.668900013E0
4.570800000E1,-4.438999891E-1,-7.428999543E-1,1.268399954E0
4.573800000E1,-1.789299965E0,5.788999796E-1,-1.682199955E0
4.576800625E1,-2.766999900E-1,2.219999954E-2,-2.714999914E-1
4.579800000E1,2.300000051E-3,-3.773999810E-1,-1.303000003E-1
4.581800469E1,-8.689999580E-1,9.279999882E-2,-1.407799959E0
4.584799844E1,-5.947999954E-1,-3.495999873E-1,-2.913100004E0
4.586800625E1,-8.229999989E-2,-2.687999904E-1,-3.132900000E0
4.589799844E1,7.199999690E-2,-2.569999918E-2,-2.337599993E0
4.591799844E1,4.037999809E-1,-1.331999898E-1,-1.086499929E0
4.593800000E1,1.967999935E-1,-2.929999828E-1,-4.556999803E-1
4.596800469E1,-6.509999633E-1,4.671999812E-1,-6.121000051E-1
4.599800000E1,-1.629000008E-1,1.730000041E-2,-7.475999594E-1
4.602799844E1,-4.208999872E-1,2.547999918E-1,-4.615999758E-1
4.604799844E1,-9.398999810E-1,4.873999953E-1,-2.117999941E-1
4.606800781E1,-7.261999846E-1,2.405999899E-1,1.136000007E-1
4.609799844E1,-6.340000033E-1,3.799999952E-1,9.556999803E-1
4.611800781E1,-7.742999792E-1,6.617999673E-1,1.394199967E0
4.614800000E1,-1.524000019E-1,5.500000119E-1,1.507300019E0
4.616800469E1,5.098999739E-1,9.200000204E-3,1.106099963E0
4.619799844E1,8.404999971E-1,-7.536999583E-1,2.825700045E0
4.621800312E1,1.509499907E0,-9.441999793E-1,2.987399817E0
4.624799844E1,9.375000000E-1,-3.969999850E-1,1.444299936E0
4.626799844E1,7.717999816E-1,-7.656999826E-1,1.202799916E0
4.628799844E1,6.777999997E-1,-1.393999904E-1,1.273999929E0
4.630800000E1,5.509999990E-1,-1.425999999E-1,9.853000045E-1
4.633799844E1,6.804999709E-1,1.763999909E-1,-1.693599939E0
4.635800312E1,1.915199995E0,-7.105000019E-1,-1.357599974E0
4.638800000E1,-1.356899977E0,1.441999972E-1,-3.306900024E0
4.640800312E1,-1.663899899E0,1.925999969E-1,-2.486699820E0
4.643799844E1,-7.026999593E-1,5.534999967E-1,-2.839200020E0
4.645800313E1,-4.451999962E-1,1.272799969E0,-2.619699955E0
4.648799844E1,8.312000036E-1,2.164700031E0,-6.863999963E-1
4.650800000E1,-2.937999964E-1,2.391399860E0,-2.236099958E0
4.653799844E1,1.146799922E0,9.985999465E-1,1.183300018E0
4.655799844E1,1.059999969E-2,3.339000046E-1,1.682899952E0
4.657799844E1,-3.163999915E-1,-5.394999981E-1,3.039299965E0
4.659799844E1,2.568999827E-1,-1.110299945E0,3.476799965E0
4.661799844E1,7.441999912E-1,-5.048999786E-1,2.905799866E0
4.663800000E1,1.230700016E0,-1.582999974E-1,-7.418999672E-1
4.665800156E1,-5.099999905E-2,3.044999838E-1,1.017999947E-1
4.668800000E1,-1.535799980E0,-9.449999779E-2,2.931499958E0
4.670800156E1,-6.356999874E-1,6.119999662E-2,3.345199823E0
4.673799844E1,-1.660799980E0,-6.297000051E-1,6.484000087E-1
4.675799844E1,-1.360099912E0,-1.236699939E0,3.555999994E-1
4.677800000E1,-6.179999933E-2,-9.706999660E-1,-3.005999923E-1
4.679800000E1,-3.132999837E-1,-1.088599920E0,-9.379999638E-1
4.682799844E1,-3.774999857E0,1.996999979E-1,1.938999891E-1
4.684800313E1,-1.472999930E0,-1.498099923E0,-6.629999876E-1
4.687799844E1,-1.354999989E-1,-8.312999606E-1,-2.172099829E0
4.689800469E1,-5.394999981E-1,-5.909000039E-1,-2.840600014E0
4.692800000E1,-9.627999663E-1,-2.285999954E-1,-3.049299955E0
4.694800469E1,-7.737999558E-1,9.979999810E-2,-2.838599920E0
4.697799844E1,-5.988000035E-1,3.355999887E-1,-2.454900026E0
4.699800625E1,-6.331999898E-1,3.643999994E-1,-1.832499981E0
4.702799844E1,-6.920999885E-1,3.470999897E-1,-1.202000022E0
4.704800625E1,-6.214999557E-1,3.069999814E-1,-1.189100027E0
4.707799844E1,-6.610999703E-1,3.412999809E-1,-4.926999807E-1
4.709800313E1,-5.460000038E-1,3.984999955E-1,4.199999943E-2
4.712799844E1,-3.843999803E-1,2.483000010E-1,2.770999968E-1
4.714800469E1,2.379999869E-2,2.890999913E-1,9.311999679E-1
4.717800000E1,4.156000018E-1,3.795000017E-1,1.580099940E0
4.720800000E1,4.738999903E-1,6.390000135E-2,8.946999907E-1
4.722800000E1,1.518700004E0,-8.761000037E-1,3.248799801E0
4.724800313E1,1.529299974E0,-1.624099970E0,4.829799652E0
4.727800000E1,6.599999666E-1,-8.773999810E-1,1.717299938E0
4.729800000E1,1.199299932E0,-4.060999751E-1,-2.703999877E-1
4.732799844E1,1.885399938E0,-4.174999893E-1,-7.214999795E-1
4.734799844E1,1.275900006E0,-7.430999875E-1,-1.388499975E0
4.736800000E1,4.290999770E-1,-8.445000052E-1,-2.126199961E0
4.738801406E1,8.219999820E-2,-1.061100006E0,-2.593899965E0
4.741799844E1,1.950000040E-2,-7.748999596E-1,-4.033100128E0
4.743800625E1,1.670999974E-1,-5.895000100E-1,-5.021899700E0
4.746799844E1,1.539999992E-1,-2.169999853E-2,-6.415199757E0
4.748800156E1,-9.224999547E-1,9.307999611E-1,-5.696399689E0
4.751799844E1,8.449999988E-2,3.845999837E-1,-3.198199987E0
4.753800625E1,9.630999565E-1,1.386999935E-1,-3.427799940E0
4.756800000E1,7.379999757E-1,-2.125999928E-1,-9.546999931E-1
4.758800938E1,4.170999825E-1,1.119999960E-1,1.171000004E0
4.761799844E1,-9.829999506E-2,1.661599994E0,2.058699846E0
4.763800781E1,1.181999967E-1,1.212899923E0,1.671299934E0
4.766800000E1,1.062699914E0,-6.499999668E-3,2.065799952E0
4.768800000E1,1.759799957E0,-8.790999651E-1,1.571999907E0
4.770800000E1,1.426299930E0,4.389999807E-1,2.192600012E0
4.772800781E1,1.344399929E0,1.572999954E-1,1.252799988E0
4.775799844E1,-5.115000010E-1,7.149999589E-2,-8.751999736E-1
4.777800156E1,4.959999919E-1,-6.204999685E-1,-3.996999860E-1
4.780799844E1,7.274999619E-1,-2.408999920E0,2.873800039E0
4.782800469E1,-9.030999541E-1,-2.244699955E0,2.897599936E0
4.784804062E1,-2.197499990E0,-1.836299896E0,2.062700033E0
4.787799844E1,-5.449999571E-1,-1.286299944E0,1.563099980E0
4.789800000E1,-2.116999924E-1,-1.577999890E-1,1.726899981E0
4.792800313E1,-7.965999842E-1,7.292000055E-1,1.216699958E0
4.795799844E1,-9.429999590E-1,1.615499973E0,-1.185799956E0
4.797800469E1,-5.720999837E-1,2.108999968E0,-1.924699903E0
4.800800000E1,-5.045999885E-1,1.817999959E0,-1.710599899E0
4.802800156E1,-9.484999776E-1,2.106600046E0,-2.056499958E0
4.805800000E1,-1.932999969E0,1.943899989E0,-4.809199810E0
4.807800781E1,-1.804699898E0,1.497499943E0,-5.636799812E0
4.810800000E1,-1.784999967E0,4.799000025E-1,-6.217299938E0
4.812800781E1,-2.544199944E0,-6.489999592E-2,-5.184000015E0
4.815800000E1,-2.424000025E0,-2.421000004E0,-7.059099674E0
4.817800469E1,-1.745399952E0,-4.148999691E0,-7.777400017E0
4.820800000E1,-8.768999577E-1,-5.935100079E0,-5.516900063E0
4.822800000E1,-9.438999891E-1,-7.458899975E0,-4.478600025E0
4.825799844E1,1.516499996E0,-1.191679955E1,-5.227600098E0
4.827800000E1,9.772999883E-1,-1.366889954E1,-5.113999844E0
4.829800000E1,1.295000017E-1,-1.278979969E1,-2.993499994E0
4.831800313E1,1.402699947E0,-1.125080013E1,-3.425000012E-1
4.834799844E1,6.796799660E0,-9.816999435E0,1.889999956E-2
4.836800312E1,8.222299576E0,-7.485199928E0,2.944000065E-1
4.839800000E1,5.533400059E0,-4.007299900E0,-2.187999934E-1
4.841800469E1,3.912299871E0,-2.493499994E0,-5.515999794E-1
4.844800000E1,3.825500011E0,-1.060400009E0,-4.524999857E-1
4.846800312E1,4.340600014E0,1.938999891E-1,-2.620000020E-2
4.849800000E1,4.080199718E0,1.865899920E0,8.234999776E-1
4.851800312E1,3.609599829E0,2.407299995E0,1.726300001E0
4.854800000E1,3.299099922E0,2.480299950E0,2.240299940E0
4.856800156E1,3.807899952E0,2.479699850E0,2.055899858E0
4.859800000E1,4.897200108E0,2.609499931E0,1.563099980E0
4.861800625E1,5.759999752E0,3.019799948E0,1.478500009E0
4.864800156E1,7.365399837E0,3.871799946E0,1.894099951E0
4.866800313E1,8.251699448E0,4.182899952E0,1.784299970E0
4.869799844E1,1.019589996E1,3.723099947E0,1.825199962E0
4.871800000E1,1.123449993E1,3.452699900E0,1.340399981E0
4.873800000E1,1.149769974E1,3.521799803E0,8.406999707E-1
4.875800469E1,1.107660007E1,3.500399828E0,4.539999962E-1
4.878800000E1,1.150979996E1,2.999999851E-4,-1.078999996E0
4.880800781E1,1.161219978E1,-2.926299810E0,-2.157700062E0
4.883800000E1,8.486199379E0,-1.679199934E0,-2.591699839E0
4.885800312E1,7.629899979E0,-1.817499995E0,-3.031599998E0
4.888800000E1,7.765100002E0,-4.114799976E0,-1.868699908E0
4.890800469E1,6.528999805E0,-5.297399998E0,-9.425999522E-1
4.893800000E1,3.717599869E0,-5.133199692E0,4.536999762E-1
4.895800000E1,2.273299932E0,-4.532000065E0,1.146799922E0
4.897800000E1,1.020399928E0,-3.921899796E0,1.702099919E0
4.899800000E1,2.290999889E-1,-3.697599888E0,1.805499911E0
4.902800000E1,-1.039199948E0,-4.034100056E0,1.153699994E0
4.904800000E1,-1.670399904E0,-4.381099701E0,7.310999632E-1
4.906800000E1,-2.692800045E0,-4.634799957E0,5.945999622E-1
4.909800000E1,-3.365499973E0,-4.889999866E0,4.095000029E-1
4.912799844E1,-2.976099968E0,-5.372499943E0,4.557999969E-1
4.914800625E1,-3.182099819E0,-5.797299862E0,8.297999501E-1
4.917799844E1,-4.136600018E0,-6.215799809E0,1.333400011E0
4.919799844E1,-4.954899788E0,-6.734799862E0,1.673900008E0
4.921800000E1,-5.982199669E0,-7.208600044E0,2.014400005E0
4.923800000E1,-6.949499607E0,-7.548799992E0,3.300699949E0
4.926800000E1,-7.052399635E0,-7.572599888E0,3.897799969E0
4.928800000E1,-6.407000065E0,-7.550699711E0,3.059700012E0
4.930800313E1,-4.978499889E0,-8.581899643E0,1.612499952E0
4.933799844E1,-5.216599941E0,-8.534699440E0,7.506999969E-1
4.935800000E1,-5.127799988E0,-7.634799957E0,1.207799911E0
4.938799844E1,-3.311599970E0,-6.880399704E0,2.866999805E-1
4.940799844E1,-1.895299911E0,-7.065399647E0,-1.424199939E0
4.942800000E1,-9.526999593E-1,-7.161200047E0,-2.841500044E0
4.945799844E1,-3.619000018E-1,-6.413099766E0,-3.733699799E0
4.947799844E1,-1.201999933E-1,-5.551499844E0,-3.423499823E0
4.949800313E1,3.227999806E-1,-4.576200008E0,-2.230200052E0
4.952799844E1,6.754999757E-1,-3.254499912E0,-1.088699937E0
4.954800781E1,1.186399937E0,-2.562899828E0,-9.253000021E-1
4.957800000E1,2.449499846E0,-1.641199946E0,-9.883999825E-1
4.959800625E1,3.449599981E0,-1.023699999E0,-8.139999509E-1
4.962800000E1,4.688899994E0,-7.039999962E-2,7.360000163E-2
4.964800156E1,5.606800079E0,4.470999837E-1,5.620999932E-1
4.967799844E1,7.198400021E0,1.309399962E0,5.864999890E-1
4.969800156E1,7.837899685E0,2.255100012E0,6.028999686E-1
