"Time (s)","Acceleration x (m/s^2)","Acceleration y (m/s^2)","Acceleration z (m/s^2)"
0.000000000E0,-2.858226538E0,4.838885784E0,8.982057571E0
2.137442800E-2,-2.906083107E0,4.757529736E0,7.883154392E0
4.267166700E-2,-3.205485106E0,4.817350388E0,7.076473713E0
6.396536500E-2,-3.289233923E0,4.802993298E0,7.861618996E0
8.525948000E-2,-2.812762976E0,4.692624092E0,8.697012901E0
1.065535940E-1,-2.779263496E0,4.316951275E0,8.876773834E0
1.278477090E-1,-3.296412230E0,4.074976921E0,8.982057571E0
1.491418230E-1,-3.104687452E0,3.888336897E0,9.645169258E0
1.704359380E-1,-2.736192703E0,3.605983734E0,9.664311409E0
1.917300530E-1,-1.847857237E0,2.674577475E0,9.108877182E0
2.130242190E-1,-2.123331070E0,3.658625841E0,9.460921288E0
2.343183340E-1,-2.463111877E0,4.036691666E0,9.649954796E0
2.556124480E-1,-3.270091295E0,3.988835335E0,1.049282646E1
2.769065630E-1,-3.894917011E0,3.804588079E0,1.135214901E1
2.982007300E-1,-3.121437073E0,2.377568483E0,1.073210907E1
3.194948440E-1,-1.886142492E0,2.248355865E0,9.944570541E0
3.407889590E-1,-1.048355460E0,2.193320990E0,1.038724327E1
3.620830730E-1,-4.486542661E-3,2.178964138E0,1.056461143E1
3.833771880E-1,-1.716252089E0,1.872383714E0,7.990831375E0
4.046713550E-1,-6.245267391E-1,1.252343535E0,9.305088997E0
4.259654690E-1,-1.208674550E0,1.534995675E0,9.262018204E0
4.472595840E-1,-2.113759756E0,2.830111027E0,8.824131966E0
4.685537500E-1,-1.618146300E0,2.973680258E0,7.940581799E0
4.898478650E-1,-1.184746265E0,2.260320187E0,7.651050568E0
5.111419800E-1,-5.024927258E-1,1.357926846E0,7.698906898E0
5.324361460E-1,-1.001994461E-1,1.829312921E0,7.761120319E0
5.537302610E-1,4.480560422E-1,2.150250196E0,7.356434345E0
5.750243750E-1,1.465603895E-2,2.047358990E0,6.856035233E0
5.963184900E-1,-8.303094506E-1,1.503889084E0,7.210472107E0
6.176126570E-1,1.704886183E-2,1.725823283E-1,8.086544037E0
6.389067710E-1,3.403790295E-1,3.212364316E-1,9.786345482E0
6.602009380E-1,6.562315822E-1,8.790631890E-1,9.503992081E0
6.814950530E-1,1.980359793E0,-2.008176327E0,8.776275635E0
7.027891670E-1,1.235593796E0,-2.190330029E0,1.133779144E1
7.240833340E-1,-5.144568682E-1,-5.144568682E-1,1.075603676E1
7.453774480E-1,8.503493667E-1,-2.147259235E0,6.722036839E0
7.666715630E-1,3.212364316E-1,6.514459848E-1,8.948558807E0
7.879657300E-1,2.126322031E0,-1.098604679E0,9.247661591E0
8.092598440E-1,6.921239495E-1,-2.803191662E0,9.987641335E0
8.305540110E-1,1.704886183E-2,-2.513360977E0,1.058853912E1
8.518481250E-1,1.901396751E0,-1.697109461E0,1.246062374E1
8.731422920E-1,4.446163654E0,-2.695514679E0,1.029631615E1
8.944364070E-1,1.757528186E0,-2.448754787E0,9.570991516E0
9.157305730E-1,5.270192027E-1,-4.687240601E0,9.393922806E0
9.370246880E-1,1.044167995E0,-3.849453449E0,1.060289669E1
9.583188030E-1,1.149452209E0,-4.134199142E0,8.160721779E0
9.796129690E-1,1.068096161E0,-3.626621723E0,3.892225027E0
1.000907084E0,8.479565382E-1,-3.621836185E0,2.903391123E0
1.022201250E0,-1.336989701E-1,-6.040082455E0,5.592026711E0
1.043495365E0,-3.090330362E0,-7.112665176E0,1.342313671E1
1.064789532E0,-1.239781260E0,-6.410970211E0,1.343510056E1
1.086083646E0,-1.447956800E0,-5.331208706E0,6.942176819E0
1.107377813E0,-1.452742457E0,-6.590730667E0,8.783453941E0
1.128671980E0,-1.838286042E0,-6.772585392E0,1.318834114E1
1.149966094E0,-4.079164505E0,-7.526623726E0,1.361695576E1
1.171260261E0,-1.575075507E0,-6.992724895E0,1.232662582E1
1.192554375E0,3.471686602E0,-4.761417866E0,1.291316605E1
1.213848542E0,-1.309173107E0,-4.775774956E0,9.738489151E0
1.235142709E0,-5.848357677E0,-5.420042515E0,1.279831123E1
1.256436823E0,-1.408774406E-1,-3.289233923E0,1.597986794E1
1.277730990E0,-6.508477330E-1,-2.506182671E0,9.724132538E0
1.299025157E0,-5.235496044E0,-3.710370541E0,9.204590797E0
1.320319271E0,-4.507778645E0,-3.174378395E0,7.674978733E0
1.341613438E0,-3.210270643E0,-2.348256350E0,5.781059742E0
1.362907605E0,-4.483850479E0,-3.978665829E0,6.722036839E0
1.384201771E0,-2.472683191E0,-4.311567307E0,6.456134796E0
1.405495938E0,-1.639681697E0,-4.641777039E0,9.360423088E0
1.426790053E0,-5.700002670E0,-5.364708424E0,1.224526978E1
1.448084219E0,-9.856036186E0,-6.123831272E0,3.763012648E0
1.469378386E0,-1.257099247E1,-6.521039963E0,7.521538734E0
1.490672553E0,-1.016740227E1,-6.245865345E0,5.316552639E0
1.511966719E0,-5.640182018E0,-6.152545452E0,6.705287457E0
1.533260886E0,-2.233400822E0,-5.762216091E0,1.368694544E0
1.554555053E0,7.761718631E-1,-6.973582268E0,-5.871089458E0
1.575849219E0,-5.065605640E0,-8.548956871E0,7.989036441E-1
1.597143386E0,-7.430910587E0,-9.339186668E0,4.280161560E-1
1.618437553E0,-2.851048231E0,-8.134699821E0,2.548954248E0
1.639731719E0,-3.837489367E0,-7.852346420E0,4.524229527E0
1.661025886E0,-5.752644539E0,-7.373483181E0,7.751548767E0
1.682320053E0,-3.514159203E0,-6.600302219E0,5.999105453E0
1.703614271E0,-5.759823322E0,-8.388637543E0,4.330410957E0
1.724908438E0,-1.065105152E1,-8.927322388E0,9.355637550E0
1.746202605E0,-7.715955734E0,-8.953642845E0,4.674977303E0
1.767496771E0,-1.265234852E1,-8.422137260E0,6.906284332E0
1.788790990E0,-5.182853699E0,-6.128616810E0,6.142674923E0
1.810085157E0,-2.159223318E0,-4.182055950E0,2.606681108E0
1.831379323E0,-3.238984585E0,-3.104687452E0,1.237089276E0
1.852673490E0,-2.602194548E0,-1.368993640E0,7.464111328E0
1.873967709E0,-3.614657640E0,2.176571369E0,-1.104287624E0
1.895261875E0,-1.242174029E0,2.751147747E0,-4.295714855E0
1.916556094E0,1.080060363E0,-1.450349569E0,-6.342475414E0
1.937850261E0,8.024929166E-1,-9.566504478E0,-7.103991508E0
1.959144480E0,-7.859525204E0,-1.830987930E1,9.712167740E0
1.980438646E0,-9.700503349E0,-1.246570873E1,1.256112289E1
2.001732865E0,-5.932106495E0,-1.383769321E1,7.897511005E0
2.023027032E0,-2.558824778E0,-9.027820587E0,-6.787839413E0
2.044321250E0,-1.342672586E0,-5.743073463E0,-4.748257637E0
2.065615417E0,-1.345065475E0,-4.208376884E0,-1.776670814E-1
2.086909636E0,-1.486541033E0,-7.782954693E0,5.670989513E0
2.108203855E0,-4.483850479E0,-1.089751244E1,1.313659668E0
2.129498073E0,-7.986344814E0,-3.283939743E1,4.718048096E0
2.150792240E0,-8.534600258E0,-3.581307602E1,9.949356079E0
2.172086459E0,-2.841476910E-2,-1.994956017E1,1.429681587E1
2.193380678E0,1.467996716E0,-1.265234852E1,8.754739761E-1
2.214674896E0,1.290628672E0,-7.203592777E0,-4.295714855E0
2.235969115E0,5.413761139E-1,-4.706383228E0,-5.133502007E0
2.257263282E0,7.280163169E-1,-5.874678612E0,-1.044467092E0
2.278557500E0,-1.695913076E-1,-8.249854088E0,4.102793694E0
2.299851719E0,-6.508477330E-1,-9.358329773E0,2.771785975E0
2.321145938E0,-3.155534863E-1,-9.286245346E0,1.971984982E0
2.342440157E0,-4.618147612E-1,-7.995915890E0,2.182852507E0
2.363734375E0,5.084747914E-3,-6.758228302E0,-1.202393398E-1
2.385028594E0,2.518445849E-1,-5.807679653E0,-1.370190024E0
2.406322813E0,9.699904919E-1,-5.941677570E0,-1.178465188E-1
2.427617032E0,1.269093275E0,-6.461219311E0,1.335195065E0
2.448911250E0,1.010668516E0,-7.112665176E0,4.243969917E0
2.470205469E0,3.020938635E-1,-8.692526817E0,7.456932545E0
2.491499688E0,-1.215852976E0,-1.021286583E1,7.799405575E0
2.512793907E0,-2.499004126E0,-1.048833942E1,6.408277988E0
2.534088125E0,-2.080260277E0,-9.506684303E0,5.208875656E0
2.555382344E0,-5.718846321E-1,-7.292127132E0,5.979962826E0
2.576676563E0,6.131607890E-1,-8.194519997E0,5.860022545E0
2.597970834E0,-2.408077002E0,-1.026311588E1,4.806582451E0
2.619265053E0,-5.470291615E0,-9.521040916E0,6.391528606E0
2.640559271E0,-5.108676434E0,-5.889035702E0,3.145066261E0
2.661853490E0,-1.017248750E0,-2.683550596E0,-9.822536707E-1
2.683147709E0,5.190630436E0,-7.284948349E0,-6.732804775E-1
2.704441980E0,2.825325251E0,-2.393121719E1,8.218448639E0
2.725736198E0,5.909075737E0,-2.557568550E1,-8.456534386E0
2.747030417E0,2.353640079E0,-6.997510910E0,1.038245773E1
2.768324636E0,-1.407278776E0,-5.865107536E0,-4.015455723E0
2.789618907E0,1.269093275E0,-7.222734928E0,-5.440082073E0
2.810913125E0,2.937788010E0,-1.201795197E1,9.619147182E-1
2.832207344E0,2.923431158E0,-1.132612705E1,2.469991207E0
2.853501563E0,2.593221426E0,-1.057687473E1,1.119840980E0
2.874795834E0,9.963115454E-1,-9.523433685E0,1.332802176E0
2.896090053E0,-8.105687052E-2,-8.357531548E0,1.094716340E-1
2.917384323E0,2.327020019E-1,-7.095915318E0,-1.211964726E0
2.938678542E0,-6.915257573E-1,-6.978368282E0,1.129412293E0
2.959972761E0,-1.622931957E0,-8.647063255E0,2.671287298E0
2.981267032E0,-1.857428551E0,-1.036839962E1,3.274577856E0
3.002561250E0,-1.424028635E0,-1.038275623E1,3.166900873E0
3.023855521E0,-8.853443861E-1,-9.767501831E0,1.763809443E0
3.045149740E0,-4.426721931E-1,-9.221639633E0,1.136590727E-2
3.066443959E0,-9.020941257E-1,-9.585647583E0,-7.785646915E-1
3.087738230E0,-1.323530078E0,-9.858428955E0,-2.991028363E-3
3.109032448E0,-1.002891779E0,-1.014586735E1,2.455634356E0
3.130326719E0,-5.790630579E-1,-1.140030479E1,1.766202211E0
3.151620938E0,-1.404886007E0,-1.176670551E1,2.602194548E-1
3.172915209E0,-3.064009428E0,-1.127587795E1,1.574776411E0
3.194209428E0,-2.247757673E0,-1.061037350E1,2.932105064E0
3.215503698E0,-1.333101273E0,-9.853643417E0,6.429813385E0
3.236797917E0,-1.409671664E0,-9.964012146E0,6.291029930E0
3.258092188E0,-2.836691141E0,-1.239153099E1,3.954438448E0
3.279386407E0,-3.504587889E0,-1.411286831E1,8.419744968E-1
3.300680678E0,-1.529611826E0,-1.562602901E1,-3.170489892E-2
3.321974896E0,2.095215321E0,-1.755793381E1,-1.623829246E0
3.343269167E0,3.383152008E0,-1.688525200E1,1.680060625E0
3.364563386E0,1.590030670E0,-1.163031483E1,2.560918331E0
3.385857657E0,4.336991161E-2,-8.417351723E0,3.887439489E0
3.407151875E0,-1.098604679E0,-7.337590694E0,1.823629975E0
3.428446146E0,-1.112961650E0,-7.552944660E0,6.840481758E-1
3.449740365E0,-1.467099428E0,-8.216354370E0,-1.461117268E0
3.471034636E0,-1.902892232E0,-7.897810459E0,-4.507479668E-1
3.492328907E0,-2.331506491E0,-7.531409264E0,-1.920240223E-1
3.513623125E0,3.260220885E-1,-7.711170197E0,-2.895016193E0
3.534917396E0,1.942074656E0,-7.550551891E0,-5.245964527E0
3.556211615E0,2.001895189E0,-7.251449108E0,-2.344367981E0
3.577505886E0,2.581257343E0,-6.693622112E0,6.314060688E-1
3.598800157E0,3.198904753E0,-5.601896763E0,3.068495989E0
3.620094375E0,3.816552162E0,-5.834000587E0,5.747560024E0
3.641388646E0,2.784647465E0,-8.362317085E0,7.483253479E0
3.662682865E0,8.192426562E-1,-1.066780186E1,1.003789139E1
3.683977136E0,-1.388136268E0,-1.083769226E1,6.664609432E0
3.705271407E0,3.571287692E-1,-9.185747147E0,3.312862873E0
3.726565625E0,2.281855583E0,-8.479565620E0,3.626322746E0
3.747859896E0,2.705684185E0,-1.033968544E1,1.188365459E1
3.769154115E0,-3.013760090E0,-1.388794231E1,5.426921844E0
3.790448386E0,-1.462313771E0,-1.982513428E1,-5.626722336E0
3.811742657E0,8.383852243E-1,-1.888924026E1,-7.992027760E0
3.833036875E0,-4.235295951E-1,-7.778169155E0,-4.331607342E0
3.854331146E0,1.190130115E0,-5.276174068E0,-3.129812002E0
3.875625365E0,2.509472847E0,-7.555337429E0,-4.339981973E-1
3.896919636E0,3.304188967E0,-1.106291676E1,1.981556296E0
3.918213907E0,3.866801500E0,-1.110120201E1,6.152245998E0
3.939508125E0,3.304188967E0,-1.013868904E1,2.044068813E0
3.960802396E0,2.334497690E0,-8.496315002E0,-1.875075698E0
3.982096667E0,1.125523925E0,-7.631907940E0,-2.502593279E0
4.003390886E0,-6.580262184E-1,-7.814061642E0,-6.281159073E-2
4.024685157E0,-1.984248161E0,-8.388637543E0,4.744369030E0
4.045979375E0,-2.039582253E0,-8.381459236E0,6.463313103E0
4.067273646E0,-9.502496719E-1,-8.493922234E0,2.857927561E0
4.088567917E0,-6.388836503E-1,-8.539385796E0,1.280160069E0
4.109862136E0,-1.333101273E0,-8.745168686E0,2.103889227E0
4.131156407E0,-2.116152525E0,-8.438887596E0,1.828415632E0
4.152450678E0,-5.934200287E-1,-8.932107925E0,4.208376706E-1
4.173744896E0,-4.019941986E-1,-9.410971642E0,-9.032905698E-1
4.195039167E0,-2.772683203E-1,-9.252745628E0,-5.871388316E-1
4.216333386E0,5.868397355E-1,-8.661419868E0,1.280160069E0
4.237627657E0,5.581258535E-1,-9.281459808E0,3.554538012E0
4.258921928E0,-1.431207061E0,-9.458827972E0,1.809273005E0
4.280216146E0,-3.020938635E0,-9.487542152E0,5.021936297E-1
4.301510417E0,-4.040879250E0,-7.687242031E0,1.272981644E0
4.322804636E0,-4.127020836E0,-5.927320957E0,4.756333351E0
4.344098907E0,-3.028116941E0,-6.794120789E0,9.084949493E0
4.365393178E0,-1.376172066E0,-7.897810459E0,8.345268250E0
4.386687396E0,-4.713561535E0,-1.007886791E1,-2.985943556E0
4.407981667E0,-1.445564032E0,-1.323171139E1,-1.623829246E0
4.429275938E0,1.462612897E-1,-1.780230141E1,-4.459623098E-1
4.450570157E0,-1.504487246E-1,-2.178126717E1,8.467600942E-1
4.471864428E0,4.288237095E0,-2.326302147E1,4.351946354E0
4.493158646E0,3.878765583E0,-1.636810303E1,4.248755932E0
4.514452917E0,2.346461773E0,-1.018175983E1,2.728715181E0
4.535747136E0,-6.053841114E-1,-7.054938316E0,2.486740828E0
4.557041407E0,-1.050748229E0,-8.261817932E0,2.817249537E0
4.578335678E0,6.514459848E-1,-1.041625595E1,2.118246317E0
4.599629896E0,1.582852125E0,-9.832108498E0,1.351944804E0
4.620924167E0,3.227618694E0,-8.458029747E0,3.873381615E-1
4.642218386E0,3.486043453E0,-6.573981285E0,-8.626125455E-1
4.663512657E0,2.617149830E0,-3.590729475E0,-2.931207791E-2
4.684806928E0,2.504687071E0,-2.135295153E0,9.786644578E-1
4.706101146E0,2.655434847E0,-1.895713687E0,1.142572835E-1
4.727395417E0,2.837289333E0,-3.186342478E0,3.200400352E0
4.748689636E0,1.625923038E0,-5.335994720E0,4.433301926E0
4.769983907E0,2.358425856E0,-6.542874336E0,3.894618034E0
4.791278125E0,3.234797001E0,-6.791728020E0,2.604288340E0
4.812572396E0,2.535793781E0,-4.278067589E0,7.247261405E-1
4.833866667E0,1.295115203E-1,-2.870190859E0,-2.365903378E0
4.855160886E0,-1.337886930E0,-4.328317165E0,-2.183450609E-1
4.876455157E0,-2.868396044E-1,-1.332054424E1,4.380660057E0
4.897749375E0,9.955039978E0,-5.226044464E1,1.369591904E1
4.919043646E0,2.805584669E-1,-2.161586189E1,2.340898323E1
4.940337865E0,-5.120640278E0,-9.085248947E0,-1.476491165E1
4.961632136E0,-1.012463093E0,-6.150152206E0,-1.372612762E1
4.982926355E0,1.645065546E0,-7.596015453E0,-9.440582275E0
5.004220625E0,4.539483547E0,-1.155344486E1,-3.574877024E0
5.025514844E0,2.777468920E0,-1.328465176E1,-1.642971873E0
5.046809115E0,-6.795616150E-1,-1.653799438E1,1.812563092E-1
5.068103334E0,-6.758228302E0,-1.273878956E1,5.000699997E0
5.089397605E0,-3.990629911E0,-1.059840965E1,1.815613937E1
5.110691823E0,-8.494520187E-1,-8.105985641E0,-5.830411434E0
5.131986094E0,5.294119939E-2,-3.351447105E0,-5.914160252E0
5.153280365E0,1.252343535E0,3.068794906E-1,7.191329479E0
5.174574584E0,2.531008244E0,-7.298108935E-1,4.368695736E0
5.195868855E0,4.911268353E-1,-6.571588516E0,1.857129455E0
5.217163073E0,-2.664407969E0,-8.194519997E0,1.703988791E0
5.238457344E0,-4.763810635E0,-7.711170197E0,9.403793216E-1
5.259751563E0,-5.099104881E0,-9.535398483E0,3.729812205E-1
5.281045782E0,-5.850750446E0,-1.152712440E1,4.533800602E0
5.302340053E0,-7.552944660E0,-1.029661465E1,5.979962826E0
5.323634271E0,-8.848359108E0,-6.897012234E0,7.605287552E0
5.344928542E0,-9.204889297E0,-4.984249592E0,6.080461502E0
5.366222761E0,-8.038987160E0,-7.964809418E0,1.486241937E0
5.387517032E0,-4.653740883E0,-1.138116169E1,-1.968096644E-1
5.408811250E0,-6.724729061E0,-2.562623405E1,-3.522234917E0
5.430105521E0,7.710871100E-1,-4.119483566E1,9.008378983E0
5.451399740E0,3.536292791E0,-3.075913620E1,4.526622295E0
5.472694011E0,1.216451168E0,-1.645903015E1,-3.452843189E0
5.493988230E0,-5.726323605E0,-8.812466621E0,1.699203134E0
5.515282500E0,-7.167700291E0,-1.079701424E1,6.946962357E0
5.536576719E0,-6.029912829E-1,-1.413440323E1,1.756630898E0
5.557870938E0,5.054239750E0,-1.092144108E1,-3.069991350E0
5.579165209E0,6.840182781E0,-4.869394302E0,-7.170990467E0
5.600459428E0,6.483652115E0,-2.482254505E0,-8.044670105E0
5.621753698E0,5.152345181E0,-1.591825247E0,-3.886243105E0
5.643047917E0,4.474877357E0,-1.031605721E0,3.513859987E0
5.664342136E0,4.848456860E0,-1.211067319E0,2.018405724E1
5.685636407E0,-2.199901342E0,-6.585945129E0,1.241037464E1
5.706930625E0,-1.330708504E0,-8.599205971E0,4.672584534E0
5.728224896E0,6.658028960E-1,-9.427721024E0,-4.712365150E0
5.749519115E0,3.509971619E0,-1.604477310E1,-2.842374086E0
5.770813334E0,8.566305161E0,-2.866182709E1,-1.270140171E1
5.792107605E0,3.189333439E0,-1.246092319E1,5.606383324E0
5.813401823E0,7.088736892E-1,-1.063669491E1,-6.448058605E0
5.834696094E0,1.214058399E0,-1.495095444E1,-3.685245991E0
5.855990313E0,2.162214279E0,-1.383530045E1,-1.025324464E0
5.877284532E0,1.838884234E0,-1.079701424E1,3.868296862E0
5.898578803E0,7.857431173E-1,-1.058166027E1,1.782951951E0
5.919873021E0,-4.259224236E-1,-8.347960472E0,-1.681257010E0
5.941167292E0,1.917249113E-1,-5.855535984E0,-4.482355118E0
5.962461511E0,-6.909275055E-2,-4.751846790E0,-2.784946442E0
5.983755730E0,1.846062660E0,-6.461219311E0,6.484848499E0
6.005050000E0,2.717648268E0,-8.867501259E0,5.295017242E0
6.026344219E0,1.199701428E0,-8.915358543E0,-3.136990547E0
6.047638438E0,6.897311211E-1,-9.264710426E0,-9.200403094E-1
6.068932709E0,1.264307618E0,-9.365508080E0,7.133901596E0
6.090226928E0,5.054838061E-1,-9.588040352E0,2.984747171E0
6.111521146E0,-3.521337509E0,-1.156062317E1,-2.038086653E0
6.132815417E0,-5.589932919E0,-1.211127186E1,1.194018483E0
6.154109636E0,-6.365506649E0,-1.194616699E1,2.405385017E0
6.175403855E0,-7.320840836E0,-1.141944695E1,2.740679264E0
6.196698125E0,-5.182853699E0,-1.096451187E1,6.157031536E0
6.217992344E0,-4.201198578E0,-9.772287369E0,8.311768532E0
6.239286563E0,-4.811667442E0,-1.062473106E1,4.842773914E0
6.260580782E0,-5.783751488E0,-1.394537067E1,1.636989832E0
6.281875053E0,-2.412862539E0,-1.532423401E1,-4.363910258E-1
6.303169271E0,-1.089033365E0,-1.785015869E1,-2.121835470E0
6.324463490E0,3.091227770E0,-2.085703850E1,5.189434290E-1
6.345757761E0,3.929014683E0,-1.673450470E1,3.351148129E0
6.367051980E0,1.599601984E0,-1.114187908E1,5.667998791E-1
6.388346198E0,-4.833501875E-1,-8.402995110E0,-1.729113460E0
6.409640417E0,-1.926820397E0,-6.336792469E0,1.909771562E0
6.430934688E0,-1.153639674E0,-6.609873295E0,1.629811287E0
6.452228907E0,9.436694384E-1,-7.026224613E0,-1.640578985E0
6.473523125E0,8.407780528E-1,-5.755037785E0,-2.267797709E0
6.494817344E0,9.460622668E-1,-5.527719498E0,-1.140179992E0
6.516111563E0,1.254736423E0,-5.525326729E0,-2.813660383E0
6.537405834E0,1.369890928E0,-4.711168766E0,-2.591127872E0
6.558700053E0,1.240379453E0,-5.838786125E0,3.777668774E-1
6.579994271E0,7.663014531E-1,-8.984749794E0,5.156233788E0
6.601288490E0,-2.140080690E0,-1.322213936E1,6.856035233E0
6.622582761E0,-2.015354872E0,-1.377039528E1,6.954140663E0
6.643876980E0,1.223629713E0,-8.501100540E0,6.508776665E0
6.665171198E0,3.483650684E0,-3.885345697E0,6.815357208E0
6.686465417E0,3.821337700E0,-3.768097401E0,4.540979385E0
6.707759636E0,9.532406926E-1,-6.332006931E0,1.026520967E0
6.729053907E0,-2.135295153E0,-8.630312920E0,4.629513741E0
6.750348125E0,6.059823632E-1,-1.249681568E1,-3.558127165E0
6.771642344E0,7.740482330E0,-2.588944435E1,3.255435228E0
6.792936563E0,4.580161572E0,-2.447438812E1,-5.590830326E0
6.814230782E0,-3.930809498E0,-7.158128738E0,-1.290927768E0
6.835525053E0,-2.599801779E0,-4.237090588E0,-5.916553020E0
6.856819271E0,1.489532113E0,-7.677670479E0,-3.548556089E0
6.878113490E0,3.806980848E0,-1.241545963E1,-1.085145116E0
6.899407709E0,4.374378681E0,-1.149601746E1,3.767798424E0
6.920701928E0,6.035895348E-1,-1.091904831E1,2.228316069E0
6.941996146E0,-3.876372576E-1,-8.184948921E0,1.597209126E-1
6.963290365E0,7.926224917E-2,-6.487540245E0,-1.317248821E0
6.984584636E0,-3.346960545E-1,-6.315257072E0,-4.220340848E-1
7.005878855E0,-1.476969719E0,-8.613563538E0,6.481558084E-1
7.027173073E0,-2.551646233E0,-1.090229797E1,4.023830414E0
7.048467292E0,-2.266900301E0,-1.050269699E1,5.460421085E0
7.069761511E0,-1.876571178E0,-8.893822670E0,4.488337040E0
7.091055730E0,-9.191430211E-1,-8.845966339E0,5.691927075E-1
7.112349948E0,-1.591825247E0,-8.805288315E0,-2.353939265E-1
7.133644167E0,-2.024926186E0,-9.566504478E0,8.754739761E-1
7.154938386E0,-7.489534616E-1,-1.117298603E1,7.175477147E-1
7.176232657E0,7.495517135E-1,-1.311924839E1,9.475577474E-1
7.197526875E0,-7.800601721E-1,-1.247049427E1,-1.369891018E-1
7.218821094E0,-2.714657307E0,-1.149362469E1,1.395015597E0
7.240115313E0,-2.204686880E0,-1.097647572E1,3.458825111E0
7.261409532E0,-1.419242978E0,-1.092861938E1,5.419743061E0
7.282703750E0,-2.487040043E0,-1.281536007E1,5.651846886E0
7.303997969E0,-3.301198006E0,-1.428515148E1,3.501895905E0
7.325292188E0,-2.707478762E0,-1.322931862E1,1.488634825E0
7.346586407E0,-7.609176040E-1,-1.308574867E1,-5.344967842E-1
7.367880625E0,1.209272742E0,-1.416072464E1,-1.544866085E0
7.389174844E0,2.464009047E0,-1.499163246E1,1.046859920E-1
7.410469063E0,1.056132078E0,-1.284646702E1,3.034996510E0
7.431763282E0,-4.043870270E-1,-9.772287369E0,2.915355206E0
7.453057500E0,-1.347458243E0,-8.367102623E0,8.539385796E-1
7.474351719E0,1.510469317E-1,-8.798110008E0,-8.075776696E-1
7.495645938E0,1.821536273E-1,-8.213961601E0,-1.037288666E0
7.516940157E0,6.251249462E-2,-7.047760010E0,1.215553880E0
7.538234375E0,-1.480558962E-1,-6.195616245E0,9.523434043E-1
7.559528594E0,9.197412133E-1,-6.236293793E0,-1.333998680E0
7.580822813E0,1.867598057E0,-6.432505608E0,-5.274977684E0
7.602117032E0,2.109572172E0,-6.221937180E0,-3.541377544E0
7.623411250E0,2.514258385E0,-5.774179935E0,3.128615618E-1
7.644705469E0,3.407080412E0,-6.506682873E0,4.411766529E0
7.665999688E0,2.781656384E-1,-9.348757744E0,1.100249767E1
7.687293907E0,-6.054439545E0,-1.408415413E1,1.035613632E1
7.708588178E0,-3.332304716E0,-1.499402523E1,1.023170948E1
7.729882344E0,-7.800601721E-1,-8.580063820E0,8.326125145E0
7.751176563E0,2.248355865E0,-3.456731319E0,3.296113253E0
7.772470782E0,3.122334480E0,-2.479861498E0,6.768696904E-1
7.793765000E0,2.310569286E0,-2.968296528E0,-2.710768938E0
7.815059219E0,3.852444410E0,-3.784847260E0,-3.239283562E-1
7.836353438E0,4.304986954E0,-1.534337711E1,1.748585129E1
7.857647657E0,5.916254044E0,-3.670589828E1,-9.189037323E0
7.878941875E0,-1.819143414E0,-1.832902145E1,-5.150251865E0
7.900236094E0,-1.496112347E0,-4.507778645E0,-3.946063757E0
7.921530313E0,5.054837838E-2,-2.211865425E0,-4.436891556E0
7.942824532E0,1.568495274E0,-5.680860043E0,-1.743470430E0
7.964118750E0,3.557828188E0,-1.336122227E1,1.301695466E0
7.985412969E0,1.130309582E0,-1.392144203E1,3.964009762E0
8.006707188E0,-8.518448472E-1,-1.129023457E1,4.830510616E0
8.028001407E0,-9.646066427E-1,-1.033250713E1,2.683251381E0
8.049295625E0,-6.173482537E-1,-8.000701904E0,-1.319641709E0
8.070589844E0,-2.796611488E-1,-6.135795593E0,-1.827219248E0
8.091884011E0,-4.474578202E-1,-5.637789249E0,-7.402794957E-1
8.113178230E0,-5.862415433E-1,-8.889037132E0,1.696810365E0
8.134472448E0,1.944168471E-2,-1.100040436E1,2.417349100E0
8.155766667E0,7.881359458E-1,-1.118973637E1,2.094317913E0
8.177060886E0,6.562315822E-1,-1.022722340E1,1.912164450E0
8.198355105E0,-6.005984545E-1,-1.006451130E1,3.176472187E-1
8.219649323E0,-1.900499344E0,-9.990333557E0,1.215553880E0
8.240943542E0,-3.167199850E0,-1.011236763E1,2.347957134E0
8.262237761E0,-4.067200184E0,-1.253270817E1,2.539382935E0
8.283531980E0,-3.013760090E0,-1.238674545E1,3.458825111E0
8.304826198E0,-1.508076429E0,-1.111555862E1,4.117150307E0
8.326120365E0,-1.752144337E0,-1.232213974E1,4.830510616E0
8.347414584E0,-3.255734205E0,-1.346889973E1,2.292922258E0
8.368708803E0,-1.603789330E0,-1.183849049E1,6.037390709E0
8.390003021E0,-9.574281573E-1,-1.145055389E1,3.719941854E0
8.411297240E0,-3.559323773E-2,-1.212802124E1,-1.599901080E0
8.432591459E0,1.316949725E0,-1.345693588E1,-1.951945066E0
8.453885625E0,1.802991867E0,-1.565952873E1,2.709572554E0
8.475179844E0,-9.092726111E-1,-1.336840057E1,3.597608805E0
8.496474063E0,-2.951546669E0,-1.004297543E1,1.347159147E0
8.517768282E0,-2.365005970E0,-8.737990379E0,-5.991029739E-1
8.539062500E0,-7.657032609E-1,-8.259425163E0,-1.425225019E0
8.560356719E0,8.264211416E-1,-7.665706635E0,-2.401795685E-1
8.581650886E0,1.410568953E0,-6.961618423E0,1.454836130E0
8.602945105E0,1.259521961E0,-6.533303261E0,-6.302096844E-1
8.624239323E0,2.126322031E0,-6.707979202E0,-4.551746845E0
8.645533542E0,2.425424814E0,-6.401398659E0,-4.922933578E0
8.666827761E0,1.920539260E0,-5.369493961E0,-7.450651526E-1
8.688121980E0,2.846860647E0,-5.015356064E0,2.728715181E0
8.709416198E0,1.017846942E0,-5.905785561E0,6.726822853E0
8.730710365E0,-3.451945782E0,-1.068933678E1,1.005942631E1
8.752004584E0,-5.719145298E0,-1.649253082E1,1.271934795E1
8.773298803E0,-4.043870270E-1,-1.581506252E1,6.322136402E0
8.794593021E0,2.799004316E0,-4.852644444E0,6.669394970E0
8.815887188E0,5.631208897E0,2.781656384E-1,3.265006542E0
8.837181407E0,3.026621580E0,-8.542376757E-1,8.587242365E-1
8.858475625E0,1.965105534E-1,-1.886740685E1,4.157828331E0
8.879769844E0,3.878765583E0,-3.047169876E1,-1.713769531E1
8.901064011E0,3.954139352E-1,-1.556381607E1,-3.797708750E0
8.922358230E0,-9.981061220E-1,-3.911666870E0,3.992723703E0
8.943652448E0,-1.373779297E0,-6.360720634E0,-3.598206937E-1
8.964946667E0,9.771689177E-1,-1.084487057E1,2.841476798E-1
8.986240834E0,2.636292458E0,-1.342343616E1,-1.752742529E-1
9.007535053E0,2.509472847E0,-1.081615639E1,3.873381615E-1
9.028829271E0,7.016952634E-1,-9.913763046E0,1.371087432E0
9.050123490E0,-3.708875179E-1,-8.259425163E0,7.223333120E-1
9.071417657E0,-3.559323773E-2,-6.198009014E0,-1.432403445E0
9.092711875E0,5.198407173E-1,-5.664110184E0,-1.595115423E0
9.114006094E0,1.341177106E0,-8.472386360E0,7.917252183E-1
9.135300261E0,1.831705689E0,-1.069412231E1,5.599205017E0
9.156594480E0,6.514459848E-1,-9.731609344E0,3.978366852E0
9.177888698E0,-7.680960894E-1,-9.334401131E0,7.941179872E-1
9.199182917E0,-9.502496719E-1,-1.002383327E1,-2.808575630E-1
9.220477084E0,-8.614161611E-1,-9.949655533E0,8.587242365E-1
9.241771303E0,-1.800000787E0,-9.073284149E0,3.712763548E0
9.263065469E0,-2.705085993E0,-9.499505997E0,3.822833300E0
9.284359688E0,-2.664407969E0,-1.207298660E1,3.849453330E-1
9.305653907E0,-2.393719912E0,-1.252792168E1,3.128615618E-1
9.326948073E0,-1.041176915E0,-1.158245754E1,2.721536636E0
9.348242292E0,-1.349851131E0,-1.519023609E1,5.070092201E0
9.369536511E0,-2.769692183E0,-1.603520203E1,-6.613163352E-1
9.390830678E0,-1.419242978E0,-1.184806156E1,7.045068264E0
9.412124896E0,1.063310504E0,-1.146251774E1,7.356434345E0
9.433419115E0,1.027418256E0,-1.059362411E1,1.418943882E0
9.454713282E0,6.394818425E-1,-1.039950657E1,-3.060420275E0
9.476007500E0,-6.669992954E-2,-1.093340492E1,-2.715554714E0
9.497301667E0,-1.632503271E0,-1.171884918E1,-1.721935034E0
9.518595886E0,-3.571586847E0,-1.165424252E1,1.136590727E-2
9.539890053E0,-3.914059639E0,-1.121605682E1,-2.368296146E0
9.561184271E0,-4.162913322E0,-9.925727844E0,-2.224726915E0
9.582478490E0,-3.645764351E0,-8.817252159E0,2.120639086E0
9.603772657E0,-2.037189484E0,-8.343173981E0,3.101995468E0
9.625066875E0,-6.029912829E-1,-8.702097893E0,5.883352757E-1
9.646361042E0,6.586244106E-1,-9.085248947E0,-4.005884171E0
9.667655261E0,1.889133453E0,-8.060522079E0,-6.510272026E0
9.688949428E0,2.870789051E0,-6.526124477E0,-2.406581402E0
9.710243646E0,3.785445452E0,-6.475576401E0,8.754739761E-1
9.731537813E0,4.563411713E0,-7.287341595E0,3.372683525E0
9.752832032E0,3.649054527E0,-9.765109062E0,6.757929325E0
9.774126198E0,-2.745764017E0,-1.237956715E1,9.745667458E0
9.795420417E0,-6.937690258E0,-1.299721432E1,5.647061348E0
9.816714584E0,-1.246959686E0,-8.690134048E0,3.274577856E0
9.838008803E0,3.055335522E0,-2.784049034E0,5.666203976E0
9.859302969E0,2.277069807E0,-2.061117649E0,1.814058661E0
9.880597136E0,-2.097009897E0,-1.009801102E1,-4.362713814E0
9.901891355E0,-2.093719784E-3,-2.571955299E1,-2.081157446E0
9.923185521E0,4.221238136E0,-2.701945496E1,-1.966302037E0
9.944479740E0,-1.926820397E0,-7.806882858E0,4.639084816E0
9.965773907E0,-1.910070658E0,-4.996213913E0,1.284945726E0
9.987068073E0,9.122636169E-2,-4.505385876E0,-3.941277981E0
1.000836229E1,2.705684185E0,-7.251449108E0,-5.990730762E0
1.002965646E1,3.952943087E0,-9.125926018E0,-5.815755367E0
1.005095068E1,3.043371201E0,-9.365508080E0,-5.040181637E0
1.007224484E1,1.391426325E0,-8.335995674E0,1.296909928E0
1.009353901E1,1.798206210E0,-9.434899330E0,5.017449856E0
1.011483323E1,2.985644341E0,-9.123533249E0,3.353540897E0
1.013612740E1,2.123929262E0,-1.098604679E1,1.962413669E0
1.015742156E1,-1.575075507E0,-1.027268696E1,4.581656933E0
1.017871578E1,-1.584646821E0,-1.001426220E1,1.117448211E0
1.020000995E1,-9.092726111E-1,-1.009083176E1,-2.315654039E0
1.022130412E1,-1.025922745E-1,-9.434899330E0,-1.832004786E0
1.024259828E1,-1.576271951E-1,-9.121140480E0,1.071984529E0
1.026389250E1,5.700899959E-1,-8.175377846E0,4.536193371E0
1.028518667E1,1.154237866E0,-1.090947628E1,4.351946354E0
1.030648083E1,-1.213460207E0,-1.225274754E1,3.248256743E-1
1.032777500E1,-3.035295486E0,-1.188156128E1,1.648953915E0
1.034906922E1,-3.420839071E0,-1.124237823E1,7.821539044E-1
1.037036339E1,-2.314756870E0,-1.117777157E1,4.545764923E0
1.039165755E1,-1.960319996E0,-1.133330536E1,5.115555763E0
1.041295172E1,-1.850250125E0,-1.196052361E1,4.502694130E0
1.043424594E1,-2.097009897E0,-1.257338524E1,5.187340260E0
1.045554010E1,-2.920439959E0,-1.305464172E1,1.904985905E0
1.047683427E1,-2.075474501E0,-1.406022549E1,-2.028515339E0
1.049812844E1,8.288139701E-1,-1.536491203E1,-3.701995850E0
1.051942260E1,2.832503796E0,-1.561645794E1,-3.426522017E0
1.054071677E1,-2.180758715E0,-1.132134151E1,-1.202393398E-1
1.056201099E1,-4.708775997E0,-8.355138779E0,2.438884497E0
1.058330516E1,-5.070391178E0,-9.111569405E0,1.265803218E0
1.060459932E1,-2.530110836E0,-1.099561787E1,3.566502094E0
1.062589349E1,-3.394817114E-1,-1.075633621E1,1.469492197E0
1.064718766E1,-1.112961650E0,-7.883453369E0,-1.834397674E0
1.066848182E1,-6.843472719E-1,-5.939284801E0,-3.757030725E0
1.068977599E1,1.266700506E0,-5.948856354E0,-4.635495663E0
1.071107016E1,3.177369356E0,-6.736692905E0,-3.280559778E0
1.073236432E1,3.026621580E0,-6.085546017E0,-1.513759375E0
1.075365854E1,3.620340586E0,-5.891428471E0,-1.051645517E0
1.077495271E1,4.549055099E0,-5.860321522E0,1.866700768E0
1.079624688E1,5.446961880E0,-7.057331085E0,7.006783009E0
1.081754104E1,1.635494232E0,-1.169492054E1,1.037288570E1
1.083883521E1,-3.267698526E0,-1.376560974E1,7.722835064E0
1.086012938E1,-2.836691141E0,-1.185523987E1,3.906582117E0
1.088142354E1,-3.394817114E-1,-5.676074505E0,3.822833300E0
1.090271771E1,7.663014531E-1,-8.249854088E0,3.068495989E0
1.092401188E1,1.307378531E0,-2.074457550E1,2.029711723E0
1.094530604E1,3.454936743E0,-2.847758102E1,9.834501147E-1
1.096660021E1,-2.024926186E0,-1.352154160E1,-1.834397674E0
1.098789438E1,-1.447956800E0,-5.264209747E0,-5.411368370E0
1.100918854E1,-1.671984792E-1,-1.457528114E0,-5.411368370E0
1.103048271E1,7.232306600E-1,-6.077769399E-1,-3.529413462E0
1.105177688E1,2.068894386E0,-3.123830080E0,-1.118644595E0
1.107307104E1,2.475973129E0,-7.759026527E0,1.555633783E0
1.109436521E1,3.672982693E0,-1.208973598E1,9.690931439E-1
1.111565938E1,5.375176907E0,-1.839841270E1,5.670989513E0
1.113695354E1,3.547359705E-1,-1.143858910E1,5.141876698E0
1.115824771E1,-9.334999323E-1,-8.120343208E0,1.366301775E0
1.117954188E1,-1.373779297E0,-7.282555580E0,-4.195216179E0
1.120083604E1,-1.567897081E0,-8.221140862E0,-3.615854025E0
1.122213021E1,-1.297209024E0,-9.341579437E0,-1.322034478E0
1.124342438E1,-2.796611488E-1,-1.009322548E1,-4.845465720E-2
1.126471854E1,-4.211367965E-1,-9.908977509E0,4.718048096E0
1.128601271E1,6.729813814E-1,-1.027268696E1,7.327720165E0
1.130730688E1,-7.866404206E-2,-1.089033413E1,-3.105883837E0
1.132860104E1,-1.673181176E0,-1.113230801E1,-2.325225353E0
1.134989521E1,-1.692323804E0,-1.053619671E1,4.964807987E0
1.137118938E1,-1.213460207E0,-1.107966614E1,2.850749016E0
1.139248354E1,-1.902892232E0,-1.017218781E1,1.160519004E0
1.141377771E1,-2.510968208E0,-1.030379295E1,3.712763548E0
1.143507188E1,-3.152543783E0,-1.122802162E1,1.083948612E0
1.145636599E1,-4.402494431E0,-1.278186035E1,2.386242390E0
1.147766016E1,-3.600300789E0,-1.357896900E1,3.712763548E0
1.149895432E1,-1.486541033E0,-1.176431274E1,4.569693089E0
1.152024849E1,1.223330572E-1,-1.231017494E1,9.475577474E-1
1.154154266E1,2.806182861E0,-1.340668583E1,-2.435295343E0
1.156283682E1,4.328915119E0,-1.430668640E1,-1.719542146E0
1.158413099E1,2.181356907E0,-1.242981625E1,9.212366939E-1
1.160542516E1,-1.695913076E-1,-9.185747147E0,2.989532709E0
1.162671932E1,-1.294816136E0,-7.897810459E0,3.190829039E0
1.164801349E1,-3.299104273E-1,-9.473184586E0,-2.162513494E0
1.166930766E1,5.294120312E-1,-1.135005474E1,-3.103491068E0
1.169060182E1,-7.824530005E-1,-1.044497013E1,-4.459623098E-1
1.171189599E1,-1.373779297E0,-8.857930183E0,1.605883121E0
1.173319010E1,6.323033571E-1,-7.713562965E0,-3.047857881E-1
1.175448427E1,2.066501379E0,-6.399005890E0,-2.157727718E0
1.177577844E1,2.483151674E0,-5.295316696E0,-1.336391449E0
1.179707260E1,2.109572172E0,-4.493422031E0,-1.585244983E-1
1.181836677E1,2.746362209E0,-4.668097973E0,2.338984162E-1
1.183966094E1,3.584448338E0,-6.645765781E0,1.574776411E0
1.186095510E1,3.306581736E0,-1.062951660E1,6.664609432E0
1.188224927E1,9.747761488E-1,-1.361486149E1,8.584549904E0
1.190354344E1,-1.847857237E0,-1.265952682E1,8.175078392E0
1.192483760E1,-3.839882135E0,-9.140283585E0,7.940581799E0
1.194613172E1,-2.424826622E0,-3.751347780E0,3.590430260E0
1.196742589E1,-3.418745399E-1,-5.927320957E0,-2.586342096E0
1.198872005E1,3.191726208E0,-1.729472351E1,-1.752742529E-1
1.201001422E1,5.607280731E0,-2.870968437E1,1.854437590E-2
1.203130839E1,-1.677966833E0,-2.174776649E1,6.374778748E0
1.205260255E1,-3.935595036E0,-5.997011662E0,-3.323630571E0
1.207389672E1,-1.000499010E0,-2.278864384E0,-5.887839317E0
1.209519089E1,3.643072546E-1,-8.207381964E-1,-5.009075165E0
1.211648505E1,1.942074656E0,-2.786442041E0,-2.933301449E0
1.213777917E1,2.633899450E0,-6.841977119E0,2.051845491E-1
1.215907333E1,3.486043453E0,-1.143858910E1,9.930213690E-1
1.218036750E1,3.450151205E0,-1.517348671E1,-5.536393523E-1
1.220166167E1,-1.632503271E0,-1.466351604E1,5.546562672E0
1.222295583E1,-3.691227913E0,-8.956035614E0,1.062443161E1
1.224425000E1,-2.056331873E0,-7.660920620E0,-2.038086653E0
1.226554417E1,-5.718846321E-1,-7.780561924E0,-5.437689304E0
1.228683833E1,-3.179463148E-1,-8.252246857E0,-2.337189436E0
1.230813245E1,1.941177398E-1,-9.255139351E0,-1.314856052E0
1.232942662E1,3.260220885E-1,-1.014108181E1,-1.099501967E0
1.235072078E1,-2.123630047E-2,-9.745966911E0,3.054138899E0
1.237201495E1,2.004287958E0,-1.073958588E1,3.844368696E0
1.239330912E1,1.805384636E0,-1.095733356E1,-2.605484724E0
1.241460328E1,3.020938635E-1,-1.043061256E1,1.555633783E0
1.243589745E1,-1.141675472E0,-1.078744221E1,5.467599869E0
1.245719156E1,-2.867797852E0,-1.216421318E1,1.296909928E0
1.247848573E1,-4.596313000E0,-1.179063320E1,1.737488389E0
1.249977990E1,-5.587540150E0,-1.088076305E1,2.225923300E0
1.252107406E1,-5.848357677E0,-1.084487057E1,1.904985905E0
1.254236823E1,-5.635396481E0,-1.231735325E1,2.347957134E0
1.256366240E1,-2.376970291E0,-1.357418346E1,3.806083441E0
1.258495656E1,8.982058167E-1,-1.279621696E1,4.976771832E0
1.260625068E1,2.394318104E0,-1.267627716E1,2.046461582E0
1.262754484E1,3.380759239E0,-1.330618763E1,-1.700399637E0
1.264883901E1,3.677768469E0,-1.340907860E1,-1.326820135E0
1.267013318E1,2.947359324E0,-1.269811153E1,2.261815548E0
1.269142734E1,9.867402315E-1,-1.117059326E1,4.306482315E0
1.271272151E1,3.332005441E-1,-9.817750931E0,-1.432403445E0
1.273401563E1,-8.063812256E-1,-8.312067986E0,-3.304488182E0
1.275530979E1,-4.259224236E-1,-6.997510910E0,5.835496187E-1
1.277660396E1,-3.394817114E-1,-6.513861656E0,3.094816923E0
1.279789813E1,3.236292601E-1,-7.328019142E0,7.606185079E-1
1.281919229E1,4.384847581E-1,-7.380661488E0,-2.404188633E0
1.284048646E1,9.053842425E-1,-6.468397617E0,-2.569592476E0
1.286178057E1,7.857431173E-1,-5.089533806E0,-2.401795685E-1
1.288307474E1,5.844469070E-1,-4.227519512E0,9.308080077E-1
1.290436891E1,9.723833203E-1,-4.761417866E0,1.902593136E0
1.292566307E1,1.503889084E0,-6.813263416E0,5.326124191E0
1.294695724E1,2.324926376E0,-1.029900742E1,7.363612652E0
1.296825141E1,1.829312921E0,-1.341865063E1,9.908679008E0
1.298954552E1,8.216354847E-1,-1.202273750E1,1.041595650E1
1.301083969E1,2.542374134E-1,-7.692027569E0,7.725227833E0
1.303213386E1,-1.170389414E0,-5.869893074E0,2.826820850E0
1.305342802E1,8.886345029E-1,-1.434257889E1,3.993022740E-1
1.307472219E1,3.792623997E0,-2.284906387E1,3.200400174E-1
1.309601630E1,6.777670383E-1,-2.289931297E1,2.058425665E0
1.311731047E1,-3.892524242E0,-9.080462456E0,-2.425723970E-1
1.313860464E1,5.533402413E-2,-6.796513557E0,-8.070990562E0
1.315989880E1,1.082453132E0,-4.651348114E0,-9.179466248E0
1.318119297E1,1.791027784E0,-4.213162422E0,-5.796612740E0
1.320248708E1,3.196511984E0,-6.585945129E0,-2.806481838E0
1.322378125E1,2.751147747E0,-9.018249512E0,2.913261652E-1
1.324507542E1,2.758326292E0,-1.035643578E1,1.124626637E0
1.326636958E1,2.722434044E0,-1.561885071E1,1.109611702E1
1.328766375E1,-2.166401863E0,-1.009322548E1,1.679163361E1
1.330895792E1,1.199701428E0,-8.996713638E0,-4.276572227E0
1.333025203E1,6.681957245E-1,-9.039784431E0,-1.001755238E1
1.335154620E1,-1.902892232E0,-8.479565620E0,-3.089133978E0
1.337284036E1,-1.376172066E0,-8.412566185E0,-8.506484628E-1
1.339413453E1,9.122636169E-2,-8.848359108E0,6.649056077E-1
1.341542865E1,6.849454641E-1,-9.559326172E0,2.292922258E0
1.343672281E1,5.318048596E-1,-9.659825325E0,2.838784933E0
1.345801698E1,-1.476969719E0,-9.097212791E0,4.452444553E0
1.347931115E1,-3.375375509E0,-9.497113228E0,2.247458696E0
1.350060531E1,-2.376970291E0,-1.067258739E1,-4.779364109E0
1.352189943E1,-2.223829508E0,-1.233649635E1,-4.818546474E-1
1.354319359E1,-2.724228621E0,-1.281536007E1,3.403790236E0
1.356448776E1,-2.645265341E0,-1.259013557E1,1.505384564E0
1.358578193E1,-3.705585003E0,-1.148405361E1,1.510170221E0
1.360707609E1,-4.117449760E0,-1.461326694E1,3.090031385E0
1.362837021E1,-3.327518940E0,-1.515673637E1,8.898309469E-1
1.364966438E1,1.029811025E0,-1.140030479E1,1.180708408E1
1.367095854E1,1.223629713E0,-1.080419254E1,8.570193291E0
1.369225271E1,7.905287743E-1,-9.734002113E0,-1.734796353E-2
1.371354682E1,1.273878932E0,-1.045484066E1,-3.587140322E0
1.373484099E1,2.011466503E0,-1.364836121E1,-2.358724833E0
1.375613516E1,9.197412133E-1,-1.527398491E1,-1.066002488E0
1.377742932E1,-3.497409344E0,-1.251595783E1,5.529813290E0
1.379872344E1,-3.629014730E0,-9.034998894E0,1.430907965E0
1.382001760E1,-2.089831591E0,-8.110771179E0,-1.425225019E0
1.384131177E1,-1.153639674E0,-7.703991413E0,-4.698905349E-1
1.386260594E1,-7.585247755E-1,-7.747062206E0,6.361917257E-1
1.388390005E1,2.060818523E-1,-8.084450722E0,1.177268744E0
1.390519422E1,1.774278045E0,-8.434102058E0,2.027917206E-1
1.392648839E1,3.344866991E0,-7.473981380E0,-4.247858524E0
1.394778255E1,2.205285072E0,-5.070391178E0,-4.231108665E0
1.396907667E1,1.525424480E0,-3.518944740E0,-3.478565812E-1
1.399037083E1,2.593221426E0,-3.928416491E0,2.577668190E0
1.401166500E1,3.320938826E0,-6.492326260E0,5.843272686E0
1.403295917E1,-1.682752490E0,-1.145294666E1,9.405886650E0
1.405425328E1,-5.070391178E0,-1.420379543E1,8.752047539E0
1.407554745E1,-1.539183140E0,-1.299242878E1,6.791429043E0
1.409684162E1,1.982752681E0,-6.052046776E0,1.006181908E1
1.411813578E1,8.742775917E-1,-4.390530586E0,4.385445595E0
1.413942990E1,-8.823533356E-2,-1.232453251E1,-3.220739365E0
1.416072406E1,3.696911097E0,-2.593969345E1,-2.504986286E0
1.418201823E1,1.525424480E0,-2.408196449E1,-4.188037872E0
1.420331240E1,-2.575574398E0,-6.748657227E0,-1.901396751E0
1.422460651E1,-2.006980032E-1,-3.399303675E0,-4.645066738E0
1.424590068E1,1.233201027E0,-3.171985626E0,-4.688137531E0
1.426719484E1,2.976073265E0,-6.892226696E0,-3.024228811E0
1.428848896E1,3.821337700E0,-1.000469017E1,-1.295713425E0
1.430978313E1,3.771088600E0,-1.101745319E1,-3.095714152E-1
1.433107729E1,4.996811867E0,-1.152233791E1,8.802596092E0
1.435237146E1,2.504687071E0,-9.913763046E0,-3.430709541E-1
1.437366557E1,1.089631557E0,-8.245068550E0,-5.018646240E0
1.439495974E1,-1.692323804E0,-8.615956306E0,-4.044169426E0
1.441625391E1,-2.642872572E0,-9.427721024E0,2.558525562E0
1.443754807E1,-2.319542408E0,-9.901799202E0,5.232803822E0
1.445884219E1,-6.891329288E-1,-9.949655533E0,3.066103220E0
1.448013636E1,-5.312066078E-1,-9.750752449E0,1.620239973E0
1.450143052E1,-1.479362607E0,-8.615956306E0,1.387837172E0
1.452272464E1,-3.032902718E0,-8.723632812E0,1.428515077E0
1.454401880E1,-3.655335665E0,-8.596813202E0,-1.360618830E0
1.456531297E1,-1.981855392E0,-1.048833942E1,-2.832803011E0
1.458660708E1,-1.552343667E-1,-1.307617760E1,8.635098934E-1
1.460790125E1,9.915258884E-1,-1.407936859E1,3.724727631E0
1.462919542E1,-1.658824325E0,-1.199163055E1,1.095912814E0
1.465048958E1,-3.916452408E0,-1.075394344E1,2.041675806E0
1.467178370E1,-3.219841957E0,-1.112512970E1,6.082854271E0
1.469307787E1,-2.968296528E0,-1.204427242E1,4.600799561E0
1.471437203E1,-2.058724880E0,-1.338275814E1,5.850451469E0
1.473566615E1,-1.718644857E0,-1.246092319E1,4.603192329E0
1.475696031E1,-5.120640397E-1,-1.264517021E1,8.012964725E-1
1.477825448E1,1.063310504E0,-1.395015621E1,-1.954337835E0
1.479954865E1,2.724826813E0,-1.525244999E1,-2.023729801E0
1.482084276E1,1.307378531E0,-1.472812271E1,2.781357288E0
1.484213693E1,-2.075474501E0,-1.138355446E1,3.475574970E0
1.486343109E1,-3.071187973E0,-8.141878128E0,2.448455811E0
1.488472521E1,-2.621337175E0,-6.973582268E0,-5.560321808E-1
1.490601938E1,-1.201496124E0,-7.277770042E0,-9.655039310E-1
1.492731354E1,4.719842672E-1,-7.351947784E0,3.032902777E-1
1.494860766E1,2.590230405E-1,-6.997510910E0,1.153340459E0
1.496990182E1,5.700899959E-1,-7.038188934E0,-2.172084808E0
1.499119599E1,1.989931107E0,-6.712764740E0,-5.430510998E0
1.501249011E1,2.547757864E0,-5.534897804E0,-2.524128675E0
1.503378427E1,2.226820469E0,-5.101497650E0,8.371888399E-1
1.505507844E1,2.499901533E0,-5.652146339E0,2.304886341E0
1.507637255E1,1.501496196E0,-7.105486870E0,5.161019325E0
1.509766672E1,-9.885348678E-1,-1.076351452E1,9.266803741E0
1.511896089E1,-2.367398977E0,-1.374646664E1,1.084696388E1
1.514025500E1,-2.092224360E0,-1.279860973E1,8.170292854E0
1.516154917E1,-1.163210869E0,-7.485945702E0,6.078068733E0
1.518284333E1,7.686942816E-2,-4.467100620E0,2.769393206E0
1.520413745E1,2.633899450E0,-6.346364021E0,-2.856431901E-1
1.522543162E1,2.609971285E0,-1.189113235E1,2.879462957E0
1.524672578E1,1.197308660E0,-2.127129555E1,-4.292125702E-1
1.526801990E1,2.569293261E0,-2.316730881E1,-2.167299032E0
1.528931406E1,-2.202294111E0,-7.052545547E0,2.410768867E-1
1.531060823E1,-4.283152521E-1,-3.191128016E0,-2.047657967E0
1.533190234E1,1.408176184E0,-5.237888813E0,-4.788935184E0
1.535319651E1,3.706482172E0,-9.961619377E0,-2.514557600E0
1.537449068E1,4.563411713E0,-1.284407330E1,-2.385046005E0
1.539578479E1,2.648256540E0,-1.134766197E1,-1.889432549E0
1.541707896E1,-2.892324328E-1,-8.556135178E0,2.896212816E0
1.543837313E1,-4.833501875E-1,-9.942477226E0,4.746761799E0
1.545966724E1,2.446661144E-1,-8.022236824E0,-8.338986635E-1
1.548096141E1,-4.995017126E-2,-7.342376232E0,-4.111168385E0
1.550225557E1,-1.057926655E0,-8.855537415E0,-8.291130662E-1
1.552354969E1,-1.345065475E0,-9.446864128E0,4.347160339E0
1.554484386E1,-4.618147612E-1,-9.518648148E0,7.639086246E0
1.556613802E1,5.533402413E-2,-9.058927536E0,5.529813290E0
1.558743214E1,-8.614161611E-1,-1.002861881E1,-2.662912607E0
1.560872630E1,-1.608574986E0,-9.894620895E0,-1.461117268E0
1.563002047E1,-1.704287887E0,-1.016500950E1,2.221137524E0
1.565131458E1,-1.170389414E0,-1.211127186E1,2.429313183E0
1.567260875E1,-3.169592619E0,-1.389751434E1,-2.617149651E-1
1.569390292E1,-4.751846790E0,-1.253988647E1,1.529312730E0
1.571519703E1,-3.667299747E0,-1.138594723E1,5.709274769E0
1.573649120E1,-2.796013355E0,-1.177627659E1,3.442075491E0
1.575778531E1,-2.128116608E0,-1.358375549E1,4.438087940E0
1.577907948E1,-3.948157430E-1,-1.270289707E1,8.060222626E0
1.580037365E1,-4.139583111E-1,-1.235085297E1,1.821237087E0
1.582166776E1,-3.828516304E-1,-1.183609676E1,-2.859123945E0
1.584296193E1,1.719243050E0,-1.359811211E1,-4.041776657E0
1.586425609E1,3.160619497E0,-1.602802277E1,3.597608805E0
1.588555026E1,2.379961252E0,-1.430190086E1,6.003890991E0
1.590684438E1,-8.087740541E-1,-9.812965393E0,1.598704576E0
1.592813854E1,-1.036391258E0,-7.347161770E0,-3.278167009E0
1.594943271E1,-3.370888829E-1,-6.518647194E0,-3.471985579E0
1.597072682E1,-1.528415531E-1,-5.879464149E0,6.625127792E-1
1.599202099E1,-2.389831543E-1,-5.817250729E0,3.265006542E0
1.601331510E1,-5.192425251E-1,-6.746264458E0,2.340778828E0
1.603460927E1,5.102694035E-1,-8.218747139E0,-3.457628727E0
1.605590344E1,2.722434044E0,-8.395816803E0,-4.539782524E0
1.607719761E1,2.569293261E0,-6.126224041E0,1.107876897E0
1.609849172E1,2.025823355E0,-5.362315655E0,3.075674295E0
1.611978589E1,1.677966863E-1,-7.127022266E0,5.766702652E0
1.614108005E1,-1.642074585E0,-1.034447098E1,6.659823418E0
1.616237417E1,-1.275673628E0,-1.143619633E1,1.041356373E1
1.618366833E1,8.335995674E-1,-8.508278847E0,8.529515266E0
1.620496245E1,1.755135417E0,-5.666502953E0,4.145864487E0
1.622625662E1,2.059323072E0,-5.932106495E0,4.873880386E0
1.624755078E1,-7.896314859E-1,-6.164509296E0,6.420242310E0
1.626884495E1,-2.113759756E0,-9.851250648E0,-1.621436477E0
1.629013906E1,5.758028507E0,-2.333959198E1,-3.512663603E0
1.631143323E1,6.385546207E0,-2.805135918E1,-2.851945400E0
1.633272740E1,-1.723430514E0,-8.831609726E0,4.447658956E-1
1.635402151E1,-1.955534339E0,-2.987439156E0,-6.007480145E0
1.637531568E1,1.001097202E0,-4.979464054E0,-5.083252430E0
1.639660984E1,3.397509098E0,-9.302995682E0,-2.229512453E0
1.641790396E1,4.003192425E0,-1.235563850E1,-4.435695112E-1
1.643919812E1,3.469293833E0,-1.019133091E1,8.053044319E0
1.646049229E1,-4.516452923E-2,-1.043779182E1,5.575276852E0
1.648178641E1,-1.890928149E0,-8.886644363E0,-7.812566161E-1
1.650308057E1,-1.380957723E0,-7.330412388E0,-4.369892120E0
1.652437474E1,-6.221339107E-1,-8.225926399E0,-4.398606300E0
1.654566886E1,-1.378564954E0,-9.913763046E0,4.136592150E-1
1.656696302E1,-3.095116138E0,-1.034447098E1,3.724727631E0
1.658825719E1,-2.798406124E0,-9.291030884E0,4.811367989E0
1.660955136E1,-1.342672586E0,-9.032606125E0,3.973581076E0
1.663084547E1,-1.959123611E-1,-9.147461891E0,2.056032896E0
1.665213964E1,1.115952611E0,-1.026790142E1,1.028913736E0
1.667343380E1,9.699904919E-1,-1.217617702E1,-9.200403094E-1
1.669472792E1,-6.077769399E-1,-1.249442291E1,1.083948612E0
1.671602208E1,-2.937189817E0,-1.144337559E1,2.929712296E0
1.673731625E1,-3.995415688E0,-1.175234795E1,1.534098387E0
1.675861042E1,-3.669692516E0,-1.129262733E1,3.214757204E0
1.677990453E1,-2.989831924E0,-1.050030422E1,4.893023014E0
1.680119870E1,-2.563610315E0,-9.956833839E0,5.070092201E0
1.682249286E1,-2.298007011E0,-1.017218781E1,4.253541470E0
1.684378703E1,-3.250948668E0,-1.196770287E1,1.790130496E0
1.686508115E1,-2.005783558E0,-1.401715469E1,-3.311068416E-1
1.688637531E1,1.180558920E0,-1.886022758E1,-2.452044964E0
1.690766948E1,4.230809689E0,-2.062254143E1,-4.292125702E-1
1.692896365E1,1.922932148E0,-1.298046494E1,2.469991207E0
1.695025776E1,-2.475075960E0,-6.437291145E0,4.004687786E0
1.697155193E1,-3.444767237E0,-6.162116528E0,1.621137410E-1
1.699284609E1,-1.447956800E0,-8.972785950E0,-3.397808075E0
1.701414021E1,1.922932148E0,-1.085683441E1,1.788634956E-1
1.703543438E1,2.641077995E0,-9.540184021E0,6.170491576E-1
1.705672854E1,2.009073734E0,-8.872286797E0,-9.128618240E-1
1.707802271E1,9.460622668E-1,-7.536194801E0,-1.954337835E0
1.709931682E1,1.949253201E0,-5.898606777E0,-2.217548370E0
1.712061099E1,3.897907972E0,-5.190032482E0,-1.336391449E0
1.714190516E1,5.056632519E0,-4.735096931E0,6.122635007E-1
1.716319932E1,4.788636208E0,-4.701597214E0,3.336791277E0
1.718449344E1,3.383152008E0,-6.533303261E0,6.956533432E0
1.720578760E1,1.010668516E0,-1.065344429E1,1.015513897E1
1.722708177E1,-1.505683661E0,-1.431865025E1,9.999606133E0
1.724837594E1,-2.733799934E0,-1.075155067E1,8.443373680E0
1.726967005E1,7.953144312E-1,-7.239484787E0,6.056533337E0
1.729096422E1,2.732005358E0,-5.683252811E0,4.181756496E0
1.731225839E1,1.252343535E0,-4.950749874E0,1.287338614E0
1.733355255E1,-1.280459166E0,-5.134997368E0,-3.378665686E0
1.735484667E1,-3.167199850E0,-8.941679001E0,-5.715256691E0
1.737614083E1,1.752742529E0,-2.013171387E1,-1.286142230E0
1.739743500E1,3.950550079E0,-2.915744209E1,5.912664890E0
1.741872917E1,-2.602194548E0,-1.293021584E1,5.077270508E0
1.744002333E1,-6.436693072E-1,-4.986642361E0,-1.556830287E0
1.746131745E1,1.269093275E0,-3.770490170E0,-4.578067780E0
1.748261162E1,2.399103880E0,-4.766203403E0,-4.200001717E0
1.750390578E1,4.031906128E0,-8.786145210E0,-2.610270500E0
1.752519990E1,3.912265062E0,-1.061755180E1,-8.027920127E-1
1.754649406E1,2.734398127E0,-1.073958588E1,5.137091160E0
1.756778823E1,4.671986103E-1,-9.568898201E0,2.321636200E0
1.758908240E1,-6.125625968E-1,-8.158627510E0,-8.434699774E-1
1.761037656E1,-1.400100350E0,-8.714061737E0,-2.662912607E0
1.763167068E1,-1.512862086E0,-1.000708294E1,7.271189690E-1
1.765296484E1,-1.749751568E0,-1.009322548E1,4.603192329E0
1.767425901E1,-1.445564032E0,-9.659825325E0,3.727120399E0
1.769555318E1,-5.479564071E-1,-8.613563538E0,3.586242795E-1
1.771684734E1,-1.201496124E0,-8.405387878E0,1.170090318E0
1.773814146E1,-1.776072621E0,-1.043300629E1,2.767000198E0
1.775943563E1,-1.496112347E0,-1.265474129E1,1.794616925E-3
1.778072979E1,-1.697109461E0,-1.263799191E1,-8.769695163E-1
1.780202396E1,-2.537289381E0,-1.138116169E1,2.249851465E0
1.782331812E1,-2.676372051E0,-1.167099285E1,2.580060959E0
1.784461224E1,-2.628515720E0,-1.176909828E1,4.749154568E0
1.786590641E1,-2.376970291E0,-1.101027393E1,7.806583881E0
1.788720057E1,-2.546860695E0,-1.271486092E1,7.013961315E0
1.790849474E1,-2.721835852E0,-1.414636707E1,4.483551502E0
1.792978891E1,-2.441576481E0,-1.260209942E1,-1.135394335E0
1.795108307E1,-7.298108935E-1,-1.340907860E1,-2.878266573E0
1.797237719E1,2.241177559E0,-1.592513180E1,1.464407444E0
1.799367136E1,3.196511984E0,-1.701925087E1,5.831308842E0
1.801496552E1,6.466603279E-1,-1.325593853E1,2.199602127E0
1.803625969E1,-1.845464468E0,-8.970393181E0,-1.168893814E0
1.805755386E1,-2.748156786E0,-6.908976078E0,-7.546364665E-1
1.807884802E1,-2.092224360E0,-6.506682873E0,-9.176474810E-1
1.810014214E1,5.102694035E-1,-6.686443806E0,4.725824669E-2
1.812143630E1,1.398604870E0,-6.343971252E0,1.584347725E0
1.814273047E1,1.259521961E0,-5.929713726E0,3.290131316E-2
1.816402464E1,1.072881818E0,-5.458327770E0,-4.113561153E0
1.818531880E1,2.248355865E0,-5.716752529E0,-4.094418526E0
1.820661292E1,2.300997972E0,-5.525326729E0,-8.673982322E-2
1.822790708E1,3.399901867E0,-5.525326729E0,3.257827997E0
1.824920125E1,3.237190008E0,-7.038188934E0,7.832904816E0
1.827049542E1,-6.723831892E-1,-1.312164116E1,1.472782326E1
1.829178958E1,-5.331208706E0,-1.514716530E1,1.363131237E1
1.831308375E1,-1.098604679E0,-1.208734322E1,9.575777054E0
1.833437786E1,3.014358282E0,-5.487041473E0,5.525027275E0
1.835567203E1,4.178167343E0,-2.697907448E0,2.139781713E0
1.837696620E1,9.173483849E-1,-1.948355794E0,2.671287298E0
1.839826037E1,-4.259224236E-1,-1.919641972E0,-1.231107235E0
1.841955453E1,1.154237866E0,-7.158128738E0,-4.214358807E0
1.844084870E1,4.072584152E0,-2.919572639E1,6.499205589E0
1.846214286E1,3.519542933E0,-2.905455017E1,-7.860422611E0
1.848343698E1,-2.467897415E0,-8.448458672E0,-3.203989506E0
1.850473115E1,-5.312066078E-1,-2.597409010E0,-1.621436477E0
1.852602531E1,1.867598057E0,-5.252245903E0,-3.455235958E0
1.854731948E1,4.874777794E0,-1.106052399E1,-2.047657967E0
1.856861365E1,3.900300980E0,-1.329183102E1,2.139781713E0
1.858990781E1,8.288139701E-1,-1.110120201E1,5.431707382E0
1.861120198E1,6.490531564E-2,-1.006690407E1,2.769393206E0
1.863249609E1,5.294120312E-1,-8.745168686E0,-5.799604058E-1
1.865379026E1,8.096713424E-1,-7.284948349E0,-1.935195327E0
1.867508443E1,3.858426511E-1,-5.666502953E0,-7.043871880E-1
1.869637859E1,-5.952146277E-2,-8.079665184E0,2.927319288E0
1.871767276E1,-9.933205247E-1,-1.041147041E1,4.117150307E0
1.873896693E1,-8.494520187E-1,-1.071087265E1,2.922533751E0
1.876026109E1,-7.848458290E-1,-9.013463974E0,2.692822695E0
1.878155526E1,-7.154539824E-1,-8.730812073E0,1.830808401E0
1.880284938E1,-9.502496719E-1,-9.635896683E0,-1.974078640E-2
1.882414354E1,-2.228615284E0,-1.153190994E1,1.031306505E0
1.884543771E1,-3.215056419E0,-1.294457245E1,1.162911773E0
1.886673188E1,-4.122235298E0,-1.292542934E1,1.692024708E0
1.888802604E1,-3.722633839E0,-1.174038410E1,3.537788391E0
1.890932021E1,-2.769692183E0,-1.242263794E1,3.113959551E0
1.893061438E1,-2.432005167E0,-1.284407330E1,3.669393539E0
1.895190849E1,-2.429612398E0,-1.409851074E1,2.666501760E0
1.897320266E1,1.725823283E-1,-1.270528984E1,9.774381638E0
1.899449682E1,-5.814558864E-1,-1.258774281E1,2.714358091E0
1.901579099E1,3.140579760E-1,-1.284646702E1,-2.981158018E0
1.903708516E1,2.449352980E0,-1.377757359E1,-3.330809116E0
1.905837932E1,3.091227770E0,-1.435693550E1,3.042174816E0
1.907967349E1,1.312164068E0,-1.192941761E1,6.228816509E0
1.910096766E1,-2.892324328E-1,-9.247960091E0,1.621137410E-1
1.912226177E1,-4.570291340E-1,-7.619943619E0,-3.584448338E0
1.914355594E1,-1.029212832E0,-6.739085674E0,-2.524128675E0
1.916485011E1,-1.890928149E0,-6.109474182E0,3.152543902E-1
1.918614427E1,-1.211067319E0,-5.757430553E0,2.067996979E0
1.920743844E1,-4.522434771E-1,-6.071189404E0,8.826524615E-1
1.922873260E1,6.346961856E-1,-7.344769001E0,-2.952444077E0
1.925002677E1,1.297807217E0,-8.019844055E0,-5.325226784E0
1.927132089E1,5.509474277E-1,-6.583552361E0,-1.674078584E0
1.929261505E1,2.006680965E0,-6.291328907E0,1.366301775E0
1.931390922E1,2.669791937E0,-7.962416649E0,5.623133183E0
1.933520339E1,2.036890239E-1,-1.200359440E1,9.582955360E0
1.935649755E1,-2.470290184E0,-1.471376514E1,1.055743217E1
1.937779172E1,3.738785386E-1,-1.178824043E1,7.543074131E0
1.939908589E1,1.293021560E0,-4.155734539E0,4.586442947E0
1.942038005E1,3.330509901E0,-1.749751568E0,4.028615952E0
1.944167422E1,2.420639277E0,-4.890929699E0,3.698107481E0
1.946296833E1,5.605186820E-1,-1.441226959E1,2.731107950E0
1.948426250E1,5.854040623E0,-3.323929596E1,-1.810469389E0
1.950555667E1,2.991028305E-4,-2.107957077E1,-6.280261993E0
1.952685083E1,-2.556432009E0,-4.560420990E0,-3.797708750E0
1.954814500E1,-1.019641519E0,-4.809573591E-1,-3.086741209E0
1.956943917E1,1.013061285E0,-3.080759048E0,-3.381058455E0
1.959073333E1,3.613162279E0,-9.116354942E0,-1.046859860E0
1.961202745E1,6.035895348E0,-1.490997696E1,3.681955934E-1
1.963332162E1,5.228915691E0,-1.225514030E1,9.750452995E0
1.965461578E1,9.723833203E-1,-1.187677479E1,1.790130496E0
1.967590995E1,-1.033998489E0,-8.651848793E0,-2.684448004E0
1.969720412E1,-7.393822074E-1,-6.181259155E0,-5.947659969E0
1.971849828E1,-1.532004714E0,-6.751049995E0,-4.130311012E0
1.973979245E1,-1.898106575E0,-9.401400566E0,1.574776411E0
1.976108656E1,-2.965903759E0,-1.062233829E1,5.493920803E0
1.978238073E1,-2.386541367E0,-1.067258739E1,5.594419479E0
1.980367490E1,-1.120140076E0,-9.482755661E0,3.547359467E0
1.982496906E1,-1.719841212E-1,-8.795717239E0,2.482553422E-1
1.984626323E1,-2.437688112E-1,-8.968000412E0,1.046859920E-1
1.986755740E1,-1.141675472E0,-1.048116112E1,1.342373490E0
1.988885156E1,-2.037189484E0,-1.196770287E1,1.414158225E0
1.991014568E1,-1.553540111E0,-1.214028454E1,6.840481758E-1
1.993143984E1,-1.802393675E0,-1.134766197E1,1.706381679E0
1.995273401E1,-2.693121910E0,-1.152473164E1,2.838784933E0
1.997402818E1,-2.037189484E0,-1.158245754E1,4.830510616E0
1.999532234E1,-2.238186598E0,-1.260688496E1,4.316053867E0
2.001661651E1,-1.349851131E0,-1.343300724E1,5.091627598E0
2.003791063E1,-8.566305041E-1,-1.161835003E1,5.450850010E0
2.005920479E1,-4.283152521E-1,-1.243460178E1,-1.760220170E0
2.008049896E1,1.345962763E0,-1.378475189E1,-2.469093800E0
2.010179312E1,3.498007536E0,-1.647338676E1,1.940878272E0
2.012308729E1,1.834098577E0,-1.499402523E1,5.728417397E0
2.014438146E1,-5.599204898E-1,-1.056251717E1,2.051247120E0
2.016567557E1,-1.079462171E0,-7.837989807E0,-2.339582443E0
2.018696974E1,-9.550353289E-1,-6.487540245E0,-4.178466320E0
2.020826391E1,7.447660714E-2,-6.071189404E0,-8.673982024E-1
2.022955807E1,4.169493318E-1,-5.312066078E0,3.044567823E0
2.025085224E1,4.767699242E-1,-5.510969639E0,2.553740025E0
2.027214641E1,1.319043487E-1,-6.415755749E0,-2.588735104E0
2.029344052E1,9.771689177E-1,-7.964809418E0,-5.657829285E0
2.031473469E1,1.369890928E0,-7.864310741E0,-1.542473316E0
2.033602886E1,1.625923038E0,-6.975975513E0,3.054138899E0
2.035732302E1,5.796613097E-1,-7.428517818E0,8.045866013E0
2.037861719E1,-2.587538481E0,-1.010518932E1,8.309375763E0
2.039991136E1,-2.085045815E0,-1.307378483E1,7.825726509E0
2.042120547E1,8.455637097E-1,-9.777072906E0,9.285946846E0
2.044249964E1,2.473580360E0,-6.221937180E0,8.002795219E0
2.046379380E1,3.699303865E0,-5.769394398E0,9.262018204E0
2.048508797E1,1.017846942E0,-1.249920845E1,2.163709879E0
2.050638208E1,3.112763166E0,-1.612164307E1,-4.812863827E0
2.052767625E1,4.951348305E0,-1.236999607E1,-1.036241722E1
2.054897042E1,6.610172391E-1,-5.209175110E0,-1.875075698E0
2.057026458E1,2.374876440E-1,-6.755835533E0,-4.851148605E0
2.059155875E1,2.341675997E0,-1.273878956E1,-1.879861236E0
2.061285286E1,2.104786634E0,-1.654038620E1,4.545764923E0
2.063414703E1,2.590230405E-1,-1.440509129E1,3.497110367E0
2.065544120E1,-1.357029557E0,-1.028943634E1,1.835594058E0
2.067673537E1,-7.034898400E-1,-8.551349640E0,1.469492197E0
2.069802953E1,-1.121635586E-1,-8.424530029E0,-8.745766878E-1
2.071932365E1,-2.246262282E-1,-7.837989807E0,-1.812862277E0
2.074061781E1,1.390828192E-1,-6.928118706E0,-1.482652783E0
2.076191198E1,-9.263214469E-1,-7.368697166E0,-2.234298140E-1
2.078320615E1,1.366899908E-1,-9.302995682E0,5.048556805E0
2.080450026E1,-4.139583111E-1,-1.128544903E1,4.655834675E0
2.082579443E1,-1.543968797E0,-1.078504944E1,2.173281193E0
2.084708859E1,-1.520040631E0,-9.604789734E0,7.941179872E-1
2.086838276E1,-9.885348678E-1,-9.592825890E0,-4.674977362E-1
2.088967693E1,-7.417750359E-1,-9.925727844E0,1.881057739E0
2.091097104E1,-2.329113722E0,-1.055294609E1,3.396611691E0
2.093226521E1,-3.435195923E0,-1.242263794E1,2.099103689E0
2.095355938E1,-2.496611357E0,-1.148405361E1,2.788535595E0
2.097485354E1,-1.227817178E0,-1.045244789E1,6.286244392E0
2.099614766E1,-1.318744421E0,-1.053858948E1,5.891129494E0
2.101744182E1,-1.163210869E0,-1.103420258E1,3.432504177E0
2.103873599E1,-3.815953970E0,-1.256381416E1,3.008675337E0
2.106003016E1,-4.194019794E0,-1.304028511E1,-1.495514158E-2
2.108132427E1,-1.120140076E0,-1.632981873E1,-2.140978098E0
2.110261844E1,2.425424814E0,-2.127129555E1,-3.430709541E-1
2.112391260E1,2.875574589E0,-1.723250961E1,3.494717360E0
2.114520677E1,1.415354609E0,-1.004058266E1,3.882653952E0
2.116650089E1,-3.203391433E-1,-6.949654102E0,1.740778536E-1
2.118779505E1,3.619144112E-2,-6.607480526E0,-3.050848961E0
2.120908922E1,1.211665511E0,-6.794120789E0,-2.880360186E-1
2.123038333E1,1.884347796E0,-6.739085674E0,2.027318954E0
2.125167750E1,5.294120312E-1,-6.064010620E0,2.300100803E0
2.127297167E1,-1.336989701E-1,-6.494719028E0,-1.920240223E-1
2.129426583E1,1.293021560E0,-7.770990849E0,-4.441677094E0
2.131555995E1,2.789433002E0,-8.666205406E0,-5.973980904E0
2.133685412E1,1.966002941E0,-7.160521984E0,-8.003991842E-1
2.135814828E1,2.617149830E0,-6.595516682E0,2.032104731E0
2.137944245E1,2.504687071E0,-7.344769001E0,7.322934628E0
2.140073656E1,-5.120640397E-1,-1.000708294E1,9.606884003E0
2.142203073E1,-3.238984585E0,-1.246570873E1,8.275876045E0
2.144332490E1,-6.675975323E-1,-1.161117172E1,8.503194809E0
2.146461901E1,1.759921074E0,-6.633801460E0,6.798607349E0
2.148591318E1,3.926621914E0,-3.753740549E0,4.725226402E0
2.150720734E1,2.509472847E0,-4.313960075E0,5.975177288E0
2.152850151E1,-1.950748682E0,-1.495095444E1,2.946461916E0
2.154979562E1,1.252343535E0,-2.612872505E1,-9.708579063E0
2.157108979E1,-2.078764737E-1,-1.299003601E1,-6.682555676E0
2.159238391E1,8.934201598E-1,-2.870190859E0,6.396314144E0
2.161367807E1,8.359923959E-1,-4.811667442E0,-5.676971912E0
2.163497224E1,4.041477680E0,-1.114187908E1,-3.977170229E0
2.165626636E1,4.482056141E0,-1.523091412E1,9.068797827E-1
2.167756052E1,-7.387840003E-2,-1.196052361E1,7.715656757E0
2.169885469E1,-1.863410622E-1,-1.051466084E1,3.875475407E0
2.172014886E1,2.135594189E-1,-1.022004509E1,-1.602293849E0
2.174144297E1,2.279163599E-1,-8.944071770E0,-3.062813044E0
2.176273714E1,2.036890239E-1,-7.311269760E0,-3.464807272E0
2.178403130E1,-8.105687052E-2,-6.899405003E0,-9.894321561E-1
2.180532542E1,-1.711466432E0,-8.836395264E0,3.580859184E0
2.182661958E1,-1.914856315E0,-1.004297543E1,4.148257256E0
2.184791375E1,-1.409671664E0,-1.030140018E1,3.147459030E0
2.186920786E1,-5.934200287E-1,-9.597611427E0,1.213161111E0
2.189050203E1,-2.605185509E-1,-8.592027664E0,-1.274178028E-1
2.191179620E1,-7.585247755E-1,-8.510671616E0,1.375873014E-2
2.193309031E1,-1.256531000E0,-9.231210709E0,1.153340459E0
2.195438448E1,-1.364207983E0,-1.220489120E1,1.976770639E0
2.197567865E1,-2.123331070E0,-1.295653629E1,1.553241014E0
2.199697276E1,-3.609872103E0,-1.188634682E1,1.785344839E0
2.201826693E1,-3.923630953E0,-1.159202957E1,1.404586911E0
2.203956109E1,-2.705085993E0,-1.239392376E1,2.688037157E0
2.206085521E1,-1.065105200E0,-1.251117229E1,5.058127880E0
2.208214938E1,1.893320978E-1,-1.255902863E1,4.988736153E0
2.210344354E1,8.264211416E-1,-1.188395405E1,8.519944191E0
2.212473766E1,4.576273263E-1,-1.169731331E1,1.818844318E0
2.214603182E1,1.020239711E0,-1.190309620E1,-3.175275564E0
2.216732594E1,2.150250196E0,-1.371296787E1,-1.714756489E0
2.218862011E1,2.413460732E0,-1.648295784E1,4.955236435E0
2.220991427E1,1.510469317E-1,-1.377757359E1,4.421338081E0
2.223120839E1,-1.438385487E0,-1.005015373E1,2.578266263E-1
2.225250255E1,-6.293123364E-1,-8.273782730E0,-2.341975212E0
2.227379672E1,1.226321608E-2,-7.268198967E0,-1.911267042E0
2.229509083E1,7.184450030E-1,-6.626623154E0,-4.148556292E-1
2.231638500E1,5.724828243E-1,-5.932106495E0,1.103091240E0
2.233767912E1,6.658028960E-1,-6.121438503E0,9.188438654E-1
2.235897328E1,1.192523003E0,-6.674479485E0,-1.906481385E0
2.238026745E1,1.637887120E0,-6.571588516E0,-4.554139614E0
2.240156156E1,1.424925923E0,-4.965106964E0,-1.891825438E0
2.242285573E1,2.842075109E0,-4.727918625E0,1.584347725E0
2.244414984E1,3.390330553E0,-7.009474754E0,6.683752060E0
2.246544401E1,-1.115354419E0,-1.220967674E1,1.068185902E1
2.248673818E1,-3.873381615E0,-1.378714466E1,1.009292603E1
2.250803229E1,-3.299104273E-1,-1.068215847E1,9.501599312E0
2.252932646E1,3.440579891E0,-5.206781864E0,8.922237396E0
2.255062062E1,4.793421745E0,-5.008177757E0,3.937688828E0
2.257191474E1,5.044668198E0,-1.743111420E1,-6.002694607E0
2.259320891E1,7.208976269E0,-2.893939590E1,-1.076201916E1
2.261450302E1,-1.447956800E0,-1.336361504E1,-6.258726597E0
2.263579719E1,-1.950748682E0,-4.309174538E0,-1.690828323E0
2.265709130E1,7.686942816E-2,-4.349852562E0,-3.768994808E0
2.267838547E1,1.783849239E0,-6.434898376E0,-1.611865163E0
2.269967964E1,2.985644341E0,-9.556933403E0,-1.305284739E0
2.272097375E1,2.605185747E0,-9.954441071E0,-2.210369855E-1
2.274226792E1,1.654636860E0,-9.274281502E0,5.649454117E0
2.276356203E1,1.769492388E0,-1.064148045E1,6.997211456E0
2.278485620E1,1.285843015E0,-9.518648148E0,1.215553880E0
2.280615031E1,-6.987041831E-1,-1.090469074E1,-1.590329766E0
2.282744448E1,-3.664906979E0,-1.099561787E1,2.443670034E0
2.284873865E1,-3.174378395E0,-1.063190937E1,1.217946768E0
2.287003276E1,-1.790429592E0,-9.676574707E0,-1.054038405E0
2.289132693E1,-6.221339107E-1,-9.195318222E0,2.811566554E-2
2.291262104E1,-1.408774406E-1,-9.082855225E0,1.950449586E0
2.293391521E1,-3.948157430E-1,-9.305388451E0,1.670489311E0
2.295520932E1,-1.160818100E0,-9.477970123E0,1.727917075E0
2.297650349E1,-1.206281662E0,-1.045962620E1,2.558525562E0
2.299779761E1,-8.135597110E-1,-1.073719311E1,1.359123230E0
2.301909177E1,-1.201496124E0,-1.098843956E1,1.304088354E0
2.304038594E1,-2.228615284E0,-1.116102219E1,6.194419861E-1
2.306168005E1,-2.652443886E0,-1.048594666E1,3.032902777E-1
2.308297422E1,-1.532004714E0,-1.031575775E1,4.440480709E0
2.310426833E1,-1.706680775E0,-1.260209942E1,2.833999395E0
2.312556250E1,-2.262114763E0,-1.316949749E1,2.920140982E0
2.314685662E1,2.108674943E-1,-1.346889973E1,7.538288593E0
2.316815078E1,9.173483849E-1,-1.336122227E1,1.253839016E0
2.318944490E1,1.700100541E0,-1.275793171E1,-2.926122904E0
2.321073906E1,2.363211393E0,-1.319821167E1,-9.750752449E-1
2.323203318E1,4.983053207E-1,-1.374646664E1,3.947260141E0
2.325332734E1,-1.141675472E0,-1.192223835E1,3.990330935E0
2.327462146E1,-1.565504193E0,-9.449256897E0,2.171486616E-1
2.329591563E1,-5.862415433E-1,-8.237890244E0,-2.622234583E0
2.331720974E1,-9.287142754E-1,-7.591229916E0,-6.493522525E-1
2.333850391E1,-6.340979934E-1,-7.208378315E0,1.442872047E0
2.335979802E1,-4.235295951E-1,-6.667301178E0,1.177268744E0
2.338109219E1,9.939187169E-1,-6.729514599E0,-2.452044964E0
2.340238630E1,2.521436930E0,-6.698407650E0,-5.633901119E0
2.342368047E1,2.111965179E0,-5.881857395E0,-3.946063757E0
2.344497458E1,2.009073734E0,-4.934000492E0,-5.129613280E-1
2.346626875E1,2.854039192E0,-5.283352375E0,2.565704107E0
2.348756286E1,3.725624800E0,-7.538587570E0,5.747560024E0
2.350885703E1,1.180558920E0,-1.210648632E1,6.678966045E0
2.353015115E1,-4.019941986E-1,-1.415593910E1,1.194347477E1
2.355144531E1,1.103689447E-1,-1.347847080E1,1.266640663E1
2.357273943E1,-2.341975123E-1,-5.692824364E0,7.610073090E0
2.359403359E1,1.233201027E0,-3.265305519E0,-7.761718631E-1
2.361532771E1,3.873979807E0,-1.071326542E1,-3.314059258E0
2.363662188E1,5.070989609E0,-2.297588348E1,-2.571985245E0
2.365791599E1,2.391925335E0,-2.517608261E1,2.673979402E-1
2.367921016E1,-3.191128016E0,-8.376673698E0,-3.019443035E0
2.370050427E1,-1.457528114E0,-3.210270643E0,-4.106382847E0
2.372179844E1,2.183450609E-1,-2.944368362E0,-3.553341627E0
2.374309255E1,1.542174220E0,-5.783751488E0,-1.733899117E0
2.376438672E1,3.304188967E0,-1.120887852E1,-4.363910258E-1
2.378568083E1,2.815753937E0,-1.193181038E1,-8.554341197E-1
2.380697500E1,9.532406926E-1,-1.105573750E1,2.127817631E0
2.382826912E1,4.719842672E-1,-1.011236763E1,4.150650024E0
2.384956328E1,7.519445419E-1,-9.631111145E0,2.721536636E0
2.387085740E1,-3.637090325E-1,-9.090034485E0,-2.473580390E-1
2.389215156E1,-2.104188442E0,-9.693324089E0,-5.416752100E-1
2.391344568E1,-2.278864384E0,-1.015783119E1,1.950449586E0
2.393473979E1,-1.086640596E0,-1.002383327E1,1.153340459E0
2.395603396E1,-6.669992954E-2,-9.695717812E0,8.898309469E-1
2.397732807E1,5.844469070E-1,-8.769395828E0,1.601097465E0
2.399862224E1,6.059823632E-1,-8.115556717E0,1.258624673E0
2.401991636E1,6.131607890E-1,-7.971987724E0,-2.377867550E-1
2.404121052E1,3.164508045E-1,-1.059362411E1,1.150947690E0
2.406250464E1,-6.580262184E-1,-1.220249844E1,1.613061547E0
2.408379880E1,-1.898106575E0,-1.202513027E1,7.510471940E-1
2.410509292E1,-2.496611357E0,-1.087597752E1,-6.756733060E-1
2.412638703E1,-2.341077805E0,-9.872786522E0,4.782654345E-1
2.414768120E1,-3.756731451E-1,-1.005015373E1,5.220839977E0
2.416897531E1,-2.362912335E-2,-1.162074280E1,4.579264164E0
2.419026948E1,-2.338685036E0,-1.313839054E1,2.510669231E0
2.421156359E1,-1.938784599E0,-1.330379486E1,3.635894060E0
2.423285771E1,-1.001994461E-1,-1.200598717E1,4.313661098E0
2.425415188E1,9.963115454E-1,-1.231974602E1,2.032104731E0
2.427544599E1,1.386640668E0,-1.259492111E1,-2.006979942E0
2.429674016E1,2.202892303E0,-1.345932865E1,-2.861516714E0
2.431803427E1,-5.952146277E-2,-1.234846020E1,-1.506580949E0
2.433932844E1,-2.125723839E0,-1.031336498E1,1.534098387E0
2.436062255E1,-2.755335331E0,-8.987142563E0,2.034497499E0
2.438191667E1,-2.022533417E0,-8.077271461E0,1.112662554E0
2.440321083E1,-9.119645357E-1,-7.730312824E0,1.931306958E0
2.442450495E1,-4.426721931E-1,-7.440482140E0,1.768594980E0
2.444579912E1,-8.255237937E-1,-7.914559841E0,-1.444367528E0
2.446709323E1,5.916253924E-1,-8.767003059E0,-4.360321045E0
2.448838734E1,2.004287958E0,-8.117949486E0,-2.830410004E0
2.450968151E1,2.042573214E0,-6.705586433E0,1.190429255E-1
2.453097562E1,2.329711914E0,-6.224329948E0,8.730811477E-1
2.455226974E1,2.636292458E0,-6.276971817E0,2.529811859E0
2.457356391E1,2.564507723E0,-8.077271461E0,5.385944843E0
2.459485802E1,8.647062778E-1,-1.108923721E1,8.699405670E0
2.461615219E1,-2.422433853E0,-1.326072407E1,9.645169258E0
2.463744630E1,-4.934000492E0,-1.052901745E1,7.569395542E0
2.465874042E1,-1.311565876E0,-6.068796635E0,3.837190151E0
2.468003458E1,1.237986565E0,-4.960321426E0,3.705884218E-1
2.470132870E1,2.751147747E0,-9.561718941E0,-1.525723577E0
2.472262281E1,-1.498505235E0,-1.689243126E1,1.225125194E0
2.474391698E1,-7.393822074E-1,-2.280599213E1,-1.851147413E0
2.476521109E1,-6.191428751E-2,-1.799372673E1,-1.386939883E0
2.478650521E1,-2.111366987E0,-3.971487284E0,1.938485503E0
2.480779938E1,1.745564103E0,-4.689932466E-1,9.867701530E0
2.482909349E1,2.135893345E0,-3.906881094E0,-3.507878065E0
2.485038760E1,3.579363585E0,-8.577671051E0,-6.222834587E0
2.487168177E1,4.858027935E0,-1.348086357E1,-2.267797709E0
2.489297589E1,3.627519131E0,-1.306899929E1,-2.569293380E-1
2.491427000E1,6.275177598E-1,-1.121844959E1,2.003091574E0
2.493556417E1,-1.345065475E0,-9.640682220E0,2.005484581E0
2.495685828E1,-1.215852976E0,-6.980761051E0,2.290529490E0
2.497815240E1,-9.813563824E-1,-6.494719028E0,-3.522234917E0
2.499944651E1,-6.556333899E-1,-8.393424034E0,-7.091727853E-1
2.502074068E1,1.893320978E-1,-1.055055332E1,3.130709410E0
2.504203479E1,8.192426562E-1,-1.038514900E1,3.956831455E0
2.506332891E1,9.293124676E-1,-1.018654537E1,2.288136721E0
2.508462307E1,-5.000999570E-1,-9.609575272E0,1.525424421E-1
2.510591719E1,-1.024427176E0,-8.807681084E0,2.889333367E-1
2.512721130E1,-3.083750308E-1,-9.434899330E0,4.447658956E-1
2.514850542E1,2.685943544E-1,-9.959226608E0,-7.283154130E-1
2.516979958E1,3.619144261E-1,-1.076112175E1,-7.956135273E-2
2.519109370E1,-1.833500385E0,-1.136680508E1,2.089532375E0
2.521238781E1,-3.521337509E0,-1.196770287E1,1.021735311E0
2.523368193E1,-4.421637058E0,-1.169013500E1,1.768594980E0
2.525497609E1,-4.364209175E0,-1.315035534E1,1.782951951E0
2.527627021E1,-3.298804998E0,-1.570738506E1,-9.391828626E-2
2.529756354E1,4.408775866E-1,-1.306421375E1,7.313363075E0
2.531885844E1,2.449352980E0,-1.166620636E1,1.076560783E1
2.534015255E1,2.415853500E0,-1.081376362E1,4.531407833E0
2.536144672E1,2.035394669E0,-9.937691689E0,-2.167299032E0
2.538274083E1,1.680957913E0,-1.044766140E1,-3.601497173E0
2.540403495E1,1.817348838E0,-1.269302654E1,-6.756733060E-1
2.542532906E1,1.489532113E0,-1.440987682E1,6.238387585E0
2.544662318E1,1.309771299E0,-1.296610737E1,4.459623337E0
2.546791734E1,7.953144312E-1,-9.772287369E0,-5.033900738E-1
2.548921146E1,1.432104349E0,-7.495516777E0,-2.095514536E0
2.551050557E1,3.403790295E-1,-6.288936138E0,-2.011765718E0
2.553179969E1,1.175474152E-1,-6.538088799E0,-3.741776347E-1
2.555309380E1,8.264211416E-1,-7.701598644E0,1.739881158E0
2.557438792E1,8.312067389E-1,-8.079665184E0,1.854736686E0
2.559568203E1,8.814560175E-1,-7.404589653E0,-2.665006220E-1
2.561697615E1,1.757528186E0,-5.855535984E0,-1.449153185E0
2.563827031E1,2.279462576E0,-3.914059639E0,1.136590727E-2
2.565956443E1,2.889931440E0,-3.748954773E0,2.790928602E0
2.568085854E1,2.909074068E0,-6.662515640E0,6.951747894E0
2.570215266E1,1.899003863E0,-1.172602749E1,1.113918781E1
2.572344677E1,5.533402413E-2,-1.601366615E1,1.371266842E1
2.574474089E1,2.231307179E-1,-1.063430214E1,8.261519432E0
2.576603500E1,1.685743570E0,-2.956332445E0,3.662214994E0
2.578732912E1,9.939187169E-1,-1.847857237E0,1.919342875E0
2.580862323E1,1.503889084E0,-5.735895157E0,5.486742496E0
2.582991734E1,-3.614657640E0,-1.385204983E1,-4.487140656E0
2.585121146E1,2.231606245E0,-2.882214737E1,-3.225524902E0
2.587250557E1,2.978466034E0,-2.073500443E1,-7.407879829E0
2.589379969E1,-7.202396393E-1,-5.477469921E0,1.531705618E0
2.591509380E1,-2.113759756E0,-3.198306561E0,-3.558127165E0
2.593638792E1,1.001097202E0,-7.797311783E0,-2.744268417E0
2.595768203E1,3.967299938E0,-1.294935799E1,-5.057829022E-1
2.597897615E1,2.399103880E0,-1.095972633E1,3.439682484E0
2.600027026E1,2.552543640E0,-1.003579712E1,6.824928284E0
2.602156438E1,1.755135417E0,-9.068498611E0,-5.368895531E-1
2.604285849E1,7.929216027E-1,-7.833203793E0,-3.486342669E0
2.606415260E1,5.318048596E-1,-7.165307522E0,-3.187239647E0
2.608544672E1,-2.126621157E-1,-7.663313389E0,1.313659668E0
2.610674083E1,4.097708687E-2,-1.003101158E1,5.855237007E0
2.612803490E1,-7.537391186E-1,-1.063908768E1,3.174079180E0
2.614932901E1,-8.470591903E-1,-1.044257736E1,1.373480201E0
2.617062313E1,-1.704287887E0,-9.887442589E0,1.325623751E0
2.619191724E1,-1.936391711E0,-9.533005714E0,9.571290612E-1
2.621321136E1,-2.209472656E0,-9.168996811E0,5.835496187E-1
2.623450547E1,-2.683550596E0,-9.566504478E0,4.187439568E-3
2.625579958E1,-2.855833769E0,-1.125912762E1,8.706883192E-1
2.627709370E1,-2.384148598E0,-1.348804188E1,1.581954837E0
2.629838776E1,-2.755335331E0,-1.245374489E1,2.388635159E0
2.631968188E1,-2.901297569E0,-1.154387379E1,3.288934708E0
2.634097599E1,-2.616551638E0,-1.173799133E1,4.148257256E0
2.636227010E1,-2.989831924E0,-1.215224934E1,3.487539053E0
2.638356422E1,-2.424826622E0,-1.331097317E1,4.933701038E0
2.640485828E1,-2.341975123E-1,-1.219771290E1,6.233602047E0
2.642615240E1,9.532406926E-1,-1.192941761E1,1.742274046E0
2.644744651E1,1.755135417E0,-1.208973598E1,-1.896611094E0
2.646874063E1,2.619542599E0,-1.402672672E1,-1.425225019E0
2.649003469E1,3.378366470E0,-1.542712593E1,2.963211775E0
2.651132880E1,2.028216362E0,-1.294696522E1,4.682155609E0
2.653262292E1,2.255235314E-1,-9.552147865E0,1.069591761E0
2.655391703E1,2.877369225E-1,-8.163414001E0,-1.901396751E0
2.657521109E1,2.350948304E-1,-7.160521984E0,-1.829612017E0
2.659650521E1,5.413761139E-1,-6.334399700E0,2.075773627E-1
2.661779932E1,1.013061285E0,-6.193223000E0,1.227517962E0
2.663909339E1,3.379862010E-1,-6.559624195E0,4.423730969E-1
2.666038750E1,-2.006980032E-1,-6.832406044E0,-2.684448004E0
2.668168156E1,-1.169492081E-1,-6.619444847E0,-3.495913982E0
2.670297568E1,2.358425856E0,-6.109474182E0,-9.343972206E-1
2.672426979E1,4.082155228E0,-5.161318302E0,3.298506021E0
2.674556386E1,3.498007536E0,-6.090332031E0,7.227221489E0
2.676685797E1,1.055833027E-1,-9.808179855E0,8.747262001E0
2.678815208E1,-1.045962572E0,-1.400519085E1,1.053829002E1
2.680944615E1,-1.809572101E0,-1.197248840E1,1.243669605E1
2.683074026E1,-4.755735025E-2,-6.626623154E0,8.172685623E0
2.685203432E1,3.251546860E0,-4.392923355E0,3.336791277E0
2.687332844E1,2.801397085E0,-5.302495003E0,-6.182455420E-1
2.689462255E1,3.143869877E0,-1.613839149E1,-4.741078854E0
2.691591662E1,5.068596363E0,-2.538904381E1,1.847558141E0
2.693721073E1,4.073780477E-1,-1.565235043E1,-4.575675011E0
2.695850479E1,-4.421637058E0,-2.970689297E0,9.308080077E-1
2.697979891E1,-1.517647743E0,-4.117449760E0,-2.739482880E0
2.700109297E1,1.237986565E0,-7.208378315E0,-1.642971873E0
2.702238708E1,3.543471336E0,-1.171406364E1,-7.450651526E-1
2.704368115E1,2.837289333E0,-1.215224934E1,-9.439685345E-1
2.706497526E1,4.863412082E-1,-1.065105152E1,1.957628012E0
2.708626932E1,-2.051546335E0,-1.106770229E1,3.803690672E0
2.710756344E1,-2.443969250E0,-9.228817940E0,2.197209358E0
2.712885750E1,-6.221339107E-1,-7.780561924E0,-2.353939265E-1
2.715015156E1,6.251249313E-1,-7.127022266E0,4.256233275E-1
2.717144568E1,8.479565382E-1,-8.570492744E0,1.912164450E0
2.719273974E1,5.222335458E-1,-1.045723343E1,1.593919039E0
2.721403386E1,-1.049850956E-1,-1.062473106E1,1.284945726E0
2.723532792E1,-1.000499010E0,-1.018175983E1,1.577169180E0
2.725662198E1,-1.160818100E0,-9.793823242E0,8.682954907E-1
2.727791609E1,-1.014855862E0,-8.608778000E0,1.383051515E0
2.729921016E1,-2.054836452E-1,-8.161020279E0,1.692024708E0
2.732050427E1,8.599206209E-1,-1.006211853E1,-7.716853172E-2
2.734179833E1,1.235593796E0,-1.303549957E1,-1.983051777E0
2.736309240E1,-1.294816136E0,-1.255185032E1,2.357528448E0
2.738438651E1,-4.459922314E0,-1.102223873E1,3.279363394E0
2.740568057E1,-4.412065983E0,-1.117777157E1,2.714358091E0
2.742697464E1,-3.428017616E0,-1.230778217E1,4.765904427E0
2.744826870E1,-3.521337509E0,-1.495334721E1,2.934497833E0
2.746956281E1,-1.965105653E0,-1.310010624E1,5.711667538E0
2.749085688E1,1.281057477E0,-1.165663528E1,5.795416355E0
2.751215094E1,1.467996716E0,-1.143380356E1,1.881057739E0
2.753344505E1,1.824527264E0,-1.191027451E1,-1.904088616E0
2.755473912E1,2.229213476E0,-1.314796257E1,-7.402794957E-1
2.757603318E1,1.597209096E0,-1.286800194E1,1.672882080E0
2.759732724E1,1.226321608E-2,-1.019133091E1,1.253839016E0
2.761862130E1,1.869392693E-1,-8.767003059E0,-1.473081470E0
2.763991542E1,8.216354847E-1,-8.156234741E0,-5.383851007E-3
2.766120948E1,7.351947427E-1,-7.605587006E0,1.505384564E0
2.768250354E1,1.118345499E0,-7.337590694E0,9.332008362E-1
2.770379761E1,9.293124676E-1,-7.552944660E0,1.956132501E-1
2.772509167E1,6.394818425E-1,-7.854739666E0,2.003988922E-1
2.774638573E1,4.336991012E-1,-7.759026527E0,-1.561316848E-1
2.776767984E1,4.959124923E-1,-7.567301750E0,-3.574278951E-1
2.778897391E1,7.929216027E-1,-7.095915318E0,-2.688934505E-1
2.781026797E1,1.647458434E0,-6.511468410E0,1.615155302E-2
2.783156203E1,2.226820469E0,-6.705586433E0,1.833201289E0
2.785285609E1,2.454138756E0,-8.498707771E0,6.448956013E0
2.787415016E1,1.511067510E0,-1.244656563E1,1.357867050E1
2.789544422E1,-2.626122952E0,-1.145055389E1,1.082542896E1
2.791673828E1,-2.820539773E-1,-7.115057945E0,5.453242779E0
2.793803234E1,3.287439108E0,-5.058426857E0,2.642573595E0
2.795932641E1,4.683053017E0,-6.621837616E0,1.268195987E0
2.798062047E1,3.689732552E0,-1.434975719E1,3.784548044E0
2.800191453E1,-8.823533356E-2,-2.437628174E1,-2.727518797E0
2.802320859E1,-6.269195080E-1,-1.967199326E1,-6.012266159E0
2.804450266E1,-1.079462171E0,-6.274579048E0,-3.342773199E0
2.806579672E1,-1.719841212E-1,-1.407278776E0,-2.028515339E0
2.808709078E1,1.451246977E0,-2.441576481E0,-5.584250093E-1
2.810838484E1,3.850051641E0,-9.341579437E0,-5.775675774E-1
2.812967891E1,5.729314804E0,-1.552074528E1,1.385444283E0
2.815097297E1,2.248355865E0,-1.174277687E1,5.927021503E0
2.817226703E1,-3.299104273E-1,-1.106291676E1,1.296909928E0
2.819356109E1,-9.909276962E-1,-9.061320305E0,-1.810469389E0
2.821485516E1,-6.197410822E-1,-7.107879639E0,-2.859123945E0
2.823614922E1,-4.426721931E-1,-6.114260197E0,-1.343868971E0
2.825744328E1,4.815555513E-1,-8.912964821E0,3.944867134E0
2.827873734E1,6.346961856E-1,-1.154626656E1,7.124330521E0
2.830003141E1,-8.105687052E-2,-1.032532883E1,2.711965322E0
2.832132542E1,-1.215852976E0,-9.204889297E0,-2.155334949E0
2.834261948E1,-1.603789330E0,-9.750752449E0,-1.068395257E0
2.836391354E1,-6.915257573E-1,-1.015065289E1,2.448455811E0
2.838520760E1,1.749751568E-1,-1.041147041E1,1.660917997E0
2.840650167E1,-5.072783828E-1,-1.063430214E1,-2.712862790E-1
2.842779573E1,-7.393822074E-1,-1.038275623E1,1.246660590E0
2.844908974E1,-1.620539188E0,-1.069651508E1,1.186840057E0
2.847038380E1,-3.193521023E0,-1.051226807E1,2.340778828E0
2.849167787E1,-2.918047190E0,-1.126869869E1,3.279363394E0
2.851297193E1,-2.910868645E0,-1.428275871E1,2.635395050E0
2.853426599E1,-3.119044304E0,-1.516152287E1,1.751845241E0
2.855556000E1,-1.081854939E0,-1.091904831E1,8.670691490E0
2.857685406E1,1.307378531E0,-1.123280716E1,6.489634037E0
2.859814812E1,1.891526341E0,-1.153190994E1,1.241874933E0
2.861944219E1,2.164607286E0,-1.246331596E1,-2.605484724E0
2.864073620E1,1.999502420E0,-1.310967731E1,-1.705185294E0
2.866203026E1,8.814560175E-1,-1.281775284E1,1.974377751E0
2.868332432E1,-5.144568682E-1,-1.126152039E1,1.962413669E0
2.870461833E1,-1.127318621E0,-9.267103195E0,1.766202211E0
2.872591240E1,-6.245267391E-1,-8.096414566E0,1.155733347E0
2.874720646E1,2.303091735E-1,-7.337590694E0,-1.609173268E-1
2.876850047E1,3.332005441E-1,-6.674479485E0,4.734797776E-1
2.878979453E1,2.829512656E-1,-6.992724895E0,4.112663865E-1
2.881108859E1,4.815555513E-1,-7.775776386E0,-6.134598851E-1
2.883238261E1,1.295414329E0,-7.694420338E0,-1.245464206E0
2.885367667E1,1.276271820E0,-6.463612080E0,-1.197607756E0
2.887497073E1,2.052144527E0,-5.740680695E0,3.562314808E-1
2.889626474E1,2.578864574E0,-6.305685997E0,2.431705952E0
2.891755880E1,2.820539713E0,-8.302495956E0,5.481956482E0
2.893885281E1,9.867402315E-1,-1.111555862E1,7.586144924E0
2.896014688E1,-9.909276962E-1,-1.221206951E1,8.927022934E0
2.898144089E1,-2.903690338E0,-9.626325607E0,7.868797302E0
2.900273495E1,-1.464706540E0,-6.355935097E0,5.400600910E0
2.902402896E1,2.877369225E-1,-5.735895157E0,3.020639420E0
2.904532302E1,1.151844978E0,-7.897810459E0,3.346362352E0
2.906661703E1,-9.239286184E-1,-8.848359108E0,5.046164036E0
2.908791109E1,-5.266602516E0,-6.530910492E0,3.631108284E0
2.910920510E1,-2.137687922E0,-7.440482140E0,-5.440082073E0
2.913049917E1,6.545865536E0,-1.996391678E1,-3.328416348E0
2.915179318E1,9.071489334E0,-3.046930695E1,9.676275253E0
2.917308724E1,-1.977069736E0,-1.176431274E1,3.205185890E0
2.919438125E1,-1.680359721E0,-2.884547710E0,-6.275476456E0
2.921567531E1,1.374676585E0,-3.346661568E0,-7.657032490E0
2.923696932E1,3.881158352E0,-6.932904720E0,-4.796113968E0
2.925826339E1,5.937789440E0,-1.268824100E1,-2.018944025E0
2.927955740E1,2.724826813E0,-1.154626656E1,7.380362511E0
2.930085141E1,-8.183453679E-1,-1.052423191E1,7.461718082E0
2.932214547E1,-1.811964989E0,-9.841679573E0,9.164510965E-1
2.934343948E1,-1.139282703E0,-7.485945702E0,-2.928515911E0
2.936473354E1,-7.465606928E-1,-7.078866482E0,-3.175275564E0
2.938602755E1,-6.317051649E-1,-8.659027100E0,-6.373881102E-1
2.940732156E1,-7.920243144E-1,-1.028943634E1,4.078865528E0
2.942861563E1,-9.574281573E-1,-1.000469017E1,5.742774487E0
2.944990964E1,-2.389831543E-1,-1.000469017E1,2.527418852E0
2.947120365E1,-3.852444589E-1,-1.006690407E1,2.333002165E-2
2.949249771E1,-8.159525394E-1,-9.779465675E0,-4.316053987E-1
2.951379172E1,-1.776072621E0,-9.662218094E0,8.539385796E-1
2.953508573E1,-2.097009897E0,-1.020329475E1,9.667003751E-1
2.955637979E1,-2.240579367E0,-1.159681511E1,5.069792867E-1
2.957767380E1,-1.031605721E0,-1.249920845E1,-6.684948206E-1
2.959896781E1,-6.293123364E-1,-1.164227867E1,7.127620578E-1
2.962026182E1,-5.718846321E-1,-1.148644638E1,3.367897987E0
2.964155589E1,-9.454640746E-1,-1.125194931E1,4.991128922E0
2.966284990E1,-1.704287887E0,-1.107727337E1,4.454837322E0
2.968414391E1,-3.121437073E0,-1.328465176E1,2.673680305E0
2.970543792E1,-2.760120869E0,-1.314078331E1,3.494717360E0
2.972673198E1,-1.165603757E0,-1.191745281E1,3.327219963E0
2.974802599E1,5.533402562E-1,-1.283689499E1,5.811567903E-1
2.976932000E1,1.546959877E0,-1.412722492E1,-9.200403094E-1
2.979061212E1,2.734398127E0,-1.507777405E1,-9.320043921E-1
2.981190612E1,7.785646915E-1,-1.090708351E1,3.442673683E-1
2.983320019E1,-7.369893789E-1,-8.168199539E0,1.837986946E0
2.985449420E1,-1.012463093E0,-7.646564007E0,1.405783296E-1
2.987578821E1,7.351947427E-1,-8.496315002E0,-9.176474810E-1
2.989708222E1,1.966002941E0,-8.515457153E0,1.046859920E-1
2.991837623E1,1.230808139E0,-7.900203228E0,3.296113312E-1
2.993967024E1,5.030909777E-1,-7.512266636E0,6.337988973E-1
2.996096425E1,7.639086246E-1,-8.082057953E0,-2.267797709E0
2.998225826E1,1.716850281E0,-7.778169155E0,-3.206382275E0
3.000355232E1,1.463211060E0,-5.891428471E0,-2.976073027E-1
3.002484633E1,1.755135417E0,-4.787738800E0,6.960122585E-1
3.004614034E1,1.709671736E0,-4.529314041E0,2.134995937E0
3.006743435E1,1.324128270E0,-6.332006931E0,4.672584534E0
3.008872836E1,-3.394817114E-1,-1.032772160E1,8.165507317E0
3.011002238E1,-1.809572101E0,-1.349282742E1,1.043270683E1
3.013131639E1,-3.463909864E0,-1.389033508E1,9.791131020E0
3.015261040E1,-3.229413271E0,-8.587242126E0,7.758727551E0
3.017390441E1,-1.443171144E0,-5.905785561E0,3.964009762E0
3.019519842E1,-3.155534863E-1,-7.615158081E0,1.117448211E0
3.021649243E1,3.930211067E-1,-1.526680660E1,-1.695613980E0
3.023778644E1,3.220440149E0,-2.338774681E1,-5.152644634E0
3.025908045E1,9.388837814E-1,-1.498923969E1,-2.375474691E0
3.028037498E1,4.671986103E-1,-4.749454021E0,1.040877819E0
3.030166899E1,1.668993831E0,-2.683550596E0,3.403790236E0
3.032296300E1,3.562613726E0,-7.488338470E0,-6.632306099E0
3.034425701E1,4.936991215E0,-9.712467194E0,-4.200001717E0
3.036555102E1,4.977669239E0,-1.112034416E1,-2.447259426E0
3.038684498E1,3.103191853E0,-1.073001480E1,-3.933202326E-1
3.040813899E1,3.619144261E-1,-9.772287369E0,7.670193195E0
3.042943300E1,-1.041176915E0,-9.805787086E0,1.952842355E0
3.045072701E1,-8.877372146E-1,-8.065307617E0,-2.516950369E0
3.047202102E1,-5.216353536E-1,-7.617550850E0,-3.522234917E0
3.049331503E1,-8.231309652E-1,-8.462815285E0,-1.324427366E0
3.051460904E1,-1.364207983E0,-9.202496529E0,2.374278307E0
3.053590305E1,-7.274180651E-1,-1.038993549E1,4.976771832E0
3.055719701E1,1.226321608E-2,-1.046201897E1,3.743870020E0
3.057849102E1,-6.909275055E-2,-9.944869995E0,4.112663865E-1
3.059978503E1,-2.270190418E-1,-1.017936707E1,-1.161715388E0
3.062107904E1,-7.824530005E-1,-1.021286583E1,8.730811477E-1
3.064237305E1,-7.609176040E-1,-1.013150978E1,3.499503136E0
3.066366706E1,-2.602194622E-2,-1.078504944E1,7.701897621E-1
3.068496102E1,-5.216353536E-1,-1.162313557E1,-1.073180914E0
3.070625503E1,-1.012463093E0,-1.198205948E1,6.400800496E-2
3.072754904E1,-9.957132936E-1,-1.149362469E1,4.339982033E0
3.074884305E1,6.442674994E-1,-1.116820049E1,5.994319916E0
3.077013706E1,-1.108175993E0,-1.123280716E1,9.834501147E-1
3.079143102E1,-2.688336134E0,-1.215224934E1,1.952842355E0
3.081272503E1,-8.877372146E-1,-1.203470135E1,5.156233788E0
3.083401904E1,8.359923959E-1,-1.268584824E1,5.110770226E0
3.085531305E1,1.451246977E0,-1.313839054E1,-1.130608693E-1
3.087660701E1,2.339283228E0,-1.284168053E1,-3.371487141E0
3.089790102E1,6.442674994E-1,-1.148165989E1,-1.776969910E0
3.091919503E1,-1.673181176E0,-1.040907764E1,-3.502494097E-1
3.094048899E1,-1.766501307E0,-1.006451130E1,1.720738530E0
3.096178300E1,-1.121635586E-1,-1.047876835E1,8.371888399E-1
3.098307701E1,-3.798605874E-2,-9.638289452E0,1.615454435E0
3.100437097E1,-6.795616150E-1,-7.732705593E0,1.974377751E0
3.102566498E1,-1.486541033E0,-6.995117664E0,1.129412293E0
3.104695899E1,-5.144568682E-1,-7.526623726E0,-1.755434513E0
3.106825295E1,9.364909530E-1,-7.615158081E0,-4.527818680E0
3.108954696E1,1.817348838E0,-6.427719593E0,-1.913659930E0
3.111084092E1,2.339283228E0,-6.288936138E0,6.002993584E-1
3.113213493E1,1.697707653E0,-5.843572140E0,1.727917075E0
3.115342894E1,1.353141189E0,-6.353542328E0,3.116352320E0
3.117472290E1,8.120641708E-1,-8.999106407E0,5.989534378E0
3.119601691E1,-2.868396044E-1,-1.417508125E1,8.766703606E0
3.121731086E1,-2.137687922E0,-1.486212063E1,1.088764191E1
3.123860487E1,-2.934797049E0,-7.739883900E0,8.285447121E0
3.125989883E1,-3.442673683E-1,-3.176771164E0,2.860320330E0
3.128119284E1,4.767699242E-1,-5.740680695E0,5.620142221E-1
3.130248680E1,-2.008176327E0,-1.236042404E1,4.109972000E0
3.132378081E1,5.006981492E-1,-2.401735878E1,-4.029812336E0
3.134507482E1,3.280260801E0,-2.138854408E1,-1.501795292E0
3.136636878E1,-1.074676514E0,-6.676872253E0,-1.142572761E0
3.138766279E1,-7.680960894E-1,-1.671984792E-1,3.945166469E-1
3.140895675E1,2.574079037E0,-4.138985157E0,-4.458426952E0
3.143025071E1,5.284249783E0,-9.525827408E0,-3.800101519E0
3.145154472E1,6.198606968E0,-1.190548897E1,-2.744268417E0
3.147283868E1,3.905086517E0,-1.048833942E1,2.554338276E-1
3.149413269E1,8.599206209E-1,-9.466006279E0,8.651549339E0
3.151542664E1,-2.318046987E-1,-9.856036186E0,1.991127491E0
3.153672066E1,-2.222333997E-1,-9.015856743E0,-1.714756489E0
3.155801461E1,-1.241276711E-1,-8.465208054E0,-3.723531246E0
3.157930862E1,-7.896314859E-1,-8.663812637E0,-2.339582443E0
3.160060258E1,-1.354636669E0,-9.693324089E0,1.914557219E0
3.162189659E1,-9.358927608E-1,-9.801001549E0,5.122734070E0
3.164319055E1,-3.080759197E-2,-9.446864128E0,3.224328518E0
3.166448451E1,5.748756528E-1,-9.346364975E0,5.309075117E-1
3.168577852E1,-1.073779166E-1,-9.226425171E0,-4.196412563E-1
3.170707248E1,-1.002891779E0,-9.774680138E0,-5.201398134E-1
3.172836649E1,-1.563111424E0,-1.056730270E1,3.562314808E-1
3.174966045E1,-1.196710467E0,-1.119212914E1,1.627418518E0
3.177095441E1,-2.581257522E-1,-1.233649635E1,9.643075466E-1
3.179224842E1,-3.780659735E-1,-1.318864059E1,4.902295470E-1
3.181354237E1,-1.826321840E0,-1.261406326E1,3.655036688E0
3.183483639E1,-1.404886007E0,-1.208016491E1,4.485944271E0
3.185613034E1,-1.462313771E0,-1.138834000E1,2.436491728E0
3.187742430E1,-1.749751568E0,-1.225992584E1,3.763012648E0
3.189871831E1,3.858426511E-1,-1.121844959E1,9.973284721E0
3.192001227E1,9.747761488E-1,-1.194855976E1,5.019842625E0
3.194130623E1,2.303091735E-1,-1.128066349E1,-1.841576099E0
3.196260024E1,3.714857101E-1,-1.151515961E1,-4.259822369E0
3.198389420E1,1.178166032E0,-1.253270817E1,-3.512663603E0
3.200518816E1,-9.358927608E-1,-1.248245811E1,2.769393206E0
3.202648217E1,-1.620539188E0,-1.145055389E1,2.580060959E0
3.204777612E1,-1.445564032E0,-1.066540909E1,-5.703890920E-1
3.206907008E1,-5.862415433E-1,-9.588040352E0,1.842772484E0
3.209036409E1,1.226321608E-2,-8.781359673E0,1.694417477E0
3.211165805E1,1.845464408E-1,-7.624729156E0,2.315055877E-1
3.213295201E1,6.346961856E-1,-7.402196884E0,3.056831062E-1
3.215424602E1,1.214058399E0,-7.344769001E0,-2.114656925E0
3.217553998E1,2.367997169E0,-6.437291145E0,-3.165704250E0
3.219683394E1,2.367997169E0,-4.838287354E0,-4.818546474E-1
3.221812795E1,2.734398127E0,-4.517350197E0,8.371888399E-1
3.223942191E1,1.496710539E0,-5.755037785E0,3.178864956E0
3.226071586E1,-3.948157430E-1,-8.977571487E0,7.117151737E0
3.228200982E1,-3.514159203E0,-1.421815205E1,1.284377480E1
3.230330383E1,-2.132902384E0,-1.426361561E1,9.458528519E0
3.232459779E1,4.486841679E0,-1.005254745E1,8.328517914E0
3.234589175E1,6.088537216E0,-3.727419376E0,5.898307800E0
3.236718576E1,3.016751051E0,-1.536790371E0,9.017950296E-1
3.238847972E1,4.424628258E0,-1.556860161E1,-3.867100477E0
3.240977368E1,3.273082256E0,-2.603540611E1,-1.612014771E1
3.243106769E1,-3.241377354E0,-1.071805096E1,-5.047360420E0
3.245236164E1,-2.988037169E-1,-5.910571098E0,-3.304488182E0
3.247365560E1,3.260220885E-1,-7.375875950E0,2.676073074E0
3.249494956E1,5.102694035E-1,-1.101266670E1,4.818546772E0
3.251624357E1,4.025924206E-1,-9.149854660E0,5.034199715E0
3.253753753E1,1.020239711E0,-9.159425735E0,2.558525562E0
3.255883149E1,1.293021560E0,-1.009083176E1,-4.962115884E-1
3.258012550E1,7.160521746E-1,-9.034998894E0,-1.456331730E0
3.260141946E1,4.935196638E-1,-7.634300709E0,-2.957229614E0
3.262271342E1,6.251249462E-2,-8.257032394E0,-1.338784218E0
3.264400743E1,-4.546363056E-1,-1.050748253E1,2.692822695E0
3.266530138E1,-7.130611539E-1,-1.107727337E1,3.217149973E0
3.268659534E1,-9.526425004E-1,-1.104855919E1,2.235494614E0
3.270788935E1,-6.484549642E-1,-1.038275623E1,1.742274046E0
3.272918331E1,4.576273263E-2,-9.121140480E0,1.852343798E0
3.275047727E1,4.360919297E-1,-7.833203793E0,2.187638044E0
3.277177128E1,2.973082066E-1,-8.091629028E0,1.543669701E0
3.279306524E1,-6.029912829E-1,-1.109641552E1,2.175673962E0
3.281435920E1,-2.640479803E0,-1.130219841E1,2.474776745E0
3.283565321E1,-3.741776466E0,-1.079940701E1,1.754238129E0
3.285694717E1,-3.471088409E0,-1.282493114E1,3.810869217E0
3.287824112E1,-3.200699329E0,-1.508973789E1,6.936194897E-1
3.289953514E1,-1.285244823E0,-1.330140209E1,2.216351986E0
3.292082909E1,5.892325640E-1,-1.285125256E1,6.312565327E0
3.294212305E1,1.511067510E0,-1.330858040E1,1.617847204E0
3.296341706E1,2.243570328E0,-1.315035534E1,-1.427617788E0
3.298471102E1,2.222034931E0,-1.260927773E1,-1.149751306E0
3.300600498E1,1.807777524E0,-1.123759270E1,1.062413216E0
3.302729899E1,1.597209096E0,-9.978369713E0,2.209173441E0
3.304859295E1,1.293021560E0,-9.293423653E0,9.284151793E-1
3.306988691E1,9.867402315E-1,-8.453244209E0,-1.003789067E0
3.309118092E1,5.102694035E-1,-7.471588612E0,-1.250249892E-1
3.311247487E1,-1.695913076E-1,-6.820441723E0,2.769692242E-1
3.313376883E1,-2.123630047E-2,-7.146164894E0,6.879365444E-2
3.315506284E1,1.989033818E-1,-7.869096279E0,-2.832503915E-1
3.317635680E1,3.379862010E-2,-8.245068550E0,-4.196412563E-1
3.319765076E1,1.513460279E0,-7.735098362E0,-1.106680483E-1
3.321894477E1,2.600399971E0,-5.987440586E0,-1.010967568E-1
3.324023873E1,3.151048422E0,-5.441577911E0,6.744768620E-1
3.326153269E1,3.294617653E0,-6.739085674E0,4.184149265E0
3.328282670E1,1.211665511E0,-9.494720459E0,8.950951576E0
3.330412066E1,-1.692323804E0,-1.417029572E1,1.054546833E1
3.332541467E1,-4.141377926E0,-1.230778217E1,9.147162437E0
3.334670862E1,-1.179960608E0,-6.477969170E0,6.508776665E0
3.336800258E1,1.350748420E0,-2.781656265E0,4.502694130E0
3.338929659E1,6.921239495E-1,-3.983451605E0,4.304089844E-1
3.341059055E1,-8.685946465E-1,-1.414158154E1,-2.528914452E0
3.343188456E1,5.195415974E0,-2.748635292E1,-1.954337835E0
3.345317852E1,3.220440149E0,-1.759622002E1,-4.980361462E0
3.347447248E1,-5.712864175E-2,-2.992224693E0,8.143971443E0
3.349576649E1,2.901297510E-1,-4.062414646E0,-4.221537113E0
3.351706045E1,2.990430117E0,-8.022236824E0,-5.775077343E0
3.353835446E1,5.212165833E0,-1.252074337E1,-2.947658300E0
3.355964842E1,3.332902908E0,-1.076112175E1,-1.343868971E0
3.358094237E1,1.415354609E0,-8.393424034E0,2.862713099E0
3.360223639E1,-3.107678294E-1,-1.003579712E1,4.406980991E0
3.362353034E1,-5.910272002E-1,-9.702896118E0,1.847558141E0
3.364482435E1,7.926224917E-2,-7.821239948E0,-3.287738323E0
3.366611831E1,2.991028305E-4,-8.469993591E0,-1.781755567E0
3.368741232E1,-9.622138143E-1,-9.302995682E0,6.074778438E-1
3.370870628E1,-1.383350611E0,-9.753145218E0,3.099602699E0
3.373000024E1,-1.282852054E0,-9.628718376E0,4.066901207E0
3.375129425E1,-9.287142754E-1,-9.628718376E0,3.355933666E0
3.377258821E1,-5.575276613E-1,-9.801001549E0,4.447658956E-1
3.379388222E1,-4.163511395E-1,-1.010518932E1,-6.254240274E-1
3.381517618E1,-4.737788737E-1,-9.860821724E0,2.120639086E0
3.383647019E1,7.447660714E-2,-1.130698395E1,2.254637241E0
3.385776415E1,-1.146461129E0,-1.229342556E1,-1.178465188E-1
3.387905816E1,-3.085544825E0,-1.196052361E1,-2.928216755E-1
3.390035211E1,-3.157628536E0,-1.094058323E1,8.324031830E-1
3.392164612E1,-9.068797827E-1,-1.047159004E1,4.473979950E0
3.394294008E1,-5.712864175E-2,-1.109880829E1,4.672584534E0
3.396423409E1,-1.632503271E0,-1.303310680E1,2.328814745E0
3.398552805E1,-1.103390336E0,-1.291346550E1,5.730810165E0
3.400682206E1,1.677966863E-1,-1.304985619E1,5.565705299E0
3.402811602E1,9.723833203E-1,-1.338275814E1,-3.861417472E-1
3.404941003E1,1.544566989E0,-1.391665649E1,-3.115455151E0
3.407070399E1,1.925324917E0,-1.447448349E1,-1.159322619E0
3.409199800E1,7.304090858E-1,-1.368903923E1,2.747857809E0
3.411329196E1,-5.240281820E-1,-1.122084236E1,2.328814745E0
3.413458592E1,-6.077769399E-1,-8.793324471E0,-3.071786165E-1
3.415587993E1,6.562315822E-1,-7.699205875E0,-1.430010676E0
3.417717388E1,1.573280931E0,-7.026224613E0,-6.996015310E-1
3.419846790E1,1.180558920E0,-6.638587475E0,1.103091240E0
3.421976191E1,5.222335458E-1,-6.310471535E0,1.591526151E0
3.424105586E1,8.862416744E-1,-6.410970211E0,-1.609472275E0
3.426234987E1,2.109572172E0,-6.140581131E0,-3.587140322E0
3.428364383E1,2.078465462E0,-5.197210789E0,-1.690828323E0
3.430493784E1,2.308176517E0,-5.209175110E0,1.330409408E0
3.432623180E1,2.396710873E0,-6.040082455E0,4.481158733E0
3.434752581E1,6.011966988E-2,-8.405387878E0,9.417850494E0
3.436881977E1,-3.751347780E0,-1.264995575E1,1.223809147E1
3.439011378E1,-4.079164505E0,-1.383769321E1,1.090917778E1
3.441140779E1,5.054837838E-2,-1.072762203E1,9.300303459E0
3.443270175E1,2.834896564E0,-4.711168766E0,-5.584250093E-1
3.445399576E1,4.235595226E0,-2.305185556E0,1.668993831E-1
3.447528972E1,5.827719688E0,-6.655336857E0,1.386371517E1
3.449658373E1,-1.145563871E-1,-2.376581383E1,-1.287129211E1
3.451787769E1,2.562114954E0,-2.440499687E1,-1.515284824E1
3.453917170E1,-1.328315616E0,-6.841977119E0,1.878664851E0
3.456046571E1,-3.613162339E-1,-3.626621723E0,2.719143867E0
3.458175967E1,2.406282187E0,-9.286245346E0,-2.111666054E-1
3.460305368E1,3.526721478E0,-1.296610737E1,7.821539044E-1
3.462434764E1,1.917249113E-1,-1.043061256E1,1.981556296E0
3.464564165E1,-6.388836503E-1,-8.647063255E0,4.646263599E0
3.466693566E1,6.370890141E-1,-8.209176064E0,2.963211775E0
3.468822961E1,1.013061285E0,-8.110771179E0,-5.679962635E-1
3.470952362E1,1.015454054E0,-7.706384659E0,-3.005086184E0
3.473081764E1,8.623134494E-1,-7.869096279E0,-1.808076620E0
3.475211159E1,9.125627279E-1,-9.401400566E0,1.971984982E0
3.477340560E1,-1.610967875E0,-1.103898811E1,3.480360508E0
3.479469956E1,-1.795215130E0,-1.122802162E1,2.182852507E0
3.481599357E1,-1.280459166E0,-1.043539906E1,-1.609173268E-1
3.483728758E1,-9.717850685E-1,-9.870393753E0,-3.478565812E-1
3.485858154E1,-7.585247755E-1,-9.473184586E0,3.276970625E0
3.487987555E1,-1.122532964E0,-1.167577839E1,2.889034271E0
3.490116956E1,-2.168794632E0,-1.196531010E1,6.361917257E-1
3.492246352E1,-2.769692183E0,-1.117298603E1,1.122233868E0
3.494375753E1,-2.168794632E0,-1.093101215E1,1.198804140E0
3.496505154E1,-1.910070658E0,-9.884750366E0,2.833999395E0
3.498634550E1,-9.909276962E-1,-9.159425735E0,4.600799561E0
3.500763951E1,-3.394817114E-1,-8.752346992E0,5.354837894E0
3.502893352E1,-4.809573591E-1,-8.620741844E0,4.100400925E0
3.505022753E1,-3.142972469E0,-1.301157093E1,4.447658956E-1
3.507152149E1,-2.231008053E0,-1.397886944E1,8.554340899E-2
3.509281550E1,-4.402793646E-1,-1.527877045E1,-2.976073027E-1
3.511410951E1,2.363211393E0,-1.730908012E1,1.558026671E0
3.513540347E1,3.656233072E0,-1.727558136E1,4.076472282E0
3.515669748E1,1.645065546E0,-1.302114296E1,2.936890602E0
3.517799149E1,8.883354068E-2,-1.002622604E1,-2.330010980E-1
3.519928545E1,7.686942816E-2,-9.216854095E0,-2.437688112E0
3.522057946E1,5.318048596E-1,-8.812466621E0,-1.995015860E0
3.524187347E1,1.060917735E0,-7.849953651E0,-1.269392371E0
3.526316743E1,1.161416292E0,-7.251449108E0,1.629811287E0
3.528446144E1,1.412961721E0,-6.243472576E0,2.644966364E0
3.530575545E1,1.908575177E0,-5.711966991E0,-7.426723242E-1
3.532704946E1,2.432603359E0,-5.690431118E0,-4.322035789E0
3.534834342E1,1.771885157E0,-5.551647663E0,-2.627020121E0
3.536963743E1,9.819545746E-1,-5.704788208E0,6.840481758E-1
3.539093144E1,1.269093275E0,-6.942475796E0,4.275375843E0
3.541222545E1,-2.461616248E-1,-1.001426220E1,9.590133667E0
3.543351941E1,-3.394518137E0,-1.384247875E1,1.277438259E1
3.545481342E1,-6.595516682E0,-1.126391315E1,1.185733318E1
3.547610743E1,-2.558824778E0,-5.609075546E0,8.563014984E0
3.549740144E1,6.562315822E-1,-1.989033818E0,-9.942178130E-1
3.551869540E1,7.271189690E0,-6.434898376E0,-4.594817638E0
3.553998941E1,6.935895443E0,-2.143161583E1,5.436492920E0
3.556128342E1,3.359223843E0,-2.155125618E1,-1.092742252E1
3.558257737E1,-2.621337175E0,-8.666205406E0,-9.272187948E-1
3.560387139E1,-1.740180254E0,-7.483552933E0,-3.093919754E0
3.562516540E1,1.934896231E0,-1.102702427E1,-1.949552298E0
3.564645941E1,3.206083298E0,-1.271486092E1,8.793623000E-2
3.566775342E1,2.116750717E0,-1.060319519E1,3.113959551E0
3.568904737E1,1.113559842E0,-9.674181938E0,3.566502094E0
3.571034138E1,8.910273314E-1,-8.211568832E0,5.955137610E-1
3.573163540E1,1.137488008E0,-7.701598644E0,-2.322832584E0
3.575292941E1,1.316949725E0,-7.713562965E0,-2.801696301E0
3.577422336E1,1.281057477E0,-9.274281502E0,1.969592094E0
3.579551737E1,9.556335211E-1,-1.067737293E1,5.199304581E0
3.581681138E1,-4.283152521E-1,-9.542576790E0,1.474277854E0
3.583810540E1,-1.014855862E0,-9.358329773E0,-3.143570721E-1
3.585939935E1,-1.005284667E0,-9.734002113E0,5.596213937E-1
3.588069336E1,-8.877372146E-1,-9.844072342E0,1.265803218E0
3.590198737E1,-7.776673436E-1,-1.016740227E1,1.579562068E0
3.592328138E1,-1.572682738E0,-1.045005512E1,2.833999395E0
3.594457540E1,-2.384148598E0,-1.040668488E1,2.967997313E0
3.596586935E1,-3.044866800E0,-1.098604679E1,-4.124628007E-1
3.598716336E1,-2.910868645E0,-1.114666557E1,8.922237158E-1
3.600845737E1,-2.202294111E0,-1.073001480E1,5.048556805E0
3.602975139E1,-5.551348329E-1,-1.147687435E1,5.053342342E0
3.605104540E1,-1.187139153E0,-1.374646664E1,1.936092615E0
3.607233935E1,-1.599003673E0,-1.263081360E1,5.347659588E0
3.609363336E1,-1.036391258E0,-1.208734322E1,3.518645763E0
3.611492737E1,2.084746659E-1,-1.304028511E1,-8.195417374E-2
3.613622138E1,1.771885157E0,-1.407458305E1,-1.597508192E0
3.615751540E1,2.023430586E0,-1.419661713E1,6.640082598E-2
3.617880941E1,3.690928817E-1,-1.224556923E1,2.429313183E0
3.620010336E1,-1.105783105E0,-9.913763046E0,2.592324257E0
3.622139737E1,-1.141675472E0,-8.242675781E0,1.079162955E0
3.624269138E1,-1.097707376E-1,-7.619943619E0,-1.367797256E0
3.626398540E1,1.288235903E0,-7.916952610E0,-1.607079506E0
3.628527941E1,1.312164068E0,-8.297710419E0,-7.908278704E-1
3.630657336E1,4.863412082E-1,-8.304888725E0,4.471587241E-1
3.632786737E1,3.020938635E-1,-8.510671616E0,-1.202393398E-1
3.634916138E1,2.071287155E0,-8.321639061E0,-1.032503009E0
3.637045540E1,1.858026743E0,-6.437291145E0,-2.736790776E-1
3.639174941E1,1.118345499E0,-5.285745144E0,2.376671076E0
3.641304342E1,-4.486542661E-3,-6.116652966E0,6.034997940E0
3.643433737E1,-1.890928149E0,-9.049356461E0,9.408279419E0
3.645563139E1,-2.755335331E0,-1.243938732E1,9.013164520E0
3.647692540E1,5.988038778E-1,-1.035882854E1,6.887141705E0
3.649821941E1,3.263510942E0,-4.998606682E0,5.390730381E0
3.651951342E1,5.990431309E0,-1.534397483E0,5.452644825E-1
3.654080743E1,3.893122435E0,-1.024427176E0,-4.630710125E0
3.656210144E1,5.497210979E0,-2.278864384E0,9.939785004E0
3.658339540E1,3.179762125E0,-2.904019356E1,7.684549809E0
3.660468941E1,5.020740032E0,-3.468785095E1,-1.709940910E1
3.662598342E1,-2.582752943E0,-1.036122131E1,-5.590830326E0
3.664727743E1,-6.909275055E-2,-4.591527462E0,-4.420141697E0
3.666857144E1,-9.574281573E-1,-4.742275238E0,-2.358724833E0
3.668986545E1,1.101595759E0,-1.177149105E1,1.299302697E0
3.671115946E1,8.192426562E-1,-1.394537067E1,4.351946354E0
3.673245342E1,-9.358927608E-1,-1.067019463E1,8.958129883E0
3.675374743E1,-1.002891779E0,-9.475577354E0,5.781059742E0
3.677504144E1,-9.287142754E-1,-7.818847179E0,-2.234298140E-1
3.679633545E1,-1.038784146E0,-6.538088799E0,-4.314857483E0
3.681762946E1,-1.627717614E0,-6.513861656E0,-3.859921932E0
3.683892347E1,-1.294816136E0,-7.983952045E0,5.739783049E-1
3.686021748E1,-1.529611826E0,-1.051226807E1,3.008675337E0
3.688151149E1,-7.609176040E-1,-1.129262733E1,5.742774487E0
3.690280550E1,-4.833501875E-1,-1.010279655E1,2.939283609E0
3.692409946E1,-5.910272002E-1,-9.856036186E0,-2.172084808E0
3.694539347E1,-8.279166222E-1,-9.564111710E0,2.817548811E-1
3.696668748E1,-2.102692872E-1,-1.131176949E1,3.080460072E0
3.698798149E1,5.437689424E-1,-1.335882950E1,1.150947690E0
3.700927550E1,-1.193420291E-1,-1.239870930E1,6.337988973E-1
3.703056951E1,-3.564408541E0,-1.138116169E1,1.182054400E0
3.705186352E1,-3.904488325E0,-1.156301594E1,2.094317913E0
3.707315753E1,-1.649253011E0,-9.911370277E0,5.946164131E0
3.709445154E1,-1.639681697E0,-8.793324471E0,5.091627598E0
3.711574550E1,-3.191128016E0,-9.657432556E0,2.556132793E0
3.713703951E1,-3.966701746E0,-1.211366463E1,1.155733347E0
3.715833352E1,-2.085045815E0,-1.378714466E1,2.362912297E-1
3.717962753E1,3.523431420E-1,-1.547019672E1,7.007979155E-1
3.720092154E1,2.861217737E0,-1.732104492E1,2.300100803E0
3.722221555E1,2.956930637E0,-1.588206100E1,2.115853310E0
3.724350956E1,1.125523925E0,-1.210887909E1,2.979961395E0
3.726480357E1,-1.737787485E0,-9.185747147E0,1.299302697E0
3.728609758E1,-1.026820064E0,-8.038987160E0,-1.968096644E-1
3.730739159E1,1.161416292E0,-7.711170197E0,-1.358225942E0
3.732868560E1,1.496710539E0,-7.184450150E0,-8.530412912E-1
3.734997956E1,9.508479238E-1,-6.918547630E0,1.071984529E0
3.737127357E1,5.892325640E-1,-6.863512516E0,1.764706671E-1
3.739256758E1,1.357926846E0,-7.172485828E0,-2.823231697E0
3.741386159E1,2.791825771E0,-7.435696602E0,-4.020241261E0
3.743515560E1,2.167000055E0,-6.707979202E0,8.467600942E-1
3.745644961E1,1.704886079E0,-6.296114445E0,5.838487148E0
3.747774362E1,-1.239781260E0,-7.569694519E0,7.792226791E0
3.749903764E1,-4.275375843E0,-9.736394882E0,7.363612652E0
3.752033164E1,-1.285244823E0,-1.230778217E1,8.316554070E0
3.754162566E1,6.059823632E-1,-8.970393181E0,8.634799957E0
3.756291967E1,2.685943544E-1,-3.179163933E0,2.077568293E0
3.758421362E1,1.331306696E0,-9.646066427E-1,-4.986044168E-1
3.760550764E1,2.238784790E0,-3.576372623E0,2.024626970E0
3.762680164E1,6.873382926E-1,-7.751848221E0,5.122734070E0
3.764809566E1,3.462115288E0,-1.477119350E1,5.513063431E0
3.766938967E1,7.728518009E0,-3.340200806E1,7.739584923E0
3.769068368E1,-1.050748229E0,-1.872623062E1,-8.123931885E0
3.771197769E1,-3.174378395E0,-5.111069202E0,-6.476772785E0
3.773327170E1,-3.059822023E-1,-2.860619545E0,-6.026622772E0
3.775456571E1,2.207678080E0,-6.066403389E0,-2.863909483E0
3.777585972E1,4.295415878E0,-1.205862999E1,-5.324030295E-2
3.779715373E1,2.562114954E0,-1.310249901E1,5.091627598E0
3.781844774E1,3.643072546E-1,-1.186241817E1,3.501895905E0
3.783974175E1,-7.728816867E-1,-1.042821980E1,2.481955290E0
3.786103576E1,-1.193420291E-1,-7.287341595E0,-1.154536903E-1
3.788232972E1,2.829512656E-1,-5.436792374E0,-2.536092997E0
3.790362373E1,1.127916813E0,-6.705586433E0,-4.698905349E-1
3.792491774E1,1.206879973E0,-1.014347458E1,4.064807594E-1
3.794621175E1,-3.900300860E-1,-1.028225803E1,4.519443810E-1
3.796750576E1,-1.424028635E0,-9.664610863E0,1.794916034E0
3.798879977E1,-1.191924810E0,-9.568898201E0,4.280161381E0
3.801009378E1,-6.460621357E-1,-1.004058266E1,2.774178743E0
3.803138779E1,-1.266102314E0,-9.573683739E0,-4.818546474E-1
3.805268180E1,-1.981855392E0,-9.844072342E0,6.098706722E-1
3.807397581E1,-1.450349569E0,-1.256620693E1,1.696810365E0
3.809526982E1,-6.723831892E-1,-1.376321697E1,2.185245275E0
3.811656383E1,-2.537289381E0,-1.223121166E1,8.635098934E-1
3.813785784E1,-3.813561201E0,-1.182174015E1,2.103889227E0
3.815915185E1,-1.304387450E0,-1.077547836E1,6.020640850E0
3.818044586E1,-2.183151484E0,-1.037318516E1,3.437289715E0
3.820173987E1,-3.892524242E0,-1.215703487E1,1.012163997E0
3.822303388E1,-9.478568435E-1,-1.271725368E1,4.284946918E0
3.824432790E1,6.945167780E-1,-1.391426373E1,2.948854923E0
3.826562191E1,2.588435888E0,-1.645185280E1,-7.761718631E-1
3.828691592E1,3.440579891E0,-1.658824348E1,-1.803290963E0
3.830820993E1,2.229213476E0,-1.380150223E1,-4.268197417E-1
3.832950394E1,-3.227319419E-1,-1.106052399E1,2.740679264E0
3.835079790E1,-9.382855892E-1,-9.343972206E0,1.526919961E0
3.837209191E1,9.652048349E-1,-8.515457153E0,-1.647757530E0
3.839338592E1,1.080060363E0,-6.997510910E0,-2.643769979E0
3.841467993E1,7.761718631E-1,-5.824429512E0,-2.135594189E-1
3.843597394E1,2.135594189E-1,-5.606682777E0,8.515457511E-1
3.845726795E1,7.256234884E-1,-6.576374054E0,-3.933202326E-1
3.847856196E1,2.212463617E0,-7.454838753E0,-3.079562664E0
3.849985597E1,2.906681299E0,-7.270591736E0,-1.832004786E0
3.852114998E1,2.064108610E0,-5.714359760E0,1.577169180E0
3.854244399E1,2.365604401E0,-5.817250729E0,3.880260944E0
3.856373800E1,1.822134495E0,-8.240283012E0,7.006783009E0
3.858503201E1,4.097708762E-1,-1.212084293E1,9.343673706E0
3.860632602E1,-1.955534339E0,-1.253031445E1,9.187840462E0
3.862762003E1,-1.522433400E0,-8.000701904E0,8.218448639E0
3.864891404E1,-1.120140076E0,-5.051248550E0,5.330909729E0
3.867020805E1,-8.159525394E-1,-4.929214478E0,3.585644722E0
3.869150206E1,-2.796611488E-1,-6.186044693E0,2.235494614E0
3.871279607E1,-2.398505688E0,-7.282555580E0,3.320041418E0
3.873409008E1,7.809575200E-1,-1.476640797E1,-2.844767094E0
3.875538409E1,6.289534092E0,-2.661237526E1,2.003988922E-1
3.877667810E1,2.882753134E0,-1.619342804E1,-2.600699186E0
3.879797211E1,-1.400100350E0,-3.236591816E0,1.529312730E0
3.881926612E1,1.001097202E0,-4.744668007E0,-6.864409924E0
3.884056014E1,4.632803917E0,-1.007168961E1,-4.544568539E0
3.886185414E1,6.014359951E0,-1.340190029E1,-1.614257932E0
3.888314816E1,3.234797001E0,-9.971191406E0,8.783453941E0
3.890444217E1,1.427318692E0,-1.058644581E1,4.557728767E0
3.892573618E1,-3.203391433E-1,-1.027747250E1,3.681955934E-1
3.894703019E1,-6.699903607E-1,-7.680063248E0,-3.148954630E0
3.896832420E1,1.704886183E-2,-6.482754707E0,-4.784149647E0
3.898961821E1,-5.503492355E-1,-7.756633759E0,-9.080761671E-1
3.901091222E1,-2.745764017E0,-9.473184586E0,4.423730850E0
3.903220623E1,-2.657229662E0,-1.048116112E1,4.881059170E0
3.905350024E1,-1.268495083E0,-9.882357597E0,3.101995468E0
3.907479425E1,-9.454640746E-1,-9.997511864E0,9.619147182E-1
3.909608826E1,-1.065105200E0,-1.023679447E1,-1.128215909E0
3.911738227E1,-1.440778375E0,-1.022243786E1,-6.589235067E-1
3.913867628E1,-1.979462504E0,-9.772287369E0,2.240280151E0
3.915997029E1,-3.852444589E-1,-9.940084457E0,5.132305622E0
3.918126430E1,1.237986565E0,-1.325833130E1,-2.234298140E-1
3.920255831E1,-7.465606928E-1,-1.322453213E1,-4.507479668E-1
3.922385232E1,-3.078366280E0,-1.214985561E1,3.116352320E0
3.924514633E1,-2.647658348E0,-1.262602806E1,4.004687786E0
3.926644034E1,-3.990629911E0,-1.408176136E1,1.936092615E0
3.928773435E1,9.508479238E-1,-1.369861031E1,8.503194809E0
3.930902836E1,1.618744493E0,-1.299003601E1,9.719346046E0
3.933032237E1,3.451646566E-1,-1.244895935E1,-1.583151340E0
3.935161638E1,5.054838061E-1,-1.145533943E1,-3.316452265E0
3.937291040E1,1.451246977E0,-1.222881889E1,-2.203191519E0
3.939420441E1,8.910273314E-1,-1.366989708E1,3.113959551E0
3.941549842E1,-6.029912829E-1,-1.212323570E1,4.042973042E0
3.943679243E1,-1.426421404E0,-9.413364410E0,4.710869491E-1
3.945808644E1,-8.398807645E-1,-7.986344814E0,-3.358924687E-1
3.947938045E1,-4.277170449E-2,-7.656135082E0,-1.791326880E0
3.950067446E1,6.562315822E-1,-7.526623726E0,-7.067800164E-1
3.952196847E1,7.977072597E-1,-7.414160728E0,3.442673683E-1
3.954326248E1,9.580263495E-1,-7.675277710E0,-1.010967568E-1
3.956455649E1,1.709671736E0,-7.607979774E0,-2.042872429E0
3.958585050E1,2.626721144E0,-6.212365627E0,-3.998705626E0
3.960714451E1,1.937289000E0,-3.897309780E0,-1.578365684E0
3.962843852E1,2.061715841E0,-3.411267757E0,1.780559182E0
3.964973253E1,3.447758436E0,-5.290530682E0,5.850451469E0
3.967102654E1,-3.251247704E-1,-1.045723343E1,9.690632820E0
3.969232055E1,-3.270091295E0,-1.471376514E1,1.287488174E1
3.971361456E1,-2.820539773E-1,-1.461326694E1,9.015557289E0
3.973490857E1,2.162214279E0,-6.107081413E0,5.733202934E0
3.975620258E1,4.788636208E0,-1.124925733E0,5.376373291E0
3.977749659E1,3.840480328E0,-7.677670479E0,1.708774447E0
3.979879060E1,5.140381336E0,-2.966023254E1,-1.975873351E0
3.982008461E1,-4.307080805E-1,-2.097907257E1,-8.976076126E0
3.984137862E1,-7.609176040E-1,-3.820739508E0,-1.300499082E0
3.986267264E1,-8.584251255E-2,-2.479861498E0,-2.722733021E0
3.988396664E1,2.102393866E0,-6.947261333E0,-3.522234917E0
3.990526066E1,4.623232365E0,-1.328704548E1,-5.679962635E-1
3.992655472E1,2.916252613E0,-1.284646702E1,1.071984529E0
3.994784868E1,-2.629113793E-1,-8.213961601E0,5.702096462E0
3.996914269E1,4.815555513E-1,-9.643074989E0,4.952843666E0
3.999043670E1,-8.344969153E-2,-8.877073288E0,-2.880360186E-1
4.001173071E1,-2.605185509E-1,-7.110272408E0,-4.839184761E0
4.003302477E1,1.869392693E-1,-7.100701332E0,-4.470390797E0
4.005431878E1,-1.576271951E-1,-9.774680138E0,6.505486369E-1
4.007561279E1,3.044866920E-1,-1.077547836E1,5.759523869E0
4.009690680E1,-2.413759828E-1,-1.057687473E1,3.255435228E0
4.011820081E1,-6.173482537E-1,-1.042343426E1,1.316052437E0
4.013949482E1,-6.723831892E-1,-1.014826012E1,1.333998591E-1
4.016078883E1,-1.223031521E0,-9.326923370E0,1.428515077E0
4.018208284E1,-2.128116608E0,-1.031575775E1,3.592823267E0
4.020337685E1,-2.817548752E0,-1.179302597E1,1.505384564E0
4.022467086E1,-1.814357758E0,-1.215464211E1,-1.704886109E-1
4.024596487E1,-5.359922647E-1,-1.185523987E1,1.684846282E0
4.026725889E1,-2.413759828E-1,-1.136680508E1,5.007878780E0
4.028855290E1,-4.378865361E-1,-1.006211853E1,6.925426960E0
4.030984691E1,-1.528415531E-1,-8.747561455E0,6.192924023E0
4.033114092E1,-1.831107497E0,-1.045962620E1,3.669393539E0
4.035243493E1,-3.327518940E0,-1.290628719E1,1.286142170E-1
4.037372894E1,-1.828714728E0,-1.443380547E1,-2.303689957E0
4.039502295E1,-1.884347759E-2,-1.642074585E1,-2.306082845E-1
4.041631696E1,1.132702470E0,-1.713410568E1,2.154138565E0
4.043761097E1,3.667000830E-1,-1.396690559E1,2.089532375E0
4.045890498E1,-4.067798555E-1,-1.140748310E1,1.581954837E0
4.048019899E1,-8.853443861E-1,-1.010040379E1,1.238285750E-1
4.050149300E1,-3.559323773E-2,-8.802895546E0,1.136590719E0
4.052278701E1,1.719243050E0,-7.778169155E0,-4.890331328E-1
4.054408102E1,1.906182289E0,-7.316055298E0,-2.306082845E-1
4.056537503E1,7.567301393E-1,-6.626623154E0,1.814058661E0
4.058666904E1,7.495517135E-1,-6.174080849E0,6.337988973E-1
4.060796305E1,2.231606245E0,-6.343971252E0,-2.868695259E0
4.062925711E1,3.466900826E0,-5.968297958E0,-2.236690998E0
4.065055112E1,1.985145450E0,-4.548456669E0,3.538386524E-1
4.067184514E1,1.290628672E0,-5.000999451E0,1.986341953E0
4.069313914E1,1.079761237E-1,-7.117451191E0,5.292624474E0
4.071443316E1,-1.074676514E0,-1.057926750E1,8.788239479E0
4.073572717E1,-1.761715651E0,-1.276032448E1,1.100010490E1
4.075702118E1,8.575277925E-1,-1.072762203E1,7.878368378E0
4.077831519E1,2.315355062E0,-5.879464149E0,6.118746758E0
4.079960920E1,2.822932482E0,-4.012165546E0,5.869594097E0
4.082090321E1,-1.687538147E0,-5.369493961E0,7.107580662E0
4.084219722E1,-5.096712112E0,-1.206820107E1,-3.103491068E0
4.086349123E1,5.940182209E0,-2.713670158E1,-7.381558895E0
4.088478524E1,4.163810730E0,-1.732104492E1,-2.591127872E0
4.090607925E1,2.162214279E0,-2.724228621E0,1.095942688E1
4.092737326E1,-6.388836503E-1,-5.367101192E0,-8.487641335E0
4.094866727E1,4.034298897E0,-1.304507065E1,-5.011467934E0
4.096996128E1,5.377569675E0,-1.506820202E1,-2.016551256E0
4.099125529E1,3.014358282E0,-1.096451187E1,-7.642077208E-1
4.101254930E1,1.422533035E0,-7.404589653E0,3.561716557E0
4.103384331E1,-1.610967875E0,-9.942477226E0,4.447659016E0
4.105513732E1,-1.270887971E0,-8.359924316E0,4.280161560E-1
4.107643133E1,2.566302419E-1,-7.622336388E0,-3.060420275E0
4.109772540E1,2.805584669E-1,-8.213961601E0,-1.908874273E0
4.111901935E1,-1.974676847E0,-9.008678436E0,2.551347256E0
4.114031336E1,-3.607479334E0,-9.707681656E0,4.782654285E0
4.116160743E1,-2.793620348E0,-1.023918724E1,4.696512699E0
4.118290144E1,-1.654038668E0,-9.897013664E0,2.142174482E0
4.120419545E1,-1.438385487E0,-9.635896683E0,9.930213690E-1
4.122548946E1,-1.941177368E0,-8.934500694E0,1.756630898E0
4.124678347E1,-1.232602715E0,-9.128319740E0,6.672984362E-1
4.126807748E1,-4.498506486E-1,-1.017936707E1,-3.071786165E-1
4.128937149E1,-5.359922647E-1,-1.235324574E1,-1.401296735E0
4.131066550E1,-4.115654826E-1,-1.473051548E1,3.777668774E-1
4.133195951E1,-3.227319419E-1,-1.276750374E1,5.544169903E0
4.135325352E1,-2.556432009E0,-1.109162998E1,2.824428082E0
4.137454753E1,-3.914059639E0,-1.098126125E1,4.109972000E0
4.139584154E1,-3.710370541E0,-1.142901802E1,4.605585575E0
4.141713555E1,-2.879761934E0,-1.209452248E1,3.693321705E0
4.143842956E1,-1.227817178E0,-1.217139149E1,4.859523773E0
4.145972357E1,-3.637090325E-1,-1.271486092E1,5.404788256E-1
4.148101764E1,9.484550953E-1,-1.374407387E1,-1.449153185E0
4.150231165E1,2.487937450E0,-1.573131371E1,-3.406781256E-1
4.152360566E1,3.112763166E0,-1.505145264E1,4.380660057E0
4.154489967E1,2.446661144E-1,-1.001186943E1,5.129912853E0
4.156619368E1,-1.682752490E0,-7.088737011E0,-1.257428288E0
4.158748769E1,-1.935195327E-1,-6.980761051E0,-4.197608948E0
4.160878170E1,1.218844056E0,-7.354340553E0,-2.133799553E0
4.163007571E1,1.063310504E0,-7.028617382E0,1.186840057E0
4.165136972E1,8.216354847E-1,-7.124629498E0,1.703988791E0
4.167266373E1,1.096810102E0,-8.122735977E0,-1.776670814E-1
4.169395774E1,2.789433002E0,-9.015856743E0,-4.479962349E0
4.171525175E1,3.208476067E0,-7.960023403E0,-2.552842617E0
4.173654576E1,3.739981890E0,-6.209972858E0,2.015055656E0
4.175783977E1,3.052942514E0,-5.326423168E0,4.983950615E0
4.177913378E1,7.543373108E-1,-6.657730103E0,6.322136402E0
4.180042779E1,-8.327022791E-1,-8.850751877E0,7.610073090E0
4.182172180E1,-2.034796476E0,-1.021047306E1,9.436993599E0
4.184301586E1,-1.049850956E-1,-1.067019463E1,9.817452431E0
4.186430987E1,1.472782373E0,-7.481160164E0,4.957629204E0
4.188560388E1,1.886740685E0,-3.832703590E0,1.955235243E0
4.190689790E1,2.073679924E0,-1.972284079E0,1.818844318E0
4.192819191E1,6.729813814E-1,-3.006581545E0,3.008974493E-1
4.194948592E1,2.514258385E0,-2.030399704E1,4.497908592E0
4.197077993E1,8.935098648E0,-3.912175369E1,-1.085773182E1
4.199207394E1,-1.864607096E0,-1.414636707E1,-3.297309637E0
4.201336795E1,-9.669994712E-1,-1.522433400E0,2.393420935E0
4.203466196E1,1.058524966E0,-5.307280540E0,-4.613960266E0
4.205595597E1,3.550649643E0,-9.552147865E0,-1.741077542E0
4.207724998E1,4.719244480E0,-1.372253895E1,-3.215355575E-1
4.209854399E1,2.614757061E0,-1.175952721E1,1.330409408E0
4.211983805E1,-1.065105200E0,-1.042104149E1,1.091127157E0
4.214113206E1,-1.565504193E0,-9.295816422E0,1.730309844E0
4.216242607E1,-1.060319543E0,-7.050152779E0,-5.512465239E-1
4.218372008E1,-1.189531922E0,-6.528517246E0,-4.555336237E-1
4.220501409E1,-1.646860242E0,-7.763812065E0,7.486543655E-1
4.222630810E1,-1.337886930E0,-9.544969559E0,4.328018188E0
4.224760211E1,-9.382855892E-1,-1.010997486E1,3.226721287E0
4.226889612E1,-5.623133183E-1,-9.812965393E0,1.289731383E0
4.229019014E1,-1.103390336E0,-9.707681656E0,2.529811859E0
4.231148414E1,-2.137687922E0,-9.477970123E0,1.617847204E0
4.233277816E1,-2.331506491E0,-9.580862045E0,3.442673683E-1
4.235407217E1,-1.888535261E0,-1.073480034E1,-1.680957973E-1
4.237536623E1,-7.848458290E-1,-1.223121166E1,-3.813561201E-1
4.239666019E1,-5.551348329E-1,-1.244895935E1,1.680060625E0
4.241795425E1,-7.226324677E-1,-1.216421318E1,1.031306505E0
4.243924826E1,-6.317051649E-1,-1.165663528E1,4.744369030E0
4.246054227E1,-1.654038668E0,-1.054098225E1,5.043771267E0
4.248183628E1,-3.617050648E0,-1.051705360E1,5.687739372E0
4.250313029E1,-5.113461971E0,-1.389272785E1,3.952045679E0
4.252442430E1,-2.223829508E0,-1.355025578E1,1.491027594E0
4.254571831E1,-1.560718536E0,-1.276750374E1,-9.990034699E-1
4.256701232E1,1.390828192E-1,-1.550399494E1,-1.425225019E0
4.258830633E1,2.858824968E0,-1.696660805E1,3.530609846E0
4.260960034E1,3.275475025E0,-1.318146133E1,2.245065928E0
4.263089441E1,1.197308660E0,-8.934500694E0,-1.223928809E0
4.265218842E1,-2.102692872E-1,-7.555337429E0,-1.721935034E0
4.267348243E1,5.054838061E-1,-7.421339512E0,1.094716340E-1
4.269477644E1,1.575673699E0,-6.997510910E0,1.409372568E0
4.271607045E1,1.187737346E0,-6.418148518E0,1.957628012E0
4.273736446E1,-1.645065658E-2,-6.511468410E0,1.263410330E0
4.275865847E1,3.164508045E-1,-7.371089935E0,-2.363510609E0
4.277995248E1,1.429711580E0,-7.325626373E0,-3.943670750E0
4.280124649E1,1.570888042E0,-6.219544411E0,-1.659721613E0
4.282254050E1,1.752742529E0,-5.242674351E0,6.792625189E-1
4.284383451E1,2.396710873E0,-4.770989418E0,3.739084482E0
4.286512852E1,1.108774185E0,-7.019046307E0,8.912666321E0
4.288642258E1,-1.469492197E0,-1.254706478E1,1.062682438E1
4.290771659E1,-2.467897415E0,-1.499163246E1,1.032024384E1
4.292901060E1,-4.737788737E-1,-1.025354385E1,1.078953648E1
4.295030461E1,2.997010350E-1,-4.761417866E0,6.470491409E0
4.297159862E1,1.202094316E0,-2.994617462E0,5.060520649E0
4.299289264E1,1.625923038E0,-3.585943937E0,-1.410868049E0
4.301418664E1,2.061715841E0,-3.327518940E0,-6.036194324E0
4.303548066E1,3.744767427E0,-1.949253082E1,8.960522652E0
4.305677467E1,8.053941727E0,-3.291626740E1,-1.662772369E1
4.307806868E1,-7.034898400E-1,-1.272443295E1,2.221137524E0
4.309936274E1,-1.428814173E0,-5.139782906E0,-8.793623447E-1
4.312065670E1,2.782254457E0,-1.011954594E1,-5.011467934E0
4.314195076E1,4.381557465E0,-1.350479221E1,-1.125823021E0
4.316324477E1,2.531008244E0,-1.242981625E1,2.395813704E0
4.318453878E1,-1.480558962E-1,-1.017218781E1,3.164507866E0
4.320583279E1,-1.096211910E0,-9.176176071E0,3.274577856E0
4.322712680E1,-2.605185509E-1,-7.316055298E0,1.933699846E0
4.324842081E1,9.601201117E-2,-6.593123913E0,-1.384546995E0
4.326971482E1,-1.456630826E-1,-6.538088799E0,-2.145763636E0
4.329100883E1,-1.242174029E0,-7.778169155E0,8.075776696E-2
4.331230284E1,-1.855035782E0,-9.621540070E0,3.892225027E0
4.333359685E1,-1.457528114E0,-1.026311588E1,5.318945408E0
4.335489092E1,-3.418745399E-1,-9.889835358E0,2.139781713E0
4.337618493E1,-4.857429862E-1,-9.590433121E0,3.610171080E-1
4.339747894E1,-1.239781260E0,-1.004776096E1,-3.382852972E-1
4.341877295E1,-1.953141451E0,-1.033250713E1,5.922235921E-2
4.344006696E1,-2.080260277E0,-1.074437141E1,-4.387838542E-1
4.346136097E1,-1.577468276E0,-1.115145111E1,-2.377867550E-1
4.348265498E1,-1.086640596E0,-1.161595726E1,3.834797382E0
4.350394899E1,-1.491326690E0,-1.230538940E1,3.578466177E0
4.352524300E1,-1.294816136E0,-1.249442291E1,4.133900166E0
4.354653701E1,-3.581158161E0,-1.379193020E1,1.842772484E0
4.356783107E1,-3.866203070E0,-1.524287891E1,2.491526604E0
4.358912508E1,-6.604190469E-1,-1.192702484E1,1.000439167E1
4.361041909E1,-9.885348678E-1,-1.131655598E1,1.416550994E0
4.363171310E1,-2.509472668E-1,-1.074197865E1,-2.648555517E0
4.365300711E1,9.819545746E-1,-1.333968735E1,-2.488236427E0
4.367430112E1,1.692921996E0,-1.736411667E1,2.886641502E0
