"Time (s)","Gyroscope x (rad/s)","Gyroscope y (rad/s)","Gyroscope z (rad/s)"
6.817359400E-2,-2.518217862E-1,-7.116370797E-1,-1.101052165E-1
8.946692700E-2,-2.536543310E-1,-5.253286362E-1,4.260659590E-2
1.107602610E-1,-2.420482337E-1,-3.970507085E-1,1.751604527E-1
1.320535940E-1,-3.348970115E-1,-4.599680007E-1,2.906105816E-1
1.533469270E-1,-4.827220440E-1,-4.966188073E-1,3.358132839E-1
1.746402090E-1,-5.267030597E-1,-4.752391577E-1,1.702736765E-1
1.959335420E-1,-5.596888065E-1,-6.016845703E-1,5.726693198E-2
2.172268750E-1,-6.720846891E-1,-7.556180358E-1,1.378987730E-1
2.385202090E-1,-7.216396928E-1,-8.295305967E-1,2.606790662E-1
2.598135420E-1,-6.781931520E-1,-8.771766424E-1,2.716743052E-1
2.811068750E-1,-5.462501645E-1,-8.154810667E-1,1.403421611E-1
3.024001570E-1,-4.815003574E-1,-7.171346545E-1,1.354553849E-1
3.236934900E-1,-4.216373265E-1,-6.352811456E-1,3.449759781E-1
3.449868230E-1,-3.293993771E-1,-4.379774928E-1,6.656708121E-1
3.662801570E-1,-5.957288146E-1,-3.353551328E-1,9.802571535E-1
3.875734900E-1,-1.086315513E0,5.375456065E-2,1.271631241E0
4.088668230E-1,-1.403345227E0,-1.130067408E-1,1.341878772E0
4.301601040E-1,-1.486420393E0,-1.612636745E-1,1.062721491E0
4.514534380E-1,-1.644629836E0,1.411057115E-1,4.402681589E-1
4.727467710E-1,-1.914013505E0,3.139754832E-1,-2.603736520E-1
4.940401040E-1,-2.107041359E0,1.020114943E-1,-6.403206587E-1
5.153334380E-1,-2.041069746E0,-4.245388508E-1,-7.564579844E-1
5.366267710E-1,-1.549337745E0,-5.522059202E-1,-9.629243612E-1
5.579201040E-1,-8.346464038E-1,-9.553651214E-1,-1.441217780E0
5.792133860E-1,-2.554868758E-1,-9.113841057E-1,-1.798563361E0
6.005067190E-1,-3.741439432E-2,-8.435800672E-1,-1.802228451E0
6.218000520E-1,2.564031482E-1,-1.182676673E0,-1.523682117E0
6.430933860E-1,6.913263798E-1,-1.734271765E0,-1.148621917E0
6.643867190E-1,1.081046939E0,-1.955398440E0,-8.120450974E-1
6.856800520E-1,1.201994658E0,-1.467942357E0,-5.224271417E-1
7.069733860E-1,1.170841455E0,-1.207110524E0,-1.485885978E-1
7.282666670E-1,1.111589313E0,-1.003698349E0,1.311794519E-1
7.495600000E-1,1.100594044E0,-1.023856401E0,2.600682080E-1
7.708533340E-1,1.272242069E0,-6.578825116E-1,4.946335554E-1
7.921466670E-1,1.414569497E0,1.075091213E-1,9.362761378E-1
8.134400000E-1,1.145796776E0,1.089751482E0,1.356539011E0
8.347333340E-1,5.068505406E-1,1.219861984E0,1.568503022E0
8.560266670E-1,1.959292591E-1,6.187883019E-1,1.500088215E0
8.773200000E-1,3.700207174E-1,9.046648145E-1,1.253305912E0
8.986133340E-1,5.270084739E-1,1.114185452E0,1.164733052E0
9.199066670E-1,2.441861928E-1,8.612946272E-1,1.122584581E0
9.412000000E-1,-5.792359114E-1,1.985253543E-1,1.150683522E0
9.624933340E-1,-1.204819918E0,-6.187883019E-1,1.052337170E0
9.837866150E-1,-1.113192797E0,-1.017747879E0,1.352263093E0
1.005079948E0,-4.778352678E-1,-7.256865501E-1,1.895306349E0
1.026373282E0,1.427855492E-1,6.096255779E-1,2.002280951E0
1.047666615E0,6.192464232E-1,6.175665855E-1,1.491536260E0
1.068959948E0,2.093679011E-1,-5.070032477E-1,1.056002140E0
1.090253282E0,-4.136963189E-1,-1.355546474E0,8.244910836E-1
1.111546615E0,-5.572454333E-1,-1.370206714E0,5.331169367E-1
1.132840000E0,-1.919587553E-1,-6.975875497E-1,7.835643291E-1
1.154133334E0,2.173089087E-1,-4.459185004E-1,1.157402873E0
1.175426667E0,7.925742865E-2,-1.337755471E-1,1.487260342E0
1.196720000E0,-5.774033666E-1,-7.818844914E-1,1.298508525E0
1.218013334E0,-1.038058519E0,-4.618005157E-1,8.721371889E-1
1.239306667E0,-9.696436524E-1,-1.527118087E-1,6.485670805E-1
1.260600000E0,-5.676298141E-1,-1.716480851E-1,5.862606764E-1
1.281893334E0,-4.161396921E-1,-1.863084137E-1,4.848600030E-1
1.303186667E0,-6.305471063E-1,-6.016845703E-1,3.339807391E-1
1.324480052E0,-6.299362183E-1,-1.165572882E0,1.458397806E-1
1.345773386E0,-1.919587553E-1,-1.070891619E0,6.276455522E-2
1.367066719E0,-3.924693540E-2,-1.582094431E-1,8.780929446E-2
1.388360052E0,-4.992149174E-1,2.999260128E-1,3.584146202E-1
1.409653438E0,-8.914552331E-1,-4.703523964E-2,3.174878657E-1
1.430946771E0,-7.662315369E-1,-5.454866290E-1,-6.795676053E-2
1.452240104E0,-2.591519356E-1,-6.548282504E-1,-3.855973184E-1
1.473533490E0,2.855710872E-2,-9.939248562E-1,-3.080197275E-1
1.494826823E0,-2.475458533E-1,-6.975875497E-1,-3.947600424E-1
1.516120157E0,-4.271349311E-1,-3.371876776E-1,-3.141281903E-1
1.537413542E0,-6.612421572E-2,-9.841513038E-1,2.252499312E-1
1.558706875E0,3.993414044E-1,-1.830174685E0,1.629435122E-1
1.580000261E0,4.341596961E-1,-3.112953901E0,-6.673506647E-2
1.601293594E0,-5.712949038E-1,-8.087617755E-1,9.391776472E-2
1.622586979E0,-8.236511946E-1,-1.914471626E0,1.537808031E-1
1.643880313E0,-9.818606377E-1,-1.670132756E0,6.459710002E-2
1.665173698E0,-1.501080751E0,-7.837170362E-1,1.023169141E-2
1.686467032E0,5.654918551E-1,2.137965411E-1,-6.055023670E-1
1.707760417E0,1.688839912E0,-3.542914242E-2,-1.126631379E0
1.729053802E0,1.658908486E0,6.450088978E0,-7.674532533E-1
1.750347136E0,-7.277481556E-1,-1.470996499E0,4.634803534E-1
1.771640521E0,-2.044734955E0,1.623632073E0,4.714213610E-1
1.792933907E0,3.883461356E-1,1.121515512E0,-8.078455180E-2
1.814227240E0,1.599656224E0,2.258989573E0,-4.352286831E-2
1.835520625E0,-7.222505212E-1,-9.242119193E-1,2.338017821E-1
1.856814011E0,-6.055023670E-1,1.950511694E0,-1.908897609E-2
1.878107396E0,4.989095032E-1,4.530807018E0,-5.493044257E-1
1.899400729E0,1.788255423E-1,9.378566742E0,-4.540122151E-1
1.920694115E0,-2.060082406E-1,-2.971237421E0,-7.528692484E-2
1.941987500E0,3.755183518E-1,1.957841873E0,-2.762556672E-1
1.963280886E0,3.321481943E-1,-8.472451568E-1,-2.524326444E-1
1.984574271E0,1.745496094E-1,-9.529217333E-2,-3.159607351E-1
2.005867657E0,1.061347127E-1,1.221694499E-1,-3.562766612E-1
2.027161042E0,4.199574888E-2,1.142284349E-1,-3.361186981E-1
2.048454427E0,8.231166750E-2,8.979454637E-2,-3.397837877E-1
2.069747813E0,2.061609551E-2,7.696675509E-2,-2.939702570E-1
2.091041198E0,2.061609551E-2,8.002099395E-2,-2.750339806E-1
2.112334584E0,3.466558084E-2,5.192201585E-2,-2.377723008E-1
2.133627969E0,2.611372061E-2,3.054236248E-2,-2.115058601E-1
2.154921354E0,4.734066315E-3,2.076880634E-2,-1.779092699E-1
2.176214740E0,3.100049868E-2,9.162709117E-3,-1.424801201E-1
2.197508125E0,3.833066672E-2,2.076880634E-2,2.611372061E-2
2.218801511E0,1.328592747E-2,2.076880634E-2,7.681404054E-2
2.240094896E0,5.955760833E-3,2.260134928E-2,7.375980914E-2
2.261388282E0,3.894151375E-2,2.626643144E-2,8.231166750E-2
2.282681667E0,1.389677543E-2,3.542914242E-2,9.086353332E-2
2.303975052E0,3.771981969E-2,4.886778072E-2,8.475505561E-2
2.325268490E0,1.328592747E-2,6.536065787E-2,8.536590636E-2
2.346561875E0,4.077405483E-2,7.879929990E-2,9.025268257E-2
2.367855261E0,1.145338640E-2,8.612946421E-2,9.025268257E-2
2.389148646E0,4.138490185E-2,8.857285231E-2,9.330692142E-2
2.410442084E0,3.283303976E-2,8.368607610E-2,1.000262350E-1
2.431735469E0,1.267508045E-2,7.207997888E-2,1.091889441E-1
2.453028854E0,2.611372061E-2,3.176405653E-2,1.220167428E-1
2.474322240E0,7.375980914E-2,3.298575059E-2,1.226275861E-1
2.495615677E0,-2.275406010E-2,8.551862091E-3,1.195733473E-1
2.516909063E0,3.038965166E-2,-1.282779220E-2,1.055238619E-1
2.538202448E0,1.068982761E-3,9.773556143E-3,1.110214889E-1
2.559495886E0,9.025268257E-2,1.832541777E-3,1.171299592E-1
2.580789271E0,-3.008422814E-2,2.199050039E-2,1.250709742E-1
2.602082657E0,2.244863659E-2,3.115320951E-2,1.207950488E-1
2.623376094E0,2.672456764E-2,5.803048983E-2,1.201841980E-1
2.644669479E0,4.749337584E-2,7.391251624E-2,1.244601309E-1
2.665962917E0,5.482354015E-2,7.757759839E-2,1.159082651E-1
2.687256302E0,-4.535540938E-2,5.619794875E-2,1.232384369E-1
2.708549688E0,-5.146388337E-2,8.796200156E-2,1.293469071E-1
2.729843125E0,8.414421231E-2,1.099525094E-1,1.287360638E-1
2.751136511E0,9.009997360E-3,8.796200156E-2,1.452289373E-1
2.772429948E0,1.939439960E-2,7.757759839E-2,1.378987730E-1
2.793723334E0,6.398624927E-2,9.284878522E-2,1.201841980E-1
2.815016771E0,2.550287358E-2,6.169557199E-2,1.195733473E-1
2.836310157E0,3.405473381E-2,5.314370990E-2,1.269035190E-1
2.857603594E0,1.756185852E-2,3.359659761E-2,1.653869003E-1
2.878896979E0,4.077405483E-2,3.665083647E-2,1.788255423E-1
2.900190365E0,6.887302548E-2,8.368607610E-2,1.409530044E-1
2.921483802E0,-1.236965694E-2,1.075091213E-1,1.372879148E-1
2.942777188E0,4.077405483E-2,1.215586066E-1,1.684411317E-1
2.964070625E0,7.681404054E-2,1.337755471E-1,1.995943487E-1
2.985364063E0,4.260659590E-2,1.740914732E-1,2.075353563E-1
3.006657448E0,9.941539168E-2,1.997470558E-1,2.136438340E-1
3.027950886E0,8.536590636E-2,2.266243398E-1,2.069245130E-1
3.049244271E0,3.833066672E-2,2.620534599E-1,2.002051920E-1
3.070537709E0,1.452289373E-1,2.449497581E-1,2.368560284E-1
3.091831094E0,9.636115283E-2,2.437280566E-1,2.716743052E-1
3.113124532E0,8.719844371E-2,2.241809368E-1,2.423536479E-1
3.134417917E0,2.901524538E-3,2.089097649E-1,2.075353563E-1
3.155711354E0,9.452861547E-2,1.667613089E-1,2.484621257E-1
3.177004740E0,1.036913246E-1,2.021904439E-1,2.704526186E-1
3.198298177E0,1.043021679E-1,2.431172132E-1,2.637332976E-1
3.219591615E0,1.427855492E-1,1.875301152E-1,2.747285664E-1
3.240885000E0,7.177455351E-3,2.247917950E-1,2.735068500E-1
3.262178438E0,1.073564067E-1,3.084778786E-1,2.362451702E-1
3.283471823E0,2.423536479E-1,2.687727809E-1,2.399102598E-1
3.304765261E0,-6.978929788E-2,2.486148328E-1,2.759502530E-1
3.326058646E0,5.787777901E-2,2.046338320E-1,2.881672084E-1
3.347352084E0,1.458397806E-1,1.661504507E-1,3.211529553E-1
3.368645521E0,2.794626169E-2,1.307213157E-1,3.223746419E-1
3.389938907E0,1.572931744E-2,1.679829955E-1,2.710634768E-1
3.411232344E0,7.681404054E-2,6.536065787E-2,3.034383655E-1
3.432525729E0,1.572931744E-2,5.741964281E-2,3.223746419E-1
3.453819167E0,1.293469071E-1,1.453816444E-1,2.771719396E-1
3.475112604E0,9.620844387E-3,1.130067408E-1,2.515163720E-1
3.496405990E0,1.145338640E-2,7.696675509E-2,2.698417902E-1
3.517699427E0,3.771981969E-2,1.661504507E-1,2.472404242E-1
3.538992865E0,7.681404054E-2,1.753131598E-1,2.527380586E-1
3.560286250E0,1.145338640E-2,9.590301663E-2,3.248180151E-1
3.581579688E0,-1.131594554E-1,5.375456065E-2,3.559712470E-1
3.602873073E0,9.147437662E-2,1.014006436E-1,3.339807391E-1
3.624166511E0,1.550024897E-1,1.514901221E-1,3.437542915E-1
3.645459948E0,1.878355257E-2,1.362189353E-1,3.364241421E-1
3.666753334E0,4.077405483E-2,5.558710173E-2,3.223746419E-1
3.688046771E0,-4.107947648E-2,9.162709117E-3,3.602471650E-1
3.709340157E0,1.482831687E-1,9.834641218E-2,3.126010895E-1
3.730633594E0,1.281252056E-1,1.472141892E-1,2.557922900E-1
3.751927032E0,-1.137702987E-1,8.551861346E-2,2.838912606E-1
3.773220417E0,8.658760041E-2,1.087308154E-1,2.521272004E-1
3.794513854E0,-7.162184268E-2,1.246128380E-1,2.276933193E-1
3.815807292E0,-1.064401343E-1,1.038440317E-1,3.058817685E-1
3.837100677E0,7.742489129E-2,1.233911440E-1,3.584146202E-1
3.858394115E0,2.244863659E-2,1.826433241E-1,3.126010895E-1
3.879687500E0,5.955760833E-3,1.435490996E-1,3.126010895E-1
3.900980938E0,-9.239064902E-2,9.407047927E-2,3.217637837E-1
3.922274375E0,-1.094943732E-1,1.044548824E-1,3.290939629E-1
3.943567761E0,-2.596100792E-3,2.809897438E-2,3.126010895E-1
3.964861198E0,-9.605573118E-2,-3.176405653E-2,2.936648130E-1
3.986154584E0,2.367033064E-2,-4.092676565E-2,2.502946556E-1
4.007448021E0,-1.908897609E-2,-1.081199646E-1,2.582356930E-1
4.028741459E0,-8.689302206E-2,-1.893626451E-1,2.557922900E-1
4.050034844E0,9.620844387E-3,-2.406738251E-1,2.014268786E-1
4.071328282E0,7.177455351E-3,-3.292466700E-1,1.873773932E-1
4.092621667E0,-2.530434728E-1,-3.286358118E-1,1.641651988E-1
4.113915104E0,-1.664558798E-2,-2.596100867E-1,1.128540337E-1
4.135208542E0,1.195733473E-1,-1.612636745E-1,1.837123185E-1
4.156501927E0,-1.374406274E-3,-1.301104724E-1,2.429644912E-1
4.177795365E0,-1.481304597E-2,-4.092676565E-2,2.631224692E-1
4.199088750E0,6.704048812E-2,3.054236295E-3,2.484621257E-1
4.220382188E0,2.290677279E-3,5.986303091E-2,2.948864996E-1
4.241675625E0,8.292251825E-2,1.661504507E-1,3.620797098E-1
4.262969011E0,1.030804738E-1,1.429382563E-1,4.311054647E-1
4.284262448E0,5.299099907E-2,1.478250325E-1,5.092939138E-1
4.305555834E0,1.623326540E-1,2.412846684E-1,5.471664071E-1
4.326849271E0,1.146865711E-1,1.722589284E-1,5.935907960E-1
4.348142657E0,1.495048702E-1,2.052446753E-1,6.247440577E-1
4.369436094E0,7.375980914E-2,2.443388999E-1,6.271874309E-1
4.390729479E0,-2.214321308E-2,2.553341687E-1,5.960342288E-1
4.412022917E0,-1.053711493E-2,1.478250325E-1,5.777087808E-1
4.433316354E0,-2.031067200E-2,2.309002578E-1,5.880932212E-1
4.454609740E0,2.489202656E-2,2.302894145E-1,6.247440577E-1
4.475903177E0,2.289150059E-1,1.368297935E-1,6.149705052E-1
4.497196563E0,5.909947306E-2,1.661504507E-1,5.410579443E-1
4.518490000E0,-7.345438004E-2,1.087308154E-1,4.976878166E-1
4.539783386E0,2.428117767E-2,1.001789495E-1,4.671454430E-1
4.561076823E0,3.283303976E-2,1.753131598E-1,4.414898455E-1
4.582370209E0,1.067455560E-1,2.376195788E-1,3.223746419E-1
4.603663646E0,3.833066672E-2,2.400629669E-1,2.319692522E-1
4.624957032E0,-6.795676053E-2,1.313321590E-1,2.313583940E-1
4.646250469E0,2.367033064E-2,1.093416587E-1,2.374668717E-1
4.667543854E0,-6.734590977E-2,1.270562261E-1,1.849340051E-1
4.688837292E0,1.695101149E-2,1.423274130E-1,1.122431830E-1
4.710130677E0,-2.214321308E-2,1.032331884E-1,9.636115283E-2
4.731424115E0,-2.336490713E-2,8.674030751E-2,1.030804738E-1
4.752717500E0,5.909947306E-2,1.343863904E-1,8.108997345E-2
4.774010938E0,7.192726433E-2,1.356080920E-1,6.154286116E-2
4.795304323E0,-2.275406010E-2,8.918370306E-2,7.070557028E-2
4.816597761E0,3.588727489E-2,7.513421029E-2,8.719844371E-2
4.837891146E0,-7.345438004E-2,7.207997888E-2,1.055238619E-1
4.859184584E0,-6.001574174E-2,1.178935245E-1,6.398624927E-2
4.880477969E0,-3.130592033E-2,1.325538605E-1,6.093201414E-2
4.901771354E0,-3.313846514E-2,1.502684206E-1,5.665608495E-2
4.923064792E0,2.183778957E-2,1.166718230E-1,1.939439960E-2
4.944358177E0,1.378987730E-1,2.443388999E-1,-4.963133857E-2
4.965651615E0,-1.400367320E-1,1.117850468E-1,5.848862603E-2
4.986945000E0,-6.917845458E-2,6.597150117E-2,4.199574888E-2
5.008238438E0,6.948387623E-2,1.850867122E-1,-7.956285775E-2
5.029531823E0,1.389677543E-2,2.278460264E-1,-1.449235082E-1
5.050825261E0,7.375980914E-2,1.722589284E-1,-1.149920002E-1
5.072118646E0,-1.527118147E-4,1.123958975E-1,-7.406523079E-2
5.093412032E0,-3.130592033E-2,1.148392856E-1,-1.314848661E-1
5.114705469E0,-1.278197914E-1,9.162709117E-2,-1.907370538E-1
5.135998854E0,-6.261184346E-3,5.558710173E-2,-1.889045089E-1
5.157292240E0,6.459710002E-2,4.642439261E-2,-1.772984117E-1
5.178585677E0,3.710897267E-2,3.909422457E-2,-1.992889196E-1
5.199879063E0,1.220167428E-1,-2.443389036E-3,-2.304421216E-1
5.221172500E0,-2.275406010E-2,1.832541823E-2,-2.524326444E-1
5.242465886E0,1.440072358E-1,-1.710372418E-2,-2.689255178E-1
5.263759271E0,-1.162136942E-1,-9.651386738E-2,-2.548760176E-1
5.285052709E0,-1.327065676E-1,-7.941014320E-2,-2.762556672E-1
5.306346094E0,2.367033064E-2,-6.108472589E-3,-2.896943092E-1
5.327639479E0,4.016320780E-2,-6.474980712E-2,-2.896943092E-1
5.348932917E0,-2.336490713E-2,-5.497625470E-2,-2.884726226E-1
5.370226302E0,-2.458660305E-2,-5.619794875E-2,-2.982461751E-1
5.391519688E0,3.955236077E-2,1.099525020E-2,-3.410054743E-1
5.412813125E0,7.742489129E-2,-1.038440317E-1,-3.269560039E-1
5.434106511E0,5.955760833E-3,-7.452336699E-2,-3.049654961E-1
5.455399896E0,1.068982761E-3,3.054236295E-3,-3.440597057E-1
5.476693334E0,-4.779879749E-2,-4.153761268E-2,-3.367295563E-1
5.497986719E0,-3.863608837E-2,-5.864133686E-2,-3.116848171E-1
5.519280104E0,5.543438718E-2,-1.527118124E-2,-2.964136302E-1
5.540573490E0,7.131642103E-2,-5.558710173E-2,-2.927485406E-1
5.561866927E0,4.199574888E-2,-6.963659078E-2,-2.841966748E-1
5.583160313E0,7.192726433E-2,-2.565558441E-2,-2.951919436E-1
5.604453698E0,-1.481304597E-2,-4.825693369E-2,-2.536543310E-1
5.625747136E0,-5.268557742E-2,-7.330167294E-2,-2.432699203E-1
5.647040521E0,4.504998401E-2,-8.368607610E-2,-2.316638231E-1
5.668333907E0,-9.666658193E-2,-1.050657257E-1,-2.102841735E-1
5.689627292E0,1.878355257E-2,-7.452336699E-2,-2.286095917E-1
5.710920729E0,6.704048812E-2,-6.169557199E-2,-2.402156889E-1
5.732214115E0,-5.650337320E-3,-7.879929990E-2,-2.163926363E-1
5.753507500E0,-3.817795310E-3,-6.291726977E-2,-2.060082406E-1
5.774800886E0,4.123218823E-3,-7.452336699E-2,-2.005106062E-1
5.796094271E0,-1.481304597E-2,-5.741964281E-2,-1.889045089E-1
5.817387709E0,6.154286116E-2,-1.954711229E-2,-1.809635013E-1
5.838681094E0,4.871506989E-2,-4.337015375E-2,-1.626380831E-1
5.859974479E0,-2.641914412E-2,-6.658235192E-2,-1.351499557E-1
5.881267865E0,-1.298050396E-2,-4.398100078E-2,-1.302631795E-1
5.902561250E0,3.894151375E-2,-2.932066843E-2,-1.162136942E-1
5.923854688E0,5.971032009E-2,-4.825693369E-2,-9.116895497E-2
5.945148073E0,-6.123743951E-2,-8.735115826E-2,-6.306997687E-2
5.966441459E0,2.611372061E-2,-5.864133686E-2,-2.519745007E-2
5.987734844E0,3.649812192E-2,-5.741964281E-2,4.138490185E-2
6.009028229E0,3.649812192E-2,-2.321219631E-2,7.192726433E-2
6.030321615E0,2.550287358E-2,-2.382304333E-2,8.597674966E-2
6.051615000E0,-5.039489828E-3,1.282779220E-2,1.256818175E-1
6.072908438E0,7.437065244E-2,-1.038440317E-2,1.482831687E-1
6.094201823E0,7.375980914E-2,-9.162709117E-3,1.440072358E-1
6.115495209E0,-1.033858955E-1,-4.092676565E-2,1.965401024E-1
6.136788594E0,5.665608495E-2,1.221694518E-3,1.629435122E-1
6.158081979E0,1.391204596E-1,2.260134928E-2,1.574458778E-1
6.179375365E0,6.566607859E-3,3.665083647E-2,1.299577504E-1
6.200668750E0,-5.024218559E-2,2.321219631E-2,9.575030953E-2
6.221962136E0,4.734066315E-3,6.841489673E-2,6.459710002E-2
6.243255521E0,-3.191677108E-2,3.665083647E-2,7.009471953E-2
6.264548907E0,-4.046862945E-2,-7.330167107E-3,8.414421231E-2
6.285842292E0,8.399149403E-3,9.773556143E-3,7.803573459E-2
6.307135729E0,-3.817795310E-3,-1.160609815E-2,6.642963737E-2
6.328429115E0,1.267508045E-2,-1.710372418E-2,5.482354015E-2
6.349722500E0,-1.437018216E-1,-2.076880634E-2,5.421269313E-2
6.371015886E0,6.215370819E-2,-4.275930673E-2,3.100049868E-2
6.392309271E0,2.916795574E-2,2.260134928E-2,1.389677543E-2
6.413602657E0,-6.612421572E-2,1.160609815E-2,-1.374406274E-3
6.434896042E0,-4.657710344E-2,-2.748812735E-2,2.489202656E-2
6.456189427E0,-5.039489828E-3,-6.719320081E-3,1.084253844E-2
6.477482813E0,1.145338640E-2,4.275931045E-3,1.068982761E-3
6.498776198E0,-4.474456236E-2,-4.092676565E-2,2.855710872E-2
6.520069584E0,7.788302377E-3,-6.536065787E-2,4.932591692E-2
6.541362969E0,-7.589777559E-2,-4.642439261E-2,4.321744293E-2
6.562656354E0,-3.741439432E-2,-5.253286287E-2,2.428117767E-2
6.583949740E0,6.398624927E-2,-2.199050039E-2,3.955236077E-2
6.605243125E0,-5.940489471E-2,-3.665083554E-3,5.971032009E-2
6.626536511E0,-4.840964451E-2,1.038440317E-2,5.787777901E-2
6.647829844E0,4.443913698E-2,-1.343864016E-2,7.437065244E-2
6.669123229E0,-9.177979827E-2,1.954711229E-2,7.803573459E-2
6.690416615E0,-5.635065958E-2,6.169557199E-2,8.842013776E-2
6.711710000E0,1.061347127E-1,3.848337755E-2,1.226275861E-1
6.733003386E0,1.389677543E-2,5.619794875E-2,1.378987730E-1
6.754296771E0,2.977880463E-2,6.230641901E-2,1.372879148E-1
6.775590157E0,-6.872031838E-3,5.925218388E-2,1.635543555E-1
6.796883542E0,-6.261184346E-3,5.253286287E-2,1.739387512E-1
6.818176927E0,4.321744293E-2,6.536065787E-2,1.623326540E-1
6.839470313E0,4.566083103E-2,7.818844914E-2,1.763821393E-1
6.860763698E0,2.916795574E-2,7.757759839E-2,1.788255423E-1
6.882057032E0,-6.673506647E-2,6.719319522E-2,1.592784226E-1
6.903350417E0,-1.298050396E-2,5.680879578E-2,1.568350345E-1
6.924643802E0,-8.628217876E-2,6.536065787E-2,1.745496094E-1
6.945937188E0,-5.757235363E-2,2.748812735E-2,1.629435122E-1
6.967230573E0,-3.741439432E-2,3.237490356E-2,1.372879148E-1
6.988523907E0,-5.085303262E-2,5.680879578E-2,9.880454093E-2
7.009817292E0,7.498150319E-2,8.246438205E-2,5.726693198E-2
7.031110677E0,2.794626169E-2,1.068982705E-1,4.138490185E-2
7.052404063E0,4.123218823E-3,1.117850468E-1,-9.926267900E-3
7.073697448E0,7.192726433E-2,1.240019947E-1,-6.856760383E-2
7.094990782E0,4.993676394E-2,1.233911440E-1,-9.116895497E-2
7.116284167E0,1.023169141E-2,4.398100078E-2,-8.689302206E-2
7.137577552E0,-2.580829710E-2,1.099525020E-2,-6.673506647E-2
7.158870938E0,1.328592747E-2,1.404948719E-2,-9.910997003E-2
7.180164323E0,3.405473381E-2,1.343864016E-2,-1.204896197E-1
7.201457657E0,2.901524538E-3,-1.832541777E-3,-1.058292910E-1
7.222751042E0,3.466558084E-2,-1.160609815E-2,-9.422318637E-2
7.244044427E0,1.634016447E-2,-2.137965336E-2,-7.101099193E-2
7.265337813E0,3.100049868E-2,-3.481829539E-2,-4.840964451E-2
7.286631146E0,9.330692142E-2,-3.665083554E-3,-5.635065958E-2
7.307924532E0,6.459710002E-2,1.771457121E-2,-4.413371533E-2
7.329217917E0,-3.802524135E-2,-2.199050039E-2,-3.802524135E-2
7.350511250E0,-2.580829710E-2,1.404948719E-2,-4.718795046E-2
7.371804636E0,1.068982761E-3,1.099525020E-2,-3.313846514E-2
7.393098021E0,-5.329642445E-2,1.710372418E-2,-3.497100621E-2
7.414391354E0,2.428117767E-2,4.337015375E-2,-4.779879749E-2
7.435684740E0,6.093201414E-2,2.260134928E-2,-3.436015919E-2
7.456978125E0,-8.567132801E-2,4.764608666E-2,-2.275406010E-2
7.478271459E0,2.916795574E-2,5.741964281E-2,-4.291202128E-2
7.499564844E0,8.108997345E-2,5.864133686E-2,-3.619270027E-2
7.520858229E0,-2.825168520E-2,6.780404598E-2,-2.092151903E-2
7.542151563E0,4.321744293E-2,1.588202827E-2,-3.252761811E-2
7.563444948E0,-2.153236605E-2,2.076880634E-2,-1.603474095E-2
7.584738334E0,-4.428642802E-3,2.504473738E-2,-9.926267900E-3
7.606031667E0,5.955760833E-3,4.275931045E-3,-3.863608837E-2
7.627325052E0,-6.184828654E-2,7.330167107E-3,-2.458660305E-2
7.648618386E0,-9.666658193E-2,6.597150117E-2,-1.455343664E-1
7.669911771E0,-1.101052165E-1,3.787253052E-2,-2.153236605E-2
7.691205157E0,5.115845799E-2,-2.015795931E-2,2.916795574E-2
7.712498490E0,2.733541466E-2,8.796200156E-2,-1.137702987E-1
7.733791875E0,-5.039489828E-3,1.527118124E-2,-1.345391124E-1
7.755085209E0,-4.107947648E-2,-6.230641901E-2,-2.031067200E-2
7.776378594E0,-3.008422814E-2,1.221694518E-3,-7.956285775E-2
7.797671927E0,-3.191677108E-2,3.054236248E-2,-1.070509851E-1
7.818965313E0,1.267508045E-2,-1.954711229E-2,-4.657710344E-2
7.840258646E0,-4.428642802E-3,5.497625470E-2,-7.834116369E-2
7.861552032E0,6.154286116E-2,3.115320951E-2,-8.322793990E-2
7.882845365E0,-1.053711493E-2,3.054236248E-2,-2.825168520E-2
7.904138750E0,4.993676394E-2,2.443389036E-2,-3.558185324E-2
7.925432084E0,9.009997360E-3,4.886778072E-3,-1.542389300E-2
7.946725469E0,-1.162136942E-1,-8.796200156E-2,2.855710872E-2
7.968018802E0,-1.198787764E-1,-1.038440317E-2,1.817270555E-2
7.989312188E0,-3.619270027E-2,2.015795931E-2,3.466558084E-2
8.010605521E0,6.887302548E-2,-6.108472589E-3,5.787777901E-2
8.031898907E0,-9.422318637E-2,-1.527118124E-2,9.636115283E-2
8.053192240E0,-1.149920002E-1,-4.153761268E-2,1.183516532E-1
8.074485625E0,-2.458660305E-2,-2.809897438E-2,1.342336833E-1
8.095778959E0,-1.236965694E-2,-8.674030751E-2,1.513374150E-1
8.117072292E0,-9.315420873E-3,-3.359659761E-2,1.250709742E-1
8.138365677E0,4.443913698E-2,-2.015795931E-2,1.165191159E-1
8.159659011E0,8.536590636E-2,-6.719319522E-2,9.086353332E-2
8.180952396E0,-8.506047726E-2,-5.131116882E-2,6.948387623E-2
8.202245729E0,5.421269313E-2,-2.748812735E-2,6.826218218E-2
8.223539063E0,8.353336155E-2,-3.542914242E-2,5.726693198E-2
8.244832448E0,-2.641914412E-2,-7.574506104E-2,2.794626169E-2
8.266125782E0,9.819369763E-2,1.771457121E-2,-1.527118147E-4
8.287419115E0,3.771981969E-2,-1.710372418E-2,5.344913341E-3
8.308712500E0,-3.558185324E-2,-5.253286287E-2,1.084253844E-2
8.330005834E0,2.244863659E-2,-3.359659761E-2,-7.635590737E-4
8.351299167E0,3.588727489E-2,7.941014133E-3,6.566607859E-3
8.372592552E0,2.901524538E-3,4.337015375E-2,-5.650337320E-3
8.393885886E0,1.849340051E-1,9.590301663E-2,-4.657710344E-2
8.415179219E0,-4.535540938E-2,5.497625470E-2,-2.702999115E-2
8.436472604E0,-3.817795310E-3,1.588202827E-2,-8.704573847E-3
8.457765938E0,1.267508045E-2,4.275931045E-3,6.032116711E-2
8.479059271E0,4.688252881E-2,-7.024743408E-2,5.543438718E-2
8.500352604E0,-1.236965694E-2,9.773556143E-3,2.183778957E-2
8.521645990E0,1.145338640E-2,-1.649287529E-2,-1.114796288E-2
8.542939323E0,-3.252761811E-2,-7.330167294E-2,4.123218823E-3
8.564232657E0,4.734066315E-3,-7.818844914E-2,-1.481304597E-2
8.585525990E0,-5.085303262E-2,-6.658235192E-2,-6.001574174E-2
8.606819375E0,-9.422318637E-2,-1.203369126E-1,-1.003316641E-1
8.628112709E0,-1.064401343E-1,-1.466033459E-1,-1.430909634E-1
8.649406042E0,2.183778957E-2,-1.722589284E-1,-1.650814712E-1
8.670699375E0,-1.437018216E-1,-1.484358907E-1,-1.815743446E-1
8.691992709E0,3.344388679E-2,-9.895725548E-2,-2.102841735E-1
8.713286094E0,1.084253844E-2,-3.665083554E-3,-1.992889196E-1
8.734579427E0,-1.236965694E-2,-8.857285231E-2,-1.931804419E-1
8.755872761E0,-2.090624720E-1,-9.162709117E-2,-1.614163816E-1
8.777166094E0,-1.481304597E-2,-5.314370990E-2,-1.461452097E-1
8.798459427E0,-3.680354729E-2,-9.284878522E-2,-1.052184403E-1
8.819752761E0,-6.978929788E-2,-8.429691941E-2,-8.078455180E-2
8.841046094E0,1.572931744E-2,-1.075091213E-1,-9.422318637E-2
8.862339479E0,7.788302377E-3,-8.429691941E-2,-6.123743951E-2
8.883632813E0,-7.482878864E-3,-1.307213157E-1,-3.191677108E-2
8.904926146E0,-2.458660305E-2,-1.068982705E-1,-3.985778242E-2
8.926219479E0,-7.406523079E-2,-8.551861346E-2,-2.947338112E-2
8.947512813E0,-4.413371533E-2,-8.368607610E-2,-1.664558798E-2
8.968806146E0,-1.236965694E-2,-7.635590434E-2,-2.596100792E-3
8.990099479E0,4.932591692E-2,-2.137965336E-2,1.756185852E-2
9.011392813E0,-1.359135192E-2,-7.024743408E-2,4.871506989E-2
9.032686146E0,5.344913341E-3,-4.275930673E-2,7.375980914E-2
9.053979479E0,5.360184610E-2,-5.986303091E-2,7.864658535E-2
9.075272813E0,-1.420219894E-2,-2.260134928E-2,1.110214889E-1
9.096566146E0,1.030804738E-1,-4.764608666E-2,1.238492802E-1
9.117859479E0,-4.413371533E-2,-4.581354558E-2,1.446180940E-1
9.139152813E0,4.871506989E-2,-3.054236295E-3,1.586675793E-1
9.160446146E0,1.165191159E-1,9.162709117E-3,1.916533262E-1
9.181739479E0,9.009997360E-3,2.199050039E-2,2.301367074E-1
9.203032813E0,-5.879404768E-2,-4.642439261E-2,2.735068500E-1
9.224326146E0,5.299099907E-2,3.420744836E-2,2.820587158E-1
9.245619479E0,7.070557028E-2,1.099525020E-2,3.443651497E-1
9.266912813E0,-1.969982497E-2,2.565558441E-2,3.700207174E-1
9.288206146E0,1.788255423E-1,5.986303091E-2,3.712424338E-1
9.309499479E0,-8.200624585E-2,4.642439261E-2,4.103366435E-1
9.330792813E0,-6.306997687E-2,3.970507160E-2,4.561502039E-1
9.352086146E0,9.513945878E-2,9.345962852E-2,4.915793240E-1
9.373379479E0,1.695101149E-2,2.504473738E-2,5.123481154E-1
9.394672813E0,1.122431830E-1,4.337015375E-2,5.404471159E-1
9.415966146E0,9.636115283E-2,1.087308154E-1,5.599942207E-1
9.437259479E0,-8.704573847E-3,7.085828483E-2,4.842491746E-1
9.458552761E0,-1.467560530E-1,1.441599578E-1,4.995203316E-1
9.479846094E0,-4.596625641E-2,5.008947477E-2,5.080721974E-1
9.501139427E0,2.173089087E-1,2.180724740E-1,4.475983381E-1
9.522432761E0,-2.825168520E-2,7.879929990E-2,4.549284875E-1
9.543726094E0,1.267508045E-2,1.514901221E-1,4.097257853E-1
9.565019427E0,-3.374931216E-2,1.875301152E-1,3.651339412E-1
9.586312709E0,9.819369763E-2,1.783674061E-1,3.669664860E-1
9.607606042E0,1.511846948E-2,1.386623234E-1,3.431434333E-1
9.628899375E0,-3.817795310E-3,1.472141892E-1,3.309265077E-1
9.650192709E0,2.290677279E-3,1.545443535E-1,3.339807391E-1
9.671486042E0,-4.596625641E-2,2.809897438E-2,3.370349705E-1
9.692779375E0,-1.053711493E-2,1.136175916E-1,2.820587158E-1
9.714072657E0,5.848862603E-2,1.166718230E-1,2.490729690E-1
9.735365990E0,4.566083103E-2,1.386623234E-1,2.338017821E-1
9.756659323E0,1.440072358E-1,1.643179059E-1,1.843231618E-1
9.777952604E0,9.941539168E-2,1.417165697E-1,1.653869003E-1
9.799245938E0,-1.296523362E-1,1.044548824E-1,1.403421611E-1
9.820539271E0,1.068982761E-3,-2.626643144E-2,1.250709742E-1
9.841832604E0,-1.908897609E-2,7.635590434E-2,9.941539168E-2
9.863125886E0,9.025268257E-2,5.803048983E-2,4.382828996E-2
9.884419219E0,7.788302377E-3,3.481829539E-2,-1.374406274E-3
9.905712552E0,5.971032009E-2,5.436540768E-2,-6.062658876E-2
9.927005834E0,1.085781008E-1,5.253286287E-2,-7.284353673E-2
9.948299167E0,4.199574888E-2,3.359659761E-2,-9.605573118E-2
9.969592500E0,-1.088835225E-1,-2.321219631E-2,-9.361234307E-2
9.990885782E0,2.855710872E-2,2.993151546E-2,-1.137702987E-1
1.001217912E1,1.012479365E-1,1.282779220E-2,-1.119377613E-1
1.003347245E1,-1.241547018E-1,1.954711229E-2,-1.009425074E-1
1.005476573E1,-1.969982497E-2,-2.076880634E-2,-1.052184403E-1
1.007605906E1,-4.107947648E-2,-6.108472496E-2,-7.834116369E-2
1.009735234E1,-4.230117425E-2,7.330167107E-3,-6.734590977E-2
1.011864568E1,6.398624927E-2,-1.710372418E-2,-8.078455180E-2
1.013993901E1,-3.436015919E-2,-3.176405653E-2,-6.245913357E-2
1.016123229E1,-2.153236605E-2,-2.870982140E-2,-7.284353673E-2
1.018252562E1,4.138490185E-2,6.047387794E-2,-1.076618284E-1
1.020381891E1,-1.162136942E-1,-1.466033421E-2,-1.046075895E-1
1.022511224E1,8.231166750E-2,5.131116882E-2,-1.418692768E-1
1.024640552E1,8.597674966E-2,5.070032179E-2,-1.418692768E-1
1.026769885E1,-4.474456236E-2,-7.879929990E-2,-1.149920002E-1
1.028899214E1,2.061609551E-2,-2.443389036E-3,-1.382041872E-1
1.031028547E1,3.405473381E-2,-3.054236248E-2,-1.461452097E-1
1.033157875E1,2.550287358E-2,-1.099525020E-2,-1.473668963E-1
1.035287208E1,-7.162184268E-2,-4.031591862E-2,-1.553079188E-1
1.037416537E1,2.428117767E-2,-3.603998944E-2,-1.351499557E-1
1.039545870E1,1.030804738E-1,1.221694518E-2,-1.253764033E-1
1.041675198E1,-8.689302206E-2,-5.253286287E-2,-1.094943732E-1
1.043804526E1,7.131642103E-2,-7.452336699E-2,-1.149920002E-1
1.045933859E1,-9.972081333E-2,-6.963659078E-2,-8.444963396E-2
1.048063188E1,-6.306997687E-2,-9.223793447E-2,-7.223268598E-2
1.050192521E1,4.077405483E-2,-5.986303091E-2,-6.123743951E-2
1.052321849E1,-1.542389300E-2,-8.429691941E-2,-4.535540938E-2
1.054451182E1,5.909947306E-2,-5.986303091E-2,-3.558185324E-2
1.056580510E1,-2.886253223E-2,-5.619794875E-2,-3.313846514E-2
1.058709839E1,-4.657710344E-2,-8.918370306E-2,-1.175880991E-2
1.060839172E1,1.023169141E-2,-6.719320081E-3,-4.428642802E-3
1.062968500E1,-9.926267900E-3,-3.542914242E-2,-6.872031838E-3
1.065097828E1,3.222219273E-2,-7.452336699E-2,6.520794332E-2
1.067227162E1,-1.481304597E-2,-3.848337755E-2,7.803573459E-2
1.069356490E1,-2.519745007E-2,-6.719319522E-2,9.391776472E-2
1.071485818E1,2.305948362E-2,-2.687728032E-2,1.195733473E-1
1.073615151E1,4.581354442E-4,-1.282779220E-2,1.226275861E-1
1.075744479E1,-3.741439432E-2,-6.597150117E-2,1.617218107E-1
1.077873807E1,-9.926267900E-3,6.108472496E-2,1.659977436E-1
1.080003141E1,-1.908897609E-2,-2.687728032E-2,1.769929975E-1
1.082132469E1,1.817270555E-2,6.108472589E-4,2.191414535E-1
1.084261797E1,5.482354015E-2,2.137965336E-2,2.252499312E-1
1.086391125E1,-2.092151903E-2,2.626643144E-2,2.417428046E-1
1.088520458E1,1.110214889E-1,7.757759839E-2,2.600682080E-1
1.090649786E1,-6.978929788E-2,7.941014133E-3,2.698417902E-1
1.092779115E1,3.038965166E-2,4.703523964E-2,2.673983872E-1
1.094908443E1,8.170082420E-2,7.513421029E-2,2.686200738E-1
1.097037776E1,1.287360638E-1,8.551861346E-2,2.753393948E-1
1.099167104E1,3.588727489E-2,1.032331884E-1,2.661767006E-1
1.101296432E1,1.068982761E-3,5.070032179E-2,2.710634768E-1
1.103425760E1,7.559234649E-2,1.563768983E-1,2.735068500E-1
1.105555089E1,-1.481304597E-2,6.597150117E-2,2.588465214E-1
1.107684417E1,-1.542389300E-2,7.635590434E-2,2.619007528E-1
1.109813745E1,-1.601946950E-1,5.741964281E-2,2.564031482E-1
1.111943078E1,6.032116711E-2,1.160609797E-1,2.423536479E-1
1.114072406E1,-1.969982497E-2,1.783674061E-1,2.338017821E-1
1.116201734E1,-4.963133857E-2,7.207997888E-2,2.392994165E-1
1.118331062E1,1.110214889E-1,1.374406368E-1,2.490729690E-1
1.120460391E1,-6.551336497E-2,5.986303091E-2,2.191414535E-1
1.122589719E1,7.009471953E-2,8.002099395E-2,2.105895877E-1
1.124719047E1,6.032116711E-2,1.630962193E-1,1.953184158E-1
1.126848375E1,9.758284688E-2,6.352811307E-2,1.751604527E-1
1.128977703E1,4.504998401E-2,1.502684206E-1,1.666085869E-1
1.131107031E1,2.305948362E-2,8.551861346E-2,1.464506239E-1
1.133236359E1,3.512371797E-3,9.407047927E-2,1.330119967E-1
1.135365688E1,-1.021642014E-1,8.246438205E-2,1.097997949E-1
1.137495016E1,1.696628332E-1,9.345962852E-2,8.231166750E-2
1.139624344E1,-4.657710344E-2,1.606528312E-1,6.642963737E-2
1.141753672E1,-7.711946964E-2,9.162709117E-3,4.688252881E-2
1.143883000E1,1.572931744E-2,6.658235192E-2,1.206423342E-2
1.146012328E1,-2.031067200E-2,6.108472496E-2,7.177455351E-3
1.148141656E1,5.115845799E-2,3.542914242E-2,-2.825168520E-2
1.150270984E1,-1.455343664E-1,-9.773556143E-3,-4.230117425E-2
1.152400312E1,2.611372061E-2,4.214845970E-2,-6.856760383E-2
1.154529641E1,-8.261708915E-2,1.710372418E-2,-9.300149232E-2
1.156658969E1,-9.300149232E-2,-8.551862091E-3,-1.223221645E-1
1.158788297E1,-6.062658876E-2,-1.832541823E-2,-1.211004704E-1
1.160917625E1,-4.352286831E-2,2.137965336E-2,-1.217113137E-1
1.163046953E1,1.679830020E-3,2.443389036E-3,-1.314848661E-1
1.165176276E1,1.068982761E-3,2.870982140E-2,-1.107160673E-1
1.167305604E1,9.620844387E-3,4.031591862E-2,-8.628217876E-2
1.169434932E1,-8.093725890E-3,2.565558441E-2,-1.156028435E-1
1.171564260E1,7.070557028E-2,9.162709117E-3,-1.284306347E-1
1.173693589E1,1.756185852E-2,-1.221694518E-2,-9.910997003E-2
1.175822917E1,1.195733473E-1,2.260134928E-2,-1.192679256E-1
1.177952240E1,-1.114796288E-2,2.443389036E-2,-1.211004704E-1
1.180081568E1,5.482354015E-2,-4.642439261E-2,-1.272089481E-1
1.182210896E1,-6.872031838E-3,-3.054236295E-3,-1.259872466E-1
1.184340224E1,-5.268557742E-2,-5.131116882E-2,-1.479777545E-1
1.186469552E1,1.328592747E-2,-1.893626526E-2,-1.491994411E-1
1.188598875E1,-3.924693540E-2,-2.809897438E-2,-1.430909634E-1
1.190728203E1,1.476723254E-1,3.481829539E-2,-1.516428292E-1
1.192857531E1,-5.085303262E-2,-2.260134928E-2,-1.443126649E-1
1.194986854E1,1.756185852E-2,-1.221694518E-2,-1.229330078E-1
1.197116182E1,-8.628217876E-2,-7.146912813E-2,-1.076618284E-1
1.199245510E1,2.672456764E-2,-7.085828483E-2,-1.168245375E-1
1.201374839E1,-2.764083818E-2,-4.581354558E-2,-9.605573118E-2
1.203504162E1,7.131642103E-2,-4.153761268E-2,-7.162184268E-2
1.205633490E1,-5.085303262E-2,-1.007898003E-1,-5.696150661E-2
1.207762818E1,-8.093725890E-3,-3.848337755E-2,-5.268557742E-2
1.209892141E1,6.337540597E-2,-1.832541823E-2,-5.757235363E-2
1.212021469E1,-3.619270027E-2,-2.443389036E-3,-3.008422814E-2
1.214150792E1,-6.734590977E-2,-2.993151546E-2,-2.519745007E-2
1.216280120E1,5.238015205E-2,7.330167107E-3,-8.093725890E-3
1.218409448E1,1.068982761E-3,4.764608666E-2,1.023169141E-2
1.220538771E1,8.231166750E-2,4.886778072E-2,4.077405483E-2
1.222668099E1,-6.612421572E-2,-4.398100078E-2,7.192726433E-2
1.224797422E1,-1.374406274E-3,3.176405653E-2,8.108997345E-2
1.226926750E1,6.398624927E-2,3.909422457E-2,8.964183182E-2
1.229056073E1,5.115845799E-2,5.436540768E-2,1.000262350E-1
1.231185401E1,-3.924693540E-2,1.771457121E-2,1.024696305E-1
1.233314724E1,-2.886253223E-2,3.115320951E-2,1.097997949E-1
1.235444052E1,9.452861547E-2,4.764608666E-2,9.208522737E-2
1.237573375E1,7.177455351E-3,4.398100078E-2,8.597674966E-2
1.239702703E1,1.267508045E-2,4.275930673E-2,8.414421231E-2
1.241832026E1,2.305948362E-2,6.536065787E-2,6.887302548E-2
1.243961354E1,-4.428642802E-3,6.413896382E-2,5.482354015E-2
1.246090677E1,-8.567132801E-2,3.420744836E-2,2.733541466E-2
1.248220005E1,7.437065244E-2,6.841489673E-2,5.955760833E-3
1.250349328E1,4.734066315E-3,2.137965336E-2,-1.374406274E-3
1.252478651E1,1.328592747E-2,3.298575059E-2,-1.725643501E-2
1.254607979E1,8.399149403E-3,-1.038440317E-2,-2.214321308E-2
1.256737302E1,-9.055810422E-2,-2.321219631E-2,-4.046862945E-2
1.258866630E1,5.238015205E-2,1.466033421E-2,-6.184828654E-2
1.260995953E1,-4.428642802E-3,-3.054236248E-2,-4.474456236E-2
1.263125276E1,-3.924693540E-2,-7.941014133E-3,-5.879404768E-2
1.265254604E1,-1.217113137E-1,-2.932066843E-2,-5.696150661E-2
1.267383927E1,-1.021642014E-1,1.832541823E-2,-5.268557742E-2
1.269513250E1,2.489202656E-2,1.588202827E-2,-4.779879749E-2
1.271642573E1,-1.204896197E-1,-2.076880634E-2,-4.230117425E-2
1.273771901E1,9.009997360E-3,4.642439261E-2,-3.008422814E-2
1.275901224E1,4.321744293E-2,6.108472589E-4,-3.802524135E-2
1.278030547E1,-1.175880991E-2,-3.176405653E-2,-2.336490713E-2
1.280159870E1,-8.093725890E-3,-5.070032179E-2,-1.542389300E-2
1.282289198E1,-9.300149232E-2,-8.857285231E-2,-5.024218559E-2
1.284418521E1,3.771981969E-2,-3.726168349E-2,-7.956285775E-2
1.286547844E1,-1.033858955E-1,-9.773556143E-2,-8.567132801E-2
1.288677167E1,2.901524538E-3,-2.687728032E-2,-1.174353883E-1
1.290806490E1,-6.245913357E-2,-6.719319522E-2,-1.272089481E-1
1.292935812E1,-5.573981255E-2,-5.131116882E-2,-1.491994411E-1
1.295065135E1,-3.680354729E-2,-5.925218388E-2,-1.504211426E-1
1.297194458E1,-7.223268598E-2,-9.284878522E-2,-1.687465608E-1
1.299323787E1,9.819369763E-2,-4.031591862E-2,-1.705790907E-1
1.301453109E1,-1.058292910E-1,-1.246128380E-1,-1.571404636E-1
1.303582432E1,-5.024218559E-2,-8.002099395E-2,-1.601946950E-1
1.305711755E1,-3.817795310E-3,-7.941014320E-2,-1.467560530E-1
1.307841078E1,-4.779879749E-2,-9.345962852E-2,-1.351499557E-1
1.309970401E1,-8.444963396E-2,-8.124268800E-2,-1.088835225E-1
1.312099724E1,-5.024218559E-2,-8.612946421E-2,-1.125486046E-1
1.314229042E1,-3.130592033E-2,-7.207997888E-2,-4.902049154E-2
1.316358365E1,3.222219273E-2,-7.207997888E-2,-1.420219894E-2
1.318487688E1,-1.033858955E-1,-5.436540768E-2,-1.985253533E-3
1.320617010E1,8.536590636E-2,-6.108472589E-4,2.611372061E-2
1.322746333E1,4.199574888E-2,-4.092676565E-2,7.925742865E-2
1.324875656E1,1.328592747E-2,6.108472589E-4,1.036913246E-1
1.327004979E1,-9.361234307E-2,-6.719320081E-3,1.427855492E-1
1.329134302E1,-1.724116355E-1,-6.474980712E-2,1.849340051E-1
1.331263625E1,-3.924693540E-2,-4.031591862E-2,2.075353563E-1
1.333392943E1,-8.689302206E-2,-2.565558441E-2,2.301367074E-1
1.335522266E1,9.009997360E-3,-2.076880634E-2,2.515163720E-1
1.337651589E1,2.916795574E-2,2.443389036E-3,2.472404242E-1
1.339780912E1,-1.363716573E-1,-7.330167107E-3,2.637332976E-1
1.341910234E1,1.030804738E-1,5.131116882E-2,2.564031482E-1
1.344039552E1,5.787777901E-2,1.893626526E-2,2.661767006E-1
1.346168875E1,-5.268557742E-2,-3.115320951E-2,2.728960216E-1
1.348298198E1,1.159082651E-1,6.413896382E-2,2.551814318E-1
1.350427516E1,-1.664558798E-2,4.337015375E-2,2.484621257E-1
1.352556839E1,4.581354442E-4,-6.719320081E-3,2.392994165E-1
1.354686162E1,-1.053711493E-2,5.253286287E-2,2.356343269E-1
1.356815479E1,5.909947306E-2,5.680879578E-2,2.050919682E-1
1.358944802E1,-2.947338112E-2,7.696675509E-2,1.763821393E-1
1.361074120E1,-3.130592033E-2,9.712471068E-2,1.776038408E-1
1.363203443E1,-3.252761811E-2,5.131116882E-2,1.873773932E-1
1.365332766E1,-1.542389300E-2,1.276670843E-1,1.934858710E-1
1.367462083E1,4.016320780E-2,6.536065787E-2,2.075353563E-1
1.369591406E1,-3.817795310E-3,5.314370990E-2,2.148655206E-1
1.371720724E1,3.955236077E-2,9.468132257E-2,2.301367074E-1
1.373850047E1,-1.664558798E-2,1.649287529E-2,2.338017821E-1
1.375979365E1,-8.322793990E-2,2.687728032E-2,2.081461996E-1
1.378108688E1,5.299099907E-2,1.087308154E-1,2.044811249E-1
1.380238005E1,2.061609551E-2,6.719319522E-2,1.922641695E-1
1.382367328E1,-2.596100792E-3,1.081199646E-1,1.647760421E-1
1.384496646E1,1.525591016E-1,1.087308154E-1,1.586675793E-1
1.386625969E1,1.145338640E-2,1.044548824E-1,1.495048702E-1
1.388755287E1,-6.261184346E-3,1.386623234E-1,1.207950488E-1
1.390884604E1,1.572931744E-2,6.108472496E-2,1.299577504E-1
1.393013927E1,-6.490252167E-2,2.932066843E-2,1.134648770E-1
1.395143245E1,-4.718795046E-2,7.757759839E-2,8.108997345E-2
1.397272562E1,3.512371797E-3,9.223793447E-2,7.192726433E-2
1.399401885E1,-6.261184346E-3,8.490777016E-2,6.276455522E-2
1.401531203E1,1.091889441E-1,9.895725548E-2,3.955236077E-2
1.403660521E1,2.901524538E-3,1.044548824E-1,2.244863659E-2
1.405789844E1,3.710897267E-2,4.092676565E-2,5.955760833E-3
1.407919162E1,-4.046862945E-2,5.375456065E-2,1.023169141E-2
1.410048479E1,1.206423342E-2,7.207997888E-2,-7.635590737E-4
1.412177802E1,8.292251825E-2,4.214845970E-2,-1.420219894E-2
1.414307120E1,5.344913341E-3,5.741964281E-2,-2.092151903E-2
1.416436438E1,-1.298050396E-2,9.834641218E-2,-3.802524135E-2
1.418565755E1,-3.206948051E-3,4.764608666E-2,-2.519745007E-2
1.420695073E1,-2.580829710E-2,3.726168349E-2,-2.214321308E-2
1.422824396E1,4.260659590E-2,4.825693369E-2,-4.230117425E-2
1.424953714E1,-7.635590737E-4,3.115320951E-2,-3.863608837E-2
1.427083031E1,-1.119377613E-1,1.466033421E-2,-2.947338112E-2
1.429212349E1,2.977880463E-2,1.954711229E-2,-5.635065958E-2
1.431341667E1,-2.702999115E-2,4.398100078E-2,-4.474456236E-2
1.433470990E1,-2.031067200E-2,1.527118124E-2,-6.368082762E-2
1.435600307E1,-1.259872466E-1,-3.298575059E-2,-9.544488788E-2
1.437729625E1,-1.583621502E-1,2.748812735E-2,-9.666658193E-2
1.439858943E1,6.398624927E-2,4.092676565E-2,-8.628217876E-2
1.441988260E1,5.971032009E-2,4.214845970E-2,-9.727742523E-2
1.444117578E1,-5.146388337E-2,-2.382304333E-2,-8.811471611E-2
1.446246896E1,-8.704573847E-3,-1.038440317E-2,-8.750387281E-2
1.448376214E1,3.894151375E-2,-1.588202827E-2,-9.116895497E-2
1.450505531E1,-4.230117425E-2,-4.214845970E-2,-1.052184403E-1
1.452634849E1,-1.969982497E-2,-4.581354558E-2,-1.394258887E-1
1.454764167E1,1.232384369E-1,-7.941014133E-3,-1.437018216E-1
1.456893484E1,7.788302377E-3,-0.000000000E0,-1.571404636E-1
1.459022802E1,-1.027750522E-1,-1.233911440E-1,-1.595838517E-1
1.461152120E1,9.009997360E-3,-6.658235192E-2,-1.620272398E-1
1.463281438E1,9.025268257E-2,-3.787253052E-2,-1.510319859E-1
1.465410755E1,-6.123743951E-2,-9.773556143E-2,-1.510319859E-1
1.467540073E1,-8.444963396E-2,-1.191152185E-1,-2.035648525E-1
1.469669391E1,-2.031067200E-2,-4.764608666E-2,-1.730224788E-1
1.471798708E1,-3.985778242E-2,-9.162709117E-2,-1.412584335E-1
1.473928026E1,-1.265980899E-1,-1.087308154E-1,-1.528645307E-1
1.476057344E1,-1.847812906E-2,-6.658235192E-2,-1.742441803E-1
1.478186662E1,-1.327065676E-1,-6.780404598E-2,-1.504211426E-1
1.480315979E1,5.909947306E-2,-6.047387794E-2,-1.241547018E-1
1.482445297E1,-1.027750522E-1,-5.070032179E-2,-1.046075895E-1
1.484574609E1,3.405473381E-2,-3.909422457E-2,-1.272089481E-1
1.486703927E1,1.695101149E-2,-1.954711229E-2,-1.027750522E-1
1.488833245E1,8.170082420E-2,-1.038440317E-2,-6.184828654E-2
1.490962562E1,5.344913341E-3,-5.070032179E-2,-4.107947648E-2
1.493091880E1,-3.374931216E-2,-3.054236248E-2,-3.252761811E-2
1.495221198E1,-9.315420873E-3,-1.221694518E-2,-3.924693540E-2
1.497350516E1,-3.130592033E-2,6.108472589E-4,-2.702999115E-2
1.499479828E1,-3.680354729E-2,1.588202827E-2,-3.817795310E-3
1.501609146E1,-4.963133857E-2,3.359659761E-2,-1.725643501E-2
1.503738464E1,1.679830020E-3,6.230641901E-2,-1.298050396E-2
1.505867781E1,-5.573981255E-2,7.452336699E-2,-1.527118147E-4
1.507997094E1,7.375980914E-2,7.513421029E-2,-3.817795310E-3
1.510126412E1,5.955760833E-3,5.803048983E-2,5.955760833E-3
1.512255729E1,-8.704573847E-3,5.619794875E-2,4.123218823E-3
1.514385047E1,-4.657710344E-2,6.658235192E-2,2.061609551E-2
1.516514359E1,-1.786728203E-2,5.803048983E-2,2.489202656E-2
1.518643677E1,1.817270555E-2,7.024743408E-2,2.733541466E-2
1.520772995E1,8.842013776E-2,1.337755471E-1,3.222219273E-2
1.522902313E1,-2.519745007E-2,9.773556143E-2,2.489202656E-2
1.525031625E1,4.382828996E-2,1.307213157E-1,3.710897267E-2
1.527160943E1,-8.444963396E-2,8.918370306E-2,4.932591692E-2
1.529290260E1,-2.886253223E-2,9.407047927E-2,3.100049868E-2
1.531419573E1,2.244863659E-2,1.020114943E-1,3.588727489E-2
1.533548891E1,8.964183182E-2,9.590301663E-2,3.771981969E-2
1.535678208E1,-6.123743951E-2,7.757759839E-2,4.443913698E-2
1.537807521E1,2.061609551E-2,9.407047927E-2,3.894151375E-2
1.539936839E1,-1.021642014E-1,5.070032179E-2,3.955236077E-2
1.542066151E1,1.207950488E-1,5.803048983E-2,1.572931744E-2
1.544195469E1,-1.058292910E-1,6.536065787E-2,1.206423342E-2
1.546324787E1,-3.924693540E-2,3.726168349E-2,-6.872031838E-3
1.548454099E1,8.780929446E-2,4.825693369E-2,4.581354442E-4
1.550583417E1,1.939439960E-2,5.008947477E-2,2.290677279E-3
1.552712729E1,2.290677279E-3,9.956810623E-2,-4.413371533E-2
1.554842047E1,4.504998401E-2,4.520269856E-2,-4.046862945E-2
1.556971365E1,-3.191677108E-2,3.970507160E-2,-5.268557742E-2
1.559100677E1,-4.535540938E-2,5.375456065E-2,-6.062658876E-2
1.561229995E1,7.925742865E-2,2.932066843E-2,-4.413371533E-2
1.563359307E1,-3.206948051E-3,-3.787253052E-2,-3.130592033E-2
1.565488625E1,-5.024218559E-2,-4.275931045E-3,-8.567132801E-2
1.567617938E1,5.299099907E-2,6.108472589E-3,-1.039967462E-1
1.569747255E1,-6.673506647E-2,-1.160609815E-2,-9.116895497E-2
1.571876568E1,7.559234649E-2,3.970507160E-2,-9.727742523E-2
1.574005885E1,8.597674966E-2,-4.886778072E-3,-9.239064902E-2
1.576135198E1,-4.596625641E-2,-1.343864016E-2,-9.361234307E-2
1.578264516E1,-8.383878320E-2,-6.841489673E-2,-8.689302206E-2
1.580393828E1,-4.535540938E-2,-9.773556143E-3,-8.017370105E-2
1.582523146E1,8.475505561E-2,-1.221694518E-2,-9.422318637E-2
1.584652458E1,3.405473381E-2,-4.459185153E-2,-9.361234307E-2
1.586781771E1,-3.817795310E-3,-6.291726977E-2,-8.811471611E-2
1.588911089E1,-6.734590977E-2,-4.092676565E-2,-9.666658193E-2
1.591040401E1,2.901524538E-3,-5.070032179E-2,-1.223221645E-1
1.593169719E1,1.511846948E-2,-7.085828483E-2,-1.290414780E-1
1.595299031E1,-5.146388337E-2,-1.203369126E-1,-1.583621502E-1
1.597428344E1,2.244863659E-2,-6.474980712E-2,-1.937913001E-1
1.599557662E1,-7.482878864E-3,-8.918370306E-2,-2.267770469E-1
1.601686974E1,-4.413371533E-2,-9.529217333E-2,-2.646495700E-1
1.603816286E1,8.231166750E-2,-8.796200156E-2,-2.841966748E-1
1.605945604E1,-6.123743951E-2,-1.612636745E-1,-2.854183912E-1
1.608074917E1,-5.268557742E-2,-1.374406368E-1,-3.312319219E-1
1.610204229E1,-1.498102844E-1,-1.875301152E-1,-3.477247953E-1
1.612333547E1,-5.039489828E-3,-1.417165697E-1,-3.562766612E-1
1.614462859E1,-5.390727147E-2,-1.435490996E-1,-3.629959822E-1
1.616592172E1,4.321744293E-2,-1.698155403E-1,-3.562766612E-1
1.618721484E1,2.733541466E-2,-1.991362125E-1,-3.367295563E-1
1.620850802E1,-1.369825006E-1,-2.015796006E-1,-3.257342875E-1
1.622980115E1,3.100049868E-2,-1.643179059E-1,-3.373403847E-1
1.625109427E1,9.009997360E-3,-1.850867122E-1,-3.061871827E-1
1.627238745E1,-7.589777559E-2,-1.899735034E-1,-2.414373755E-1
1.629368057E1,-1.527118147E-4,-2.394521236E-1,-2.273878902E-1
1.631497370E1,-9.972081333E-2,-1.948602796E-1,-1.919587553E-1
1.633626682E1,4.260659590E-2,-1.722589284E-1,-1.718007922E-1
1.635756000E1,-4.963133857E-2,-1.172826737E-1,-1.320957243E-1
1.637885313E1,1.939439960E-2,-1.435490996E-1,-7.101099193E-2
1.640014625E1,-1.589729935E-1,-1.319430023E-1,5.344913341E-3
1.642143938E1,1.354553849E-1,-1.270562261E-1,4.688252881E-2
1.644273250E1,-1.236965694E-2,-1.374406368E-1,1.287360638E-1
1.646402562E1,-3.558185324E-2,-9.895725548E-2,1.482831687E-1
1.648531880E1,-5.650337320E-3,-9.956810623E-2,1.995943487E-1
1.650661193E1,7.498150319E-2,-2.137965336E-2,2.551814318E-1
1.652790505E1,6.459710002E-2,-4.275931045E-3,3.119902313E-1
1.654919818E1,-1.969982497E-2,1.832541823E-2,3.700207174E-1
1.657049130E1,1.201841980E-1,2.382304333E-2,4.182776511E-1
1.659178443E1,-8.078455180E-2,8.185353130E-2,4.451549351E-1
1.661307755E1,4.123218823E-3,1.551551968E-1,4.732539058E-1
1.663437068E1,4.749337584E-2,1.514901221E-1,5.239542127E-1
1.665566380E1,-4.169032723E-2,1.954711229E-1,5.648810267E-1
1.667695698E1,3.283303976E-2,2.040229887E-1,5.942016840E-1
1.669825010E1,1.140757278E-1,2.302894145E-1,6.058077812E-1
1.671954323E1,3.161134571E-2,2.858765125E-1,6.241331697E-1
1.674083635E1,-5.039489828E-3,3.121429384E-1,6.143596172E-1
1.676212948E1,1.116323397E-1,3.127537966E-1,6.082511544E-1
1.678342260E1,5.299099907E-2,3.457395434E-1,5.887040496E-1
1.680471573E1,3.588727489E-2,3.579564989E-1,5.349494815E-1
1.682600885E1,1.122431830E-1,3.274141252E-1,5.178457499E-1
1.684730198E1,-2.214321308E-2,3.689517379E-1,4.714213610E-1
1.686859510E1,3.077143133E-1,3.933856487E-1,3.907895386E-1
1.688988823E1,-8.872556686E-2,3.432961702E-1,3.571929336E-1
1.691118135E1,1.817270555E-2,2.229592502E-1,2.777827978E-1
1.693247448E1,1.073564067E-1,3.353551328E-1,1.885990947E-1
1.695376760E1,-4.169032723E-2,2.235700935E-1,1.238492802E-1
1.697506073E1,1.817270555E-2,1.679829955E-1,2.428117767E-2
1.699635380E1,1.572931744E-2,1.856975704E-1,-7.650861889E-2
1.701764693E1,1.140757278E-1,1.667613089E-1,-1.748550236E-1
1.703894005E1,-4.963133857E-2,1.808107942E-1,-2.444916219E-1
1.706023318E1,2.672456764E-2,3.726168349E-2,-3.318427801E-1
1.708152630E1,2.489202656E-2,-2.443389036E-3,-3.972034156E-1
1.710281943E1,9.758284688E-2,1.649287529E-2,-4.876088202E-1
1.712411255E1,-4.352286831E-2,-1.294996142E-1,-5.523586273E-1
1.714540568E1,-8.994726092E-2,-1.692046970E-1,-5.877877474E-1
1.716669880E1,6.276455522E-2,-1.294996142E-1,-6.470399499E-1
1.718799188E1,4.734066315E-3,-1.899735034E-1,-7.020162344E-1
1.720928500E1,-1.359135192E-2,-2.333436459E-1,-7.166765332E-1
1.723057812E1,3.466558084E-2,-3.103103936E-1,-6.904101372E-1
1.725187125E1,-3.008422814E-2,-2.797680497E-1,-6.378772259E-1
1.727316438E1,-9.300149232E-2,-3.048127890E-1,-5.975613594E-1
1.729445745E1,4.932591692E-2,-3.145863414E-1,-5.602996349E-1
1.731575057E1,-2.463241518E-1,-3.096995652E-1,-4.570664763E-1
1.733704370E1,7.620319724E-2,-2.693836391E-1,-3.819322586E-1
1.735833682E1,-5.390727147E-2,-2.608317733E-1,-2.805316150E-1
1.737962995E1,-2.336490713E-2,-2.321219593E-1,-2.249445021E-1
1.740092302E1,-5.635065958E-2,-2.082989216E-1,-1.669140160E-1
1.742221615E1,-1.241547018E-1,-1.973036677E-1,-6.612421572E-2
1.744350927E1,-2.092151903E-2,-1.368297935E-1,-2.458660305E-2
1.746480240E1,3.512371797E-3,-1.111742035E-1,4.138490185E-2
1.748609547E1,-6.062658876E-2,-8.124268800E-2,1.061347127E-1
1.750738859E1,1.267508045E-2,-6.352811307E-2,1.568350345E-1
1.752868172E1,8.399149403E-3,-1.044548824E-1,2.197522968E-1
1.754997479E1,2.000524849E-2,-4.031591862E-2,2.576248348E-1
1.757126792E1,-6.978929788E-2,-2.076880634E-2,2.924431264E-1
1.759256099E1,-1.908897609E-2,-7.513421029E-2,3.388675153E-1
1.761385412E1,7.177455351E-3,1.221694518E-2,3.547495604E-1
1.763514724E1,2.122694254E-2,-4.092676565E-2,3.498627543E-1
1.765644031E1,9.269607067E-2,-1.466033421E-2,3.284831047E-1
1.767773344E1,-1.400367320E-1,-3.726168349E-2,3.046600819E-1
1.769902656E1,5.787777901E-2,-8.307522535E-2,2.875563502E-1
1.772031964E1,-2.580829710E-2,-5.925218388E-2,2.820587158E-1
1.774161276E1,-2.596100792E-3,1.404948719E-2,2.441861928E-1
1.776290583E1,-9.300149232E-2,-7.757759839E-2,2.325800955E-1
1.778419896E1,6.276455522E-2,6.291726977E-2,1.446180940E-1
1.780549203E1,-3.313846514E-2,-6.841489673E-2,1.623326540E-1
1.782678516E1,8.903098851E-2,-5.314370990E-2,2.160872221E-1
1.784807828E1,-5.146388337E-2,-1.771457121E-2,2.313583940E-1
1.786937135E1,6.398624927E-2,-5.192201585E-2,2.075353563E-1
1.789066443E1,1.023169141E-2,-3.603998944E-2,2.014268786E-1
1.791195755E1,2.489202656E-2,-3.726168349E-2,2.460187376E-1
1.793325068E1,-5.146388337E-2,-4.398100078E-2,2.472404242E-1
1.795454375E1,3.405473381E-2,-5.741964281E-2,2.405211031E-1
1.797583682E1,1.122431830E-1,-3.848337755E-2,2.680092454E-1
1.799712995E1,-8.200624585E-2,-3.787253052E-2,2.912214398E-1
1.801842302E1,-2.458660305E-2,-7.452336699E-2,2.851129472E-1
1.803971615E1,8.047912270E-2,-2.321219631E-2,2.478512824E-1
1.806100922E1,1.171299592E-1,1.062874198E-1,2.087570578E-1
1.808230234E1,1.293469071E-1,9.468132257E-2,1.831014603E-1
1.810359542E1,-2.641914412E-2,-2.748812735E-2,1.855448484E-1
1.812488849E1,-2.641914412E-2,4.275930673E-2,2.002051920E-1
1.814618162E1,7.253811508E-2,1.044548824E-1,1.910424829E-1
1.816747469E1,8.903098851E-2,7.513421029E-2,1.800472289E-1
1.818876776E1,-1.290414780E-1,3.298575059E-2,2.240282297E-1
1.821006089E1,9.941539168E-2,9.040539712E-2,2.429644912E-1
1.823135396E1,4.688252881E-2,5.436540768E-2,2.698417902E-1
1.825264703E1,-1.985253533E-3,9.345962852E-2,2.838912606E-1
1.827394016E1,5.176930502E-2,1.203369126E-1,2.954973578E-1
1.829523323E1,-4.169032723E-2,1.215586066E-1,3.187095523E-1
1.831652630E1,5.176930502E-2,1.685938388E-1,3.089359999E-1
1.833781938E1,4.123218823E-3,1.820324808E-1,3.174878657E-1
1.835911250E1,-3.252761811E-2,1.130067408E-1,3.431434333E-1
1.838040557E1,1.006370857E-1,1.447708011E-1,3.278722763E-1
1.840169865E1,-1.021642014E-1,1.331647038E-1,3.339807391E-1
1.842299177E1,6.398624927E-2,1.478250325E-1,2.973299026E-1
1.844428484E1,1.678302884E-1,2.217375487E-1,2.582356930E-1
1.846557792E1,-8.078455180E-2,1.704263836E-1,2.496838123E-1
1.848687099E1,1.305686086E-1,1.551551968E-1,2.246390730E-1
1.850816406E1,1.030804738E-1,2.168507725E-1,1.910424829E-1
1.852945719E1,-3.130592033E-2,1.655396074E-1,1.556133330E-1
1.855075026E1,1.145338640E-2,1.423274130E-1,1.427855492E-1
1.857204333E1,3.771981969E-2,1.398840249E-1,1.519482583E-1
1.859333641E1,5.848862603E-2,1.637070626E-1,1.244601309E-1
1.861462948E1,1.878355257E-2,1.172826737E-1,9.941539168E-2
1.863592255E1,2.855710872E-2,1.484358907E-1,1.091889441E-1
1.865721563E1,-1.076618284E-1,1.514901221E-1,1.220167428E-1
1.867850870E1,6.276455522E-2,1.398840249E-1,1.152974218E-1
1.869980177E1,-9.239064902E-2,1.789782494E-1,1.495048702E-1
1.872109484E1,2.305948362E-2,1.753131598E-1,1.403421611E-1
1.874238797E1,-1.546970755E-1,2.095206082E-1,1.354553849E-1
1.876368104E1,6.093201414E-2,1.423274130E-1,1.348445266E-1
1.878497412E1,-8.383878320E-2,1.508792788E-1,1.226275861E-1
1.880626719E1,9.513945878E-2,1.966928244E-1,8.108997345E-2
1.882756026E1,-9.315420873E-3,1.459924877E-1,4.810422286E-2
1.884885333E1,-6.261184346E-3,1.600419879E-1,-3.008422814E-2
1.887014641E1,9.620844387E-3,1.997470558E-1,-7.773031294E-2
1.889143948E1,3.038965166E-2,1.899735034E-1,-9.972081333E-2
1.891273255E1,-3.252761811E-2,1.349972486E-1,-1.333174109E-1
1.893402562E1,9.513945878E-2,3.298575059E-2,-1.730224788E-1
1.895531865E1,-5.512896553E-2,8.551862091E-3,-2.170034945E-1
1.897661177E1,5.955760833E-3,2.382304333E-2,-2.768665254E-1
1.899790479E1,-7.482878864E-3,-7.024743408E-2,-3.196258247E-1
1.901919787E1,1.470614821E-1,4.275931045E-3,-3.721587062E-1
1.904049094E1,-8.811471611E-2,-5.192201585E-2,-3.947600424E-1
1.906178401E1,-4.902049154E-2,-1.301104724E-1,-4.430169761E-1
1.908307708E1,4.871506989E-2,-1.111742035E-1,-4.454603493E-1
1.910437016E1,-5.650337320E-3,-1.270562261E-1,-4.790569544E-1
1.912566323E1,1.366770715E-1,-1.288887709E-1,-4.760027230E-1
1.914695625E1,5.543438718E-2,-8.368607610E-2,-4.637857676E-1
1.916824932E1,-1.786728203E-2,-1.521009654E-1,-4.778352678E-1
1.918954240E1,-3.191677108E-2,-2.186833173E-1,-4.185830951E-1
1.921083547E1,-3.252761811E-2,-1.771457046E-1,-4.008685052E-1
1.923212854E1,5.787777901E-2,-1.710372269E-1,-3.880407214E-1
1.925342162E1,-7.956285775E-2,-2.064663768E-1,-3.770454824E-1
1.927471464E1,2.122694254E-2,-1.728697717E-1,-3.526115716E-1
1.929600771E1,2.367033064E-2,-1.429382563E-1,-3.122956753E-1
1.931730078E1,-2.641914412E-2,-1.276670843E-1,-2.738122940E-1
1.933859385E1,-3.206948051E-3,-1.563768983E-1,-2.292204350E-1
1.935988688E1,-6.978929788E-2,-1.417165697E-1,-1.852394342E-1
1.938117995E1,-4.535540938E-2,-1.484358907E-1,-1.229330078E-1
1.940247302E1,-2.214321308E-2,-1.209477559E-1,-8.017370105E-2
1.942376604E1,-7.589777559E-2,-8.063183725E-2,-3.130592033E-2
1.944505912E1,-1.527118147E-4,-8.490777016E-2,4.734066315E-3
1.946635219E1,-5.573981255E-2,-3.603998944E-2,3.466558084E-2
1.948764521E1,5.971032009E-2,4.275931045E-3,7.192726433E-2
1.950893828E1,9.009997360E-3,1.954711229E-2,8.719844371E-2
1.953023135E1,-5.696150661E-2,2.321219631E-2,8.780929446E-2
1.955152438E1,-3.313846514E-2,-2.504473738E-2,8.536590636E-2
1.957281745E1,6.887302548E-2,2.870982140E-2,6.887302548E-2
1.959411052E1,8.047912270E-2,9.529217333E-2,6.887302548E-2
1.961540354E1,-5.039489828E-3,-4.275931045E-3,6.337540597E-2
1.963669662E1,-1.908897609E-2,-1.160609815E-2,7.131642103E-2
1.965798964E1,1.128540337E-1,8.490777016E-2,4.810422286E-2
1.967928271E1,2.183778957E-2,6.780404598E-2,5.787777901E-2
1.970057573E1,2.672456764E-2,-0.000000000E0,6.093201414E-2
1.972186880E1,3.527642787E-2,3.176405653E-2,4.993676394E-2
1.974316182E1,6.459710002E-2,4.153761268E-2,5.726693198E-2
1.976445490E1,-6.551336497E-2,-2.443389036E-3,7.864658535E-2
1.978574792E1,1.537808031E-1,-1.649287529E-2,9.330692142E-2
1.980704099E1,-9.361234307E-2,-2.443389036E-3,1.091889441E-1
1.982833401E1,-9.926267900E-3,1.649287529E-2,8.536590636E-2
1.984962708E1,1.244601309E-1,-2.443389036E-3,9.697200358E-2
1.987092010E1,-8.567132801E-2,-1.710372418E-2,1.073564067E-1
1.989221318E1,5.054761097E-2,-8.551862091E-3,1.177408099E-1
1.991350620E1,-1.236965694E-2,2.443389036E-3,1.366770715E-1
1.993479927E1,-6.062658876E-2,1.404948719E-2,1.421747059E-1
1.995609229E1,-4.230117425E-2,1.954711229E-2,1.378987730E-1
1.997738531E1,4.504998401E-2,2.687728032E-2,1.458397806E-1
1.999867839E1,-2.458660305E-2,1.588202827E-2,1.629435122E-1
2.001997141E1,8.170082420E-2,6.719319522E-2,1.501157135E-1
2.004126443E1,-6.856760383E-2,3.970507160E-2,1.690519750E-1
2.006255750E1,7.925742865E-2,3.542914242E-2,1.818797737E-1
2.008385052E1,-1.369825006E-1,2.199050039E-2,2.087570578E-1
2.010514354E1,-6.306997687E-2,4.947862774E-2,2.118112892E-1
2.012643662E1,9.697200358E-2,5.558710173E-2,1.824906170E-1
2.014772964E1,-4.474456236E-2,2.137965336E-2,1.714953631E-1
2.016902266E1,1.250709742E-1,8.674030751E-2,1.562241912E-1
2.019031573E1,3.038965166E-2,3.909422457E-2,1.378987730E-1
2.021160875E1,-1.491994411E-1,6.963659078E-2,1.244601309E-1
2.023290177E1,-8.933641016E-2,-4.886778072E-3,8.597674966E-2
2.025419479E1,1.531699449E-1,4.825693369E-2,8.047912270E-2
2.027548787E1,6.642963737E-2,9.712471068E-2,6.765133142E-2
2.029678089E1,3.344388679E-2,2.137965336E-2,6.337540597E-2
2.031807391E1,-1.449235082E-1,-7.513421029E-2,4.443913698E-2
2.033936693E1,2.367033064E-2,-2.321219631E-2,1.206423342E-2
2.036065995E1,1.389677543E-2,3.665083554E-3,3.649812192E-2
2.038195297E1,6.337540597E-2,-4.459185153E-2,1.939439960E-2
2.040324604E1,-1.278197914E-1,6.108472589E-3,7.177455351E-3
2.042453906E1,-7.635590737E-4,3.848337755E-2,-9.315420873E-3
2.044583208E1,9.269607067E-2,-6.169557199E-2,1.939439960E-2
2.046712510E1,-1.430909634E-1,-3.359659761E-2,2.901524538E-3
2.048841813E1,9.452861547E-2,-2.199050039E-2,9.009997360E-3
2.050971115E1,5.238015205E-2,-7.330167107E-3,4.123218823E-3
2.053100417E1,-1.009425074E-1,2.260134928E-2,-8.704573847E-3
2.055229719E1,1.293469071E-1,-2.504473738E-2,-1.374406274E-3
2.057359021E1,3.100049868E-2,-2.870982140E-2,4.581354442E-4
2.059488323E1,1.572931744E-2,2.809897438E-2,9.620844387E-3
2.061617630E1,5.299099907E-2,1.111742035E-1,-1.664558798E-2
2.063746932E1,-1.481304597E-2,-9.590301663E-2,6.520794332E-2
2.065876234E1,-3.130592033E-2,-1.233911440E-1,6.826218218E-2
2.068005536E1,-8.261708915E-2,-5.253286287E-2,4.382828996E-2
2.070134839E1,2.672456764E-2,1.588202827E-2,-1.053711493E-2
2.072264135E1,1.452289373E-1,7.696675509E-2,-1.114796288E-2
2.074393438E1,-2.200577259E-1,6.108472589E-4,4.321744293E-2
2.076522740E1,7.375980914E-2,-5.497625098E-3,-1.298050396E-2
2.078652042E1,-7.406523079E-2,1.466033421E-2,4.581354442E-4
2.080781344E1,1.695101149E-2,4.459185153E-2,1.068982761E-3
2.082910646E1,2.489202656E-2,4.459185153E-2,4.123218823E-3
2.085039948E1,-1.236965694E-2,-1.649287529E-2,3.100049868E-2
2.087169250E1,1.634016447E-2,1.649287529E-2,2.061609551E-2
2.089298552E1,-5.696150661E-2,-2.382304333E-2,1.634016447E-2
2.091427854E1,-3.741439432E-2,7.024743408E-2,9.620844387E-3
2.093557156E1,7.375980914E-2,9.651386738E-2,2.061609551E-2
2.095686453E1,-7.467607409E-2,4.153761268E-2,3.161134571E-2
2.097815755E1,3.512371797E-3,6.230641901E-2,3.649812192E-2
2.099945057E1,1.207950488E-1,5.131116882E-2,2.977880463E-2
2.102074359E1,-1.211004704E-1,2.870982140E-2,3.955236077E-2
2.104203662E1,-2.764083818E-2,3.481829539E-2,2.794626169E-2
2.106332964E1,4.016320780E-2,5.314370990E-2,1.145338640E-2
2.108462260E1,5.115845799E-2,1.093416587E-1,1.389677543E-2
2.110591562E1,-8.139539510E-2,2.443389036E-2,2.550287358E-2
2.112720865E1,-2.825168520E-2,5.070032179E-2,3.527642787E-2
2.114850167E1,2.148655206E-1,2.260134928E-2,2.122694254E-2
2.116979464E1,-1.876828223E-1,2.870982140E-2,3.649812192E-2
2.119108766E1,4.321744293E-2,3.665083647E-2,-1.985253533E-3
2.121238068E1,2.305948362E-2,2.382304333E-2,3.527642787E-2
2.123367370E1,-1.180462316E-1,-7.941014133E-3,3.466558084E-2
2.125496667E1,6.642963737E-2,2.993151546E-2,1.145338640E-2
2.127625969E1,2.183778957E-2,5.864133686E-2,2.244863659E-2
2.129755266E1,-7.482878864E-3,8.551862091E-3,7.788302377E-3
2.131884568E1,3.466558084E-2,5.680879578E-2,1.817270555E-2
2.134013870E1,-1.540862173E-1,-3.603998944E-2,5.238015205E-2
2.136143167E1,7.559234649E-2,4.459185153E-2,3.283303976E-2
2.138272469E1,1.183516532E-1,5.680879578E-2,3.222219273E-2
2.140401771E1,-1.834068894E-1,2.626643144E-2,3.771981969E-2
2.142531068E1,1.311794519E-1,5.497625470E-2,3.771981969E-2
2.144660370E1,9.330692142E-2,1.087308154E-1,3.466558084E-2
2.146789667E1,-9.910997003E-2,3.603998944E-2,2.916795574E-2
2.148918969E1,-3.008422814E-2,3.298575059E-2,2.183778957E-2
2.151048266E1,5.848862603E-2,7.391251624E-2,1.695101149E-2
2.153177568E1,2.122694254E-2,6.536065787E-2,1.267508045E-2
2.155306865E1,-4.963133857E-2,4.459185153E-2,-7.482878864E-3
2.157436167E1,-1.114796288E-2,3.665083554E-3,-1.725643501E-2
2.159565464E1,1.679830020E-3,3.359659761E-2,-1.847812906E-2
2.161694766E1,-2.092151903E-2,-2.932066843E-2,-4.718795046E-2
2.163824062E1,5.971032009E-2,6.719320081E-3,-5.818320066E-2
2.165953365E1,1.409530044E-1,5.131116882E-2,-6.612421572E-2
2.168082662E1,-2.458660305E-2,4.214845970E-2,-6.551336497E-2
2.170211964E1,5.115845799E-2,-4.337015375E-2,-7.834116369E-2
2.172341260E1,7.788302377E-3,-6.597150117E-2,-4.474456236E-2
2.174470557E1,-1.143811494E-1,-7.024743408E-2,-8.506047726E-2
2.176599859E1,5.360184610E-2,-3.054236248E-2,-8.139539510E-2
2.178729156E1,6.276455522E-2,-1.588202827E-2,-7.589777559E-2
2.180858458E1,-2.886253223E-2,-3.909422457E-2,-6.917845458E-2
2.182987755E1,7.177455351E-3,-3.726168349E-2,-8.628217876E-2
2.185117052E1,2.977880463E-2,-4.886778072E-2,-5.940489471E-2
2.187246354E1,2.000524849E-2,-3.970507160E-2,-6.306997687E-2
2.189375651E1,1.267508045E-2,-1.221694518E-3,-7.345438004E-2
2.191504948E1,2.000524849E-2,2.076880634E-2,-5.757235363E-2
2.193634250E1,1.006370857E-1,4.520269856E-2,-6.245913357E-2
2.195763547E1,-5.039489828E-3,-6.963659078E-2,-3.802524135E-2
2.197892844E1,-1.565296054E-1,-1.331647038E-1,-3.741439432E-2
2.200022141E1,7.070557028E-2,-2.137965336E-2,-6.551336497E-2
2.202151443E1,3.344388679E-2,1.038440317E-2,-6.245913357E-2
2.204280740E1,-1.298050396E-2,-6.719320081E-3,-5.879404768E-2
2.206410036E1,-1.864611208E-1,-5.558710173E-2,-5.696150661E-2
2.208539333E1,-5.757235363E-2,-3.359659761E-2,-6.001574174E-2
2.210668630E1,-3.130592033E-2,-1.404948719E-2,-6.490252167E-2
2.212797932E1,-1.481304597E-2,-2.443389036E-2,-6.612421572E-2
2.214927229E1,6.337540597E-2,2.626643144E-2,-1.003316641E-1
2.217056526E1,1.389677543E-2,6.474980712E-2,-1.033858955E-1
2.219185823E1,-1.101052165E-1,-0.000000000E0,-4.779879749E-2
2.221315120E1,6.948387623E-2,-7.941014133E-3,-5.696150661E-2
2.223444417E1,-7.589777559E-2,-5.375456065E-2,-2.092151903E-2
2.225573714E1,6.566607859E-3,-3.909422457E-2,-2.214321308E-2
2.227703016E1,7.009471953E-2,4.153761268E-2,-1.420219894E-2
2.229832313E1,1.110214889E-1,5.864133686E-2,1.634016447E-2
2.231961609E1,1.366770715E-1,6.841489673E-2,2.794626169E-2
2.234090906E1,-1.351499557E-1,5.497625470E-2,5.176930502E-2
2.236220203E1,4.749337584E-2,3.542914242E-2,4.688252881E-2
2.238349500E1,-9.483403713E-2,2.870982140E-2,6.032116711E-2
2.240478797E1,-8.322793990E-2,7.085828483E-2,4.566083103E-2
2.242608094E1,1.159082651E-1,1.130067408E-1,3.222219273E-2
2.244737391E1,2.521272004E-1,1.209477559E-1,2.611372061E-2
2.246866688E1,-2.273878902E-1,1.191152185E-1,9.620844387E-3
2.248995984E1,7.375980914E-2,6.230641901E-2,-4.428642802E-3
2.251125281E1,8.536590636E-2,6.658235192E-2,2.244863659E-2
2.253254578E1,1.721062213E-1,9.651386738E-2,1.206423342E-2
2.255383875E1,-7.162184268E-2,2.382304333E-2,-7.482878864E-3
2.257513172E1,1.068982761E-3,-1.343864016E-2,-3.206948051E-3
2.259642469E1,8.597674966E-2,-1.404948719E-2,6.566607859E-3
2.261771766E1,-8.017370105E-2,1.466033421E-2,3.222219273E-2
2.263901057E1,3.222219273E-2,5.925218388E-2,2.977880463E-2
2.266030354E1,-1.664558798E-2,2.443389036E-2,4.627167806E-2
2.268159651E1,-8.994726092E-2,9.101624042E-2,5.726693198E-2
2.270288948E1,9.819369763E-2,7.574506104E-2,4.688252881E-2
2.272418245E1,-8.261708915E-2,1.417165697E-1,7.681404054E-2
2.274547542E1,7.070557028E-2,1.264453828E-1,5.299099907E-2
2.276676833E1,-4.596625641E-2,1.392731816E-1,4.627167806E-2
2.278806130E1,7.681404054E-2,8.429691941E-2,2.916795574E-2
2.280935427E1,-6.123743951E-2,6.413896382E-2,2.489202656E-2
2.283064724E1,-2.336490713E-2,2.076880634E-2,-3.206948051E-3
2.285194021E1,-2.825168520E-2,7.391251624E-2,-6.734590977E-2
2.287323318E1,4.627167806E-2,1.899735034E-1,-9.605573118E-2
2.289452609E1,3.771981969E-2,1.496575773E-1,-1.247655526E-1
2.291581906E1,-1.339282542E-1,-5.864133686E-2,-1.632489264E-1
2.293711203E1,1.878355257E-2,8.063183725E-2,-1.974563748E-1
2.295840495E1,1.134648770E-1,8.246438205E-2,-1.950129867E-1
2.297969792E1,1.049130186E-1,1.649287529E-2,-2.096733153E-1
2.300099089E1,-1.217113137E-1,-2.504473738E-2,-2.170034945E-1
2.302228380E1,-9.926267900E-3,-3.115320951E-2,-2.298312783E-1
2.304357677E1,8.780929446E-2,-9.162709117E-3,-2.567085624E-1
2.306486974E1,-1.528645307E-1,-1.404948719E-2,-2.725905776E-1
2.308616266E1,-6.062658876E-2,-4.764608666E-2,-2.762556672E-1
2.310745562E1,1.714953631E-1,-2.076880634E-2,-2.567085624E-1
2.312874859E1,-3.558185324E-2,2.199050039E-2,-2.780882120E-1
2.315004151E1,-2.596100792E-3,-4.581354558E-2,-2.695363462E-1
2.317133448E1,-2.397575416E-2,-1.093416587E-1,-2.768665254E-1
2.319262740E1,-1.565296054E-1,-1.539335102E-1,-2.133384049E-1
2.321392036E1,2.136438340E-1,-1.301104724E-1,-2.212794125E-1
2.323521333E1,5.299099907E-2,-2.748812735E-2,-2.548760176E-1
2.325650625E1,-1.718007922E-1,-8.551861346E-2,-2.365505993E-1
2.327779922E1,1.159082651E-1,-1.441599578E-1,-2.151709497E-1
2.329909214E1,-2.310529798E-1,-1.411057115E-1,-1.406475753E-1
2.332038510E1,6.032116711E-2,-9.895725548E-2,-1.491994411E-1
2.334167802E1,-1.149920002E-1,-9.407047927E-2,-1.400367320E-1
2.336297099E1,1.977618039E-1,-4.398100078E-2,-1.363716573E-1
2.338426391E1,8.292251825E-2,2.137965336E-2,-6.673506647E-2
2.340555682E1,-1.614163816E-1,-4.031591862E-2,-6.062658876E-2
2.342684979E1,5.971032009E-2,-4.581354558E-2,-6.490252167E-2
2.344814271E1,3.100049868E-2,1.343864016E-2,-1.053711493E-2
2.346943568E1,1.012479365E-1,-4.886778072E-3,-2.397575416E-2
2.349072859E1,-1.992889196E-1,-9.345962852E-2,-3.817795310E-3
2.351202151E1,-4.107947648E-2,-3.298575059E-2,-6.261184346E-3
2.353331448E1,1.006370857E-1,6.597150117E-2,-2.214321308E-2
2.355460740E1,5.543438718E-2,-8.551862091E-3,-2.764083818E-2
2.357590037E1,-1.094943732E-1,-7.941014133E-3,-1.985253533E-3
2.359719328E1,1.043021679E-1,-3.115320951E-2,-2.275406010E-2
2.361848620E1,-1.284306347E-1,-1.527118124E-2,-4.230117425E-2
2.363977917E1,6.398624927E-2,1.099525020E-2,-2.397575416E-2
2.366107208E1,4.993676394E-2,1.710372418E-2,-1.985253533E-3
2.368236500E1,-6.612421572E-2,-5.680879578E-2,-1.175880991E-2
2.370365792E1,5.543438718E-2,-3.054236295E-3,-1.542389300E-2
2.372495089E1,1.256818175E-1,1.038440317E-2,1.267508045E-2
2.374624380E1,-1.919587553E-1,-7.513421029E-2,1.450762246E-2
2.376753672E1,5.971032009E-2,1.893626526E-2,-1.725643501E-2
2.378882969E1,-1.481304597E-2,4.398100078E-2,9.620844387E-3
2.381012260E1,8.475505561E-2,1.038440317E-2,-3.817795310E-3
2.383141552E1,-8.933641016E-2,-3.970507160E-2,-5.650337320E-3
2.385270844E1,6.093201414E-2,-7.818844914E-2,8.399149403E-3
2.387400135E1,-1.174353883E-1,-6.047387794E-2,4.734066315E-3
2.389529427E1,-8.750387281E-2,-1.197260618E-1,2.901524538E-3
2.391658724E1,2.305948362E-2,-1.227803007E-1,-1.664558798E-2
2.393788016E1,4.077405483E-2,-7.757759839E-2,-2.153236605E-2
2.395917307E1,-1.125486046E-1,-9.529217333E-2,-1.786728203E-2
2.398046599E1,5.421269313E-2,-8.918370306E-2,-1.664558798E-2
2.400175891E1,-6.978929788E-2,-1.313321590E-1,-6.872031838E-3
2.402305182E1,-1.113269106E-1,-1.374406368E-1,1.023169141E-2
2.404434474E1,8.475505561E-2,-6.352811307E-2,9.391776472E-2
2.406563766E1,4.871506989E-2,-4.520269856E-2,4.199574888E-2
2.408693057E1,-6.872031838E-3,-3.420744836E-2,4.871506989E-2
2.410822349E1,-4.046862945E-2,-1.044548824E-1,1.269035190E-1
2.412951646E1,-3.863608837E-2,-6.719320081E-3,1.311794519E-1
2.415080938E1,1.794363856E-1,8.612946421E-2,7.009471953E-2
2.417210224E1,-2.389939874E-1,-1.527118124E-2,1.006370857E-1
2.419339521E1,3.161134571E-2,-1.404948719E-2,1.446180940E-1
2.421468813E1,5.115845799E-2,3.909422457E-2,1.311794519E-1
2.423598104E1,-3.252761811E-2,7.330167107E-3,1.116323397E-1
2.425727391E1,-9.972081333E-2,-3.787253052E-2,9.330692142E-2
2.427856682E1,1.427855492E-1,7.330167107E-3,7.742489129E-2
2.429985974E1,-1.803526580E-1,3.665083554E-3,6.948387623E-2
2.432115266E1,8.536590636E-2,-1.832541777E-3,5.482354015E-2
2.434244557E1,7.131642103E-2,-5.008947477E-2,5.238015205E-2
2.436373849E1,2.061609551E-2,4.337015375E-2,3.038965166E-2
2.438503141E1,-1.985253533E-3,2.809897438E-2,4.016320780E-2
2.440632432E1,-1.779092699E-1,-5.436540768E-2,4.688252881E-2
2.442761724E1,1.756185852E-2,2.137965336E-2,5.482354015E-2
2.444891016E1,2.044811249E-1,9.101624042E-2,4.566083103E-2
2.447020302E1,2.305948362E-2,2.809897438E-2,7.986827940E-2
2.449149594E1,-1.638597846E-1,-1.014006436E-1,8.903098851E-2
2.451278885E1,-3.817795310E-3,-4.337015375E-2,7.070557028E-2
2.453408177E1,4.871506989E-2,-3.726168349E-2,8.780929446E-2
2.455537469E1,-1.950129867E-1,-0.000000000E0,6.826218218E-2
2.457666755E1,1.440072358E-1,6.169557199E-2,6.215370819E-2
2.459796047E1,-8.322793990E-2,4.764608666E-2,9.880454093E-2
2.461925339E1,1.055238619E-1,1.221694518E-2,6.826218218E-2
2.464054630E1,-1.363716573E-1,6.719320081E-3,7.009471953E-2
2.466183917E1,2.244863659E-2,2.870982140E-2,7.620319724E-2
2.468313208E1,-8.322793990E-2,2.443389036E-2,7.620319724E-2
2.470442500E1,-2.275406010E-2,2.687728032E-2,5.176930502E-2
2.472571786E1,8.719844371E-2,4.886778072E-3,7.742489129E-2
2.474701078E1,1.679830020E-3,-2.076880634E-2,1.232384369E-1
2.476830370E1,1.878355257E-2,3.909422457E-2,1.207950488E-1
2.478959662E1,1.800472289E-1,8.551862091E-3,7.253811508E-2
2.481088948E1,-9.361234307E-2,-3.665083647E-2,8.231166750E-2
2.483218240E1,1.195733473E-1,-2.870982140E-2,1.110214889E-1
2.485347526E1,-5.146388337E-2,-6.047387794E-2,1.409530044E-1
2.487476818E1,-2.108950168E-1,-6.536065787E-2,1.269035190E-1
2.489606109E1,9.513945878E-2,2.870982140E-2,1.091889441E-1
2.491735396E1,-2.764083818E-2,9.529217333E-2,1.269035190E-1
2.493864688E1,-4.291202128E-2,1.099525020E-2,1.446180940E-1
2.495993974E1,-1.223221645E-1,-4.214845970E-2,1.592784226E-1
2.498123266E1,5.955760833E-3,4.947862774E-2,1.501157135E-1
2.500252552E1,5.726693198E-2,1.081199646E-1,1.385096163E-1
2.502381844E1,-1.603474095E-2,7.818844914E-2,1.476723254E-1
2.504511130E1,9.941539168E-2,4.398100078E-2,1.678302884E-1
2.506640422E1,-1.229330078E-1,1.160609815E-2,1.562241912E-1
2.508769708E1,-6.917845458E-2,1.014006436E-1,1.311794519E-1
2.510898995E1,6.520794332E-2,6.658235192E-2,1.482831687E-1
2.513028286E1,-1.485885978E-1,3.542914242E-2,1.336228400E-1
2.515157573E1,3.710897267E-2,1.032331884E-1,1.226275861E-1
2.517286865E1,-9.361234307E-2,7.146912813E-2,1.372879148E-1
2.519416151E1,-3.558185324E-2,-1.160609815E-2,1.232384369E-1
2.521545438E1,5.054761097E-2,3.115320951E-2,1.305686086E-1
2.523674729E1,-7.101099193E-2,6.108472589E-3,1.073564067E-1
2.525804016E1,1.898207814E-1,5.008947477E-2,9.025268257E-2
2.527933302E1,1.817270555E-2,9.345962852E-2,6.520794332E-2
2.530062594E1,-1.846285909E-1,-2.993151546E-2,7.864658535E-2
2.532191880E1,-3.252761811E-2,2.137965336E-2,4.138490185E-2
2.534321167E1,-9.666658193E-2,5.314370990E-2,4.016320780E-2
2.536450453E1,-2.580829710E-2,4.642439261E-2,1.267508045E-2
2.538579745E1,8.536590636E-2,6.658235192E-2,2.305948362E-2
2.540709031E1,-3.206948051E-3,3.420744836E-2,2.733541466E-2
2.542838318E1,4.688252881E-2,9.223793447E-2,4.077405483E-2
2.544967604E1,4.123218823E-3,8.429691941E-2,4.016320780E-2
2.547096891E1,-6.245913357E-2,7.269082218E-2,3.512371797E-3
2.549226177E1,9.147437662E-2,7.941014320E-2,1.634016447E-2
2.551355469E1,3.955236077E-2,9.345962852E-2,1.328592747E-2
2.553484755E1,6.566607859E-3,1.056765765E-1,7.788302377E-3
2.555614042E1,6.337540597E-2,4.886778072E-2,5.344913341E-3
2.557743328E1,-6.551336497E-2,9.651386738E-2,-6.872031838E-3
2.559872615E1,1.006370857E-1,4.520269856E-2,-2.031067200E-2
2.562001901E1,-1.039967462E-1,2.015795931E-2,-2.764083818E-2
2.564131188E1,-6.551336497E-2,9.773556143E-3,-1.908897609E-2
2.566260474E1,2.087570578E-1,1.075091213E-1,-5.451811850E-2
2.568389760E1,-4.474456236E-2,3.298575059E-2,-4.902049154E-2
2.570519047E1,-9.116895497E-2,-9.162709117E-3,-5.268557742E-2
2.572648333E1,-5.818320066E-2,-6.719320081E-3,-4.046862945E-2
2.574777620E1,-4.657710344E-2,-5.497625098E-3,-3.802524135E-2
2.576906906E1,4.382828996E-2,3.054236295E-3,-6.062658876E-2
2.579036193E1,3.710897267E-2,5.436540768E-2,-7.467607409E-2
2.581165479E1,2.672456764E-2,6.536065787E-2,-9.300149232E-2
2.583294766E1,-1.333174109E-1,-9.284878522E-2,-9.361234307E-2
2.585424052E1,3.894151375E-2,1.893626526E-2,-8.811471611E-2
2.587553339E1,-4.428642802E-3,4.947862774E-2,-9.361234307E-2
2.589682620E1,-5.146388337E-2,-2.015795931E-2,-8.383878320E-2
2.591811906E1,-3.191677108E-2,4.459185153E-2,-8.933641016E-2
2.593941193E1,-1.186570823E-1,-1.160609815E-2,-7.284353673E-2
2.596070479E1,1.598892659E-1,8.063183725E-2,-5.390727147E-2
2.598199766E1,1.146865711E-1,8.185353130E-2,-7.345438004E-2
2.600329052E1,-1.992889196E-1,-6.658235192E-2,-7.589777559E-2
2.602458333E1,-6.978929788E-2,5.497625098E-3,-7.895200700E-2
2.604587620E1,-3.191677108E-2,-7.330167107E-3,-8.872556686E-2
2.606716906E1,-6.062658876E-2,5.436540768E-2,-8.872556686E-2
2.608846193E1,-2.641914412E-2,2.443389036E-2,-9.116895497E-2
2.610975474E1,5.726693198E-2,1.771457121E-2,-8.811471611E-2
2.613104760E1,-1.699682474E-1,4.703523964E-2,-7.162184268E-2
2.615234047E1,-3.436015919E-2,3.481829539E-2,-7.345438004E-2
2.617363328E1,1.812689304E-1,-8.551862091E-3,-7.773031294E-2
2.619492615E1,-8.506047726E-2,-7.941014133E-3,-8.139539510E-2
2.621621901E1,-1.039967462E-1,5.986303091E-2,-1.131594554E-1
2.623751188E1,-1.149920002E-1,-2.443389036E-2,-3.374931216E-2
2.625880469E1,2.305948362E-2,-6.047387794E-2,-4.169032723E-2
2.628009755E1,-1.175880991E-2,1.527118124E-2,-8.506047726E-2
2.630139037E1,4.382828996E-2,2.076880634E-2,-8.750387281E-2
2.632268323E1,1.634016447E-2,-7.941014133E-3,-6.306997687E-2
2.634397609E1,4.734066315E-3,-1.832541777E-3,-6.795676053E-2
2.636526891E1,3.344388679E-2,4.398100078E-2,-8.017370105E-2
2.638656177E1,-8.261708915E-2,-1.710372418E-2,-4.718795046E-2
2.640785458E1,-1.711899489E-1,-9.101624042E-2,-4.963133857E-2
2.642914745E1,2.367033064E-2,5.864133686E-2,-5.268557742E-2
2.645044026E1,2.428117767E-2,5.619794875E-2,-3.497100621E-2
2.647173312E1,-5.024218559E-2,-2.809897438E-2,-1.725643501E-2
2.649302599E1,-8.872556686E-2,-5.192201585E-2,-4.230117425E-2
2.651431880E1,1.378987730E-1,9.162709117E-3,-4.902049154E-2
2.653561167E1,4.504998401E-2,9.773556143E-3,-3.374931216E-2
2.655690448E1,-7.482878864E-3,-2.260134928E-2,-3.863608837E-2
2.657819734E1,1.397313178E-1,1.649287529E-2,-4.352286831E-2
2.659949016E1,-1.527118147E-4,-5.131116882E-2,-4.718795046E-2
2.662078297E1,-7.773031294E-2,-6.719320081E-3,-6.673506647E-2
2.664207583E1,7.009471953E-2,1.954711229E-2,-5.268557742E-2
2.666336865E1,3.710897267E-2,-1.527118124E-2,-3.069507517E-2
2.668466151E1,1.206423342E-2,9.773556143E-3,-6.612421572E-2
2.670595432E1,-1.162136942E-1,1.343864016E-2,-4.596625641E-2
2.672724719E1,3.771981969E-2,2.321219631E-2,-5.451811850E-2
2.674854000E1,-3.252761811E-2,1.404948719E-2,-6.551336497E-2
2.676983281E1,2.000524849E-2,-3.542914242E-2,-4.718795046E-2
2.679112568E1,-2.886253223E-2,-1.099525020E-2,-5.512896553E-2
2.681241849E1,-1.980672181E-1,-4.886778072E-2,-7.650861889E-2
2.683371135E1,2.550287358E-2,-2.932066843E-2,-1.107160673E-1
2.685500417E1,-2.153236605E-2,-1.160609815E-2,-9.788827598E-2
2.687629698E1,-1.785201132E-1,-3.054236248E-2,-1.162136942E-1
2.689758979E1,1.030804738E-1,9.162709117E-3,-1.021642014E-1
2.691888266E1,-1.847812906E-2,-2.321219631E-2,-8.567132801E-2
2.694017547E1,-5.635065958E-2,-2.809897438E-2,-9.605573118E-2
2.696146828E1,2.855710872E-2,-3.176405653E-2,-9.361234307E-2
2.698276115E1,4.077405483E-2,5.925218388E-2,-9.300149232E-2
2.700405396E1,-1.583621502E-1,1.282779220E-2,-1.070509851E-1
2.702534677E1,9.208522737E-2,-1.527118124E-2,-1.064401343E-1
2.704663964E1,5.115845799E-2,-1.710372418E-2,-8.933641016E-2
2.706793245E1,-4.779879749E-2,6.719320081E-3,-8.628217876E-2
2.708922526E1,1.366770715E-1,3.481829539E-2,-9.300149232E-2
2.711051807E1,-4.230117425E-2,-2.809897438E-2,-7.528692484E-2
2.713181089E1,-5.024218559E-2,-3.176405653E-2,-9.177979827E-2
2.715310375E1,2.399102598E-1,1.710372418E-2,-7.101099193E-2
2.717439656E1,6.566607859E-3,5.803048983E-2,-4.352286831E-2
2.719568938E1,6.215370819E-2,-7.941014133E-3,-8.139539510E-2
2.721698219E1,-1.027750522E-1,-3.176405653E-2,-4.902049154E-2
2.723827500E1,-4.046862945E-2,-3.542914242E-2,-6.062658876E-2
2.725956786E1,-7.345438004E-2,3.787253052E-2,-5.696150661E-2
2.728086068E1,4.932591692E-2,2.321219631E-2,-2.336490713E-2
2.730215349E1,1.012479365E-1,-7.941014133E-3,-4.474456236E-2
2.732344630E1,3.283303976E-2,6.902574003E-2,-4.902049154E-2
2.734473912E1,-1.333174109E-1,-6.352811307E-2,-3.924693540E-2
2.736603193E1,2.270824611E-1,5.008947477E-2,-3.619270027E-2
2.738732474E1,1.446180940E-1,1.282779276E-1,-3.436015919E-2
2.740861755E1,-3.130592033E-2,-4.886778072E-3,-3.619270027E-2
2.742991036E1,-1.186570823E-1,-7.941014133E-3,-1.420219894E-2
2.745120318E1,7.742489129E-2,2.748812735E-2,-2.764083818E-2
2.747249604E1,5.421269313E-2,1.093416587E-1,-1.725643501E-2
2.749378885E1,1.679830020E-3,5.925218388E-2,-1.664558798E-2
2.751508167E1,1.067455560E-1,1.832541823E-2,-7.482878864E-3
2.753637448E1,1.939439960E-2,9.956810623E-2,4.123218823E-3
2.755766729E1,4.123218823E-3,1.832541823E-2,-2.153236605E-2
2.757896010E1,-5.940489471E-2,8.612946421E-2,4.382828996E-2
2.760025292E1,9.620844387E-3,3.665083647E-2,4.749337584E-2
2.762154573E1,1.751604527E-1,1.123958975E-1,-1.969982497E-2
2.764283854E1,-1.021642014E-1,6.719319522E-2,-1.359135192E-2
2.766413135E1,-4.291202128E-2,3.481829539E-2,1.145338640E-2
2.768542417E1,-4.230117425E-2,1.117850468E-1,-6.872031838E-3
2.770671698E1,5.299099907E-2,8.063183725E-2,-1.542389300E-2
2.772800979E1,-2.641914412E-2,7.574506104E-2,2.290677279E-3
2.774930260E1,5.360184610E-2,1.227803007E-1,-2.153236605E-2
2.777059542E1,-9.422318637E-2,1.014006436E-1,4.734066315E-3
2.779188818E1,4.566083103E-2,1.099525094E-1,-6.872031838E-3
2.781318099E1,-4.657710344E-2,7.818844914E-2,-3.374931216E-2
2.783447380E1,-8.200624585E-2,1.142284349E-1,-2.275406010E-2
2.785576662E1,8.658760041E-2,1.630962193E-1,-2.397575416E-2
2.787705943E1,2.672456764E-2,1.246128380E-1,-1.725643501E-2
2.789835224E1,-1.149920002E-1,5.436540768E-2,-2.641914412E-2
2.791964505E1,7.131642103E-2,1.087308154E-1,-5.329642445E-2
2.794093787E1,4.260659590E-2,1.655396074E-1,-3.924693540E-2
2.796223068E1,2.305948362E-2,6.047387794E-2,-4.718795046E-2
2.798352344E1,-5.024218559E-2,5.741964281E-2,-7.467607409E-2
2.800481625E1,-8.383878320E-2,5.314370990E-2,-1.211004704E-1
2.802610906E1,1.873773932E-1,1.197260618E-1,-2.011214644E-1
2.804740188E1,-1.491994411E-1,7.207997888E-2,-2.206685692E-1
2.806869469E1,4.321744293E-2,-7.635590434E-2,-2.609844804E-1
2.808998750E1,4.993676394E-2,5.192201585E-2,-3.116848171E-1
2.811128026E1,-4.107947648E-2,-5.741964281E-2,-3.654393852E-1
2.813257307E1,5.909947306E-2,-9.468132257E-2,-3.733803928E-1
2.815386589E1,-2.580829710E-2,-1.404948682E-1,-4.136963189E-1
2.817515870E1,-2.458660305E-2,-6.291726977E-2,-4.344651103E-1
2.819645146E1,1.177408099E-1,-8.796200156E-2,-4.711159468E-1
2.821774427E1,-2.336490713E-2,-1.270562261E-1,-4.717268050E-1
2.823903708E1,3.161134571E-2,-1.062874198E-1,-4.558447599E-1
2.826032990E1,-4.474456236E-2,-1.716480851E-1,-4.527905285E-1
2.828162266E1,-6.872031838E-3,-1.667613089E-1,-4.198047817E-1
2.830291547E1,4.871506989E-2,-1.832541823E-1,-3.892624080E-1
2.832420828E1,-2.886253223E-2,-2.168507725E-1,-3.733803928E-1
2.834550104E1,-1.791309565E-1,-2.192941606E-1,-3.410054743E-1
2.836679385E1,1.769929975E-1,-1.936385781E-1,-3.177932799E-1
2.838808667E1,-1.046075895E-1,-2.089097649E-1,-2.487675399E-1
2.840937943E1,1.269035190E-1,-2.461714447E-1,-2.151709497E-1
2.843067224E1,-2.580829710E-2,-1.765348613E-1,-1.601946950E-1
2.845196505E1,-1.314848661E-1,-2.082989216E-1,-1.479777545E-1
2.847325781E1,1.885990947E-1,-2.034121305E-1,-1.241547018E-1
2.849455063E1,-3.191677108E-2,-1.728697717E-1,-6.734590977E-2
2.851584344E1,-5.879404768E-2,-1.728697717E-1,-9.544488788E-2
2.853713620E1,3.710897267E-2,-1.606528312E-1,-8.200624585E-2
2.855842901E1,-2.275406010E-2,-1.820324808E-1,-3.558185324E-2
2.857972177E1,-1.420219894E-2,-1.838650256E-1,-3.374931216E-2
2.860101458E1,5.665608495E-2,-1.942494214E-1,-4.107947648E-2
2.862230740E1,-2.947338112E-2,-1.911951900E-1,-3.619270027E-2
2.864360016E1,-2.092151903E-2,-1.655396074E-1,-3.924693540E-2
2.866489297E1,-1.420219894E-2,-1.856975704E-1,-1.725643501E-2
2.868618573E1,-1.985253533E-3,-1.484358907E-1,8.399149403E-3
2.870747854E1,6.642963737E-2,-1.252236813E-1,1.572931744E-2
2.872877130E1,-6.306997687E-2,-1.783674061E-1,5.054761097E-2
2.875006412E1,-4.779879749E-2,-1.649287641E-1,7.986827940E-2
2.877135688E1,4.810422286E-2,-1.062874198E-1,1.043021679E-1
2.879264969E1,-1.908897609E-2,-7.574506104E-2,1.275143623E-1
2.881394245E1,-1.298050396E-2,-5.070032179E-2,1.501157135E-1
2.883523526E1,1.073564067E-1,-2.565558441E-2,1.873773932E-1
2.885652802E1,-1.333174109E-1,-1.710372418E-2,2.539597452E-1
2.887782083E1,4.810422286E-2,-9.162709117E-3,2.527380586E-1
2.889911359E1,1.006370857E-1,-1.038440317E-2,2.661767006E-1
2.892040641E1,6.948387623E-2,2.993151546E-2,3.058817685E-1
2.894169917E1,-5.696150661E-2,-8.551862091E-3,3.205420971E-1
2.896299193E1,-1.009425074E-1,2.809897438E-2,3.553603888E-1
2.898428474E1,2.411319613E-1,5.803048983E-2,3.657447994E-1
2.900557750E1,-3.130592033E-2,7.085828483E-2,3.773508966E-1
2.902687031E1,-1.033858955E-1,2.443389036E-3,3.810159862E-1
2.904816307E1,1.939439960E-2,1.398840249E-1,3.804051280E-1
2.906945583E1,-6.917845458E-2,3.115320951E-2,4.042281806E-1
2.909074865E1,1.023169141E-2,6.352811307E-2,3.639122546E-1
2.911204141E1,1.605001241E-1,1.191152185E-1,3.614688516E-1
2.913333417E1,1.145338640E-2,1.447708011E-1,3.877353072E-1
2.915462698E1,-1.481304597E-2,1.771457121E-2,3.608580232E-1
2.917591974E1,-1.481304597E-2,8.002099395E-2,3.180987239E-1
2.919721250E1,1.525591016E-1,2.070772201E-1,3.040492237E-1
2.921850531E1,-6.978929788E-2,1.307213157E-1,3.272614181E-1
2.923979807E1,-8.093725890E-3,1.178935245E-1,3.095468581E-1
2.926109083E1,2.551814318E-1,1.313321590E-1,2.704526186E-1
2.928238365E1,-1.406475753E-1,1.814216375E-1,2.680092454E-1
2.930367641E1,6.276455522E-2,1.349972486E-1,2.356343269E-1
2.932496917E1,3.588727489E-2,6.841489673E-2,2.509055138E-1
2.934626193E1,-4.963133857E-2,7.941014320E-2,2.759502530E-1
2.936755474E1,8.353336155E-2,1.826433241E-1,2.368560284E-1
2.938884750E1,8.399149403E-3,1.435490996E-1,2.081461996E-1
2.941014026E1,2.794626169E-2,1.423274130E-1,2.063136548E-1
2.943143302E1,-1.064401343E-1,4.459185153E-2,2.270824611E-1
2.945272578E1,-7.834116369E-2,1.233911440E-1,2.221956849E-1
2.947401859E1,7.498150319E-2,1.032331884E-1,2.240282297E-1
2.949531135E1,6.459710002E-2,1.221694499E-1,1.940967143E-1
2.951660412E1,-1.382041872E-1,4.581354558E-2,1.934858710E-1
2.953789688E1,9.620844387E-3,1.282779220E-2,1.855448484E-1
2.955918964E1,1.568350345E-1,7.757759839E-2,1.330119967E-1
2.958048240E1,-1.033858955E-1,6.963659078E-2,7.559234649E-2
2.960177516E1,-5.390727147E-2,3.481829539E-2,-7.635590737E-4
2.962306792E1,-7.635590737E-4,6.474980712E-2,-1.725643501E-2
2.964436073E1,1.574458778E-1,1.753131598E-1,-9.361234307E-2
2.966565349E1,-1.527118147E-4,7.513421029E-2,-9.116895497E-2
2.968694625E1,-1.308740228E-1,-3.665083554E-3,-9.788827598E-2
2.970823901E1,3.833066672E-2,9.773556143E-3,-1.186570823E-1
2.972953177E1,2.550287358E-2,3.176405653E-2,-1.479777545E-1
2.975082453E1,-1.603474095E-2,6.169557199E-2,-1.559187621E-1
2.977211729E1,1.084253844E-2,3.115320951E-2,-1.583621502E-1
2.979341005E1,-1.985253533E-3,-2.137965336E-2,-1.333174109E-1
2.981470281E1,-1.021642014E-1,-0.000000000E0,-1.052184403E-1
2.983599557E1,1.378987730E-1,2.260134928E-2,-1.217113137E-1
2.985728833E1,-1.198787764E-1,-4.886778072E-3,-8.383878320E-2
2.987858109E1,-1.236965694E-2,-3.176405653E-2,-9.605573118E-2
2.989987385E1,4.932591692E-2,-3.420744836E-2,-1.052184403E-1
2.992116662E1,-5.512896553E-2,-8.490777016E-2,-1.076618284E-1
2.994245938E1,-2.047865391E-1,-7.085828483E-2,-1.101052165E-1
2.996375214E1,1.012479365E-1,-8.246438205E-2,-1.455343664E-1
2.998504490E1,4.627167806E-2,-2.626643144E-2,-1.601946950E-1
3.000633766E1,-6.612421572E-2,-7.574506104E-2,-2.023431510E-1
3.002763036E1,1.385096163E-1,-7.207997888E-2,-2.585411072E-1
3.004892312E1,-2.805316150E-1,-1.991362125E-1,-2.237228155E-1
3.007021589E1,1.267508045E-2,-1.197260618E-1,-2.567085624E-1
3.009150865E1,2.550287358E-2,-1.014006436E-1,-2.603736520E-1
3.011280141E1,-1.608055383E-1,-1.258345395E-1,-2.243336588E-1
3.013409417E1,1.206423342E-2,-8.368607610E-2,-2.176143378E-1
3.015538693E1,1.146865711E-1,-8.002099395E-2,-1.846285909E-1
3.017667964E1,-6.429167092E-2,-1.307213157E-1,-1.302631795E-1
3.019797240E1,-1.369825006E-1,-1.380514801E-1,-9.910997003E-2
3.021926516E1,1.878355257E-2,-7.269082218E-2,-8.139539510E-2
3.024055792E1,-6.429167092E-2,-6.230641901E-2,-1.236965694E-2
3.026185068E1,9.575030953E-2,-5.680879578E-2,3.710897267E-2
3.028314339E1,-5.024218559E-2,-5.375456065E-2,1.128540337E-1
3.030443615E1,-6.062658876E-2,-1.099525020E-2,1.812689304E-1
3.032572891E1,-6.490252167E-2,4.825693369E-2,2.099787444E-1
3.034702162E1,-1.527118147E-4,1.710372418E-2,2.698417902E-1
3.036831438E1,6.398624927E-2,2.321219631E-2,3.138227761E-1
3.038960714E1,-7.467607409E-2,4.764608666E-2,3.474193811E-1
3.041089990E1,3.771981969E-2,1.258345395E-1,3.810159862E-1
3.043219260E1,1.714953631E-1,1.099525020E-2,4.201101959E-1
3.045348537E1,-9.315420873E-3,1.081199646E-1,4.182776511E-1
3.047477812E1,-1.125486046E-1,1.398840249E-1,4.011739492E-1
3.049607083E1,1.073564067E-1,1.044548824E-1,4.042281806E-1
3.051736359E1,4.077405483E-2,1.050657257E-1,4.066715539E-1
3.053865635E1,1.068982761E-3,8.246438205E-2,3.822376728E-1
3.055994906E1,-8.383878320E-2,1.276670843E-1,3.584146202E-1
3.058124182E1,2.368560284E-1,1.649287641E-1,3.455868363E-1
3.060253453E1,2.367033064E-2,1.282779276E-1,3.174878657E-1
3.062382729E1,-3.069507517E-2,1.368297935E-1,2.869454920E-1
3.064512000E1,-9.422318637E-2,1.630962193E-1,2.509055138E-1
3.066641276E1,8.842013776E-2,1.447708011E-1,2.392994165E-1
3.068770552E1,-2.580829710E-2,1.026223376E-1,2.209739983E-1
3.070899823E1,-4.535540938E-2,1.264453828E-1,1.721062213E-1
3.073029099E1,2.061609551E-2,1.356080920E-1,1.519482583E-1
3.075158370E1,-2.519745007E-2,1.038440317E-1,1.140757278E-1
3.077287646E1,9.758284688E-2,6.352811307E-2,5.848862603E-2
3.079416917E1,-9.788827598E-2,2.870982140E-2,2.244863659E-2
3.081546193E1,3.283303976E-2,4.337015375E-2,1.145338640E-2
3.083675464E1,1.939439960E-2,-1.954711229E-2,-4.169032723E-2
3.085804734E1,-2.641914412E-2,2.748812735E-2,-6.001574174E-2
3.087934010E1,2.050919682E-1,4.947862774E-2,-9.483403713E-2
3.090063281E1,-1.718007922E-1,7.941014320E-2,-1.253764033E-1
3.092192557E1,1.922641695E-1,1.209477559E-1,-1.534753740E-1
3.094321828E1,4.199574888E-2,3.359659761E-2,-1.052184403E-1
3.096451099E1,-1.534753740E-1,5.803048983E-2,-1.039967462E-1
3.098580375E1,4.109475017E-1,6.963659078E-2,-1.400367320E-1
3.100709646E1,-5.512896553E-2,3.909422457E-2,-1.070509851E-1
3.102838917E1,-2.780882120E-1,2.748812735E-2,-8.689302206E-2
3.104968193E1,3.205420971E-1,1.221694518E-2,-1.076618284E-1
3.107097464E1,-9.727742523E-2,-4.275931045E-3,-7.162184268E-2
3.109226734E1,-1.186570823E-1,1.588202827E-2,-7.956285775E-2
3.111355935E1,2.026485801E-1,2.626643144E-2,-8.444963396E-2
3.113485206E1,-1.394258887E-1,4.581354558E-2,-7.223268598E-2
3.115614477E1,4.627167806E-2,2.993151546E-2,-1.094943732E-1
3.117743748E1,3.222219273E-2,1.038440317E-2,-8.506047726E-2
3.119873024E1,-2.947338112E-2,8.551862091E-3,-1.003316641E-1
3.122002295E1,-1.027750522E-1,-3.726168349E-2,-1.192679256E-1
3.124131566E1,4.566083103E-2,6.719319522E-2,-1.400367320E-1
3.126260836E1,1.450762246E-2,-5.497625470E-2,-1.302631795E-1
3.128390107E1,-9.116895497E-2,-4.275931045E-3,-1.620272398E-1
3.130519378E1,1.763821393E-1,3.970507160E-2,-1.864611208E-1
3.132648649E1,-1.101052165E-1,-7.146912813E-2,-1.546970755E-1
3.134777925E1,6.459710002E-2,-2.932066843E-2,-2.072299272E-1
3.136907196E1,5.955760833E-3,3.359659761E-2,-1.980672181E-1
3.139036467E1,-1.027750522E-1,-3.909422457E-2,-1.803526580E-1
3.141165737E1,8.353336155E-2,-6.658235192E-2,-2.170034945E-1
3.143295008E1,3.222219273E-2,1.038440317E-2,-1.998997629E-1
3.145424279E1,-3.802524135E-2,-7.941014133E-3,-1.998997629E-1
3.147553550E1,3.527642787E-2,-5.253286287E-2,-1.852394342E-1
3.149682821E1,-2.702999115E-2,-6.108472496E-2,-1.852394342E-1
3.151812092E1,-9.315420873E-3,-3.665083647E-2,-2.053973973E-1
3.153941362E1,2.063136548E-1,-2.809897438E-2,-2.127275616E-1
3.156070633E1,-2.634278834E-1,-1.099525094E-1,-1.730224788E-1
3.158199904E1,2.228065431E-1,-4.642439261E-2,-1.876828223E-1
3.160329175E1,7.864658535E-2,-4.764608666E-2,-1.491994411E-1
3.162458440E1,-6.978929788E-2,-6.658235192E-2,-1.363716573E-1
3.164587711E1,6.887302548E-2,-2.260134928E-2,-1.241547018E-1
3.166716982E1,-2.005106062E-1,-4.337015375E-2,-6.001574174E-2
3.168846253E1,-1.908897609E-2,-4.642439261E-2,-3.802524135E-2
3.170975524E1,-2.153236605E-2,1.221694518E-3,7.177455351E-3
3.173104795E1,9.941539168E-2,2.260134928E-2,1.756185852E-2
3.175234060E1,2.672456764E-2,-1.099525020E-2,8.964183182E-2
3.177363331E1,-1.363716573E-1,3.420744836E-2,1.104106456E-1
3.179492602E1,-1.053711493E-2,1.099525020E-2,1.140757278E-1
3.181621873E1,8.353336155E-2,1.588202827E-2,1.171299592E-1
3.183751138E1,-3.374931216E-2,5.925218388E-2,8.903098851E-2
3.185880409E1,-8.078455180E-2,2.137965336E-2,6.276455522E-2
3.188009680E1,5.482354015E-2,5.008947477E-2,3.405473381E-2
3.190138946E1,-2.316638231E-1,1.020114943E-1,2.183778957E-2
3.192268216E1,1.134648770E-1,1.166718230E-1,-2.519745007E-2
3.194397487E1,1.934858710E-1,1.380514801E-1,-1.664558798E-2
3.196526753E1,-2.371614426E-1,8.918370306E-2,-2.702999115E-2
3.198656024E1,6.154286116E-2,-6.108472589E-4,-1.298050396E-2
3.200785289E1,-1.760767251E-1,-1.771457121E-2,1.145338640E-2
3.202914560E1,6.704048812E-2,2.321219631E-2,-2.580829710E-2
3.205043831E1,-7.101099193E-2,-6.719320081E-3,-5.650337320E-3
3.207173097E1,-3.374931216E-2,2.748812735E-2,-1.236965694E-2
3.209302368E1,1.818797737E-1,-1.160609815E-2,-4.718795046E-2
3.211431633E1,-8.200624585E-2,6.597150117E-2,-3.206948051E-3
3.213560899E1,8.399149403E-3,-1.832541823E-2,-1.786728203E-2
3.215690170E1,-2.153236605E-2,-4.275931045E-3,-5.268557742E-2
3.217819435E1,-8.689302206E-2,1.710372418E-2,-3.008422814E-2
3.219948706E1,-1.064401343E-1,6.291726977E-2,-2.519745007E-2
3.222077972E1,2.050919682E-1,4.398100078E-2,-3.741439432E-2
3.224207237E1,-7.956285775E-2,-1.099525020E-2,-6.184828654E-2
3.226336508E1,-9.788827598E-2,-1.160609815E-2,-7.284353673E-2
3.228465774E1,1.110214889E-1,6.352811307E-2,-8.383878320E-2
3.230595039E1,1.055238619E-1,1.099525020E-2,-8.750387281E-2
3.232724310E1,-3.206948051E-3,-1.221694518E-2,-1.180462316E-1
3.234853576E1,-9.239064902E-2,-2.260134928E-2,-1.265980899E-1
3.236982842E1,1.073564067E-1,-2.626643144E-2,-1.644706279E-1
3.239112107E1,-1.217113137E-1,-2.443389036E-3,-1.583621502E-1
3.241241378E1,1.287360638E-1,-3.970507160E-2,-1.956238300E-1
3.243370644E1,-9.727742523E-2,-5.803048983E-2,-1.663031727E-1
3.245499909E1,2.197522968E-1,-4.398100078E-2,-2.200577259E-1
3.247629175E1,-5.390727147E-2,-4.703523964E-2,-1.901262105E-1
3.249758441E1,3.466558084E-2,-5.619794875E-2,-1.834068894E-1
3.251887706E1,-8.704573847E-3,-5.803048983E-2,-1.504211426E-1
3.254016977E1,5.299099907E-2,-5.925218388E-2,-1.400367320E-1
3.256146242E1,-1.656923145E-1,-2.626643144E-2,-1.052184403E-1
3.258275508E1,2.203631550E-1,-3.054236248E-2,-1.192679256E-1
3.260404774E1,-1.577513069E-1,-2.321219631E-2,-5.696150661E-2
3.262534039E1,-2.092151903E-2,-3.665083554E-3,-2.458660305E-2
3.264663305E1,2.550287358E-2,-1.160609815E-2,1.511846948E-2
3.266792571E1,4.123218823E-3,2.443389036E-2,2.794626169E-2
3.268921836E1,8.842013776E-2,8.063183725E-2,3.038965166E-2
3.271051102E1,-5.696150661E-2,8.612946421E-2,6.520794332E-2
3.273180368E1,-3.817795310E-3,8.368607610E-2,8.292251825E-2
3.275309628E1,1.104106456E-1,9.712471068E-2,8.780929446E-2
3.277438894E1,-8.444963396E-2,1.307213157E-1,9.819369763E-2
3.279568159E1,1.084253844E-2,1.563768983E-1,6.826218218E-2
3.281697425E1,1.207950488E-1,1.539335102E-1,5.238015205E-2
3.283826691E1,-9.788827598E-2,1.093416587E-1,3.038965166E-2
3.285955956E1,-4.352286831E-2,1.020114943E-1,2.183778957E-2
3.288085222E1,9.575030953E-2,9.284878522E-2,1.634016447E-2
3.290214482E1,2.901524538E-3,5.741964281E-2,9.009997360E-3
3.292343748E1,-1.204896197E-1,4.398100078E-2,-3.619270027E-2
3.294473013E1,1.269035190E-1,8.796200156E-2,-5.818320066E-2
3.296602274E1,-1.009425074E-1,3.176405653E-2,-5.696150661E-2
3.298731539E1,7.788302377E-3,7.941014320E-2,-9.422318637E-2
3.300860805E1,8.903098851E-2,4.275930673E-2,-7.406523079E-2
3.302990066E1,-2.017323077E-1,5.497625470E-2,-6.368082762E-2
3.305119331E1,1.238492802E-1,1.588202827E-2,-5.451811850E-2
3.307248597E1,-6.734590977E-2,1.282779220E-2,-3.802524135E-2
3.309377857E1,-1.198787764E-1,5.925218388E-2,-4.535540938E-2
3.311507123E1,8.108997345E-2,6.352811307E-2,-5.818320066E-2
3.313636388E1,4.749337584E-2,3.787253052E-2,-4.657710344E-2
3.315765649E1,-2.279987335E-1,7.146912813E-2,-7.406523079E-2
3.317894914E1,2.667875290E-1,2.932066843E-2,-7.589777559E-2
3.320024175E1,-1.913478971E-1,5.497625098E-3,-7.284353673E-2
3.322153435E1,-2.702999115E-2,1.832541777E-3,-8.506047726E-2
3.324282701E1,1.782146841E-1,6.719319522E-2,-1.143811494E-1
3.326411961E1,-1.937913001E-1,1.588202827E-2,-1.046075895E-1
3.328541227E1,1.061347127E-1,4.886778072E-2,-1.528645307E-1
3.330670487E1,4.077405483E-2,1.771457121E-2,-1.528645307E-1
3.332799753E1,-3.497100621E-2,6.597150117E-2,-1.864611208E-1
3.334929013E1,1.568350345E-1,1.160609815E-2,-1.907370538E-1
3.337058274E1,-1.969982497E-2,-1.771457121E-2,-2.066190839E-1
3.339187534E1,4.734066315E-3,1.221694518E-2,-2.396048307E-1
3.341316800E1,1.006370857E-1,6.108472589E-3,-2.701472044E-1
3.343446060E1,9.880454093E-2,-5.192201585E-2,-2.615953386E-1
3.345575321E1,-7.040014863E-2,-4.092676565E-2,-2.927485406E-1
3.347704586E1,4.871506989E-2,-5.803048983E-2,-3.049654961E-1
3.349833847E1,-7.635590737E-4,-3.359659761E-2,-3.135173619E-1
3.351963107E1,-5.512896553E-2,-1.679829955E-1,-3.122956753E-1
3.354092368E1,-1.919587553E-1,-1.349972486E-1,-3.080197275E-1
3.356221628E1,3.981196880E-1,6.108472589E-4,-3.880407214E-1
3.358350888E1,-8.444963396E-2,-1.710372418E-2,-3.550549746E-1
3.360480154E1,3.466558084E-2,-1.392731816E-1,-3.593308926E-1
3.362609414E1,-1.009425074E-1,-1.429382563E-1,-3.385621011E-1
3.364738675E1,6.826218218E-2,-1.521009654E-1,-3.513898849E-1
3.366867935E1,8.842013776E-2,-1.331647038E-1,-3.458922505E-1
3.368997196E1,-3.374931216E-2,-1.973036677E-1,-3.104631305E-1
3.371126456E1,-7.834116369E-2,-2.009687424E-1,-2.799207568E-1
3.373255716E1,-3.497100621E-2,-2.082989216E-1,-2.860292196E-1
3.375384977E1,-1.481304597E-2,-1.979145110E-1,-2.536543310E-1
3.377514237E1,-8.750387281E-2,-1.789782494E-1,-2.108950168E-1
3.379643498E1,1.128540337E-1,-1.637070626E-1,-1.980672181E-1
3.381772758E1,-2.170034945E-1,-1.704263836E-1,-1.382041872E-1
3.383902019E1,6.566607859E-3,-1.258345395E-1,-1.815743446E-1
3.386031274E1,6.337540597E-2,-1.117850468E-1,-1.174353883E-1
3.388160534E1,-1.137702987E-1,-1.215586066E-1,-2.519745007E-2
3.390289795E1,1.440072358E-1,-1.117850468E-1,-4.169032723E-2
3.392419055E1,-2.047865391E-1,-1.294996142E-1,8.399149403E-3
3.394548316E1,7.009471953E-2,-1.038440317E-1,5.482354015E-2
3.396677576E1,4.627167806E-2,-2.993151546E-2,8.292251825E-2
3.398806831E1,1.659977436E-1,-7.024743408E-2,1.079672500E-1
3.400936092E1,-1.088835225E-1,-1.252236813E-1,1.482831687E-1
3.403065352E1,6.704048812E-2,-6.963659078E-2,1.305686086E-1
3.405194612E1,7.314895838E-2,-5.741964281E-2,1.800472289E-1
3.407323868E1,-1.553079188E-1,-9.773556143E-2,2.130329758E-1
3.409453128E1,1.049130186E-1,-2.687728032E-2,2.118112892E-1
3.411582388E1,5.909947306E-2,-6.658235192E-2,2.380777150E-1
3.413711644E1,-8.750387281E-2,-7.330167107E-3,2.441861928E-1
3.415840904E1,8.903098851E-2,-7.941014133E-3,2.454078794E-1
3.417970159E1,-9.727742523E-2,3.054236295E-3,2.753393948E-1
3.420099420E1,-4.107947648E-2,-4.275931045E-3,2.735068500E-1
3.422228675E1,4.810422286E-2,3.237490356E-2,2.661767006E-1
3.424357935E1,7.681404054E-2,6.597150117E-2,2.906105816E-1
3.426487190E1,-5.696150661E-2,6.658235192E-2,2.728960216E-1
3.428616451E1,1.672194302E-1,8.674030751E-2,2.631224692E-1
3.430745706E1,-1.033858955E-1,1.203369126E-1,2.637332976E-1
3.432874967E1,3.527642787E-2,8.490777016E-2,2.619007528E-1
3.435004222E1,1.023169141E-2,8.002099395E-2,2.680092454E-1
3.437133482E1,-1.985253533E-3,3.176405653E-2,2.881672084E-1
3.439262737E1,-1.259872466E-1,2.870982140E-2,2.533488870E-1
3.441391992E1,-7.223268598E-2,7.207997888E-2,2.374668717E-1
3.443521253E1,2.057028115E-1,1.215586066E-1,1.953184158E-1
3.445650508E1,1.206423342E-2,1.032331884E-1,1.983726472E-1
3.447779763E1,-1.351499557E-1,1.032331884E-1,1.635543555E-1
3.449909024E1,1.922641695E-1,1.240019947E-1,1.409530044E-1
3.452038279E1,4.260659590E-2,8.979454637E-2,1.482831687E-1
3.454167534E1,-1.858502775E-1,7.085828483E-2,1.006370857E-1
3.456296789E1,1.079672500E-1,5.131116882E-2,5.299099907E-2
3.458426050E1,3.833066672E-2,7.818844914E-2,3.466558084E-2
3.460555305E1,6.581879407E-2,6.108472496E-2,-2.153236605E-2
3.462684560E1,-9.300149232E-2,4.886778072E-2,-3.558185324E-2
3.464813816E1,8.597674966E-2,1.649287529E-2,-8.506047726E-2
3.466943071E1,9.009997360E-3,1.588202827E-2,-1.345391124E-1
3.469072326E1,5.604523420E-2,8.857285231E-2,-1.449235082E-1
3.471201581E1,4.199574888E-2,1.343864016E-2,-1.644706279E-1
3.473330836E1,-2.031067200E-2,1.832541777E-3,-1.730224788E-1
3.475460092E1,5.299099907E-2,4.275931045E-3,-2.005106062E-1
3.477589347E1,1.511846948E-2,-1.404948719E-2,-1.913478971E-1
3.479718602E1,4.688252881E-2,-7.513421029E-2,-1.730224788E-1
3.481847857E1,-1.094943732E-1,-8.674030751E-2,-1.632489264E-1
3.483977112E1,5.482354015E-2,-6.719319522E-2,-1.455343664E-1
3.486106368E1,-1.064401343E-1,-1.185043678E-1,-1.339282542E-1
3.488235623E1,-6.261184346E-3,-6.230641901E-2,-1.333174109E-1
3.490364878E1,1.433963925E-1,-1.117850468E-1,-1.094943732E-1
3.492494133E1,-1.351499557E-1,-7.818844914E-2,-7.284353673E-2
3.494623388E1,3.710897267E-2,-3.726168349E-2,-6.856760383E-2
3.496752644E1,4.688252881E-2,-6.902574003E-2,-4.535540938E-2
3.498881894E1,-8.750387281E-2,-2.626643144E-2,-1.664558798E-2
3.501011149E1,1.287360638E-1,-5.070032179E-2,-2.825168520E-2
3.503140404E1,-6.001574174E-2,-8.551862091E-3,2.550287358E-2
3.505269659E1,-3.130592033E-2,-6.719320081E-3,3.405473381E-2
3.507398914E1,4.016320780E-2,-1.343864016E-2,4.810422286E-2
3.509528164E1,-7.101099193E-2,-2.443389036E-2,7.314895838E-2
3.511657420E1,2.305948362E-2,1.649287529E-2,7.498150319E-2
3.513786675E1,8.414421231E-2,-2.565558441E-2,8.719844371E-2
3.515915925E1,1.450762246E-2,-6.169557199E-2,1.299577504E-1
3.518045180E1,9.620844387E-3,1.893626526E-2,1.122431830E-1
3.520174435E1,5.176930502E-2,4.275931045E-3,1.110214889E-1
3.522303685E1,-1.107160673E-1,-2.565558441E-2,1.171299592E-1
3.524432940E1,-3.817795310E-3,-3.665083554E-3,1.006370857E-1
3.526562190E1,-2.702999115E-2,-2.199050039E-2,1.256818175E-1
3.528691446E1,4.749337584E-2,4.886778072E-3,1.281252056E-1
3.530820701E1,-1.015533581E-1,2.504473738E-2,1.201841980E-1
3.532949951E1,1.165191159E-1,-3.787253052E-2,1.275143623E-1
3.535079201E1,-1.259872466E-1,-7.941014133E-3,1.531699449E-1
3.537208456E1,-1.236965694E-2,-1.954711229E-2,1.433963925E-1
3.539337706E1,4.443913698E-2,2.443389036E-2,1.330119967E-1
3.541466961E1,-2.153236605E-2,-7.330167107E-3,1.458397806E-1
3.543596211E1,-1.333174109E-1,-1.832541777E-3,1.201841980E-1
3.545725466E1,2.331909388E-1,-1.527118124E-2,1.165191159E-1
3.547854716E1,-9.116895497E-2,-3.665083554E-3,9.819369763E-2
3.549983966E1,1.788255423E-1,-2.260134928E-2,1.018587798E-1
3.552113222E1,-1.821851879E-1,-4.275930673E-2,1.220167428E-1
3.554242472E1,-1.058292910E-1,-5.070032179E-2,9.330692142E-2
3.556371722E1,1.940967143E-1,-1.527118124E-2,6.520794332E-2
3.558500977E1,1.084253844E-2,-7.085828483E-2,4.688252881E-2
3.560630227E1,-1.699682474E-1,-8.185353130E-2,1.634016447E-2
3.562759477E1,9.941539168E-2,-3.848337755E-2,1.084253844E-2
3.564888727E1,1.433963925E-1,-6.291726977E-2,-4.428642802E-3
3.567017982E1,-1.724116355E-1,-7.879929990E-2,1.145338640E-2
3.569147232E1,-1.217113137E-1,-9.040539712E-2,5.344913341E-3
3.571276482E1,9.575030953E-2,-6.291726977E-2,-4.428642802E-3
3.573405732E1,6.398624927E-2,-6.291726977E-2,3.894151375E-2
3.575534982E1,-2.762556672E-1,-5.314370990E-2,4.382828996E-2
3.577664232E1,1.696628332E-1,-5.986303091E-2,5.726693198E-2
3.579793482E1,6.566607859E-3,-2.809897438E-2,7.192726433E-2
3.581922732E1,-1.241547018E-1,-8.612946421E-2,1.000262350E-1
3.584051982E1,-1.351499557E-1,-6.902574003E-2,1.036913246E-1
3.586181232E1,1.476723254E-1,-8.124268800E-2,1.391204596E-1
3.588310482E1,9.269607067E-2,-9.345962852E-2,1.391204596E-1
3.590439732E1,-6.245913357E-2,-1.007898003E-1,1.488940120E-1
3.592568982E1,-2.153236605E-2,-7.941014320E-2,1.592784226E-1
3.594698232E1,-1.339282542E-1,-1.032331884E-1,1.543916464E-1
3.596827482E1,1.287360638E-1,-4.886778072E-2,1.360662282E-1
3.598956732E1,-1.528645307E-1,-4.642439261E-2,1.733279079E-1
3.601085982E1,2.741177082E-1,-1.649287529E-2,1.678302884E-1
3.603215232E1,-7.040014863E-2,3.176405653E-2,2.466295809E-1
3.605344482E1,2.203631550E-1,6.719320081E-3,2.673983872E-1
3.607473727E1,2.794626169E-2,-6.108472589E-4,2.948864996E-1
3.609602977E1,-1.039967462E-1,-1.404948719E-2,3.046600819E-1
3.611732227E1,2.244863659E-2,7.330167294E-2,2.924431264E-1
3.613861477E1,6.276455522E-2,7.207997888E-2,3.388675153E-1
3.615990727E1,1.220167428E-1,8.490777016E-2,3.633013964E-1
3.618119972E1,-5.696150661E-2,9.773556143E-2,3.938437700E-1
3.620249222E1,-5.451811850E-2,1.258345395E-1,3.956763148E-1
3.622378472E1,3.344388679E-2,1.820324808E-1,4.341596961E-1
3.624507717E1,1.763821393E-1,1.985253543E-1,4.567610323E-1
3.626636966E1,-1.675248593E-1,1.649287641E-1,4.518742561E-1
3.628766216E1,1.084253844E-2,2.223484069E-1,4.311054647E-1
3.630895461E1,1.605001241E-1,2.443388999E-1,4.188885093E-1
3.633024711E1,-2.011214644E-1,2.028012872E-1,4.146125913E-1
3.635153961E1,1.267508045E-2,2.345653474E-1,3.712424338E-1
3.637283206E1,1.543916464E-1,2.235700935E-1,3.614688516E-1
3.639412456E1,4.871506989E-2,1.783674061E-1,3.180987239E-1
3.641541701E1,-2.078407854E-1,2.003578991E-1,2.423536479E-1
3.643670951E1,1.708845198E-1,1.551551968E-1,2.289150059E-1
3.645800196E1,-2.596100792E-3,1.832541823E-1,1.721062213E-1
3.647929446E1,9.880454093E-2,2.315111160E-1,1.055238619E-1
3.650058691E1,3.833066672E-2,1.942494214E-1,7.009471953E-2
3.652187940E1,1.067455560E-1,1.637070626E-1,5.054761097E-2
3.654317185E1,-1.174353883E-1,1.014006436E-1,9.009997360E-3
3.656446430E1,-5.818320066E-2,1.404948682E-1,-3.680354729E-2
3.658575680E1,2.148655206E-1,1.459924877E-1,-6.673506647E-2
3.660704925E1,-2.121167034E-1,1.453816444E-1,-8.750387281E-2
3.662834170E1,-4.718795046E-2,8.429691941E-2,-1.021642014E-1
3.664963420E1,5.909947306E-2,8.368607610E-2,-1.394258887E-1
3.667092664E1,1.140757278E-1,7.330167294E-2,-1.302631795E-1
3.669221909E1,8.231166750E-2,1.099525094E-1,-1.559187621E-1
3.671351154E1,-9.300149232E-2,2.504473738E-2,-1.632489264E-1
3.673480404E1,-2.641914412E-2,-5.497625098E-3,-1.577513069E-1
3.675609649E1,5.787777901E-2,2.321219631E-2,-1.766875684E-1
3.677738894E1,1.878355257E-2,9.773556143E-3,-1.913478971E-1
3.679868138E1,-3.191677108E-2,2.321219631E-2,-2.273878902E-1
3.681997388E1,3.710897267E-2,-7.330167107E-3,-1.937913001E-1
3.684126633E1,1.084253844E-2,-1.221694518E-3,-2.145601064E-1
3.686255878E1,-2.506000996E-1,-2.009687424E-1,-1.437018216E-1
3.688385123E1,2.307475507E-1,-3.481829539E-2,-2.896943092E-1
3.690514368E1,-3.098522723E-1,-2.443389036E-3,-2.524326444E-1
3.692643612E1,6.276455522E-2,3.176405653E-2,-2.536543310E-1
3.694772857E1,7.070557028E-2,7.330167294E-2,-2.548760176E-1
3.696902102E1,1.450762246E-2,-9.101624042E-2,-2.273878902E-1
3.699031347E1,7.986827940E-2,-1.050657257E-1,-2.408265322E-1
3.701160592E1,-1.236965694E-2,-1.001789495E-1,-2.121167034E-1
3.703289836E1,-1.284306347E-1,-1.142284349E-1,-1.986780763E-1
3.705419081E1,1.195733473E-1,-9.651386738E-2,-2.005106062E-1
3.707548326E1,7.803573459E-2,-5.619794875E-2,-1.571404636E-1
3.709677571E1,7.788302377E-3,-1.191152185E-1,-1.009425074E-1
3.711806816E1,-2.353289127E-1,-4.214845970E-2,-5.268557742E-2
3.713936060E1,1.983726472E-1,-6.169557199E-2,-5.085303262E-2
3.716065300E1,-5.268557742E-2,2.076880634E-2,-8.704573847E-3
3.718194545E1,3.466558084E-2,2.687728032E-2,1.511846948E-2
3.720323789E1,-4.169032723E-2,2.809897438E-2,5.543438718E-2
3.722453034E1,6.948387623E-2,4.642439261E-2,8.597674966E-2
3.724582279E1,-1.015533581E-1,7.207997888E-2,1.030804738E-1
3.726711524E1,-5.451811850E-2,5.619794875E-2,9.452861547E-2
3.728840763E1,3.468085229E-1,1.081199646E-1,9.636115283E-2
3.730970008E1,-2.121167034E-1,8.674030751E-2,1.043021679E-1
3.733099253E1,-6.872031838E-3,8.185353130E-2,7.375980914E-2
3.735228492E1,-7.528692484E-2,3.298575059E-2,7.253811508E-2
3.737357737E1,-5.940489471E-2,4.337015375E-2,6.826218218E-2
3.739486982E1,1.653869003E-1,6.658235192E-2,3.466558084E-2
3.741616222E1,2.916795574E-2,7.818844914E-2,9.620844387E-3
3.743745467E1,-1.296523362E-1,3.115320951E-2,1.267508045E-2
3.745874711E1,4.077405483E-2,5.558710173E-2,-2.702999115E-2
3.748003951E1,1.452289373E-1,1.527118124E-2,-2.596100792E-3
3.750133196E1,4.138490185E-2,-2.260134928E-2,-2.596100792E-3
3.752262435E1,-1.143811494E-1,3.726168349E-2,-3.436015919E-2
3.754391680E1,-1.058292910E-1,-5.253286287E-2,-1.725643501E-2
3.756520920E1,2.428117767E-2,2.687728032E-2,-3.008422814E-2
3.758650164E1,1.085781008E-1,5.131116882E-2,-2.886253223E-2
3.760779404E1,-2.823641598E-1,1.221694518E-2,-6.872031838E-3
3.762908649E1,2.747285664E-1,-1.527118124E-2,-1.786728203E-2
3.765037888E1,-1.498102844E-1,-1.832541777E-3,-6.261184346E-3
3.767167128E1,-6.872031838E-3,-5.436540768E-2,-8.093725890E-3
3.769296373E1,2.173089087E-1,5.314370990E-2,-1.542389300E-2
3.771425612E1,-2.463241518E-1,-3.054236248E-2,1.679830020E-3
3.773554857E1,1.085781008E-1,-2.809897438E-2,-3.741439432E-2
3.775684097E1,1.293469071E-1,-7.941014133E-3,-3.680354729E-2
3.777813336E1,-9.177979827E-2,-1.649287529E-2,-1.374406274E-3
3.779942581E1,1.055238619E-1,2.809897438E-2,-5.451811850E-2
3.782071821E1,-1.510319859E-1,-2.015795931E-2,-2.764083818E-2
3.784201060E1,-1.527118147E-4,-2.565558441E-2,-3.436015919E-2
3.786330300E1,1.678302884E-1,1.832541777E-3,-3.680354729E-2
3.788459545E1,4.932591692E-2,6.108472589E-3,-2.458660305E-2
3.790588784E1,-9.361234307E-2,-1.527118124E-2,-2.153236605E-2
3.792718024E1,1.328592747E-2,1.588202827E-2,-4.169032723E-2
3.794847263E1,-4.428642802E-3,6.291726977E-2,-4.657710344E-2
3.796976503E1,9.620844387E-3,7.635590434E-2,-2.947338112E-2
3.799105742E1,8.719844371E-2,8.246438205E-2,-6.368082762E-2
3.801234987E1,-6.123743951E-2,5.375456065E-2,-3.741439432E-2
3.803364227E1,1.043021679E-1,5.680879578E-2,-6.551336497E-2
3.805493467E1,-3.130592033E-2,7.513421029E-2,-7.650861889E-2
3.807622706E1,-8.811471611E-2,9.162709117E-3,-8.200624585E-2
3.809751946E1,4.871506989E-2,3.481829539E-2,-9.300149232E-2
3.811881185E1,1.934858710E-1,3.359659761E-2,-9.910997003E-2
3.814010425E1,-1.522536725E-1,-2.015795931E-2,-1.015533581E-1
3.816139664E1,8.170082420E-2,2.382304333E-2,-1.259872466E-1
3.818268904E1,7.437065244E-2,2.382304333E-2,-1.125486046E-1
3.820398144E1,1.634016447E-2,1.221694518E-2,-8.506047726E-2
3.822527383E1,4.138490185E-2,6.047387794E-2,-1.039967462E-1
3.824656623E1,1.464506239E-1,7.146912813E-2,-1.192679256E-1
3.826785862E1,4.932591692E-2,-3.665083554E-3,-1.052184403E-1
3.828915097E1,-8.200624585E-2,2.870982140E-2,-9.910997003E-2
3.831044336E1,-2.947338112E-2,3.359659761E-2,-9.361234307E-2
3.833173576E1,4.688252881E-2,1.282779220E-2,-1.003316641E-1
3.835302816E1,8.780929446E-2,1.649287529E-2,-8.994726092E-2
3.837432055E1,-1.516428292E-1,2.932066843E-2,-1.033858955E-1
3.839561295E1,-8.872556686E-2,6.352811307E-2,-9.788827598E-2
3.841690529E1,3.620797098E-1,3.481829539E-2,-8.689302206E-2
3.843819769E1,-6.123743951E-2,3.054236248E-2,-5.696150661E-2
3.845949008E1,-2.292204350E-1,-2.137965336E-2,-6.184828654E-2
3.848078248E1,1.634016447E-2,-1.404948719E-2,-8.689302206E-2
3.850207482E1,1.511846948E-2,3.665083647E-2,-6.978929788E-2
3.852336722E1,7.864658535E-2,5.925218388E-2,-7.589777559E-2
3.854465961E1,2.489202656E-2,2.199050039E-2,-6.856760383E-2
3.856595196E1,-2.463241518E-1,-3.970507160E-2,-3.802524135E-2
3.858724435E1,8.842013776E-2,7.941014133E-3,-6.001574174E-2
3.860853670E1,-6.978929788E-2,1.649287529E-2,-1.725643501E-2
3.862982909E1,-3.191677108E-2,4.520269856E-2,-3.619270027E-2
3.865112149E1,1.574458778E-1,2.504473738E-2,-5.451811850E-2
3.867241383E1,4.443913698E-2,2.260134928E-2,-4.291202128E-2
3.869370623E1,-6.872031838E-3,2.993151546E-2,-6.123743951E-2
3.871499857E1,1.068982761E-3,6.291726977E-2,-5.757235363E-2
3.873629097E1,1.145338640E-2,-6.719320081E-3,-2.702999115E-2
3.875758331E1,7.437065244E-2,-4.275931045E-3,-6.123743951E-2
3.877887571E1,-1.339282542E-1,-2.748812735E-2,-8.383878320E-2
3.880016805E1,1.817270555E-2,-2.443389036E-2,-8.078455180E-2
3.882146045E1,1.206423342E-2,-3.848337755E-2,-9.788827598E-2
3.884275279E1,-3.436015919E-2,-7.696675509E-2,-9.300149232E-2
3.886404513E1,3.100049868E-2,-2.993151546E-2,-1.070509851E-1
3.888533753E1,-2.825168520E-2,-6.658235192E-2,-1.021642014E-1
3.890662987E1,-7.635590737E-4,1.588202827E-2,-1.033858955E-1
3.892792222E1,1.629435122E-1,2.565558441E-2,-1.149920002E-1
3.894921461E1,-2.408265322E-1,-1.771457121E-2,-1.113269106E-1
3.897050696E1,-5.207473040E-2,1.588202827E-2,-1.076618284E-1
3.899179930E1,-2.336490713E-2,1.893626526E-2,-9.116895497E-2
3.901309170E1,4.504998401E-2,4.153761268E-2,-9.177979827E-2
3.903438404E1,-1.985253533E-3,3.054236295E-3,-7.773031294E-2
3.905567638E1,-4.230117425E-2,1.832541777E-3,-9.910997003E-2
3.907696873E1,-1.119377613E-1,-4.886778072E-3,-1.278197914E-1
3.909826112E1,7.864658535E-2,5.497625098E-3,-1.174353883E-1
3.911955347E1,1.195733473E-1,8.551862091E-3,-1.614163816E-1
3.914084581E1,-1.577513069E-1,-3.481829539E-2,-1.540862173E-1
3.916213816E1,-1.412584335E-1,-8.612946421E-2,-1.424801201E-1
3.918343050E1,1.403421611E-1,-1.594311297E-1,-1.516428292E-1
3.920472284E1,-1.614163816E-1,-1.417165697E-1,-1.675248593E-1
3.922601519E1,1.464506239E-1,-8.246438205E-2,-1.907370538E-1
3.924730753E1,-4.291202128E-2,-1.178935245E-1,-1.742441803E-1
3.926859987E1,-1.046075895E-1,-9.712471068E-2,-1.540862173E-1
3.928989222E1,3.833066672E-2,-6.047387794E-2,-1.681357026E-1
3.931118456E1,5.054761097E-2,-5.803048983E-2,-1.742441803E-1
3.933247696E1,-2.092151903E-2,-8.490777016E-2,-1.400367320E-1
3.935376930E1,8.399149403E-3,-5.192201585E-2,-1.296523362E-1
3.937506164E1,-7.635590737E-4,-6.474980712E-2,-1.015533581E-1
3.939635394E1,-1.461452097E-1,-7.146912813E-2,-5.512896553E-2
3.941764628E1,-9.666658193E-2,-5.314370990E-2,-1.420219894E-2
3.943893862E1,5.360184610E-2,-8.429691941E-2,-8.704573847E-3
3.946023097E1,-1.333174109E-1,-5.680879578E-2,1.511846948E-2
3.948152331E1,4.871506989E-2,-5.253286287E-2,4.810422286E-2
3.950281566E1,9.452861547E-2,-4.398100078E-2,4.260659590E-2
3.952410800E1,-2.096733153E-1,-2.870982140E-2,6.093201414E-2
3.954540029E1,1.146865711E-1,-4.642439261E-2,7.681404054E-2
3.956669263E1,1.328592747E-2,-5.864133686E-2,8.658760041E-2
3.958798498E1,-9.926267900E-3,-5.314370990E-2,7.925742865E-2
3.960927732E1,1.397313178E-1,-8.124268800E-2,7.498150319E-2
3.963056966E1,-2.194468826E-1,-1.075091213E-1,9.636115283E-2
3.965186196E1,-2.072299272E-1,-7.941014320E-2,1.049130186E-1
3.967315430E1,2.991624475E-1,-2.870982140E-2,5.360184610E-2
3.969444664E1,5.604523420E-2,-7.941014133E-3,6.948387623E-2
3.971573894E1,-7.528692484E-2,-2.504473738E-2,1.018587798E-1
3.973703128E1,1.476723254E-1,-5.070032179E-2,8.780929446E-2
3.975832362E1,8.108997345E-2,-5.314370990E-2,7.192726433E-2
3.977961592E1,-5.635065958E-2,2.687728032E-2,8.108997345E-2
3.980090826E1,-1.742441803E-1,-5.741964281E-2,1.000262350E-1
3.982220060E1,1.055238619E-1,-7.513421029E-2,8.964183182E-2
3.984349289E1,3.710897267E-2,-4.886778072E-2,5.604523420E-2
3.986478524E1,-4.413371533E-2,-2.382304333E-2,7.681404054E-2
3.988607753E1,-7.284353673E-2,-6.108472496E-2,8.353336155E-2
3.990736987E1,1.336228400E-1,-6.474980712E-2,8.414421231E-2
3.992866217E1,-1.527118147E-4,-6.536065787E-2,7.375980914E-2
3.994995451E1,-1.284306347E-1,-1.154501289E-1,8.964183182E-2
3.997124680E1,1.366770715E-1,-7.696675509E-2,7.620319724E-2
3.999253914E1,-1.786728203E-2,-8.796200156E-2,9.086353332E-2
4.001383144E1,6.887302548E-2,-1.221694518E-3,9.513945878E-2
4.003512378E1,-5.451811850E-2,-7.757759839E-2,9.452861547E-2
4.005641607E1,-2.145601064E-1,-9.590301663E-2,9.758284688E-2
4.007770836E1,1.262926757E-1,-1.221694518E-3,8.658760041E-2
4.009900071E1,1.183516532E-1,-0.000000000E0,8.964183182E-2
4.012029300E1,-1.406475753E-1,-4.153761268E-2,1.049130186E-1
4.014158529E1,-6.184828654E-2,-2.199050039E-2,8.108997345E-2
4.016287763E1,-9.926267900E-3,-5.131116882E-2,1.091889441E-1
4.018416992E1,1.256818175E-1,-1.282779220E-2,7.009471953E-2
4.020546222E1,-1.175880991E-2,-5.131116882E-2,7.986827940E-2
4.022675456E1,2.061609551E-2,-6.719319522E-2,7.986827940E-2
4.024804685E1,-9.422318637E-2,-1.514901221E-1,7.070557028E-2
4.026933914E1,5.115845799E-2,-3.848337755E-2,4.077405483E-2
4.029063144E1,8.231166750E-2,-4.886778072E-2,2.428117767E-2
4.031192378E1,-1.779092699E-1,-9.956810623E-2,6.887302548E-2
4.033321607E1,1.450762246E-2,-7.513421029E-2,5.176930502E-2
4.035450836E1,-1.058292910E-1,-8.674030751E-2,6.887302548E-2
4.037580066E1,7.620319724E-2,-5.741964281E-2,8.780929446E-2
4.039709295E1,1.450762246E-2,-5.497625470E-2,8.536590636E-2
4.041838524E1,-1.986780763E-1,-6.291726977E-2,1.195733473E-1
4.043967753E1,1.916533262E-1,-2.870982140E-2,1.281252056E-1
4.046096982E1,-1.033858955E-1,-5.741964281E-2,1.452289373E-1
4.048226216E1,-1.308740228E-1,-9.895725548E-2,1.409530044E-1
4.050355440E1,4.932591692E-2,-6.169557199E-2,1.507265568E-1
4.052484670E1,9.452861547E-2,-2.015795931E-2,1.543916464E-1
4.054613904E1,-4.535540938E-2,-9.834641218E-2,1.757712960E-1
4.056743133E1,3.527642787E-2,-1.062874198E-1,1.751604527E-1
4.058872357E1,1.574458778E-1,-4.581354558E-2,1.751604527E-1
4.061001586E1,-1.003316641E-1,-1.288887709E-1,1.904316396E-1
4.063130816E1,-8.139539510E-2,-7.513421029E-2,1.916533262E-1
4.065260045E1,8.597674966E-2,-4.825693369E-2,2.447970361E-1
4.067389274E1,1.572931744E-2,-1.068982705E-1,2.551814318E-1
4.069518503E1,5.344913341E-3,-9.529217333E-2,2.637332976E-1
4.071647732E1,9.208522737E-2,-7.085828483E-2,2.845021188E-1
4.073776961E1,-2.397575416E-2,-3.542914242E-2,3.132119179E-1
4.075906190E1,4.138490185E-2,-4.764608666E-2,3.724641204E-1
4.078035414E1,-6.261184346E-3,2.809897438E-2,3.865135908E-1
4.080164644E1,1.177408099E-1,-2.321219631E-2,4.341596961E-1
4.082293873E1,3.833066672E-2,7.757759839E-2,4.469874799E-1
4.084423102E1,1.275143623E-1,3.909422457E-2,4.940227270E-1
4.086552331E1,1.183516532E-1,2.748812735E-2,5.105155706E-1
4.088681555E1,-1.375933439E-1,9.101624042E-2,4.677563012E-1
4.090810784E1,1.878355257E-2,6.352811307E-2,4.335488379E-1
4.092940013E1,-2.275406010E-2,4.703523964E-2,4.335488379E-1
4.095069237E1,1.006370857E-1,6.658235192E-2,4.017847776E-1
4.097198466E1,7.864658535E-2,5.375456065E-2,3.633013964E-1
4.099327696E1,1.023169141E-2,1.221694518E-2,3.394783735E-1
4.101456920E1,1.036913246E-1,-3.909422457E-2,2.796153426E-1
4.103586149E1,-3.802524135E-2,-1.282779220E-2,2.619007528E-1
4.105715373E1,1.757712960E-1,-3.054236248E-2,2.423536479E-1
4.107844602E1,-9.300149232E-2,-4.275931045E-3,2.081461996E-1
4.109973831E1,1.572931744E-2,-2.260134928E-2,1.262926757E-1
4.112103055E1,1.006370857E-1,4.459185153E-2,1.116323397E-1
4.114232284E1,5.543438718E-2,2.504473738E-2,1.525591016E-1
4.116361508E1,-5.757235363E-2,4.886778072E-2,1.403421611E-1
4.118490737E1,-3.191677108E-2,-1.282779220E-2,1.073564067E-1
4.120619961E1,2.490729690E-1,1.832541777E-3,1.342336833E-1
4.122749190E1,-1.461452097E-1,-7.574506104E-2,1.152974218E-1
4.124878414E1,-3.802524135E-2,-3.420744836E-2,1.452289373E-1
4.127007644E1,-5.024218559E-2,-2.260134928E-2,1.397313178E-1
4.129136868E1,1.427855492E-1,-4.398100078E-2,1.238492802E-1
4.131266092E1,-3.636068404E-1,-2.015795931E-2,1.653869003E-1
4.133395321E1,3.785725832E-1,-6.108472496E-2,1.415638477E-1
4.135524545E1,-3.654393852E-1,2.125748396E-1,2.246390730E-1
4.137653769E1,-9.116895497E-2,-5.680879578E-2,2.057028115E-1
4.139782998E1,1.450762246E-2,9.101624042E-2,2.936648130E-1
4.141912222E1,3.222219273E-2,5.864133686E-2,3.248180151E-1
4.144041446E1,1.634016447E-2,6.658235192E-2,3.510844707E-1
4.146170670E1,-1.114796288E-2,1.331647038E-1,3.846810758E-1
4.148299899E1,9.269607067E-2,1.258345395E-1,4.066715539E-1
4.150429123E1,-4.169032723E-2,1.386623234E-1,4.359922409E-1
4.152558347E1,2.489202656E-2,1.954711229E-1,4.152234197E-1
4.154687571E1,1.501157135E-1,1.655396074E-1,4.023956358E-1
4.156816800E1,1.030804738E-1,1.673721522E-1,4.127800465E-1
4.158946024E1,-6.612421572E-2,2.144073844E-1,3.810159862E-1
4.161075248E1,1.152974218E-1,1.435490996E-1,3.248180151E-1
4.163204472E1,-3.300102353E-1,1.832541823E-1,3.174878657E-1
4.165333696E1,2.484621257E-1,1.973036677E-1,2.716743052E-1
4.167462920E1,4.443913698E-2,1.740914732E-1,2.600682080E-1
4.169592144E1,-5.696150661E-2,1.020114943E-1,2.136438340E-1
4.171721373E1,-8.261708915E-2,8.796200156E-2,1.403421611E-1
4.173850597E1,1.488940120E-1,1.734806150E-1,1.116323397E-1
4.175979821E1,3.272614181E-1,2.412846684E-1,4.321744293E-2
4.178109045E1,-1.070509851E-1,1.930277348E-1,2.977880463E-2
4.180238269E1,2.305948362E-2,3.176405653E-2,1.389677543E-2
4.182367493E1,6.826218218E-2,-3.359659761E-2,-3.741439432E-2
4.184496716E1,-1.528645307E-1,-2.015795931E-2,-5.573981255E-2
4.186625940E1,-8.093725890E-3,1.527118124E-2,-9.972081333E-2
4.188755164E1,2.392994165E-1,-1.221694518E-2,-9.910997003E-2
4.190884383E1,-1.510319859E-1,-9.407047927E-2,-6.856760383E-2
4.193013607E1,-1.406475753E-1,-1.313321590E-1,-5.635065958E-2
4.195142831E1,1.531699449E-1,-1.148392856E-1,-7.162184268E-2
4.197272055E1,7.177455351E-3,-2.993151546E-2,-7.711946964E-2
4.199401279E1,3.161134571E-2,-1.417165697E-1,-6.795676053E-2
4.201530503E1,5.360184610E-2,-1.368297935E-1,-8.994726092E-2
4.203659722E1,-2.157817930E-1,-2.040229887E-1,-6.001574174E-2
4.205788946E1,8.108997345E-2,-1.722589284E-1,-8.261708915E-2
4.207918170E1,3.710897267E-2,-1.539335102E-1,-8.750387281E-2
4.210047394E1,-3.397837877E-1,-2.565558553E-1,-3.130592033E-2
4.212176618E1,1.171299592E-1,-1.850867122E-1,-4.718795046E-2
4.214305836E1,8.597674966E-2,-2.125748396E-1,7.177455351E-3
4.216435060E1,-2.041756958E-1,-2.040229887E-1,4.138490185E-2
4.218564284E1,-7.650861889E-2,-1.258345395E-1,1.030804738E-1
4.220693503E1,1.678302884E-1,-1.685938388E-1,1.519482583E-1
4.222822727E1,-2.275406010E-2,-1.105633527E-1,1.861557066E-1
4.224951951E1,-1.455343664E-1,-9.529217333E-2,1.800472289E-1
4.227081170E1,-6.551336497E-2,-9.040539712E-2,2.625116110E-1
4.229210394E1,-2.458660305E-2,-9.773556143E-2,3.339807391E-1
4.231339618E1,1.159082651E-1,-4.886778072E-2,3.590254784E-1
