"Time (s)","Gyroscope x (rad/s)","Gyroscope y (rad/s)","Gyroscope z (rad/s)"
3.480000000E-3,-4.682543874E-1,-8.379500508E-1,5.075417459E-2
2.348000000E-2,-6.262939572E-1,-1.314023495E0,-1.479341090E-1
4.348000000E-2,-7.400894165E-1,-1.780392885E0,-2.710496187E-1
6.348156300E-2,-7.775965333E-1,-2.173790216E0,-1.567654759E-1
8.548156300E-2,-4.867199659E-1,-2.196130276E0,4.900884628E-2
1.074800000E-1,-1.458920687E-1,-1.715850592E0,5.471607298E-2
1.274800000E-1,-8.054694533E-2,-1.257684231E0,-4.016002640E-2
1.474800000E-1,-4.595451802E-2,-6.669601202E-1,-1.542347521E-1
1.675003130E-1,-1.733635515E-1,-3.589269519E-1,-2.281145304E-1
1.894800000E-1,-3.150319159E-1,-2.187246680E-1,-9.142034501E-2
2.094800000E-1,-2.777342498E-1,-2.310641408E-1,1.187172979E-1
2.294862500E-1,-1.651779562E-1,-4.753753245E-1,1.253670007E-1
2.514784380E-1,-9.332275391E-2,-7.871434689E-1,-5.457644537E-2
2.714878130E-1,-1.497666985E-1,-7.947182059E-1,-1.654223055E-1
2.934784380E-1,-2.098583877E-1,-8.297818899E-1,-9.241518378E-2
3.134909380E-1,-2.316924632E-1,-8.257851005E-1,3.295181692E-2
3.354784380E-1,-2.770535648E-1,-7.958003283E-1,6.412339956E-2
3.554878130E-1,-2.053205371E-1,-6.558772922E-1,-2.733185515E-2
3.774784380E-1,-6.248278543E-2,-5.595350862E-1,-5.930628628E-2
3.974784380E-1,-2.851868048E-2,-4.803669751E-1,8.559094369E-2
4.174784380E-1,-1.064650863E-1,-4.990070760E-1,2.788861692E-1
4.374784380E-1,-1.466600150E-1,-6.728767753E-1,2.646791935E-1
4.574784380E-1,-2.084272206E-1,-8.957902193E-1,5.998696759E-2
4.774800000E-1,-1.202531829E-1,-8.137597442E-1,-2.067342550E-1
4.994800000E-1,-7.789404690E-2,-4.042880535E-1,-2.903878689E-1
5.214784380E-1,-3.382971585E-1,-3.412467837E-1,7.225663215E-2
5.414784380E-1,-3.844436705E-1,-5.939006209E-1,4.344648123E-1
5.614800000E-1,-2.661801577E-1,-7.563733459E-1,5.259374976E-1
5.834784380E-1,-2.076418251E-1,-9.694256783E-1,3.101100922E-1
6.034784380E-1,-3.762580752E-1,-9.350078106E-1,2.545213699E-1
6.234784380E-1,-4.966509044E-1,-4.846953750E-1,3.363772929E-1
6.434800000E-1,-4.905422330E-1,6.379178166E-2,2.035926580E-1
6.634893750E-1,-5.028642416E-1,7.854505181E-1,-6.887069345E-2
6.854800000E-1,-3.405312002E-1,1.294405937E0,-2.075196430E-2
7.054925000E-1,-2.668783069E-1,1.192723155E0,-7.892379165E-2
7.274784380E-1,-4.863883555E-1,5.886646509E-1,-3.245614171E-1
7.474784380E-1,-1.957561225E-1,-3.070732355E-1,-2.997079492E-1
7.674784380E-1,4.448844120E-2,-1.394029379E0,-2.883807421E-1
7.874784380E-1,8.152432740E-2,-1.813362122E0,-2.142915279E-1
8.074784380E-1,-1.649161577E-1,-1.724141002E0,-1.822821796E-1
8.274784380E-1,-4.161388576E-1,-2.403074026E0,1.551248580E-1
8.474784380E-1,-2.406809032E-1,-2.886617422E0,3.199014068E-1
8.674784380E-1,5.375613924E-3,-2.823785543E0,-2.099631168E-2
8.874784380E-1,-7.234390080E-2,-3.048234940E0,-5.262342095E-1
9.074784380E-1,-3.603057563E-1,-2.493098021E0,-8.224864006E-1
9.274784380E-1,9.510298818E-2,-1.603032589E0,1.573937982E-1
9.474925000E-1,7.723780274E-1,-1.218292117E0,1.791789889E0
9.694784380E-1,6.051928997E-1,-7.404733896E-1,1.906824589E0
9.894784380E-1,2.883283980E-2,-2.805442214E-1,1.717089772E0
1.009478438E0,-2.713812590E-1,-1.029447556E0,1.655985832E0
1.029478438E0,-1.395914257E-1,-1.709375501E0,2.068215132E0
1.049478438E0,1.177748144E-1,-4.297873378E-1,1.809173346E0
1.069478438E0,-5.841442347E-1,4.680972993E-1,1.112088919E0
1.089478438E0,-1.717962503E0,-1.234471351E-1,1.082383394E0
1.109478438E0,-1.956269741E0,-1.153749943E0,9.580984712E-1
1.129478438E0,-1.912252545E0,-2.538668633E0,1.162127495E0
1.149478438E0,-1.914364338E0,-3.016679525E0,9.747663736E-1
1.169481563E0,-2.007111073E0,-1.982781291E0,7.107678652E-1
1.191478438E0,-1.691293836E0,-3.518060148E-1,1.055400610E0
1.211480000E0,-1.301736355E0,2.637192607E-1,1.419615865E0
1.231480000E0,-6.747268438E-1,-2.070484012E-1,1.169667244E0
1.253478438E0,-3.670427576E-2,-1.110919476E0,4.819901288E-1
1.273478438E0,2.387261391E-1,-1.507161617E0,1.862615347E-1
1.293478438E0,5.061454773E-1,-1.409615159E0,6.026970744E-1
1.313478438E0,3.827332556E-1,-8.651596904E-1,6.837327480E-1
1.333478438E0,-2.055125237E-1,-9.480803013E-1,8.826828003E-1
1.353480000E0,-7.360576987E-1,-9.548870921E-1,9.051452279E-1
1.375480000E0,-9.084264040E-1,-1.000440121E0,9.141510725E-1
1.397478438E0,-6.607118249E-1,-1.491610765E0,9.613447785E-1
1.417478438E0,-2.578549385E-1,-2.065859079E0,1.118162632E0
1.437478438E0,-2.207841538E-2,-2.545946598E0,1.467612505E0
1.457480000E0,-1.266759932E-1,-3.131277800E0,1.725956082E0
1.479480000E0,-5.414011329E-2,-4.050281048E0,1.929566145E0
1.499480000E0,4.350407720E-1,-4.841281414E0,2.099177361E0
1.521478438E0,1.019254804E0,-4.913817406E0,2.300099611E0
1.541478438E0,1.194119334E0,-4.327491283E0,2.532821894E0
1.561478438E0,1.208588123E0,-3.672975540E0,2.832477331E0
1.581487813E0,1.175095320E0,-3.258651972E0,3.235526323E0
1.603478438E0,1.070776939E0,-2.585932255E0,3.675349236E0
1.623478438E0,5.106484294E-1,-1.865076303E0,3.875102282E0
1.643478438E0,-5.133013129E-1,-9.442231059E-1,3.822620153E0
1.663478438E0,-1.530252337E0,-1.039169058E-1,3.359252691E0
1.683478438E0,-2.315598011E0,1.406194329E0,2.391188383E0
1.703478438E0,-2.886041641E0,1.257439852E0,1.920804620E0
1.723478438E0,-8.763821721E-1,1.095351219E0,1.748174191E0
1.743478438E0,6.378305554E-1,6.077411175E-1,1.370903730E0
1.763480000E0,1.027353168E0,5.683315396E-1,1.027423024E0
1.785480000E0,1.199809194E0,6.117553711E-1,7.545930743E-1
1.805480000E0,1.191955209E0,4.463505149E-1,6.258750558E-1
1.825480000E0,1.022815347E0,1.154622555E0,4.940154552E-1
1.845480000E0,7.048861384E-1,2.157680750E0,2.561445236E-1
1.865486250E0,4.952895343E-1,1.969220042E0,4.221078753E-1
1.887480000E0,3.506191969E-1,1.451415777E0,3.275808394E-1
1.907480000E0,6.815859675E-1,1.044754088E-1,5.836381018E-2
1.929480000E0,1.584322572E0,-1.084966421E0,-6.873630285E-1
1.949480000E0,2.115234375E0,-1.178149581E0,-1.457314968E0
1.971478438E0,1.871481657E0,-1.159526944E0,-1.871813297E0
1.991478438E0,1.661029816E0,-1.625704408E0,-1.846558332E0
2.011478438E0,1.717718124E0,-2.606649160E0,-1.818772674E0
2.031478438E0,1.730563760E0,-3.959855318E0,-2.076069117E0
2.051478438E0,1.978505254E0,-5.387342453E0,-2.607871056E0
2.071478438E0,2.469483852E0,-5.991785049E0,-2.464858770E0
2.091478438E0,1.541562080E0,-4.625506401E0,-1.487282276E0
2.111478438E0,6.897192001E-1,-3.280992031E0,-1.231015682E0
2.131481563E0,7.972663641E-2,-2.844520092E0,-1.781754255E0
2.153478438E0,-7.431262732E-1,-2.639094830E0,-2.511598587E0
2.173484688E0,-1.006025195E0,-1.844568610E0,-2.483551264E0
2.195480000E0,-1.140293360E0,-1.133957863E0,-2.526032448E0
2.215487813E0,-1.060270071E0,-1.232952952E0,-2.368865490E0
2.237484688E0,-8.221198916E-1,-1.389770746E0,-2.262819290E0
2.259480000E0,-6.359281540E-1,-1.155704618E0,-2.581533909E0
2.279486250E0,-6.494893432E-1,-6.007598042E-1,-2.572335958E0
2.301478438E0,-3.343876302E-1,4.577998444E-2,-1.583519816E0
2.321478438E0,5.267403647E-2,5.053077340E-1,-6.161535978E-1
2.341480000E0,5.814040899E-1,5.585751534E-1,6.126105785E-2
2.363478438E0,8.333947062E-1,-1.114392728E-1,4.204672575E-1
2.383478438E0,5.637587905E-1,-4.198040366E-1,1.365371048E-1
2.403478438E0,1.602212340E-2,-1.240580007E-1,-1.946042106E-2
2.423484688E0,-2.896548510E-1,2.073800266E-1,-2.549926005E-2
2.445480000E0,-1.782679260E-1,2.181312442E-1,2.507863641E-1
2.465492500E0,-1.086641997E-1,-9.930923581E-3,3.773401976E-1
2.487478438E0,-7.016223669E-2,-2.521826327E-1,4.736649096E-1
2.507478438E0,-2.502802201E-2,-1.986359209E-1,4.432787299E-1
2.527480000E0,-2.674891651E-1,2.284112424E-1,4.540474117E-1
2.547480000E0,-4.693190455E-1,5.803743601E-1,6.168168187E-1
2.567483125E0,-5.791525841E-1,6.040933728E-1,9.255132079E-1
2.589478438E0,-3.269001544E-1,5.195670724E-1,1.534179330E0
2.609478438E0,2.617644668E-1,5.964313745E-1,1.957840562E0
2.629480000E0,1.063202262E0,8.360127211E-1,2.074969530E0
2.649480000E0,1.340098739E0,1.290199757E0,1.728085399E0
2.671478438E0,1.283270836E0,7.930427194E-1,1.378077030E0
2.691478438E0,1.113467693E0,5.512447953E-1,1.043218255E0
2.711478438E0,1.265887260E0,5.056917071E-1,9.902125597E-1
2.731478438E0,1.630469084E0,5.992762446E-1,1.246653795E0
2.751478438E0,1.549904704E0,7.905643582E-1,1.459374547E0
2.771478438E0,1.154029131E0,5.508084297E-1,1.744439125E0
2.791478438E0,6.193999052E-1,3.449992239E-1,2.015296698E0
2.811478438E0,2.008873969E-1,1.361705810E-1,2.271476269E0
2.831478438E0,1.111774705E-2,1.945343912E-1,2.256640911E0
2.851478438E0,2.476622164E-2,4.296826124E-1,1.930072308E0
2.871478438E0,2.323033214E-1,6.796835661E-1,1.165967226E0
2.891478438E0,3.072477579E-1,5.900783539E-1,5.191830993E-1
2.911478438E0,1.599768847E-1,2.961649299E-1,6.386334300E-1
2.931480000E0,9.754645079E-2,2.895501256E-1,8.153654933E-1
2.953478438E0,-5.970771238E-2,3.675663471E-2,7.050606608E-1
2.973489375E0,8.272860199E-3,-1.225221157E-1,5.921552777E-1
2.995480000E0,2.879793197E-2,-2.848377265E-2,5.375614166E-1
3.015484688E0,-5.113814771E-2,1.789486110E-1,7.346788645E-1
3.037480000E0,-9.871581942E-2,2.341708243E-1,1.044876218E0
3.057480000E0,-5.461135134E-2,1.585282534E-1,1.237822413E0
3.079478438E0,1.286307722E-1,1.050688177E-1,9.635264874E-1
3.099478438E0,1.288751066E-1,4.250574708E-1,7.144330740E-1
3.119478438E0,-4.135557711E-1,3.069336116E-1,1.024927139E0
3.139480000E0,-6.934367418E-1,3.206867874E-1,9.789377451E-1
3.159480000E0,-6.682865620E-1,4.246560633E-1,7.505264878E-1
3.181480000E0,-6.474822164E-1,6.209532619E-1,5.147324800E-1
3.201480000E0,-5.861688256E-1,6.797708273E-1,4.720591903E-1
3.221480000E0,-4.535936117E-1,6.740112305E-1,4.895474017E-1
3.243478438E0,-4.698251784E-1,2.098758370E-1,5.088332891E-1
3.263480000E0,-3.605675697E-1,-3.291341960E-1,4.552865922E-1
3.285480000E0,-4.894601405E-1,-6.487388611E-1,2.131221592E-1
3.305480000E0,-8.524711728E-1,-4.284434319E-1,-7.415904105E-2
3.325480000E0,-1.116068244E0,-3.585604429E-1,-4.035026729E-1
3.345480000E0,-1.016566992E0,-5.191830993E-1,-5.841966271E-1
3.365480000E0,-8.976577520E-1,-4.753055274E-1,-5.995904207E-1
3.385480000E0,-9.972811341E-1,-8.719664812E-2,-5.814389586E-1
3.405480000E0,-1.184066296E0,5.767440200E-1,-5.966058969E-1
3.425480000E0,-1.205359340E0,7.051304579E-1,-7.818377018E-1
3.445480000E0,-1.136436224E0,4.258777797E-1,-8.264483213E-1
3.465489375E0,-9.970542192E-1,-1.904503256E-1,-6.207263470E-1
3.487478438E0,-8.385608792E-1,-7.799003720E-1,-3.750537932E-1
3.507486250E0,-7.455697656E-1,-8.409519792E-1,-3.288723826E-1
3.529478438E0,-7.391644120E-1,-5.022359490E-1,-4.524416924E-1
3.549484688E0,-6.906442642E-1,-7.916813344E-2,-6.758263707E-1
3.571478438E0,-6.883404255E-1,2.700722516E-1,-6.705031395E-1
3.591480000E0,-6.502922177E-1,9.979792684E-2,-6.240250468E-1
3.613480000E0,-3.744603992E-1,-4.436976016E-1,-6.313030124E-1
3.635480000E0,-1.489464045E-1,-6.345144510E-1,-5.438445807E-1
3.655480000E0,-1.102000922E-1,-3.424685001E-1,-3.406358957E-1
3.677480000E0,-1.184554994E-1,8.944812417E-2,-7.223917544E-2
3.699478438E0,3.242821619E-2,2.138726413E-1,1.532224566E-1
3.719480000E0,1.859997362E-1,-3.024655581E-2,2.361430526E-1
3.741478438E0,2.857103944E-1,-1.056971401E-1,1.966287941E-1
3.761478438E0,2.577851415E-1,-1.082104165E-3,1.315629184E-1
3.781478438E0,3.549999595E-1,2.175552845E-1,7.024950534E-2
3.801480000E0,2.931629419E-1,2.914874256E-1,3.347541392E-2
3.823478438E0,8.813912421E-2,2.393195480E-1,9.566149861E-2
3.843478438E0,1.642005742E-1,1.908342987E-1,-8.129743487E-2
3.863478438E0,3.862937093E-1,3.959104717E-1,-1.284562349E-1
3.883481563E0,5.107531548E-1,5.969898701E-1,-2.649584413E-1
3.905480000E0,5.956982970E-1,8.449138999E-1,-3.241250813E-1
3.927478438E0,7.637735605E-1,1.485728979E0,-6.114586592E-1
3.947478438E0,1.095194101E0,1.546012640E0,-2.911209166E-1
3.967480000E0,1.293760180E0,1.139124036E0,7.312929630E-2
3.989478438E0,1.000789285E0,6.477789283E-1,2.303485572E-1
4.009478438E0,8.519475460E-1,5.727996230E-1,2.352354825E-1
4.029478438E0,9.689195156E-1,1.099749446E0,2.782927454E-1
4.049478438E0,9.790948033E-1,1.553953886E0,1.660680771E-1
4.069478438E0,1.090848207E0,2.488420725E0,1.013687253E-1
4.089478438E0,1.510634780E0,3.842726231E0,1.022291660E0
4.109478438E0,1.255712032E0,4.234133720E0,1.051491022E0
4.129480000E0,8.884947300E-1,4.010138512E0,8.231496215E-1
4.149480000E0,1.019708633E0,4.291625023E0,1.085891485E0
4.171480000E0,1.010685205E0,4.365504742E0,8.193448186E-1
4.191480000E0,-1.141619831E-1,4.525010586E0,6.960373372E-2
4.211480000E0,-2.408851147E0,6.866735935E0,-3.137753010E-1
4.231480000E0,-2.981912374E0,7.923585415E0,-1.791056842E-1
4.253478438E0,-6.786189079E-1,4.945425510E0,1.415462047E-1
4.273478438E0,1.977109015E-1,4.067769051E0,8.798204362E-2
4.293478438E0,2.034355700E-1,4.046545982E0,-1.594183743E-1
4.313478438E0,5.564807653E-1,3.375012875E0,-4.407829046E-1
4.333478438E0,3.681248426E-1,3.199083805E0,-6.187890172E-1
4.353478438E0,-3.537956774E-1,4.396275043E0,-5.038241744E-1
4.373478438E0,-6.439566612E-1,5.506496429E0,-1.034229755E0
4.393478438E0,-4.123340249E-1,6.606019020E0,-1.156891465E0
4.413480000E0,-3.638138771E-1,7.928088188E0,-3.504446447E-1
4.435480000E0,-1.196318507E0,1.015343571E1,5.290442109E-1
4.457478438E0,-1.717351675E0,1.016383743E1,-4.125434756E-1
4.477478438E0,-1.602194786E0,8.712944984E0,-1.167677641E0
4.497478438E0,-4.515690506E-1,5.591930389E0,-1.596208334E0
4.517478438E0,8.352447748E-1,2.072054863E0,-2.301862478E0
4.537480000E0,-1.396263391E-1,2.124624252E0,-2.420876265E0
4.559478438E0,-2.898031950E0,3.962717772E0,-2.488821983E0
4.579503438E0,-2.636790991E0,1.108825088E0,-3.287013531E0
4.601478438E0,-3.531150103E0,5.517683625E-1,-2.969014406E0
4.621478438E0,-4.132642746E0,1.704139411E-1,-2.902674437E0
4.641478438E0,-4.390166283E0,3.487516940E-1,-2.879234791E0
4.661478438E0,-4.512897968E0,4.217239022E-1,-3.474601507E0
4.681478438E0,-4.067350388E0,-4.411843121E-1,-5.988242149E0
4.701478438E0,-2.062124014E0,5.577024817E-1,-8.438596725E0
4.721478438E0,7.347835898E-1,2.194507122E0,-6.853506565E0
4.741478438E0,2.510132551E0,2.330363512E0,-3.368083954E0
4.761478438E0,3.120805740E0,7.590681076E0,-3.516838551E-1
4.781478438E0,1.672025397E-2,1.721592784E0,9.942616820E-1
4.801478438E0,1.979727000E-1,-1.805089355E0,3.766769469E-1
4.821478438E0,1.179755330E0,-1.201868653E0,-3.146828711E-2
4.841478438E0,2.132565498E0,1.011680126E0,-1.919862116E-4
4.861478438E0,2.544201374E0,1.891884565E0,3.241600096E-1
4.881478438E0,2.137487173E0,1.189023018E0,5.115385652E-1
4.901478438E0,1.619194269E0,5.426751971E-1,3.237585723E-1
4.921478438E0,1.010737658E0,3.690847754E-1,8.302531391E-2
4.941478438E0,4.796164632E-1,1.119384408E0,2.117782533E-1
4.961478438E0,3.497116268E-1,2.043658257E0,6.098005772E-1
4.981478438E0,2.985734642E-1,2.253708839E0,8.522791862E-1
5.001478438E0,2.238210291E-1,2.016727924E0,8.192750216E-1
5.021478438E0,1.837308109E-1,1.675376415E0,7.952418327E-1
5.043478438E0,3.854385018E-1,9.642420411E-1,7.484844327E-1
5.063478438E0,5.051855445E-1,4.767366946E-1,7.504740953E-1
5.083478438E0,6.256132722E-1,5.851390958E-1,7.505439520E-1
5.103480000E0,8.162207007E-1,1.891064197E-1,5.543863773E-1
5.125480000E0,1.023705363E0,-7.086211443E-1,3.182433248E-1
5.145480000E0,1.288628936E0,-1.202496886E0,2.491632104E-1
5.165480000E0,1.314320207E0,-9.981538057E-1,2.522873282E-1
5.185487813E0,1.003250122E0,-6.631203890E-1,1.894031316E-1
5.207519063E0,5.136154890E-1,-5.120621324E-1,1.124515608E-1
5.229480000E0,2.234021435E-3,-3.288898468E-1,-2.705260413E-3
5.251478438E0,-3.330262601E-1,-2.164906412E-1,-1.485275179E-1
5.271478438E0,-4.611159861E-1,-2.594780922E-1,-2.084272206E-1
5.291478438E0,-5.520127416E-1,-3.465525806E-1,-1.969080418E-1
5.311478438E0,-5.422738194E-1,-5.642824173E-1,-1.613906026E-1
5.331478438E0,-3.210183978E-1,-7.739487886E-1,-1.514422148E-1
5.351478438E0,-4.303981736E-2,-1.092261910E0,-9.777334332E-2
5.371480000E0,5.843362212E-2,-1.490231872E0,-5.375613924E-3
5.393480000E0,1.545139998E-1,-1.283986330E0,1.066919789E-1
5.413480000E0,5.651201606E-1,-3.200584650E-1,1.681101173E-1
5.435478438E0,7.990989685E-1,-2.943323255E-1,2.267357260E-1
5.455480000E0,2.583785355E-1,-1.381497860E0,3.392396569E-1
5.475480000E0,-2.205048949E-1,-2.292804241E0,3.430793583E-1
5.497478438E0,-6.103067398E-1,-1.609368086E0,-9.670869261E-2
5.517478438E0,-6.882705688E-1,-8.785114884E-1,-4.611683488E-1
5.537480000E0,-3.346843421E-1,-5.090950727E-1,-1.576381326E-1
5.559478438E0,1.747074574E-1,7.480829954E-1,1.763655245E-1
5.579480000E0,-4.107806981E-1,8.793666959E-1,-3.291691095E-2
5.601478438E0,-1.139508009E0,3.925594687E-1,-1.724036187E-1
5.621478438E0,-1.258801222E0,4.124213010E-2,-2.260724902E-1
5.641478438E0,-1.113712072E0,-3.693640232E-1,-2.012539208E-1
5.661480000E0,-7.845953107E-1,-1.006356835E0,-2.126683742E-1
5.683478438E0,-4.859520197E-1,-1.100552320E0,-1.195026934E-1
5.703478438E0,-3.527484834E-1,-5.215567350E-1,-3.839724232E-3
5.723478438E0,-6.622128487E-1,2.554638386E-1,1.362404078E-1
5.743478438E0,-4.051607251E-1,-2.098758370E-1,2.515543103E-1
5.763480000E0,-6.180210784E-2,-4.166799188E-1,1.422966868E-1
5.785478438E0,-2.117957026E-1,-8.656833321E-3,-6.743951887E-2
5.805480000E0,-4.261221290E-1,2.007303238E-1,-2.335250564E-2
5.825480000E0,-6.042329669E-1,2.830051482E-1,-6.417575479E-2
5.847478438E0,-5.498484969E-1,-1.625076085E-1,-1.465552896E-1
5.867478438E0,-4.970348477E-1,-3.733433783E-1,-1.408131570E-1
5.887478438E0,-5.280493498E-1,-5.389751196E-1,-4.082325101E-2
5.907478438E0,-5.849994421E-1,-6.335894465E-1,-1.530653704E-2
5.927478438E0,-6.223495007E-1,-6.214593649E-1,-3.344050795E-2
5.947478438E0,-6.588792205E-1,-4.298222363E-1,-1.298001409E-1
5.967478438E0,-6.905395389E-1,-2.519906461E-1,-1.999623775E-1
5.987478438E0,-6.720913649E-1,-1.057669520E-1,-2.877698839E-1
6.007480000E0,-6.411292553E-1,-2.247984149E-2,-3.710744381E-1
6.029478438E0,-6.567673683E-1,1.549154222E-1,-4.037295580E-1
6.049478438E0,-6.234490871E-1,4.038342834E-1,-3.963468075E-1
6.069480000E0,-5.569519997E-1,4.162784815E-1,-4.326496720E-1
6.091478438E0,-4.926366210E-1,2.919063270E-1,-4.537681639E-1
6.111478438E0,-3.540574908E-1,3.631331921E-1,-4.447447956E-1
6.131478438E0,-9.941395372E-2,5.941450000E-1,-4.671199322E-1
6.151478438E0,3.885103017E-2,2.083050460E-1,-3.944269419E-1
6.171478438E0,-6.501351297E-2,-5.742482543E-1,-1.909215599E-1
6.191478438E0,9.066985548E-2,-5.633224845E-1,2.558652684E-2
6.211478438E0,5.404586792E-1,-9.972811490E-2,6.082472578E-2
6.231478438E0,8.598887920E-1,1.480737329E-1,-1.192932576E-1
6.251478438E0,1.171622038E0,3.703064919E-1,-2.104343474E-1
6.271478438E0,1.626158118E0,7.118674517E-1,-2.940879762E-2
6.291478438E0,1.870923162E0,5.580166578E-1,3.103544414E-1
6.311478438E0,2.029503822E0,7.439466119E-1,2.797588110E-1
6.331478438E0,1.946146846E0,8.640950322E-1,2.858849168E-1
6.351478438E0,1.581442833E0,6.290166378E-1,3.471983373E-1
6.371478438E0,1.115509748E0,3.238807619E-1,4.722511768E-1
6.391478438E0,9.127722979E-1,6.629284024E-1,4.546757340E-1
6.411478438E0,8.134630322E-1,1.466722369E0,4.519529939E-1
6.431478438E0,6.739588976E-1,1.673002839E0,5.249775648E-1
6.451478438E0,4.437325001E-1,1.360955358E0,6.823539138E-1
6.471478438E0,2.870891988E-1,1.075820923E0,6.444104910E-1
6.491478438E0,2.088635564E-1,2.570346296E-1,6.096435189E-1
6.511478438E0,4.665963352E-1,-4.979424179E-2,6.796486378E-1
6.531478438E0,7.706326842E-1,1.572890729E-1,5.765694976E-1
6.551478438E0,8.269370198E-1,-1.183682308E-1,4.239230156E-1
6.571478438E0,8.260643482E-1,-8.036543131E-1,3.907617629E-1
6.591478438E0,9.812415838E-1,-1.380311131E0,3.972893059E-1
6.611478438E0,1.033985376E0,-1.285312772E0,4.204148948E-1
6.631478438E0,7.503694296E-1,-7.208034992E-1,4.452683926E-1
6.651478438E0,2.218837142E-1,-3.839026093E-1,4.214271903E-1
6.671478438E0,-2.628989518E-1,-1.956339478E-1,3.396410644E-1
6.691483125E0,-5.242968798E-1,-5.133013427E-2,1.559277177E-1
6.713478438E0,-5.402143002E-1,-9.342747182E-2,-3.141592722E-3
6.733478438E0,-4.155105352E-1,-3.112969100E-1,-9.367182106E-2
6.753478438E0,-1.596801728E-1,-5.755223036E-1,-1.236740276E-1
6.773478438E0,2.332458049E-1,-7.508057356E-1,-1.405339092E-1
6.793490938E0,5.127952099E-1,-1.173175454E0,-1.516691130E-2
6.815478438E0,3.684215546E-1,-1.338615179E0,1.578301191E-1
6.835487813E0,3.396585286E-1,-6.542017460E-1,3.124662936E-1
6.857478438E0,5.185373425E-1,2.659881711E-1,3.599217832E-1
6.877486250E0,3.395363390E-1,-3.894702196E-1,4.194200635E-1
6.899478438E0,-3.412118554E-2,-1.403454185E0,5.094615817E-1
6.919480000E0,-1.545838118E-1,-2.177909136E0,1.857728511E-1
6.941478438E0,-1.880068630E-1,-2.076784611E0,-3.146828711E-1
6.961478438E0,-2.376265824E-1,-1.447419047E0,-4.536983371E-1
6.981480000E0,-2.759365439E-1,-9.683959484E-1,-2.085842937E-1
7.001486250E0,-2.839825153E-1,-2.024058253E-1,1.160294861E-1
7.023478438E0,-2.752907872E-1,8.913396597E-1,4.352327585E-1
7.043492500E0,-6.187192202E-1,8.922646642E-1,1.882162988E-1
7.065480000E0,-8.298516870E-1,3.274935782E-1,-1.700648814E-1
7.085484688E0,-9.786933661E-1,-5.361651629E-2,-3.147003055E-1
7.107478438E0,-1.091825604E0,-2.334726900E-1,-4.159817696E-1
7.127478438E0,-8.859291077E-1,-4.700869918E-1,-5.148197412E-1
7.147478438E0,-5.856626630E-1,-7.679274082E-1,-3.507937193E-1
7.167478438E0,-5.151339173E-1,-1.305052519E0,-8.098327555E-3
7.187489375E0,-7.656933665E-1,-1.012064099E0,1.041787043E-1
7.209480000E0,-4.794419408E-1,4.454603791E-1,4.187044874E-2
7.231478438E0,-1.647241712E-1,5.119574070E-1,1.094495952E-1
7.251478438E0,-2.489188612E-1,1.844289452E-1,1.679006778E-2
7.271478438E0,-5.009095073E-1,1.089958102E-1,-9.391617030E-2
7.291480000E0,-6.615670323E-1,1.966462433E-1,-1.318596303E-1
7.313478438E0,-6.561041474E-1,-6.056292355E-2,-9.850638360E-2
7.333478438E0,-6.520550251E-1,-3.574957848E-1,-1.074599251E-1
7.353478438E0,-6.999119520E-1,-6.167818904E-1,-2.869321220E-2
7.373478438E0,-7.180982828E-1,-6.034126878E-1,-4.019493237E-2
7.393478438E0,-7.174524665E-1,-2.250427604E-1,-1.028173491E-1
7.413480000E0,-7.185345888E-1,1.488591284E-1,-2.124065757E-1
7.435480000E0,-7.225488424E-1,3.104766309E-1,-2.977531552E-1
7.455480000E0,-7.666009665E-1,2.145358771E-1,-3.101799190E-1
7.475480000E0,-8.250345588E-1,-8.450884372E-2,-2.791479528E-1
7.497478438E0,-7.144680023E-1,1.599594206E-1,-2.682920098E-1
7.517478438E0,-4.770159423E-1,8.587718010E-1,-3.467969298E-1
7.537480000E0,-3.488214910E-1,9.359677434E-1,-3.798359931E-1
7.559480000E0,-4.762305319E-1,1.264491081E-1,-3.353650272E-1
7.581478438E0,-5.296027064E-1,-2.683094740E-1,-3.514395058E-1
7.601478438E0,-3.863635361E-1,5.227261037E-2,-3.944793046E-1
7.621478438E0,-2.845933735E-1,1.275312006E-1,-3.584208190E-1
7.641478438E0,-1.590693146E-1,8.223991096E-2,-2.732487321E-1
7.661478438E0,-1.815142483E-2,1.258556992E-1,-2.148500234E-1
7.681478438E0,1.982519478E-1,2.819579542E-1,-1.598721594E-1
7.701478438E0,7.139443755E-1,1.188569218E-1,-1.024159193E-1
7.721478438E0,1.236094475E0,9.634217620E-2,-1.499237865E-2
7.741478438E0,1.798614144E0,4.582885504E-1,2.394068092E-1
7.761478438E0,2.129790306E0,5.568298697E-1,6.712012887E-1
7.781478438E0,2.136736870E0,6.097482443E-1,7.442781925E-1
7.801480000E0,2.054025650E0,7.269470692E-1,6.171658635E-1
7.821480000E0,1.605092049E0,8.337263465E-1,3.894527555E-1
7.843478438E0,9.301034212E-1,1.172267795E0,3.836408257E-1
7.863478438E0,6.347587705E-1,1.560324311E0,5.439318419E-1
7.883478438E0,5.943369865E-1,1.722221136E0,6.036046743E-1
7.903478438E0,5.196019411E-1,1.776099443E0,6.190857291E-1
7.923478438E0,2.099805623E-1,2.009100914E0,6.633123755E-1
7.943478438E0,7.822565734E-2,1.713581681E0,5.645092726E-1
7.963478438E0,1.873436421E-1,8.371646404E-1,4.088259339E-1
7.983478438E0,5.347863436E-1,8.492248654E-1,4.540474117E-1
8.003478438E0,7.902501822E-1,9.344667196E-1,3.270398080E-1
8.023478438E0,7.342774868E-1,2.829178572E-1,2.558827102E-1
8.043478438E0,7.056366205E-1,-3.413165808E-1,2.437701374E-1
8.063478438E0,7.511199117E-1,-5.791525841E-1,2.496344447E-1
8.083478438E0,6.678851247E-1,-4.997226596E-1,2.092998773E-1
8.103478438E0,3.819827735E-1,-3.098483086E-1,2.169618756E-1
8.123478438E0,8.051203936E-2,-3.076666296E-1,1.408829838E-1
8.143478438E0,-1.947089285E-1,-3.350334167E-1,4.066617042E-2
8.163478438E0,-4.639608860E-1,-3.304781020E-1,-1.085769311E-1
8.183478438E0,-6.906093359E-1,-3.416307569E-1,-2.120575011E-1
8.203478438E0,-7.819947600E-1,-3.787887990E-1,-2.914525270E-1
8.223478438E0,-5.592558384E-1,-6.766815782E-1,-2.929709554E-1
8.243478438E0,-2.125461996E-1,-6.604151130E-1,-3.179989755E-2
8.263478438E0,-4.581489414E-2,-7.261791229E-1,2.343453616E-1
8.283478438E0,1.198168546E-1,-6.881484389E-1,2.229309082E-1
8.303478438E0,8.184023499E-1,-1.921432912E-1,1.927018017E-1
8.323478438E0,8.673762679E-1,-5.126730204E-1,9.749408811E-2
8.343478438E0,1.080707833E-1,-1.134586215E0,1.344427168E-1
8.363478438E0,-3.946538568E-1,-1.928152442E0,1.684940904E-1
8.383478438E0,-6.666110754E-1,-1.814374447E0,-2.641381323E-1
8.403480000E0,-8.761378527E-1,-1.225413084E0,-6.863507032E-1
8.425480000E0,-7.053399086E-1,-2.576280534E-1,-5.040860176E-1
8.445480000E0,-2.784149349E-1,9.673312902E-1,2.036624700E-1
8.465480000E0,-8.959996700E-1,9.034173489E-1,3.442312777E-1
8.485480000E0,-1.357918501E0,1.573414356E-1,-1.442514658E-1
8.505480000E0,-1.306762934E0,1.162912846E-1,-3.221703172E-1
8.525480000E0,-1.014263153E0,2.234545052E-1,-2.517811954E-1
8.547478438E0,-7.757115960E-1,1.832770258E-1,-3.492578268E-1
8.567478438E0,-5.693787336E-1,-6.876597181E-3,-3.755075932E-1
8.587478438E0,-4.654444158E-1,-2.816612422E-1,-1.362404078E-1
8.607480000E0,-1.006653547E0,-1.019918084E0,-7.915068418E-2
8.629478438E0,-1.198988795E0,-5.178741217E-1,8.475318551E-2
8.649478438E0,-5.170014501E-1,5.126904845E-1,1.976759881E-1
8.669478438E0,-1.395565271E-1,6.306747198E-1,3.403392062E-2
8.689478438E0,-3.151715696E-1,3.761009872E-1,-1.451241225E-1
8.709478438E0,-6.639581323E-1,2.498264313E-1,-1.879196018E-1
8.729478438E0,-9.062796831E-1,3.865904212E-1,-1.251575649E-1
8.749480000E0,-7.627089024E-1,1.127133593E-1,-7.197737694E-2
8.771478438E0,-6.447246075E-1,-1.636420637E-1,-6.270968169E-2
8.791478438E0,-6.171483994E-1,-3.292389214E-1,-3.970624134E-2
8.811484688E0,-5.683141351E-1,-3.328168392E-1,4.141666368E-2
8.833478438E0,-5.321334600E-1,-2.389530241E-1,3.474950418E-2
8.853483125E0,-6.077411175E-1,-1.357866172E-2,-1.673770696E-2
8.875481563E0,-6.637138128E-1,1.794023961E-1,-8.646360785E-2
8.897480000E0,-7.148868442E-1,2.920633852E-1,-1.765749604E-1
8.919480000E0,-7.875274420E-1,1.488416791E-1,-2.547307909E-1
8.939480000E0,-8.067086339E-1,9.906488657E-2,-3.467969298E-1
8.959480000E0,-7.182378769E-1,3.632030189E-1,-4.345869720E-1
8.981478438E0,-6.054023504E-1,3.652101457E-1,-4.680275023E-1
9.001478438E0,-5.601983070E-1,1.211083978E-1,-3.952472508E-1
9.021478438E0,-4.144807756E-1,2.675240636E-1,-3.635695279E-1
9.041478438E0,-2.361255884E-1,4.815188944E-1,-3.604628444E-1
9.061478438E0,-3.263241947E-1,1.202357337E-1,-2.610314488E-1
9.081478438E0,-3.705334067E-1,-1.731017530E-1,-1.461713314E-1
9.101478438E0,-1.892460436E-1,1.605702937E-2,-1.109505817E-1
9.121478438E0,6.375687569E-2,5.555033684E-1,-8.026769012E-2
9.141478438E0,5.571614504E-1,6.943618059E-1,-1.261000335E-1
9.161480000E0,1.232621312E0,6.132737994E-1,-1.084373072E-1
9.183478438E0,1.800725937E0,8.310734034E-1,2.304009199E-1
9.203478438E0,2.278841496E0,8.570264578E-1,6.462430358E-1
9.223478438E0,2.342528582E0,6.420891881E-1,8.206712604E-1
9.243483125E0,2.165761709E0,3.887197375E-1,7.219030857E-1
9.265480000E0,1.496026397E0,4.801226258E-1,4.525115192E-1
9.287478438E0,7.584677339E-1,1.080568194E0,4.540997744E-1
9.307478438E0,4.638386965E-1,1.895986080E0,5.728519559E-1
9.327480000E0,4.784122109E-1,2.171660900E0,6.303431392E-1
9.349480000E0,2.846980989E-1,2.226184845E0,6.268001199E-1
9.371478438E0,4.213224724E-2,2.276363134E0,5.823814869E-1
9.391478438E0,2.167698890E-1,1.085088611E0,4.278151095E-1
9.411478438E0,4.726351500E-1,4.909960330E-1,4.780980349E-1
9.431478438E0,7.988721132E-1,8.359429240E-1,3.855432272E-1
9.451478438E0,8.889660239E-1,4.153010845E-1,2.485872507E-1
9.471480000E0,7.670372725E-1,-2.655692995E-1,1.825090796E-1
9.493478438E0,7.747341990E-1,-5.694485903E-1,2.217091769E-1
9.513478438E0,7.591658831E-1,-4.259301424E-1,2.012888193E-1
9.533478438E0,5.468814373E-1,-2.622706294E-1,2.268229872E-1
9.553478438E0,1.601514071E-1,-2.850122750E-1,2.193006128E-1
9.573478438E0,-1.766796857E-1,-4.521799088E-1,1.096415818E-1
9.593478438E0,-3.514744043E-1,-4.477118552E-1,-4.098033160E-2
9.613478438E0,-4.253891110E-1,-3.107384145E-1,-9.349729121E-2
9.633478438E0,-4.195946157E-1,-3.447898030E-1,-1.201135591E-1
9.653478438E0,-3.370405436E-1,-6.168691516E-1,-1.901361644E-1
9.673478438E0,-6.825982779E-2,-9.287420511E-1,-2.297725976E-1
9.693478438E0,2.588497698E-1,-1.089626551E0,-1.288925707E-1
9.713478438E0,3.793473244E-1,-1.225151300E0,5.106833205E-2
9.733478438E0,5.371949077E-1,-1.024089336E0,7.328637689E-2
9.753478438E0,8.274955153E-1,-4.835958183E-1,6.880088151E-2
9.773478438E0,4.808905721E-1,-6.059608459E-1,1.284911335E-1
9.793478438E0,-2.023709267E-1,-1.426073670E0,1.450543106E-1
9.813478438E0,-6.378829479E-1,-1.747859955E0,-1.034107581E-1
9.833480000E0,-8.284205198E-1,-1.217402101E0,-4.103618264E-1
9.855480000E0,-6.801722646E-1,-1.363625675E-1,-5.121145248E-1
9.875480000E0,-3.963468075E-1,9.137496948E-1,-1.035852879E-1
9.897478438E0,-7.782946825E-1,7.937757373E-1,4.606971145E-1
9.917478438E0,-1.338789701E0,8.813912421E-2,7.833037525E-2
9.937478438E0,-1.478485823E0,6.742206961E-2,-3.401995897E-1
9.957478438E0,-1.205516338E0,2.557081878E-1,-3.260798752E-1
9.977480000E0,-8.370773792E-1,2.124065720E-2,-2.705260217E-1
9.999478438E0,-5.508433580E-1,-5.841267705E-1,-2.738246918E-1
1.001947844E1,-7.217285633E-1,-1.127343059E0,-2.130348831E-1
1.003947844E1,-9.601230621E-1,-6.355441809E-1,1.771160066E-1
1.005948000E1,-6.103590727E-1,1.755801290E-1,3.236189485E-1
1.007948625E1,-1.826836169E-1,1.517563760E-1,1.426108479E-1
1.010147844E1,-1.822996438E-1,1.162214726E-1,-5.536184460E-2
1.012148469E1,-3.602010608E-1,2.719222941E-2,-1.528733820E-1
1.014347844E1,-5.532519221E-1,3.802548945E-1,-1.579522938E-1
1.016347844E1,-6.586174369E-1,3.847927451E-1,-4.440117627E-2
1.018347844E1,-6.685658097E-1,-1.896998286E-1,-3.642502055E-2
1.020347844E1,-6.008644700E-1,-6.694559455E-1,-3.448770568E-2
1.022347844E1,-5.985257626E-1,-6.470459104E-1,4.228932783E-2
1.024347844E1,-7.117976546E-1,-4.365766644E-1,6.728244573E-2
1.026347844E1,-7.551690340E-1,-2.480112948E-2,-5.777040031E-3
1.028347844E1,-7.123386860E-1,2.952224314E-1,-9.381144494E-2
1.030347844E1,-7.561988235E-1,2.546784580E-1,-1.401499361E-1
1.032347844E1,-7.949101925E-1,1.528733820E-1,-2.417280972E-1
1.034348938E1,-6.990916133E-1,2.932502329E-1,-3.077888191E-1
1.036547844E1,-6.080901623E-1,3.394316435E-1,-3.674441576E-1
1.038547844E1,-6.922674179E-1,-2.747148275E-2,-4.119675159E-1
1.040548000E1,-7.221823335E-1,-2.636494339E-1,-4.288099408E-1
1.042747844E1,-4.373096824E-1,1.361531317E-1,-3.943746090E-1
1.044747844E1,-2.231577933E-1,3.372150660E-1,-4.006577730E-1
1.046748000E1,-1.457524449E-1,3.186447620E-1,-3.563613296E-1
1.048947844E1,-2.401049435E-1,2.258456126E-2,-1.988279074E-1
1.050947844E1,-2.896199226E-1,-1.592438370E-1,-5.934119597E-2
1.052948156E1,-1.789136976E-1,8.253662288E-2,2.047271281E-2
1.055147844E1,5.096361507E-3,4.006577730E-1,-7.236135006E-2
1.057147844E1,5.516462326E-1,5.387831330E-1,-2.309943289E-1
1.059147844E1,1.221608281E0,6.450213194E-1,-2.128428966E-1
1.061147844E1,1.704017282E0,8.215788603E-1,4.426154867E-2
1.063147844E1,2.308459759E0,9.975778461E-1,3.711093664E-1
1.065147844E1,2.591674328E0,6.243391633E-1,6.585127115E-1
1.067147844E1,2.432273388E0,2.637366951E-1,6.405358315E-1
1.069147844E1,1.629282355E0,6.295402646E-1,4.062253833E-1
1.071147844E1,6.786189079E-1,1.476548553E0,2.238035649E-1
1.073147844E1,2.304881811E-1,1.876106739E0,5.914047956E-1
1.075147844E1,2.773677111E-1,1.999588847E0,7.572983503E-1
1.077149094E1,4.955164194E-1,1.917959809E0,6.885324121E-1
1.079347844E1,2.632829249E-1,1.998960495E0,6.380050778E-1
1.081349250E1,1.167450696E-1,1.654502273E0,5.471083522E-1
1.083548000E1,4.350931346E-1,4.329812825E-1,3.491007686E-1
1.085548625E1,4.907167852E-1,1.968905926E-1,4.084070325E-1
1.087747844E1,6.403438449E-1,6.084218025E-1,3.749141693E-1
1.089747844E1,6.603802443E-1,1.363102198E-1,3.061656654E-1
1.091747844E1,6.841515899E-1,-5.303531885E-1,2.781007588E-1
1.093747844E1,7.902851105E-1,-7.815584540E-1,1.770287454E-1
1.095747844E1,8.591383100E-1,-7.694458365E-1,1.556135565E-1
1.097748000E1,6.090326309E-1,-6.182130575E-1,1.724908948E-1
1.099948000E1,8.585274220E-2,-3.985110223E-1,1.370258033E-1
1.102148000E1,-3.392396569E-1,-1.972047538E-1,1.356120780E-2
1.104347844E1,-5.483300686E-1,-2.208714187E-1,-1.669581980E-1
1.106348781E1,-6.260495782E-1,-2.885727286E-1,-2.401049435E-1
1.108548156E1,-6.104637980E-1,-3.798883557E-1,-2.552718520E-1
1.110549406E1,-3.483328223E-1,-5.672320127E-1,-2.059139460E-1
1.112748000E1,8.876744658E-2,-8.733453155E-1,-5.386086181E-2
1.114748000E1,2.213077545E-1,-1.184328079E0,2.006954104E-1
1.116947844E1,4.976631701E-1,-8.182452321E-1,2.477494925E-1
1.118948312E1,8.920203447E-1,-8.866272867E-3,2.626371384E-1
1.121147844E1,5.307895541E-1,-5.742133260E-1,2.909812927E-1
1.123147844E1,-1.048070192E-1,-1.589541197E0,4.115486443E-1
1.125147844E1,-5.082573295E-1,-2.097431898E0,1.017352417E-1
1.127147844E1,-7.301061153E-1,-1.529536724E0,-2.733883858E-1
1.129147844E1,-7.251668572E-1,-9.761277437E-1,-4.371176958E-1
1.131147844E1,-4.339586496E-1,-8.444601297E-1,-2.004336119E-1
1.133147844E1,4.204498231E-2,3.475125134E-1,4.591961205E-2
1.135147844E1,-4.314628541E-1,9.957277775E-1,-2.614503168E-2
1.137147844E1,-1.017195344E0,3.139672875E-1,-2.976484597E-1
1.139147844E1,-9.189507365E-1,-3.253642917E-1,-5.970596671E-1
1.141147844E1,-9.558993578E-1,-7.957828641E-1,-3.074921072E-1
1.143147844E1,-1.163192153E0,-6.679898500E-1,-8.011061698E-3
1.145147844E1,-8.782497048E-1,-5.274908543E-1,-1.038645431E-1
1.147147844E1,-4.562115967E-1,-3.828030527E-1,-4.031710327E-3
1.149147844E1,-6.751282811E-1,-3.561518788E-1,8.641125262E-2
1.151147844E1,-1.783150554E0,8.234463632E-2,7.401940972E-2
1.153147844E1,-5.014505386E-1,1.389439106E0,3.142465353E-1
1.155147844E1,2.316749990E-1,1.631184697E0,1.351059377E-1
1.157147844E1,2.104867101E-1,1.006653547E0,-2.315702885E-1
1.159147844E1,-3.007202148E-1,-2.292490005E-1,-3.007376790E-1
1.161147844E1,-9.719913006E-1,-1.148478985E0,-2.322509587E-1
1.163148000E1,-1.096921921E0,-9.883101583E-1,-1.121897623E-1
1.165347844E1,-5.284682512E-1,-7.368779927E-2,-1.293289009E-2
1.167347844E1,-3.207042515E-1,9.456194192E-2,-3.618067503E-2
1.169347844E1,-5.260946155E-1,-2.416059226E-1,-1.555437446E-1
1.171347844E1,-6.851987839E-1,-3.762231767E-1,-2.513448596E-1
1.173347844E1,-7.298792601E-1,-2.576280534E-1,-2.918365002E-1
1.175347844E1,-7.644193172E-1,-1.668709219E-1,-3.181386292E-1
1.177347844E1,-7.952767015E-1,5.797983706E-2,-3.591364026E-1
1.179347844E1,-6.413037777E-1,6.209183335E-1,-4.435579777E-1
1.181347844E1,-4.877671599E-1,6.656162143E-1,-4.358087182E-1
1.183348000E1,-5.790129900E-1,1.069363207E-1,-4.150044024E-1
1.185548000E1,-4.186172187E-1,6.307619810E-2,-3.658384681E-1
1.187548000E1,-7.890633494E-2,3.363772929E-1,-3.436553180E-1
1.189548000E1,-1.037598252E-1,1.953023486E-2,-3.234967887E-1
1.191747844E1,-1.802750528E-1,-2.424785942E-1,-2.339439392E-1
1.193747844E1,1.218239777E-2,1.315803677E-1,-1.438674927E-1
1.195747844E1,4.136081338E-1,2.422866076E-1,-1.095019579E-1
1.197747844E1,1.021488905E0,3.242821693E-1,-1.803797781E-1
1.199748000E1,1.548962235E0,6.655464172E-1,-4.783947393E-2
1.201748312E1,2.184541464E0,6.721960902E-1,2.827782333E-1
1.203947844E1,2.638065100E0,3.866951466E-1,6.560343504E-1
1.205947844E1,2.596246958E0,5.933770537E-1,7.397229075E-1
1.207947844E1,1.964560032E0,8.960171342E-1,5.167745352E-1
1.209947844E1,9.883799553E-1,1.303010464E0,1.694365591E-1
1.211947844E1,3.682295680E-1,1.393086910E0,4.137826562E-1
1.213948000E1,2.623229921E-1,1.736236095E0,7.434579134E-1
1.216147844E1,3.633426428E-1,2.327291727E0,9.085136652E-1
1.218147844E1,3.910410106E-1,2.346438169E0,7.771950960E-1
1.220147844E1,3.492229283E-1,1.456983447E0,7.324099541E-1
1.222147844E1,4.925144613E-1,-3.624699712E-1,5.571091175E-1
1.224147844E1,7.042927146E-1,-7.608762980E-1,5.428846478E-1
1.226147844E1,9.892002344E-1,6.558947265E-2,5.876872540E-1
1.228147844E1,8.767486811E-1,-2.765648663E-1,4.542393982E-1
1.230147844E1,7.478037477E-1,-1.020424247E0,3.863984346E-1
1.232147844E1,8.675159216E-1,-1.275748372E0,3.273190558E-1
1.234147844E1,9.315869212E-1,-1.082906961E0,3.763628006E-1
1.236147844E1,5.897816420E-1,-8.781449795E-1,4.845557511E-1
1.238148938E1,-4.902629927E-2,-5.721014738E-1,3.940429986E-1
1.240347844E1,-5.742307901E-1,-2.793748379E-1,1.590169519E-1
1.242347844E1,-6.491577625E-1,-1.559102684E-1,-5.637413356E-3
1.244347844E1,-5.686981082E-1,-2.127556354E-1,-6.712536514E-2
1.246347844E1,-4.549026191E-1,-4.640830457E-1,-8.346164227E-2
1.248347844E1,-1.109854877E-1,-7.140491009E-1,-9.135053307E-2
1.250347844E1,2.993065119E-1,-1.033200026E0,-1.576032303E-2
1.252347844E1,3.723310828E-1,-1.400539398E0,1.653699428E-1
1.254347844E1,2.689552307E-1,-1.013617396E0,2.712416053E-1
1.256347844E1,7.598639727E-1,-6.709045917E-2,2.628291249E-1
1.258347844E1,7.854679823E-1,-4.030663371E-1,2.032959461E-1
1.260347844E1,1.854237765E-1,-1.558928132E0,2.823244631E-1
1.262347844E1,-2.892534137E-1,-2.356979847E0,1.189267337E-1
1.264347844E1,-5.829748511E-1,-1.924033523E0,-1.035154760E-1
1.266347844E1,-7.507882714E-1,-9.266301990E-1,-1.994736791E-1
1.268347844E1,-7.787659168E-1,-6.525262594E-1,-1.918465942E-1
1.270347844E1,-5.971469283E-1,-8.135328889E-1,-2.808234841E-2
1.272347844E1,-2.640334070E-1,1.050845265E0,2.218313515E-2
1.274348000E1,-9.819920659E-1,1.653559804E0,-1.143714264E-1
1.276548000E1,-1.365632892E0,5.918934941E-1,-3.520154655E-1
1.278548000E1,-1.368442893E0,-1.700823307E-1,-2.244668007E-1
1.280548000E1,-1.393261433E0,-3.053627908E-1,-6.771877408E-3
1.282748000E1,-1.401150346E0,4.180936217E-1,-8.047713339E-2
1.284948469E1,-9.866870046E-1,7.612078786E-1,-1.397659630E-1
1.287147844E1,-5.301437378E-1,5.029515028E-1,4.194026068E-2
1.289147844E1,-1.516080260E0,-7.484844327E-1,-2.298773080E-1
1.291147844E1,-1.494019270E0,9.297717810E-1,-1.216145381E-1
1.293147844E1,-4.245164394E-1,1.801790595E0,3.468667269E-1
1.295148000E1,-1.725607067E-1,1.273025751E0,2.134537697E-2
1.297148000E1,-4.606622159E-1,3.391174674E-1,-2.084621191E-1
1.299348000E1,-1.086973548E0,-4.493350089E-1,-3.174230158E-1
1.301548000E1,-1.412302971E0,-1.321388781E-1,-2.396337092E-1
1.303748156E1,-8.561363816E-1,5.218011141E-1,-1.007054970E-1
1.305947844E1,-4.284434319E-1,5.060232878E-1,-1.946216673E-1
1.307947844E1,-4.835260212E-1,5.227261037E-2,-2.723935246E-1
1.309947844E1,-6.122440696E-1,-2.960602045E-1,-2.640857697E-1
1.311947844E1,-5.784370303E-1,-2.258281559E-1,-2.180614322E-1
1.313948000E1,-4.748517275E-1,7.017968595E-2,-1.819156706E-1
1.316148000E1,-4.108854234E-1,2.573313415E-1,-2.035228461E-1
1.318347844E1,-4.949055612E-1,1.217716187E-1,-2.837207317E-1
1.320347844E1,-5.366014838E-1,2.227912843E-1,-3.293959796E-1
1.322347844E1,-4.879940450E-1,1.492431015E-1,-2.733883858E-1
1.324347844E1,-5.760807991E-1,-2.096140385E-1,-2.294060737E-1
1.326347844E1,-3.353126645E-1,6.930702180E-2,-3.408802450E-1
1.328347844E1,-7.695156336E-2,3.748269081E-1,-3.521550894E-1
1.330347844E1,-2.792526782E-1,8.632398397E-2,-3.630633950E-1
1.332347844E1,-4.026998281E-1,-1.215447262E-1,-2.864608765E-1
1.334347844E1,-1.774127185E-1,1.134813055E-1,-2.351831198E-1
1.336347844E1,2.378011048E-1,4.621980786E-1,-1.949532777E-1
1.338347844E1,7.646113038E-1,4.915545285E-1,-2.084097713E-1
1.340348000E1,1.384569645E0,5.633922815E-1,-1.258556992E-1
1.342548000E1,2.054479361E0,5.448219776E-1,3.630110323E-1
1.344548000E1,2.446951628E0,4.088608325E-1,7.438942194E-1
1.346548000E1,2.470408916E0,5.650503635E-1,7.979994416E-1
1.348548000E1,2.188224077E0,4.861265421E-1,5.824163556E-1
1.350548156E1,1.306361437E0,1.038435936E0,1.274090409E-1
1.352747844E1,3.892782331E-1,1.859979868E0,3.178593516E-1
1.354748000E1,2.816961408E-1,2.093033791E0,8.266228437E-1
1.356947844E1,4.352851212E-1,2.180684090E0,8.681267500E-1
1.358950812E1,6.191729903E-1,1.879771948E0,6.319662929E-1
1.361147844E1,7.263536453E-1,1.231992960E0,4.645891786E-1
1.363147844E1,6.514790654E-1,5.366887450E-1,4.516213834E-1
1.365147844E1,5.354844928E-1,2.479589283E-1,4.720242918E-1
1.367147844E1,4.962669313E-1,6.839247346E-1,5.213647485E-1
1.369147844E1,4.315850139E-1,3.796265721E-1,4.422140718E-1
1.371147844E1,5.135282278E-1,-3.492752910E-1,2.819928527E-1
1.373147844E1,7.592531443E-1,-6.165550351E-1,2.113593668E-1
1.375148000E1,8.427322507E-1,-6.791076064E-1,2.042384297E-1
1.377347844E1,5.076813698E-1,-5.604077578E-1,1.721592695E-1
1.379347844E1,4.424409568E-2,-6.020687819E-1,2.038544603E-2
1.381347844E1,-3.333229721E-1,-5.722759962E-1,-1.352281123E-1
1.383348000E1,-4.926017225E-1,-4.097160399E-1,-2.209412307E-1
1.385547844E1,-4.849920869E-1,-3.642676771E-1,-3.087661862E-1
1.387548625E1,-4.908738434E-1,-5.640904307E-1,-3.415260315E-1
1.389747844E1,-1.571145356E-1,-1.007264376E0,-2.308721542E-1
1.391748000E1,5.305800959E-2,-7.015001774E-1,-2.548180707E-2
1.393947844E1,7.770206034E-2,-8.204443455E-1,1.185951233E-1
1.395947844E1,1.495921761E-1,-6.952170134E-1,1.892984062E-1
1.397950969E1,6.387206912E-1,-1.713913307E-2,2.185152173E-1
1.400147844E1,3.325201273E-1,-3.046995699E-1,2.350260317E-1
1.402148000E1,-2.238908410E-1,-1.534214258E0,1.544267386E-1
1.404347844E1,-5.808281302E-1,-1.885357022E0,-3.717900217E-1
1.406347844E1,-7.068758011E-1,-1.416561604E0,-6.285977960E-1
1.408347844E1,-5.403364897E-1,-4.933871329E-1,-3.654195964E-1
1.410347844E1,-3.618416488E-1,7.090225816E-1,1.236391217E-1
1.412347844E1,-8.872032166E-1,9.491449594E-1,3.250326514E-1
1.414347844E1,-1.403384328E0,2.891137898E-1,-1.188220158E-1
1.416347844E1,-1.499569416E0,1.789660603E-1,-3.037745655E-1
1.418347844E1,-1.209094286E0,-9.054768085E-2,-3.047868609E-1
1.420347844E1,-8.486663699E-1,-2.495471686E-1,-4.639783204E-1
1.422347844E1,-5.214869380E-1,-3.038443625E-1,-6.218957305E-1
1.424347844E1,-2.027374506E-1,-4.931078851E-1,-4.097858667E-1
1.426347844E1,-7.143458128E-1,-1.008084774E0,-1.805019528E-1
1.428347844E1,-1.438866854E0,-6.302732825E-1,4.192280769E-2
1.430347844E1,-5.325348377E-1,1.518087387E-1,3.152588308E-1
1.432347844E1,1.634151787E-1,4.769461155E-1,1.004786044E-1
1.434348938E1,-3.783873841E-2,3.013834655E-1,3.317870945E-2
1.436548000E1,-4.413588643E-1,-1.379682720E-1,1.687733456E-2
1.438747844E1,-6.459987164E-1,-1.389980167E-1,-5.951572582E-2
1.440747844E1,-5.836380720E-1,-1.708328277E-1,-1.109680310E-1
1.442747844E1,-4.525987804E-1,-3.097435832E-1,-1.610938907E-1
1.444747844E1,-3.080680668E-1,-3.817034960E-1,-1.514073163E-1
1.446748156E1,-3.137229383E-1,-4.458967149E-1,-1.518959999E-1
1.448947844E1,-5.296550393E-1,-4.533492625E-1,-1.315803677E-1
1.450947844E1,-7.086734772E-1,-3.994534910E-1,-1.392947286E-1
1.452947844E1,-7.848222256E-1,-4.063999057E-1,-2.184105068E-1
1.454947844E1,-7.493571043E-1,-1.626646817E-1,-2.986781895E-1
1.456947844E1,-6.662096381E-1,2.687108815E-1,-4.153185487E-1
1.458947844E1,-6.288072467E-1,5.065818429E-1,-5.190783739E-1
1.460947844E1,-5.845282078E-1,5.470385551E-1,-5.164254904E-1
1.462947844E1,-5.066167116E-1,1.923527420E-1,-4.500680566E-1
1.464947844E1,-2.678033113E-1,1.168148890E-1,-3.850545287E-1
1.466947844E1,5.981243402E-2,2.887996435E-1,-3.253817260E-1
1.468947844E1,9.773843922E-4,-1.876403540E-1,-1.981472224E-1
1.470947844E1,-8.307766914E-2,-4.157548845E-1,-9.630727023E-2
1.472947844E1,1.823345423E-1,2.268928103E-2,-8.817403018E-2
1.474948000E1,6.968401670E-1,3.270921409E-1,-4.845033959E-2
1.477147844E1,1.466984153E0,7.583455443E-1,-1.018574163E-1
1.479147844E1,2.162044048E0,9.291609526E-1,1.877974272E-1
1.481147844E1,2.633335352E0,5.374392271E-1,7.016398311E-1
1.483148000E1,2.464352608E0,4.916766882E-1,1.028731942E0
1.485347844E1,2.000461578E0,4.108679593E-1,8.300262094E-1
1.487347844E1,1.321929812E0,7.794640660E-1,4.133288860E-1
1.489349875E1,6.709220409E-1,1.328073382E0,4.601036906E-1
1.491548000E1,4.619711936E-1,1.947054386E0,6.740636230E-1
1.493548625E1,4.565781355E-1,2.401730061E0,9.010436535E-1
1.495549406E1,4.477816820E-1,2.420439959E0,7.873529196E-1
1.497747844E1,7.918209434E-1,8.227133155E-1,4.779584110E-1
1.499747844E1,9.383239150E-1,-3.366565704E-1,3.529928327E-1
1.501747844E1,8.743750453E-1,9.004153311E-2,4.725129902E-1
1.503748000E1,1.027737141E0,5.609488487E-1,3.933797479E-1
1.505947844E1,9.912946224E-1,-2.549402416E-1,2.253918201E-1
1.507947844E1,7.518354654E-1,-7.591134906E-1,2.238384783E-1
1.509947844E1,6.106034517E-1,-8.124856949E-1,3.122219443E-1
1.511947844E1,4.461410642E-1,-7.071899772E-1,3.404090106E-1
1.513948000E1,1.480737329E-1,-6.633123755E-1,2.969677746E-1
1.516147844E1,-2.110103071E-1,-5.559222698E-1,1.608669907E-1
1.518148000E1,-4.918512404E-1,-3.801327050E-1,1.583013684E-2
1.520148000E1,-6.172531247E-1,-4.511676133E-1,-1.248434037E-1
1.522347844E1,-6.348111629E-1,-7.561464310E-1,-1.667836607E-1
1.524347844E1,-5.991540551E-1,-9.068032503E-1,-9.140289575E-2
1.526348000E1,-2.871939242E-1,-9.705601335E-1,-1.292241812E-1
1.528548000E1,-1.648637950E-1,-8.797157407E-1,5.478588492E-2
1.530548000E1,-9.471901506E-2,-1.021768093E0,2.271022350E-1
1.532548469E1,5.448917747E-1,-5.280318856E-1,1.497841626E-1
1.534747844E1,8.894197941E-1,-6.054896116E-1,8.203047514E-2
1.536747844E1,3.977430761E-1,-1.472848415E0,4.483750835E-2
1.538750031E1,-1.614080518E-1,-1.870835900E0,-1.033583954E-1
1.540947844E1,-6.612179875E-1,-1.445586443E0,-2.694613934E-1
1.542947844E1,-8.691216111E-1,-5.360953212E-1,-3.148050308E-1
1.544947844E1,-7.412588000E-1,6.892304868E-2,-6.768386811E-2
1.546947844E1,-6.354743838E-1,8.453676701E-1,2.894802988E-1
1.548947844E1,-1.108860016E0,4.585677981E-1,8.011061698E-3
1.550947844E1,-1.408585429E0,1.088561863E-1,-4.020191431E-1
1.552947844E1,-1.235204458E0,1.729970276E-1,-4.607494771E-1
1.554947844E1,-9.287420511E-1,8.552113175E-2,-4.148473144E-1
1.556947844E1,-6.863507032E-1,-3.285756707E-1,-4.682369232E-1
1.558947844E1,-5.186944008E-1,-8.964360356E-1,-4.240102768E-1
1.560947844E1,-8.344768286E-1,-9.218654633E-1,-1.343030781E-1
1.562947844E1,-9.146049023E-1,1.568701863E-1,1.530304700E-1
1.564947844E1,-3.933972120E-1,3.593807518E-1,2.340137511E-1
1.566947844E1,2.057743259E-2,-1.656666547E-1,1.824916303E-1
1.568947844E1,-1.409876943E-1,-2.375916690E-1,8.813912421E-2
1.570947844E1,-4.109552205E-1,4.002039880E-2,-1.317723561E-2
1.572947844E1,-5.569171309E-1,2.109230459E-1,-1.216145381E-1
1.574947844E1,-6.331356168E-1,1.350710243E-1,-1.950405389E-1
1.576947844E1,-6.130468845E-1,-3.516314924E-1,-1.732064784E-1
1.578947844E1,-5.780355930E-1,-5.852088928E-1,-1.373574138E-1
1.580947844E1,-5.715080500E-1,-5.819276571E-1,-1.434660703E-1
1.582948000E1,-6.594726443E-1,-4.927413464E-1,-1.857728511E-1
1.584948000E1,-7.654490471E-1,-3.914424479E-1,-2.559700012E-1
1.587147844E1,-8.483172655E-1,-3.388731182E-1,-3.276855648E-1
1.589147844E1,-8.162555695E-1,-1.657888293E-1,-3.429571986E-1
1.591148938E1,-6.559820175E-1,2.120575011E-1,-3.178593516E-1
1.593347844E1,-4.783598483E-1,7.472627163E-1,-3.535338938E-1
1.595348469E1,-4.606796503E-1,7.422361970E-1,-3.288200200E-1
1.597548000E1,-4.463330507E-1,2.568426430E-1,-2.924822867E-1
1.599748312E1,-1.785995364E-1,2.543293834E-1,-3.677408695E-1
1.601947844E1,3.913028166E-2,1.330988109E-1,-3.451737761E-1
1.603947844E1,4.258603323E-3,-3.231826127E-1,-1.884606481E-1
1.605947844E1,2.044653147E-1,-2.414662987E-1,-1.247561350E-1
1.607947844E1,5.962742567E-1,2.178170905E-2,-3.579670191E-2
1.609947844E1,1.023984671E0,3.400425017E-1,2.726204321E-2
1.611947844E1,1.733146906E0,8.350702524E-1,1.178620830E-1
1.613948000E1,2.306766748E0,5.753652453E-1,4.495968223E-1
1.616148000E1,2.439394236E0,4.280245304E-1,7.545232773E-1
1.618149250E1,2.398588419E0,4.809778333E-1,7.951021791E-1
1.620347844E1,1.860171914E0,6.091897488E-1,6.378654838E-1
1.622347844E1,9.919055104E-1,1.243302703E0,4.792674184E-1
1.624347844E1,3.936939240E-1,1.729376912E0,6.253688931E-1
1.626347844E1,4.315152168E-1,1.980180740E0,8.242317438E-1
1.628347844E1,5.022882819E-1,2.344169140E0,8.797681332E-1
1.630347844E1,4.098731279E-1,2.506135702E0,7.275579572E-1
1.632347844E1,4.175874889E-1,1.251767635E0,4.474151433E-1
1.634347844E1,5.739864111E-1,-1.573937982E-1,3.088883758E-1
1.636347844E1,8.291012049E-1,4.784994721E-1,5.101597309E-1
1.638348000E1,1.001452446E0,6.955835223E-1,4.250574708E-1
1.640348000E1,9.104509950E-1,-2.143613398E-1,1.542696506E-1
1.642547844E1,9.006596804E-1,-7.589564323E-1,1.570796361E-3
1.644548000E1,8.259596229E-1,-6.275506020E-1,2.633701824E-2
1.646747844E1,5.305451751E-1,-4.391597509E-1,7.567747682E-2
1.648747844E1,7.583455741E-2,-3.822445571E-1,1.528908405E-2
1.650747844E1,-3.173008561E-1,-3.698701859E-1,-5.304055661E-2
1.652747844E1,-5.094092488E-1,-3.374070525E-1,-9.021607041E-2
1.654747844E1,-5.819276571E-1,-4.857600331E-1,-1.261523962E-1
1.656748313E1,-5.964488387E-1,-7.603526711E-1,-1.123293936E-1
1.658947844E1,-4.414112270E-1,-1.143644452E0,-1.138129234E-1
1.660947844E1,-2.375218570E-1,-1.116958380E0,-1.572716236E-1
1.662947844E1,2.658136375E-2,-1.025031924E0,-6.356488913E-2
1.664948000E1,2.465452105E-1,-1.207383871E0,1.091179848E-1
1.667148000E1,7.157420516E-1,-1.028906465E0,7.483971864E-2
1.669347844E1,5.612106323E-1,-9.093514681E-1,9.224065393E-2
1.671348000E1,-6.120869517E-2,-1.012133837E0,2.067342550E-1
1.673548000E1,-9.100146890E-1,-1.386960745E0,-6.544984877E-2
1.675748000E1,-1.302818418E0,-1.115474820E0,-3.619987369E-1
1.677949250E1,-9.853081703E-1,-4.918686748E-1,-3.103370070E-1
1.680147844E1,-5.224119425E-1,1.603032589E0,4.135208726E-1
1.682147844E1,-1.256061077E0,1.296151280E0,8.194320649E-2
1.684147844E1,-1.588930249E0,1.326816797E0,-2.999697328E-1
1.686147844E1,-1.443683982E0,1.001190662E0,-2.402271181E-1
1.688148000E1,-1.167869568E0,2.754827738E-1,-1.968033314E-1
1.690347844E1,-8.878141046E-1,-3.911632001E-1,-3.582113683E-1
1.692347844E1,-6.070953012E-1,-7.076786757E-1,-3.678455949E-1
1.694347844E1,-7.363369465E-1,-7.764096856E-1,-2.003463507E-1
1.696347844E1,-1.713215232E0,-6.807656884E-1,-4.272565991E-2
1.698347844E1,-6.930004358E-1,6.668379307E-1,3.222052455E-1
1.700347844E1,1.668709219E-1,8.224514723E-1,2.086890191E-1
1.702347844E1,-4.153883550E-3,2.094744146E-1,5.841616914E-2
1.704347844E1,-5.413138866E-1,-2.355845422E-1,-4.628613219E-2
1.706347844E1,-9.046913981E-1,1.692969352E-3,-1.170243248E-1
1.708347844E1,-8.845677972E-1,3.398156166E-2,-1.388933063E-1
1.710347844E1,-6.991963387E-1,1.047197543E-2,-1.513200402E-1
1.712347844E1,-5.701466799E-1,-7.600908726E-2,-1.567305624E-1
1.714347844E1,-5.663942695E-1,-3.187320232E-1,-2.102423608E-1
1.716347844E1,-6.436250806E-1,-4.771032035E-1,-2.318669856E-1
1.718351906E1,-7.574205399E-1,-3.697654605E-1,-2.204176337E-1
1.720548000E1,-7.719241977E-1,-1.389282104E-2,-2.283763289E-1
1.722548000E1,-7.094239593E-1,2.903180718E-1,-2.129476219E-1
1.724548000E1,-6.225414872E-1,3.319267035E-1,-2.430545539E-1
1.726748000E1,-5.833762884E-1,3.955788612E-1,-3.479139209E-1
1.728947844E1,-5.846329331E-1,2.852391601E-1,-3.761533499E-1
1.730947844E1,-4.532794654E-1,1.780410409E-1,-3.855083287E-1
1.732947844E1,-2.021789402E-1,3.132866025E-1,-4.335921407E-1
1.734948000E1,-3.944443911E-2,3.861017227E-1,-4.810301960E-1
1.737147844E1,-1.518611014E-1,-1.349488646E-1,-3.741287887E-1
1.739147844E1,-2.166826278E-1,-5.333551764E-1,-1.324181259E-1
1.741147844E1,1.071981192E-1,-8.784241974E-2,1.511455141E-2
1.743147844E1,6.507285833E-1,5.081176758E-1,-6.810274720E-2
1.745148000E1,1.210281134E0,8.767312169E-1,-9.798278660E-2
1.747347844E1,1.731523633E0,9.982933998E-1,2.289872020E-1
1.749347844E1,2.163614750E0,7.795338631E-1,5.388355255E-1
1.751347844E1,2.468157291E0,7.077310085E-1,6.884450912E-1
1.753347844E1,2.285142183E0,5.300564766E-1,6.628934741E-1
1.755347844E1,1.771736026E0,2.757271230E-1,4.637165368E-1
1.757348156E1,1.067425966E0,8.445299268E-1,4.138873816E-1
1.759547844E1,7.165274620E-1,1.463615656E0,5.374042988E-1
1.761548156E1,7.846476436E-1,1.771107793E0,6.559470892E-1
1.763747844E1,6.986029148E-1,2.031685352E0,6.510776281E-1
1.765747844E1,4.039739072E-1,2.072037458E0,5.749463439E-1
1.767748000E1,3.846007586E-1,1.088439703E0,5.193226933E-1
1.769748000E1,5.131617188E-1,7.761479169E-2,4.913276434E-1
1.771948000E1,7.810348272E-1,4.534365237E-1,5.718222260E-1
1.773948000E1,8.153305650E-1,3.064972758E-1,4.045673311E-1
1.776147844E1,8.067260981E-1,-4.365417361E-1,1.721418202E-1
1.778147844E1,9.562135339E-1,-8.983209729E-1,4.543092102E-2
1.780147844E1,9.308364391E-1,-8.089252114E-1,5.225515738E-2
1.782148000E1,5.831668377E-1,-5.080304146E-1,1.103397161E-1
1.784347844E1,-6.387905218E-3,-4.637863338E-1,4.974188283E-2
1.786347844E1,-4.212526679E-1,-4.695284665E-1,-4.953244328E-2
1.788347844E1,-6.106034517E-1,-3.842167854E-1,-1.178446338E-1
1.790347844E1,-7.185171247E-1,-4.732111096E-1,-1.438151300E-1
1.792347844E1,-7.774220109E-1,-8.293455243E-1,-1.544092745E-1
1.794347844E1,-6.605547667E-1,-9.990788102E-1,-1.394692659E-1
1.796347844E1,-2.344151735E-1,-9.091420174E-1,-7.380997390E-2
1.798347844E1,-7.337363809E-2,-8.135502934E-1,1.195899621E-1
1.800347844E1,2.064899057E-1,-8.581085801E-1,2.310292274E-1
1.802347844E1,1.096031904E0,-5.566902161E-1,3.075095713E-1
1.804347844E1,9.556026459E-1,-7.781899571E-1,1.777617782E-1
1.806347844E1,2.213077433E-2,-1.084198475E0,1.911484599E-1
1.808347844E1,-7.844033241E-1,-1.503670931E0,1.102000922E-1
1.810347844E1,-1.214592099E0,-1.235012412E0,-1.935919225E-1
1.812347844E1,-1.087549567E0,-6.329087615E-1,-3.330088258E-1
1.814347844E1,-2.766695917E-1,-1.997005790E-1,-1.342332661E-1
1.816347844E1,-4.345346093E-1,1.167206407E0,-6.806784077E-4
1.818347844E1,-1.120396614E0,1.404012680E0,-1.698903441E-1
1.820347844E1,-1.306675673E0,9.096307158E-1,-3.935019374E-1
1.822348625E1,-1.276917815E0,1.877974346E-2,-2.168920636E-1
1.824548000E1,-1.246880651E0,-6.655987501E-1,-1.689478755E-1
1.826549406E1,-8.924741149E-1,-8.114385009E-1,-2.844886780E-1
1.828747844E1,-4.659680128E-1,-6.565055847E-1,-1.535017043E-1
1.830748938E1,-1.265939713E0,-8.503069282E-1,-6.049311161E-2
1.832947844E1,-1.064354181E0,7.524812222E-1,1.773952693E-1
1.834948781E1,9.337511659E-2,1.247526407E0,3.606722951E-1
1.837147844E1,1.111076623E-1,5.992937088E-1,1.583013684E-2
1.839147844E1,-3.468318284E-1,-2.174331248E-1,-6.181956083E-2
1.841147844E1,-7.542964220E-1,-8.050854802E-1,-1.741140485E-1
1.843147844E1,-8.461879492E-1,-9.109571576E-1,-1.352804750E-1
1.845148000E1,-5.922949314E-1,-5.534613729E-1,-1.585282534E-1
1.847347844E1,-3.035127521E-1,-9.264207631E-2,-2.643301189E-1
1.849347844E1,-4.062079191E-1,-9.925687313E-2,-2.877175212E-1
1.851347844E1,-7.052177191E-1,-3.518932760E-1,-3.107209802E-1
1.853347844E1,-7.757988572E-1,-4.441863000E-1,-3.051533699E-1
1.855347844E1,-6.139719486E-1,-2.278701812E-1,-2.796191871E-1
1.857347844E1,-5.349957943E-1,3.485422581E-2,-2.995683253E-1
1.859347844E1,-5.242794752E-1,3.041061759E-1,-3.219434321E-1
1.861347844E1,-5.054647923E-1,6.511125565E-1,-3.647389114E-1
1.863347844E1,-5.810026526E-1,3.440043926E-1,-3.569896519E-1
1.865347844E1,-6.526833177E-1,-2.265961021E-1,-2.993588746E-1
1.867347844E1,-3.620162010E-1,7.253587991E-2,-3.700098097E-1
1.869348000E1,-2.199114766E-3,5.077511668E-1,-4.790579677E-1
1.871348000E1,3.209660575E-2,1.214923710E-1,-4.367337227E-1
1.873548000E1,-6.633996218E-2,-4.219158888E-1,-2.696184516E-1
1.875748781E1,1.779712290E-1,-2.321811467E-1,-1.635373570E-2
1.877948000E1,6.288421154E-1,2.862340026E-2,3.563962504E-2
1.879949250E1,1.098719716E0,4.561417997E-1,-6.548475474E-2
1.882148000E1,1.704715490E0,7.744200230E-1,9.978047013E-2
1.884148781E1,2.305841684E0,4.500855207E-1,4.003785253E-1
1.886347844E1,2.648083448E0,3.620510995E-1,4.926715493E-1
1.888347844E1,2.453740835E0,2.190911770E-1,5.314178467E-1
1.890347844E1,1.747144341E0,4.212352037E-1,3.313333094E-1
1.892347844E1,9.353743196E-1,1.155530095E0,3.570594490E-1
1.894347844E1,5.839347839E-1,1.471172929E0,6.085439324E-1
1.896347844E1,5.837079287E-1,1.651186228E0,6.752155423E-1
1.898347844E1,6.235363483E-1,1.873383999E0,6.506761909E-1
1.900347844E1,3.271794319E-1,2.021073818E0,6.559820175E-1
1.902347844E1,-4.113740847E-2,2.158885002E0,6.621255279E-1
1.904347844E1,7.751007378E-2,8.245109916E-1,5.104739070E-1
1.906347844E1,5.471083522E-1,-3.991393447E-1,4.456698298E-1
1.908348469E1,9.806306958E-1,3.647214472E-1,4.448146224E-1
1.910547844E1,8.863305449E-1,4.033455998E-2,3.264463842E-1
1.912549094E1,7.602828741E-1,-7.725874186E-1,2.671400905E-1
1.914747844E1,7.883128524E-1,-9.333671927E-1,2.250427604E-1
1.916747844E1,7.131240964E-1,-6.543413997E-1,2.616772056E-1
1.918748000E1,3.705683053E-1,-4.723908007E-1,3.035651147E-1
1.920948000E1,-5.782275647E-2,-4.742408693E-1,1.804670393E-1
1.923147844E1,-3.563613296E-1,-3.379655480E-1,2.391101094E-3
1.925147844E1,-5.028642416E-1,-2.461961508E-1,-6.129596382E-2
1.927147844E1,-5.524141788E-1,-3.827157915E-1,-1.149473861E-1
1.929147844E1,-5.443507433E-1,-6.393839121E-1,-1.574810594E-1
1.931147844E1,-4.098556638E-1,-8.307941556E-1,-1.460840553E-1
1.933147844E1,-6.101670861E-2,-1.082697511E0,-8.040732145E-2
1.935147844E1,1.754230410E-1,-1.281368375E0,9.512044489E-3
1.937147844E1,4.448146224E-1,-1.088055730E0,5.494296551E-2
1.939147844E1,9.916960597E-1,-4.075518250E-1,1.240929067E-1
1.941147844E1,8.838521838E-1,-6.175323725E-1,1.370432526E-1
1.943147844E1,1.091005281E-1,-1.434608221E0,2.369633466E-1
1.945148000E1,-4.508709013E-1,-2.180614471E0,2.206270695E-1
1.947347844E1,-8.500800729E-1,-1.687820673E0,-1.703441292E-1
1.949347844E1,-8.084015846E-1,-6.559121609E-1,-3.631157577E-1
1.951347844E1,-4.381998181E-1,2.260201424E-1,-1.074773744E-1
1.953347844E1,-1.534318924E-1,9.538922310E-1,3.225193918E-1
1.955347844E1,-7.066663504E-1,2.592337430E-1,-3.755948693E-2
1.957347844E1,-1.236129403E0,-3.415783942E-1,-3.811624646E-1
1.959347844E1,-1.385965943E0,-2.093347907E-1,-2.361954004E-1
1.961347844E1,-1.154343367E0,8.368853480E-2,-1.834864616E-1
1.963347844E1,-8.577595353E-1,-7.853981806E-4,-3.893829584E-1
1.965347844E1,-5.233020782E-1,-6.043202281E-1,-4.107457995E-1
1.967348000E1,-4.115835428E-1,-9.586046338E-1,-1.622807086E-1
1.969548000E1,-1.031541944E0,-4.175176620E-1,6.204645336E-2
1.971747844E1,-5.892056823E-1,4.725827873E-1,2.651678622E-1
1.973747844E1,5.166174378E-3,3.454181254E-1,1.917244196E-1
1.975747844E1,-8.670795709E-2,1.524894089E-1,3.370230645E-2
1.977747844E1,-4.417079389E-1,-3.337069601E-2,-2.073451132E-2
1.979747844E1,-6.258925200E-1,-3.281218931E-3,-7.220426947E-2
1.981748625E1,-5.805837512E-1,-5.925392732E-2,-5.571090803E-2
1.983947844E1,-4.666137695E-1,-3.057467639E-1,-9.389871359E-2
1.985949406E1,-4.110424817E-1,-4.634547234E-1,-1.083849445E-1
1.988147844E1,-4.473627806E-1,-4.193851650E-1,-9.180431813E-2
1.990147844E1,-6.110572219E-1,-3.881263137E-1,-1.105317026E-1
1.992147844E1,-7.771602273E-1,-3.125011921E-1,-1.414938420E-1
1.994147844E1,-7.883128524E-1,-1.427330226E-1,-1.854237765E-1
1.996147844E1,-7.372968793E-1,9.101892263E-2,-2.404365540E-1
1.998147844E1,-6.972241402E-1,3.525215983E-1,-2.921157479E-1
2.000147844E1,-7.419045568E-1,4.572937191E-1,-3.477393985E-1
2.002147844E1,-7.384138703E-1,4.246909618E-1,-3.724009097E-1
2.004147844E1,-6.365215778E-1,4.647288322E-1,-3.902730644E-1
2.006147844E1,-4.529652894E-1,3.505842984E-1,-4.179714620E-1
2.008147844E1,-1.835562736E-1,4.264886677E-1,-4.677656889E-1
2.010147844E1,-7.312929723E-3,2.461786866E-1,-4.248305857E-1
2.012147844E1,-4.864232615E-2,-2.205572575E-1,-2.524269819E-1
2.014147844E1,-3.504621238E-2,-4.275532961E-1,-1.290670931E-1
2.016147844E1,2.285857648E-1,-2.414837480E-1,-1.963495463E-2
2.018147844E1,6.906442642E-1,2.688854337E-1,-5.028293654E-2
2.020147844E1,1.225360751E0,6.586872339E-1,-8.810421824E-2
2.022147844E1,1.880784273E0,7.221125364E-1,1.497666985E-1
2.024147844E1,2.329822540E0,4.203799963E-1,5.697627068E-1
2.026147844E1,2.589510202E0,2.150071114E-1,7.286749482E-1
2.028147844E1,2.325145006E0,3.386113346E-1,7.965857387E-1
2.030147844E1,1.595021486E0,8.015947938E-1,6.006026864E-1
2.032147844E1,9.721484184E-1,9.730036259E-1,5.158843994E-1
2.034147844E1,6.095213294E-1,1.005780935E0,5.650154352E-1
2.036148156E1,4.696680903E-1,1.676109433E0,6.577971578E-1
2.038347844E1,4.255810976E-1,2.380559206E0,6.707998514E-1
2.040347844E1,1.828930527E-1,2.414174318E0,6.246708035E-1
2.042347844E1,6.911503617E-3,1.323378444E0,5.645267367E-1
2.044347844E1,3.057816923E-1,-3.696956336E-1,4.094193280E-1
2.046347844E1,8.887216449E-1,1.965066195E-1,4.142538905E-1
2.048347844E1,1.045993328E0,7.241894603E-1,3.033382297E-1
2.050347844E1,8.474445939E-1,-9.000662714E-2,2.568252087E-1
2.052347844E1,7.560940981E-1,-8.177042007E-1,2.235592157E-1
2.054347844E1,7.584153414E-1,-9.467363954E-1,1.896474808E-1
2.056347844E1,6.310936213E-1,-7.289541960E-1,2.388832122E-1
2.058347844E1,3.572165370E-1,-5.924869180E-1,2.618866563E-1
2.060347844E1,-4.714134336E-2,-3.460115194E-1,1.667138487E-1
2.062347844E1,-3.919660449E-1,-1.567480266E-1,-2.775073517E-3
2.064347844E1,-5.488362312E-1,-1.714611501E-1,-1.920211166E-1
2.066347844E1,-5.784021020E-1,-3.684739172E-1,-2.462136000E-1
2.068347844E1,-5.705655813E-1,-5.194972754E-1,-1.487893164E-1
2.070347844E1,-3.714235127E-1,-6.696828604E-1,-1.064650863E-1
2.072347844E1,-1.157502383E-1,-9.568942189E-1,-1.341285557E-1
2.074347844E1,1.352281123E-1,-1.331790924E0,-2.740166895E-2
2.076348000E1,4.987801909E-1,-9.250768423E-1,7.237880677E-2
2.078547844E1,7.415903807E-1,-2.920633852E-1,1.017876044E-1
2.080548000E1,4.305901825E-1,-7.040134668E-1,1.783552021E-1
2.082548000E1,-7.522369176E-2,-1.597063541E0,2.206619829E-1
2.084548000E1,-5.655913949E-1,-1.888219357E0,8.255407214E-2
2.086548000E1,-8.777086139E-1,-1.418324351E0,-1.359436959E-1
2.088548000E1,-9.234711528E-1,-5.608964562E-1,-1.441118419E-1
2.090548000E1,-6.838723421E-1,6.981316837E-4,6.997025013E-2
2.092548000E1,-3.105987906E-1,1.040320992E0,1.930857748E-1
2.094548000E1,-4.526860416E-1,7.652570605E-1,4.136430100E-3
2.096548000E1,-8.718617558E-1,2.446078956E-1,-2.179043591E-1
2.098548000E1,-9.364913106E-1,8.381070942E-2,-3.696781993E-1
2.100747844E1,-1.091459155E0,2.579596639E-2,-3.461686075E-1
2.102747844E1,-1.175409436E0,-2.151467353E-1,-2.959903777E-1
2.104747844E1,-9.174847007E-1,-4.140968025E-1,-3.478790224E-1
2.106747844E1,-5.619785786E-1,-5.165127516E-1,-1.409527957E-1
2.108747844E1,-1.058123350E0,-1.017876029E0,-1.219461560E-1
2.110747844E1,-1.379316211E0,3.622081876E-1,-3.490658419E-4
2.112747844E1,-1.681101173E-1,1.080864906E0,2.749766111E-1
2.114747844E1,8.475318551E-2,9.826552868E-1,9.625490755E-2
2.116747844E1,-2.761634588E-1,1.170417815E-1,-8.220500313E-3
2.118748000E1,-6.734701991E-1,-3.462558687E-1,-6.398376822E-2
2.120948000E1,-7.071375847E-1,-1.656841040E-1,-5.644394830E-2
2.123147844E1,-4.844859540E-1,-1.741838641E-2,-2.509783395E-2
2.125147844E1,-4.202578366E-1,-3.066543341E-1,-3.953170776E-2
2.127147844E1,-4.586201608E-1,-4.255112708E-1,-6.047565863E-2
2.129147844E1,-4.971745014E-1,-4.069409668E-1,-1.345125288E-1
2.131147844E1,-5.073323250E-1,-3.004933298E-1,-1.793325841E-1
2.133147844E1,-5.037194490E-1,-5.337216705E-2,-1.893333197E-1
2.135147844E1,-5.646314621E-1,7.702138275E-2,-2.062281072E-1
2.137147844E1,-7.051828504E-1,1.433962435E-1,-2.686236203E-1
2.139147844E1,-7.122688890E-1,4.412890375E-1,-3.518234789E-1
2.141148312E1,-6.469935775E-1,5.157971382E-1,-3.568674624E-1
2.143347844E1,-7.014303803E-1,2.056521475E-1,-3.271794319E-1
2.145347844E1,-6.722310185E-1,2.158623189E-1,-2.851867974E-1
2.147347844E1,-5.314527750E-1,2.821848392E-1,-3.624176085E-1
2.149347844E1,-2.920110226E-1,3.832393885E-1,-4.827406108E-1
2.151347844E1,-1.020319462E-1,2.316749990E-1,-4.769810438E-1
2.153347844E1,-8.676031977E-2,-3.121172190E-1,-3.210707605E-1
2.155347844E1,-5.352924764E-2,-5.335122347E-1,-1.584235430E-1
2.157347844E1,1.573065221E-1,-3.150144815E-1,-2.780309506E-2
2.159347844E1,5.218534470E-1,-8.040732145E-2,-4.595451802E-2
2.161347844E1,1.000597239E0,1.059240326E-1,-5.871287733E-2
2.163347844E1,1.551876903E0,3.488389552E-1,1.077915356E-1
2.165348000E1,2.011125326E0,3.419972658E-1,3.571816385E-1
2.167348000E1,2.293711662E0,3.166376352E-1,4.805414975E-1
2.169547844E1,2.369965076E0,6.584079862E-1,4.285481572E-1
2.171548000E1,2.018333673E0,6.716201305E-1,4.072376788E-1
2.173548000E1,1.406752825E0,1.098335743E0,3.394141793E-1
2.175548469E1,8.722108603E-1,1.551929355E0,4.018969536E-1
2.177749719E1,5.350306630E-1,1.460212231E0,4.731936753E-1
2.179948000E1,3.962246478E-1,1.627484560E0,4.566479325E-1
2.181948781E1,1.683893651E-1,2.300291538E0,5.006127954E-1
2.184147844E1,-2.274163999E-2,2.394382238E0,5.688900948E-1
2.186147844E1,1.127657220E-1,7.278372049E-1,3.418401778E-1
2.188148000E1,4.617094100E-1,1.331860721E-1,3.885102868E-1
2.190347844E1,9.053546190E-1,8.442855477E-1,2.790955901E-1
2.192347844E1,9.715375304E-1,1.999798268E-1,1.046499386E-1
2.194347844E1,7.628310323E-1,-5.609662533E-1,1.489289403E-1
2.196347844E1,6.780080795E-1,-8.022580147E-1,2.156703323E-1
2.198347844E1,5.012410879E-1,-4.460712373E-1,2.616248429E-1
2.200347844E1,2.602460384E-1,-3.170390427E-1,2.927964330E-1
2.202347844E1,-3.115412779E-2,-3.693291247E-1,2.302263826E-1
2.204347844E1,-3.510206044E-1,-2.523571551E-1,1.190489084E-1
2.206347844E1,-5.549798012E-1,-2.005732358E-1,-1.609193534E-2
2.208347844E1,-6.908362508E-1,-2.763728797E-1,-6.986553222E-2
2.210347844E1,-6.687927246E-1,-5.752605200E-1,-1.547583491E-1
2.212347844E1,-4.194026291E-1,-8.767836094E-1,-1.725781560E-1
2.214347844E1,-6.812020391E-2,-1.039081812E0,-5.265658349E-2
2.216347844E1,1.880766749E-1,-1.384168267E0,7.127925009E-2
2.218347844E1,4.404338300E-1,-1.466216207E0,6.251769513E-2
2.220347844E1,8.963487148E-1,-6.368357539E-1,1.433613449E-1
2.222347844E1,8.027467132E-1,-7.148693800E-1,2.528283894E-1
2.224347844E1,4.365068302E-2,-1.391079783E0,3.230429888E-1
2.226347844E1,-7.177841067E-1,-1.719376206E0,2.567030191E-1
2.228347844E1,-1.074180365E0,-1.291229486E0,-7.693411410E-2
2.230347844E1,-9.794089794E-1,-5.696929097E-1,-2.889916301E-1
2.232347844E1,-5.450488925E-1,6.572909653E-2,-2.841047049E-1
2.234347844E1,1.313360184E-1,7.067885399E-1,-1.859822869E-1
2.236347844E1,-6.230999827E-1,8.248251677E-1,-2.650108039E-1
2.238347844E1,-1.203544140E0,4.367337227E-1,-6.096435189E-1
2.240347844E1,-1.444225073E0,-1.134464052E-2,-3.710570037E-1
2.242347844E1,-1.471085668E0,-2.766346931E-1,4.530874640E-2
2.244347844E1,-1.247421741E0,-3.364122212E-1,-1.243721619E-1
2.246347844E1,-8.200778365E-1,-3.078237176E-1,-2.744006515E-1
2.248348000E1,-5.861513615E-1,3.136356547E-2,-1.090656221E-1
2.250547844E1,-1.807777166E0,-7.670722157E-2,1.483529806E-3
2.252548000E1,-1.070270777E0,9.420589209E-1,1.687558889E-1
2.254747844E1,2.342580855E-1,8.782845736E-1,2.330887169E-1
2.256748000E1,3.676710725E-1,2.724458873E-1,-1.101477295E-1
2.258947844E1,-3.808133900E-1,-3.854559660E-1,-1.552470326E-1
2.260947844E1,-9.096307158E-1,-4.227536619E-1,-1.386489570E-1
2.262947844E1,-9.316916466E-1,-3.673917949E-1,-3.799581900E-2
2.264948000E1,-6.709220409E-1,-2.999522984E-1,-5.548401549E-2
2.267148000E1,-4.086688459E-1,-1.976410896E-1,-1.452462971E-1
2.269347844E1,-3.710744381E-1,-2.384468764E-1,-1.880766749E-1
2.271348000E1,-4.611858130E-1,-1.979727000E-1,-2.087239176E-1
2.273548000E1,-5.615247488E-1,4.235913977E-2,-1.971000284E-1
2.275548000E1,-6.884974837E-1,7.052875310E-2,-1.713738739E-1
2.277548000E1,-8.111068606E-1,3.263765713E-3,-2.129476219E-1
2.279548000E1,-7.308915257E-1,2.711892724E-1,-3.152239025E-1
2.281747844E1,-5.837427974E-1,5.181707740E-1,-3.940429986E-1
2.283748156E1,-5.721712708E-1,3.368659914E-1,-4.105014503E-1
2.285948000E1,-5.529726744E-1,1.295732409E-1,-4.228234589E-1
2.288147844E1,-3.055897057E-1,4.149869382E-1,-4.543964565E-1
2.290147844E1,-1.746376455E-1,3.309144378E-1,-3.935717344E-1
2.292147844E1,-2.798984647E-1,-1.570796371E-1,-2.285159528E-1
2.294147844E1,-1.903979629E-1,-1.704663038E-1,-1.334827840E-1
2.296147844E1,2.037322819E-1,2.860769033E-1,-9.107127786E-2
2.298147844E1,7.579964995E-1,5.408949852E-1,-1.494874507E-1
2.300147844E1,1.405880213E0,7.346963286E-1,-1.000073627E-1
2.302147844E1,2.064096212E0,6.745871902E-1,1.811128110E-1
2.304147844E1,2.626388788E0,4.772079289E-1,4.827406108E-1
2.306147844E1,2.750097752E0,2.699675262E-1,6.821444631E-1
2.308147844E1,2.421469688E0,2.441715598E-1,5.064421892E-1
2.310147844E1,1.433456421E0,1.047581553E0,1.395739764E-1
2.312147844E1,4.669628441E-1,1.905742407E0,2.243271619E-1
2.314147844E1,7.902850956E-2,2.154626369E0,6.505365968E-1
2.316147844E1,1.746376455E-1,2.403283358E0,7.958526611E-1
2.318148000E1,3.537782431E-1,2.409723759E0,7.773347497E-1
2.320347844E1,5.261294842E-1,1.756115437E0,6.233966947E-1
2.322347844E1,8.635714650E-1,-8.522442728E-2,3.239680231E-1
2.324348000E1,8.864876032E-1,-5.602506995E-1,4.009719491E-1
2.326547844E1,1.064738154E0,3.137403727E-1,4.195247889E-1
2.328547844E1,9.399296045E-1,4.663519561E-2,2.715208828E-1
2.330547844E1,7.630928755E-1,-5.864131451E-1,2.667735815E-1
2.332548000E1,7.834783196E-1,-8.520697355E-1,2.996032238E-1
2.334548000E1,8.101992607E-1,-8.960171342E-1,3.997676671E-1
2.336548000E1,5.922425985E-1,-8.926486373E-1,4.553563893E-1
2.338548000E1,2.158972248E-2,-5.959077477E-1,4.212352037E-1
2.340747844E1,-5.785417557E-1,-3.238807619E-1,2.776295245E-1
2.342747844E1,-8.255058527E-1,-1.439722031E-1,1.214400083E-1
2.344747844E1,-7.961493731E-1,-2.390053868E-1,8.796459064E-3
2.346748000E1,-6.821793914E-1,-4.524416924E-1,-3.457497060E-2
2.348947844E1,-3.458544314E-1,-6.864728928E-1,-1.109156758E-1
2.350947844E1,7.220426947E-2,-9.963735342E-1,-4.298745841E-2
2.352948000E1,3.140021861E-1,-1.440542340E0,1.294161677E-1
2.355147844E1,3.061482012E-1,-1.091895461E0,2.945766747E-1
2.357147844E1,6.433981657E-1,-2.095267773E-1,2.623229921E-1
2.359147844E1,6.379702091E-1,-3.846531212E-1,2.387086749E-1
2.361147844E1,1.226791963E-1,-1.449391246E0,3.310016990E-1
2.363147844E1,-3.606373966E-1,-2.226429224E0,1.750390679E-1
2.365147844E1,-7.463725805E-1,-1.911222816E0,-7.560766488E-2
2.367148156E1,-8.762774467E-1,-1.147204876E0,-1.681799293E-1
2.369347844E1,-6.808180213E-1,-8.903099298E-1,-1.142318025E-1
2.371348000E1,-8.927359432E-2,-3.435506225E-1,-8.733627200E-2
2.373548000E1,-1.186823845E-2,1.292294145E0,-1.390503794E-1
2.375548000E1,-9.551314116E-1,1.033200026E0,-3.512998819E-1
2.377748000E1,-1.198936462E0,5.170537829E-1,-6.113888621E-1
2.379947844E1,-1.337480664E0,4.348662496E-1,-1.685464382E-1
2.381947844E1,-1.452672482E0,1.834340990E-1,-9.112364054E-2
2.383948000E1,-1.140468001E0,1.049990058E-1,-1.096241325E-1
2.385948000E1,-6.359281540E-1,5.153957382E-2,-7.735299319E-2
2.387948000E1,-3.700970709E-1,-2.799682617E-1,3.858922794E-2
2.390147844E1,-2.170823097E0,-1.688588619E0,-2.914350629E-1
2.392147844E1,-1.137745261E0,1.535017014E0,2.018822283E-1
2.394147844E1,1.513549536E-1,2.380419731E0,3.827332556E-1
2.396147844E1,1.714087874E-1,1.396664858E0,-4.874704406E-2
2.398147844E1,-4.229456484E-1,-5.316272750E-2,-2.669306695E-1
2.400147844E1,-1.038104415E0,-8.581260443E-1,-2.349911332E-1
2.402147844E1,-1.091808200E0,-7.353944778E-1,-2.535788715E-1
2.404147844E1,-7.034898400E-1,-1.947787404E-2,-2.008873969E-1
2.406147844E1,-4.051432908E-1,1.480388194E-1,-1.447576135E-1
2.408147844E1,-4.507312775E-1,-1.431170013E-2,-1.684242785E-1
2.410147844E1,-5.781926513E-1,-1.692794859E-1,-2.369808108E-1
2.412147844E1,-6.007598042E-1,-3.098483086E-1,-2.833891213E-1
2.414147844E1,-7.065790892E-1,-3.640407622E-1,-2.663372457E-1
2.416147844E1,-7.880336046E-1,-2.203652710E-1,-2.754827738E-1
2.418147844E1,-6.059783101E-1,4.523195326E-1,-3.423812389E-1
2.420147844E1,-3.653148711E-1,9.110618830E-1,-3.500257730E-1
2.422147844E1,-4.533318281E-1,3.498512506E-1,-3.059562147E-1
2.424147844E1,-5.299692154E-1,-9.644689411E-2,-3.091501594E-1
2.426147844E1,-3.447723389E-1,1.174781099E-1,-3.737971783E-1
2.428147844E1,-2.301216573E-1,1.908517480E-1,-4.101698399E-1
2.430147844E1,-1.632057428E-1,7.120943069E-2,-3.247534037E-1
2.432148000E1,-7.098253816E-2,2.462659590E-2,-2.369284481E-1
2.434347844E1,1.808335632E-1,-3.717551241E-3,-1.491034776E-1
2.436348625E1,6.415830255E-1,7.417649031E-2,-1.877974272E-1
2.438548781E1,1.351338625E0,5.363222361E-1,-1.292416304E-1
2.440748000E1,2.112022877E0,6.078283787E-1,2.039591819E-1
2.442949562E1,2.500812531E0,2.062106431E-1,5.397779942E-1
2.445147844E1,2.521791220E0,1.366941929E-1,5.869717002E-1
2.447149094E1,2.202413559E0,1.150346473E-1,5.726251006E-1
2.449347844E1,1.542277694E0,4.012860954E-1,3.721565604E-1
2.451347844E1,1.070445299E0,8.038811684E-1,4.593183100E-1
2.453347844E1,9.159138799E-1,9.168738127E-1,5.449616313E-1
2.455347844E1,8.655611277E-1,1.222446084E0,5.480508208E-1
2.457347844E1,7.003831863E-1,1.523794651E0,6.386159658E-1
2.459347844E1,5.595176220E-1,1.501157641E0,5.637413263E-1
2.461349094E1,4.565955698E-1,8.092219234E-1,5.669353008E-1
2.463547844E1,4.635769129E-1,-1.453684717E-1,5.950002074E-1
2.465548000E1,7.175223231E-1,1.926843449E-2,6.014928222E-1
2.467548000E1,8.005127311E-1,1.019621342E-1,4.777838886E-1
2.469748000E1,8.665734529E-1,-6.665936112E-1,3.619987369E-1
2.471947844E1,9.292307496E-1,-1.103274941E0,2.896548510E-1
2.473947844E1,8.807106018E-1,-8.745146990E-1,3.087138236E-1
2.475947844E1,6.165201068E-1,-5.903750658E-1,2.732487321E-1
2.477950188E1,2.300692946E-1,-4.214970171E-1,1.313185692E-1
2.480147844E1,-1.250528395E-1,-1.933475733E-1,-8.281587064E-2
2.482147844E1,-2.996904850E-1,-5.223770440E-2,-2.210983038E-1
2.484147844E1,-4.621806443E-1,-1.111949235E-1,-2.206619829E-1
2.486147844E1,-6.365390420E-1,-2.272767723E-1,-4.616395757E-2
2.488148000E1,-6.038664579E-1,-4.631231129E-1,7.037167251E-2
2.490347844E1,-1.622807086E-1,-9.716945887E-1,-6.003932655E-2
2.492347844E1,-9.218829125E-2,-1.005711079E0,-1.467821933E-2
2.494347844E1,-1.786518991E-1,-9.440485835E-1,1.796118319E-1
2.496348000E1,1.180889755E-1,-3.449643254E-1,2.696184516E-1
2.498348000E1,5.717524290E-1,-9.585348517E-2,2.288475633E-1
2.500547844E1,3.934844732E-1,-1.053358555E0,1.942551434E-1
2.502548000E1,-9.002408385E-2,-1.859386563E0,2.439795732E-1
2.504748000E1,-4.891110659E-1,-2.218208790E0,2.612757869E-2
2.506947844E1,-9.043248892E-1,-1.357412338E0,-1.842718571E-1
2.508947844E1,-8.564330339E-1,-3.341258168E-1,-1.534144394E-2
2.510947844E1,-3.888244629E-1,7.778757811E-1,2.210110426E-1
2.512947844E1,-6.577796936E-1,1.206703186E0,2.082177848E-1
2.514948000E1,-1.352141500E0,7.889237404E-1,-2.789908946E-1
2.517148000E1,-1.420575857E0,4.929507971E-1,-4.708025753E-1
2.519347844E1,-1.230387330E0,1.261523962E-1,-3.663271666E-1
2.521348000E1,-1.024682760E0,6.543239206E-2,-4.435405135E-1
2.523548000E1,-7.324274182E-1,-1.832595766E-1,-5.340358615E-1
2.525748000E1,-5.472654104E-1,-5.171585083E-1,-1.906772256E-1
2.527947844E1,-1.378059626E0,-6.827029586E-1,-8.292059600E-2
2.529947844E1,-1.470527172E0,8.349305987E-1,6.691592187E-2
2.531947844E1,-3.978652656E-1,9.446769357E-1,2.533869147E-1
2.533947844E1,-2.630211227E-2,2.572266161E-1,4.911356419E-2
2.535948000E1,-1.679704934E-1,-3.564311266E-1,-5.298819765E-2
2.538147844E1,-3.459067941E-1,-4.763527215E-1,-1.822472811E-1
2.540147844E1,-4.551644027E-1,-1.774999797E-1,-1.914800704E-1
2.542147844E1,-4.432961643E-1,-3.073873818E-1,-1.751088798E-1
2.544147844E1,-4.321260750E-1,-6.296100616E-1,-1.552993953E-1
2.546147844E1,-5.078908205E-1,-6.611481905E-1,-1.589994878E-1
2.548147844E1,-6.142511964E-1,-4.147425890E-1,-2.113768309E-1
2.550147844E1,-6.884102225E-1,-6.501351297E-2,-2.431941777E-1
2.552147844E1,-7.542964220E-1,1.602735817E-1,-2.598969638E-1
2.554147844E1,-7.867420912E-1,1.140398160E-1,-2.530203760E-1
2.556147844E1,-7.622376680E-1,4.291764647E-2,-2.995159626E-1
2.558147844E1,-7.432659268E-1,1.345125288E-1,-3.878121674E-1
2.560147844E1,-7.287273407E-1,2.110103071E-1,-4.838052690E-1
2.562147844E1,-4.809080064E-1,3.769911230E-1,-5.106833577E-1
2.564147844E1,-2.152339965E-1,2.772804499E-1,-3.852814436E-1
2.566147844E1,-5.227261037E-2,7.428121567E-2,-2.792526782E-1
2.568147844E1,-5.222025141E-2,-9.018116444E-2,-1.298874021E-1
2.570147844E1,-1.765051484E-1,-1.117010717E-3,-9.009389579E-2
2.572147844E1,-1.213701963E-1,3.490833044E-1,-9.386380762E-2
2.574147844E1,2.302089334E-1,6.797708273E-1,-1.891238838E-1
2.576147844E1,9.741380811E-1,7.118325233E-1,-1.572890729E-1
2.578147844E1,1.584584475E0,8.909207582E-1,8.735372871E-2
2.580147844E1,2.094360113E0,8.042302728E-1,4.526336789E-1
2.582147844E1,2.126613855E0,7.320434451E-1,7.399846911E-1
2.584147844E1,1.976323605E0,7.449938059E-1,7.002435327E-1
2.586147844E1,1.693981647E0,6.262764931E-1,5.216963887E-1
2.588147844E1,1.067094326E0,1.220124722E0,3.160791397E-1
2.590147844E1,5.247157812E-1,1.882529616E0,4.924097359E-1
2.592147844E1,4.770683050E-1,2.067464590E0,6.907663941E-1
2.594147844E1,5.093569160E-1,1.929740787E0,6.609387398E-1
2.596147844E1,2.958158553E-1,1.908884048E0,5.373345017E-1
2.598147844E1,1.330289990E-1,1.782138228E0,5.023581386E-1
2.600147844E1,3.400425017E-1,8.211076260E-1,3.841469586E-1
2.602147844E1,5.408949852E-1,6.500304341E-1,5.318367481E-1
2.604147844E1,8.616690636E-1,7.742629647E-1,3.934146762E-1
2.606147844E1,8.380721807E-1,1.348266900E-1,1.963844448E-1
2.608147844E1,6.072524190E-1,-6.322629452E-1,2.064375430E-1
2.610147844E1,5.927138329E-1,-7.895171642E-1,2.598620653E-1
2.612147844E1,7.038040161E-1,-6.550744176E-1,2.790432274E-1
2.614147844E1,5.660451651E-1,-4.871563017E-1,2.682745457E-1
2.616147844E1,2.400176823E-1,-5.464800596E-1,2.329490930E-1
2.618147844E1,-1.169021502E-1,-6.025225520E-1,1.654223055E-1
2.620147844E1,-3.777067065E-1,-5.192703605E-1,7.517132908E-2
2.622147844E1,-4.924620986E-1,-3.117681742E-1,3.473205259E-3
2.624147844E1,-4.763003588E-1,-2.958507538E-1,-8.995427191E-2
2.626147844E1,-3.406009972E-1,-5.310164094E-1,-9.370672703E-2
2.628147844E1,-8.970992267E-2,-7.736695409E-1,-3.045599535E-2
2.630147844E1,8.887216449E-2,-9.227206707E-1,1.056796834E-1
2.632147844E1,3.281567991E-1,-1.200227976E0,1.635897160E-1
2.634147844E1,7.473499775E-1,-1.046970606E0,9.962339699E-2
2.636147844E1,1.201222897E0,-4.906294942E-1,1.843067631E-2
2.638147844E1,8.318588138E-1,-8.192051649E-1,4.696680978E-2
2.640147844E1,1.271995902E-1,-1.707333446E0,1.918116808E-1
2.642147844E1,-4.302934706E-1,-2.403196096E0,1.221555918E-1
2.644147844E1,-7.763050199E-1,-2.213897705E0,-2.104168981E-1
2.646147844E1,-9.073094130E-1,-1.472237587E0,-4.597720802E-1
2.648148000E1,-7.345916033E-1,1.174781099E-1,-3.237236738E-1
2.650347844E1,-3.300941288E-1,1.637921691E0,1.589471400E-1
2.652347844E1,-8.508654833E-1,1.274055481E0,2.717128694E-1
2.654347844E1,-1.243145704E0,2.383072525E-1,-1.649161577E-1
2.656347844E1,-1.292224288E0,-6.106907129E-2,-4.927239120E-1
2.658347844E1,-1.196126461E0,-5.229006335E-2,-3.396410644E-1
2.660347844E1,-1.056430340E0,1.244943365E-1,-2.963394523E-1
2.662348000E1,-7.168067098E-1,1.574461460E-1,-3.890338838E-1
2.664547844E1,-3.656639159E-1,-2.110801190E-1,-3.341956437E-1
2.666548000E1,-5.987526774E-1,-7.501075864E-1,-1.165879965E-1
2.668548000E1,-1.629090309E0,-4.046022296E-1,-8.499753661E-3
2.670548000E1,-8.017344475E-1,4.873133898E-1,2.149023861E-1
2.672548000E1,6.709045917E-2,3.286803961E-1,1.357342601E-1
2.674548000E1,9.019861370E-2,-8.239699155E-2,5.344198272E-2
2.676748000E1,-1.990024447E-1,-3.647040129E-1,-4.241150245E-2
2.678948000E1,-3.568849266E-1,-3.445803523E-1,-1.700823307E-1
2.681148000E1,-3.995058537E-1,-1.388758421E-1,-1.475501359E-1
2.683347844E1,-4.421966076E-1,-2.655867636E-1,-1.168847010E-1
2.685347844E1,-5.168443322E-1,-3.471809030E-1,-1.391376406E-1
2.687347844E1,-5.559397340E-1,-3.035651147E-1,-1.069886833E-1
2.689347844E1,-5.834112167E-1,-3.381749988E-1,-1.383522451E-1
2.691348000E1,-6.078807116E-1,-2.558652759E-1,-1.991769671E-1
2.693547844E1,-6.453180313E-1,-7.066838443E-2,-2.496518940E-1
2.695547844E1,-8.000414968E-1,-6.675884128E-2,-2.374869436E-1
2.697548156E1,-9.294052720E-1,-1.993165910E-2,-2.332807034E-1
2.699747844E1,-6.558772922E-1,5.793445706E-1,-3.022386730E-1
2.701747844E1,-4.109726846E-1,8.869414330E-1,-3.184178770E-1
2.703747844E1,-4.137477577E-1,6.355616450E-1,-2.897944748E-1
2.705747844E1,-3.739717007E-1,3.851592541E-1,-3.108256757E-1
2.707747844E1,-1.767843962E-1,2.540675700E-1,-3.655242920E-1
2.709747844E1,-7.667231560E-2,2.879793197E-2,-3.115936220E-1
2.711748000E1,1.204277156E-3,-1.652303189E-1,-1.848303676E-1
2.713948000E1,1.892285943E-1,-9.159488231E-2,1.485275198E-2
2.716147844E1,5.482428074E-1,4.735078290E-2,5.324999616E-2
2.718147844E1,9.287245870E-1,2.158274204E-1,9.813986719E-2
2.720147844E1,1.479917049E0,3.194476068E-1,1.698205322E-1
2.722147844E1,1.915900230E0,1.301666498E-1,3.918787837E-1
2.724147844E1,2.090276003E0,1.646019965E-1,4.271344244E-1
2.726147844E1,2.109143019E0,8.056963682E-1,3.798359931E-1
2.728147844E1,1.676493406E0,1.482500076E0,3.789807856E-1
2.730147844E1,9.463174939E-1,1.709043860E0,4.892157912E-1
2.732147844E1,4.295778871E-1,1.567096233E0,6.265034080E-1
2.734147844E1,3.502701223E-1,1.147972822E0,6.212848425E-1
2.736147844E1,5.832540989E-1,9.461255074E-1,5.465673208E-1
2.738147844E1,6.059783101E-1,1.255729437E0,5.388180614E-1
2.740147844E1,2.812772691E-1,1.682479978E0,5.922251344E-1
2.742147844E1,9.552186728E-2,1.393086910E0,4.815014303E-1
2.744147844E1,2.544166446E-1,2.851867974E-1,4.449542463E-1
2.746147844E1,5.399175882E-1,1.207418740E-1,4.829500616E-1
2.748147844E1,6.288945079E-1,4.413937628E-1,4.153883457E-1
2.750147844E1,6.186144948E-1,-3.232175112E-1,4.554436803E-1
2.752147844E1,7.473150492E-1,-9.576272368E-1,3.904999793E-1
2.754147844E1,9.839817286E-1,-1.063778162E0,2.620088160E-1
2.756147844E1,9.130690098E-1,-7.493571043E-1,2.159321308E-1
2.758147844E1,5.532519221E-1,-5.241572857E-1,1.820029318E-1
2.760148000E1,7.234390080E-2,-3.907617629E-1,8.129743487E-2
2.762347844E1,-3.130597174E-1,-2.958856523E-1,-6.218608096E-2
2.764347844E1,-4.625471532E-1,-2.933549285E-1,-1.883384734E-1
2.766347844E1,-4.832642078E-1,-3.568325639E-1,-2.022138536E-1
2.768347844E1,-5.145928860E-1,-4.128052592E-1,-1.694540232E-1
2.770347844E1,-3.206169903E-1,-6.287723184E-1,-1.356120855E-1
2.772347844E1,2.682571113E-2,-8.432907462E-1,1.305506285E-2
2.774348000E1,8.730136603E-2,-1.007526159E0,2.313957512E-1
2.776547844E1,2.408030778E-1,-7.684510350E-1,2.094220519E-1
2.778547844E1,7.389374971E-1,-2.815390527E-1,8.902924508E-2
2.780547844E1,6.928259134E-1,-3.742858469E-1,1.102175415E-1
2.782548000E1,1.653524935E-1,-1.400068164E0,2.532298267E-1
2.784548000E1,-2.032261342E-1,-2.319734573E0,2.221105993E-1
2.786548000E1,-4.735252857E-1,-2.231420994E0,-2.912954427E-2
2.788548000E1,-7.772125602E-1,-1.661047339E0,-3.262369335E-1
2.790747844E1,-9.062098265E-1,-4.816585183E-1,-3.052406311E-1
2.792747844E1,-5.917887688E-1,8.213519454E-1,1.747249067E-1
2.794747844E1,-6.814463735E-1,1.387676358E0,4.504869282E-1
2.796747844E1,-1.013303280E0,7.508929968E-1,9.424778074E-2
2.798748000E1,-1.184851646E0,5.996776819E-1,-2.159146816E-1
2.800948000E1,-1.109017134E0,4.293510020E-1,-2.817136049E-1
2.803147844E1,-1.034648657E0,3.274761140E-1,-3.324154019E-1
2.805147844E1,-7.845603824E-1,1.772556454E-1,-4.092273414E-1
2.807147844E1,-5.954190493E-1,-2.562143207E-1,-2.815216184E-1
2.809147844E1,-7.411540747E-1,-6.081599593E-1,-8.674286306E-2
2.811147844E1,-1.021925211E0,-4.784994721E-1,6.346017122E-2
2.813147844E1,-5.608091950E-1,-1.343205422E-1,5.307546258E-2
2.815148000E1,-2.113593742E-2,-5.002113804E-2,1.025031880E-1
2.817148000E1,-1.417730898E-1,1.109331250E-1,3.862413764E-2
2.819148156E1,-4.138873816E-1,1.802227050E-1,-3.209660575E-2
2.821348000E1,-6.695781350E-1,2.101027369E-1,-1.380031854E-1
2.823547844E1,-7.585549951E-1,3.644247353E-1,-2.054950595E-1
2.825547844E1,-6.457369328E-1,1.914277077E-1,-1.912182719E-1
2.827548000E1,-6.086486578E-1,-7.438593358E-2,-1.390154809E-1
2.829548000E1,-6.318441033E-1,-2.513972223E-1,-7.042403519E-2
2.831548000E1,-5.950350761E-1,-1.209862232E-1,-9.096655995E-2
2.833748000E1,-5.372821689E-1,-3.014183603E-2,-1.568701863E-1
2.835949250E1,-6.042504311E-1,-3.438298777E-2,-2.256361693E-1
2.838147844E1,-7.431786656E-1,-1.193805225E-2,-2.659358084E-1
2.840147844E1,-7.443829179E-1,2.154259831E-1,-2.861816287E-1
2.842147844E1,-6.023131013E-1,5.274035931E-1,-3.278600872E-1
2.844147844E1,-4.702091515E-1,6.932273507E-1,-3.477393985E-1
2.846147844E1,-5.005953312E-1,5.056917071E-1,-3.208962381E-1
2.848147844E1,-4.852713346E-1,2.692694068E-1,-2.625673413E-1
2.850147844E1,-2.872288227E-1,2.854136825E-1,-2.794272006E-1
2.852147844E1,-2.113593742E-2,5.002637506E-1,-3.030764163E-1
2.854148625E1,7.023204863E-2,2.102947235E-1,-1.925098151E-1
2.856347844E1,3.284709528E-2,-3.244916201E-1,-5.323254317E-2
2.858348156E1,3.102846444E-1,-2.345198840E-1,-1.820378378E-2
2.860548000E1,8.149116635E-1,1.196946800E-1,-4.803146049E-2
2.862747844E1,1.325647354E0,2.292315364E-1,1.837831736E-2
2.864747844E1,1.607954383E0,1.012989059E-1,2.206968814E-1
2.866747844E1,1.874623179E0,3.417005539E-1,1.821076572E-1
2.868748000E1,2.104971886E0,9.136798382E-1,1.498888731E-1
2.870947844E1,1.848565459E0,1.596051216E0,1.661553383E-1
2.872947844E1,1.099278212E0,2.145219088E0,2.497217059E-1
2.874948312E1,5.344547033E-1,1.934488058E0,4.485670626E-1
2.877147844E1,4.344473481E-1,1.522869587E0,6.260321736E-1
2.879148938E1,6.221749783E-1,1.559992790E0,6.071302295E-1
2.881348000E1,6.858794689E-1,1.481906652E0,5.120970607E-1
2.883348625E1,6.140068173E-1,1.263723135E0,5.218185186E-1
2.885548000E1,3.095341325E-1,8.101469278E-1,6.488610506E-1
2.887548000E1,1.965415329E-1,1.652477682E-1,7.351326942E-1
2.889748000E1,4.152836502E-1,2.229658067E-1,7.045894265E-1
2.891947844E1,6.964038014E-1,-4.101523757E-2,5.420992374E-1
2.893948000E1,8.490154147E-1,-7.307693362E-1,4.625296891E-1
2.895948000E1,1.067844748E0,-1.288751125E0,3.532197475E-1
2.897948000E1,1.119489074E0,-1.133294582E0,3.536211550E-1
2.900147844E1,8.557174802E-1,-8.772373796E-1,3.238458335E-1
2.902147844E1,4.221777022E-1,-6.706427336E-1,2.677684128E-1
2.904147844E1,-8.438666910E-2,-5.137900114E-1,1.334653348E-1
2.906147844E1,-4.440641105E-1,-3.672172725E-1,-8.972737938E-2
2.908147844E1,-6.011611819E-1,-2.040988058E-1,-2.049714625E-1
2.910147844E1,-5.976007581E-1,-1.813222617E-1,-2.103470862E-1
2.912147844E1,-4.937361777E-1,-2.494075447E-1,-2.100852877E-1
2.914147844E1,-1.822472811E-1,-5.123413801E-1,-2.436305135E-1
2.916147844E1,2.009572089E-1,-7.452555895E-1,-1.762607992E-1
2.918147844E1,3.993313313E-1,-9.069777727E-1,1.314232964E-2
2.920147844E1,3.989473581E-1,-8.867145181E-1,1.466600150E-1
2.922147844E1,6.542541385E-1,-2.305929065E-1,2.601064146E-1
2.924149406E1,4.458618164E-1,9.976302087E-2,2.476098537E-1
2.926347844E1,-1.282816976E-1,-7.615918517E-1,3.960501254E-1
2.928349094E1,-3.404962718E-1,-1.717857718E0,2.817136049E-1
2.930548000E1,-3.466747403E-1,-2.073800325E0,-1.529082954E-1
2.932548156E1,-3.650181592E-1,-1.591094494E0,-4.352152944E-1
2.934747844E1,-4.838401675E-1,-9.023002982E-1,-3.368834555E-1
2.936748000E1,-3.479139209E-1,-5.508782864E-1,-3.330088034E-2
2.938748000E1,-1.710248142E-1,2.184977680E-1,2.473131567E-1
2.940748000E1,-4.928286076E-1,1.005536556E0,2.062979192E-1
2.942947844E1,-9.953961968E-1,6.649704576E-1,-9.297368675E-2
2.944947844E1,-8.972388506E-1,-1.916371472E-2,-3.159569502E-1
2.946947844E1,-8.140389919E-1,-6.271491647E-1,-3.648785353E-1
2.948947844E1,-8.291710019E-1,-6.909060478E-1,-2.420422584E-1
2.950947844E1,-6.808005571E-1,-4.250923991E-1,-3.524518013E-1
2.952947844E1,-4.334525168E-1,-4.288797677E-1,-3.773401976E-1
2.954947844E1,-2.948733866E-1,-8.100422025E-1,-2.179741710E-1
2.956947844E1,-1.157205701E0,-6.957755089E-1,-1.854412258E-1
2.958947844E1,-1.332297087E0,1.399753988E-1,-3.467969224E-2
2.960947844E1,-1.652652323E-1,6.220353395E-2,2.571568191E-1
2.962948000E1,2.190911770E-1,-1.522276103E-1,1.211607531E-1
2.964948000E1,7.093018293E-2,-1.944122314E-1,5.078908056E-3
2.967148000E1,-2.067691535E-1,-6.630505621E-2,-7.009242475E-2
2.969347844E1,-4.322133362E-1,-6.281439960E-2,-1.460491568E-1
2.971348000E1,-4.843986928E-1,-1.680926532E-1,-7.077310234E-2
2.973548000E1,-5.171759725E-1,-4.164006412E-1,-2.363175713E-2
2.975748000E1,-5.375614166E-1,-3.365692794E-1,-2.494075522E-2
2.977947844E1,-5.329712033E-1,-3.537782282E-2,-1.050339118E-1
2.979948000E1,-5.326046944E-1,8.323474973E-2,-1.696110964E-1
2.982147844E1,-4.959178567E-1,1.228013635E-1,-2.374694943E-1
2.984147844E1,-5.600587130E-1,1.869247667E-2,-2.565633953E-1
2.986147844E1,-7.929205298E-1,-2.410823256E-1,-2.516066730E-1
2.988147844E1,-9.510996938E-1,-2.828480601E-1,-2.331061810E-1
2.990147844E1,-8.346513510E-1,8.562584966E-2,-2.848202884E-1
2.992147844E1,-5.170363188E-1,5.692391396E-1,-3.907792270E-1
2.994147844E1,-3.207391500E-1,6.872059107E-1,-4.305378199E-1
2.996147844E1,-2.487094104E-1,5.025849938E-1,-3.464827538E-1
2.998147844E1,-3.788586259E-1,-1.668534800E-2,-1.367116421E-1
3.000147844E1,-6.909758449E-1,-4.771730304E-1,5.782275647E-2
3.002147844E1,-5.951747298E-1,2.024581879E-1,5.195845291E-2
3.004147844E1,-3.001093566E-1,1.021279454E0,2.141519077E-2
3.006147844E1,-2.862340026E-2,1.040931821E0,7.285004109E-2
3.008147844E1,5.794144273E-1,4.216715395E-1,5.487314984E-2
3.010147844E1,1.205464005E0,1.970302165E-1,1.705884784E-1
3.012147844E1,1.618880153E0,3.907792270E-1,2.519906461E-1
3.014147844E1,1.853766561E0,7.712784410E-1,1.934871972E-1
3.016147844E1,1.968242645E0,1.455639482E0,7.836528122E-2
3.018148625E1,1.728818417E0,2.109090805E0,-7.468263805E-2
3.020348000E1,9.623047113E-1,2.428276539E0,-1.541125681E-2
3.022548000E1,2.525142431E-1,2.076854467E0,2.446777076E-1
3.024548000E1,3.511602581E-1,1.409004331E0,3.858050406E-1
3.026548000E1,7.294254303E-1,1.371008515E0,2.663896084E-1
3.028548000E1,9.252513647E-1,1.246985435E0,1.880592257E-1
3.030548000E1,6.017720699E-1,1.103065491E0,3.491007686E-1
3.032549406E1,2.684316412E-2,1.144080758E0,5.670923591E-1
3.034747844E1,-3.822445571E-1,1.123677850E0,6.823364496E-1
3.036749406E1,-2.524269819E-1,9.448863268E-1,5.566727519E-1
3.038947844E1,1.341809183E-1,3.966609836E-1,4.190186560E-1
3.040949250E1,3.058864176E-1,-8.403760195E-2,3.962770104E-1
3.043147844E1,3.689102530E-1,-4.811698198E-1,4.026300013E-1
3.045148156E1,4.538728595E-1,-6.887243986E-1,3.053278923E-1
3.047347844E1,4.612730742E-1,-7.420616150E-1,1.899092793E-1
3.049347844E1,3.689800501E-1,-8.351575136E-1,7.737044245E-2
3.051347844E1,2.198242247E-1,-9.053197503E-1,-5.073672161E-2
3.053347844E1,5.061454698E-2,-7.296000123E-1,-1.516342014E-1
3.055347844E1,-1.498888731E-1,-6.151412725E-1,-1.606226563E-1
3.057347844E1,-3.442487419E-1,-6.640453935E-1,-1.148775741E-1
3.059347844E1,-3.559249938E-1,-6.028890610E-1,-1.340063810E-1
3.061347844E1,-9.232791513E-2,-4.972966611E-1,-1.915324330E-1
3.063347844E1,3.445279896E-1,-4.351454973E-1,-1.787915230E-1
3.065347844E1,9.573131204E-1,-4.659505486E-1,-1.804845035E-1
3.067347844E1,1.148723364E0,-4.459490776E-1,1.254891753E-1
3.069347844E1,7.267900109E-1,2.845410407E-1,5.014505386E-1
3.071348000E1,1.414763927E-1,6.806958318E-1,5.482602715E-1
3.073548000E1,2.249729447E-2,-1.718276590E-1,4.802273512E-1
3.075548000E1,2.486047000E-1,-1.158462286E0,2.722713649E-1
3.077548000E1,3.182607889E-1,-1.361688375E0,1.089259982E-1
3.079747844E1,2.608219981E-1,-1.286412358E0,-2.874557301E-2
3.081747844E1,2.635796368E-1,-1.550917029E0,-1.193979755E-1
3.083748000E1,2.235243171E-1,-1.820954323E0,-1.276708394E-1
3.085948938E1,-1.928588748E-1,-2.047899485E0,-6.632251199E-3
3.088147844E1,-3.996280432E-1,-1.681223273E0,-7.751007378E-2
3.090148625E1,-1.334129721E-1,-2.469850302E0,-4.265584797E-2
3.092347844E1,-6.395584345E-1,-1.175409436E0,3.839375377E-1
3.094349094E1,-9.547474384E-1,1.300497174E0,3.756821156E-1
3.096548000E1,-9.134005904E-1,2.591517210E0,6.788458228E-1
3.098748000E1,-1.327637076E0,2.246098995E0,9.106604457E-1
3.100947844E1,-1.372422218E0,-7.502472401E-1,4.530176520E-1
3.102947844E1,-2.756223977E-1,-5.021661520E-1,2.439795732E-1
3.104947844E1,5.026548505E-1,1.775610685E0,-2.579596639E-2
3.106947844E1,5.526934266E-1,1.489551187E0,-7.087782025E-2
3.108947844E1,-6.909758598E-2,-5.727297664E-1,-7.958701253E-2
3.110947844E1,-6.302384138E-1,-1.157572150E0,-1.234296858E-1
3.112947844E1,-9.617113471E-1,-6.295751929E-1,-1.751786917E-1
3.114948000E1,-1.012186289E0,-2.257059813E-1,-1.789660603E-1
3.116948000E1,-1.143190622E0,-2.802998722E-1,-1.696983576E-1
3.119147844E1,-1.367919207E0,-6.492973566E-1,-3.220132366E-2
3.121147844E1,-1.066099405E0,-7.431786656E-1,1.135336682E-1
3.123147844E1,-5.261294842E-1,2.352180183E-1,-1.097462997E-1
3.125147844E1,-3.118903339E-1,5.881759524E-1,-1.038645431E-1
3.127147844E1,-3.813893497E-1,2.052681744E-1,-6.225589290E-2
3.129147844E1,-3.401297629E-1,4.170115292E-1,-2.847330272E-1
3.131147844E1,-3.223972321E-1,9.177290201E-1,-3.390651047E-1
3.133147844E1,-4.086688459E-1,8.856847882E-1,-2.698628008E-1
3.135149094E1,-3.417529166E-1,5.997300148E-1,-2.449395061E-1
3.137347844E1,-3.790855035E-2,4.909262061E-1,-1.147030368E-1
3.139348781E1,2.634225488E-1,4.751309752E-1,-1.120326817E-1
3.141548000E1,4.062777460E-1,1.026777178E-1,-9.747663885E-2
3.143548469E1,4.224394858E-1,1.359087825E-1,-1.069537774E-1
3.145747844E1,4.228583574E-1,5.691169500E-1,-1.723338068E-1
3.147748156E1,2.785021961E-1,1.212654710E0,-2.242399007E-1
3.149948000E1,-3.204424679E-2,5.327442884E-1,-3.910410106E-1
3.152147844E1,-1.983392090E-1,-6.249500513E-1,-5.193401575E-1
3.154147844E1,-2.120400518E-1,2.073625624E-1,-5.314178467E-1
3.156147844E1,-7.506661117E-2,8.651596904E-1,-4.472057223E-1
3.158147844E1,4.478514791E-1,4.710469246E-1,-4.513595998E-1
3.160147844E1,9.659699202E-1,7.104711533E-1,-5.049760938E-1
3.162147844E1,1.175583959E0,2.317797206E-2,-3.303733766E-1
3.164147844E1,1.287494421E0,-3.724009097E-1,-1.221730486E-1
3.166147844E1,1.174693823E0,1.790341258E0,6.755122542E-1
3.168147844E1,1.032868385E0,3.186395168E0,1.281263709E0
3.170147844E1,8.806233406E-1,2.409461975E0,1.437226295E0
3.172147844E1,6.333974600E-1,1.718206882E0,1.332332015E0
3.174148000E1,6.903126240E-1,1.224400878E0,1.190000415E0
3.176347844E1,8.826304674E-1,7.852410674E-1,1.009690404E0
3.178347844E1,8.926661015E-1,4.296477139E-1,9.819396734E-1
3.180347844E1,8.057312369E-1,2.625673413E-1,7.726572752E-1
3.182347844E1,6.133435965E-1,-2.252696455E-1,6.922150254E-1
3.184348000E1,8.455247283E-1,-5.312956572E-1,4.469962716E-1
3.186548000E1,1.117970705E0,-1.115806460E0,-3.804817796E-3
3.188548000E1,1.176578760E0,-1.613015890E0,-2.548529804E-1
3.190548000E1,8.792794347E-1,-1.721226215E0,-4.289321303E-1
3.192548000E1,1.473407000E-1,-1.365283847E0,-3.875154555E-1
3.194548000E1,-7.001562715E-1,-5.902878046E-1,-1.473755985E-1
3.196748156E1,-1.120902777E0,-4.038691893E-2,-8.630653471E-2
3.198947844E1,-1.233110070E0,-1.113694608E-1,-1.336224079E-1
3.200948625E1,-1.117883325E0,-7.678576112E-1,-7.660250366E-2
3.203148000E1,-7.333524227E-1,-1.446581244E0,2.225294709E-2
3.205347844E1,-4.376936555E-1,-1.832211733E0,3.612831607E-2
3.207347844E1,-4.577300549E-1,-2.312892914E0,-1.341634542E-1
3.209347844E1,-1.062416792E0,-2.170194626E0,-2.205747068E-1
3.211347844E1,-1.303359509E0,-1.226442814E0,-5.208062381E-2
3.213347844E1,-8.814261556E-1,-5.515415072E-1,2.384119667E-2
3.215352062E1,-5.052030087E-1,-2.491457462E-1,1.397136003E-1
3.217548000E1,-4.595626295E-1,5.384340882E-2,2.164208330E-3
3.219548938E1,-4.040262699E-1,3.385938704E-3,-3.946189582E-2
3.221747844E1,-1.786518991E-1,-8.106879592E-1,-4.921828583E-2
3.223748313E1,3.270572424E-1,-1.694662333E0,9.477137588E-3
3.225947844E1,6.218957305E-1,-1.382091284E0,-1.676039696E-1
3.227947844E1,1.728574038E-1,4.447447956E-1,-4.416730106E-1
3.229947844E1,-1.598965883E0,3.431736231E0,4.056319594E-1
3.231948469E1,-1.782766581E0,3.321344137E0,8.822464943E-1
3.234147844E1,-8.497309685E-1,9.117949009E-1,8.250520229E-1
3.236148625E1,-3.497465253E-1,-4.770159423E-1,1.950580031E-1
3.238347844E1,4.818854108E-2,-1.378024697E0,-2.989050746E-1
3.240347844E1,4.007275775E-2,-1.312086225E0,-4.125260115E-1
3.242347844E1,-2.555336654E-1,-1.083011746E0,-3.417529166E-1
3.244347844E1,-7.074866891E-1,-2.125112861E-1,-2.694788277E-1
3.246347844E1,-8.260119557E-1,6.387206912E-1,-2.467197478E-1
3.248347844E1,-8.045618534E-1,6.092595458E-1,-3.025353849E-1
3.250347844E1,-6.368008256E-1,2.512575984E-1,-3.424685001E-1
3.252347844E1,-3.654370308E-1,1.298874021E-1,-2.912431061E-1
3.254347844E1,-1.317723542E-1,6.414084882E-2,-2.896199226E-1
3.256347844E1,-1.378460974E-1,3.033382259E-2,-1.921432912E-1
3.258347844E1,-1.853365153E-1,3.471459821E-2,-6.895796210E-2
3.260347844E1,-7.689920813E-2,1.677261479E-2,-9.787806123E-2
3.262347844E1,-1.571319848E-1,5.516985804E-2,-1.283864230E-1
3.264348000E1,-2.907544076E-1,2.471211702E-1,-8.115781099E-2
3.266348000E1,-3.428001106E-1,3.760660887E-1,-4.562290758E-2
3.268348000E1,-1.933475733E-1,8.325220346E-1,-1.572541706E-2
3.270548000E1,-9.442231618E-3,1.664869547E0,3.256784379E-2
3.272747844E1,-2.367539108E-1,1.512153268E0,-1.502204835E-1
3.274747844E1,-7.991862297E-2,7.399497628E-1,-1.315454692E-1
3.276749406E1,3.793473244E-1,1.626978517E0,-4.084070399E-2
3.278948000E1,6.261019707E-1,1.214557171E0,-1.979203336E-2
3.281148625E1,8.686154485E-1,-4.854633212E-1,-3.566929400E-1
3.283347844E1,1.309398413E0,-2.100503743E-1,-6.766117811E-1
3.285349094E1,1.940823555E0,2.573488057E-1,-4.875577390E-1
3.287548000E1,1.856000543E0,6.819874048E-1,3.243694305E-1
3.289747844E1,1.171203136E0,1.803204417E0,5.312956572E-1
3.291747844E1,8.197462559E-1,2.280168056E0,5.222897530E-1
3.293747844E1,7.938979268E-1,1.871621251E0,6.842737794E-1
3.295748000E1,8.107403517E-1,1.121391535E0,6.129596233E-1
3.297748000E1,9.479057789E-1,8.474620581E-1,3.675837815E-1
3.299748000E1,6.156474352E-1,9.019687176E-1,3.515965641E-1
3.301947844E1,2.924124599E-1,9.666680694E-1,4.370304346E-1
3.303947844E1,2.064899057E-1,1.077810645E0,3.841295242E-1
3.305947844E1,7.389724255E-2,6.358932853E-1,1.458048075E-1
3.307948000E1,2.205048949E-1,2.301914692E-1,-7.077310234E-2
3.310148000E1,3.913377225E-1,-1.230806187E-1,-1.175304726E-1
3.312347844E1,2.727077007E-1,-3.047519326E-1,-2.708925605E-1
3.314347844E1,9.571385384E-2,-6.418972015E-1,-4.315152168E-1
3.316348469E1,6.911503524E-2,-9.858492017E-1,-5.920854807E-1
3.318547844E1,9.742427617E-2,-1.156455159E0,-7.167718410E-1
3.320548781E1,1.015258059E-1,-1.245222569E0,-8.256629109E-1
3.322747844E1,-1.181762442E-1,-1.310375690E0,-6.984633207E-1
3.324748000E1,-5.018869042E-1,-1.318107605E0,-4.137826562E-1
3.326748000E1,-8.715999722E-1,-1.321441174E0,-1.302190125E-1
3.328948000E1,-1.146245003E0,-1.388496637E0,1.159422249E-1
3.330948000E1,-1.242534757E0,-1.538123727E0,3.424685001E-1
3.332948000E1,-1.428866148E0,-1.510896564E0,4.548851550E-1
3.335147844E1,-1.375633597E0,-1.443666577E0,4.677133262E-1
3.337148000E1,-7.363718748E-1,-1.064406514E0,4.609588981E-1
3.339148000E1,1.472708881E-1,-2.326349318E-1,4.972268343E-1
3.341347844E1,8.286474347E-1,-4.449891448E-1,6.226462126E-1
3.343347844E1,1.114741802E0,-1.248783112E0,3.682470322E-1
3.345347844E1,1.294789910E0,-7.259696722E-1,9.803514183E-2
3.347347844E1,4.157025218E-1,5.800427198E-1,-3.131818771E-1
3.349347844E1,-1.104967967E-1,1.685761213E0,-2.260550410E-1
3.351347844E1,-7.202624679E-1,-1.612195492E0,-1.037772745E-1
3.353347844E1,-5.310862064E-1,-9.806481600E-1,5.266181827E-1
3.355347844E1,3.572340012E-1,4.805694103E0,1.119314551E0
3.357348000E1,-8.965756297E-1,3.351590633E0,2.308721542E-1
3.359547844E1,-1.305960059E0,6.923720986E-2,-7.557275705E-3
3.361548000E1,-1.082051754E0,-2.363646984E0,-2.476622164E-1
3.363548000E1,-5.274035931E-1,-2.653336763E0,-6.827029586E-1
3.365747844E1,1.792104095E-1,-1.220840335E0,-5.861688256E-1
3.367747844E1,-1.370607018E-1,-3.253119290E-1,-2.487094104E-1
3.369747844E1,-8.569391966E-1,-5.085191131E-1,-7.089527696E-2
3.371748625E1,-1.019673705E0,-6.963514686E-1,-7.860963047E-2
3.373947844E1,-7.643669248E-1,-4.772777259E-1,-1.252797395E-1
3.375947844E1,-4.666312337E-1,-3.744778335E-1,-2.962521911E-1
3.377947844E1,-3.444058299E-1,-8.496960998E-1,-4.368908107E-1
3.379947844E1,-5.068784952E-1,-9.276075959E-1,-4.578871131E-1
3.381947844E1,-8.406029344E-1,5.511749908E-2,-3.817907870E-1
3.383947844E1,-9.058957100E-1,5.715604424E-1,-3.276506662E-1
3.385948000E1,-6.908187866E-1,3.994185925E-1,-4.177096486E-1
3.388147844E1,-3.735877275E-1,8.304276317E-2,-3.692592978E-1
3.390148000E1,-1.029744279E-2,3.194476068E-1,-1.075471863E-1
3.392347844E1,8.694183230E-1,1.071649551E0,-2.667910159E-1
3.394347844E1,1.621637821E0,7.089003921E-1,-4.006228745E-1
3.396347844E1,1.846959710E0,-2.874208093E-1,-6.547079086E-1
3.398347844E1,1.983985543E0,-1.502466679E0,-7.815584540E-1
3.400347844E1,2.207684517E0,-2.047794759E-1,-4.807683825E-1
3.402347844E1,2.169706106E0,1.936582446E0,4.628438652E-1
3.404347844E1,1.431990266E0,1.455901265E0,6.711838245E-1
3.406348000E1,9.039409161E-1,1.894275665E0,6.141290069E-1
3.408548000E1,1.303289652E0,2.230321407E0,1.193927407E0
3.410548000E1,1.760356545E0,1.318770766E0,1.241452694E0
3.412548000E1,1.481016636E0,4.811349213E-1,9.474170804E-1
3.414548000E1,1.387955666E0,1.208640486E-1,7.458490133E-1
3.416548000E1,1.053777456E0,5.462356806E-1,7.126528621E-1
3.418748000E1,1.760164499E-1,1.320673227E0,8.380373120E-1
3.420947844E1,-7.860962749E-1,1.487195015E0,9.999864101E-1
3.422947844E1,-4.209210575E-1,3.713362515E-1,6.399773359E-1
3.424947844E1,5.844584107E-1,-9.122312665E-1,-3.944444004E-3
3.426947844E1,9.683959484E-1,-1.176805735E0,-3.452784717E-1
3.428948000E1,5.970247984E-1,-1.360780835E0,-3.839724362E-1
3.431147844E1,-2.395115346E-1,-1.373347282E0,-4.764399827E-1
3.433147844E1,-9.895842075E-1,-1.246130228E0,-5.033180714E-1
3.435147844E1,-1.259394646E0,-1.827062964E0,-4.638910592E-1
3.437149094E1,-1.232254863E0,-2.451925755E0,-4.366290271E-1
3.439347844E1,-1.145773768E0,-2.665466785E0,-3.221179545E-1
3.441349250E1,-1.111233711E0,-2.515700102E0,-1.054702476E-1
3.443548000E1,-7.167718410E-1,-1.647416234E0,1.646369100E-1
3.445548000E1,-8.344419003E-1,6.819001585E-2,2.727077007E-1
3.447748000E1,-1.357412338E0,6.065542698E-1,4.639434218E-1
3.449947844E1,-1.952674389E-1,1.369385272E-1,4.704186022E-1
3.451947844E1,9.328959584E-1,5.178391933E-2,2.273640335E-1
3.453947844E1,1.352944374E0,-8.081747293E-1,2.210284919E-1
3.455947844E1,9.040805511E-3,-3.122568607E0,1.161691174E-1
3.457947844E1,-1.783150554E0,-1.281071603E-1,2.191086262E-1
3.459947844E1,-1.184136033E0,1.562261701E0,4.390201271E-1
3.461947844E1,4.192280769E-2,1.643611431E0,8.453502059E-1
3.463948156E1,3.107907772E-1,2.899358511E0,8.824908137E-1
3.466147844E1,-1.518925190E0,1.131688952E0,2.960078418E-1
3.468147844E1,-8.615119457E-1,-1.858950108E-1,1.805368513E-1
3.470147844E1,-2.178519964E-1,-8.825257421E-1,-1.196248680E-1
3.472148625E1,-6.045646071E-1,-9.003280997E-1,-2.520080805E-1
3.474347844E1,-1.150014877E0,-3.129026294E-1,-1.958433986E-1
3.476348625E1,-1.242133379E0,2.130697966E-1,-2.796890140E-1
3.478548000E1,-1.320428848E0,-6.940476298E-1,-3.518932760E-1
3.480548000E1,-1.238747478E0,-9.508030415E-1,-3.799581826E-1
3.482548000E1,-7.425328493E-1,5.253440887E-2,-5.140169263E-1
3.484548000E1,-4.119849801E-1,1.079433799E0,-6.189286709E-1
3.486548000E1,-3.741113245E-1,1.244175434E0,-5.475447178E-1
3.488548000E1,-4.954466224E-1,7.280117273E-1,-4.000818133E-1
3.490748000E1,-5.233195424E-1,6.949900836E-2,-2.551147640E-1
3.492947844E1,-5.604077578E-1,-2.555860281E-1,-1.587900519E-1
3.494947844E1,-4.124387503E-1,3.242821619E-2,-1.056796834E-1
3.496947844E1,3.275983036E-2,1.000876546E0,-2.630560100E-1
3.498947844E1,7.946484089E-1,1.213684559E0,-3.804992437E-1
3.500948000E1,1.589907646E0,-5.684537441E-2,-2.848202884E-1
3.503148000E1,2.064497709E0,-1.339173675E0,-4.066791534E-1
3.505347844E1,1.863069177E0,-8.498356938E-1,-4.884303808E-1
3.507347844E1,1.244245172E0,-9.956579804E-1,-3.475474119E-1
3.509347844E1,9.416749477E-1,-3.247185051E-1,-5.909335613E-1
3.511347844E1,1.321982145E0,1.802680731E0,-5.341579914E-1
3.513348000E1,1.892931700E0,1.356888771E0,2.844886668E-2
3.515348000E1,1.862807393E0,1.490842819E0,2.491632104E-1
3.517348000E1,1.595998883E0,2.189410925E0,1.331860721E-1
3.519548938E1,1.477264166E0,2.062019348E0,2.400525808E-1
3.521747844E1,9.051102996E-1,2.133699894E0,3.545287251E-1
3.523747844E1,9.153902531E-1,9.084962606E-1,5.328140855E-1
3.525748000E1,9.036442041E-1,-3.236713111E-1,3.685786426E-1
3.527947844E1,6.152285337E-1,-3.284709752E-1,3.817558587E-1
3.529948000E1,-8.787732571E-2,-1.043183282E-1,6.019815207E-1
3.532148000E1,-5.091823339E-1,-3.532720804E-1,4.580790997E-1
3.534148000E1,-6.500827670E-1,-6.072349548E-1,3.567453027E-1
3.536148000E1,-7.820820212E-1,-8.420166373E-1,4.012686610E-1
3.538148000E1,-1.108336449E0,-7.559719086E-1,4.101698399E-1
3.540148000E1,-1.464802504E0,-5.805139542E-1,3.193254471E-1
3.542148000E1,-1.695395350E0,-6.407278180E-1,2.210459560E-1
3.544148000E1,-1.729080200E0,-7.870387435E-1,1.251575649E-1
3.546148000E1,-1.516952872E0,-1.347149849E0,3.569198400E-2
3.548347844E1,-6.856700182E-1,-1.912357211E0,-2.290919125E-1
3.550347844E1,1.587726027E-1,-1.837447762E0,-5.899910927E-1
3.552348469E1,7.215889096E-1,-2.402340889E0,-8.736594319E-1
3.554548000E1,-1.948660165E-1,-1.319556117E0,-2.923077345E-1
3.556548000E1,-8.927882910E-1,1.425672174E0,4.839972556E-1
3.558548312E1,-7.865849733E-1,3.940482140E0,7.524463534E-1
3.560748000E1,-4.929158986E-1,2.489502668E0,6.339908242E-1
3.562748000E1,-3.344399929E-1,-1.918989569E-1,4.774173498E-1
3.564748000E1,-3.770609200E-1,-2.182569027E0,4.544837400E-2
3.566947844E1,-2.643650174E-1,-2.436200380E0,-3.980397880E-1
3.568948000E1,-8.002334833E-2,-1.463231683E0,-9.002059102E-1
3.570948000E1,-3.796090931E-2,-4.665788710E-1,-7.725874186E-1
3.572948000E1,1.272345055E-2,2.600540593E-2,-1.255066246E-1
3.574948000E1,-8.851611614E-1,2.239606529E-1,3.053627908E-1
3.576948000E1,-1.965223312E0,2.246762365E-1,5.325348377E-1
3.578948000E1,-1.790969610E0,6.147747636E-1,8.364490271E-1
3.580948000E1,-1.277354121E0,1.127465248E0,8.788954616E-1
3.582948000E1,-7.138047814E-1,4.206418097E-1,4.243942499E-1
3.584948000E1,-6.158044934E-1,-3.170041442E-1,-7.312929723E-3
3.586948000E1,-9.339256883E-1,1.488940418E-1,-2.993239760E-1
3.588948156E1,-1.234628439E0,1.372736335E0,-3.749490678E-1
3.591148000E1,-1.114968657E0,8.236208558E-1,-5.685759187E-1
3.593149094E1,-8.996124864E-1,-6.120171547E-1,-6.880611777E-1
3.595348000E1,-8.274605870E-1,-8.270766139E-1,-5.411219001E-1
3.597548000E1,-7.913323045E-1,-2.109928578E-1,-5.343674421E-1
3.599548000E1,-7.733902931E-1,-1.477421224E-1,-5.829225183E-1
3.601548156E1,-7.951196432E-1,-6.024876609E-2,-5.930454135E-1
3.603548156E1,-8.657531142E-1,3.507413566E-1,-7.693237066E-1
3.605748000E1,-8.893325329E-1,4.950800836E-1,-8.861210942E-1
3.607748000E1,-5.274385214E-1,1.015781641E0,-8.493644595E-1
3.609748000E1,1.284387857E-1,9.897238612E-1,-6.397329569E-1
3.611748000E1,3.495021760E-1,2.007303238E-1,-4.309217930E-1
3.613748000E1,2.378534675E-1,-3.319965303E-1,-2.881363928E-1
3.615947844E1,5.586798787E-1,-2.930233181E-1,1.252273768E-1
3.617948000E1,1.726619363E0,-4.440117627E-2,5.924171209E-1
3.620147844E1,2.668224335E0,-2.917492390E-1,9.832835793E-1
3.622147844E1,2.385987282E0,8.394160867E-1,9.205738902E-1
3.624147844E1,1.900436640E0,1.684295058E0,8.520174026E-1
3.626147844E1,1.711801529E0,1.431135058E0,1.082453251E0
3.628147844E1,1.357656717E0,1.452218652E0,1.100552320E0
3.630147844E1,1.288803458E0,1.032746196E0,6.489308476E-1
3.632148000E1,1.329748869E0,1.036010027E0,5.049412251E-1
3.634347844E1,1.046970606E0,2.510446787E0,5.698500276E-1
3.636347844E1,3.283313513E-1,3.150755644E0,6.237806678E-1
3.638347844E1,-3.310016990E-1,2.292263031E0,6.446024776E-1
3.640347844E1,1.738522500E-1,1.075820923E-1,5.683664680E-1
3.642347844E1,1.303481698E0,-7.014303803E-1,4.392644763E-1
3.644347844E1,2.262732029E0,-3.577925032E-3,2.349387705E-1
3.646347844E1,2.311967850E0,-2.982593179E-1,-7.885397226E-2
3.648347844E1,1.719969630E0,-1.217419505E0,1.070410460E-1
3.650347844E1,1.140136361E0,-1.436929584E0,2.595828176E-1
3.652347844E1,5.099154115E-1,-1.387431979E0,2.165953666E-1
3.654347844E1,2.384119667E-2,-1.311946511E0,8.159413934E-2
3.656347844E1,-2.619215548E-1,-1.143365145E0,5.270894244E-2
3.658347844E1,-3.888244629E-1,-1.136523485E0,1.864360720E-1
3.660347844E1,-3.219957948E-1,-1.467088819E0,2.282716185E-1
3.662347844E1,3.270747140E-2,-9.138544202E-1,2.852915227E-1
3.664347844E1,7.120943163E-3,-1.394099236E0,5.767614841E-1
3.666347844E1,-6.740636230E-1,-1.885339499E0,3.731862903E-1
3.668347844E1,-3.133738637E-1,-7.944913507E-1,3.518758416E-1
3.670347844E1,2.843490541E-1,-4.202403724E-1,4.159643054E-1
3.672347844E1,8.538150787E-2,-1.361880422E0,2.360906899E-1
3.674347844E1,-4.339761138E-1,-1.904049516E0,-1.317199916E-1
3.676347844E1,-9.611179233E-1,-1.076798320E0,-5.599539876E-1
3.678347844E1,-8.361174464E-1,2.769837528E-2,-9.914866090E-1
3.680347844E1,7.892379165E-2,7.429517508E-1,-3.681772053E-1
3.682347844E1,-1.273025751E0,1.279413581E0,7.972663641E-2
3.684348000E1,-2.103907108E0,5.017297864E-1,-6.538701653E-1
3.686348000E1,-2.258578300E0,-3.300941288E-1,-5.063723922E-1
3.688548000E1,-1.914015293E0,-5.687679052E-1,4.614650458E-2
3.690548000E1,-9.560738802E-1,-2.027897984E-1,-1.252448261E-1
3.692747844E1,1.797689050E-1,1.223999411E-1,-4.351280332E-1
3.694747844E1,4.080230594E-1,1.416509151E-1,-2.500882149E-1
3.696747844E1,-1.203247428E0,-3.981096148E-1,-1.341111064E-1
3.698748000E1,-2.030097246E0,1.445219874E0,7.180284709E-2
3.700948000E1,-6.315997243E-1,8.586670756E-1,3.766595125E-1
3.703147844E1,1.289274693E-1,-1.409004331E-1,5.893976986E-2
3.705147844E1,-6.703809649E-2,-4.451811314E-1,-2.084621191E-1
3.707147844E1,-8.477064371E-1,-9.105557203E-1,-3.747396469E-1
3.709147844E1,-1.079363942E0,-1.211834431E0,-1.687035263E-1
3.711147844E1,-7.869514823E-1,-6.357187033E-1,-1.644274741E-1
3.713147844E1,-5.849471092E-1,-1.873436421E-1,-3.033905923E-1
3.715148000E1,-8.553684354E-1,-1.238834709E-1,-3.332706094E-1
3.717148000E1,-1.331040502E0,-5.040510893E-1,-3.031462431E-1
3.719347844E1,-1.191833019E0,-1.281595230E-1,-4.068711400E-1
3.721348000E1,-4.661425352E-1,9.943838716E-1,-4.780631363E-1
3.723548000E1,-1.214923710E-1,1.159666538E0,-5.216789246E-1
3.725747844E1,-4.194026068E-2,5.943893194E-1,-4.879067838E-1
3.727747844E1,3.846880198E-1,-2.485348843E-2,-2.251998335E-1
3.729747844E1,4.230852723E-1,-6.916739941E-1,1.155407950E-1
3.731747844E1,7.245734334E-1,-6.072698832E-1,3.298148811E-1
3.733748156E1,1.739377618E0,2.262470275E-1,2.721142769E-1
3.735748469E1,2.580731153E0,4.489161372E-1,6.208660007E-1
3.737948312E1,2.558739901E0,6.274458766E-2,9.157044291E-1
3.739949094E1,2.439952850E0,4.056843221E-1,6.389999390E-1
3.742147844E1,2.142775536E0,1.148112535E0,3.745650947E-1
3.744148000E1,1.451921940E0,1.948974252E0,2.429672778E-1
3.746148469E1,8.048760295E-1,2.257600784E0,2.577851415E-1
3.748347844E1,4.417777359E-1,2.169374466E0,4.286004901E-1
3.750347844E1,5.218011141E-1,2.197840691E0,6.380050778E-1
3.752347844E1,5.816484094E-1,1.784668922E0,6.285279393E-1
3.754347844E1,8.173726201E-1,5.856103301E-1,3.274412155E-1
3.756347844E1,1.302190185E0,-6.287025213E-1,1.794023961E-1
3.758347844E1,1.574321866E0,4.057890475E-1,3.562391400E-1
3.760347844E1,1.060758710E0,8.116653562E-1,6.063273549E-1
3.762347844E1,5.238431096E-1,-6.843435764E-2,4.623551667E-1
3.764347844E1,2.579247653E-1,-5.266705751E-1,3.960326612E-1
3.766347844E1,2.723237276E-1,-7.414507866E-1,5.082049966E-1
3.768347844E1,3.117856085E-1,-8.514588475E-1,4.351105690E-1
3.770348000E1,1.156978756E-1,-9.102590084E-1,2.542421222E-1
3.772548000E1,-3.923500180E-1,-9.531941414E-1,7.764969766E-2
3.774747844E1,-9.505063295E-1,-7.343472838E-1,-1.424188614E-1
3.776748000E1,-1.192007542E0,-9.624792933E-1,-2.658136487E-1
3.778948156E1,-8.112465143E-1,-1.185933828E0,-2.022662014E-1
3.781147844E1,-4.617443085E-1,-8.661545515E-1,5.345943570E-2
3.783147844E1,-4.900884628E-1,-7.588342428E-1,2.293188125E-1
3.785148000E1,-1.762084365E-1,-7.608065009E-1,3.231302500E-1
3.787148000E1,9.033824205E-1,-4.849571884E-1,1.578126699E-1
3.789347844E1,9.605244994E-1,-5.943544507E-1,3.037222028E-1
3.791347844E1,1.409178823E-1,-1.147466660E0,2.289173901E-1
3.793347844E1,-7.019365430E-1,-1.179650545E0,-3.344399929E-1
3.795347844E1,-1.120361805E0,-3.164281845E-1,-3.916867971E-1
3.797347844E1,-1.128093600E0,-1.240737081E0,2.645395398E-1
3.799347844E1,-1.308543205E0,1.060113013E-1,3.937288225E-1
3.801347844E1,-1.515451908E0,1.248992562E0,5.235987919E-5
3.803347844E1,-1.684103131E0,1.628322363E0,-4.975410104E-1
3.805347844E1,-1.512607098E0,1.378373742E0,-6.080552340E-1
3.807347844E1,-1.112455368E0,6.427698731E-1,-4.333827198E-1
3.809347844E1,-7.475768924E-1,-1.312487572E-1,-2.232276052E-1
3.811347844E1,-6.693162918E-1,-8.054694533E-1,-2.170491517E-1
3.813349250E1,-1.270268083E0,-1.215133071E0,-1.346172392E-1
3.815548000E1,-1.186858773E0,6.533290744E-1,1.101826355E-1
3.817550500E1,-4.621108174E-1,9.530544877E-1,2.883283980E-2
3.819748000E1,-2.119527906E-1,6.612354517E-1,-1.557182819E-1
3.821948000E1,-5.799729228E-1,1.374446750E-1,-7.848745584E-2
3.824147844E1,-8.790874481E-1,1.240580007E-1,-5.831145123E-2
3.826147844E1,-8.609185815E-1,3.051359057E-1,-1.166229025E-1
3.828147844E1,-7.655363083E-1,3.627143204E-1,-1.236914843E-1
3.830147844E1,-6.418622732E-1,5.126031861E-2,-1.338492930E-1
3.832147844E1,-6.038839221E-1,-2.408379763E-1,-1.617745608E-1
3.834148156E1,-6.207263470E-1,-3.077189922E-1,-1.805543154E-1
3.836347844E1,-6.952170134E-1,-2.737723589E-1,-2.050936371E-1
3.838348313E1,-8.080176115E-1,-4.493001103E-1,-2.814168930E-1
3.840547844E1,-8.089077473E-1,-3.318569064E-1,-3.342654705E-1
3.842549250E1,-6.424207687E-1,3.112969100E-1,-3.738669753E-1
3.844747844E1,-3.884230256E-1,8.217184544E-1,-3.383320868E-1
3.846747844E1,-3.218910694E-1,5.079780817E-1,-1.939235330E-1
3.848748000E1,-3.149970174E-1,2.232450694E-1,-1.229584441E-1
3.850947844E1,-1.727875881E-2,3.865380585E-1,-2.375742197E-1
3.852947844E1,1.936093718E-1,1.802401543E-1,-2.318146378E-1
3.854947844E1,1.995434910E-1,-5.470385551E-1,-5.424483120E-2
3.856947844E1,6.398551464E-1,-3.486469686E-1,3.487167880E-2
3.858948000E1,1.189721107E0,1.535889804E-1,-3.502875939E-2
3.861147844E1,1.737876654E0,4.756022096E-1,-6.176720187E-2
3.863147844E1,2.466970444E0,3.329564631E-1,1.617047489E-1
3.865147844E1,2.886163712E0,3.765547872E-1,3.234269619E-1
3.867147844E1,2.657665253E0,7.207686305E-1,4.072725773E-1
3.869147844E1,2.059052229E0,7.724827528E-1,3.292563558E-1
3.871147844E1,1.179859996E0,1.346957803E0,2.336472273E-1
3.873147844E1,4.603305757E-1,2.129685640E0,4.459665418E-1
3.875148000E1,3.223274052E-1,2.551758528E0,8.051552773E-1
3.877347844E1,2.961474657E-1,2.640683174E0,8.657356501E-1
3.879348000E1,2.983814776E-1,2.319263220E0,7.291985750E-1
3.881547844E1,6.969972253E-1,7.542265654E-1,3.562915027E-1
3.883548000E1,9.618160129E-1,-1.037074625E-1,2.046747655E-1
3.885548000E1,1.285400033E0,3.704461455E-1,3.584033549E-1
3.887548000E1,1.253303528E0,2.679080367E-1,2.558478117E-1
3.889747844E1,8.743227124E-1,-4.898615479E-1,1.379682720E-1
3.891747844E1,7.155326605E-1,-6.958976984E-1,9.759881347E-2
3.893747844E1,6.838548779E-1,-6.289293766E-1,1.419301778E-1
3.895747844E1,4.281467199E-1,-4.592659473E-1,1.039343551E-1
3.897748000E1,-6.072000414E-2,-6.019989848E-1,-6.517059356E-2
3.899947844E1,-6.227684021E-1,-8.017344475E-1,-2.668433785E-1
3.901947844E1,-9.637358785E-1,-6.336068511E-1,-3.698352575E-1
3.903947844E1,-1.077618599E0,-8.562934399E-1,-3.841993213E-1
3.905947844E1,-8.438667059E-1,-1.299345255E0,-2.790432274E-1
3.907947844E1,-4.736823440E-1,-1.241243243E0,-1.608844548E-1
3.909947844E1,-4.246909618E-1,-6.546206474E-1,1.661029905E-1
3.911947844E1,-2.843490541E-1,-7.284480929E-1,3.715107739E-1
3.913947844E1,6.268349886E-1,-4.541346729E-1,2.714335918E-1
3.915948000E1,1.009393692E0,-2.768615782E-1,1.867502332E-1
3.918148000E1,3.689975142E-1,-7.541218400E-1,4.922526479E-1
3.920348000E1,-5.398652554E-1,-1.367081523E0,2.249380350E-1
3.922548469E1,-1.217279911E0,-1.244349957E0,-3.711966276E-1
3.924748000E1,-1.211101413E0,-7.477688789E-1,-1.982170492E-1
3.926947844E1,-4.950451851E-1,1.689478755E-1,3.497290611E-1
3.928948000E1,-8.203745484E-1,1.125475526E0,1.251226515E-1
3.931147844E1,-1.271489859E0,1.161551476E0,-5.703561306E-1
3.933147844E1,-1.498679280E0,8.173027635E-1,-5.918411613E-1
3.935147844E1,-1.457140446E0,-4.614650458E-2,-2.943148613E-1
3.937147844E1,-1.108196855E0,-7.066663504E-1,-3.191159964E-1
3.939148000E1,-5.312607884E-1,-8.106356263E-1,-3.231302500E-1
3.941347844E1,-1.903630644E-1,-6.986378431E-1,-1.698554456E-1
3.943347844E1,-1.760565996E0,-6.913598180E-1,-3.496592641E-1
3.945347844E1,-1.191798091E0,1.615197539E0,2.084446698E-1
3.947347844E1,-2.280970812E-1,1.367657423E0,3.631157577E-1
3.949347844E1,-3.083996847E-2,4.291764498E-1,6.457717973E-4
3.951347844E1,-3.024480939E-1,-6.267302632E-1,-1.810255498E-1
3.953347844E1,-7.247130871E-1,-1.037353873E0,-2.687807083E-1
3.955347844E1,-7.733728290E-1,-8.938354850E-1,-1.946740299E-1
3.957347844E1,-5.019915700E-1,-4.997052252E-1,-1.852667034E-1
3.959347844E1,-3.628015816E-1,-2.835985422E-1,-2.119527906E-1
3.961347844E1,-4.716228545E-1,-2.546435297E-1,-2.516939342E-1
3.963347844E1,-7.484844327E-1,-3.467096686E-1,-2.667910159E-1
3.965347844E1,-9.856223464E-1,-5.744925737E-1,-2.907544076E-1
3.967347844E1,-9.242390990E-1,-3.462209702E-1,-3.163583875E-1
3.969347844E1,-5.531297326E-1,4.830024242E-1,-3.141941726E-1
3.971348000E1,-3.189938366E-1,8.196415305E-1,-2.848900855E-1
3.973548000E1,-4.084070325E-1,3.586826026E-1,-3.808308542E-1
3.975747844E1,-1.969604045E-1,1.478293836E-1,-4.188441038E-1
3.977748000E1,1.518261880E-1,-3.577924892E-2,-3.186272979E-1
3.979947844E1,1.738696992E-1,-5.268276334E-1,-5.688028038E-2
3.981947844E1,3.546159863E-1,-2.224771231E-1,-4.206243437E-3
3.983948000E1,7.788182497E-1,4.698600769E-1,-8.536405116E-2
3.986147844E1,1.298996210E0,7.652221322E-1,2.211332135E-2
3.988147844E1,2.004126549E0,8.977100849E-1,1.929461509E-1
3.990147844E1,2.633073568E0,5.115385652E-1,4.474675059E-1
3.992147844E1,2.799839735E0,4.358959794E-1,6.732607484E-1
3.994147844E1,2.456655741E0,4.458443522E-1,7.434579134E-1
3.996147844E1,1.812088132E0,5.369854569E-1,4.471882582E-1
3.998148000E1,8.839394450E-1,1.236810088E0,2.607696354E-1
4.000148000E1,5.452582836E-1,1.741646647E0,4.765970707E-1
4.002347844E1,7.120419741E-1,2.049627304E0,8.010886908E-1
4.004347844E1,6.795090437E-1,2.218767166E0,7.161609530E-1
4.006347844E1,7.261791229E-1,1.466670036E0,4.579744041E-1
4.008347844E1,7.973885536E-1,2.112546563E-1,3.312634826E-1
4.010347844E1,7.916289568E-1,3.713013530E-1,4.373795092E-1
4.012347844E1,9.312029481E-1,6.039537191E-1,3.806214035E-1
4.014347844E1,7.103490233E-1,2.004859746E-1,3.604628444E-1
4.016347844E1,5.512797236E-1,-3.810577393E-1,3.177371919E-1
4.018347844E1,5.753652453E-1,-9.076584578E-1,2.095093280E-1
4.020348000E1,4.939107299E-1,-9.305048585E-1,2.335774153E-1
4.022548000E1,1.703092307E-1,-8.429067731E-1,1.712866127E-1
4.024548000E1,-2.220756859E-1,-8.979893327E-1,-3.513347730E-2
4.026748000E1,-5.817531347E-1,-7.835131884E-1,-1.716007739E-1
4.028948000E1,-8.045095205E-1,-5.667956471E-1,-1.682846397E-1
4.031147844E1,-8.767486811E-1,-7.220078111E-1,-1.566956639E-1
4.033148000E1,-6.478836536E-1,-8.853531480E-1,-1.737475246E-1
4.035347844E1,-3.333927989E-1,-7.733902931E-1,4.122467712E-2
4.037347844E1,-2.356543541E-1,-7.269645333E-1,2.431418151E-1
4.039347844E1,5.576676130E-1,-1.784599125E-1,1.863138974E-1
4.041347844E1,1.317671180E0,-7.998844236E-2,1.543569118E-1
4.043347844E1,8.921424747E-1,-9.991312027E-1,3.958755732E-1
4.045347844E1,-1.455430090E-1,-2.020672321E0,3.398156166E-1
4.047347844E1,-8.870461583E-1,-2.038195610E0,-1.617920212E-2
4.049347844E1,-1.278226733E0,-9.341700077E-1,-8.915141970E-2
4.051348000E1,-1.178533554E0,-4.834561944E-1,-3.335324302E-2
4.053348000E1,-4.498062432E-1,-7.493047714E-1,1.989675313E-1
4.055348000E1,-4.661948979E-1,1.379822373E0,3.931877613E-1
4.057548000E1,-1.136907458E0,1.061788559E0,2.524269819E-1
4.059548000E1,-9.885021448E-1,2.419026382E-2,-3.457148075E-1
4.061548000E1,-8.361349106E-1,-8.514065146E-1,-5.279272199E-1
4.063748000E1,-8.475318551E-1,-6.336592436E-1,-2.859372795E-1
4.065748000E1,-5.025849938E-1,-2.412045002E-2,-3.015056252E-1
4.067948000E1,-1.194503307E-1,1.414240301E-1,-2.605252862E-1
4.070147844E1,-8.074765801E-1,-1.591042161E0,-1.494700015E-1
4.072147844E1,-1.645356774E0,-1.107481241E0,3.710569814E-2
4.074147844E1,-4.505218267E-1,1.382161140E0,5.298121572E-1
