"Time (s)","Gyroscope x (rad/s)","Gyroscope y (rad/s)","Gyroscope z (rad/s)"
7.045744800E-2,-1.232918859E0,-2.507604361E0,-9.281060696E-1
9.174479100E-2,-1.675172210E0,-1.703729391E0,-1.052718878E0
1.130321350E-1,-1.537731647E0,-2.112997055E0,-1.346536398E0
1.343194790E-1,-1.315994024E0,-2.031754255E0,-1.388074040E0
1.556068230E-1,-1.304998755E0,-2.056188345E0,-8.334247470E-1
1.768941140E-1,-1.534066558E0,-2.908931017E0,-1.620272398E-1
1.981814580E-1,-1.900574923E0,-2.800811052E0,3.461976945E-1
2.194688020E-1,-2.621985435E0,-1.771533370E0,8.556442857E-1
2.407561450E-1,-3.722808599E0,-1.942494214E-1,1.543458343E0
2.620434890E-1,-4.328158379E0,2.437280566E-1,2.021217108E0
2.833308330E-1,-3.683103561E0,-3.646758199E-1,2.275329590E0
3.046181770E-1,-1.448547959E0,-1.075167537E0,2.018773794E0
3.259055200E-1,7.982246280E-1,1.541167617E0,1.108535051E0
3.471928640E-1,2.354739904E0,3.083022356E0,5.154023767E-1
3.684802080E-1,3.123796463E0,6.175665855E-1,9.600991607E-1
3.897675520E-1,3.274065018E0,-2.221117020E0,5.874823332E-1
4.110548950E-1,3.829325199E0,-2.930310726E0,-5.039489828E-3
4.323422390E-1,3.261237144E0,-9.174925685E-1,-8.529718518E-1
4.536295830E-1,1.497644782E0,-1.142971635E0,-5.468609929E-1
4.749169790E-1,3.614688516E-1,2.748812735E-2,3.889569938E-1
4.962043230E-1,-1.527118147E-4,2.082989216E-1,9.356653094E-1
5.174916660E-1,-1.449235082E-1,-2.938175201E-1,3.284831047E-1
5.387790100E-1,-1.985253533E-3,-7.330167294E-1,7.408050299E-1
5.600663540E-1,1.026681542E0,-2.352449179E0,1.904316396E-1
5.813536980E-1,2.415824652E0,-3.391500235E0,-4.692834020E-1
6.026410930E-1,2.715750456E0,-3.674398899E0,-5.444176197E-1
6.239284370E-1,2.339468718E0,-3.338356733E0,-5.303681493E-1
6.452157810E-1,1.898971438E0,-2.497830868E0,-8.627454042E-1
6.665031250E-1,1.097539783E0,-1.940738082E0,-9.635351896E-1
6.877905200E-1,9.778137207E-1,-3.076303244E0,-9.543724656E-1
7.090778640E-1,1.291178346E0,-4.053124428E0,-2.270137548E0
7.303652080E-1,1.056613088E0,-3.517945766E0,-2.716666937E0
7.516526040E-1,6.009209752E-1,-3.628509045E0,-2.617709637E0
7.729399480E-1,7.340856791E-1,-4.797136307E0,-2.851664066E0
7.942273430E-1,1.622257590E0,-5.579020500E0,-3.907895327E0
8.155146870E-1,2.536161423E0,-6.282105923E0,-4.952444077E0
8.368020310E-1,3.107303619E0,-7.380485535E0,-4.733760834E0
8.580894270E-1,3.993032217E0,-9.335884094E0,-3.922555685E0
8.793767700E-1,3.712653399E0,-7.809300423E0,-4.216372967E0
9.006641660E-1,2.005335093E0,-4.886320114E0,-4.372139454E0
9.219515620E-1,1.683953166E0,-4.804466248E0,-2.572506905E0
9.432389060E-1,1.167787194E0,-3.095850229E0,-7.001836896E-1
9.645263020E-1,-3.013004065E-1,-1.950511694E0,-2.641914412E-2
9.858136450E-1,-6.213843822E-1,-1.781306982E0,-6.490252167E-2
1.007101041E0,3.394783735E-1,-8.997780085E-1,-9.361234307E-2
1.028388385E0,8.812998533E-1,-6.157340407E-1,3.022166789E-1
1.049675781E0,5.960342288E-1,-7.941014133E-3,8.025006056E-1
1.070963177E0,5.428904891E-1,-2.260134928E-2,5.971032009E-2
1.092250520E0,6.852179170E-1,-8.368607163E-1,-2.196224928E0
1.113537916E0,1.344322085E0,-1.737325907E0,-2.091770172E0
1.134825312E0,1.816506982E0,-7.751652002E-1,-4.405735731E-1
1.156112708E0,2.145830154E0,3.390202224E-1,8.849649429E-1
1.177400104E0,1.020573020E0,1.131899953E0,7.035433054E-1
1.198687448E0,3.461976945E-1,4.886777997E-1,-3.446705639E-1
1.219974843E0,3.840702176E-1,6.597150564E-1,-7.223268598E-2
1.241262239E0,8.470924497E-1,4.379774928E-1,4.976878166E-1
1.262549635E0,1.005912781E0,5.332696438E-1,5.410579443E-1
1.283837031E0,1.147018433E0,3.500154912E-1,-9.666658193E-2
1.305124427E0,1.373642802E0,2.382304333E-2,-2.744231224E-1
1.326411823E0,1.738318563E0,-4.251496792E-1,5.569399595E-1
1.347699218E0,1.391968250E0,-2.870981991E-1,5.019637346E-1
1.368986666E0,1.623326540E-1,-4.214845970E-2,9.356653094E-1
1.390274062E0,-3.330644667E-1,1.643179059E-1,1.386470556E0
1.411561458E0,-4.986040890E-1,7.440119386E-1,1.531241417E0
1.432848854E0,-5.224271417E-1,6.743753552E-1,1.174506545E0
1.454136250E0,-2.458660305E-2,1.692046970E-1,8.177717924E-1
1.475423698E0,2.869454920E-1,8.362498879E-1,4.225535989E-1
1.496711093E0,3.804051280E-1,7.824953198E-1,4.573718905E-1
1.517998541E0,-3.080197275E-1,9.608627558E-1,8.165500760E-1
1.539285937E0,-1.074709415E0,1.116628766E0,8.073873520E-1
1.560573333E0,-1.210928321E0,6.884248853E-1,1.020573020E0
1.581860781E0,-6.201626658E-1,8.619054556E-1,1.076771021E0
1.603148177E0,-1.461452097E-1,1.125180602E0,5.471664071E-1
1.624435625E0,1.714953631E-1,9.724688530E-1,1.061347127E-1
1.645723073E0,3.926220834E-1,8.985562921E-1,-7.356891632E-1
1.667010468E0,2.790044844E-1,6.646018028E-1,-1.030728340E0
1.688297916E0,7.986827940E-2,9.602518678E-1,2.429644912E-1
1.709585364E0,2.802261710E-1,4.978405237E-1,-4.534013867E-1
1.730872812E0,-1.296523362E-1,1.082421303E0,-1.399069309E0
1.752160208E0,-2.170034945E-1,1.209477544E0,-1.844987750E0
1.773447656E0,1.372879148E-1,1.583316088E0,-1.045999527E0
1.794735104E0,1.342336833E-1,6.444438696E-1,-2.848075330E-1
1.816022552E0,-2.725905776E-1,9.187142849E-1,-1.821775556E0
1.837310000E0,-1.870719790E-1,4.819584787E-1,-1.276899815E0
1.858597448E0,6.607840061E-1,5.882459283E-1,-1.147400260E0
1.879884895E0,1.110978484E0,6.090146899E-1,-3.965925872E-1
1.901172343E0,8.635852933E-1,5.027272701E-1,-6.348230243E-1
1.922459791E0,1.837123185E-1,-2.199050039E-2,-5.505260825E-1
1.943747239E0,-5.499152541E-1,-4.593571424E-1,1.073564067E-1
1.965034687E0,-8.163210154E-1,4.086568058E-1,9.888089895E-1
1.986322187E0,-1.162671447E0,7.696675658E-1,8.483141065E-1
2.007609635E0,-1.814445376E0,-2.956500649E-1,9.173398614E-1
2.028897083E0,-1.737478614E0,-5.723638535E-1,4.078932703E-1
2.050184531E0,-1.107160673E-1,7.513421029E-2,2.136438340E-1
2.071471979E0,1.829334855E0,7.562289238E-1,1.366770715E-1
2.092759479E0,1.760309100E0,8.838959932E-1,-3.507790267E-1
2.114046927E0,1.409530044E-1,6.285618544E-1,-1.617141724E0
2.135334427E0,-3.165715933E-1,1.209477559E-1,-1.845598578E0
2.156621875E0,4.123218823E-3,-1.117316008E0,-1.561554670E0
2.177909375E0,9.368869662E-1,-1.367763400E0,-1.421059847E0
2.199196823E0,1.265522838E0,-1.419074535E0,-1.080817819E0
2.220484270E0,5.270084739E-1,-1.495430470E0,-9.177979827E-2
2.241771770E0,-2.909159958E-1,-6.224533319E-1,1.036455035E0
2.263059270E0,-1.253687620E0,9.529217333E-2,3.064926267E-1
2.284346718E0,-9.733087420E-1,1.398840249E-1,-6.849125028E-1
2.305634218E0,3.254288733E-1,1.158166409E0,-6.885775924E-1
2.326921718E0,9.112313986E-1,8.490777016E-1,-1.669063807E0
2.348209166E0,1.712663054E0,7.776085734E-1,-6.775823236E-1
2.369496666E0,9.002361298E-1,7.091936469E-1,-1.036226034E0
2.390784166E0,1.057223916E0,-8.698465228E-1,-1.184051037E0
2.412071614E0,1.889197826E0,-2.742704153E-1,-7.307260633E-1
2.433359114E0,2.443923473E0,9.034430981E-1,-4.503471553E-1
2.454646614E0,2.353518248E0,1.395785928E0,-7.631772757E-1
2.475934114E0,1.502531528E0,1.502684236E0,6.154286116E-2
2.497221614E0,1.128540337E-1,1.285833478E0,-1.394258887E-1
2.518509114E0,2.252499312E-1,8.435800672E-1,4.359922409E-1
2.539796614E0,1.046228647E0,-2.742704153E-1,1.763821393E-1
2.561084114E0,2.290677279E-3,5.583143830E-1,-1.832770824E0
2.582371562E0,2.680092454E-1,-2.620534599E-1,1.564227104E0
2.603659062E0,-6.201626658E-1,5.173876286E-1,2.534939766E0
2.624946614E0,-1.130296469E0,1.001789451E0,1.210546613E0
2.646234062E0,-1.852317929E0,3.738385141E-1,8.415948153E-1
2.667521614E0,-2.344660759E0,2.687728032E-2,6.931589246E-1
2.688809114E0,-1.857204676E0,-2.675510943E-1,1.569724798E0
2.710096614E0,-1.093645692E0,4.660764635E-1,1.990064025E0
2.731384114E0,-1.087537169E0,4.129327536E-1,7.737907767E-1
2.752671614E0,-4.014793634E-1,-5.870242119E-1,4.928010404E-1
2.773959114E0,-2.336490713E-2,-2.504473738E-2,3.914003670E-1
2.795246614E0,-4.350759685E-1,2.327328026E-1,3.649812192E-2
2.816534166E0,-1.228642941E0,-1.240019947E-1,-7.589777559E-2
2.837821666E0,-2.152243853E0,-5.216635466E-1,8.658760041E-2
2.859109166E0,-1.720985770E0,-1.160609797E-1,6.259657145E-1
2.880396666E0,-1.127242208E0,-3.628432751E-1,-7.650861889E-2
2.901684166E0,-1.159617186E0,-1.195504427E0,-1.441217780E0
2.922971718E0,5.025745630E-1,-1.378147721E0,-4.686725736E-1
2.944259218E0,1.756185852E-2,-6.450546980E-1,-1.253076792E0
2.965546718E0,-4.161396921E-1,-1.130143762E0,-3.452814221E-1
2.986834270E0,-1.156028435E-1,-1.150301695E0,2.686200738E-1
3.008121770E0,2.611372061E-2,-3.603998721E-1,1.019351363E0
3.029409323E0,-4.840964451E-2,-6.621584296E-1,1.161067963E0
3.050696823E0,2.826695740E-1,-4.978405237E-1,1.240478039E0
3.071984323E0,2.979407609E-1,-3.927747905E-1,1.041952729E0
3.093271875E0,-5.841227174E-1,-1.423274130E-1,7.902836204E-1
3.114559375E0,-4.631749392E-1,-6.108472347E-1,1.191610336E0
3.135846927E0,-1.273845553E0,2.944283783E-1,1.661962628E0
3.157134427E0,-1.859037280E0,-1.710372269E-1,4.463766217E-1
3.178421979E0,-1.432054996E0,-6.817055345E-1,1.529408813E0
3.199709479E0,-1.801617622E0,-6.688777208E-1,-4.291202128E-2
3.220996979E0,-1.319659114E0,-6.890357137E-1,-1.820553899E0
3.242284531E0,5.697677732E-1,-1.177789927E0,-3.372105837E0
3.263572083E0,2.421932936E0,-1.499095559E0,-3.192516804E0
3.284859583E0,3.351031780E0,-9.988116026E-1,-1.276899815E0
3.306147135E0,2.368178368E0,1.569877416E-1,8.348754644E-1
3.327434635E0,-1.559187621E-1,6.126797795E-1,3.306439877E0
3.348722187E0,-2.168736935E0,1.514901161E0,3.577656031E0
3.370009687E0,-2.130864382E0,1.474585295E0,1.495812178E0
3.391297239E0,-9.830822945E-1,2.331069469E0,-2.823641598E-1
3.412584791E0,1.873773932E-1,1.499019146E0,-1.041112781E0
3.433872291E0,-8.933641016E-2,5.809157491E-1,-5.706840754E-1
3.455159843E0,3.785725832E-1,-2.058555335E-1,-1.039967462E-1
3.476447395E0,-1.223145247E0,1.106244445E0,6.589514613E-1
3.497734895E0,-4.625640810E-1,-1.221694518E-2,-2.310529798E-1
3.519022448E0,-6.617003083E-1,1.807573438E0,-3.678827584E-1
3.540310000E0,-1.150454402E0,4.190412164E-1,1.415638477E-1
3.561597500E0,-9.855256677E-1,4.886777997E-1,3.272614181E-1
3.582885052E0,-5.004366040E-1,8.429692388E-1,1.067608237E0
3.604172604E0,-2.298312783E-1,1.332257867E0,1.548345089E0
3.625460104E0,-1.998997629E-1,2.031143427E0,1.186112642E0
3.646747656E0,-1.725643501E-2,2.287699223E0,5.202891231E-1
3.668035208E0,9.758284688E-2,2.571132421E0,6.154286116E-2
3.689322760E0,-1.664558798E-2,2.759273529E0,2.496838123E-1
3.710610260E0,-5.169295073E-1,3.447698355E0,6.461237073E-1
3.731897812E0,-1.055162311E0,4.007845402E0,1.071273327E0
3.753185364E0,-1.404566884E0,3.822147608E0,8.073873520E-1
3.774472916E0,-1.296446919E0,3.397608757E0,2.460187376E-1
3.795760416E0,-1.471760154E0,3.896060228E0,3.981196880E-1
3.817047968E0,-1.560333014E0,4.934576988E0,1.136023164E0
3.838335520E0,-1.628747821E0,4.188045025E0,1.423121452E0
3.859623073E0,-1.492528915E0,2.142317772E0,7.273663878E-1
3.880910573E0,-7.552362680E-1,1.556438804E0,2.221956849E-1
3.902198125E0,-5.706840754E-1,1.814292669E0,2.367033064E-2
3.923485677E0,-1.299501181E0,2.582127810E0,5.239542127E-1
3.944773229E0,-1.621417642E0,2.462401628E0,8.812998533E-1
3.966060781E0,-1.212760925E0,1.608971715E0,6.503996253E-1
3.987348333E0,-4.760027230E-1,9.969027042E-1,6.516213417E-1
4.008635833E0,4.408790171E-1,8.924478292E-1,9.515473247E-1
4.029923385E0,1.004080176E0,2.339545041E-1,8.586985469E-1
4.051210937E0,1.220930934E0,-7.470661998E-1,9.173398614E-1
4.072498489E0,1.344322085E0,-1.544909120E0,8.208259940E-1
4.093786041E0,1.495812178E0,-1.899200439E0,6.479562521E-1
4.115073593E0,1.581941724E0,-2.319463491E0,5.917583108E-1
4.136361145E0,1.725490808E0,-2.610226631E0,2.240282297E-1
4.157648645E0,2.032823324E0,-3.171595335E0,-2.243336588E-1
4.178936198E0,2.459194660E0,-4.233324051E0,-3.483356535E-1
4.200223750E0,3.611863375E0,-6.194754601E0,-9.739195704E-1
4.221511302E0,4.394358635E0,-6.684119701E0,-1.757025838E0
4.242798854E0,3.621637106E0,-5.203349590E0,-2.223713160E0
4.264086406E0,3.006513834E0,-5.053081036E0,-2.513865471E0
4.285373958E0,3.026061058E0,-7.850838184E0,-2.816234827E0
4.306661510E0,3.351031780E0,-5.500832081E0,-4.161396980E0
4.327949062E0,2.355350733E0,-4.161244392E0,-3.423493385E0
4.349236614E0,1.873315811E0,-3.283991337E0,-1.840101004E0
4.370524166E0,6.100836992E-1,-1.446562648E0,-6.818582416E-1
4.391811718E0,-7.101099193E-2,-1.157021046E0,-5.376983285E-1
4.413099270E0,1.537808031E-1,-1.751986265E0,-1.337373734E0
4.434386823E0,2.881672084E-1,-8.961129189E-1,-1.490085483E0
4.455674323E0,2.722851634E-1,1.539335102E-1,-8.016606569E-1
4.476961875E0,1.360662282E-1,3.646758199E-1,-8.780165911E-1
4.498249427E0,7.444701195E-1,-1.227803007E-1,2.564031482E-1
4.519536979E0,2.985515893E-1,3.237490356E-1,9.655967951E-1
4.540824531E0,-4.718795046E-2,6.908682585E-1,1.060278177E0
4.562112083E0,4.659237564E-1,5.094466209E-1,1.314390540E0
4.583399635E0,1.224596024E0,7.635590434E-2,6.887302548E-2
4.604687187E0,-1.614163816E-1,9.865183234E-1,1.110214889E-1
4.625974739E0,6.032116711E-2,5.803048983E-2,-3.184041381E-1
4.647262291E0,4.530959427E-1,-4.703523964E-2,-1.742441803E-1
4.668549843E0,1.488940120E-1,-3.176405653E-2,2.295258641E-1
4.689837395E0,-7.393542528E-1,6.963659078E-2,6.424586177E-1
4.711124948E0,-1.474203467E0,-6.780404598E-2,8.953493834E-1
4.732412500E0,-2.841966748E-1,7.580614686E-1,-8.431982994E-1
4.753700052E0,8.251019120E-1,3.481829464E-1,-1.865756631E0
4.774987604E0,1.043174386E0,2.089097649E-1,-8.499175906E-1
4.796275156E0,1.750535488E0,8.246438205E-2,-3.813214004E-1
4.817562708E0,1.953336835E0,5.528167486E-1,-4.497362971E-1
4.838850260E0,6.772769094E-1,1.012173891E0,-2.017323077E-1
4.860137812E0,5.477772951E-1,4.831801951E-1,-2.825168520E-2
4.881425364E0,1.195275426E0,2.553341687E-1,1.531699449E-1
4.902712916E0,1.583774209E0,7.256865501E-1,5.880932212E-1
4.924000468E0,1.638139606E0,2.761029601E-1,5.062396526E-1
4.945288020E0,9.900307059E-1,4.275930822E-1,1.458397806E-1
4.966575573E0,2.873349190E0,-1.255367517E0,1.398076653E0
4.987863125E0,1.242921472E0,5.625903010E-1,1.006370857E-1
5.009150677E0,1.190999389E0,1.001789495E-1,4.628695250E-1
5.030438229E0,-3.782671690E-1,5.100574493E-1,-5.688515306E-1
5.051725781E0,-2.408265322E-1,-5.906893015E-1,3.174878657E-1
5.073013385E0,-8.567132801E-2,-3.451287150E-1,7.279772162E-1
5.094300937E0,-3.855973184E-1,-2.687728032E-2,-1.725643501E-2
5.115588489E0,-3.611634374E-1,5.619794726E-1,-4.778352678E-1
5.136876041E0,9.269607067E-2,1.123958975E-1,-5.291464329E-1
5.158163593E0,1.522078633E0,-1.335388422E0,4.627167806E-2
5.179451145E0,1.401741743E0,7.586722970E-1,-2.866400778E-1
5.200738698E0,1.118308663E0,1.985253543E-1,-5.737382770E-1
5.222026250E0,8.574768305E-1,-1.321339011E0,-1.367916107E0
5.243313802E0,-3.782671690E-1,-1.177789927E0,-1.002018571E0
5.264601354E0,-3.385621011E-1,-1.044625163E0,-2.212794125E-1
5.285888906E0,-1.111971021E0,-2.406738251E-1,7.253811508E-2
5.307176458E0,-4.808894992E-1,-7.049177289E-1,3.180987239E-1
5.328464062E0,-2.536543310E-1,-6.865923405E-1,3.052709103E-1
5.349751614E0,-1.253764033E-1,-5.485408306E-1,1.018587798E-1
5.371039166E0,2.637332976E-1,-8.814526200E-1,-5.390727147E-2
5.392326718E0,7.925742865E-2,-2.351761907E-1,-4.515688419E-1
5.413614270E0,3.669664860E-1,-4.990622103E-1,-1.992889196E-1
5.434901823E0,1.195733473E-1,-1.508792788E-1,2.985515893E-1
5.456189375E0,-2.139492482E-1,1.630962193E-1,7.744016051E-1
5.477476927E0,-3.428380191E-1,-3.909422457E-2,8.525900841E-1
5.498764479E0,-4.405735731E-1,-5.320479870E-1,-4.230117425E-2
5.520052031E0,-2.237228155E-1,2.547233105E-1,-1.003316641E-1
5.541339583E0,6.503996253E-1,-1.496575773E-1,-1.363716573E-1
5.562627135E0,1.580567211E-1,1.081199646E0,-9.605573118E-2
5.583914739E0,1.843231618E-1,1.844758689E-1,3.413109183E-1
5.605202291E0,-1.718007922E-1,-3.414636254E-1,2.692309320E-1
5.626489843E0,-6.036698222E-1,2.370087355E-1,2.301367074E-1
5.647777395E0,-2.536543310E-1,-1.496575773E-1,4.427115619E-1
5.669064948E0,-2.860292196E-1,-4.153761268E-2,3.773508966E-1
5.690352500E0,-3.080197275E-1,-5.741964281E-2,5.813738704E-1
5.711640052E0,-8.750387281E-2,-1.447708011E-1,7.133168578E-1
5.732927604E0,1.666085869E-1,-2.125748396E-1,5.807630420E-1
5.754215208E0,-3.232909143E-1,2.816005945E-1,-1.968455315E-1
5.775502760E0,1.611109674E-1,-5.619794875E-2,-2.275406010E-2
5.796790312E0,7.010999322E-1,8.429691941E-2,1.269035190E-1
5.818077864E0,1.501157135E-1,5.302154422E-1,1.708845198E-1
5.839365416E0,2.916795574E-2,2.657185495E-1,6.943806410E-1
5.860652968E0,-4.271349311E-1,4.593571424E-1,8.507575393E-1
5.881940520E0,1.152974218E-1,-2.822114229E-1,8.721371889E-1
5.903228073E0,-5.126535892E-1,3.567348123E-1,3.425326049E-1
5.924515625E0,-1.467560530E-1,-2.437280566E-1,8.353336155E-2
5.945803229E0,-4.088095427E-1,4.367557764E-1,-3.135173619E-1
5.967090781E0,-3.098522723E-1,-7.281299233E-1,-9.544488788E-2
5.988378333E0,-8.407548666E-1,-3.194731176E-1,-8.567132801E-2
6.009665885E0,-4.515688419E-1,-9.749122262E-1,3.510844707E-1
6.030953437E0,-4.998257756E-1,-4.776825607E-1,7.127060294E-1
6.052240989E0,-2.970244884E-1,-3.915531039E-1,8.635852933E-1
6.073528593E0,5.844281316E-1,-9.797990322E-1,1.412126184E0
6.094816145E0,3.113794029E-1,-8.918370008E-1,7.963921428E-1
6.116103698E0,-2.829749882E-1,-3.597890437E-1,3.657447994E-1
6.137391250E0,-1.663031727E-1,-1.604772091E0,3.315373361E-1
6.158678802E0,-7.760050893E-1,-5.515950918E-1,6.093201414E-2
6.179966354E0,-1.528645307E-1,-1.040349245E0,1.965401024E-1
6.201253906E0,-2.896943092E-1,5.986303091E-2,1.433963925E-1
6.222541510E0,2.305948362E-2,-6.890357137E-1,1.427855492E-1
6.243829062E0,3.712424338E-1,-4.953971207E-1,3.466558084E-2
6.265116614E0,4.060607255E-1,-1.288887709E-1,-1.076618284E-1
6.286404166E0,8.171609044E-1,-5.906893015E-1,-1.327065676E-1
6.307691718E0,3.242071867E-1,-5.253286287E-2,-3.416163325E-1
6.328979323E0,4.976878166E-1,-9.608627558E-1,-3.330644667E-1
6.350266875E0,1.378529549E0,-9.504783154E-1,7.047650218E-1
6.371554427E0,-4.277457893E-1,1.001789451E0,-1.656923145E-1
6.392841979E0,1.458397806E-1,-5.955760479E-1,1.023169141E-2
6.414129531E0,3.180987239E-1,-5.497625098E-3,-9.940775633E-1
6.435417135E0,2.014268786E-1,2.388412803E-1,-8.682430387E-1
6.456704687E0,6.607840061E-1,-1.001789495E-1,-3.269560039E-1
6.477992239E0,2.122694254E-2,4.746283293E-1,-5.945070982E-1
6.499279791E0,2.826695740E-1,-3.805578351E-1,-7.178982496E-1
6.520567343E0,-7.040014863E-2,1.600419879E-1,-8.053257465E-1
6.541854948E0,3.944546282E-1,-2.339545041E-1,-5.291464329E-1
6.563142500E0,2.979407609E-1,3.628432751E-1,-4.857762754E-1
6.584430052E0,3.871244490E-1,2.015795931E-2,-4.033119082E-1
6.605717604E0,3.162661791E-1,2.168507725E-1,-4.405735731E-1
6.627005156E0,-2.695363462E-1,5.161659122E-1,-9.048938751E-1
6.648292760E0,5.909947306E-2,-2.443389036E-3,-8.761840463E-1
6.669580312E0,1.947075576E-1,2.357870489E-1,-1.035615206E0
6.690867864E0,1.756185852E-2,1.337755471E-1,-1.931804419E-1
6.712155416E0,9.086353332E-2,1.411057115E-1,-3.257342875E-1
6.733442968E0,-7.142331600E-1,2.504473738E-2,-6.623111367E-1
6.754730573E0,-2.744231224E-1,-1.356080920E-1,-3.074088693E-1
6.776018125E0,-1.211004704E-1,2.015796006E-1,-4.222481549E-1
6.797305677E0,3.956763148E-1,5.497625098E-3,1.696628332E-1
6.818593229E0,-1.308740228E-1,7.122479081E-1,1.879882365E-1
6.839880833E0,-4.063661397E-1,6.511631608E-1,-4.352286831E-2
6.861168385E0,1.275143623E-1,-5.644228458E-1,7.070557028E-2
6.882455937E0,-5.657972693E-1,4.996730685E-1,2.672456764E-2
6.903743489E0,4.734066315E-3,-2.199050188E-1,8.147175312E-1
6.925031041E0,8.536590636E-2,4.147652984E-1,9.613208771E-1
6.946318645E0,-3.477247953E-1,2.321219593E-1,4.292729199E-1
6.967606198E0,-2.567085624E-1,-3.512371778E-1,1.769929975E-1
6.988893750E0,7.070557028E-2,-3.536805511E-1,1.421747059E-1
7.010181302E0,1.745496094E-1,2.327328026E-1,7.383615971E-1
7.031468906E0,-2.738122940E-1,7.592831254E-1,1.060889006E0
7.052756458E0,-1.608055383E-1,-1.032331884E-1,9.093988538E-1
7.074044010E0,-6.610894203E-1,2.846548259E-1,1.751604527E-1
7.095331562E0,-8.853467703E-1,3.524588645E-1,-3.130592033E-2
7.116619166E0,-1.601946950E-1,-5.216635466E-1,4.811949134E-1
7.137906718E0,-3.782671690E-1,1.276670843E-1,2.209739983E-1
7.159194270E0,1.586675793E-1,-3.903313875E-1,1.079672500E-1
7.180481823E0,-3.550549746E-1,3.103103936E-1,-2.591519356E-1
7.201769427E0,2.570139766E-1,-1.100212216E0,1.513374150E-1
7.223056979E0,-1.754658818E-1,2.638860047E-1,-9.361234307E-2
7.244344531E0,2.918322682E-1,-8.900044560E-1,-4.413371533E-2
7.265632083E0,-1.076618284E-1,7.128587365E-1,-3.831539452E-1
7.286919687E0,7.420266867E-1,3.726168349E-2,-1.583621502E-1
7.308207239E0,1.172674060E0,4.966188073E-1,5.421269313E-2
7.329494791E0,9.106205702E-1,7.488987446E-1,-1.542389300E-2
7.350782395E0,4.304946065E-1,7.934905887E-1,-2.964136302E-1
7.372069948E0,1.397313178E-1,1.624853760E-1,-2.432699203E-1
7.393357500E0,-3.550549746E-1,1.875301152E-1,-2.554868758E-1
7.414645052E0,1.702736765E-1,-1.221694518E-2,-1.542389300E-2
7.435932656E0,1.360662282E-1,4.917320311E-1,-4.387410581E-1
7.457220208E0,3.193204105E-1,-8.612946421E-2,-3.623851240E-1
7.478507760E0,4.915793240E-1,-8.417475224E-1,-2.628170252E-1
7.499795364E0,-9.128348827E-1,6.273401380E-1,-5.395308137E-1
7.521082916E0,4.201101959E-1,-1.299959302E0,2.594573796E-1
7.542370468E0,-1.006905317E0,9.272661209E-1,-2.218902707E-1
7.563658073E0,1.083490372E0,-1.339664340E0,4.714213610E-1
7.584945625E0,-6.429167092E-2,9.217684865E-1,-8.261708915E-2
7.606233177E0,5.848862603E-2,-3.243598938E-1,-1.198787764E-1
7.627520729E0,-1.374406274E-3,1.026223376E-1,-2.646495700E-1
7.648808333E0,-6.757497787E-1,2.895416021E-1,-5.303681493E-1
7.670095885E0,1.763821393E-1,-9.767447710E-1,-6.123743951E-2
7.691383437E0,-1.164503932E0,6.994200945E-1,-5.120427012E-1
7.712671041E0,-4.924955964E-1,-3.628432751E-1,9.086353332E-2
7.733958593E0,-5.248705149E-1,4.740174711E-1,5.331169367E-1
7.755246145E0,-8.315922022E-1,6.456655264E-1,3.272614181E-1
7.776533750E0,-9.812497497E-1,1.753208041E0,4.500417113E-1
7.797821302E0,-1.587210298E0,1.775809288E0,5.954233408E-1
7.819108854E0,-1.323324203E0,1.422052383E0,1.122584581E0
7.840396458E0,-2.168126106E0,2.941916704E0,5.233433843E-1
7.861684010E0,-1.854761362E0,1.902254701E0,2.814478874E-1
7.882971562E0,-2.902364492E0,2.962685585E0,-3.403946459E-1
7.904259166E0,-2.849220753E0,2.696356058E0,-2.328855246E-1
7.925546718E0,-1.979374170E0,2.003655434E0,2.515163720E-1
7.946834270E0,-1.689832568E0,8.307522535E-1,7.120952010E-1
7.968121875E0,-1.471149325E0,1.096470833E0,1.580567211E-1
7.989409427E0,-1.846209526E0,1.019504070E0,-2.261662036E-1
8.010696979E0,-8.987854123E-1,4.007157981E-1,5.360184610E-2
8.031984583E0,-1.120522976E0,7.745543122E-1,5.176930502E-2
8.053272135E0,-1.424113989E0,1.255291104E0,-1.998997629E-1
8.074559687E0,-1.063714147E0,3.017585576E-1,7.009471953E-2
8.095847291E0,-1.305609703E0,8.185353279E-1,1.592784226E-1
8.117134843E0,-5.468609929E-1,-4.642439187E-1,3.260397315E-1
8.138422395E0,-1.074098587E0,8.423583508E-1,-2.725905776E-1
8.159710000E0,-4.509579837E-1,-1.795890927E-1,-4.399627447E-1
8.180997552E0,-4.527905285E-1,-1.911951900E-1,-4.503471553E-1
8.202285104E0,-5.650337320E-3,-6.646018028E-1,-1.821851879E-1
8.223572708E0,-1.664558798E-2,-8.063183725E-2,-1.559187621E-1
8.244860260E0,-1.088835225E-1,-1.997470558E-1,-2.945810854E-1
8.266147864E0,-1.320957243E-1,-4.147652984E-1,-3.403946459E-1
8.287435416E0,8.525900841E-1,-1.555904269E0,1.647760421E-1
8.308722968E0,3.657447994E-1,2.168507725E-1,5.543438718E-2
8.330010573E0,6.168029904E-1,-5.870242119E-1,-1.009425074E-1
8.351298125E0,1.409530044E-1,2.370087355E-1,-7.393542528E-1
8.372585677E0,1.282626510E0,-2.023813248E0,3.907895386E-1
8.393873281E0,7.915053368E-1,3.426853120E-1,-3.287885487E-1
8.415160833E0,9.588775039E-1,-5.833591223E-1,-4.338542521E-1
8.436448385E0,7.377507687E-1,-1.832541823E-2,-3.410054743E-1
8.457735989E0,8.727480173E-1,-5.546492934E-1,1.450762246E-2
8.479023541E0,4.738647640E-1,-1.117850468E-1,-4.161396921E-1
8.500311145E0,6.852179170E-1,-4.850127101E-1,1.488940120E-1
8.521598698E0,7.646280527E-1,-2.577775419E-1,1.525591016E-1
8.542886250E0,4.207210541E-1,-3.634541333E-1,-5.059342384E-1
8.564173854E0,1.898207814E-1,-5.296045542E-1,-6.207735538E-1
8.585461406E0,1.574458778E-1,-2.003578991E-1,-4.963133857E-2
8.606748958E0,2.240282297E-1,-1.148392856E-1,6.033644080E-1
8.628036562E0,1.079672500E-1,-6.248967648E-1,8.929060102E-1
8.649324114E0,1.366770715E-1,-5.619794726E-1,4.366030693E-1
8.670611718E0,-1.058292910E-1,-2.131856978E-1,-2.218902707E-1
8.691899270E0,5.331169367E-1,-7.537854910E-1,1.476723254E-1
8.713186823E0,1.067608237E0,-9.040539265E-1,-1.725643501E-2
8.734474427E0,1.299730301E0,-5.418215394E-1,-3.043546379E-1
8.755761979E0,1.241699815E0,-6.658235192E-2,-5.297572613E-1
8.777049583E0,1.202605486E0,-4.880669713E-1,-4.448495209E-1
8.798337135E0,1.490314603E0,-8.417475224E-1,-8.933641016E-2
8.819624687E0,1.165343881E0,-2.095206082E-1,-6.978929788E-2
8.840912291E0,4.133908749E-1,1.905843467E-1,-1.327065676E-1
8.862199843E0,-6.490252167E-2,2.736595869E-1,2.625116110E-1
8.883487448E0,7.701256871E-1,-2.868615150E0,-2.536543310E-1
8.904775000E0,-4.998257756E-1,3.255815804E-1,5.665608495E-2
8.926062604E0,4.078932703E-1,-9.474241138E-1,9.808679819E-1
8.947350156E0,-3.206948051E-3,-2.321219631E-2,3.944546282E-1
8.968637708E0,-4.680617154E-1,-2.638860047E-1,-2.695363462E-1
8.989925312E0,8.586985469E-1,-1.422128797E0,7.078192830E-1
9.011212864E0,3.028275371E-1,2.156290859E-1,6.650599241E-1
9.032500468E0,3.180987239E-1,3.219164908E-1,9.894198179E-1
9.053788020E0,-1.937913001E-1,2.828222811E-1,2.417428046E-1
9.075075573E0,3.959435463E0,-6.365028620E-1,2.446367025E0
9.096363177E0,-4.204156399E-1,2.681695938E0,-4.863871336E-1
9.117650729E0,-4.648853302E0,-2.186909437E0,-2.563344240E0
9.138938333E0,-5.301848888E0,-6.267293096E-1,-1.993423700E0
9.160225885E0,1.634016447E-2,-4.538595080E-1,2.289989948E0
9.181513489E0,-1.173666596E0,5.137378216E0,1.827502251E0
9.202801041E0,1.478097677E0,4.770717025E-1,1.702278614E0
9.224088645E0,6.565080881E-1,1.594311357E0,-7.227849960E-1
9.245376198E0,1.206423342E-2,1.229635477E0,-7.381325364E-1
9.266663802E0,6.418783188E0,-2.149037123E0,2.634507895E0
9.287951354E0,3.927060604E0,2.845402956E0,6.510104537E-1
9.309238958E0,-1.288505912E0,-8.319739699E-1,-3.884683132E0
9.330526510E0,-2.585334778E0,-3.492290020E0,-2.841279745E0
9.351814114E0,-2.714223385E0,-8.845068216E-1,-8.346464038E-1
9.373101666E0,1.038287640E0,-9.321529269E-1,2.272886276E0
9.394389218E0,5.697677732E-1,7.366818190E-1,2.038321018E0
9.415676823E0,6.888830066E-1,8.331956863E-1,2.394444942E0
9.436964375E0,-1.012403011E0,-3.848337755E-2,2.887780368E-1
9.458251979E0,-1.504135013E0,-3.805578351E-1,-1.017289758E0
9.479539531E0,-4.002576768E-1,2.535016239E-1,-9.885799289E-1
9.500827135E0,1.008966923E0,2.056188345E0,1.579498291E0
9.522114687E0,2.189200163E0,-1.649287641E-1,2.425598145E0
9.543402291E0,-6.513158679E-1,3.103791237E0,2.845021188E-1
9.564689843E0,-2.316638231E-1,-2.418955117E-1,1.091889441E-1
9.585977448E0,2.374668717E-1,-4.280359268E0,-1.454656363E0
9.607265000E0,8.037222624E-1,-2.006098747E0,-3.781450033E0
9.628552552E0,-4.432613373E0,2.047636271E0,-2.475458533E-1
9.649840156E0,2.638172865E0,-1.569342971E0,1.162900448E0
9.671127760E0,-2.426590770E-1,1.393953443E0,9.320002198E-1
9.692415312E0,-6.574243903E-1,-6.694886088E-1,1.572168112E0
9.713702864E0,-2.153465748E0,1.767257452E0,2.631224692E-1
9.734990468E0,-1.891412139E0,1.068371892E0,5.447230339E-1
9.756278020E0,-1.752749801E0,1.461146593E0,1.712663054E0
9.777565625E0,-1.061881661E0,2.466677666E0,1.959521651E0
9.798853177E0,-7.961630225E-1,1.678608298E0,1.496423125E0
9.820140781E0,-9.055047035E-1,6.682668924E-1,3.968980014E-1
9.841428333E0,-2.104597807E0,1.810627580E0,-3.721587062E-1
9.862715937E0,-1.982428432E0,1.678608298E0,-7.931088209E-1
9.884003489E0,-2.132696867E0,3.179536343E0,-9.360470772E-1
9.905291093E0,-2.196835756E0,3.492290020E0,-2.701472044E-1
9.926578645E0,-8.499175906E-1,1.785582900E0,-3.746020794E-1
9.947866250E0,-7.973847389E-1,1.693955779E0,-3.159607351E-1
9.969153802E0,-1.380133033E0,2.444076300E0,4.323271513E-1
9.990441406E0,-1.466262460E0,3.740905046E0,1.961965084E0
1.001172896E1,-1.214593410E0,3.869793653E0,2.616793394E0
1.003301656E1,-9.152782559E-1,3.128225088E0,2.636340380E0
1.005430411E1,-3.972034156E-1,1.810016751E0,1.238034725E0
1.007559172E1,-4.863871336E-1,1.945624828E0,7.188144922E-1
1.009687927E1,-1.450380445E0,3.174038649E0,1.021794796E0
1.011816688E1,-1.546283484E0,2.128268242E0,6.913263798E-1
1.013945443E1,-1.224977851E0,1.561936498E0,3.283303976E-2
1.016074203E1,-1.023398280E0,1.868047237E0,-2.825168520E-2
1.018202958E1,-9.354362488E-1,2.186909437E0,2.124221325E-1
1.020331719E1,-9.751412868E-1,2.232112169E0,6.948387623E-2
1.022460474E1,-5.584670901E-1,1.725108981E0,-9.849911928E-2
1.024589234E1,-8.750387281E-2,1.668223858E0,1.122431830E-1
1.026717990E1,2.209739983E-1,1.394564271E0,3.529170156E-1
1.028846750E1,2.649549842E-1,8.869501948E-1,4.268295169E-1
1.030975505E1,4.201101959E-1,3.213056624E-1,3.009949923E-1
1.033104266E1,4.078932703E-1,4.776825607E-1,2.551814318E-1
1.035233021E1,4.775298536E-1,4.660764635E-1,2.405211031E-1
1.037361781E1,5.270084739E-1,3.158080280E-1,1.910424829E-1
1.039490536E1,2.777827978E-1,2.638860047E-1,1.043021679E-1
1.041619297E1,-8.872556686E-2,2.266243398E-1,-2.458660305E-2
1.043748052E1,-3.746020794E-1,2.583884001E-1,-2.092151903E-2
1.045876812E1,-2.017323077E-1,2.974826097E-1,9.269607067E-2
1.048005568E1,1.256818175E-1,3.115321100E-1,8.780929446E-2
1.050134328E1,2.160872221E-1,2.535016239E-1,-1.985253533E-3
1.052263088E1,7.131642103E-2,4.459185004E-1,-1.374406274E-3
1.054391844E1,-8.078455180E-2,6.420004964E-1,-4.230117425E-2
1.056520599E1,7.070557028E-2,6.731536984E-1,-3.924693540E-2
1.058649359E1,3.321481943E-1,5.265503526E-1,4.993676394E-2
1.060778120E1,4.292729199E-1,3.518480062E-1,5.421269313E-2
1.062906875E1,3.113794029E-1,2.846548259E-1,4.260659590E-2
1.065035635E1,2.747285664E-1,2.125748396E-1,1.171299592E-1
1.067164391E1,3.358132839E-1,1.117850468E-1,1.934858710E-1
1.069293151E1,3.846810758E-1,9.162709117E-2,1.641651988E-1
1.071421906E1,1.659977436E-1,1.618745178E-1,5.054761097E-2
1.073550667E1,-5.879404768E-2,1.728697717E-1,2.122694254E-2
1.075679422E1,4.581354442E-4,2.418955117E-1,2.290677279E-3
1.077808182E1,6.337540597E-2,2.278460264E-1,2.489202656E-2
1.079936938E1,1.794363856E-1,1.301104724E-1,9.009997360E-3
1.082065698E1,3.938437700E-1,2.254026383E-1,1.140757278E-1
1.084194458E1,4.268295169E-1,3.439069986E-1,2.991624475E-1
1.086323214E1,4.372139275E-1,3.872771561E-1,2.447970361E-1
1.088451974E1,3.077143133E-1,2.932066917E-1,1.763821393E-1
1.090580729E1,7.131642103E-2,2.522799075E-1,1.262926757E-1
1.092709490E1,2.611372061E-2,2.480039895E-1,1.953184158E-1
1.094838245E1,2.545706034E-1,2.895416021E-1,2.594573796E-1
1.096967005E1,4.402681589E-1,4.019374847E-1,2.502946556E-1
1.099095760E1,4.488200247E-1,2.687727809E-1,2.466295809E-1
1.101224521E1,3.718532622E-1,2.003578991E-1,2.380777150E-1
1.103353281E1,2.912214398E-1,2.315111160E-1,2.112004459E-1
1.105482036E1,4.005630910E-1,2.980934680E-1,1.776038408E-1
1.107610797E1,4.201101959E-1,2.980934680E-1,1.702736765E-1
1.109739552E1,2.447970361E-1,1.038440317E-2,2.093679011E-1
1.111868312E1,1.782146841E-1,-1.331647038E-1,1.122431830E-1
1.113997068E1,9.620844387E-3,2.247917950E-1,4.016320780E-2
1.116125828E1,-1.687465608E-1,2.040229887E-1,1.629435122E-1
1.118254589E1,-9.055810422E-2,-1.398840249E-1,2.502946556E-1
1.120383344E1,5.344913341E-3,-1.062874198E-1,3.180987239E-1
1.122512104E1,-3.985778242E-2,1.624853760E-1,4.506525695E-1
1.124640859E1,-1.687465608E-1,2.968717813E-1,4.524851143E-1
1.126769620E1,-3.391729295E-1,6.352811307E-2,3.767400384E-1
1.128898375E1,-4.320217371E-1,-2.596100867E-1,3.657447994E-1
1.131027135E1,-2.225011140E-1,-3.231382072E-1,3.877353072E-1
1.133155896E1,1.684411317E-1,-8.948912621E-1,3.779617548E-1
1.135284651E1,3.455868363E-1,-1.814292669E0,9.269607067E-2
1.137413411E1,2.179197669E-1,-2.620000362E0,-2.817533016E-1
1.139542167E1,-1.229330078E-1,-3.236345053E0,-4.662291706E-1
1.141670927E1,-4.230117425E-2,-4.081223011E0,-5.431959033E-1
1.143799682E1,4.274403751E-1,-5.107446671E0,-1.168169022E0
1.145928443E1,1.686396599E0,-7.192344666E0,-1.697162747E0
1.148057203E1,3.126240015E0,-8.302865028E0,-2.055119276E0
1.150185958E1,3.785344124E0,-7.320622444E0,-2.452780724E0
1.152314719E1,3.278951645E0,-5.756166458E0,-3.070958138E0
1.154443479E1,2.495845556E0,-5.401875019E0,-3.067293167E0
1.156572234E1,1.594769478E0,-4.273029327E0,-2.491264105E0
1.158700995E1,9.026795626E-1,-3.653553724E0,-1.675172210E0
1.160829750E1,3.260397315E-1,-2.202791691E0,-8.389223814E-1
1.162958510E1,2.276933193E-1,-1.553460956E0,-3.868190348E-1
1.165087271E1,1.965401024E-1,-1.214440703E0,-1.149920002E-1
1.167216026E1,4.451549351E-1,-1.029353976E0,2.857238054E-1
1.169344786E1,4.818057716E-1,-6.908682585E-1,8.336538076E-1
1.171473542E1,2.845021188E-1,-5.070032477E-1,1.244753957E0
1.173602302E1,-9.315420873E-3,-1.624853760E-1,1.260025144E0
1.175731062E1,2.087570578E-1,-3.286358118E-1,9.704836011E-1
1.177859818E1,4.115583301E-1,-4.758500159E-1,7.627955079E-1
1.179988578E1,3.663556576E-1,3.359659761E-2,6.510104537E-1
1.182117333E1,1.141520858E0,-4.825693369E-1,5.421269313E-2
1.184246094E1,1.544069171E0,-8.557969928E-1,-3.648285270E-1
1.186374854E1,-2.886253223E-2,7.067502737E-1,-5.132644176E-1
1.188503609E1,-3.507790267E-1,2.785463631E-1,-5.297572613E-1
1.190632370E1,-2.066190839E-1,9.040539712E-2,-4.253024161E-1
1.192761130E1,5.270084739E-1,3.481829539E-2,9.704836011E-1
1.194889885E1,-1.481304597E-2,-5.283828974E-1,7.768449783E-1
1.197018646E1,2.428117767E-2,5.619794875E-2,5.942016840E-1
1.199147401E1,1.232384369E-1,-7.391251922E-1,4.023956358E-1
1.201276161E1,-7.491278052E-1,-2.596100867E-1,2.484621257E-1
1.203404922E1,-9.806389213E-1,-5.436540768E-2,-1.864611208E-1
1.205533677E1,-3.636068404E-1,-7.110261917E-1,-5.572454333E-1
1.207662438E1,-4.107947648E-2,-8.771766424E-1,3.512371797E-3
1.209791198E1,9.271134138E-1,-8.002098799E-1,6.644490957E-1
1.211919953E1,7.896727920E-1,-8.380824327E-1,3.956763148E-1
1.214048714E1,4.524851143E-1,-2.015795931E-2,4.060607255E-1
1.216177474E1,7.866185308E-1,-1.679829955E-1,-2.719797492E-1
1.218306229E1,1.085933685E0,-3.683409095E-1,-3.556658030E-1
1.220434990E1,1.286291599E0,-4.972296655E-1,-2.017323077E-1
1.222563745E1,1.514748454E0,7.104153633E-1,-4.375193417E-1
1.224692505E1,7.273663878E-1,-8.307522535E-1,2.338017821E-1
1.226821266E1,3.370349705E-1,1.667613089E-1,1.250709742E-1
1.228950021E1,2.612899244E-1,-3.237490356E-1,4.842491746E-1
1.231078781E1,3.161134571E-2,1.044548824E-1,6.039752364E-1
1.233207542E1,-4.845545888E-1,5.803048983E-2,1.049282908E0
1.235336297E1,-7.747833729E-1,3.298575059E-2,4.207210541E-1
1.237465057E1,-7.973847389E-1,-9.651386738E-2,-9.116895497E-2
1.239593818E1,3.578037918E-1,-7.195780873E-1,2.000524849E-2
1.241722573E1,7.243121266E-1,4.672981501E-1,8.984035850E-1
1.243851333E1,5.996993184E-1,1.045770526E0,7.224795818E-1
1.245980094E1,4.604261220E-1,4.960079789E-1,-1.359135192E-2
1.248108849E1,-1.998997629E-1,3.072561622E-1,-1.944021434E-1
1.250237609E1,-7.075138092E-1,7.403468490E-1,2.826695740E-1
1.252366365E1,9.026795626E-1,6.035171151E-1,4.023956358E-1
1.254495125E1,7.102626562E-1,-1.527118124E-2,1.739387512E-1
1.256623885E1,1.397313178E-1,-2.174616307E-1,-3.672719002E-1
1.258752646E1,-5.053234100E-1,-4.330907166E-1,-3.672719002E-1
1.260881401E1,-9.891907573E-1,-1.221694499E-1,-2.811424434E-1
1.263010161E1,-7.178982496E-1,-2.730487287E-1,3.742966652E-1
1.265138917E1,-2.377723008E-1,-2.021904439E-1,6.907155514E-1
1.267267677E1,5.868715048E-1,-3.677300513E-1,3.565820754E-1
1.269396438E1,2.802261710E-1,9.407047927E-2,2.672456764E-2
1.271525193E1,3.675773442E-1,-2.144073844E-1,1.696628332E-1
1.273653953E1,3.791834414E-1,-2.455606014E-1,1.305686086E-1
1.275782714E1,-1.919587553E-1,2.064663768E-1,6.704048812E-2
1.277911474E1,-2.915268540E-1,-7.831062078E-1,-1.052184403E-1
1.280040229E1,-7.808918357E-1,-1.335999370E0,-5.486935377E-1
1.282168990E1,-5.230379701E-1,-9.835404158E-1,-4.753918648E-1
1.284297750E1,1.666085869E-1,-2.907632887E-1,-4.027010500E-1
1.286426505E1,6.638382673E-1,4.611896873E-1,-1.510319859E-1
1.288555266E1,1.178171635E0,4.874561131E-1,3.687990308E-1
1.290684026E1,1.180004239E0,1.215586066E0,1.170230627E0
1.292812781E1,1.097539783E0,1.124569774E0,9.344435930E-1
1.294941542E1,7.701256871E-1,3.640649617E-1,5.544965863E-1
1.297070302E1,7.377507687E-1,-4.043808877E-1,1.055391312E0
1.299199057E1,2.576248348E-1,-7.330167294E-2,1.304617047E0
1.301327818E1,-4.869979918E-1,-2.657185495E-1,1.150072694E0
1.303456578E1,-2.664821148E-1,-1.312787056E0,1.083490372E0
1.305585333E1,5.062396526E-1,-6.145123243E-1,1.324164152E0
1.307714094E1,8.617527485E-1,-7.983773947E-1,7.444701195E-1
1.309842854E1,1.047450304E0,-1.065393925E0,4.897467792E-1
1.311971609E1,1.580567211E-1,-7.605048418E-1,-3.727695346E-1
1.314100370E1,5.325061083E-1,-9.596410394E-1,1.543916464E-1
1.316229130E1,-2.542651594E-1,-9.462023973E-1,2.215848416E-1
1.318357891E1,4.016320780E-2,-1.219327450E0,6.748335361E-1
1.320486646E1,-7.918871045E-1,-6.438329816E-1,-2.275406010E-2
1.322615406E1,-5.633538961E-1,-1.218105793E0,2.270824611E-1
1.324744167E1,-6.415423155E-1,-9.914814830E-1,-4.784461260E-1
1.326872922E1,-4.027010500E-1,-1.002476692E0,-5.493044257E-1
1.329001682E1,-1.418692768E-1,-9.982007742E-1,-2.701472044E-1
1.331130443E1,1.146865711E-1,-7.018635273E-1,-1.809635013E-1
1.333259198E1,8.727480173E-1,-2.425063550E-1,-6.184828654E-2
1.335387958E1,1.396854997E0,2.076880634E-2,-4.027010500E-1
1.337516719E1,1.485427856E0,2.577775419E-1,-7.166765332E-1
1.339645474E1,7.078192830E-1,-7.146912813E-2,-3.862081766E-1
1.341774234E1,3.290939629E-1,5.949652195E-1,5.971032009E-2
1.343902995E1,-3.935383558E-1,-3.665083647E-1,4.260659590E-2
1.346031750E1,-6.189410090E-1,-4.196520746E-1,1.733279079E-1
1.348160510E1,-4.815003574E-1,-8.637380004E-1,-1.052184403E-1
1.350289271E1,-5.560237169E-1,-5.302154422E-1,-6.885775924E-1
1.352418031E1,1.679830020E-3,-7.421793938E-1,-7.815027237E-1
1.354546786E1,-4.692834020E-1,-2.309002578E-1,-7.191199064E-1
1.356675547E1,-7.040014863E-2,-4.172086716E-1,-6.189410090E-1
1.358804307E1,-7.992172837E-1,5.509842038E-1,-8.218186498E-1
1.360933062E1,2.901524538E-3,5.424323678E-1,-2.622061968E-1
1.363061823E1,2.686200738E-1,8.771766424E-1,-3.947600424E-1
1.365190583E1,6.259657145E-1,1.074480295E0,-4.918847680E-1
1.367319339E1,7.084301114E-1,5.864133835E-1,-9.562050104E-1
1.369448099E1,3.955236077E-2,1.588202864E-1,-1.532844782E0
1.371576859E1,-7.399650812E-1,2.693836391E-1,-1.496804833E0
1.373705620E1,-1.160838842E0,2.333436459E-1,-1.146178484E0
1.375834375E1,-8.407548666E-1,-9.645278454E-1,-8.596911430E-1
1.377963135E1,-1.078374505E0,2.461714447E-1,-6.195518374E-1
1.380091896E1,-1.736333370E-1,-1.924168915E-1,-1.461452097E-1
1.382220656E1,7.070557028E-2,8.564078808E-1,-3.436015919E-2
1.384349411E1,3.156553209E-1,1.072036982E0,-7.895200700E-2
1.386478172E1,6.320741773E-1,1.319430113E0,3.168770075E-1
1.388606932E1,7.890619636E-1,3.750602305E-1,7.273663878E-1
1.390735688E1,6.332958937E-1,2.144073844E-1,1.307060480E0
1.392864448E1,9.295567870E-1,-8.612946421E-2,1.760919929E0
1.394993208E1,1.223374367E0,5.424323678E-1,1.656465054E0
1.397121969E1,1.079214454E0,-5.424323678E-1,6.791094542E-1
1.399250724E1,8.855758309E-1,-1.191839337E0,-4.100312293E-1
1.401379484E1,-5.865660906E-1,-8.906152844E-1,-1.277510643E0
1.403508245E1,-6.855233312E-1,-1.099601388E0,-1.412507892E0
1.405637000E1,-3.794888556E-1,-9.101623893E-1,-5.981721878E-1
1.407765760E1,5.453338623E-1,-4.514161348E-1,3.999522328E-1
1.409894521E1,1.307060480E0,-2.687727809E-1,8.861866593E-1
1.412023281E1,1.564227104E0,-3.054236174E-1,7.151494026E-1
1.414152036E1,1.134801507E0,9.407047927E-2,2.765611112E-1
1.416280797E1,-2.702999115E-2,3.707842827E-1,1.201841980E-1
1.418409557E1,-5.102101564E-1,-1.221694499E-1,-1.542389300E-2
1.420538312E1,-6.482616663E-1,2.516690791E-1,-4.204156399E-1
1.422667073E1,-4.234698713E-1,-1.172826737E-1,-7.282826304E-1
1.424795833E1,2.399102598E-1,-1.954711229E-2,-3.843756318E-1
1.426924594E1,6.027535200E-1,3.665083647E-2,-4.718795046E-2
1.429053349E1,2.154763639E-1,4.025483429E-1,3.894151375E-2
1.431182109E1,2.521272004E-1,2.644968629E-1,-2.677038014E-1
1.433310870E1,-2.872509360E-1,-5.497625470E-2,-6.458182931E-1
1.435439630E1,-6.856760383E-2,-5.497625098E-3,-3.135173619E-1
1.437568385E1,-4.596625641E-2,-1.826433241E-1,-4.802786708E-1
1.439697146E1,-3.581092060E-1,-1.826433241E-1,-6.897992492E-1
1.441825906E1,-9.531508088E-1,-4.923428893E-1,-1.022787333E0
1.443954667E1,-5.352548957E-1,-1.526583672E0,-6.305471063E-1
1.446083422E1,-6.971294284E-1,1.053100705E0,2.264716178E-1
1.448212182E1,-8.957311511E-1,-4.538595080E-1,-8.322793990E-2
1.450340943E1,-1.160838842E0,1.910195708E0,-1.236965694E-2
1.452469703E1,-2.151709497E-1,-8.331956863E-1,-2.108950168E-1
1.454598458E1,-1.603474095E-2,1.348750710E0,1.311794519E-1
1.456727219E1,-1.786728203E-2,-9.162709117E-3,-4.521796703E-1
1.458855979E1,2.081461996E-1,2.834331393E-1,-5.761816502E-1
1.460984740E1,-4.301891923E-1,6.474980712E-2,-1.046610475E0
1.463113495E1,-4.222481549E-1,5.320479870E-1,-5.774033666E-1
1.465242255E1,1.305686086E-1,-1.893626451E-1,-4.662291706E-1
1.467371016E1,-5.268557742E-2,2.932066917E-1,-5.248705149E-1
1.469499776E1,1.756185852E-2,5.986303091E-2,-2.536543310E-1
1.471628531E1,-3.281776905E-1,9.095515609E-1,9.513945878E-2
1.473757292E1,3.205420971E-1,1.527118124E-2,4.671454430E-1
1.475886052E1,4.566083103E-2,7.134696245E-1,3.681881726E-1
1.478014812E1,2.466295809E-1,2.144073844E-1,2.221956849E-1
1.480143568E1,-9.544488788E-2,-2.076880634E-1,3.771981969E-2
1.482272328E1,-6.629219651E-1,9.144383669E-1,9.452861547E-2
1.484401089E1,-3.501681983E-1,2.284568697E-1,4.097257853E-1
1.486529849E1,4.734066315E-3,2.492256761E-1,6.815528274E-1
1.488658604E1,8.964183182E-2,-4.758500159E-1,4.378247857E-1
1.490787364E1,-1.333097816E0,1.073869467E0,-5.451811850E-2
1.492916125E1,-1.119301200E0,9.064973593E-1,6.265766025E-1
1.495044885E1,-5.981721878E-1,-5.864133686E-2,7.127060294E-1
1.497173646E1,2.185306102E-1,5.253286287E-2,7.566870451E-1
1.499302401E1,8.141067028E-1,4.288147688E-1,-2.764083818E-2
1.501431161E1,5.306735635E-1,1.106244445E0,-3.416163325E-1
1.503559922E1,8.574768305E-1,4.056025743E-1,4.993676394E-2
1.505688682E1,1.080436110E0,-3.457395434E-1,3.559712470E-1
1.507817438E1,4.885250926E-1,-5.711421967E-1,-4.428642802E-3
1.509946198E1,1.586675793E-1,-1.155799389E0,-2.347180545E-1
1.512074958E1,-4.735593498E-1,-2.382304370E-1,-4.717268050E-1
1.514203719E1,2.979407609E-1,-9.443698525E-1,-5.609105229E-1
1.516332479E1,1.116323397E-1,2.968717813E-1,-6.580352187E-1
1.518461234E1,6.833853722E-1,-5.253286362E-1,-4.729484916E-1
1.520589995E1,6.424586177E-1,-3.237490356E-2,-1.308740228E-1
1.522718755E1,3.822376728E-1,-4.941754341E-1,1.568350345E-1
1.524847516E1,-5.650337320E-3,3.494046330E-1,5.380037427E-1
1.526976276E1,9.086353332E-2,-7.000309825E-1,2.961082160E-1
1.529105031E1,-5.285356045E-1,5.320479870E-1,-2.615953386E-1
1.531233792E1,3.009949923E-1,-3.469612300E-1,-2.591519356E-1
1.533362552E1,-1.027750522E-1,3.787253052E-2,-4.424061179E-1
1.535491313E1,-3.239017725E-1,6.108472589E-3,-1.298050396E-2
1.537620073E1,-4.705050886E-1,-7.776085734E-1,1.232384369E-1
1.539748833E1,-7.350783348E-1,1.930277348E-1,2.435753495E-1
1.541877588E1,-1.131594554E-1,-6.939224601E-1,1.226275861E-1
1.544006349E1,-6.580352187E-1,6.731536984E-1,-3.330644667E-1
1.546135109E1,-3.061871827E-1,-3.921639323E-1,-5.841227174E-1
1.548263870E1,-4.417952895E-1,1.948602796E-1,-6.806365848E-1
1.550392630E1,2.845021188E-1,6.108472589E-3,-4.326325655E-1
1.552521385E1,7.499676943E-1,8.490777016E-2,-2.463241518E-1
1.554650146E1,6.149705052E-1,8.814526200E-1,-1.455343664E-1
1.556778906E1,5.807630420E-1,3.536805511E-1,1.910424829E-1
1.558907667E1,1.085781008E-1,8.441908956E-1,5.624375939E-1
1.561036422E1,-6.368082762E-2,3.994941115E-1,8.739697337E-1
1.563165182E1,-3.935383558E-1,8.105943203E-1,9.778137207E-1
1.565293943E1,1.177408099E-1,4.721849263E-1,1.340046167E0
1.567422703E1,2.435753495E-1,1.031720996E0,1.443279386E0
1.569551464E1,6.210789680E-1,1.856975704E-1,1.272242069E0
1.571680224E1,1.165191159E-1,3.958290219E-1,6.943806410E-1
1.573808979E1,9.814788103E-1,-9.663603902E-1,7.505785823E-1
1.575937740E1,-4.259132445E-1,-3.481829539E-2,2.258607745E-1
1.578066500E1,-8.969528675E-1,3.775036037E-1,3.022166789E-1
1.580195260E1,-1.363029361E0,2.547233105E-1,4.378247857E-1
1.582324021E1,-2.169347763E0,7.043069005E-1,-7.650861889E-2
1.584452776E1,-1.745419741E0,1.783674061E-1,-4.546230733E-1
1.586581536E1,-1.646462440E0,7.678350210E-1,-8.706864119E-1
1.588710297E1,-8.279271126E-1,-6.255075932E-1,-9.024504423E-1
1.590839057E1,3.344388679E-2,-1.678073764E0,-7.711182833E-1
1.592967818E1,9.546015263E-1,-7.934905887E-1,-1.803526580E-1
1.595096578E1,1.313168883E0,2.260134928E-2,2.197522968E-1
1.597225338E1,1.467713237E0,2.333436459E-1,1.061347127E-1
1.599354094E1,8.727480173E-1,2.736595869E-1,-5.529694557E-1
1.601482854E1,5.557183027E-1,-1.209477559E-1,-5.706840754E-1
1.603611614E1,5.832064152E-1,-1.001789495E-1,6.276455522E-2
1.605740375E1,3.150444627E-1,-1.924168915E-1,3.779617548E-1
1.607869135E1,2.081461996E-1,-3.359659910E-1,2.270824611E-1
1.609997891E1,2.203631550E-1,-3.176405728E-1,-1.272089481E-1
1.612126651E1,-4.046862945E-2,4.526378214E-1,-2.512109280E-1
1.614255411E1,6.131379604E-1,-3.286358118E-1,-4.107947648E-2
1.616384172E1,-1.253764033E-1,6.352811307E-2,-5.010474920E-1
1.618512932E1,-3.959817290E-1,3.078670204E-1,-6.464291215E-1
1.620641693E1,2.075353563E-1,-1.066615701E0,-4.216373265E-1
1.622770453E1,-3.184041381E-1,4.257605374E-1,-2.596100792E-3
1.624899214E1,4.078932703E-1,-8.991671801E-1,4.549284875E-1
1.627027969E1,1.885990947E-1,-6.413896382E-2,2.417428046E-1
1.629156729E1,-1.369825006E-1,-1.337755471E-1,-1.772984117E-1
1.631285490E1,-3.617742956E-1,-1.777565479E-1,-3.678827584E-1
1.633414250E1,-1.669140160E-1,3.689517379E-1,-3.008422814E-2
1.635543010E1,2.655658424E-1,1.997470558E-1,-1.797417998E-1
1.637671771E1,4.592044353E-1,5.387672782E-1,8.719844371E-2
1.639800526E1,4.500417113E-1,-1.404948682E-1,2.855710872E-2
1.641929286E1,-2.292204350E-1,7.079719901E-1,2.118112892E-1
1.644058047E1,-4.230117425E-2,-4.795151055E-1,8.727480173E-1
1.646186807E1,-4.906630516E-1,1.905843467E-1,6.901046634E-1
1.648315568E1,-3.098522723E-1,-9.040539712E-2,5.227325559E-1
1.650444328E1,-1.919587553E-1,5.369347334E-1,3.907895386E-1
1.652573088E1,4.964661002E-1,-2.644968629E-1,5.514423847E-1
1.654701844E1,3.675773442E-1,2.638860047E-1,1.947075576E-1
1.656830604E1,2.000524849E-2,-2.522799075E-1,-1.919587553E-1
1.658959364E1,-6.061131954E-1,-2.321219593E-1,-4.882196784E-1
1.661088125E1,-4.845545888E-1,-5.228852630E-1,-3.819322586E-1
1.663216885E1,-3.324536085E-1,-5.222744346E-1,-2.579302490E-1
1.665345646E1,1.440072358E-1,-7.623373866E-1,-2.275406010E-2
1.667474406E1,-8.689302206E-2,-3.359659761E-2,-3.959817290E-1
1.669603167E1,1.922641695E-1,7.391251624E-2,-2.670929730E-1
1.671731927E1,-1.650814712E-1,4.404208660E-1,-3.611634374E-1
1.673860682E1,3.486410677E-1,-1.472141892E-1,3.474193811E-1
1.675989443E1,-1.053711493E-2,5.320479870E-1,-1.603474095E-2
1.678118203E1,4.262186885E-1,-1.502684206E-1,-3.141281903E-1
1.680246964E1,3.626905680E-1,-3.316900730E-1,-7.154548764E-1
1.682375724E1,4.824166298E-1,-6.474980712E-2,-5.169295073E-1
1.684504484E1,1.507265568E-1,6.108472496E-2,-3.746020794E-1
1.686633245E1,-1.785201132E-1,-2.443389036E-2,-2.182251811E-1
1.688762005E1,1.568350345E-1,-5.839699507E-1,-1.980672181E-1
1.690890760E1,-1.534753740E-1,7.879929990E-2,-4.045335948E-1
1.693019521E1,1.788255423E-1,-1.759240031E-1,8.903098851E-2
1.695148281E1,3.571929336E-1,-2.370087355E-1,4.225535989E-1
1.697277042E1,-3.006895781E-1,1.368297935E-1,2.484621257E-1
1.699405802E1,-5.438067913E-1,-5.057815313E-1,3.833066672E-2
1.701534563E1,-5.621321797E-1,-3.726168349E-2,-1.583621502E-1
1.703663323E1,-7.773031294E-2,-2.113531530E-1,-1.359135192E-2
1.705792083E1,-5.792359114E-1,1.028055906E0,-3.061871827E-1
1.707920844E1,-4.937172830E-1,2.797680497E-1,-2.927485406E-1
1.710049604E1,-2.884726226E-1,1.838650256E-1,-5.725166202E-1
1.712178359E1,6.846070886E-1,3.652866483E-1,-8.139539510E-2
1.714307120E1,1.319888234E0,-3.665083554E-3,4.934118688E-1
1.716435880E1,6.216897964E-1,7.592831254E-1,9.692618847E-1
1.718564641E1,-1.913478971E-1,4.727957845E-1,1.505585790E0
1.720693401E1,-4.955498278E-1,1.123958975E-1,1.584385037E0
1.722822161E1,-9.525399208E-1,7.678350210E-1,1.041952729E0
1.724950922E1,-5.389199853E-1,-7.745543122E-1,-1.601946950E-1
1.727079682E1,-9.720870852E-1,-3.603998721E-1,-1.419838071E0
1.729208443E1,-7.540146112E-1,-5.717530251E-1,-1.457099795E0
1.731337203E1,-3.513898849E-1,-2.754921019E-1,-1.065546632E0
1.733465958E1,-4.045335948E-1,2.809897438E-2,-4.876088202E-1
1.735594719E1,-2.481566966E-1,-2.736595869E-1,2.417428046E-1
1.737723479E1,-2.762556672E-1,4.911212027E-1,6.705575585E-1
1.739852240E1,-2.145601064E-1,2.357870489E-1,8.495358229E-1
1.741981000E1,-1.785201132E-1,-5.497625098E-3,6.754443645E-1
1.744109760E1,4.469874799E-1,-3.414636254E-1,5.990884304E-1
1.746238521E1,7.493568659E-1,2.315111160E-1,5.282301903E-1
1.748367281E1,1.492758036E0,-6.682668924E-1,4.976878166E-1
1.750496042E1,9.051229358E-1,-9.895725548E-2,7.559234649E-2
1.752624802E1,6.662816405E-1,-7.098045349E-1,-1.076618284E-1
1.754753563E1,-1.076618284E-1,3.964398801E-1,-5.566345453E-1
1.756882323E1,3.352024257E-1,-2.553341687E-1,-3.941491842E-1
1.759011083E1,4.749337584E-2,3.536805511E-1,-7.527928948E-1
1.761139838E1,4.280512035E-1,-5.412106514E-1,-4.711159468E-1
1.763268599E1,3.645231128E-1,-3.939964771E-1,-2.664821148E-1
1.765397359E1,-8.017370105E-2,1.844758689E-1,-9.422318637E-2
1.767526120E1,3.749074936E-1,-6.920899153E-1,3.773508966E-1
1.769654880E1,-4.596625641E-2,7.879929543E-1,1.598892659E-1
1.771783641E1,5.074613690E-1,-5.118899941E-1,1.806580722E-1
1.773912401E1,-1.345391124E-1,2.235700935E-1,-3.006895781E-1
1.776041161E1,-1.980672181E-1,-2.015796006E-1,-3.037438095E-1
1.778169922E1,-4.167505503E-1,-1.178935245E-1,-5.993938446E-1
1.780298682E1,-7.546254396E-1,2.321219631E-2,-8.456416726E-1
1.782427443E1,-7.387434244E-1,-8.490777016E-2,-7.992172837E-1
1.784556203E1,-1.479777545E-1,-7.165238261E-1,-5.932853818E-1
1.786684964E1,-3.458922505E-1,1.539335102E-1,-7.564579844E-1
1.788813719E1,5.752654076E-1,-7.745543122E-1,-1.992889196E-1
1.790942479E1,-7.834116369E-2,4.043808877E-1,-1.369825006E-1
1.793071240E1,7.646280527E-1,-6.798729897E-1,4.897467792E-1
1.795200000E1,4.934118688E-1,4.208737612E-1,4.353813827E-1
1.797328760E1,2.502946556E-1,-1.185043678E-1,4.030064642E-1
1.799457521E1,9.025268257E-2,1.887518018E-1,4.989095032E-1
1.801586281E1,-3.562766612E-1,-1.869192570E-1,2.338017821E-1
1.803715042E1,-8.511393070E-1,5.442649126E-1,5.955760833E-3
1.805843802E1,-1.809635013E-1,-1.541854858E0,-1.359135192E-2
1.807972563E1,-1.992889196E-1,1.035386086E0,2.290677279E-3
1.810101323E1,3.028275371E-1,-1.029964805E0,2.901524538E-3
1.812230083E1,-2.145601064E-1,4.764608666E-2,-3.758237660E-1
1.814358844E1,1.250709742E-1,-1.180233240E0,-4.802786708E-1
1.816487604E1,-2.457133085E-1,-1.844758689E-1,-7.931088209E-1
1.818616364E1,2.930539846E-1,-3.854446113E-1,-4.167505503E-1
1.820745125E1,2.672456764E-2,7.470661998E-1,-3.990359604E-1
1.822873880E1,5.184566379E-1,1.569877416E-1,-2.096733153E-1
1.825002646E1,4.023956358E-1,2.742704153E-1,-3.367295563E-1
1.827131401E1,9.594883323E-1,-3.274141252E-1,-2.542651594E-1
1.829260161E1,2.637332976E-1,9.749122262E-1,-7.087355256E-1
1.831388922E1,9.472714067E-1,1.148392856E-1,-5.615213513E-1
1.833517682E1,5.422796607E-1,4.135435820E-1,-8.603020310E-1
1.835646443E1,6.601731777E-1,2.425063550E-1,-4.619532526E-1
1.837775203E1,3.962871730E-1,-1.588202827E-2,-3.874298632E-1
1.839903964E1,-1.834068894E-1,7.574505806E-1,-2.163926363E-1
1.842032724E1,1.818797737E-1,6.230642200E-1,1.391204596E-1
1.844161484E1,-6.123743951E-2,9.975135922E-1,8.414421231E-2
1.846290245E1,9.452861547E-2,3.481829539E-2,2.154763639E-1
1.848419005E1,-8.560260534E-1,7.409577370E-1,-3.019112647E-1
1.850547766E1,-2.060082406E-1,-6.090146899E-1,-1.992889196E-1
1.852676526E1,-1.033782601E0,5.167768002E-1,-7.534037232E-1
1.854805286E1,-2.420482337E-1,-7.488987446E-1,-2.084516287E-1
1.856934047E1,-9.519290924E-1,5.332696438E-1,8.231166750E-2
1.859062807E1,-2.292204350E-1,-4.288147688E-1,4.726430774E-1
1.861191568E1,-3.061871827E-1,1.673721522E-1,1.934858710E-1
1.863320328E1,2.313583940E-1,1.472141892E-1,2.221956849E-1
1.865449088E1,-8.383878320E-2,7.971556783E-1,1.372879148E-1
1.867577849E1,5.019637346E-1,-4.807367921E-1,4.677563012E-1
1.869706609E1,-3.403946459E-1,5.167768002E-1,3.822376728E-1
1.871835364E1,2.234173864E-1,-1.838650256E-1,5.312843919E-1
1.873964125E1,-4.259132445E-1,4.703523964E-2,8.353336155E-2
1.876092885E1,-1.931804419E-1,-9.223793447E-2,-8.200624585E-2
1.878221646E1,-4.045335948E-1,2.589992285E-1,2.183778957E-2
1.880350406E1,-1.198787764E-1,-8.307522535E-2,5.813738704E-1
1.882479167E1,2.625116110E-1,-5.253286287E-2,6.595623493E-1
1.884607927E1,-1.546970755E-1,2.938175201E-1,1.916533262E-1
1.886736688E1,-1.589729935E-1,2.168507725E-1,-1.847812906E-2
1.888865448E1,-9.946883917E-1,2.180724740E-1,-7.221741676E-1
1.890994208E1,-4.515688419E-1,-5.705313683E-1,-6.946860552E-1
1.893122969E1,-4.729484916E-1,1.875301152E-1,-7.007945180E-1
1.895251729E1,4.749337584E-2,-3.261924386E-1,-2.157817930E-1
1.897380490E1,4.871506989E-2,-1.466033459E-1,1.812689304E-1
1.899509250E1,2.295258641E-1,3.359659761E-2,8.153283596E-1
1.901638010E1,7.131642103E-2,3.762819171E-1,5.288410187E-1
1.903766771E1,-4.169032723E-2,4.294256270E-1,-4.075878263E-1
1.905895531E1,5.483881235E-1,2.254026383E-1,-5.572454333E-1
1.908024292E1,5.007420182E-1,6.322268844E-1,-2.108950168E-1
1.910153052E1,5.514423847E-1,1.698155403E-1,4.537068009E-1
1.912281813E1,-2.249445021E-1,8.118160367E-1,3.962871730E-1
1.914410573E1,2.710634768E-1,-6.291726828E-1,6.198572516E-1
1.916539333E1,-2.481566966E-1,3.640649617E-1,-1.601946950E-1
1.918668094E1,-3.165715933E-1,-3.304683566E-1,-3.477247953E-1
1.920796854E1,-8.816816807E-1,-1.710372269E-1,-4.802786708E-1
1.922925614E1,-6.103891134E-1,-1.875301152E-1,-1.876828223E-1
1.925054375E1,-6.671979427E-1,1.404948719E-2,8.399149403E-3
1.927183130E1,-1.601946950E-1,-4.654656053E-1,5.667135715E-1
1.929311891E1,-3.831539452E-1,-1.692046970E-1,6.626165509E-1
1.931440651E1,-5.859552622E-1,-2.712161839E-1,3.358132839E-1
1.933569411E1,-9.751412868E-1,1.820324808E-1,-2.115058601E-1
1.935698172E1,7.192726433E-2,-5.497625098E-3,1.152974218E-1
1.937826932E1,8.292251825E-2,5.296045542E-1,4.665345848E-1
1.939955693E1,1.142131686E0,-8.551862091E-3,1.431673288E0
1.942084453E1,1.038898468E0,2.553341687E-1,1.660740972E0
1.944213214E1,3.297048211E-1,5.974085927E-1,1.239867210E0
1.946341974E1,1.634016447E-2,-6.536065787E-2,4.921901822E-1
1.948470734E1,-9.164999723E-1,4.611896873E-1,-5.444176197E-1
1.950599495E1,-1.314848661E-1,-5.601469278E-1,-3.788780272E-1
1.952728255E1,-4.851654470E-1,2.266243398E-1,-2.762556672E-1
1.954857016E1,5.764871240E-1,-1.233987808E0,4.353813827E-1
1.956985776E1,-2.121167034E-1,-3.316900730E-1,1.757712960E-1
1.959114536E1,-2.463241518E-1,-1.099525020E-2,1.965401024E-1
1.961243297E1,-1.589729935E-1,-4.715740979E-1,5.848862603E-2
1.963372057E1,1.330119967E-1,-2.443389036E-3,1.006370857E-1
1.965500818E1,4.769189954E-1,-8.838959932E-1,4.138490185E-2
1.967629578E1,-5.146388337E-2,4.337015375E-2,-3.031329513E-1
1.969758338E1,6.566607859E-3,-3.561239541E-1,-3.642176688E-1
1.971887099E1,2.790044844E-1,-2.883199155E-1,-2.475458533E-1
1.974015859E1,4.146125913E-1,2.357870489E-1,-3.348970115E-1
1.976144620E1,1.392579079E0,-6.108472589E-3,-3.654393852E-1
1.978273380E1,1.472599983E0,1.649287641E-1,-6.140542030E-1
1.980402141E1,1.003469348E0,3.414636254E-1,-4.161396921E-1
1.982530901E1,1.007745266E0,-4.428642690E-1,1.672194302E-1
1.984659661E1,-2.200577259E-1,7.348492742E-1,1.311794519E-1
1.986788422E1,-2.554868758E-1,6.047387794E-2,3.718532622E-1
1.988917182E1,-4.631749392E-1,-1.569877416E-1,-1.962346882E-1
1.991045943E1,-2.774773538E-1,-6.780404598E-2,-4.216373265E-1
1.993174703E1,-1.198787764E-1,-5.668662786E-1,-9.623134732E-1
1.995303464E1,-2.298312783E-1,9.773556143E-2,-1.203598142E0
1.997432224E1,1.275143623E-1,-6.505523324E-1,-7.288935184E-1
1.999560984E1,2.356343269E-1,3.921639323E-1,-1.516428292E-1
2.001689740E1,-2.053973973E-1,-4.123218954E-1,-9.300149232E-2
2.003818500E1,-3.501681983E-1,-3.542914093E-1,-1.779092699E-1
2.005947260E1,-5.621321797E-1,-3.048127890E-1,-2.481566966E-1
2.008076021E1,8.658760041E-2,1.331647038E-1,4.659237564E-1
2.010204781E1,-1.101052165E-1,9.315420985E-1,6.363501549E-1
2.012333542E1,1.125638843E0,-4.630222321E-1,1.472599983E0
2.014462302E1,3.333698809E-1,8.313631415E-1,9.265025854E-1
2.016591063E1,4.274403751E-1,1.001789495E-1,5.935907960E-1
2.018719823E1,-1.107160673E-1,8.796200156E-2,-2.493783981E-1
2.020848583E1,-2.829749882E-1,-9.407047927E-2,-6.226060390E-1
2.022977344E1,-1.076618284E-1,1.233911440E-1,-4.540122151E-1
2.025106104E1,3.161134571E-2,-3.274141252E-1,-2.884726226E-1
2.027234864E1,1.617218107E-1,-3.787253052E-2,-1.571404636E-1
2.029363625E1,-5.572454333E-1,5.039489865E-1,-2.316638231E-1
2.031492385E1,5.606050491E-1,-2.822114229E-1,-4.008685052E-1
2.033621146E1,-5.268557742E-2,4.275931045E-3,-3.733803928E-1
2.035749906E1,3.504736125E-1,-9.736905098E-1,-4.051444530E-1
2.037878667E1,-1.944021434E-1,-1.038440317E-1,-5.352548957E-1
2.040007427E1,-4.230117425E-2,4.453076422E-1,-3.006895781E-1
2.042136188E1,1.617218107E-1,1.219861984E0,8.399149403E-3
2.044264948E1,2.240282297E-1,2.541124523E-1,4.566083103E-2
2.046393708E1,3.101576865E-1,5.265503526E-1,-2.756448388E-1
2.048522469E1,7.945595980E-1,5.393781066E-1,-4.595098495E-1
2.050651229E1,7.017107606E-1,4.019374847E-1,-2.029540092E-1
2.052779990E1,2.209739983E-1,2.687728032E-2,-3.817795310E-3
2.054908750E1,-2.463241518E-1,-7.317950130E-1,-1.064401343E-1
2.057037510E1,-2.029540092E-1,4.898995161E-1,2.417428046E-1
2.059166271E1,-5.975613594E-1,-3.884988427E-1,-3.985778242E-2
2.061295031E1,-3.654393852E-1,-5.528167486E-1,3.266505599E-1
2.063423786E1,-8.370898366E-1,-9.101624042E-2,-5.329642445E-2
2.065552547E1,-7.344674468E-1,7.568397522E-1,-3.385621011E-1
2.067681307E1,8.842013776E-2,-3.329117596E-1,-3.526115716E-1
2.069810068E1,-1.772984117E-1,7.049177289E-1,-5.450284481E-1
2.071938828E1,5.532749295E-1,-5.760289431E-1,-2.884726226E-1
2.074067588E1,-5.004366040E-1,2.822114229E-1,-2.622061968E-1
2.076196349E1,-6.305471063E-1,-8.319739699E-1,-1.003316641E-1
2.078325109E1,-7.032378912E-1,-2.174616307E-1,1.873773932E-1
2.080453870E1,-1.024619937E0,1.490467340E-1,5.971032009E-2
2.082582630E1,5.971032009E-2,-1.679829955E-1,5.679352283E-1
2.084711391E1,6.174138784E-1,-3.213056624E-1,8.098307252E-1
2.086840151E1,1.146865711E-1,7.513421178E-1,5.392253995E-1
2.088968911E1,7.803573459E-2,4.013266563E-1,4.231644273E-1
2.091097672E1,-1.211004704E-1,3.096995652E-1,-3.069507517E-2
2.093226432E1,1.556133330E-1,-4.275931045E-3,-7.284353673E-2
2.095355193E1,5.520532131E-1,-5.027272701E-1,4.382828996E-2
2.097483953E1,1.104106456E-1,-4.685198367E-1,-1.235438585E-1
2.099612714E1,-1.889045089E-1,-5.876350403E-1,-3.348970115E-1
2.101741474E1,-7.674532533E-1,3.359659761E-2,-2.115058601E-1
2.103870234E1,-7.111788988E-1,-4.776825607E-1,-1.375933439E-1
2.105998990E1,-1.479777545E-1,-6.145123243E-1,-2.658712566E-1
2.108127750E1,-8.994726092E-2,-5.351021886E-1,-5.358657837E-1
2.110256510E1,7.511894107E-1,-7.330167294E-1,-1.876828223E-1
2.112385271E1,1.403421611E-1,8.759549856E-1,-1.058292910E-1
2.114514031E1,5.575508475E-1,-4.031591862E-2,4.268295169E-1
2.116642792E1,4.005630910E-1,1.130067408E-1,1.006370857E-1
2.118771552E1,1.739387512E-1,3.353551328E-1,-5.334223509E-1
2.120900313E1,5.074613690E-1,8.735115826E-2,-2.951919436E-1
2.123029073E1,-2.225011140E-1,6.615476012E-1,-1.534753740E-1
2.125157833E1,1.476723254E-1,-3.677300513E-1,-6.245913357E-2
2.127286594E1,-4.784461260E-1,5.412106514E-1,5.787777901E-2
2.129415354E1,-8.689302206E-2,-1.905843467E-1,4.958552718E-1
2.131544114E1,-5.688515306E-1,5.363239050E-1,3.914003670E-1
2.133672875E1,-3.025220931E-1,-2.736595869E-1,3.138227761E-1
2.135801635E1,-1.002018571E0,5.418215394E-1,-3.770454824E-1
2.137930391E1,-5.138752460E-1,-6.365028620E-1,-3.807105422E-1
2.140059156E1,-1.059438229E0,-1.356080920E-1,-5.419742465E-1
2.142187911E1,-3.135173619E-1,-5.711421967E-1,2.594573796E-1
2.144316672E1,-4.112529159E-1,7.941014133E-3,6.699467301E-1
2.146445432E1,-4.051444530E-1,6.291726977E-2,8.336538076E-1
2.148574193E1,-5.413633585E-1,3.860554695E-1,5.648810267E-1
2.150702953E1,-2.336490713E-2,-2.724378705E-1,5.795413256E-1
2.152831714E1,1.421747059E-1,5.198310018E-1,6.070294380E-1
2.154960474E1,5.477772951E-1,-1.704263836E-1,7.420266867E-1
2.157089234E1,4.451549351E-1,3.823903799E-1,9.979717135E-1
2.159217995E1,4.469874799E-1,3.933856487E-1,9.442171454E-1
2.161346755E1,-1.473592639E0,-7.629482150E-1,-7.467607409E-2
2.163475516E1,3.444491386E0,-1.216884136E0,2.732243538E0
2.165604276E1,-1.125486046E-1,-1.346994519E0,2.405211031E-1
2.167733036E1,1.627144337E0,3.896060228E0,4.616478086E-1
2.169861797E1,-6.769714952E-1,-2.986508608E0,-1.193824649E0
2.171990552E1,-3.953709006E-1,7.696675658E-1,-5.818320066E-2
2.174119313E1,-5.841227174E-1,-3.805578351E-1,1.421747059E-1
2.176248073E1,-9.097806215E-1,1.327981949E0,-4.428642802E-3
2.178376833E1,-4.808894992E-1,-6.536065787E-2,-2.359397560E-1
2.180505594E1,-4.576773047E-1,2.785463631E-1,-5.041016936E-1
2.182634354E1,-3.501681983E-1,-1.380514801E-1,-9.361234307E-2
2.184763114E1,1.398076653E0,-1.050657257E-1,-5.114318728E-1
2.186891875E1,-4.081986845E-1,7.385143638E-1,-1.669140160E-1
2.189020635E1,1.027292371E0,-1.363487482E0,8.353336155E-2
2.191149396E1,-2.591519356E-1,-6.328377724E-1,-3.715478480E-1
2.193278156E1,3.675773442E-1,-4.947862923E-1,1.849340051E-1
2.195406917E1,-5.682406425E-1,7.452336699E-2,-3.800997138E-1
2.197535672E1,-2.768665254E-1,-4.685198367E-1,1.348445266E-1
2.199664432E1,-2.487675399E-1,1.362189353E-1,1.572931744E-2
2.201793193E1,-2.237228155E-1,8.918370306E-2,-2.903051674E-1
2.203921953E1,1.183516532E-1,-3.414636254E-1,-5.322006941E-1
2.206050714E1,-5.297572613E-1,1.472141892E-1,-9.885799289E-1
2.208179474E1,-1.681357026E-1,-6.786513329E-1,-7.570688128E-1
2.210308234E1,9.330692142E-2,-5.112791657E-1,-2.848075330E-1
2.212436995E1,3.466558084E-2,-5.803048983E-2,3.907895386E-1
2.214565755E1,-2.047865391E-1,-1.233911440E-1,6.204680800E-1
2.216694516E1,-5.059342384E-1,9.590301663E-2,3.736858070E-1
2.218823276E1,6.276455522E-2,-3.830012381E-1,3.663556576E-1
2.220952031E1,4.581354442E-4,2.150182426E-1,3.064926267E-1
2.223080792E1,6.711684465E-1,-2.394521236E-1,5.795413256E-1
2.225209552E1,3.889569938E-1,5.375456065E-2,6.093201414E-2
2.227338313E1,-4.259132445E-1,2.028012872E-1,-2.829749882E-1
2.229467073E1,-6.018372774E-1,-4.300364852E-1,-3.764346242E-1
2.231595833E1,-8.975636959E-1,4.056025743E-1,-5.095993280E-1
2.233724594E1,-6.433748603E-1,-3.579564989E-1,1.250709742E-1
2.235853354E1,-5.798467398E-1,6.291726977E-2,5.441122055E-1
2.237982114E1,-2.214321308E-2,-6.365028620E-1,7.634063363E-1
2.240110875E1,3.370349705E-1,-3.866663277E-1,7.884510756E-1
2.242239630E1,-2.860292196E-1,8.002099395E-2,-5.696150661E-2
2.244368391E1,-4.961606860E-1,2.583884001E-1,-3.788780272E-1
2.246497151E1,-5.635065958E-2,-1.191152185E-1,-4.485146105E-1
2.248625911E1,2.093679011E-1,-8.203678727E-1,-4.130854607E-1
2.250754672E1,6.815528274E-1,-7.721109390E-1,-3.587200642E-1
2.252883432E1,6.962131858E-1,1.759240031E-1,-4.362976551E-1
2.255012193E1,8.751913905E-1,2.406738251E-1,-3.446705639E-1
2.257140953E1,1.916533262E-1,9.309312105E-1,-7.540146112E-1
2.259269714E1,8.281561732E-1,-5.839699507E-1,-8.267053962E-1
2.261398469E1,3.645231128E-1,4.440859556E-1,-7.387434244E-1
2.263527229E1,6.332958937E-1,1.838650256E-1,-2.341072112E-1
2.265655990E1,2.441861928E-1,-3.176405653E-2,-3.495573401E-1
2.267784750E1,-5.755708218E-1,8.625163436E-1,-2.921377122E-1
2.269913510E1,3.565820754E-1,-5.454866290E-1,3.052709103E-1
2.272042271E1,-1.229330078E-1,5.228852630E-1,1.043021679E-1
2.274171031E1,2.698417902E-1,-3.585673273E-1,-8.139539510E-2
2.276299792E1,-3.446705639E-1,-3.970507160E-2,-4.882196784E-1
2.278428552E1,-1.772984117E-1,-2.192941606E-1,-1.632489264E-1
2.280557307E1,-5.486935377E-1,2.919849753E-1,2.160872221E-1
2.282686068E1,-1.437018216E-1,-5.369347334E-1,3.193204105E-1
2.284814828E1,-5.517477989E-1,-5.008947477E-2,-1.424801201E-1
2.286943588E1,-6.673506647E-2,1.417165697E-1,-8.933641016E-2
2.289072349E1,1.562241912E-1,4.422534108E-1,3.700207174E-1
2.291201109E1,5.917583108E-1,-5.925218388E-2,1.066386580E0
2.293329870E1,1.288735032E0,2.480039895E-1,1.556896925E0
2.295458630E1,9.741486907E-1,6.438329816E-1,1.205659747E0
2.297587385E1,9.387195110E-1,8.246438205E-2,9.778137207E-1
2.299716146E1,-4.485146105E-1,3.231382072E-1,-2.786990702E-1
2.301844906E1,-4.124746025E-1,7.769976854E-1,-3.275668323E-1
2.303973667E1,-8.028823733E-1,6.352811307E-2,-3.483356535E-1
2.306102427E1,-3.996468186E-1,-3.787252903E-1,-1.052184403E-1
2.308231188E1,-1.882936656E-1,-2.480039895E-1,-3.874298632E-1
2.310359948E1,3.649812192E-2,-3.671191931E-1,-2.554868758E-1
2.312488703E1,-5.120427012E-1,8.197570443E-1,-3.654393852E-1
2.314617464E1,2.496838123E-1,-6.847597957E-1,-2.567085624E-1
2.316746224E1,-3.513898849E-1,3.909422457E-1,-6.055023670E-1
2.318874984E1,2.228065431E-1,-7.293516397E-1,-4.833329022E-1
2.321003745E1,2.270824611E-1,4.037700295E-1,-4.657710344E-2
2.323132505E1,1.634016447E-2,-3.096995652E-1,-1.174353883E-1
2.325261266E1,5.471664071E-1,1.378071427E0,3.095468581E-1
2.327390021E1,1.580567211E-1,1.484358907E-1,-5.407525301E-1
2.329518781E1,1.116476059E0,4.947862923E-1,-2.548760176E-1
2.331647542E1,2.087570578E-1,6.951441765E-1,-3.715478480E-1
2.333776302E1,1.137244940E0,-7.757759839E-2,2.893888950E-1
2.335905063E1,3.119902313E-1,1.075702071E0,-1.359135192E-2
2.338033823E1,-4.308000207E-1,7.776085734E-1,1.281252056E-1
2.340162583E1,-1.021642014E-1,-3.549022675E-1,3.932329118E-1
2.342291338E1,-2.133384049E-1,-9.773556143E-3,1.409530044E-1
2.344420099E1,-2.597627938E-1,3.481829539E-2,2.661767006E-1
2.346548859E1,-3.452814221E-1,-2.052446753E-1,2.417428046E-1
2.348677620E1,-4.094203711E-1,-8.307522535E-2,3.431434333E-1
2.350806380E1,-1.149920002E-1,2.345653474E-1,4.567610323E-1
2.352935141E1,1.036913246E-1,-1.649287641E-1,2.435753495E-1
2.355063896E1,-4.271349311E-1,2.082989216E-1,-2.389939874E-1
2.357192656E1,1.989834905E-1,-3.408527672E-1,-2.334963679E-1
2.359321417E1,6.357392669E-1,-6.383354068E-1,1.751604527E-1
2.361450177E1,-6.146650314E-1,7.977665067E-1,-2.841966748E-1
2.363578938E1,6.223006248E-1,-5.143333673E-1,3.504736125E-1
2.365707698E1,6.642963737E-2,3.268032968E-1,4.286620617E-1
2.367836458E1,7.878402472E-1,-1.130067408E-1,7.401941419E-1
2.369965214E1,3.602471650E-1,7.941014171E-1,5.508314967E-1
2.372093974E1,1.415638477E-1,5.961869359E-1,5.233433843E-1
2.374222734E1,5.270084739E-1,2.993151546E-1,8.367080092E-1
2.376351495E1,1.033400893E0,-1.533226669E-1,9.448279738E-1
2.378480255E1,6.088619828E-1,1.936385781E-1,3.437542915E-1
2.380609016E1,-1.168245375E-1,-6.591041684E-1,-3.226800561E-1
2.382737771E1,-4.827220440E-1,-9.394831061E-1,-2.591519356E-1
2.384866531E1,-4.362976551E-1,-6.108472496E-2,-3.599417508E-1
2.386995292E1,3.466558084E-2,-4.789042473E-1,-2.725905776E-1
2.389124052E1,-1.827960461E-1,4.068242610E-1,-4.643966258E-1
2.391252812E1,-3.513898849E-1,-4.019374847E-1,-4.729484916E-1
2.393381573E1,-3.300102353E-1,-3.775036037E-1,-2.047865391E-1
2.395510328E1,5.758762360E-1,-5.216635466E-1,1.511846948E-2
2.397639088E1,5.270084739E-1,1.681662560E0,-5.737382770E-1
2.399767849E1,1.695101149E-2,3.481829539E-2,-1.346536398E0
2.401896609E1,-1.388150454E-1,-1.319506407E0,-5.022691488E-1
2.404025370E1,-2.640387416E-1,-6.755970716E-1,-2.090624720E-1
2.406154125E1,-3.691044450E-1,1.502684206E-1,5.453338623E-1
2.408282885E1,-9.464314580E-1,7.079719901E-1,2.380777150E-1
2.410411646E1,-5.914528370E-1,-8.961129189E-1,9.575030953E-2
2.412540406E1,-4.637857676E-1,-7.812736630E-1,-3.746020794E-1
2.414669167E1,-7.650098205E-1,-5.351021886E-1,-1.151065350E0
2.416797922E1,-6.598677635E-1,-1.911951900E-1,-9.085589647E-1
2.418926682E1,-4.949389994E-1,-5.589252710E-1,4.581354442E-4
2.421055443E1,-2.127275616E-1,-9.927031398E-1,5.111264586E-1
2.423184203E1,-4.399627447E-1,-2.388412803E-1,6.088619828E-1
2.425312964E1,-5.609105229E-1,-1.930277348E-1,1.433963925E-1
2.427441724E1,-1.711899489E-1,3.689517379E-1,4.066715539E-1
2.429570479E1,-9.926267900E-3,3.261924386E-1,3.981196880E-1
2.431699240E1,1.001025915E0,8.918370306E-2,9.332218766E-1
2.433828000E1,7.927270532E-1,9.174925685E-1,6.595623493E-1
2.435956760E1,9.350544214E-1,8.759549856E-1,7.695148587E-1
2.438085516E1,2.704526186E-1,1.502684206E-1,1.756185852E-2
2.440214276E1,-4.808894992E-1,7.543963790E-1,-2.377723008E-1
2.442343036E1,1.104106456E-1,-8.441908956E-1,9.941539168E-2
2.444471797E1,1.739387512E-1,2.137965411E-1,4.103366435E-1
2.446600557E1,5.697677732E-1,-6.896465421E-1,4.946335554E-1
2.448729312E1,3.064926267E-1,4.691306949E-1,2.295258641E-1
2.450857940E1,1.989834905E-1,2.302894145E-1,8.292251825E-2
2.452986701E1,3.205420971E-1,6.242858768E-1,-2.121167034E-1
2.455115461E1,7.371399403E-1,4.770717025E-1,-1.919587553E-1
2.457244222E1,7.139277458E-1,1.089751482E0,-1.094943732E-1
2.459372977E1,9.093988538E-1,1.404948682E-1,1.023169141E-2
2.461501737E1,8.220477104E-1,5.448757410E-1,1.293469071E-1
2.463630498E1,-5.456393361E-1,-4.178195298E-1,-1.105251789E0
2.465759258E1,7.444701195E-1,-3.720059693E-1,-6.971294284E-1
2.467888013E1,1.947075576E-1,6.334486008E-1,-2.396048307E-1
2.470016774E1,7.029324770E-1,-3.811686933E-1,6.412369013E-1
2.472145534E1,7.131642103E-2,1.325538605E-1,2.240282297E-1
2.474274294E1,-5.364766121E-1,3.164188862E-1,-2.231119573E-1
2.476403050E1,-2.702999115E-2,2.870982140E-2,9.575030953E-2
2.478531810E1,2.301367074E-1,-1.203369126E-1,-3.721587062E-1
2.480660571E1,-2.092151903E-2,2.180724740E-1,3.590254784E-1
2.482789331E1,3.527642787E-2,4.410317242E-1,2.197522968E-1
2.484918086E1,2.753393948E-1,-3.298575059E-2,5.176930502E-2
2.487046847E1,-2.145601064E-1,5.607577562E-1,-4.851654470E-1
2.489175607E1,5.117372870E-1,-3.921639323E-1,-3.191677108E-2
2.491304367E1,-1.583621502E-1,4.654656053E-1,-2.072299272E-1
2.493433128E1,2.790044844E-1,-1.844758689E-1,-9.300149232E-2
2.495561883E1,-2.841966748E-1,4.532486796E-1,-2.939702570E-1
2.497690643E1,-5.480827093E-1,-1.038440317E-2,-4.369085133E-1
2.499819404E1,2.338017821E-1,-7.879929990E-2,1.134648770E-1
2.501948164E1,4.640912116E-1,-4.214846194E-1,7.554653287E-1
2.504076919E1,-3.086305857E-1,5.008947477E-2,5.178457499E-1
2.506205680E1,-2.153236605E-2,-6.908682585E-1,3.468085229E-1
2.508334440E1,-8.523610234E-1,-3.726168349E-2,-6.673506647E-2
2.510463201E1,2.918322682E-1,-1.084941030E0,7.009471953E-2
2.512591956E1,-4.332434237E-1,-2.944283783E-1,-4.534013867E-1
2.514720716E1,3.205420971E-1,-1.001255035E0,-2.212794125E-1
2.516849477E1,-8.022715449E-1,-1.221694518E-2,-3.293993771E-1
2.518978237E1,-6.219952106E-1,-7.513421178E-1,7.192726433E-2
2.521106992E1,-5.993938446E-1,-5.534276366E-1,-1.516428292E-1
2.523235753E1,-8.896226883E-1,-4.031591862E-2,-5.364766121E-1
2.525364513E1,-5.609105229E-1,-1.606528312E-1,-5.688515306E-1
2.527493274E1,-8.920660615E-1,-8.857285231E-2,-5.254813433E-1
2.529622029E1,-2.951919436E-1,-5.650337338E-1,-3.654393852E-1
2.531750789E1,-8.920660615E-1,7.617265582E-1,-1.248190045E0
2.533879550E1,5.245651007E-1,-7.452336699E-2,-9.360470772E-1
2.536008305E1,2.160872221E-1,5.179984570E-1,-4.729484916E-1
2.538137065E1,4.695888162E-1,-1.905843467E-1,-8.750387281E-2
2.540265826E1,-1.339282542E-1,2.082989216E-1,-6.734590977E-2
2.542394586E1,-6.568135023E-1,7.757759839E-2,3.229855001E-1
2.544523341E1,-3.069507517E-2,-1.294996142E-1,1.433963925E-1
2.546652102E1,7.994463444E-1,1.240019947E-1,2.490729690E-1
2.548780862E1,1.394411564E0,6.175665855E-1,1.812689304E-1
2.550909617E1,9.552124143E-1,-1.343863904E-1,-8.704573847E-3
2.553038378E1,-4.155288339E-1,-5.662553906E-1,-3.055763543E-1
2.555167138E1,-1.151065350E0,2.504473738E-2,-2.273878902E-1
2.557295899E1,-1.455878139E0,2.449497581E-1,2.244863659E-2
2.559424654E1,-6.592568755E-1,-4.495835900E-1,1.036913246E-1
2.561553414E1,-3.538332880E-1,1.814216375E-1,9.391776472E-2
2.563682175E1,4.689779878E-1,-4.184303582E-1,1.058445573E0
2.565810930E1,4.628695250E-1,-1.215586066E-1,1.456107140E0
2.567939690E1,5.392253995E-1,-4.196520746E-1,1.169008970E0
2.570068451E1,-1.516428292E-1,-3.396310806E-1,6.003101468E-1
2.572197206E1,-8.682430387E-1,1.429382563E-1,-2.512109280E-1
2.574325966E1,-8.761840463E-1,-1.141749859E0,-8.419765830E-1
2.576454727E1,-1.659290195E0,2.589992285E-1,-1.198100567E0
2.578583487E1,6.956022978E-1,-1.777031064E0,-2.170034945E-1
2.580712242E1,-4.790569544E-1,3.603998721E-1,-4.362976551E-1
2.582841003E1,3.608580232E-1,-7.214106321E-1,1.317902952E-1
2.584969763E1,-1.053711493E-2,-7.696675509E-2,-3.252761811E-2
2.587098518E1,4.932591692E-2,-2.718270421E-1,-1.974563748E-1
2.589227279E1,2.794626169E-2,-1.539335102E-1,-4.601207078E-1
2.591356039E1,5.734328628E-1,-8.270871639E-1,-4.393518865E-1
2.593484794E1,5.422796607E-1,-4.422534108E-1,-8.126559258E-1
2.595613555E1,2.893888950E-1,8.289197087E-1,-7.491278052E-1
2.597742315E1,-1.969982497E-2,-3.665083554E-3,-9.042829871E-1
2.599871070E1,7.872294188E-1,4.984513521E-1,-8.560260534E-1
2.601999831E1,1.113421798E0,-9.468132257E-2,-5.034908652E-1
2.604128591E1,-3.802524135E-2,2.111164570E0,-4.234698713E-1
2.606257347E1,1.828113079E0,-1.345772862E0,1.879882365E-1
2.608386107E1,-1.036226034E0,1.511847019E0,-1.064401343E-1
2.610514867E1,8.397622705E-1,-7.305732965E-1,1.059667230E0
2.612643623E1,-8.468633890E-1,4.379774928E-1,3.914003670E-1
2.614772383E1,-7.326349020E-1,5.632011890E-1,3.480302393E-1
2.616901143E1,7.177455351E-3,-1.901033044E0,-3.019112647E-1
2.619029899E1,-4.271349311E-1,5.204418898E-1,-6.103891134E-1
2.621158659E1,-3.069507517E-2,-1.152134299E0,-4.607315361E-1
2.623287419E1,-8.444199562E-1,7.617265582E-1,3.810159862E-1
2.625416175E1,7.437065244E-2,-1.133198023E0,9.216157794E-1
2.627544935E1,-2.506000996E-1,4.996730685E-1,8.189934492E-1
2.629673690E1,-3.855973184E-1,2.199050039E-2,6.461237073E-1
2.631802451E1,4.152234197E-1,8.955020905E-1,8.544226289E-1
2.633931211E1,-3.619270027E-2,5.815265775E-1,2.912214398E-1
2.636059966E1,3.649812192E-2,9.254335761E-1,2.686200738E-1
2.638188727E1,2.637332976E-1,3.909422457E-2,3.260397315E-1
2.640317487E1,5.654918551E-1,-4.129327536E-1,1.690519750E-1
2.642446242E1,1.873773932E-1,8.704573512E-1,4.072824121E-1
2.644575003E1,3.771981969E-2,-8.918370306E-2,-1.131594554E-1
2.646703763E1,2.672456764E-2,2.052446753E-1,-1.687465608E-1
2.648832518E1,1.409530044E-1,-6.707102656E-1,1.267508045E-2
2.650961279E1,-6.612421572E-2,9.718579650E-1,5.337277651E-1
2.653090034E1,6.039752364E-1,-1.157021046E0,6.888830066E-1
2.655218794E1,-6.268820167E-1,1.679219127E0,-3.544441164E-1
2.657347555E1,8.550334573E-1,-2.029921770E0,-4.637857676E-1
2.659476310E1,2.283041626E-1,1.305380583E0,-6.458182931E-1
2.661605071E1,1.525591016E-1,-5.650337338E-1,-4.424061179E-1
2.663733831E1,-1.656923145E-1,8.594620824E-1,1.684411317E-1
2.665862586E1,8.414421231E-2,-1.875301152E-1,3.955236077E-2
2.667991347E1,1.189166903E0,1.190541267E0,-5.940489471E-2
2.670120102E1,2.386885732E-1,3.768927455E-1,-6.830799580E-1
2.672248862E1,7.273663878E-1,8.631271720E-1,-2.035648525E-1
2.674377623E1,-4.204156399E-1,-9.590301663E-2,-1.724116355E-1
2.676506378E1,1.097997949E-1,1.341420531E0,5.758762360E-1
2.678635138E1,-6.305471063E-1,-6.077930331E-1,3.498627543E-1
2.680763893E1,3.162661791E-1,9.529217482E-1,4.396573007E-1
2.682892654E1,-6.525375843E-1,-1.296294212E0,-6.830799580E-1
2.685021414E1,-1.827273250E0,1.601030707E0,-8.596911430E-1
2.687150169E1,-3.678827584E-1,-1.784972072E0,-2.090624720E-1
2.689278930E1,-5.883986354E-1,4.715740979E-1,1.659977436E-1
2.691407685E1,4.708105326E-1,-1.064172268E0,6.143596172E-1
2.693536446E1,1.817270555E-2,2.919849753E-1,3.290939629E-1
2.695665201E1,1.330119967E-1,2.956500649E-1,6.803311110E-1
2.697793961E1,1.818797737E-1,4.416425824E-1,9.002361298E-1
2.699922722E1,-3.226800561E-1,7.934905887E-1,5.813738704E-1
2.702051477E1,1.445111871E0,-8.020424247E-1,1.216655016E0
2.704180237E1,8.605310917E-1,1.627297044E0,1.107924223E0
2.706308992E1,7.212579250E-1,-2.932066843E-2,2.794626169E-2
2.708437753E1,-9.641460180E-1,5.717530251E-1,-7.466844320E-1
2.710566513E1,-5.737382770E-1,-1.157021046E0,-2.652604282E-1
2.712695268E1,1.012479365E-1,8.063183725E-2,4.989095032E-1
2.714824029E1,-4.668400288E-1,7.110261917E-1,6.497887969E-1
2.716952784E1,-1.718007922E-1,-4.715740979E-1,3.486410677E-1
2.719081544E1,-9.012287855E-1,-1.337755471E-1,-2.188360244E-1
2.721210300E1,6.693359017E-1,-5.027272701E-1,-3.055763543E-1
2.723339060E1,-2.212794125E-1,-7.782194018E-1,-4.662291706E-1
2.725467815E1,-3.232909143E-1,1.455649018E0,-5.731274486E-1
2.727596576E1,-5.957288146E-1,-1.021412969E0,-9.177216291E-1
2.729725331E1,-1.026452422E0,1.456870675E0,-6.287145615E-1
2.731854091E1,1.134648770E-1,-1.205888867E0,-3.923166394E-1
2.733982852E1,8.831323981E-1,7.653915882E-1,2.368560284E-1
2.736111607E1,1.608208179E0,-2.370087355E-1,2.557922900E-1
2.738240367E1,3.077143133E-1,1.211310148E0,-1.962346882E-1
2.740369123E1,4.445441067E-1,-1.649287529E-2,-1.974563748E-1
2.742497883E1,1.873773932E-1,6.536065787E-2,1.281252056E-1
2.744626638E1,-6.806365848E-1,9.187142849E-1,1.659977436E-1
2.746755399E1,5.360184610E-2,3.005368412E-1,1.061347127E-1
2.748884154E1,-2.420482337E-1,7.470661998E-1,-5.890094638E-1
2.751012914E1,6.461237073E-1,-6.322268844E-1,-8.871793151E-1
2.753141669E1,-3.391729295E-1,3.958290219E-1,-1.000186086E0
2.755270430E1,4.756973088E-1,-3.756710589E-1,3.248180151E-1
2.757399185E1,-2.212794125E-1,-6.450546980E-1,1.076771021E0
2.759527946E1,2.203631550E-1,-1.014006436E-1,1.981512189E0
2.761656701E1,-5.847335458E-1,4.373666346E-1,1.196497083E0
2.763785461E1,-1.327065676E-1,6.939224601E-1,1.007745266E0
2.765914216E1,-6.734590977E-2,6.328377724E-1,3.064926267E-1
2.768042977E1,7.389724851E-1,5.986303091E-2,-3.741439432E-2
2.770171732E1,7.267554998E-1,2.327328026E-1,-1.369825006E-1
2.772300492E1,-8.199861050E-1,8.521319032E-1,-9.391012788E-1
2.774429248E1,1.399909258E0,-1.656694174E0,3.419217467E-1
2.776558008E1,-1.022787333E0,9.981244206E-1,-2.090624720E-1
2.778686763E1,6.271874309E-1,1.258345395E-1,2.942756712E-1
2.780815524E1,-2.628170252E-1,-4.275930673E-2,-2.261662036E-1
2.782944279E1,-5.914528370E-1,1.478250325E-1,2.808370292E-1
2.785073039E1,-2.886253223E-2,-2.443389036E-3,5.483881235E-1
2.787201794E1,-8.682430387E-1,6.554391384E-1,-1.455343664E-1
2.789330555E1,5.483881235E-1,-1.082497716E0,1.904316396E-1
2.791459310E1,-5.207473040E-2,-1.624319196E0,-1.882936656E-1
2.793588071E1,2.887780368E-1,-6.132906675E-1,4.989095032E-1
2.795716826E1,8.231166750E-2,-7.244648337E-1,7.163711190E-1
2.797845586E1,-6.751389503E-1,2.644968629E-1,2.545706034E-1
2.799974341E1,-1.400367320E-1,-4.434750974E-1,-2.121167034E-1
2.802103102E1,6.546755433E-1,-5.558710173E-2,-6.306997687E-2
2.804231857E1,4.781406820E-1,1.704263836E-1,-3.684936166E-1
2.806360617E1,2.948864996E-1,8.649597168E-1,-3.373403847E-1
2.808489373E1,7.334748507E-1,2.272351831E-1,8.414421231E-2
2.810618133E1,4.439332485E-1,7.678350210E-1,-2.092151903E-2
2.812746888E1,8.964183182E-2,1.520398855E0,3.327590525E-1
2.814875643E1,8.684720993E-1,-1.152745128E0,-2.336490713E-2
2.817004404E1,-1.136404991E0,3.500154912E-1,-4.711159468E-1
2.819133159E1,-6.177192926E-1,-9.847621322E-1,2.061609551E-2
2.821261919E1,-5.444176197E-1,-1.034240723E0,1.421747059E-1
2.823390675E1,-1.232918859E0,-3.292466700E-1,7.314895838E-2
2.825519435E1,-1.228642941E0,-9.956810623E-2,-1.461452097E-1
2.827648190E1,-2.047865391E-1,-6.841489077E-1,3.248180151E-1
2.829776946E1,7.304205894E-1,7.452336699E-2,1.205048919E0
2.831905706E1,1.136023164E0,-3.420744836E-2,1.688839912E0
2.834034461E1,4.854708612E-1,4.679090083E-1,1.250251651E0
2.836163222E1,8.348754644E-1,-1.942494214E-1,1.390135646E0
2.838291977E1,1.678302884E-1,9.761339426E-1,5.716003180E-1
2.840420737E1,2.460187376E-1,3.255815804E-1,-3.330644667E-1
2.842549492E1,-1.179164290E0,-3.054236248E-2,-1.051497221E0
2.844678248E1,6.400152445E-1,-1.888816118E0,-4.900522232E-1
2.846807008E1,-4.326325655E-1,-7.110261917E-1,-1.065546632E0
2.848935763E1,1.104106456E-1,6.664343476E-1,-5.065450668E-1
2.851064524E1,-2.622061968E-1,-1.235209465E0,-4.503471553E-1
2.853193279E1,-7.020162344E-1,-2.217375487E-1,5.238015205E-2
2.855322034E1,6.154286116E-2,-1.421517968E0,1.055238619E-1
2.857450794E1,1.262926757E-1,-1.985253543E-1,5.115845799E-2
2.859579550E1,2.087570578E-1,-4.086568058E-1,-2.206685692E-1
2.861708310E1,-3.318427801E-1,-2.901524603E-1,-4.992149174E-1
2.863837065E1,-4.094203711E-1,1.649287641E-1,-1.023398280E0
2.865965821E1,4.726430774E-1,1.814216375E-1,-6.769714952E-1
2.868094581E1,7.841751575E-1,1.740914732E-1,-5.132644176E-1
2.870223336E1,7.065975666E-1,9.242119193E-1,-3.636068404E-1
2.872352097E1,1.233147860E0,3.133646548E-1,-2.719797492E-1
2.874480852E1,-6.293253899E-1,1.391510010E0,-2.023431510E-1
2.876609607E1,5.147915483E-1,-6.658235192E-2,7.511894107E-1
2.878738367E1,-2.750339806E-1,-5.741964281E-2,2.942756712E-1
2.880867123E1,-7.631772757E-1,-6.413896084E-1,-2.947338112E-2
2.882995883E1,-1.376467943E0,1.341420531E0,-4.979932308E-1
2.885124638E1,-5.548020005E-1,-1.422739625E0,-4.790569544E-1
2.887253393E1,-1.549948573E0,1.181378603E0,2.305948362E-2
2.889382154E1,6.235223413E-1,-1.214440703E0,1.230093718E0
2.891510909E1,6.986565590E-1,-3.665083647E-1,9.185615778E-1
2.893639664E1,1.304617047E0,1.472752690E0,1.149461865E0
2.895768425E1,8.764131069E-1,-4.251496792E-1,1.012021184E0
2.897897180E1,7.023216486E-1,1.065317631E0,1.387081385E0
2.900025935E1,2.331909388E-1,5.961869359E-1,5.416688323E-1
2.902154696E1,-8.078455180E-2,1.008508801E0,2.466295809E-1
2.904283451E1,-1.992889196E-1,3.756710589E-1,-6.311579347E-1
2.906412206E1,-3.184041381E-1,1.023779988E0,-6.329904795E-1
2.908540966E1,-5.981721878E-1,3.683409095E-1,-8.688538671E-1
2.910669722E1,-1.143811494E-1,-1.637070626E-1,-4.173613787E-1
2.912798482E1,-5.181511641E-1,-4.520269632E-1,-4.918847680E-1
2.914927237E1,3.425326049E-1,-8.808417320E-1,1.421747059E-1
2.917055992E1,-3.471139669E-1,-1.116705179E0,-9.666658193E-2
2.919184753E1,-5.352548957E-1,-1.606528312E-1,-8.628217876E-2
2.921313508E1,-2.615953386E-1,-1.921801805E0,-2.646495700E-1
2.923442263E1,-1.840177327E-1,-2.003578991E-1,-1.998997629E-1
2.925571024E1,1.684411317E-1,3.323009014E-1,-7.162184268E-2
2.927699779E1,1.476723254E-1,1.641957402E0,3.510844707E-1
2.929828534E1,7.200362086E-1,1.710372418E-2,1.220167428E-1
2.931957294E1,9.503256083E-1,9.003888369E-1,-9.926267900E-3
2.934086050E1,1.418234587E0,2.070772201E-1,-9.972081333E-2
2.936214805E1,9.368869662E-1,8.698465228E-1,2.954973578E-1
2.938343560E1,-5.114318728E-1,8.081509471E-1,5.044071078E-1
2.940472321E1,-1.760767251E-1,-4.404208660E-1,8.483141065E-1
2.942601076E1,-7.558471560E-1,4.404208660E-1,3.894151375E-2
2.944729831E1,4.604261220E-1,-9.718579650E-1,-6.317687631E-1
2.946858591E1,-1.097921610E0,3.420744538E-1,-1.488863826E0
2.948987347E1,-4.596625641E-2,-7.989882231E-1,-1.108916879E0
2.951116102E1,-6.843016148E-1,-6.029062271E-1,-7.931088209E-1
2.953244857E1,9.827005267E-1,-1.579116464E0,6.375718117E-1
2.955373617E1,-3.422271907E-1,-1.466033459E-1,1.513374150E-1
2.957502373E1,5.593833923E-1,1.771457046E-1,4.152234197E-1
2.959631128E1,-3.807105422E-1,8.386932611E-1,-1.235438585E-1
2.961759888E1,-7.040014863E-2,-1.233911440E-1,2.906105816E-1
2.963888643E1,1.016907930E0,2.901524603E-1,8.464815617E-1
2.966017399E1,1.147629261E0,-1.643179059E-1,7.682931423E-1
2.968146154E1,9.680401683E-1,9.315420985E-1,6.154286116E-2
2.970274914E1,1.562241912E-1,1.649287529E-2,-4.399627447E-1
2.972403669E1,-2.677038014E-1,1.252236813E-1,-9.030613303E-1
2.974532425E1,-3.465031087E-1,-7.049177289E-1,-6.030589342E-1
2.976661185E1,-3.232909143E-1,2.602209449E-1,-5.260922313E-1
2.978789940E1,2.899997234E-1,-1.569342971E0,-1.259872466E-1
2.980918696E1,-4.625640810E-1,4.129327536E-1,-2.835858464E-1
2.983047451E1,-3.006895781E-1,-9.443698525E-1,-4.619532526E-1
2.985176211E1,-3.098522723E-1,-2.779355049E-1,-3.880407214E-1
2.987304966E1,5.848862603E-2,9.040539712E-2,-1.375933439E-1
2.989433722E1,2.814478874E-1,-5.754181147E-1,-6.184828654E-2
2.991562477E1,-6.018372774E-1,6.358919740E-1,-5.450284481E-1
2.993691237E1,-1.626380831E-1,-7.763868570E-1,-7.350783348E-1
2.995819992E1,-1.143811494E-1,4.269822240E-1,-7.595121861E-1
2.997948748E1,2.973299026E-1,-1.826433241E-1,-4.210264683E-1
3.000077503E1,2.954973578E-1,2.877090573E-1,-2.487675399E-1
3.002206263E1,4.194993675E-1,2.473931462E-1,-3.953709006E-1
3.004335018E1,-3.489464819E-1,8.490777016E-1,-3.220692277E-1
3.006463774E1,3.266505599E-1,3.280249834E-1,1.971509457E-1
3.008592529E1,-2.825168520E-2,1.850867122E-1,3.038965166E-2
3.010721289E1,-5.328115225E-1,5.674771070E-1,-1.424801201E-1
3.012850044E1,-1.072876811E0,-7.592831254E-1,-5.938962698E-1
3.014978800E1,-9.788063765E-1,-5.583143830E-1,-2.377723008E-1
3.017107555E1,-5.364766121E-1,-1.368297935E-1,2.765611112E-1
3.019236315E1,-7.284353673E-2,-1.478250325E-1,4.671454430E-1
3.021365071E1,1.959292591E-1,-2.223484069E-1,7.188144922E-1
3.023493826E1,1.855448484E-1,2.706053257E-1,1.210546613E0
3.025622581E1,7.182036638E-1,9.468132257E-2,1.547123432E0
3.027751336E1,2.710634768E-1,6.114581227E-1,8.727480173E-1
3.029880096E1,8.507575393E-1,2.144073844E-1,1.213600755E0
3.032008852E1,9.941539168E-2,5.913001299E-1,6.870504618E-1
3.034137607E1,-2.886253223E-2,6.022953987E-1,5.764871240E-1
3.036266362E1,-6.452074051E-1,4.715740979E-1,-1.559187621E-1
3.038395117E1,2.643441558E-1,-9.064973593E-1,-4.240806997E-1
3.040523878E1,8.964183182E-2,-7.788302302E-1,-9.177216291E-1
3.042652633E1,2.118112892E-1,-1.282779276E-1,-8.120450974E-1
3.044781388E1,-3.947600424E-1,-1.582094431E-1,-8.181535602E-1
3.046910143E1,-3.770454824E-1,-1.442286730E0,-6.940752268E-1
3.049038899E1,-2.811424434E-1,-3.823903799E-1,-4.588989913E-1
3.051167659E1,-5.573981255E-2,-8.722898960E-1,-2.725905776E-1
3.053296414E1,-1.217113137E-1,2.870982140E-2,-4.362976551E-1
3.055425169E1,-9.605573118E-2,2.577775419E-1,-5.120427012E-1
3.057553925E1,5.471664071E-1,-4.666872919E-1,-6.916317940E-1
3.059682680E1,7.237012982E-1,1.185654521E0,-7.808918357E-1
3.061811440E1,1.011410356E0,-3.927747905E-1,-6.097782850E-1
3.063940196E1,1.220167428E-1,9.590302110E-1,-4.106420577E-1
3.066068951E1,6.948387623E-2,2.290677279E-1,-2.066190839E-1
3.068197706E1,-2.567085624E-1,4.709632397E-1,5.955760833E-3
3.070326461E1,-6.262711287E-1,4.398100376E-1,8.292251825E-2
3.072455216E1,-5.157077909E-1,2.687727809E-1,1.653869003E-1
3.074583977E1,-2.848075330E-1,-5.076140761E-1,3.283303976E-2
3.076712732E1,-1.063714147E0,4.135435820E-1,1.464506239E-1
3.078841487E1,-4.424061179E-1,-2.907632887E-1,8.067765236E-1
3.080970242E1,6.093201414E-2,2.333436459E-1,1.209324837E0
3.083098998E1,-2.092151903E-2,1.918060333E-1,1.125638843E0
3.085227753E1,-3.558185324E-2,-1.026223376E-1,7.224795818E-1
3.087356513E1,2.130329758E-1,-6.694886088E-1,7.017107606E-1
3.089485268E1,-2.970244884E-1,3.304683566E-1,8.556442857E-1
3.091614024E1,6.051968932E-1,8.112051487E-1,1.076771021E0
3.093742779E1,1.032179117E0,5.436540768E-2,6.668924689E-1
3.095871534E1,8.047912270E-2,2.064740181E0,-7.482878864E-3
3.098000289E1,7.768449783E-1,-6.059604883E-1,-2.970244884E-1
3.100129050E1,-2.267770469E-1,2.626643181E-1,-6.146650314E-1
3.102257800E1,6.534538269E-1,-1.220549226E0,-2.353289127E-1
3.104386560E1,-3.532224298E-1,9.345962852E-2,2.698417902E-1
3.106515315E1,-2.909159958E-1,-6.945333481E-1,4.329380095E-1
3.108644070E1,-5.474718809E-1,-2.724378705E-1,2.686200738E-1
3.110772826E1,1.152974218E-1,-6.664343476E-1,1.152974218E-1
3.112901581E1,1.012479365E-1,-4.312581718E-1,-5.267030597E-1
3.115030336E1,2.631224692E-1,-6.927008033E-1,-1.110138535E0
3.117159097E1,-6.653653979E-1,6.200099587E-1,-1.863313198E0
3.119287852E1,-2.634278834E-1,1.030499339E0,-1.318437457E0
3.121416607E1,7.072083950E-1,-3.939964771E-1,-3.214583695E-1
3.123545362E1,9.075663090E-1,6.969767213E-1,5.215108395E-1
3.125674117E1,6.815528274E-1,1.783674061E-1,8.837432861E-1
3.127802873E1,-1.944021434E-1,1.037829518E0,3.003841341E-1
3.129931628E1,-5.633538961E-1,1.020114943E-1,-1.705790907E-1
3.132060383E1,-5.291464329E-1,6.780404598E-2,-5.389199853E-1
3.134189143E1,4.695888162E-1,-3.878880143E-1,-2.927485406E-1
3.136317899E1,-8.261708915E-2,2.638860047E-1,-2.640387416E-1
3.138446654E1,-6.097782850E-1,-8.124268800E-2,-1.374406274E-3
3.140575409E1,-3.910949528E-1,-2.589992285E-1,2.832804024E-1
3.142704164E1,-5.926745534E-1,1.661504507E-1,1.641651988E-1
3.144832919E1,2.533488870E-1,-1.053787827E0,5.435013771E-1
3.146961675E1,-4.344651103E-1,-6.108472589E-4,1.995943487E-1
3.149090430E1,-2.970244884E-1,-2.932066917E-1,2.551814318E-1
3.151219185E1,5.726693198E-2,3.261924386E-1,6.461237073E-1
3.153347940E1,6.398624927E-2,1.973036677E-1,4.824166298E-1
3.155476701E1,4.946335554E-1,-3.561239541E-1,6.748335361E-1
3.157605456E1,4.506525695E-1,2.516690791E-1,4.182776511E-1
3.159734211E1,4.353813827E-1,-1.148392856E-1,4.993676394E-2
3.161862966E1,-5.670189857E-1,7.385143638E-1,-5.163186193E-1
3.163991722E1,-9.788827598E-2,-1.747023165E-1,-8.138776422E-1
3.166120477E1,-7.956285775E-2,3.866663277E-1,-7.637881637E-1
3.168249232E1,8.941276670E-1,-8.252546191E-1,-3.886515796E-1
3.170377987E1,-5.028799772E-1,9.437590241E-1,-6.360446811E-1
3.172506742E1,2.973299026E-1,-9.388722181E-1,-3.837648034E-1
3.174635498E1,-9.055810422E-2,-1.881409585E-1,-1.785201132E-1
3.176764253E1,9.765920639E-1,-1.574840546E0,5.752654076E-1
3.178893008E1,-1.382041872E-1,9.016105533E-1,1.837123185E-1
3.181021768E1,-3.605526090E-1,-1.154501289E-1,-9.300149232E-2
3.183150524E1,-4.772244096E-1,8.429691941E-2,-5.816792846E-1
3.185279279E1,2.765611112E-1,1.048824787E0,-8.034932017E-1
3.187408034E1,1.312558055E0,-2.076880634E-2,-5.517477989E-1
3.189536789E1,8.525900841E-1,1.458703279E0,-4.002576768E-1
3.191665544E1,1.568350345E-1,3.524588645E-1,-7.345438004E-2
3.193794300E1,-9.018396139E-1,6.786513329E-1,1.501157135E-1
3.195923055E1,-1.005683661E0,1.215586066E-1,6.852179170E-1
3.198051810E1,-8.615236878E-1,-1.166718230E-1,6.241331697E-1
3.200180565E1,-4.656183124E-1,-8.368607163E-1,-1.481304597E-2
3.202309320E1,-1.113192797E0,7.342383862E-1,-2.732014358E-1
3.204438076E1,2.527380586E-1,-1.199169517E0,5.074613690E-1
3.206566831E1,-2.652604282E-1,-2.412846684E-1,8.574768305E-1
3.208695586E1,7.437065244E-2,-1.040349245E0,9.655967951E-1
3.210824341E1,-9.085589647E-1,3.329117596E-1,7.133168578E-1
3.212953096E1,-1.284306347E-1,2.602209449E-1,9.686510563E-1
3.215081852E1,-3.593308926E-1,3.072561622E-1,3.865135908E-1
3.217210607E1,2.582356930E-1,7.470661998E-1,4.749337584E-2
3.219339362E1,8.183826208E-1,-1.026223376E-1,2.313583940E-1
3.221468117E1,5.942016840E-1,1.343863904E-1,-6.612421572E-2
3.223596873E1,4.989095032E-1,-2.883199155E-1,-1.992889196E-1
3.225725628E1,-2.780882120E-1,8.307522535E-2,-4.784461260E-1
3.227854383E1,5.360184610E-2,-1.006141782E0,-4.992149174E-1
3.229983138E1,-3.489464819E-1,-3.658975065E-1,-8.450308442E-1
3.232111893E1,-7.332457900E-1,-8.460234404E-1,-8.609128594E-1
3.234240649E1,-7.808918357E-1,-3.487937748E-1,-7.961630225E-1
3.236369404E1,-3.104631305E-1,-7.244648337E-1,-6.733064055E-1
3.238498159E1,-7.650861889E-2,-3.756710589E-1,-6.476507783E-1
3.240626914E1,2.704526186E-1,-9.162709117E-3,-5.993938446E-1
3.242755669E1,3.588727489E-2,2.510582209E-1,-6.940752268E-1
3.244884425E1,2.081461996E-1,5.448757410E-1,-3.171824515E-1
3.247013180E1,-1.363716573E-1,6.181774139E-1,-1.265980899E-1
3.249141935E1,8.226585388E-1,-2.901524603E-1,6.064186096E-1
3.251270690E1,7.982246280E-1,-1.221694518E-2,2.771719396E-1
3.253399446E1,1.878355257E-2,6.780404449E-1,1.757712960E-1
3.255528201E1,-3.513898849E-1,-4.275931045E-3,-2.641914412E-2
3.257656956E1,-1.088835225E-1,-2.089097649E-1,5.960342288E-1
3.259785711E1,-9.146674275E-1,2.070772201E-1,5.178457499E-1
3.261914466E1,-4.839437306E-1,-3.096995652E-1,6.699467301E-1
3.264043222E1,-8.511393070E-1,2.620534599E-1,1.145338640E-2
3.266171977E1,-1.235438585E-1,-5.790832043E-1,1.061347127E-1
3.268300732E1,3.852919042E-1,-3.304683566E-1,3.785725832E-1
3.270429487E1,4.781406820E-1,-7.818844914E-1,6.558972597E-1
3.272558242E1,1.568350345E-1,-4.367557764E-1,8.220477104E-1
3.274686998E1,-4.442386627E-1,-2.480039895E-1,1.603932142E0
3.276815753E1,-5.719057322E-1,2.443388999E-1,1.683953166E0
3.278944508E1,-6.445965767E-1,1.349972486E-1,1.271631241E0
3.281073263E1,-1.608055383E-1,1.035996914E0,3.449759781E-1
3.283202018E1,5.844281316E-1,-5.625903010E-1,-4.204156399E-1
3.285330774E1,-1.235362172E0,1.127013206E0,-1.669674635E0
3.287459529E1,8.055548072E-1,-1.207110524E0,-9.604809880E-1
3.289588284E1,-2.389939874E-1,-2.547233105E-1,-1.117468715E0
3.291717039E1,2.295258641E-1,-4.648547769E-1,-2.719797492E-1
3.293845794E1,-7.576796412E-1,-9.156600237E-1,-3.220692277E-1
3.295974550E1,-4.369085133E-1,-7.843278646E-1,-1.669140160E-1
3.298103305E1,3.437542915E-1,-6.981984377E-1,4.382828996E-2
3.300232060E1,6.730009913E-1,-1.685938388E-1,-5.926745534E-1
3.302360815E1,2.673983872E-1,-3.206948042E-1,-7.686749101E-1
3.304489565E1,1.611109674E-1,1.728697717E-1,-6.897992492E-1
3.306618320E1,7.652388811E-1,-6.749862432E-1,-5.712949038E-1
3.308747076E1,4.683671296E-1,1.830174685E0,-1.314848661E-1
3.310875831E1,9.277243018E-1,-1.961506963E0,-3.972034156E-1
3.313004586E1,4.201101959E-1,2.739726305E0,-1.437018216E-1
3.315133341E1,1.309503794E0,-1.201002121E0,3.162661791E-1
3.317262096E1,-4.405735731E-1,1.957230926E0,4.689779878E-1
3.319390852E1,-2.713688910E-1,-1.105633527E-1,7.970029712E-1
3.321519607E1,-2.336490713E-2,-6.145123243E-1,3.242071867E-1
3.323648362E1,-9.818606377E-1,3.695625961E-1,-5.499152541E-1
3.325777117E1,-9.195541739E-1,-8.197570443E-1,-9.641460180E-1
3.327905867E1,-3.678827584E-1,-7.287407517E-1,-5.083776116E-1
3.330034623E1,-3.104631305E-1,-5.955760479E-1,4.500417113E-1
3.332163378E1,-2.725905776E-1,-3.897205591E-1,7.059867382E-1
3.334292133E1,-8.798491359E-1,1.649287529E-2,6.467345357E-1
3.336420888E1,-2.903051674E-1,-2.858765125E-1,1.053558826E0
3.338549643E1,7.864658535E-2,7.824953198E-1,9.228374958E-1
3.340678399E1,1.209935665E0,3.787253052E-2,1.152516007E0
3.342807154E1,1.175728321E0,1.189930439E0,6.839962006E-1
3.344935909E1,1.257581830E0,-9.162709117E-2,1.378987730E-1
3.347064664E1,8.597674966E-2,9.339854717E-1,-1.013013840E0
3.349193419E1,4.201101959E-1,-8.692356348E-1,-1.284229994E0
3.351322169E1,-2.041756958E-1,-7.330167294E-2,-1.508410931E0
3.353450925E1,-1.687465608E-1,-3.329117596E-1,-8.493067622E-1
3.355579680E1,-4.735593498E-1,-5.418215394E-1,-2.628170252E-1
3.357708435E1,-7.735617161E-1,-8.301414251E-1,-6.184828654E-2
3.359837190E1,-1.919587553E-1,-1.412966013E0,-1.374406274E-3
3.361965946E1,-5.993938446E-1,2.742704153E-1,-5.499152541E-1
3.364094701E1,-8.896226883E-1,-1.227803007E-1,-7.001836896E-1
3.366223456E1,-3.130592033E-2,1.997470558E-1,5.344913341E-3
3.368352211E1,3.944546282E-1,5.326588154E-1,2.246390730E-1
3.370480961E1,1.969906092E0,1.478250325E-1,1.197107911E0
3.372609716E1,1.611262321E0,1.276059866E0,5.117372870E-1
3.374738472E1,9.649859667E-1,6.084038615E-1,3.455868363E-1
3.376867227E1,-5.468609929E-1,1.134954214E0,-2.725905776E-1
3.378995982E1,-5.560237169E-1,-5.387672782E-1,-2.768665254E-1
3.381124737E1,-5.047125220E-1,-3.237490356E-2,-6.336013079E-1
3.383253492E1,-8.994726092E-2,-8.863393664E-1,-8.273162842E-1
3.385382242E1,-8.022715449E-1,1.331647038E-1,-1.369137764E0
3.387510998E1,-4.779879749E-2,-1.438621640E0,-6.739172339E-1
3.389639753E1,-6.806365848E-1,1.282779220E-2,-1.516428292E-1
3.391768508E1,-2.725905776E-1,-7.727217674E-1,1.048672080E0
3.393897263E1,-7.472952604E-1,1.417165697E-1,1.384638071E0
3.396026018E1,-9.605573118E-2,3.597890437E-1,1.711441278E0
3.398154774E1,-6.612421572E-2,-2.272351831E-1,8.171609044E-1
3.400283524E1,1.016907930E0,6.291726828E-1,5.783196688E-1
3.402412279E1,1.197718740E0,-5.986303091E-1,-2.133384049E-1
3.404541034E1,8.281561732E-1,5.149442554E-1,-4.161396921E-1
3.406669789E1,-2.371614426E-1,-3.939964771E-1,-4.717268050E-1
3.408798544E1,-1.269569635E0,3.567348123E-1,-5.517477989E-1
3.410927300E1,-1.510319859E-1,-8.264763355E-1,2.906105816E-1
3.413056050E1,-7.069029808E-1,5.528167486E-1,3.046600819E-1
3.415184805E1,-4.472928941E-1,-5.833591223E-1,3.932329118E-1
3.417313560E1,1.342336833E-1,-2.272351831E-1,4.304946065E-1
3.419442315E1,5.135698318E-1,-1.447708011E-1,-8.139539510E-2
3.421571070E1,2.203631550E-1,-2.321219631E-2,-5.248705149E-1
3.423699826E1,-2.389939874E-1,-1.392731816E-1,-1.121744633E0
3.425828576E1,-4.405735731E-1,-3.054236174E-1,-7.582905293E-1
3.427957331E1,-4.020902216E-1,-4.337015375E-2,-4.802786708E-1
3.430086086E1,3.466558084E-2,-3.732276857E-1,-4.253024161E-1
3.432214841E1,-2.886253223E-2,-3.854446113E-1,-4.631749392E-1
3.434343597E1,-8.200624585E-2,1.130067408E-1,-4.295783341E-1
3.436472352E1,3.584146202E-1,-3.054236295E-3,1.348445266E-1
3.438601102E1,1.849340051E-1,1.203369141E0,4.042281806E-1
3.440729857E1,3.516952991E-1,5.680879578E-2,4.396573007E-1
3.442858612E1,-6.551336497E-2,-1.325538605E-1,-2.756448388E-1
3.444987367E1,2.374668717E-1,-6.688777208E-1,-6.726955175E-1
3.447116117E1,-8.444963396E-2,3.958290219E-1,-3.648285270E-1
3.449244873E1,4.427115619E-1,2.712161839E-1,2.215848416E-1
3.451373628E1,1.592784226E-1,8.380824327E-1,5.422796607E-1
3.453502383E1,1.574458778E-1,4.104893506E-1,4.805840850E-1
3.455631138E1,-1.944021434E-1,3.506263196E-1,2.435753495E-1
3.457759893E1,-2.542651594E-1,4.593571424E-1,5.482354015E-2
3.459888643E1,-7.056813240E-1,2.754921019E-1,-2.811424434E-1
3.462017399E1,-1.705790907E-1,-1.205278039E0,-2.451024652E-1
3.464146154E1,-9.519290924E-1,-3.396310806E-1,-4.747810364E-1
3.466274909E1,-3.269560039E-1,-6.139014959E-1,3.168770075E-1
3.468403659E1,-6.592568755E-1,-2.693836391E-1,5.642701387E-1
3.470532414E1,-4.136963189E-1,-1.356080920E-1,8.666395545E-1
3.472661169E1,-1.473668963E-1,-3.665083554E-3,6.864396334E-1
3.474789925E1,4.427115619E-1,1.997470558E-1,4.585935771E-1
3.476918675E1,3.468085229E-1,-1.814216375E-1,2.901524538E-3
3.479047430E1,6.235223413E-1,5.680879578E-2,-1.406475753E-1
3.481176185E1,2.197522968E-1,1.142284349E-1,-4.259132445E-1
3.483304940E1,3.028275371E-1,2.736595869E-1,1.018587798E-1
3.485433696E1,4.581354442E-4,-6.719319522E-2,8.170082420E-2
3.487562446E1,-5.114318728E-1,-4.282039404E-1,3.999522328E-1
3.489691201E1,-2.652604282E-1,-3.652866483E-1,4.995203316E-1
3.491819956E1,-2.615953386E-1,7.629482150E-1,1.030804738E-1
3.493948706E1,6.791094542E-1,-9.199360013E-1,3.828485310E-1
3.496077461E1,1.018587798E-1,2.589992285E-1,-2.170034945E-1
3.498206216E1,1.586675793E-1,-6.059604883E-1,-2.976353168E-1
3.500334972E1,1.672194302E-1,2.150182426E-1,-2.597627938E-1
3.502463727E1,1.006370857E-1,5.858024955E-1,-5.039489828E-3
3.504592477E1,4.695888162E-1,5.143333673E-1,1.482831687E-1
3.506721232E1,2.305948362E-2,2.467822880E-1,-2.347180545E-1
3.508849987E1,1.878355257E-2,2.816005945E-1,-4.839437306E-1
3.510978742E1,-2.738122940E-1,3.042019308E-1,-7.863894701E-1
3.513107492E1,5.783196688E-1,-7.971556783E-1,-7.834116369E-2
3.515236248E1,-3.232909143E-1,8.753440976E-1,-5.146388337E-2
3.517365003E1,6.736118197E-1,-9.657495022E-1,3.797942698E-1
3.519493753E1,-5.859552622E-1,1.560103893E0,1.012479365E-1
3.521622508E1,2.411319613E-1,3.561239541E-1,3.639122546E-1
3.523751263E1,8.953493834E-1,3.347443044E-1,5.392253995E-1
3.525880018E1,1.065775752E0,7.812736630E-1,4.384356141E-1
3.528008768E1,1.189777732E0,5.118899941E-1,7.864658535E-2
3.530137524E1,-3.190149665E-1,-1.472141892E-1,-3.935383558E-1
3.532266279E1,-1.235438585E-1,1.710372418E-2,-1.577513069E-1
3.534395029E1,-4.729484916E-1,-1.117316008E0,6.887302548E-2
3.536523784E1,-1.509021759E0,1.309045672E0,-8.933641016E-2
3.538652539E1,1.137855768E0,-1.850943565E0,7.792884111E-1
3.540781294E1,-8.193752170E-1,1.028055906E0,-8.004390001E-1
3.542910044E1,-4.466820657E-1,1.540556788E0,-9.598701000E-1
3.545038800E1,6.339067221E-1,-3.064086199E0,-5.529694557E-1
3.547167555E1,-1.057605624E0,1.221083641E0,-6.751389503E-1
3.549296305E1,6.186355352E-1,-2.204013348E0,5.966450572E-1
3.551425060E1,-4.002576768E-1,1.671278119E0,6.974348426E-1
3.553553815E1,-5.028799772E-1,5.772506595E-1,4.078932703E-1
3.555682565E1,7.864658535E-2,-4.978405237E-1,4.298837483E-1
3.557811320E1,6.894938350E-1,-5.943543911E-1,-2.475458533E-1
3.559940076E1,3.150444627E-1,-2.583884001E-1,-1.082726792E-1
3.562068826E1,-6.678087711E-1,-2.272351831E-1,-5.853443742E-1
3.564197581E1,-4.198047817E-1,-1.808107942E-1,-4.760027230E-1
3.566326336E1,2.672456764E-2,-1.284077287E0,1.378987730E-1
3.568455091E1,-1.974563748E-1,8.069292307E-1,3.425326049E-1
3.570583841E1,2.576248348E-1,-5.583143830E-1,1.256818175E-1
3.572712596E1,5.238015205E-2,4.935645759E-1,3.907895386E-1
3.574841352E1,1.623326540E-1,-1.869192570E-1,2.124221325E-1
3.576970102E1,1.293469071E-1,9.284878522E-2,2.429644912E-1
3.579098857E1,7.192726433E-2,-7.085828483E-2,-4.840964451E-2
3.581227607E1,-4.198047817E-1,1.832541777E-3,-3.452814221E-1
3.583356362E1,7.585195899E-1,-1.359822392E0,2.527380586E-1
3.585485117E1,1.267508045E-2,6.267293096E-1,1.572931744E-2
3.587613873E1,2.887780368E-1,8.918370306E-2,2.014268786E-1
3.589742623E1,-1.504211426E-1,1.820324808E-1,-7.040014863E-2
3.591871378E1,4.194993675E-1,-5.595360994E-1,1.061347127E-1
3.594000128E1,2.405211031E-1,1.875301152E-1,5.955760833E-3
3.596128883E1,-2.414373755E-1,4.642439187E-1,-1.351499557E-1
3.598257638E1,-1.956238300E-1,-1.252236813E-1,-2.176143378E-1
3.600386388E1,3.871244490E-1,-5.399889946E-1,8.108997345E-2
3.602515143E1,5.343386531E-1,1.160609815E-2,1.452289373E-1
3.604643899E1,1.641651988E-1,1.009730577E0,2.808370292E-1
3.606772649E1,3.681881726E-1,6.139014959E-1,4.738647640E-1
3.608901404E1,2.759502530E-1,1.432436824E0,2.869454920E-1
3.611030159E1,3.034383655E-1,-3.866663277E-1,-8.506047726E-2
3.613158909E1,-6.745280623E-1,4.996730685E-1,-4.955498278E-1
3.615287664E1,8.475505561E-2,-6.872031689E-1,-1.149920002E-1
3.617416414E1,3.773508966E-1,2.437280566E-1,9.086353332E-2
3.619545169E1,3.938437700E-1,1.588202827E-2,-1.985253533E-3
3.621673925E1,6.552863717E-1,-7.525638342E-1,2.489202656E-2
3.623802675E1,4.504998401E-2,2.687727809E-1,-2.702999115E-2
3.625931430E1,-5.969504714E-1,-2.363978922E-1,2.305948362E-2
3.628060180E1,-1.404566884E0,8.112051487E-1,-2.286095917E-1
3.630188935E1,4.176668227E-1,-1.690901518E0,3.810159862E-1
3.632317690E1,1.940967143E-1,5.650337338E-1,-1.956238300E-1
3.634446440E1,1.843231618E-1,-8.466343284E-1,-5.438067913E-1
3.636575196E1,-3.984251320E-1,3.555130959E-1,-5.205945969E-1
3.638703946E1,-4.509579837E-1,7.757759839E-2,7.177455351E-3
3.640832701E1,7.340856791E-1,4.227063060E-1,9.234483242E-1
3.642961456E1,-2.530434728E-1,4.459185004E-1,1.629435122E-1
3.645090206E1,-4.650074840E-1,-1.003087521E0,-3.471139669E-1
3.647218961E1,-5.810684562E-1,-5.790832043E-1,-6.256603003E-1
3.649347711E1,7.131642103E-2,-6.670452356E-1,-4.295783341E-1
3.651476466E1,3.871244490E-1,1.491078138E0,-6.551336497E-2
3.653605222E1,1.105480790E0,-1.111207485E0,3.344388679E-2
3.655733972E1,-5.688515306E-1,1.262010455E0,-2.976353168E-1
3.657862727E1,4.201101959E-1,-1.898589611E0,4.304946065E-1
3.659991477E1,-1.367916107E0,1.356691718E0,-3.313846514E-2
3.662120232E1,9.234483242E-1,-1.690290689E0,1.002247691E0
3.664248982E1,1.084253844E-2,1.127013206E0,5.276193023E-1
3.666377737E1,7.475243211E-1,-3.121429384E-1,3.926220834E-1
3.668506492E1,-4.680617154E-1,5.528167486E-1,-3.990359604E-1
3.670635242E1,1.635543555E-1,-4.159869850E-1,-5.207473040E-2
3.672763998E1,-2.580829710E-2,-3.298575059E-2,-1.418692768E-1
3.674892748E1,1.617218107E-1,6.157340407E-1,2.496838123E-1
3.677021503E1,3.407000601E-1,-1.264453828E-1,1.287360638E-1
3.679150253E1,-7.472952604E-1,1.081199646E0,-3.544441164E-1
3.681279008E1,1.159082651E-1,-7.012526393E-1,-4.906630516E-1
3.683407758E1,-2.499892414E-1,4.459185153E-2,-5.951179266E-1
3.685536513E1,1.406017661E0,-1.098379731E0,1.769929975E-1
3.687665268E1,-6.299362183E-1,1.476417780E0,-5.602996349E-1
3.689794018E1,3.987305462E-1,-7.171346545E-1,3.101576865E-1
3.691922774E1,-5.358657837E-1,2.186833173E-1,-8.704573847E-3
3.694051524E1,1.837123185E-1,1.016449809E0,7.572978735E-1
3.696180279E1,5.825955868E-1,-5.008947477E-2,4.366030693E-1
3.698309029E1,4.677563012E-1,7.788302302E-1,-7.956285775E-2
3.700437784E1,7.572978735E-1,-1.004309297E0,-6.671979427E-1
3.702566534E1,-2.896943092E-1,1.510014415E0,-8.303704858E-1
3.704695289E1,2.246390730E-1,-1.257200003E0,-1.656923145E-1
3.706824039E1,-4.136963189E-1,-3.939964771E-1,3.950654566E-1
3.708952794E1,-8.444199562E-1,-3.597890437E-1,1.800472289E-1
3.711081544E1,-7.845569253E-1,-2.260134928E-2,-1.937913001E-1
3.713210300E1,-4.596625641E-2,4.807367921E-1,-2.780882120E-1
3.715339050E1,-1.785201132E-1,-1.221694499E-1,-7.399650812E-1
3.717467805E1,1.574458778E-1,2.504473738E-2,-1.162136942E-1
3.719596555E1,-1.259872466E-1,-5.338805318E-1,-1.186570823E-1
3.721725310E1,-8.059365749E-1,-5.528167486E-1,2.142546773E-1
3.723854060E1,-3.807105422E-1,-8.307522535E-1,4.964661002E-1
3.725982815E1,-1.026452422E0,6.029062271E-1,3.260397315E-1
3.728111565E1,1.702736765E-1,-2.070772201E-1,7.450809479E-1
3.730240321E1,6.566607859E-3,5.522059202E-1,4.016320780E-2
3.732369071E1,7.212579250E-1,7.879929990E-2,-1.779092699E-1
3.734497826E1,1.586675793E-1,1.329814434E0,-5.938962698E-1
3.736626643E1,2.545706034E-1,-7.574505806E-1,-3.849864900E-1
3.738755398E1,2.954973578E-1,-7.892146707E-1,-2.596100792E-3
3.740884148E1,-5.016583204E-1,1.539335102E-1,-3.306210935E-1
3.743012898E1,7.803573459E-2,-1.221694499E-1,3.248180151E-1
3.745141653E1,-1.913478971E-1,9.504783154E-1,3.162661791E-1
3.747270409E1,3.266505599E-1,-8.857285231E-2,3.962871730E-1
3.749399159E1,5.642701387E-1,2.150182426E-1,4.170559645E-1
3.751527914E1,1.012632012E0,-9.755230546E-1,3.486410677E-1
3.753656664E1,2.916795574E-2,4.220954478E-1,-2.689255178E-1
3.755785414E1,2.191414535E-1,-9.608627558E-1,-4.961606860E-1
3.757914169E1,-5.267030597E-1,6.022953987E-1,-6.342121959E-1
3.760042919E1,2.649549842E-1,-3.481829464E-1,-1.754658818E-1
3.762171674E1,7.267554998E-1,3.579564989E-1,1.110214889E-1
3.764300424E1,1.507265568E-1,4.477510452E-1,-3.862081766E-1
3.766429180E1,-1.718007922E-1,6.291726828E-1,-4.094203711E-1
3.768557930E1,-3.924693540E-2,-1.037294984E0,-2.903051674E-1
3.770686680E1,-5.451811850E-2,7.550072074E-1,-1.950129867E-1
3.772815435E1,3.437542915E-1,-4.666872919E-1,1.068982761E-3
3.774944185E1,4.030064642E-1,5.674771070E-1,1.097997949E-1
3.777072940E1,-3.764346242E-1,1.887518018E-1,-3.080197275E-1
3.779201690E1,-2.243336588E-1,-1.191152185E-1,-1.847812906E-2
3.781330440E1,-1.925695986E-1,-1.551551968E-1,-3.764346242E-1
3.783459195E1,3.883461356E-1,-1.496575773E-1,-2.432699203E-1
3.785587945E1,-1.919587553E-1,3.805578351E-1,-7.369108796E-1
3.787716700E1,6.791094542E-1,-8.179244995E-1,-2.835858464E-1
3.789845450E1,-6.726955175E-1,3.109212518E-1,-7.203416228E-1
3.791974206E1,-3.636068404E-1,-4.153761268E-2,-2.890834510E-1
3.794102956E1,7.788302377E-3,-3.665083647E-2,-1.638597846E-1
3.796231706E1,2.093679011E-1,7.269082218E-2,1.084253844E-2
3.798360461E1,-3.232909143E-1,3.640649617E-1,2.122694254E-2
3.800489211E1,-3.049654961E-1,2.101314515E-1,-2.707580328E-1
3.802617966E1,-2.567085624E-1,-3.121429384E-1,-2.163926363E-1
3.804746716E1,-2.310529798E-1,-1.233911440E-1,-1.296523362E-1
3.806875466E1,2.977880463E-2,-2.425063550E-1,2.855710872E-2
3.809004221E1,-8.486959338E-1,2.541124523E-1,-7.956285775E-2
3.811132971E1,-5.413633585E-1,-8.551862091E-3,3.834593594E-1
3.813261721E1,-2.884726226E-1,2.809897438E-2,4.445441067E-1
3.815390476E1,5.068505406E-1,-4.300364852E-1,4.292729199E-1
3.817519226E1,-2.261662036E-1,8.423583508E-1,1.989834905E-1
3.819647982E1,-2.267770469E-1,-2.443388999E-1,3.749074936E-1
3.821776732E1,1.947075576E-1,-3.231382072E-1,7.878402472E-1
3.823905482E1,-1.168245375E-1,4.953971207E-1,5.257867575E-1
3.826034237E1,3.419217467E-1,1.496575773E-1,8.360971808E-1
3.828162987E1,-1.174353883E-1,7.611156702E-1,4.317162931E-1
3.830291737E1,7.970029712E-1,-7.495095730E-1,6.119162440E-1
3.832420492E1,-1.901262105E-1,3.915531039E-1,5.665608495E-2
3.834549242E1,1.824906170E-1,4.538595080E-1,6.180247068E-1
3.836677997E1,6.215370819E-2,-6.743753552E-1,7.719582319E-1
3.838806747E1,4.115583301E-1,2.504473627E-1,8.641961813E-1
3.840935497E1,-4.863871336E-1,8.057075143E-1,-6.306997687E-2
3.843064252E1,2.991624475E-1,-5.259394646E-1,-1.345391124E-1
3.845193002E1,-1.760767251E-1,3.335226178E-1,-4.546230733E-1
3.847321752E1,-2.212794125E-1,-3.182514310E-1,-5.541911721E-1
3.849450508E1,1.928750277E-1,1.850867122E-1,7.192726433E-2
3.851579258E1,8.470924497E-1,-1.803297520E0,2.918322682E-1
3.853708008E1,-4.747810364E-1,8.399149776E-1,-4.295783341E-1
3.855836763E1,-4.570664763E-1,-7.580614686E-1,-8.144884706E-1
3.857965513E1,-5.621321797E-1,9.486457705E-1,-6.146650314E-1
3.860094263E1,1.885990947E-1,-3.396310806E-1,4.138490185E-2
3.862223018E1,7.401941419E-1,4.648547769E-1,4.213318825E-1
3.864351768E1,9.155073166E-1,-5.509842038E-1,-1.400367320E-1
3.866480518E1,-1.027750522E-1,1.495964885E0,-8.267053962E-1
3.868609268E1,1.818797737E-1,-3.341334462E-1,-2.481566966E-1
3.870738023E1,-5.315898061E-1,1.724498153E0,-3.184041381E-1
3.872866773E1,7.884510756E-1,-1.287131548E0,-4.596625641E-2
3.874995523E1,-7.136223316E-1,3.402419090E-1,-1.195046306E0
3.877124278E1,2.185306102E-1,-7.635590434E-2,-3.269560039E-1
3.879253028E1,1.256818175E-1,-1.838650256E-1,7.634063363E-1
3.881381778E1,-7.796701789E-1,6.792621613E-1,9.246700406E-1
3.883510534E1,-8.657996058E-1,4.318690002E-1,9.002361298E-1
3.885639284E1,2.855710872E-2,-8.759549856E-1,5.795413256E-1
3.887768034E1,-4.356867969E-1,1.362189353E-1,-4.827220440E-1
3.889896784E1,-2.017323077E-1,-4.141544402E-1,-9.336037040E-1
3.892025539E1,-2.426590770E-1,3.298575059E-2,-1.016678929E0
3.894154289E1,-7.821135521E-1,-5.552601814E-1,-4.320217371E-1
3.896283039E1,1.940967143E-1,-7.324058414E-1,1.576444030E0
3.898411789E1,-1.847812906E-2,-4.282039404E-1,2.026103973E0
3.900540544E1,6.948387623E-2,5.809157491E-1,2.026714802E0
3.902669294E1,-5.890094638E-1,7.586722970E-1,9.295567870E-1
3.904798044E1,-1.950129867E-1,4.337015450E-1,3.315373361E-1
3.906926799E1,6.455128193E-1,-3.884988427E-1,-1.542389300E-2
3.909055549E1,1.843231618E-1,8.698465228E-1,-4.399627447E-1
3.911184299E1,4.256078303E-1,-7.146912813E-2,1.036913246E-1
3.913313049E1,4.634803534E-1,-2.895416021E-1,5.441122055E-1
3.915441804E1,4.787515402E-1,-7.403468490E-1,7.316423059E-1
3.917570554E1,9.888089895E-1,2.425063550E-1,1.087766290E0
3.919699304E1,4.378247857E-1,-5.375456065E-2,6.070294380E-1
3.921828054E1,7.090409398E-1,-6.542174220E-1,2.869454920E-1
3.923956805E1,-9.219976068E-1,1.814216375E-1,-7.448518872E-1
3.926085560E1,-3.562766612E-1,-1.585835814E0,-1.466873288E0
3.928214310E1,-1.396015048E0,1.058598280E0,-2.158352375E0
3.930343060E1,1.757712960E-1,-1.404414177E0,-1.356920838E0
3.932471810E1,-2.762556672E-1,8.490777016E-2,-7.918871045E-1
3.934600565E1,7.314895838E-2,3.720059693E-1,-2.237228155E-1
3.936729315E1,2.967190444E-1,-1.319430023E-1,5.176930502E-2
3.938858065E1,4.433223903E-1,9.352071285E-1,2.527380586E-1
3.940986815E1,1.280794024E0,-6.346703172E-1,2.411319613E-1
3.943115570E1,8.904625773E-1,1.126402378E0,2.551814318E-1
3.945244320E1,7.316423059E-1,1.667613089E-1,1.336228400E-1
3.947373070E1,-4.216373265E-1,2.050079823E0,6.613948941E-1
3.949501820E1,-2.420482337E-1,-4.190412164E-1,3.578037918E-1
3.951630570E1,-4.535540938E-2,1.205812454E0,3.199312389E-1
3.953759320E1,3.138227761E-1,-1.511312485E0,-1.113269106E-1
3.955888075E1,-1.608055383E-1,8.845068216E-1,7.177455351E-3
3.958016825E1,-1.699682474E-1,-1.392731816E-1,2.582356930E-1
3.960145575E1,-1.162136942E-1,6.474980712E-2,6.601731777E-1
3.962274325E1,1.928750277E-1,-7.971556783E-1,8.067765236E-1
3.964403075E1,1.250709742E-1,2.082989216E-1,4.237752855E-1
3.966531830E1,-3.985778242E-2,3.054236295E-3,-1.725643501E-2
3.968660580E1,1.389677543E-2,6.896465421E-1,-7.834116369E-2
3.970789331E1,-3.191677108E-2,6.248967648E-1,7.070557028E-2
3.972918081E1,2.460187376E-1,3.762819171E-1,3.871244490E-1
3.975046831E1,2.619007528E-1,8.551861644E-1,4.885250926E-1
3.977175581E1,2.496838123E-1,-1.191152185E-1,1.531699449E-1
3.979304331E1,-3.483356535E-1,1.164274931E0,-5.987830162E-1
3.981433086E1,4.616478086E-1,-1.017747879E0,-1.263461232E0
3.983561836E1,-7.160657048E-1,5.558710098E-1,-1.093034863E0
3.985690586E1,8.232693672E-1,-1.880264163E0,-7.857786417E-1
3.987819336E1,1.788255423E-1,8.490777016E-2,-3.862081766E-1
3.989948086E1,-6.612421572E-2,-3.072561622E-1,-2.713688910E-1
3.992076836E1,-2.499892414E-1,-7.073611021E-1,-3.446705639E-1
3.994205591E1,-3.495573401E-1,-1.832541823E-2,-3.532224298E-1
3.996334341E1,-1.840177327E-1,-2.021904439E-1,-2.927485406E-1
3.998463091E1,3.284831047E-1,6.786513329E-1,1.067455560E-1
4.000591841E1,-7.020162344E-1,6.536065936E-1,-5.016583204E-1
4.002720591E1,2.619007528E-1,-1.191152185E-1,-9.361234307E-2
4.004849341E1,-3.727695346E-1,7.653915882E-1,-4.428642802E-3
4.006978091E1,7.811209559E-1,1.869192570E-1,2.521272004E-1
4.009106841E1,-7.528692484E-2,8.985562921E-1,-5.951179266E-1
4.011235591E1,-5.334223509E-1,9.119949341E-1,-8.444199562E-1
4.013364346E1,-1.333174109E-1,-1.340275288E0,-4.369085133E-1
4.015493096E1,-9.378796220E-1,-3.720059693E-1,1.128540337E-1
4.017621846E1,-1.137015820E0,-7.941014171E-1,8.018897176E-1
4.019750596E1,-8.712972403E-1,-3.915531039E-1,9.155073166E-1
4.021879346E1,-9.995751977E-1,-1.148392856E-1,6.082511544E-1
4.024008096E1,-6.849125028E-1,4.636330605E-1,3.926220834E-1
4.026136846E1,-2.841966748E-1,1.083032131E0,2.594573796E-1
4.028265596E1,9.173398614E-1,-8.619054556E-1,7.206470370E-1
4.030394346E1,3.168770075E-1,4.984513521E-1,7.139277458E-1
4.032523101E1,7.212579250E-1,-4.275930822E-1,1.184280157E0
4.034651851E1,1.091889441E-1,-1.197260618E-1,1.153737783E0
4.036780601E1,-3.959817290E-1,4.520269632E-1,1.256971002E0
4.038909351E1,2.252499312E-1,-5.448757410E-1,1.012021184E0
4.041038101E1,1.562241912E-1,-4.092676640E-1,1.366770715E-1
4.043166851E1,-4.399627447E-1,1.159388065E0,8.475505561E-2
4.045295601E1,-7.937196493E-1,-5.143333673E-1,-1.204896197E-1
4.047424351E1,3.541387022E-1,4.294256270E-1,-5.085303262E-2
4.049553101E1,4.958552718E-1,2.987042964E-1,4.810422286E-2
4.051681851E1,8.678612709E-1,-7.824953198E-1,4.592044353E-1
4.053810601E1,9.086353332E-2,1.221694518E-3,-1.131594554E-1
4.055939351E1,-7.101099193E-2,-1.879042506E0,-1.143811494E-1
4.058068101E1,-1.116857886E0,1.233911440E-1,-1.018511415E0
4.060196851E1,-4.130854607E-1,-2.263265371E0,-9.018396139E-1
4.062325606E1,-6.409314871E-1,2.180724740E-1,-4.411844313E-1
4.064454356E1,-4.107947648E-2,-7.342383862E-1,-2.817533016E-1
4.066583106E1,-7.998281121E-1,6.749862432E-1,-5.676298141E-1
4.068711851E1,-1.998997629E-1,6.242858768E-1,-4.869979918E-1
4.070840607E1,6.626165509E-1,-5.412106514E-1,-1.420219894E-2
4.072969357E1,1.068219185E0,-2.632751763E-1,2.655658424E-1
4.075098107E1,7.316423059E-1,3.884988427E-1,-1.088835225E-1
4.077226857E1,9.269607067E-2,1.252236813E-1,-3.313846514E-2
4.079355607E1,-2.580829710E-2,1.734806150E-1,-6.490252167E-2
4.081484357E1,-7.271373272E-1,6.255075932E-1,-2.841966748E-1
4.083613107E1,-2.641914412E-2,-2.559449971E-1,3.553603888E-1
4.085741856E1,-2.683146596E-1,-8.319739699E-1,-8.628217876E-2
4.087870606E1,-4.169032723E-2,-1.826433241E-1,9.717052579E-1
4.089999356E1,-3.129065037E-1,-2.272351831E-1,7.548545003E-1
4.092128106E1,-8.071582913E-1,1.160609797E-1,3.254288733E-1
4.094256856E1,1.629435122E-1,-1.227879405E0,4.390464723E-1
4.096385606E1,4.749337584E-2,-1.099525020E-2,2.063136548E-1
4.098514356E1,-3.813214004E-1,2.919849753E-1,-1.724116355E-1
4.100643106E1,-4.417952895E-1,9.504783154E-1,9.147437662E-2
4.102771856E1,-1.052184403E-1,-4.043808877E-1,6.215370819E-2
4.104900606E1,1.291789293E0,-1.362189353E-1,8.812998533E-1
4.107029356E1,9.985825419E-1,1.122126460E0,5.325061083E-1
4.109158106E1,9.979717135E-1,2.363978922E-1,2.496838123E-1
4.111286856E1,-1.664558798E-2,1.248571754E0,-3.843756318E-1
4.113415606E1,3.022166789E-1,-1.619432449E0,-9.763630033E-1
4.115544357E1,-7.479060888E-1,1.354859233E0,-1.126631379E0
4.117673107E1,1.023169141E-2,-1.272471189E0,-5.657972693E-1
4.119801857E1,-6.836907864E-1,-1.942494214E-1,1.904316396E-1
4.121930607E1,-3.465031087E-1,-1.859495401E0,4.457657933E-1
4.124059351E1,-8.205969334E-1,4.654656053E-1,-4.191939235E-1
4.126188101E1,3.968980014E-1,-5.821374655E-1,-4.081986845E-1
4.128316851E1,-3.061871827E-1,3.787252903E-1,-3.855973184E-1
4.130445601E1,7.681404054E-2,-6.071822047E-1,-3.055763543E-1
4.132574351E1,2.362451702E-1,9.834641218E-2,-6.256603003E-1
4.134703101E1,3.107685447E-1,2.357870489E-1,-3.794888556E-1
4.136831851E1,1.256360054E0,2.932066917E-1,-8.704573847E-3
4.138960601E1,1.089598775E0,4.587462842E-1,-5.041016936E-1
4.141089351E1,6.791094542E-1,6.688777208E-1,-8.065474629E-1
4.143218101E1,-5.328115225E-1,4.642439187E-1,-9.024504423E-1
4.145346851E1,-7.283589840E-1,-7.238540053E-1,-2.359397560E-1
4.147475601E1,-9.464314580E-1,-5.931326747E-1,2.619007528E-1
4.149604351E1,-4.265241027E-1,-1.234598637E0,6.235223413E-1
4.151733101E1,-9.989643097E-1,-2.028012872E-1,6.204680800E-1
4.153861851E1,-3.764346242E-1,-1.225435972E0,5.221216679E-1
4.155990596E1,-6.213843822E-1,-3.652866483E-1,4.256078303E-1
4.158119346E1,4.372139275E-1,-5.662553906E-1,8.501466513E-1
4.160248096E1,6.693359017E-1,4.153761268E-2,5.709894896E-1
4.162376846E1,9.900307059E-1,1.045770526E0,6.766660213E-1
4.164505596E1,3.101576865E-1,5.650337338E-1,1.305686086E-1
4.166634346E1,-9.361234307E-2,7.983773947E-1,6.765133142E-2
4.168763096E1,5.337277651E-1,-1.881409585E-1,2.875563502E-1
4.170891846E1,-3.287885487E-1,1.011563063E0,-3.436015919E-2
4.173020596E1,2.794626169E-2,-5.033381581E-1,-2.872509360E-1
4.175149341E1,-5.108210444E-1,1.258345395E-1,-4.136963189E-1
4.177278091E1,2.380777150E-1,-1.279801369E0,-3.794888556E-1
4.179406841E1,5.909947306E-2,1.068982705E-1,-1.870719790E-1
4.181535591E1,7.437065244E-2,-6.664343476E-1,-3.086305857E-1
4.183664341E1,1.939439960E-2,-6.511631608E-1,-6.306997687E-2
4.185793091E1,-6.001574174E-2,-6.468872428E-1,-4.918847680E-1
4.187921841E1,-2.512109280E-1,-9.352071285E-1,-9.030613303E-1
4.190050591E1,-6.959077120E-1,8.533536196E-1,-9.164999723E-1
4.192179336E1,5.990884304E-1,-1.470385671E0,-4.051444530E-1
4.194308086E1,1.366770715E-1,1.088529825E0,-6.739172339E-1
4.196436836E1,6.552863717E-1,-1.997470558E-1,-5.486935377E-1
4.198565586E1,3.761292100E-1,1.159388065E0,-5.370874405E-1
4.200694336E1,1.002858520E0,-4.245388508E-1,2.716743052E-1
4.202823086E1,6.577298045E-1,8.197570443E-1,6.442911625E-1
4.204951830E1,1.464506239E-1,5.632011890E-1,6.968240142E-1
4.207080580E1,-6.617003083E-1,1.548497796E0,6.027535200E-1
4.209209331E1,7.986827940E-2,-5.320479870E-1,4.188885093E-1
4.211338081E1,-8.767948747E-1,1.095860004E0,-2.493783981E-1
4.213466831E1,-4.657710344E-2,-1.102655649E0,-3.428380191E-1
4.215595581E1,-5.645755529E-1,5.015056133E-1,-3.129065037E-1
4.217724331E1,-2.237228155E-1,-5.845808387E-1,3.620797098E-1
4.219853075E1,-4.485146105E-1,3.512371778E-1,6.516213417E-1
4.221981825E1,-2.585411072E-1,-1.194893599E0,7.108734846E-1
4.224110575E1,-2.793098986E-1,-4.483618736E-1,1.133579850E0
4.226239325E1,-7.472952604E-1,-1.117850468E-1,9.265025854E-1
4.228368070E1,-9.873582125E-1,5.259394646E-1,4.072824121E-1
4.230496820E1,-5.267030597E-1,1.094638348E0,5.343386531E-1
4.232625570E1,6.522321701E-1,-5.986303091E-2,4.408790171E-1
4.234754320E1,8.324320912E-1,7.886037827E-1,2.264716178E-1
4.236883070E1,2.906105816E-1,2.480039895E-1,7.375980914E-2
4.239011815E1,4.219427407E-1,-9.834641218E-2,-1.430909634E-1
4.241140565E1,3.222219273E-2,-7.873821259E-1,-3.843756318E-1
4.243269315E1,-5.218162537E-1,-2.235700935E-1,-1.241547018E-1
4.245398065E1,1.623326540E-1,-1.160609797E-1,3.187095523E-1
4.247526810E1,4.781406820E-1,-1.712892056E0,4.616478086E-1
4.249655560E1,4.359922409E-1,-1.747023165E-1,-1.889045089E-1
4.251784310E1,7.652388811E-1,-9.994224906E-1,-6.329904795E-1
4.253913060E1,3.859027624E-1,-4.972296655E-1,-8.712972403E-1
