"Time (s)","Linear Acceleration x (m/s^2)","Linear Acceleration y (m/s^2)","Linear Acceleration z (m/s^2)"
2.000156300E-2,-7.410999537E-1,5.816000104E-1,1.682099938E0
4.000156300E-2,1.544999927E-1,5.013999939E-1,1.150300026E0
6.000312500E-2,2.236000001E-1,7.821999788E-1,1.028800011E0
9.000156300E-2,1.508700013E0,3.317999840E-1,4.298999906E-1
1.100093750E-1,1.449699998E0,-1.758999974E-1,1.152999997E-1
1.400000000E-1,8.652999997E-1,-9.334999919E-1,-7.224000096E-1
1.600015630E-1,2.739999890E-1,-7.330999970E-1,-6.462999582E-1
1.800015630E-1,2.152999938E-1,-3.610999882E-1,-4.201999903E-1
2.000015630E-1,3.924999833E-1,-2.928999960E-1,-2.592000067E-1
2.200140630E-1,8.651999831E-1,-6.164000034E-1,-7.936999798E-1
2.500078130E-1,6.603999734E-1,-5.008999705E-1,-9.670999646E-1
2.800015630E-1,7.426999807E-1,4.069999754E-1,-9.915999770E-1
3.000015630E-1,1.300499916E0,6.444999576E-1,-1.349200010E0
3.200015630E-1,1.218099952E0,-7.041999698E-1,1.578599930E0
3.500000000E-1,-1.819700003E0,1.882999897E0,-2.828199863E0
3.700000000E-1,-6.259999871E-1,6.313999891E-1,5.309999734E-2
3.900015630E-1,-1.144999936E-1,-1.727000028E-1,1.485999972E-1
4.100046880E-1,-6.859999895E-1,6.446999907E-1,2.909999788E-1
4.400015630E-1,3.305999935E-1,-1.429799914E0,3.957599878E0
4.600046880E-1,-3.657999933E-1,-1.341699958E0,1.785699964E0
4.900015630E-1,9.839999676E-2,-2.004899979E0,1.310599923E0
5.100015630E-1,-8.009999990E-1,-2.472800016E0,6.437999606E-1
5.300015630E-1,-1.092100024E0,-8.233000040E-1,-3.280000016E-2
5.500031250E-1,-7.602999806E-1,-7.917000055E-1,5.020000041E-2
5.800015630E-1,2.741999924E-1,-1.369599938E0,-2.662999928E-1
6.000078130E-1,-3.869999945E-2,-2.470899820E0,-1.795599937E0
6.300015630E-1,-1.786799908E0,-1.893299937E0,6.018999815E-1
6.500078130E-1,-3.070600033E0,-4.339999706E-2,-1.999999955E-2
6.800015630E-1,-1.564299941E0,-1.083400011E0,-1.043599963E0
7.000046880E-1,-1.124699950E0,-1.744099975E0,-1.896099925E0
7.200125000E-1,-7.601999640E-1,-1.361400008E0,-2.638499975E0
7.500078130E-1,7.419999689E-2,-6.597999930E-1,-1.786499977E0
7.800015630E-1,-4.638999999E-1,5.616999865E-1,-1.770499945E0
8.000046880E-1,-6.991999745E-1,1.717000008E-1,-1.395799994E0
8.300000000E-1,-1.197199941E0,-8.332999945E-1,-1.921799898E0
8.500015630E-1,-1.144899964E0,-6.197999716E-1,-9.240999818E-1
8.800015630E-1,-9.856999516E-1,-2.250999957E-1,2.699999884E-2
9.000031250E-1,-8.549000025E-1,-5.357999802E-1,-3.181000054E-1
9.300015630E-1,-6.110000014E-1,-5.605999827E-1,-1.301699996E0
9.500015630E-1,-7.293999791E-1,-3.659999967E-1,-7.754999995E-1
9.700015630E-1,-4.499999881E-1,-7.656999826E-1,7.231999636E-1
9.900015630E-1,1.057999954E-1,-6.589999795E-1,1.839699984E0
1.020001563E0,1.199499965E0,-2.736999989E-1,2.258299828E0
1.050007813E0,2.149800062E0,-1.228600025E0,1.833099961E0
1.080001563E0,1.585899949E0,-1.567899942E0,3.406999826E0
1.100001563E0,1.385100007E0,-1.147400022E0,2.633999825E0
1.120001563E0,1.762399912E0,-1.337599993E0,1.463799953E0
1.140001563E0,2.121700048E0,-1.123099923E0,9.794999957E-1
1.160001563E0,2.480599880E0,-7.902999520E-1,1.835999936E-1
1.180001563E0,2.271499872E0,-5.541999936E-1,-6.847000122E-1
1.200001563E0,1.303200006E0,-2.628999949E-1,-1.139599919E0
1.220014063E0,5.230000019E-1,-1.490999907E-1,-1.464599967E0
1.250001563E0,-4.629999772E-2,2.229999937E-2,-1.380399942E0
1.270001563E0,5.719999969E-2,1.680999994E-1,-1.862100005E0
1.290006250E0,3.057999909E-1,2.830999792E-1,-2.168799877E0
1.320001563E0,6.920999885E-1,6.117999554E-1,-2.717099905E0
1.340001563E0,8.003999591E-1,3.977999985E-1,-2.928799868E0
1.370000000E0,3.046000004E-1,3.809999824E-1,-2.502699852E0
1.390001563E0,1.119999960E-1,2.009999938E-2,-1.783399940E0
1.410001563E0,-8.020000160E-2,-1.561999917E-1,-1.248799920E0
1.430006250E0,-3.486000001E-1,1.941999942E-1,-9.943999648E-1
1.460003125E0,-2.263000011E-1,6.883999705E-1,-1.033800006E0
1.480003125E0,-1.624999940E-1,9.197999835E-1,-6.769999862E-1
1.510001563E0,-3.616999984E-1,9.554999471E-1,9.720000029E-1
1.530001563E0,-2.797999978E-1,5.685999990E-1,2.088799953E0
1.550001563E0,-1.338000000E-1,2.371999919E-1,1.743099928E0
1.580001563E0,1.049999967E-1,-4.230000079E-2,1.722899914E0
1.600001563E0,-2.620999813E-1,-4.162999988E-1,2.707700014E0
1.630009375E0,-1.448300004E0,-6.401000023E-1,2.327299833E0
1.660001563E0,-2.300899982E0,-1.319399953E0,7.146999836E-1
1.680004688E0,-2.663199902E0,-8.210999966E-1,1.625999957E-1
1.710001563E0,-1.282400012E0,-9.461999536E-1,-6.773999929E-1
1.730001563E0,-5.040999651E-1,-7.536000013E-1,-9.608999491E-1
1.750001563E0,-2.300000004E-2,-6.428999901E-1,-8.555999994E-1
1.770001563E0,-4.839999974E-2,-4.887000024E-1,-7.895999551E-1
1.800001563E0,-3.243999779E-1,-1.806999892E-1,-1.003499985E0
1.820001563E0,-2.903999984E-1,-1.595000029E-1,-1.287299991E0
1.840001563E0,-3.799999952E-1,-4.064999819E-1,-1.955899954E0
1.860001563E0,-6.391999722E-1,-4.759999737E-2,-2.030099869E0
1.880003125E0,-7.297999859E-1,-4.490000010E-2,-2.195600033E0
1.910001563E0,-6.365999579E-1,-9.049999714E-2,-2.210099936E0
1.930001563E0,-8.252999783E-1,4.969999939E-2,-1.732399940E0
1.950001563E0,-8.718000054E-1,7.229999453E-2,-1.036399961E0
1.970001563E0,-9.558999538E-1,1.513999999E-1,-4.921000004E-1
1.990001563E0,-6.923999786E-1,-9.959999472E-2,-3.680000082E-2
2.020003125E0,-1.233999953E-1,7.259999961E-2,8.567000031E-1
2.050004688E0,-2.229999900E-1,3.852999806E-1,2.300499916E0
2.070009375E0,-2.868999839E-1,6.060000062E-1,2.995100021E0
2.100001563E0,1.433699965E0,-1.480000000E-2,1.974499941E0
2.120007813E0,2.866699934E0,-9.577999711E-1,2.425499916E0
2.150000000E0,2.224400043E0,-3.768999875E-1,2.670699835E0
2.170001563E0,1.531099916E0,-9.361000061E-1,2.240700006E0
2.190001563E0,1.215999961E0,-1.012300014E0,1.115800023E0
2.210001563E0,1.544099927E0,-8.432999849E-1,-3.577999771E-1
2.230001563E0,1.920300007E0,-5.936999917E-1,-1.441200018E0
2.250001563E0,1.755499959E0,-2.820999920E-1,-1.686599970E0
2.270001563E0,1.040699959E0,-4.648000002E-1,-1.566499949E0
2.300001563E0,-1.006999984E-1,-8.032999635E-1,-2.086299896E0
2.320001563E0,-5.108999610E-1,-7.342000008E-1,-2.506799936E0
2.340001563E0,-4.505999982E-1,-4.912999868E-1,-2.452100039E0
2.360006250E0,1.310999990E-1,-3.889999986E-1,-2.138399839E0
2.390001563E0,3.524999917E-1,5.399999674E-3,-2.212699890E0
2.410001563E0,7.005000114E-1,1.299999934E-2,-2.358399868E0
2.430001563E0,5.541999936E-1,2.155999988E-1,-2.420899868E0
2.450006250E0,3.355999887E-1,5.848000050E-1,-2.014400005E0
2.480000000E0,8.263999820E-1,8.179999590E-1,-1.457299948E0
2.500001563E0,1.025599957E0,9.219999909E-1,-1.256199956E0
2.520001563E0,5.525000095E-1,9.618999958E-1,-5.625000000E-1
2.550003125E0,-1.740000024E-2,5.414000154E-1,7.613999844E-1
2.580001563E0,1.771999896E-1,3.194999993E-1,1.158299923E0
2.600006250E0,-2.062999904E-1,5.252999663E-1,1.233600020E0
2.630001563E0,1.476999968E-1,-3.314999938E-1,1.293200016E0
2.650001563E0,5.871999860E-1,-9.893999696E-1,1.715399981E0
2.670001563E0,-8.060000092E-2,-5.159999728E-1,1.387199998E0
2.700010938E0,-1.796000004E0,-6.464999914E-1,7.445999980E-1
2.720014063E0,-2.317199945E0,-6.873999834E-1,2.841999829E-1
2.750003125E0,-1.364499927E0,-4.966999888E-1,1.560000032E-1
2.780001563E0,4.957000017E-1,-7.594999671E-1,-8.879999816E-2
2.800001563E0,3.668999970E-1,-4.028999805E-1,-1.520999908E0
2.820001563E0,-2.365999967E-1,-4.426999986E-1,-6.480999589E-1
2.840001563E0,-9.361000061E-1,4.459999874E-2,-1.733099937E0
2.870001563E0,-3.297999799E-1,-9.879999608E-2,-1.838899970E0
2.890001563E0,1.119999960E-2,-1.399999950E-3,-1.612399936E0
2.910001563E0,-3.258000016E-1,8.299999684E-2,-2.130899906E0
2.930001563E0,-1.158999920E0,2.749999985E-2,-2.088700056E0
2.950003125E0,-1.529899955E0,-8.709999919E-2,-1.782400012E0
2.980001563E0,-1.360999942E0,-4.380000010E-2,-1.328799963E0
3.000001563E0,-1.459499955E0,1.127999946E-1,-1.233399987E0
3.020001563E0,-1.367200017E0,-2.639999986E-2,-2.699999884E-2
3.040003125E0,-1.120299935E0,3.157999814E-1,4.981999993E-1
3.070000000E0,-2.301999927E-1,6.999999750E-4,1.524599910E0
3.090003125E0,-5.810000002E-2,-2.633000016E-1,1.850399971E0
3.120001563E0,-3.344999850E-1,1.250000000E-1,2.054299831E0
3.140001563E0,3.481999934E-1,-9.869999439E-2,2.063799858E0
3.160001563E0,1.419600010E0,-1.002599955E0,1.929399967E0
3.180001563E0,1.794099927E0,-1.422799945E0,2.825999975E0
3.200001563E0,1.663299918E0,-1.108399987E0,2.730700016E0
3.220014063E0,1.886599898E0,-1.029399991E0,2.029299974E0
3.250003125E0,2.104699850E0,-1.142300010E0,6.693999767E-1
3.280001563E0,1.578499913E0,-7.555999756E-1,-4.495999813E-1
3.310001563E0,9.044999480E-1,-1.796000004E-1,-1.399699926E0
3.330001563E0,4.010999799E-1,-3.680000082E-2,-1.420199990E0
3.350001563E0,1.295000017E-1,-3.346000016E-1,-1.564899921E0
3.380007813E0,2.221999913E-1,-9.009999782E-2,-1.757099986E0
3.410001563E0,4.289000034E-1,1.639000028E-1,-2.201400042E0
3.430003125E0,6.128999591E-1,1.670999974E-1,-2.398900032E0
3.460001563E0,6.374999881E-1,2.419999987E-1,-2.373100042E0
3.480006250E0,5.243999958E-1,2.430999875E-1,-2.100499868E0
3.500018750E0,3.150999844E-1,3.414999843E-1,-1.936399937E0
3.530006250E0,1.840000041E-2,6.358000040E-1,-1.096199989E0
3.560001563E0,4.465999901E-1,7.358999848E-1,-1.001899958E0
3.580004688E0,-1.087999940E-1,1.137799978E0,-9.079999477E-2
3.610001563E0,-1.771999896E-1,1.174600005E0,1.406399965E0
3.630007813E0,6.534000039E-1,6.617000103E-1,1.472199917E0
3.650007813E0,1.234099984E0,7.773000002E-1,1.003799915E0
3.680001563E0,3.164999783E-1,9.732999802E-1,-1.702999920E-1
3.700001563E0,-1.127799988E0,1.082999945E0,7.078999877E-1
3.720014063E0,-2.712999880E-1,-7.449999452E-2,1.019500017E0
3.750001563E0,-3.147999942E-1,-9.498999715E-1,2.818999887E-1
3.770001563E0,-1.004799962E0,-1.164899945E0,6.685000062E-1
3.790001563E0,-1.170499921E0,-3.093999922E-1,2.804999948E-1
3.810001563E0,-2.453699827E0,8.582999706E-1,3.563999832E-1
3.830010938E0,-2.932600021E0,1.219399929E0,3.859999776E-1
3.860001563E0,-1.011999965E0,-4.380999804E-1,1.850000024E-2
3.880001563E0,-5.133000016E-1,-3.892000020E-1,-1.854900002E0
3.900001563E0,-1.308999956E-1,-7.483999729E-1,-1.787699938E0
3.920001563E0,-1.932999939E-1,-1.016999960E0,4.867999852E-1
3.940001563E0,-8.763999939E-1,-2.224999964E-1,9.808999896E-1
3.960001563E0,-1.077399969E0,1.676999927E-1,9.634999633E-1
3.980001563E0,-8.687999845E-1,-1.309999973E-1,6.790000200E-2
4.000001563E0,-8.524000049E-1,-2.097999901E-1,-1.232499957E0
4.020006250E0,-1.045599937E0,-7.608000040E-1,-1.074599981E0
4.050001563E0,-2.453500032E0,5.119999871E-2,-5.579999685E-1
4.070001563E0,-2.449899912E0,4.482999742E-1,-3.201900005E0
4.090001563E0,-1.282499909E0,-5.482999682E-1,-2.749899864E0
4.110001563E0,-1.189199924E0,-4.569000006E-1,-1.942599893E0
4.140001563E0,-8.065999746E-1,-6.863999963E-1,-7.107999921E-1
4.160001563E0,-1.973000020E-1,-5.619999766E-1,6.261000037E-1
4.180003125E0,-1.518999934E-1,-1.526999921E-1,1.867699981E0
4.210006250E0,3.389999866E-1,1.473999918E-1,2.785699844E0
4.240001563E0,1.648800015E0,-8.959999681E-2,1.730699897E0
4.260001563E0,2.575799942E0,-1.310699940E0,1.476499915E0
4.280001563E0,2.575299978E0,-1.882200003E0,1.330500007E0
4.300001563E0,1.172599912E0,-1.005999923E0,-2.092999965E-1
4.320001563E0,4.803999960E-1,-8.804999590E-1,-2.054999918E-1
4.340001563E0,4.334999919E-1,-8.693000078E-1,-2.465000004E-1
4.360004688E0,9.398999810E-1,-5.834000111E-1,-5.048999786E-1
4.390001563E0,1.379599929E0,1.370000001E-2,2.039999962E-1
4.420001563E0,9.406999946E-1,-1.996999979E-1,-3.436000049E-1
4.450001563E0,-2.574000061E-1,-4.785999954E-1,-1.651799917E0
4.470001563E0,-6.572999954E-1,-3.342999816E-1,-2.050299883E0
4.490001563E0,-5.375999808E-1,-1.769999973E-2,-2.209499836E0
4.510009375E0,-1.172999963E-1,2.133999914E-1,-2.219599962E0
4.540001563E0,7.937999964E-1,2.027999908E-1,-1.915799975E0
4.560007813E0,7.454999685E-1,3.175999820E-1,-1.697299957E0
4.590001563E0,3.765999973E-1,4.131999910E-1,-1.177699924E0
4.610006250E0,2.881000042E-1,4.387999773E-1,-9.483999610E-1
4.640001563E0,7.439999580E-1,6.898999810E-1,-1.250499964E0
4.660004688E0,6.923999786E-1,1.083400011E0,-1.008199930E0
4.690001563E0,6.536999941E-1,9.034999609E-1,1.070000008E-1
4.710003125E0,4.739999771E-1,6.396999955E-1,3.211999834E-1
4.740001563E0,-2.504000068E-1,6.836000085E-1,6.581000090E-1
4.770000000E0,-5.269999802E-2,4.784999788E-1,9.424999952E-1
4.790001563E0,3.637999892E-1,-5.130999684E-1,1.306499958E0
4.810001563E0,-8.022999763E-1,-5.138999820E-1,1.416800022E0
4.830001563E0,-2.112799883E0,1.699999906E-2,1.768999934E0
4.850006250E0,-2.007999897E0,-1.889999956E-1,1.061999917E0
4.880001563E0,-8.581999540E-1,-7.432000041E-1,-2.865000069E-1
4.900001563E0,-5.738999844E-1,-1.180699944E0,-2.953000069E-1
4.920001563E0,-9.911999702E-1,-1.212199926E0,7.519999892E-2
4.940001563E0,-1.356799960E0,-7.644000053E-1,1.652999967E-1
4.960003125E0,-9.358999729E-1,-4.955999851E-1,-3.373999894E-1
4.990001563E0,-3.199999919E-3,-1.502999961E-1,-1.700500011E0
5.020001563E0,-2.949999869E-1,-5.480000004E-2,-2.340600014E0
5.040001563E0,-6.979999542E-1,-1.975999922E-1,-1.933399916E0
5.070001563E0,-1.185599923E0,-6.509999931E-2,-1.437999964E0
5.090012500E0,-1.049700022E0,-3.700000048E-2,-1.726199985E0
5.120001563E0,-9.740999937E-1,-4.519999772E-2,-1.952799916E0
5.140009375E0,-1.171299934E0,3.849999979E-2,-1.625000000E0
5.170001563E0,-9.672999978E-1,-1.099999994E-2,-8.914999962E-1
5.190001563E0,-5.766000152E-1,-3.053999841E-1,-4.221999943E-1
5.210001563E0,-2.691999972E-1,-5.726999640E-1,2.087000012E-1
5.230003125E0,-5.493000150E-1,-2.786999941E-1,7.610999942E-1
5.250003125E0,-7.664999962E-1,1.436000019E-1,1.408800006E0
5.280001563E0,6.599000096E-1,1.856999993E-1,7.628999949E-1
5.300001563E0,2.386299849E0,-1.266099930E0,6.832000017E-1
5.320001563E0,1.820599914E0,-1.479799986E0,1.586199999E0
5.340006250E0,4.801999927E-1,-1.062999964E0,3.430999994E0
5.370001563E0,9.677000046E-1,-9.224999547E-1,3.347299814E0
5.390003125E0,2.178200006E0,-6.568999887E-1,2.114699841E0
5.420000000E0,2.498299837E0,-4.118999839E-1,3.689999878E-1
5.440001563E0,1.611499906E0,-3.763999939E-1,-1.387999952E-1
5.460003125E0,5.378000140E-1,-2.347999960E-1,-5.020999908E-1
5.490009375E0,3.407000005E-1,-2.152999938E-1,-5.356999636E-1
5.520001563E0,5.317999721E-1,-1.228999943E-1,-1.606099963E0
5.540003125E0,4.544000030E-1,-3.460000083E-2,-1.952299953E0
5.570001563E0,6.919999719E-1,-2.829999849E-2,-2.388599873E0
5.590006250E0,1.155200005E0,2.529999986E-2,-2.555599928E0
5.620001563E0,1.189800024E0,2.066999972E-1,-2.129899979E0
5.640001563E0,1.036899924E0,2.795999944E-1,-1.496799946E0
5.660001563E0,1.067099929E0,4.495999813E-1,-1.163599968E0
5.680003125E0,7.945999503E-1,6.549999714E-1,-9.486999512E-1
5.710001563E0,2.973999977E-1,9.150999784E-1,-5.371999741E-1
5.730003125E0,1.529999971E-1,9.980999827E-1,-6.650999784E-1
5.760001563E0,9.157999754E-1,6.511999965E-1,6.746000051E-1
5.780004688E0,1.049600005E0,3.278999925E-1,1.225199938E0
5.810003125E0,-1.780999899E-1,5.528999567E-1,9.272999763E-1
5.830007813E0,-1.550000012E-1,3.819999844E-2,9.785999656E-1
5.860001563E0,-6.200000048E-1,-2.375999987E-1,1.368499994E0
5.880010938E0,-1.405900002E0,-1.098999977E-1,1.409699917E0
5.910001563E0,-1.233799934E0,-1.166999936E-1,9.925999641E-1
5.930009375E0,-8.966999650E-1,-1.979999989E-2,9.758999944E-1
5.960001563E0,-4.838999808E-1,-8.406999707E-1,6.190999746E-1
5.980001563E0,-6.193999648E-1,-9.967999458E-1,3.563999832E-1
6.000001563E0,-1.019400001E0,-5.363000035E-1,-2.346999943E-1
6.020010938E0,-7.044999599E-1,-5.049999952E-1,-8.824999928E-1
6.050001563E0,-2.678999901E-1,-1.123999953E-1,-1.880599976E0
6.070010938E0,-3.508999944E-1,1.444000006E-1,-1.664199948E0
6.100001563E0,-2.397999913E-1,-2.465999871E-1,-1.008599997E0
6.120001563E0,-3.756999969E-1,-2.662000060E-1,-1.177500010E0
6.140001563E0,-6.728000045E-1,-1.709000021E-1,-1.706200004E0
6.160003125E0,-1.032999992E0,-6.579999626E-2,-1.887199998E0
6.180003125E0,-1.254299998E0,-9.070000052E-2,-2.289499998E0
6.210001563E0,-1.307299972E0,-7.279999554E-2,-2.596499920E0
6.240001563E0,-5.257999897E-1,1.252999902E-1,-1.777099967E0
6.260001563E0,2.721999884E-1,-1.145999953E-1,-8.421999812E-1
6.280001563E0,1.006600022E0,-5.088999867E-1,4.429000020E-1
6.300001563E0,6.200999618E-1,-6.403999925E-1,2.116299868E0
6.320006250E0,-3.569999933E-1,-2.202999890E-1,2.314699888E0
6.350001563E0,1.225199938E0,-5.913999677E-1,1.441799998E0
6.380001563E0,2.549999952E0,-1.546399951E0,1.742599964E0
6.400001563E0,1.215699911E0,-1.207999945E0,1.991199970E0
6.420007813E0,7.310999632E-1,-9.414999485E-1,1.539999962E0
6.450001563E0,2.026299953E0,-1.033699989E0,1.056599975E0
6.470001563E0,2.758599997E0,-4.966999888E-1,5.503000021E-1
6.490001563E0,2.621000051E0,-3.127000034E-1,-2.400000021E-2
6.510006250E0,1.623199940E0,-3.073999882E-1,-5.900999904E-1
6.540001563E0,7.779999822E-2,-3.149999976E-1,-1.293699980E0
6.560006250E0,-1.163999960E-1,-2.560999990E-1,-1.364899993E0
6.590003125E0,2.687000036E-1,-2.219999954E-2,-1.447299957E0
6.610004688E0,5.482999682E-1,1.187999994E-1,-1.607100010E0
6.640001563E0,4.633999765E-1,1.451999992E-1,-2.101599932E0
6.660007813E0,2.987000048E-1,1.706999987E-1,-2.299599886E0
6.690001563E0,3.021999896E-1,3.861999810E-1,-2.178099871E0
6.710009375E0,4.511999786E-1,4.862999916E-1,-1.905399919E0
6.740001563E0,4.579999745E-1,6.854000092E-1,-1.026700020E0
6.760001563E0,3.204999864E-1,9.548999667E-1,-4.763999879E-1
6.780001563E0,-7.989999652E-2,1.317299962E0,1.729999930E-1
6.800012500E0,4.679999873E-2,1.209699988E0,6.972000003E-1
6.830001563E0,5.788999796E-1,6.273999810E-1,1.138599992E0
6.850007813E0,3.005999923E-1,3.872999847E-1,1.340499997E0
6.880001563E0,-3.172000051E-1,5.105999708E-1,1.003000021E0
6.900007813E0,3.497000039E-1,-7.382999659E-1,1.967499971E0
6.930001563E0,-9.764999747E-1,-4.441999793E-1,1.861299992E0
6.950004688E0,-1.217199922E0,-2.222999930E-1,1.174799919E0
6.980001563E0,-1.163900018E0,-3.131999969E-1,3.737999797E-1
7.000001563E0,-1.018700004E0,-5.351999998E-1,-2.644999921E-1
7.020001563E0,-6.926000118E-1,-6.409999728E-1,-5.546999574E-1
7.040001563E0,-4.287999868E-1,-6.502000093E-1,-8.264999986E-1
7.060001563E0,-7.173999548E-1,-2.468999922E-1,-1.006600022E0
7.090001563E0,-1.104200006E0,1.867000014E-1,-1.394899964E0
7.110001563E0,-1.131299973E0,5.575000048E-1,-1.671499968E0
7.140001563E0,-9.578999877E-1,9.949999452E-1,-1.264400005E0
7.160001563E0,-6.617000103E-1,7.348999977E-1,-9.547999501E-1
7.180001563E0,-9.505999684E-1,5.460999608E-1,-6.620000005E-1
7.200006250E0,-1.335699916E0,2.012999952E-1,-4.853999913E-1
7.220014063E0,-1.672999978E0,-1.295000017E-1,-5.216000080E-1
7.250004688E0,-1.616099954E0,-6.628999710E-1,-2.760999799E-1
7.280001563E0,-1.232800007E0,-8.658999801E-1,-2.104000002E-1
7.310001563E0,-6.676999927E-1,-1.176599979E0,-1.965999901E-1
7.330001563E0,9.579999745E-2,-1.539999962E0,7.152999640E-1
7.350001563E0,2.242999971E-1,-1.423799992E0,1.617900014E0
7.380001563E0,2.978000045E-1,-4.696999788E-1,1.715799928E0
7.410001563E0,2.563799858E0,-1.964999914E0,1.702099919E0
7.430001563E0,1.581799984E0,-2.118599892E0,2.146100044E0
7.450001563E0,6.149999797E-2,-1.322899938E0,2.648299932E0
7.470001563E0,3.443999887E-1,-6.083999872E-1,1.398199916E0
7.490007813E0,1.462499976E0,-2.734999955E-1,-1.645999998E-1
7.520003125E0,2.875799894E0,-3.804000020E-1,-9.416999817E-1
7.540004688E0,2.238999844E0,-5.291000009E-1,-1.869799972E0
7.570001563E0,1.912999898E-1,-6.360999942E-1,-2.613100052E0
7.590001563E0,-3.668999970E-1,-9.314999580E-1,-2.455899954E0
7.610001563E0,-4.842000008E-1,-8.212999701E-1,-2.020499945E0
7.640000000E0,-2.748999894E-1,-3.280999959E-1,-1.361799955E0
7.660001563E0,7.490000129E-2,5.829999968E-2,-1.267599940E0
7.680006250E0,4.368000031E-1,2.307000011E-1,-1.232800007E0
7.710000000E0,3.149999976E-1,1.261999905E-1,-9.082999825E-1
7.730004688E0,-1.559999958E-2,1.700000018E-1,-8.497999907E-1
7.760001563E0,1.733999997E-1,5.029000044E-1,-1.389500022E0
7.780006250E0,3.704999983E-1,3.346000016E-1,1.849000007E-1
7.810001563E0,-1.459999941E-2,3.199000061E-1,-8.259999752E-2
7.830009375E0,-1.585000008E-1,2.531000078E-1,1.242999956E-1
7.860001563E0,4.578000009E-1,1.340000033E-1,6.819999963E-2
7.880001563E0,3.741999865E-1,1.867999882E-1,-8.410000056E-2
7.900001563E0,-3.030000031E-1,3.920999765E-1,-1.209999993E-1
7.920001563E0,-3.136999905E-1,2.773000002E-1,-4.641999900E-1
7.950001563E0,9.309999645E-2,-5.230999589E-1,1.026700020E0
7.970001563E0,-9.095999599E-1,-6.640999913E-1,1.875999928E0
8.000001563E0,-1.620000005E0,-1.354999989E-1,1.583999991E0
8.020003125E0,-9.067999721E-1,2.391999960E-1,1.404999942E-1
8.050001563E0,-4.320999980E-1,3.304999769E-1,-1.403299928E0
8.070012500E0,-9.296000004E-1,-9.539999813E-2,-1.898999929E0
8.100001563E0,-1.632299900E0,-3.920999765E-1,-1.001999974E0
8.130006250E0,-1.352599978E0,-6.606999636E-1,-3.330999911E-1
8.160001563E0,-1.288499951E0,-5.669000149E-1,-4.227999747E-1
8.180003125E0,-1.346199989E0,-3.538999856E-1,-8.055999875E-1
8.210001563E0,-1.301100016E0,-1.048999950E-1,-1.710099936E0
8.240001563E0,-1.298799992E0,-2.465000004E-1,-1.692399979E0
8.260001563E0,-1.043399930E0,-5.352999568E-1,-1.256600022E0
8.290000000E0,-1.210500002E0,-6.423999667E-1,-7.572999597E-1
8.310001563E0,-1.319800019E0,-8.204999566E-1,-4.451999962E-1
8.330001563E0,-9.914999604E-1,-7.950999737E-1,-2.439999953E-2
8.350001563E0,-4.845999777E-1,-8.948999643E-1,3.856999874E-1
8.370009375E0,-2.795000076E-1,-1.174899936E0,6.802999973E-1
8.400000000E0,-7.358999848E-1,-8.702999949E-1,6.997999549E-1
8.420006250E0,-5.652999878E-1,-2.436999977E-1,1.381999999E-1
8.450001563E0,1.893599987E0,-1.614499927E0,-3.186999857E-1
8.470004688E0,1.144400001E0,-1.831299901E0,-1.750999987E-1
8.500018750E0,-5.099999905E-1,-1.554600000E0,9.219999909E-1
8.530001563E0,4.716999829E-1,-7.166999578E-1,9.233999848E-1
8.550001563E0,2.005499840E0,-4.728999734E-1,1.722999930E0
8.570003125E0,2.858500004E0,2.285999954E-1,1.422599912E0
8.600001563E0,2.362099886E0,4.812999964E-1,1.365000010E-1
8.620001563E0,1.444199920E0,4.125999808E-1,-7.098999619E-1
8.640001563E0,8.332999945E-1,3.743999898E-1,-1.082800031E0
8.660007813E0,7.817999721E-1,4.704999924E-1,-1.039700031E0
8.690001563E0,1.133199930E0,5.045999885E-1,-8.635999560E-1
8.710009375E0,1.168399930E0,4.720999897E-1,-1.080600023E0
8.740001563E0,8.262000084E-1,4.142999947E-1,-1.416700006E0
8.760004688E0,7.225999832E-1,2.532999814E-1,-1.560099959E0
8.790001563E0,3.797000051E-1,3.612999916E-1,-1.142899990E0
8.810001563E0,3.518999815E-1,4.838999808E-1,-1.032999992E0
8.840001563E0,5.791000128E-1,6.909999847E-1,-1.141399980E0
8.860009375E0,8.509999514E-1,7.559999824E-1,-1.183899999E0
8.890001563E0,9.591999650E-1,6.523000002E-1,-9.491999745E-1
8.910006250E0,6.985999942E-1,4.737999737E-1,-9.463999867E-1
8.940000000E0,5.523999929E-1,1.596999913E-1,-9.720999599E-1
8.960003125E0,6.329999566E-1,4.811999798E-1,-1.238600016E0
8.990000000E0,1.776999950E0,1.092000008E-1,1.009999961E-1
9.010000000E0,3.764999807E-1,2.476999909E-1,1.092800021E0
9.030001563E0,-1.254699945E0,1.938000023E-1,1.899099946E0
9.050001563E0,-1.431399941E0,-2.199999988E-3,6.948999763E-1
9.070001563E0,-6.446999907E-1,-6.033999920E-1,1.448599935E0
9.090001563E0,-6.640999913E-1,-2.467999905E-1,1.865700006E0
9.110001563E0,-3.242999911E-1,-8.720999956E-1,7.134999633E-1
9.130001563E0,-1.567000002E-1,-1.000399947E0,1.603000015E-1
9.150003125E0,-3.551999927E-1,-6.198999882E-1,6.590999961E-1
9.180001563E0,-2.266599894E0,1.343999952E-1,1.083799958E0
9.200004688E0,-3.030400038E0,2.483000010E-1,-3.134000003E-1
9.220014063E0,-2.659299850E0,7.999999449E-3,-1.147599936E0
9.250009375E0,-2.655599833E0,6.286000013E-1,-5.863999724E-1
9.280001563E0,-1.950799942E0,-2.857999802E-1,-1.484300017E0
9.300004688E0,-1.841699958E0,-7.926999927E-1,-2.188099861E0
9.330001563E0,-2.700899839E0,-4.404999912E-1,-2.520299911E0
9.350006250E0,-2.608199835E0,-7.276999950E-1,-2.596099854E0
9.380001563E0,-2.068599939E0,-6.460999846E-1,-1.542299986E0
9.400001563E0,-1.152300000E0,-2.651000023E-1,-1.008100033E0
9.420001563E0,-4.824000001E-1,-3.173999786E-1,-1.178599954E0
9.450007813E0,-9.214999676E-1,-4.019999877E-2,-2.020900011E0
9.480001563E0,-7.145999670E-1,-1.669999957E-2,-2.270400047E0
9.500001563E0,2.725999951E-1,3.165999949E-1,-1.750399947E0
9.520003125E0,1.246599913E0,7.059999555E-2,-9.635999799E-1
9.540006250E0,1.023900032E0,-1.689999998E-1,-1.103500009E0
9.570001563E0,5.018000007E-1,-7.378000021E-1,-2.766599894E0
9.590007813E0,3.276999891E-1,-2.533999979E-1,-2.281499863E0
9.620001563E0,9.815999866E-1,2.904999852E-1,2.018699884E0
9.640003125E0,1.823199987E0,3.734999895E-1,2.523999929E0
9.670001563E0,1.252699971E0,-3.740999997E-1,5.185400009E0
9.690003125E0,4.740999937E-1,1.240399957E0,3.461699963E0
9.720012500E0,3.783900023E0,-1.324000001E0,-6.485999823E-1
9.750001563E0,-2.566799879E0,1.191699982E0,-8.087999821E-1
9.770001563E0,-4.259299755E0,4.668999910E-1,3.024999857E0
9.790009375E0,-2.590499878E0,-4.711999893E-1,5.130499840E0
9.820001563E0,3.268100023E0,4.540999830E-1,4.954799652E0
9.840006250E0,6.450699806E0,2.685000002E-1,2.669999838E0
9.870001563E0,2.777400017E0,-5.200000014E-3,1.647199988E0
9.890001563E0,-8.064999580E-1,9.704999924E-1,2.951000035E-1
9.910001563E0,-1.145699978E0,7.728999853E-1,-2.214099884E0
9.930004688E0,3.254999816E-1,2.096999884E-1,-1.890299916E0
9.960001563E0,2.241899967E0,8.622999787E-1,-2.101699829E0
9.980006250E0,2.511499882E0,8.237999678E-1,-2.826299906E0
1.001000156E1,9.070999622E-1,9.707999825E-1,-3.198199987E0
1.003000781E1,9.529999644E-2,2.129999995E-1,-3.604599953E0
1.006000000E1,-3.188999891E-1,-4.769999906E-2,-3.026799917E0
1.008000781E1,1.706999987E-1,5.465999842E-1,-2.468600035E0
1.011000156E1,1.131299973E0,1.921999902E-1,-1.827499986E0
1.013000781E1,1.310500026E0,6.030000001E-2,-2.167299986E0
1.016000000E1,5.023999810E-1,1.726000011E-1,-8.217999935E-1
1.018000625E1,1.879999936E-1,1.865999997E-1,3.824999928E-1
1.021000156E1,6.355999708E-1,-1.300999969E-1,1.893599987E0
1.024000156E1,-6.517999768E-1,1.429700017E0,2.919299841E0
1.027000000E1,7.191999555E-1,-4.529999942E-2,1.640100002E0
1.029000156E1,8.842999935E-1,-7.806999683E-1,7.329999804E-1
1.031000156E1,4.901999831E-1,-1.059800029E0,5.691999793E-1
1.033000156E1,-7.800000161E-2,-7.963999510E-1,1.536999941E-1
1.035000156E1,-4.254999757E-1,3.350000083E-2,-2.487999946E-1
1.037000469E1,9.779999405E-2,7.163000107E-1,-8.588999510E-1
1.040000156E1,8.165000081E-1,9.219999909E-1,-7.102999687E-1
1.042000156E1,4.546999931E-1,1.227299929E0,-1.862199903E0
1.045000469E1,-2.054999918E-1,1.036999941E0,-3.165499926E0
1.048000000E1,-5.590000153E-1,8.524000049E-1,-3.230299950E0
1.050000156E1,-1.840000004E-1,4.758999944E-1,-3.258599997E0
1.052000156E1,-6.839999557E-2,4.510999918E-1,-3.442699909E0
1.054000156E1,-4.007000029E-1,4.884999990E-1,-3.701399803E0
1.056000156E1,-8.190000057E-1,7.784000039E-1,-3.529299974E0
1.059000156E1,-9.103999734E-1,4.467999935E-1,-3.009099960E0
1.061000938E1,-1.171800017E0,3.395999968E-1,-2.933799982E0
1.064000156E1,-1.058099985E0,2.069000006E-1,-1.992299914E0
1.066000625E1,-6.750999689E-1,-1.099999994E-3,1.017599940E0
1.069000000E1,-1.157099962E0,-3.185999990E-1,4.215600014E0
1.071000156E1,-5.019999743E-1,-4.509999752E-1,5.130199909E0
1.074000156E1,5.888000131E-1,1.230899930E0,3.669699907E0
1.076000938E1,3.119899988E0,1.682699919E0,3.192399979E0
1.079000156E1,5.216599941E0,-3.336400032E0,2.020699978E0
1.081000938E1,-2.749999985E-2,-2.247799873E0,2.296700001E0
1.084000000E1,-2.940399885E0,1.315999925E-1,3.058399916E0
1.086000625E1,-1.457499981E0,6.164999604E-1,3.868299961E0
1.089000156E1,2.122999907E0,1.488699913E0,2.703399897E0
1.091000781E1,2.984999895E0,1.027099967E0,7.605999708E-1
1.094000156E1,4.430999756E-1,6.348999739E-1,-2.087800026E0
1.096000469E1,-1.382200003E0,2.635999918E-1,-2.677700043E0
1.099000000E1,-2.879999876E0,5.927000046E-1,-2.656299829E0
1.101000625E1,-2.368099928E0,5.798999667E-1,-2.086799860E0
1.104000156E1,-1.607100010E0,9.754999876E-1,-1.252499938E0
1.106000781E1,-1.330099940E0,6.726999879E-1,7.999999449E-3
1.109000312E1,-1.668200016E0,5.150000006E-2,3.474999964E-1
1.112000156E1,-1.868999958E0,-1.985999942E-1,9.053999782E-1
1.114000156E1,-1.507200003E0,-5.573999882E-1,1.349599957E0
1.117000156E1,-1.562099934E0,-1.951999962E-1,7.669999599E-1
1.119000156E1,-4.012999833E-1,-9.642999768E-1,1.603899956E0
1.121000156E1,5.469999909E-1,-1.418599963E0,2.077999830E0
1.124000156E1,-5.665999651E-1,-1.585999966E0,1.827600002E0
1.126000156E1,-2.123600006E0,-1.121599913E0,1.197700024E0
1.128000156E1,-2.167599916E0,-1.373999953E0,4.171999991E-1
1.130000625E1,-1.691999912E0,-1.382799983E0,-1.769999973E-2
1.133000000E1,-1.122699976E0,-5.595999956E-1,5.728999972E-1
1.135000781E1,-8.621999621E-1,-6.316999793E-1,6.273999810E-1
1.138000156E1,-7.604999542E-1,-8.339999914E-1,-7.809999585E-1
1.140000469E1,-1.152300000E0,-6.480000168E-2,-1.397699952E0
1.143000156E1,-7.233999968E-1,-3.664999902E-1,-2.296799898E0
1.145000781E1,-1.002699971E0,-2.440999895E-1,-2.485999823E0
1.148000156E1,-1.735000014E0,6.059999764E-2,-2.138399839E0
1.150000625E1,-1.854799986E0,-3.152999878E-1,-1.936999917E0
1.153000156E1,-2.226300001E0,-2.827999890E-1,-1.615199924E0
1.155000312E1,-2.021600008E0,-4.596999884E-1,-1.246299982E0
1.158000156E1,-1.639299989E0,-5.597999692E-1,-2.782999873E-1
1.160000156E1,-1.179899931E0,-6.259999871E-1,5.066999793E-1
1.163000000E1,-7.178999782E-1,-3.968999982E-1,1.479699969E0
1.165000156E1,-4.834999740E-1,-2.062999904E-1,1.732999921E0
1.167000156E1,-4.578999877E-1,1.694999933E-1,1.193899989E0
1.169000781E1,7.123000026E-1,-5.629000068E-1,1.175999999E0
1.172001250E1,1.526899934E0,-1.931800008E0,1.480099916E0
1.175000156E1,4.179999977E-2,-1.620999932E0,1.944199920E0
1.177000156E1,-6.754999757E-1,-8.386999965E-1,1.058399916E0
1.179000312E1,-8.947999477E-1,-2.960000038E-1,2.379999906E-1
1.182000156E1,3.529999778E-2,4.179999828E-1,1.674999893E-1
1.184000469E1,9.311999679E-1,9.463999867E-1,-3.425000012E-1
1.187000156E1,1.862399936E0,3.981999755E-1,-1.173399925E0
1.189000938E1,8.276999593E-1,2.195999920E-1,-1.466599941E0
1.192000000E1,-2.286999971E-1,-2.976000011E-1,-1.038499951E0
1.194000156E1,-1.775999963E-1,-4.026999772E-1,-1.001199961E0
1.196000156E1,2.710999846E-1,-2.062999904E-1,-1.136699915E0
1.198000781E1,6.349999905E-1,1.737999916E-1,-1.158399940E0
1.201000000E1,1.069399953E0,2.974999845E-1,-8.874999881E-1
1.203000938E1,9.606999755E-1,3.096999824E-1,-8.495000005E-1
1.206000156E1,8.779999614E-1,2.433999926E-1,-7.911999822E-1
1.208000625E1,1.016499996E0,1.850999892E-1,-5.691999793E-1
1.211000156E1,1.849799991E0,-1.442999989E-1,-5.406999588E-1
1.213000625E1,2.120100021E0,-4.856999815E-1,-7.839999795E-1
1.216000000E1,1.178599954E0,-8.384999633E-1,-4.057999849E-1
1.218001094E1,6.351999640E-1,-1.281199932E0,2.124999911E-1
1.221000156E1,-4.329999983E-1,-1.856999993E-1,3.822999895E-1
1.223000469E1,8.209999800E-1,-5.633999705E-1,1.356299996E0
1.225000625E1,1.886399984E0,-1.082599998E0,1.080399990E0
1.228001094E1,6.152999997E-1,-8.159999847E-1,5.245000124E-1
1.231000156E1,-5.813999772E-1,-7.473999858E-1,4.403999746E-1
1.234000156E1,1.738999933E-1,-8.564999700E-1,2.520000003E-2
1.236000156E1,7.598999739E-1,-9.249999523E-1,-8.649999648E-2
1.238000156E1,7.491999865E-1,-5.741999745E-1,-2.685999870E-1
1.240000156E1,4.129000008E-1,-1.116999984E-1,-9.005999565E-1
1.242000156E1,4.097999930E-1,1.053999960E-1,-1.699800014E0
1.244000156E1,4.319999814E-1,3.888999820E-1,-1.839499950E0
1.246000156E1,5.856999755E-1,4.179999828E-1,-1.750499964E0
1.248000156E1,4.743999839E-1,5.643999577E-1,-1.656799912E0
1.250000156E1,2.215999961E-1,2.075999975E-1,-1.468899965E0
1.252000781E1,-1.797000021E-1,-1.263999939E-1,-1.149399996E0
1.255000156E1,-9.498999715E-1,-3.057999909E-1,-2.915000021E-1
1.257000156E1,-1.433599949E0,-3.003000021E-1,3.522000015E-1
1.259000156E1,-1.551299930E0,-1.816999912E-1,8.554999828E-1
1.261000156E1,-1.429999948E0,2.730000019E-2,1.218699932E0
1.264000156E1,-8.891999722E-1,6.989999861E-2,1.354300022E0
1.267000469E1,-6.153999567E-1,3.581999838E-1,8.290999532E-1
1.270000156E1,4.346999824E-1,7.416999936E-1,3.324999809E-1
1.272002344E1,2.067399979E0,-3.689000010E-1,4.541999996E-1
1.275000156E1,1.015100002E0,-8.025999665E-1,1.619899988E0
1.277000156E1,2.233999968E-1,-1.523499966E0,2.132699966E0
1.279000156E1,-2.388999909E-1,-1.322799921E0,1.048399925E0
1.281000938E1,-2.460999936E-1,-4.266999960E-1,8.381999731E-1
1.284000156E1,1.255699992E0,2.347999960E-1,9.899999946E-3
1.286000469E1,1.960099936E0,3.269000053E-1,-6.434999704E-1
1.289000156E1,7.224999666E-1,4.279999807E-2,-1.725899935E0
1.291000781E1,-3.958999813E-1,-1.612000018E-1,-1.684999943E0
1.294000156E1,-5.171999931E-1,-2.909999900E-2,-9.559999704E-1
1.296000938E1,6.459999830E-2,1.771000028E-1,-7.014999986E-1
1.299000000E1,6.380000114E-1,3.831000030E-1,-1.240399957E0
1.301000156E1,4.152999818E-1,4.966999888E-1,-1.468199968E0
1.303000156E1,1.557999998E-1,5.345999599E-1,-1.559599996E0
1.305000781E1,5.929999799E-2,5.514000058E-1,-1.503700018E0
1.308000000E1,-5.559999868E-2,7.427999973E-1,-1.523699999E0
1.310000156E1,-2.256999910E-1,8.040999770E-1,-1.235599995E0
1.312000156E1,-3.511999846E-1,5.916000009E-1,-9.594999552E-1
1.314000156E1,-7.211999893E-1,7.453999519E-1,-6.254999638E-1
1.316000781E1,-8.891999722E-1,8.657999635E-1,-2.513000071E-1
1.319000156E1,-9.490000010E-1,6.649000049E-1,3.348999918E-1
1.321000469E1,-1.196499944E0,7.960999608E-1,3.431999981E-1
1.324000156E1,-9.474999905E-1,6.059999764E-2,1.389999986E0
1.326000156E1,-1.293499947E0,-2.113000005E-1,2.056999922E0
1.328000156E1,-1.552899957E0,-7.968999743E-1,2.307499886E0
1.330000938E1,-2.000200033E0,-6.523000002E-1,1.328599930E0
1.333000156E1,-2.931999922E0,3.400999904E-1,9.123999476E-1
1.335000156E1,-2.591500044E0,3.828999996E-1,5.697000027E-1
1.337000156E1,-2.228699923E0,7.170000076E-1,2.687999904E-1
1.339000156E1,-2.008499861E0,7.967999578E-1,2.149999887E-1
1.341000156E1,-2.004099846E0,7.701999545E-1,5.549999699E-2
1.343000156E1,-2.163899899E0,7.500999570E-1,-2.583000064E-1
1.345000625E1,-2.246000051E0,6.180999875E-1,-4.123999774E-1
1.348000156E1,-2.198600054E0,4.418999851E-1,-6.491000056E-1
1.350002969E1,-2.158200026E0,3.774999976E-1,-9.574999809E-1
1.353000156E1,-1.555899978E0,4.199999943E-2,-1.429700017E0
1.355000469E1,-1.133399963E0,3.680000082E-2,-1.254499912E0
1.358000156E1,-1.182399988E0,-2.265999913E-1,-5.859999731E-2
1.360000156E1,-1.482499957E0,-5.029999614E-1,-1.606999934E-1
1.362000156E1,-1.373299956E0,-6.223999858E-1,-5.198999643E-1
1.364000781E1,-8.683999777E-1,-4.068000019E-1,-3.862999976E-1
1.367000156E1,-1.392000020E-1,-6.168000102E-1,3.215000033E-1
1.369000625E1,1.499999966E-2,-8.098999858E-1,4.848999977E-1
1.372001250E1,-1.077999994E-1,-8.632999659E-1,3.155999780E-1
1.375000156E1,-7.022999525E-1,1.196999997E-1,-6.940999627E-1
1.377000156E1,5.600999594E-1,-3.860999942E-1,-6.372999549E-1
1.379000781E1,2.163699865E0,-1.567399979E0,-9.157999754E-1
1.382000156E1,7.560999990E-1,-1.421000004E0,4.129000008E-1
1.384000938E1,-4.578000009E-1,-1.565899968E0,1.031499982E0
1.387000156E1,-1.537899971E0,-3.911999762E-1,9.079999477E-2
1.389000781E1,-1.160499930E0,-1.376999915E-1,5.480000004E-2
1.392000156E1,3.228999972E-1,1.668999940E-1,1.538999975E-1
1.394000781E1,7.928000093E-1,5.469999835E-2,-1.129899979E0
1.397000156E1,-4.912000000E-1,1.950999945E-1,-2.148999929E0
1.399000625E1,-9.844999909E-1,5.879999697E-2,-1.804199934E0
1.402000156E1,-1.250999928E0,-9.129999578E-2,-1.091899991E0
1.404000156E1,-8.854999542E-1,-1.999999862E-3,-8.211999536E-1
1.406000156E1,-3.314999938E-1,2.647999823E-1,-6.969000101E-1
1.408000313E1,1.273999959E-1,3.131999969E-1,-7.700999975E-1
1.411000156E1,2.309999987E-2,7.339999825E-2,-1.315500021E0
1.413000938E1,-1.765999943E-1,3.720000014E-2,-1.321200013E0
1.416000156E1,-3.009999990E-1,1.943999976E-1,-1.062600017E0
1.418000625E1,-4.470000044E-2,3.359999955E-1,-4.785999954E-1
1.421000156E1,2.241999954E-1,5.166999698E-1,8.880999684E-1
1.423000781E1,3.547999859E-1,3.346000016E-1,1.016299963E0
1.426000156E1,7.479999959E-2,-2.538999915E-1,8.197000027E-1
1.428000625E1,-5.354999900E-1,-2.825999856E-1,9.472000003E-1
1.431000156E1,-1.331499934E0,2.052999884E-1,4.192000031E-1
1.433000156E1,-6.495999694E-1,-9.123999476E-1,5.115999579E-1
1.436000156E1,-1.630199909E0,1.730000041E-2,5.518999696E-1
1.438000625E1,-2.054399967E0,4.180999994E-1,6.354999542E-1
1.441000156E1,-1.059399962E0,1.744000018E-1,5.351999998E-1
1.443000156E1,-6.879000068E-1,-2.766999900E-1,2.979999967E-2
1.445000156E1,-1.023199916E0,-6.475999951E-1,-1.396999955E-1
1.447000938E1,-1.254099965E0,-7.534999847E-1,-5.672000051E-1
1.450000156E1,-1.170599937E0,-4.399999976E-1,-1.100000024E0
1.452000156E1,-8.518999815E-1,-4.563999772E-1,-7.986999750E-1
1.454000156E1,-8.898999691E-1,-1.665999889E-1,-5.686999559E-1
1.456000156E1,-9.603999853E-1,-4.809999838E-2,-5.705999732E-1
1.458000156E1,-7.858999968E-1,2.749999985E-2,-6.473999619E-1
1.460000156E1,-7.838999629E-1,6.969999522E-2,-6.748999953E-1
1.462000156E1,-1.056200027E0,1.472000033E-1,-8.423999548E-1
1.464000156E1,-1.126600027E0,1.585000008E-1,-8.710999489E-1
1.466000156E1,-1.232399940E0,1.372999996E-1,-1.208099961E0
1.468000156E1,-1.028200030E0,-1.030000001E-1,-1.177199960E0
1.471000156E1,-1.106199980E0,9.969999641E-2,-2.669000030E-1
1.474000156E1,-8.105999827E-1,1.728999913E-1,5.491999984E-1
1.476000156E1,-4.515999854E-1,3.561999798E-1,9.450999498E-1
1.478000156E1,-3.197000027E-1,6.513000131E-1,9.496999979E-1
1.481000938E1,7.409999520E-2,8.849999905E-1,1.287999898E-1
1.484000156E1,1.472899914E0,-5.873000026E-1,7.251999974E-1
1.486000469E1,2.199999988E-1,-3.436999917E-1,1.463099957E0
1.489000156E1,-4.408999979E-1,-1.386999935E-1,2.193599939E0
1.491000625E1,1.509999931E-1,-1.868999898E-1,1.631699920E0
1.494000156E1,1.289699912E0,-1.717000008E-1,1.036599994E0
1.496000156E1,1.552899957E0,-3.464999795E-1,1.601999998E-1
1.498000156E1,1.201399922E0,-4.420000017E-1,-8.947999477E-1
1.500000156E1,5.048999786E-1,-5.447999835E-1,-1.732399940E0
1.502000156E1,-2.196999937E-1,-3.933999836E-1,-1.999300003E0
1.504000156E1,-6.154999733E-1,-5.461999774E-1,-1.705999970E0
1.506000313E1,-4.833999872E-1,-6.044999957E-1,-1.442799926E0
1.509000156E1,1.802999973E-1,-2.020999938E-1,-5.852999687E-1
1.511000781E1,7.781999707E-1,-1.499999966E-2,-5.139999986E-1
1.514000156E1,1.048900008E0,8.410000056E-2,-7.116999626E-1
1.516000469E1,9.452999830E-1,3.127000034E-1,-1.204599977E0
1.519000156E1,6.644999981E-1,4.318999946E-1,-1.566599965E0
1.521000312E1,6.205999851E-1,5.101000071E-1,-1.624300003E0
1.524000156E1,4.221999943E-1,4.596000016E-1,-7.013999820E-1
1.526000625E1,5.273000002E-1,4.951999784E-1,-4.792999923E-1
1.529000156E1,7.499999832E-3,2.574999928E-1,9.864999652E-1
1.531000156E1,-1.199999973E-1,-1.472999901E-1,1.187399983E0
1.533000156E1,-1.850999892E-1,-7.869999856E-2,9.064999819E-1
1.535000156E1,-6.141999960E-1,4.409999847E-1,-2.759999968E-2
1.537000156E1,1.188999936E-1,1.884000003E-1,-4.433999956E-1
1.539000313E1,1.587999910E-1,-4.091999829E-1,8.568999767E-1
1.542000156E1,-1.448499918E0,-4.672999978E-1,1.676299930E0
1.545000781E1,-1.922499895E0,-1.537999958E-1,-5.457000136E-1
1.548000156E1,-1.035300016E0,-2.474999875E-1,-9.007999897E-1
1.550000938E1,-7.051999569E-1,-1.191999987E-1,-9.358999729E-1
1.553000156E1,-3.172999918E-1,-4.824000001E-1,-1.342499971E0
1.555000469E1,-3.522000015E-1,-6.096000075E-1,-1.333899975E0
1.558000156E1,-8.095999956E-1,-1.069700003E0,-7.644000053E-1
1.560000469E1,-1.184399962E0,-1.076699972E0,-2.576999962E-1
1.563000156E1,-1.031000018E0,-8.874999881E-1,-8.039999753E-2
1.565000625E1,-7.518999577E-1,-8.241999745E-1,-2.728999853E-1
1.568000312E1,-1.029699922E0,-4.627999961E-1,-6.645999551E-1
1.570000312E1,-1.224200010E0,-8.769999444E-2,-8.350999951E-1
1.572001406E1,-1.125599980E0,8.200000040E-3,-1.075999975E0
1.575000156E1,-8.697999716E-1,5.590000004E-2,-6.863999963E-1
1.577000156E1,-6.107999682E-1,7.039999962E-2,-9.649999440E-2
1.579000156E1,-5.582000017E-1,-1.713999957E-1,5.238000154E-1
1.581000156E1,-8.198999763E-1,-2.636999786E-1,8.407999873E-1
1.583000156E1,-7.616999745E-1,-1.735999882E-1,8.148999810E-1
1.586000000E1,-4.402000010E-1,-2.899999917E-1,8.262999654E-1
1.588000156E1,-4.210000038E-1,-2.149999887E-2,1.016099930E0
1.590000156E1,1.479000002E-1,7.163999677E-1,1.410099983E0
1.592000156E1,1.323400021E0,2.624000013E-1,8.101999760E-1
1.594000469E1,1.838699937E0,-7.407000065E-1,-4.529999793E-1
1.597000156E1,9.910000116E-2,-1.038499951E0,1.455299973E0
1.599000313E1,-4.614999890E-1,-4.898999929E-1,2.003000021E0
1.602000000E1,7.930999994E-1,-5.083999634E-1,9.880999923E-1
1.604000156E1,1.438499928E0,-1.841000021E-1,3.034999967E-1
1.606000156E1,1.738899946E0,-1.260000002E-2,-4.408999979E-1
1.608000156E1,1.623600006E0,7.299999706E-3,-1.882200003E0
1.610000156E1,8.157999516E-1,2.820999920E-1,-2.373800039E0
1.613000469E1,2.401999980E-1,-6.260000169E-2,-2.008199930E0
1.616000000E1,5.554999709E-1,-4.999999702E-2,-1.155499935E0
1.618000938E1,1.097899914E0,1.281999946E-1,-7.500000000E-1
1.621000156E1,1.644699931E0,-9.009999782E-2,-7.416999936E-1
1.624000156E1,1.077299953E0,-7.239999622E-2,-1.383999944E0
1.627000156E1,4.714999795E-1,1.231999993E-1,-1.727499962E0
1.629000156E1,6.205999851E-1,2.890000045E-1,-1.482800007E0
1.631000156E1,9.259999990E-1,4.785999954E-1,-1.002499938E0
1.633000781E1,9.267999530E-1,6.492999792E-1,-8.202999830E-1
1.636000156E1,5.590999722E-1,8.349999785E-1,-3.793999851E-1
1.638000938E1,3.683999777E-1,9.781000018E-1,4.179999977E-2
1.641000156E1,8.091999888E-1,4.998999834E-1,4.491999745E-1
1.643000938E1,9.490000010E-1,1.331999898E-1,8.471999764E-1
1.646000156E1,5.099999905E-1,-5.607999563E-1,7.688999772E-1
1.648000312E1,-8.422999978E-1,5.379999802E-2,-1.228000000E-1
1.651000000E1,6.202999949E-1,-5.855000019E-1,-1.650999933E-1
1.653000156E1,7.712000012E-1,-4.852999747E-1,-2.209999971E-2
1.655000156E1,-5.145999789E-1,7.329999655E-2,5.558999777E-1
1.657000156E1,-1.386699915E0,-5.999999703E-4,8.594999909E-1
1.660000156E1,-1.592299938E0,-2.782999873E-1,8.565999866E-1
1.662001094E1,-1.269400001E0,-2.199999988E-1,6.068999767E-1
1.665000781E1,-7.076999545E-1,-2.212999910E-1,-2.451999933E-1
1.668000156E1,-7.963999510E-1,-3.446999788E-1,-9.187999964E-1
1.670000156E1,-1.167199969E0,-4.649999738E-1,-1.163100004E0
1.672001719E1,-1.187600017E0,-3.980000019E-1,-9.343999624E-1
1.675000156E1,-9.259999990E-1,-1.199999973E-1,-6.811999679E-1
1.678000000E1,-7.193999887E-1,7.100000046E-3,-8.927999735E-1
1.680000156E1,-9.632999897E-1,3.500000015E-2,-1.126799941E0
1.682000781E1,-1.073899984E0,1.439999975E-2,-1.429700017E0
1.685000156E1,-1.137899995E0,1.946000010E-1,-1.543599963E0
1.687000312E1,-1.358899951E0,4.983999729E-1,-1.313499928E0
1.690000156E1,-1.455799937E0,5.745999813E-1,-9.813999534E-1
1.692000938E1,-1.345700026E0,4.862999916E-1,-6.841999888E-1
1.695000156E1,-1.129299998E0,4.199000001E-1,1.662999988E-1
1.697000156E1,-9.070999622E-1,3.522000015E-1,6.613999605E-1
1.699000156E1,-6.681999564E-1,1.377999932E-1,9.183999896E-1
1.701000781E1,-6.807000041E-1,3.779999912E-2,9.095999599E-1
1.704000156E1,-7.612999678E-1,2.881000042E-1,4.521999955E-1
1.706000625E1,-4.669999778E-1,7.471999526E-1,6.207999587E-1
1.709000156E1,9.910999537E-1,5.493000150E-1,7.432999611E-1
1.711000625E1,2.202699900E0,-6.786999702E-1,9.655999541E-1
1.714000156E1,6.890000105E-1,-8.353999853E-1,1.539299965E0
1.716000312E1,-2.881999910E-1,-5.270000100E-1,1.417199969E0
1.719000156E1,2.008999884E-1,-7.499999553E-2,7.109999657E-1
1.721000156E1,9.162999988E-1,1.289999932E-1,2.251999974E-1
1.723000156E1,1.795099974E0,-1.856999993E-1,-3.095999956E-1
1.725000781E1,2.358000040E0,-4.247999787E-1,-1.164299965E0
1.728000000E1,1.505599976E0,-6.164000034E-1,-1.757599950E0
1.730000000E1,5.435000062E-1,-6.058999896E-1,-1.268899918E0
1.732000156E1,-2.879999951E-2,-5.259000063E-1,-1.144599915E0
1.734000156E1,7.509999722E-2,-1.836999953E-1,-8.028999567E-1
1.737000000E1,1.111899972E0,3.630999923E-1,-7.703999877E-1
1.739000156E1,1.527499914E0,6.322000027E-1,-8.603999615E-1
1.741000156E1,1.542199969E0,4.939999878E-1,-1.199199915E0
1.743000156E1,1.229900002E0,4.232999980E-1,-1.478199959E0
1.745000781E1,8.693999648E-1,4.337999821E-1,-1.428399920E0
1.748000156E1,7.497000098E-1,4.540999830E-1,-1.121500015E0
1.750000469E1,7.806999683E-1,5.631999969E-1,-8.510999680E-1
1.753000156E1,6.631999612E-1,6.886999607E-1,-7.558999658E-1
1.755000469E1,4.550999999E-1,7.568999529E-1,-6.538999677E-1
1.758000000E1,4.100000020E-3,6.836999655E-1,-3.141999841E-1
1.760000156E1,-6.520000100E-2,4.105999768E-1,-1.249999925E-2
1.762000156E1,3.139999881E-2,1.590999961E-1,4.912000000E-1
1.764000156E1,1.603000015E-1,-7.039999962E-2,8.729999661E-1
1.766000156E1,-1.354999989E-1,2.069999874E-1,5.500000119E-1
1.768000156E1,-1.396999955E-1,5.426999927E-1,2.281999886E-1
1.770000781E1,6.274999976E-1,-3.951999843E-1,6.010000110E-1
1.772001406E1,-3.646999896E-1,-5.102999806E-1,7.809000015E-1
1.775000156E1,-1.633700013E0,2.436999977E-1,9.092999697E-1
1.778000156E1,-1.081300020E0,1.708000004E-1,4.723999798E-1
1.780000156E1,-5.238999724E-1,1.837999970E-1,-2.180000022E-2
1.782000156E1,-6.589999795E-2,-6.599999964E-2,-6.987000108E-1
1.784000625E1,-2.723000050E-1,-2.168999910E-1,-1.099200010E0
1.787000156E1,-8.639999628E-1,-4.979999959E-1,-1.033800006E0
1.789000781E1,-1.023299932E0,-4.822999835E-1,-7.330999970E-1
1.792000156E1,-7.229999900E-1,-5.166000128E-1,-7.155999541E-1
1.794000781E1,-6.010000110E-1,-3.389999866E-1,-1.147400022E0
1.797000156E1,-8.679999709E-1,1.079999935E-2,-1.293299913E0
1.799000312E1,-8.581999540E-1,1.469999924E-2,-1.092399955E0
1.802000000E1,-8.305000067E-1,1.269999985E-2,-8.989999890E-1
1.804000156E1,-9.838999510E-1,3.059999831E-2,-7.477999926E-1
1.806000156E1,-9.265999794E-1,1.641999930E-1,-5.206999779E-1
1.808000156E1,-7.214999795E-1,1.914999932E-1,-3.136000037E-1
1.810000156E1,-6.638000011E-1,9.950000048E-2,-2.626000047E-1
1.812000156E1,-6.441000104E-1,9.619999677E-2,-8.419999480E-2
1.814000469E1,-4.116999805E-1,7.239999622E-2,8.489999920E-2
1.817000156E1,-2.460999936E-1,-5.079999939E-2,4.454999864E-1
1.819000469E1,-3.247999847E-1,1.855999976E-1,8.951999545E-1
1.822001406E1,2.979999967E-2,6.383999586E-1,1.171700001E0
1.825000313E1,1.436699986E0,-4.812999964E-1,1.091400027E0
1.828000781E1,1.438899994E0,-1.187399983E0,1.791199923E0
1.831000156E1,6.768000126E-1,-5.345000029E-1,1.852599978E0
1.833000625E1,1.419499993E0,-8.355999589E-1,1.043599963E0
1.836000156E1,2.542799950E0,-8.698999882E-1,-6.566999555E-1
1.838000469E1,2.172199965E0,-7.020999789E-1,-1.571799994E0
1.841000156E1,1.013299942E0,-3.734000027E-1,-2.232599974E0
1.843000156E1,5.807999969E-1,-2.951999903E-1,-2.133599997E0
1.845000156E1,4.718999863E-1,-2.078999877E-1,-1.659099936E0
1.847000156E1,5.144999623E-1,-1.744999886E-1,-1.337000012E0
1.850001875E1,6.913999915E-1,-6.599999964E-3,-1.222599983E0
1.853000938E1,6.933000088E-1,8.309999853E-2,-1.094200015E0
1.856000156E1,4.553999901E-1,2.585999966E-1,-1.090299964E0
1.859000000E1,6.455000043E-1,5.189999938E-1,-1.269299984E0
1.861000156E1,7.368999720E-1,7.078999877E-1,-1.326900005E0
1.863000312E1,5.582000017E-1,8.125999570E-1,-9.447000027E-1
1.865000781E1,3.093999922E-1,9.089999795E-1,-4.842999876E-1
1.867000938E1,1.757999957E-1,9.182999730E-1,-1.674999893E-1
1.870000000E1,3.382999897E-1,8.561999798E-1,3.208999932E-1
1.872001250E1,7.172999978E-1,6.330999732E-1,4.585999846E-1
1.875000156E1,5.597999692E-1,1.987999976E-1,5.367999673E-1
1.877000156E1,-2.474999875E-1,3.504999876E-1,2.060000002E-1
1.879000156E1,-8.410999775E-1,9.749999642E-1,-8.919999748E-2
1.881000156E1,7.087999582E-1,1.167999953E-1,4.767999947E-1
1.883000156E1,9.114999771E-1,-2.989999950E-1,9.178999662E-1
1.885000781E1,-9.350999594E-1,4.519999772E-2,1.000699997E0
1.888000156E1,-2.097199917E0,-2.931999862E-1,6.398999691E-1
1.890000156E1,-1.552199960E0,-5.273000002E-1,3.700000048E-1
1.893000156E1,-7.433999777E-1,-4.353999794E-1,5.579999834E-2
1.896000938E1,-3.675999939E-1,-6.015999913E-1,-4.294999838E-1
1.899000156E1,-4.544999897E-1,-6.283000112E-1,-1.026399970E0
1.901000156E1,-4.281999767E-1,-5.641999841E-1,-1.190500021E0
1.903000156E1,-3.818999827E-1,-4.140999913E-1,-1.389400005E0
1.905000156E1,-6.459999830E-2,-8.500000089E-2,-1.738099933E0
1.907000156E1,1.303000003E-1,-6.879999489E-2,-1.484599948E0
1.909000156E1,-1.713999957E-1,-1.981000006E-1,-1.303799987E0
1.911000156E1,-7.567999959E-1,-1.627999991E-1,-1.098099947E0
1.913000156E1,-8.811999559E-1,9.200000204E-3,-1.140200019E0
1.915000156E1,-6.825999618E-1,3.342999816E-1,-9.027000070E-1
1.917000156E1,-6.958000064E-1,1.709999889E-1,-7.635999918E-1
1.919000156E1,-1.252099991E0,1.039000005E-1,-5.386999846E-1
1.921000156E1,-1.089499950E0,3.049999848E-2,-1.677999943E-1
1.923000156E1,-5.396000147E-1,-1.403999925E-1,5.787999630E-1
1.925000156E1,-1.097999960E-1,-3.376999795E-1,1.393100023E0
1.927000156E1,-1.577999890E-1,-2.089999914E-1,1.830899954E0
1.929000156E1,-7.421000004E-1,4.996999800E-1,1.612100005E0
1.931000156E1,-4.921000004E-1,6.599999666E-1,4.294999838E-1
1.933000156E1,1.078799963E0,-4.439999908E-2,-3.799999831E-3
1.935000156E1,2.166100025E0,-8.818999529E-1,1.085099936E0
1.937000156E1,1.135599971E0,-4.700999856E-1,3.187899828E0
1.939000156E1,5.234999657E-1,3.999999911E-2,3.596999884E0
1.941000625E1,1.678799987E0,-8.317999840E-1,2.154199839E0
1.944000156E1,2.543200016E0,-7.586999536E-1,1.215999946E-1
1.946000469E1,2.559299946E0,-8.727999926E-1,-1.434499979E0
1.949000000E1,1.355299950E0,-6.448000073E-1,-2.023399830E0
1.951000156E1,4.790000021E-1,-7.495999932E-1,-1.740199924E0
1.953000156E1,-1.518999934E-1,-7.652999759E-1,-1.151799917E0
1.955000312E1,-1.359999925E-1,-6.123999953E-1,-2.891999781E-1
1.958000156E1,4.976999760E-1,-1.528999954E-1,-7.739999890E-2
1.960000781E1,9.163999557E-1,-4.559999704E-2,-7.407000065E-1
1.963000000E1,1.020099998E0,2.078999877E-1,-1.902899981E0
1.965000625E1,1.081799984E0,3.536999822E-1,-2.158200026E0
1.968000156E1,1.248399973E0,4.557999969E-1,-2.273200035E0
1.970000938E1,1.049899936E0,7.188000083E-1,-1.910599947E0
1.972001406E1,9.721999764E-1,7.041999698E-1,-1.735999942E0
1.975000313E1,7.139999866E-1,7.143999934E-1,-7.789999843E-1
1.978000156E1,6.735000014E-1,7.914999723E-1,-1.734099984E0
1.980000625E1,5.252999663E-1,1.056200027E0,-1.067999974E-1
1.983000000E1,1.089100003E0,-5.829999968E-2,1.304000020E0
1.985000781E1,4.039999843E-1,-3.184999824E-1,1.896699905E0
1.988000156E1,-1.572099924E0,1.206099987E0,1.545300007E0
1.990000156E1,-1.771000028E-1,7.002999783E-1,1.535300016E0
1.992000156E1,1.053300023E0,3.276999891E-1,1.487299919E0
1.994000781E1,8.327999711E-1,1.992999911E-1,1.194299936E0
1.997000156E1,-1.245700002E0,1.307999939E-1,8.775999546E-1
2.000000156E1,-1.856599927E0,-1.990999877E-1,-5.220999718E-1
2.002000156E1,-6.449999809E-1,-8.186999559E-1,-1.126500010E0
2.004000469E1,-4.699999932E-3,-8.895999789E-1,-1.324100018E0
2.007000156E1,-3.822000027E-1,-8.053999543E-1,-1.105599999E0
2.010000156E1,-7.380999923E-1,-6.951000094E-1,-9.417999983E-1
2.012000156E1,-4.296000004E-1,-8.453999758E-1,-1.388299942E0
2.014000625E1,-2.442999929E-1,-3.053999841E-1,-2.078999996E0
2.017000156E1,-2.342000008E-1,9.799999744E-2,-2.279899836E0
2.019000469E1,-3.739999831E-1,3.197999895E-1,-1.812799931E0
2.022001406E1,-6.216999888E-1,4.899999872E-2,-1.048699975E0
2.025000469E1,-1.015599966E0,4.344999790E-1,-8.599999547E-1
2.028000781E1,-9.132999778E-1,-1.209999993E-2,-4.145999849E-1
2.031000156E1,-1.666000009E0,-2.109999955E-2,5.816000104E-1
2.033000625E1,-1.473799944E0,-3.590000048E-2,1.188699961E0
2.036000156E1,-7.523999810E-1,2.239999920E-2,1.716599941E0
2.038000625E1,-6.394000053E-1,2.636999786E-1,1.937599897E0
2.041000156E1,-2.216999978E-1,9.455999732E-1,1.815099955E0
2.043000313E1,1.577999949E0,6.839999557E-2,1.188799977E0
2.046000156E1,2.756899834E0,-1.477999926E0,1.377300024E0
2.048000938E1,1.138599992E0,-7.709999681E-1,1.945199966E0
2.051000156E1,9.145999551E-1,-3.658999801E-1,7.203999758E-1
2.053000156E1,2.435400009E0,-7.587999701E-1,-1.389999967E-2
2.055000156E1,2.771899939E0,-3.816999793E-1,-1.031499982E0
2.057000156E1,2.514499903E0,-4.700999856E-1,-2.179600000E0
2.060000156E1,5.902000070E-1,-4.859999940E-2,-2.586599827E0
2.062000156E1,2.463999987E-1,-3.454000056E-1,-1.393599987E0
2.064000156E1,2.663999796E-1,-6.732000113E-1,-1.223500013E0
2.066000156E1,-1.318999976E-1,-6.295999885E-1,-6.281999946E-1
2.068000156E1,-1.499999966E-2,-1.946000010E-1,-4.179999977E-2
2.070000156E1,4.837999940E-1,7.239999622E-2,-4.043000042E-1
2.072001563E1,4.439999759E-1,6.629999727E-2,-5.436999798E-1
2.075000156E1,9.919999540E-2,1.712999940E-1,-1.222399950E0
2.077000156E1,1.749999970E-1,1.304000020E-1,-1.533800006E0
2.079000156E1,2.707000077E-1,2.531999946E-1,-1.846199989E0
2.081000156E1,2.013999969E-1,4.457999766E-1,-1.713299990E0
2.083000156E1,3.601000011E-1,6.782000065E-1,-1.213599920E0
2.085000938E1,4.204999804E-1,9.310999513E-1,-5.799999833E-1
2.088000000E1,2.768999934E-1,9.379999638E-1,2.698999941E-1
2.090000156E1,4.865999818E-1,5.834999681E-1,6.044999957E-1
2.092000625E1,7.560999990E-1,1.875000000E-1,8.704999685E-1
2.095000000E1,1.138999984E-1,-1.485999972E-1,1.133199930E0
2.097000312E1,-1.069499969E0,1.958999932E-1,7.231999636E-1
2.100000156E1,-5.572999716E-1,3.217000067E-1,2.673999965E-1
2.102000156E1,-1.966999918E-1,3.621000051E-1,2.040999979E-1
2.104000156E1,-5.907999873E-1,2.992999852E-1,4.487999976E-1
2.106000156E1,-1.349399924E0,1.547999978E-1,7.250999808E-1
2.108000156E1,-1.837399960E0,-2.935999930E-1,3.398999870E-1
2.110000156E1,-1.319000006E0,-5.643000007E-1,-1.211999953E-1
2.112000156E1,-2.242999971E-1,-9.897999763E-1,-5.109999776E-1
2.114000156E1,2.852999866E-1,-1.190999985E0,-5.859999657E-1
2.116000156E1,-5.299999937E-2,-1.098099947E0,-5.460000038E-1
2.118000156E1,-4.842999876E-1,-9.585999846E-1,-5.827999711E-1
2.120000156E1,-4.444999993E-1,-7.103999853E-1,-1.231400013E0
2.122001406E1,-1.745999902E-1,-3.737999797E-1,-1.583799958E0
2.125000469E1,8.999999613E-2,-1.014999971E-1,-1.612100005E0
2.128000000E1,-3.791999817E-1,4.979999736E-2,-1.670699954E0
2.130000156E1,-8.725999594E-1,1.155999973E-1,-1.561699986E0
2.132000156E1,-1.226099968E0,1.441999972E-1,-1.335500002E0
2.134000156E1,-1.245700002E0,3.012999892E-1,-1.311499953E0
2.136000156E1,-9.860999584E-1,4.806999862E-1,-1.323799968E0
2.139000156E1,-5.184999704E-1,6.773999929E-1,-5.551999807E-1
2.141000781E1,-3.134000003E-1,4.158999920E-1,-1.844999939E-1
2.144000156E1,-1.689999923E-2,-2.400000021E-2,5.845000148E-1
2.146000625E1,-3.197999895E-1,-1.193999946E-1,1.232100010E0
2.149000156E1,-8.344999552E-1,7.393999696E-1,1.903599977E0
2.151000469E1,3.484999835E-1,6.632999778E-1,1.343400002E0
2.154000156E1,2.913300037E0,-1.077700019E0,1.334800005E0
2.156000312E1,1.839899898E0,-9.860000014E-1,2.093899965E0
2.159000000E1,5.629999638E-1,-4.307999909E-1,1.542699933E0
2.161000156E1,1.183699965E0,-5.859000087E-1,7.396000028E-1
2.163000156E1,2.101599932E0,-3.904999793E-1,-3.713999987E-1
2.165000781E1,2.273099899E0,-5.026000142E-1,-6.926000118E-1
2.168000156E1,1.008499980E0,-4.319999814E-1,-1.145699978E0
2.170000156E1,1.541000009E-1,-6.758999825E-1,-1.125999928E0
2.172001406E1,-2.690999806E-1,-8.016999960E-1,-8.389999866E-1
2.175000625E1,-3.649999946E-2,-5.264999866E-1,-5.895000100E-1
2.178000000E1,-5.869999900E-2,-4.287999868E-1,-8.377999663E-1
2.180000156E1,-2.685000002E-1,-1.867000014E-1,-1.118299961E0
2.182000156E1,7.769999653E-2,-3.073000014E-1,-1.689999938E0
2.184000156E1,1.860000007E-2,-6.859999895E-2,-8.474999666E-1
2.186000156E1,3.974999785E-1,6.289999932E-2,-1.670899987E0
2.188000156E1,5.595999956E-1,1.057999954E-1,-1.977299929E0
2.190000156E1,2.754999995E-1,-2.105999887E-1,-2.429999828E0
2.193000156E1,-7.073999643E-1,1.462599993E0,-1.187500000E0
2.195000625E1,-3.696999848E-1,1.270499945E0,-1.528100014E0
2.198000156E1,1.319599986E0,1.044299960E0,-9.340999722E-1
2.200000938E1,1.656700015E0,1.049099922E0,-8.119999617E-2
2.203000156E1,1.242100000E0,2.786999941E-1,7.954999804E-1
2.205000156E1,3.628000021E-1,-9.899999946E-3,1.045199990E0
2.207000156E1,-5.789999962E-1,6.129999757E-1,9.996999502E-1
2.210000156E1,3.834999800E-1,-1.544999927E-1,2.108199835E0
2.212000156E1,-1.525000036E-1,-1.239999942E-2,2.501799822E0
2.214000469E1,-6.656999588E-1,-1.459999941E-2,1.740099907E0
2.217000156E1,-1.237499952E0,5.829999968E-2,7.447999716E-1
2.219000469E1,-7.960000038E-1,-5.626999736E-1,4.904999733E-1
2.222001406E1,-4.546999931E-1,-5.489000082E-1,-2.010999918E-1
2.225000781E1,-4.386999905E-1,-7.457999587E-1,-1.075299978E0
2.228000000E1,-6.459000111E-1,-6.076999903E-1,-1.510299921E0
2.230000156E1,-6.069999933E-1,-4.184999764E-1,-1.439399958E0
2.232000156E1,-5.975999832E-1,-2.423999906E-1,-1.422999978E0
2.234000156E1,-5.834999681E-1,-5.480000004E-2,-1.401499987E0
2.236000156E1,-4.711000025E-1,1.430999935E-1,-1.309199929E0
2.238000625E1,-4.481000006E-1,3.256999850E-1,-1.277199984E0
2.241000156E1,-7.441999912E-1,3.353999853E-1,-1.118299961E0
2.243000625E1,-1.131099939E0,4.081999958E-1,-8.247999549E-1
2.246000156E1,-1.060699940E0,5.442999601E-1,-6.631999612E-1
2.248000938E1,-7.045999765E-1,4.199000001E-1,-7.283999920E-1
2.251000156E1,-2.904999852E-1,1.184999943E-1,2.396999896E-1
2.253000156E1,2.232999951E-1,-3.209999800E-1,1.300999999E0
2.256000156E1,-4.209999740E-2,-3.058999777E-1,1.865999937E0
2.258000156E1,-5.457999706E-1,-7.419999689E-2,2.195899963E0
2.260000156E1,-7.321000099E-1,4.180999994E-1,1.622699976E0
2.262000156E1,1.391099930E0,-6.682999730E-1,1.282799959E0
2.264000156E1,2.363100052E0,-1.360599995E0,7.038999796E-1
2.266000156E1,1.430699944E0,-1.390100002E0,1.568899989E0
2.268000313E1,7.680000067E-1,-1.121299982E0,2.190000057E0
2.271000000E1,1.906799912E0,-6.998999715E-1,4.531999826E-1
2.273000312E1,2.420899868E0,-4.763999879E-1,1.359999925E-2
2.276000156E1,1.937199950E0,-1.328999996E-1,-1.535399914E0
2.278000781E1,1.179600000E0,-2.131000012E-1,-1.767399907E0
2.281000312E1,4.592999816E-1,-9.129999578E-2,-1.759699941E0
2.283000469E1,5.059999824E-1,6.969999522E-2,-1.496699929E0
2.285000781E1,6.017999649E-1,7.769999653E-2,-1.230099916E0
2.288000000E1,7.166999578E-1,9.699999541E-2,-1.533599973E0
2.290000156E1,5.652999878E-1,3.317999840E-1,-1.085299969E0
2.292000938E1,6.297000051E-1,1.588999927E-1,-1.963899970E0
2.295000000E1,4.317999780E-1,6.685000062E-1,-1.774199963E0
2.297000469E1,7.199999690E-1,7.662999630E-1,-1.282699943E0
2.300000156E1,1.059899926E0,6.446999907E-1,-5.669000149E-1
2.302000313E1,9.185999632E-1,4.709999859E-1,-7.829999924E-2
2.305000781E1,4.769999981E-1,7.683999538E-1,3.789999783E-1
2.307000781E1,7.329999804E-1,9.365999699E-1,1.510999948E-1
2.310000156E1,1.369300008E0,6.248999834E-1,-1.058999971E-1
2.312000469E1,9.894999862E-1,4.469999969E-1,-6.920000166E-2
2.315000156E1,2.044999897E-1,4.099999964E-1,5.297999978E-1
2.317000781E1,7.167999744E-1,-4.569000006E-1,9.725999832E-1
2.320000156E1,-1.021499991E0,-4.039999843E-1,1.277099967E0
2.322001406E1,-1.755299926E0,-2.184000015E-1,9.625999928E-1
2.325000625E1,-1.219499946E0,-3.901000023E-1,-1.358999908E-1
2.328000000E1,-4.948000014E-1,-5.349000096E-1,-6.414999962E-1
2.330000156E1,-4.010999799E-1,-6.067999601E-1,-4.144999981E-1
2.332000156E1,-5.151000023E-1,-6.111999750E-1,-3.188000023E-1
2.334000156E1,-5.559999943E-1,-6.231999993E-1,-6.089999676E-1
2.336000313E1,-4.851999879E-1,-4.834999740E-1,-9.097999930E-1
2.339000156E1,-1.341999918E-1,-9.319999814E-2,-1.320699930E0
2.342000000E1,-1.213999987E-1,2.141999900E-1,-1.542099953E0
2.344000156E1,-4.751999974E-1,1.079999935E-2,-1.618099928E0
2.346000625E1,-8.181999922E-1,6.390000135E-2,-1.546700001E0
2.349000000E1,-9.037999511E-1,8.579999954E-2,-1.654199958E0
2.351000312E1,-8.754999638E-1,8.619999886E-2,-1.672999978E0
2.354000156E1,-7.277999520E-1,3.350000083E-2,-1.172599912E0
2.356000469E1,-7.734999657E-1,6.089999899E-2,-5.041999817E-1
2.359000156E1,-2.219999880E-1,-1.304000020E-1,1.735999882E-1
2.361000313E1,1.168999970E-1,-2.219000012E-1,6.626999974E-1
2.364000156E1,1.354999989E-1,3.355999887E-1,1.347899914E0
2.366000625E1,3.443000019E-1,2.987999916E-1,1.166999936E0
2.369000156E1,1.787599921E0,1.220999956E-1,1.280699968E0
2.371000156E1,2.645599842E0,-1.393499970E0,1.503299952E0
2.374000156E1,1.004500031E0,-1.280599952E0,2.709499836E0
2.376000156E1,5.606999993E-1,-6.214999557E-1,2.790599823E0
2.378000156E1,1.098199964E0,-2.216999978E-1,1.700999975E0
2.380000156E1,1.976899981E0,-3.634999990E-1,5.788999796E-1
2.382000156E1,2.010099888E0,-2.392999977E-1,-3.304999769E-1
2.384000156E1,1.300899982E0,-1.836999953E-1,-7.300999761E-1
2.386000156E1,6.390999556E-1,-3.563999832E-1,-1.096300006E0
2.389000156E1,2.504000068E-1,-2.825999856E-1,-1.541799903E0
2.391000156E1,3.447999954E-1,9.089999646E-2,-1.766899943E0
2.393000156E1,8.713999987E-1,2.883999944E-1,-1.783399940E0
2.395000781E1,1.039600015E0,2.839999795E-1,-1.689599991E0
2.398000156E1,6.103000045E-1,3.190999925E-1,-1.588899970E0
2.400000781E1,6.618999839E-1,4.021999836E-1,-1.540300012E0
2.403000156E1,1.034600019E0,4.548999965E-1,-9.498999715E-1
2.405000469E1,1.019999981E0,4.678999782E-1,-8.756999969E-1
2.408000156E1,4.165000021E-1,5.004000068E-1,-2.116999924E-1
2.410000156E1,-1.416999996E-1,8.276000023E-1,-4.329999983E-1
2.412000156E1,-1.484999955E-1,8.240999579E-1,-2.885999978E-1
2.414000625E1,3.199999779E-2,5.740999579E-1,-1.776999980E-1
2.417000156E1,-1.958999932E-1,-9.420000017E-2,-3.920000046E-2
2.419000938E1,-1.060400009E0,3.738999963E-1,-5.364999771E-1
2.422001406E1,-2.569999993E-1,5.179999769E-2,5.922999978E-1
2.425000156E1,-1.479000002E-1,-2.638999820E-1,2.457599878E0
2.427000156E1,-1.148599982E0,2.073999941E-1,2.031299829E0
2.429000938E1,-1.647399902E0,3.705999851E-1,5.112000108E-1
2.432000156E1,-1.503099918E0,-2.725999951E-1,9.359999746E-2
2.434000625E1,-1.092399955E0,-2.888999879E-1,-1.695999950E-1
2.437000156E1,-3.330999911E-1,-7.317999601E-1,-4.948000014E-1
2.439000938E1,-4.784999788E-1,-7.238999605E-1,-7.908999920E-1
2.442000000E1,-9.089999795E-1,-7.035999894E-1,-6.464999914E-1
2.444000938E1,-6.204999685E-1,-8.192999959E-1,-6.013999581E-1
2.447000156E1,-2.158999890E-1,-5.837999582E-1,-7.387999892E-1
2.449000312E1,-2.915000021E-1,-2.675999999E-1,-1.024399996E0
2.452000156E1,-5.916999578E-1,-2.349999920E-2,-1.570099950E0
2.454000156E1,-9.207999706E-1,6.049999967E-2,-1.881099939E0
2.456000156E1,-1.156599998E0,6.359999627E-2,-1.920499921E0
2.458000938E1,-1.143399954E0,1.054999977E-1,-1.748699903E0
2.461000156E1,-5.200999975E-1,-5.609999970E-2,-1.043699980E0
2.463000781E1,-5.428999662E-1,-1.290999949E-1,-1.611000001E-1
2.466000156E1,-5.135999918E-1,-3.064000010E-1,7.181000113E-1
2.468000469E1,-3.924999833E-1,-2.081999928E-1,1.431199908E0
2.471000156E1,-2.990999818E-1,3.472999930E-1,1.229300022E0
2.473000625E1,-1.318999976E-1,6.913999915E-1,9.328999519E-1
2.476000156E1,2.336799860E0,-5.187000036E-1,1.133599997E0
2.478000156E1,2.445299864E0,-8.353999853E-1,2.011499882E0
2.480000156E1,1.470499992E0,-4.620999992E-1,2.697099924E0
2.482000156E1,1.353600025E0,-3.747999966E-1,2.046700001E0
2.485000156E1,1.995399952E0,-5.386999846E-1,1.325299978E0
2.488000469E1,1.927899957E0,-2.122000009E-1,-1.370999962E-1
2.491000156E1,7.662999630E-1,-3.026999831E-1,-1.336199999E0
2.493000313E1,-1.722999960E-1,-2.280000001E-1,-1.771299958E0
2.496000156E1,-4.939000010E-1,-3.199999919E-3,-1.633199930E0
2.498000156E1,-5.900000036E-2,1.411999911E-1,-1.170699954E0
2.500000156E1,4.518999755E-1,1.230999976E-1,-1.272799969E0
2.502000469E1,4.948000014E-1,1.615999937E-1,-1.738099933E0
2.505000156E1,3.078999817E-1,2.429999970E-2,-2.361500025E0
2.507000469E1,3.346000016E-1,1.129999980E-1,-2.428299904E0
2.510000156E1,4.341999888E-1,2.960000001E-2,-1.736599922E0
2.512000625E1,4.192999899E-1,2.802999914E-1,-1.564799905E0
2.515000156E1,3.529999778E-2,8.514999747E-1,-1.138299942E0
2.517000781E1,-2.425999939E-1,1.094699979E0,-7.511999607E-1
2.520000156E1,1.989999972E-2,9.531999826E-1,-3.209999949E-2
2.522001406E1,5.213999748E-1,5.256999731E-1,3.889999986E-1
2.525000313E1,1.666999906E-1,3.738999963E-1,5.723999739E-1
2.527000313E1,-8.263999820E-1,7.387999892E-1,3.136000037E-1
2.530000156E1,-3.306999803E-1,-6.039999798E-2,8.005999923E-1
2.532000625E1,-9.273999929E-1,-4.839999974E-2,1.230499983E0
2.535000000E1,-2.004299879E0,5.135999918E-1,7.603999972E-1
2.537000312E1,-1.705699921E0,7.299999893E-2,5.372999907E-1
2.540000156E1,-9.053999782E-1,-4.238999784E-1,2.926999927E-1
2.542000156E1,-5.552999973E-1,-8.102999926E-1,7.979999483E-2
2.544000156E1,-8.289999962E-1,-7.058999538E-1,-2.960000038E-1
2.546000312E1,-6.128000021E-1,-1.093899965E0,-8.676999807E-1
2.549000156E1,-2.336999923E-1,-7.501999736E-1,-1.750099897E0
2.551000156E1,6.202999949E-1,-5.965999961E-1,-2.369899988E0
2.553000156E1,1.108999997E-1,-4.050000012E-2,-9.907999635E-1
2.555000156E1,-3.129999936E-1,-1.054999977E-1,-2.717999816E-1
2.558000156E1,-4.716999829E-1,-3.225999773E-1,-9.702999592E-1
2.560000156E1,-6.279000044E-1,3.309999779E-2,-2.026299953E0
2.562000156E1,-6.359999776E-1,5.869999900E-2,-2.143300056E0
2.565000156E1,-1.042699933E0,5.379999802E-2,-1.423499942E0
2.567000156E1,-9.027999640E-1,3.120999932E-1,-8.411999941E-1
2.569000156E1,-2.084999979E-1,1.512999982E-1,1.279999968E-2
2.571000625E1,-1.399999950E-2,1.882999986E-1,6.833999753E-1
2.574000156E1,-4.599999785E-1,-2.466999888E-1,7.545999885E-1
2.576000469E1,-9.401999712E-1,4.133999944E-1,7.792999744E-1
2.579000156E1,1.115999967E-1,6.940999627E-1,1.157299995E0
2.581000156E1,2.091699839E0,-3.076999784E-1,1.861099958E0
2.583000156E1,2.586400032E0,-8.789999485E-1,2.241299868E0
2.585001250E1,1.481499910E0,-3.087999821E-1,3.069799900E0
2.588000156E1,1.990799904E0,-7.318999767E-1,2.310099840E0
2.590000469E1,2.308899879E0,-6.335999966E-1,1.222599983E0
2.593000156E1,2.241899967E0,-2.308999896E-1,-1.791999936E-1
2.595000156E1,1.776299953E0,-4.115999937E-1,-8.427999616E-1
2.597000156E1,6.280999780E-1,-2.920999825E-1,-1.017899990E0
2.599000156E1,4.789999872E-2,-4.001999795E-1,-1.079299927E0
2.601000156E1,8.469999582E-2,-3.797000051E-1,-1.101199985E0
2.603000156E1,5.929999948E-1,-3.199000061E-1,-1.268599987E0
2.605000312E1,9.673999548E-1,-2.448999882E-1,-1.586199999E0
2.608000156E1,8.765999675E-1,-5.839999765E-2,-2.300099850E0
2.610000625E1,8.343999982E-1,-6.319999695E-2,-2.616899967E0
2.613000000E1,8.210999966E-1,-1.195999980E-1,-2.262899876E0
2.615000625E1,6.790999770E-1,1.439999975E-2,-1.936599970E0
2.618000156E1,5.934000015E-1,7.589999586E-2,-1.268499970E0
2.620000625E1,2.757000029E-1,2.782999873E-1,-9.704999924E-1
2.622001250E1,4.039999843E-2,5.399999619E-1,-7.506999969E-1
2.625000156E1,1.476999968E-1,8.823999763E-1,-2.052999884E-1
2.627000156E1,4.731999934E-1,8.179999590E-1,1.689999998E-1
2.629000469E1,5.762000084E-1,6.642999649E-1,6.965000033E-1
2.632000156E1,-4.628999829E-1,1.243700027E0,7.540999651E-1
2.634000938E1,5.202999711E-1,-1.092999950E-1,1.694899917E0
2.637000156E1,-7.076999545E-1,7.799999788E-3,1.513000011E0
2.639000156E1,-1.988199949E0,-7.999999821E-2,1.475199938E0
2.641000156E1,-2.554600000E0,-3.937000036E-1,9.208999872E-1
2.643000156E1,-2.324499846E0,-3.831000030E-1,1.085299969E0
2.645000781E1,-1.182500005E0,-5.194999576E-1,1.084100008E0
2.648000156E1,-1.504999995E-1,-6.050999761E-1,-5.079999939E-2
2.650000156E1,-2.330999970E-1,-6.927999854E-1,-7.507999539E-1
2.652000156E1,-2.866999805E-1,-8.108999729E-1,-1.147799969E0
2.654000313E1,-3.759000003E-1,-7.562999725E-1,-1.176699996E0
2.657000000E1,-2.592000067E-1,-4.934999943E-1,-1.253199935E0
2.659000469E1,-3.718000054E-1,-2.490999997E-1,-1.532199979E0
2.662000156E1,-5.202000141E-1,3.519999981E-2,-2.007799864E0
2.664000625E1,-8.172999620E-1,2.228000015E-1,-2.041499853E0
2.667000156E1,-1.197999954E0,2.918999791E-1,-1.963799953E0
2.669000156E1,-1.235000014E0,3.143000007E-1,-1.821499944E0
2.672001406E1,-7.838000059E-1,1.243999973E-1,-1.298499942E0
2.675000156E1,-7.760999799E-1,1.574999988E-1,-2.414999902E-1
2.678000000E1,-2.856999934E-1,6.499999668E-3,5.776000023E-1
2.680000156E1,-1.264999956E-1,-5.879999697E-2,1.143100023E0
2.682000156E1,-4.571999907E-1,2.416999936E-1,1.616400003E0
2.684000156E1,-2.355999947E-1,4.782999754E-1,2.049700022E0
2.686000156E1,3.667999804E-1,8.551999927E-1,1.874899983E0
2.688000156E1,1.958699942E0,-2.028999925E-1,1.982800007E0
2.690000156E1,2.091599941E0,-3.058999777E-1,2.374199867E0
2.692000156E1,1.644699931E0,-3.626999855E-1,2.646899939E0
2.695000000E1,1.441799998E0,-8.179999888E-2,1.422299981E0
2.697000156E1,2.277099848E0,-6.065999866E-1,9.997999668E-1
2.700000156E1,2.381099939E0,-5.961999893E-1,-1.099999994E-1
2.703000625E1,1.001999974E0,-7.332999706E-1,-9.637999535E-1
2.706000000E1,-1.697999984E-1,-6.294999719E-1,-1.303300023E0
2.708000312E1,-6.889999658E-2,-4.396999776E-1,-1.156399965E0
2.711000156E1,6.226999760E-1,-2.089999914E-1,-1.473199964E0
2.713000469E1,8.594999909E-1,-1.332999915E-1,-1.835500002E0
2.716000000E1,6.782000065E-1,-1.934999973E-1,-2.262599945E0
2.718000313E1,6.485999823E-1,-2.401999980E-1,-2.173199892E0
2.721000000E1,6.747999787E-1,-5.559999868E-2,-2.093600035E0
2.723000000E1,8.806999922E-1,4.160000011E-2,-2.125999928E0
2.725000625E1,7.846999764E-1,3.969999850E-1,-1.868099928E0
2.727000781E1,1.999000013E-1,4.892999828E-1,-1.130900025E0
2.730000156E1,-5.108999610E-1,8.883000016E-1,-4.654999971E-1
2.732000156E1,-1.740999967E-1,7.787999511E-1,-6.669999659E-2
2.735000156E1,7.321999669E-1,5.604000092E-1,8.005999923E-1
2.737000469E1,5.652999878E-1,5.981999636E-1,1.259299994E0
2.740000156E1,-3.471999764E-1,8.337000012E-1,1.062199950E0
2.742000156E1,2.872000039E-1,1.391000003E-1,9.483999610E-1
2.744000156E1,-3.134000003E-1,-2.563999891E-1,9.067999721E-1
2.746000156E1,-1.852199912E0,-1.004999951E-1,1.020200014E0
2.748000156E1,-2.642099857E0,-7.339999825E-2,6.807999611E-1
2.750000156E1,-2.187199831E0,-2.430999875E-1,1.740999967E-1
2.752000313E1,-1.200500011E0,-3.366999924E-1,-2.017999887E-1
2.755000156E1,-6.222000122E-1,-6.983000040E-1,3.795000017E-1
2.757000469E1,-6.915999651E-1,-7.523999810E-1,2.239999920E-1
2.760000156E1,-2.242999971E-1,-7.665999532E-1,-1.193300009E0
2.762000156E1,3.197999895E-1,-5.376999974E-1,-2.069799900E0
2.764000156E1,1.463999897E-1,-1.960000023E-2,-1.560899973E0
2.766000469E1,-5.069999769E-2,2.032999992E-1,-1.165799975E0
2.769000156E1,-2.719999850E-2,-3.112999797E-1,-1.829899907E0
2.771000469E1,-1.911000013E-1,-1.627999991E-1,-2.343699932E0
2.774000000E1,-7.497999668E-1,-1.039000005E-1,-1.882999897E0
2.776000625E1,-8.384000063E-1,-2.259999961E-1,-1.358199954E0
2.779000156E1,-1.116799951E0,-5.539999902E-2,-9.615999460E-1
2.781000156E1,-1.161000013E0,2.060000040E-2,-4.853999913E-1
2.783000156E1,-8.217999935E-1,2.899999963E-3,-1.595999897E-1
2.786000938E1,-1.255999953E-1,-5.519999936E-2,6.022999883E-1
2.789000313E1,-7.319999486E-2,6.137999892E-1,2.015599966E0
2.791000781E1,-1.783999950E-1,8.515999913E-1,2.675699949E0
2.794000156E1,1.939199924E0,-9.888999462E-1,2.777899981E0
2.796000469E1,2.462499857E0,-1.364799976E0,2.799099922E0
2.799000156E1,1.391799927E0,-7.974999547E-1,3.174599886E0
2.801000156E1,1.416399956E0,-6.319000125E-1,1.877799988E0
2.803000156E1,1.778800011E0,-4.196999967E-1,1.082299948E0
2.805000469E1,2.410899878E0,-1.974999905E-1,-6.589999795E-2
2.808000156E1,2.096799850E0,-3.701999784E-1,-1.274099946E0
2.810000781E1,7.049999833E-1,-5.124999881E-1,-1.645200014E0
2.813000000E1,-1.021000028E0,-6.387999654E-1,-1.706599951E0
2.815000156E1,-1.167299986E0,-6.076999903E-1,-1.523800015E0
2.817000156E1,-5.019999743E-1,-3.300999999E-1,-1.329399943E0
2.819000156E1,4.711000025E-1,5.829999968E-2,-1.501099944E0
2.822001406E1,8.321999907E-1,5.729999766E-2,-1.586599946E0
2.825000781E1,1.859000027E-1,-1.435000002E-1,-1.892499924E0
2.828000156E1,4.255999923E-1,-1.219999976E-2,-2.239300013E0
2.830000781E1,8.528999686E-1,2.412000000E-1,-2.266199827E0
2.833000156E1,8.524000049E-1,2.479999959E-1,-1.311299920E0
2.835000625E1,5.209999904E-2,3.836999834E-1,-5.979999900E-1
2.838000156E1,-6.881999969E-1,6.179999709E-1,1.438999921E-1
2.840000938E1,-1.057999954E-1,4.190999866E-1,-1.454000026E-1
2.843000156E1,7.811999917E-1,6.937999725E-1,8.848999739E-1
2.845000469E1,8.418999910E-1,1.047399998E0,8.459999561E-1
2.848000156E1,8.109999895E-1,1.068999991E-1,1.098699927E0
2.850001875E1,-1.376999915E-1,2.417999953E-1,1.145599961E0
2.853000156E1,-1.671399951E0,1.859999895E-1,5.740999579E-1
2.855000156E1,-2.001600027E0,9.349999577E-2,2.104000002E-1
2.858000156E1,-1.539199948E0,5.889999866E-2,2.895999849E-1
2.860000156E1,-6.603999734E-1,-1.215999946E-1,1.561999917E-1
2.862000156E1,-6.989999861E-2,-4.124999940E-1,-8.169999719E-2
2.864000625E1,-1.970999986E-1,-5.880999565E-1,-1.563999951E-1
2.867000156E1,-1.058200002E0,-7.224999666E-1,-5.703999996E-1
2.869000469E1,-1.019799948E0,-6.498000026E-1,-7.384999990E-1
2.872001406E1,-7.171999812E-1,-2.814999819E-1,-9.598000050E-1
2.875000156E1,-6.697999835E-1,-1.147999987E-1,-1.707700014E0
2.877000156E1,-5.780999660E-1,-5.629999936E-2,-2.024600029E0
2.879000156E1,-7.910000086E-1,3.470999897E-1,-2.118099928E0
2.882000156E1,-9.363999963E-1,3.044999838E-1,-2.043799877E0
2.884000313E1,-1.034899950E0,3.125000000E-1,-1.569599986E0
2.887000000E1,-1.328400016E0,9.579999745E-2,-9.524999857E-1
2.889000156E1,-1.318899989E0,2.239999920E-1,-8.628999591E-1
2.891000156E1,-6.868000031E-1,1.329999976E-2,-8.779999614E-2
2.893000938E1,-2.795999944E-1,-2.110999972E-1,6.912999749E-1
2.896000156E1,-5.938000083E-1,1.305000037E-1,1.529099941E0
2.898000469E1,-7.186999917E-1,6.486999989E-1,2.070099831E0
2.901000156E1,1.054399967E0,2.216999978E-1,1.837799907E0
2.903000312E1,2.755300045E0,-1.207499981E0,1.739799976E0
2.906000000E1,1.354399920E0,-8.748999834E-1,2.552599907E0
2.908000312E1,9.552999735E-1,-1.022199988E0,2.683300018E0
2.911000156E1,1.537899971E0,-1.202199936E0,1.207399964E0
2.913000156E1,2.076999903E0,-7.371000051E-1,8.289999515E-2
2.915000156E1,2.359499931E0,-3.815999925E-1,-8.808999658E-1
2.917000156E1,1.598299980E0,-1.854999959E-1,-1.406499982E0
2.919000156E1,3.792999983E-1,-2.655999959E-1,-1.631599903E0
2.922001406E1,-4.763000011E-1,-2.492999882E-1,-1.420899987E0
2.925000625E1,6.969999522E-2,-1.743000001E-1,-1.574399948E0
2.927000938E1,5.412999988E-1,-1.817999929E-1,-2.024999857E0
2.930000156E1,5.762000084E-1,-2.131999880E-1,-2.778800011E0
2.932000938E1,5.273999572E-1,-3.877999783E-1,-2.871799946E0
2.935000000E1,5.120999813E-1,-4.535999894E-1,-2.491400003E0
2.937000625E1,7.110999823E-1,-4.095999897E-1,-2.193500042E0
2.940000156E1,2.336999923E-1,1.704999954E-1,-1.798699975E0
2.943000156E1,-2.967999876E-1,7.062999606E-1,-1.073300004E0
2.945000156E1,-1.653999984E-1,9.939999580E-1,-6.010999680E-1
2.947000156E1,1.801999956E-1,1.186599970E0,-3.790000081E-2
2.949000156E1,6.651999950E-1,1.082099915E0,6.161999702E-1
2.951000156E1,6.766999960E-1,8.804999590E-1,8.594999909E-1
2.953000156E1,-3.271999955E-1,1.308499932E0,1.061699986E0
2.955000156E1,-1.416999996E-1,8.327999711E-1,1.616999984E0
2.957000156E1,4.766999781E-1,-2.951000035E-1,2.482699871E0
2.960000156E1,-1.237599969E0,2.730000019E-2,3.017899990E0
2.962000156E1,-1.783800006E0,-3.368999958E-1,2.254499912E0
2.965000156E1,-2.114099979E0,-2.434999943E-1,1.301999927E0
2.967000625E1,-1.445599914E0,-3.980000019E-1,6.635000110E-1
2.970000156E1,-2.264999896E-1,-6.895999908E-1,-2.348999977E-1
2.972001563E1,1.359999925E-2,-7.364000082E-1,-8.093000054E-1
2.975000156E1,-6.920000166E-2,-4.909999967E-1,-1.514899969E0
2.977000156E1,1.006999984E-1,-1.908999979E-1,-1.810199976E0
2.979000156E1,5.257999897E-1,7.000000030E-2,-2.188299894E0
2.982000156E1,8.481000066E-1,3.340999782E-1,-2.518499851E0
2.984000156E1,6.785999537E-1,4.063999951E-1,-2.411599874E0
2.986000156E1,1.542000026E-1,1.767999977E-1,-2.270799875E0
2.989000156E1,-7.421999574E-1,-1.816999912E-1,-1.978299975E0
2.991000156E1,-1.079200029E0,-2.638999820E-1,-1.671000004E0
2.993000156E1,-9.785999656E-1,-3.339999914E-1,-1.151000023E0
2.996000781E1,-5.891999602E-1,-2.316999882E-1,-3.416000009E-1
2.999000156E1,-1.692000031E-1,-1.943999976E-1,7.810999751E-1
3.001000469E1,-1.396999955E-1,-2.500000000E-1,1.405200005E0
3.004000156E1,-5.715999603E-1,3.164999783E-1,2.075399876E0
3.006000156E1,-5.989999697E-2,4.711000025E-1,1.809099913E0
3.008000156E1,1.289199948E0,-3.701999784E-1,1.384899974E0
3.010000312E1,1.746399999E0,-8.788999915E-1,1.497599959E0
3.013000156E1,1.055199981E0,-5.505999923E-1,4.000999928E0
3.015000781E1,1.042400002E0,-4.718999863E-1,4.124199867E0
3.018000313E1,2.648499966E0,-2.985000014E-1,2.002699852E0
3.020000469E1,3.753599882E0,-1.262999922E-1,-6.089999899E-2
3.022001406E1,3.472800016E0,-1.961999983E-1,-1.630899906E0
3.025000781E1,7.675999999E-1,-3.956999779E-1,-1.951599956E0
3.028000156E1,-5.990999937E-1,-3.877999783E-1,-1.314299941E0
3.030000156E1,-3.522999883E-1,-1.597999930E-1,-1.079399943E0
3.032000156E1,2.354999930E-1,2.469999902E-2,-1.408599973E0
3.034000156E1,5.105000138E-1,1.818999946E-1,-2.136800051E0
3.036000156E1,4.205999970E-1,2.851999998E-1,-2.624099970E0
3.038000156E1,3.000999987E-1,1.223999932E-1,-2.682799816E0
3.040000156E1,2.099999972E-2,7.949999720E-2,-2.481199980E0
3.042000156E1,7.249999791E-2,6.409999728E-2,-2.172999859E0
3.044000156E1,3.544999957E-1,1.489000022E-1,-1.989499927E0
3.046000156E1,6.428999901E-1,3.312000036E-1,-1.834899902E0
3.049000938E1,3.034999967E-1,4.372999966E-1,-9.899999499E-1
3.052000156E1,-5.658999681E-1,5.491999984E-1,-2.257999927E-1
3.054000469E1,-5.837999582E-1,5.284000039E-1,2.852999866E-1
3.057000156E1,2.449999936E-2,2.775999904E-1,1.066699982E0
3.059000625E1,5.299999844E-3,6.273999810E-1,1.364300013E0
3.062000156E1,8.003999591E-1,-2.793000042E-1,1.892699957E0
3.064000781E1,-1.243999973E-1,-3.222999871E-1,1.951699972E0
3.067000000E1,-1.922799945E0,-2.663999796E-1,1.560099959E0
3.069000312E1,-2.417700052E0,-2.360000014E-1,2.408999950E-1
3.072001406E1,-1.448099971E0,2.649999857E-1,-5.340999961E-1
3.075000156E1,2.346999943E-1,4.549999908E-2,-1.031800032E0
3.078000156E1,1.511999965E-1,1.585000008E-1,-1.485199928E0
3.081000156E1,1.191999987E-1,3.876999915E-1,-1.689999938E0
3.083000156E1,1.657999903E-1,5.788999796E-1,-1.443199992E0
3.085000625E1,2.155999988E-1,4.606999755E-1,-1.429899931E0
3.087002812E1,-6.300000101E-2,4.193999767E-1,-1.608399987E0
3.090000156E1,-5.832999945E-1,2.823999822E-1,-2.173500061E0
3.092000156E1,-9.578999877E-1,1.634999961E-1,-2.248999834E0
3.094000625E1,-1.255699992E0,-9.609999508E-2,-1.800199986E0
3.097000156E1,-1.517199993E0,-3.200999796E-1,-9.389999509E-1
3.099000312E1,-1.344799995E0,-2.829999924E-1,-6.207000017E-1
3.102000156E1,-5.489000082E-1,-3.300999999E-1,1.322000027E-1
3.104000156E1,2.331999987E-1,-4.407999814E-1,1.099799991E0
3.107002656E1,1.199999973E-1,-4.101999998E-1,2.206199884E0
3.110000156E1,-3.729999959E-1,1.116999984E-1,2.051699877E0
3.112000156E1,4.247999787E-1,9.699999541E-2,1.474799991E0
3.115000156E1,2.313199997E0,-1.104200006E0,1.882499933E0
3.118000156E1,1.463999987E0,-2.579999864E-1,4.427499771E0
3.120000156E1,1.664199948E0,-3.981999755E-1,3.976099968E0
3.122001406E1,2.576599836E0,-5.703999996E-1,2.427000046E0
3.125000781E1,3.820199966E0,-6.319000125E-1,-7.425999641E-1
3.128000156E1,1.957799911E0,-7.621999979E-1,-2.463299990E0
3.131000156E1,-1.053999960E-1,-7.550999522E-1,-2.339400053E0
3.133000156E1,-9.829999506E-2,-4.183000028E-1,-1.994399905E0
3.136000156E1,1.329800010E0,1.242999956E-1,-2.022599936E0
3.138000625E1,1.669899940E0,4.691999853E-1,-2.175899982E0
3.141000156E1,9.474999905E-1,4.081999958E-1,-2.948400021E0
3.143000156E1,3.515000045E-1,5.439999700E-1,-3.059399843E0
3.145000156E1,3.493999839E-1,4.213999808E-1,-2.606400013E0
3.147000938E1,3.789999783E-1,4.319999814E-1,-2.087599993E0
3.150000000E1,1.454000026E-1,6.468999982E-1,-1.401600003E0
3.152000781E1,-3.613999784E-1,8.399999738E-1,-8.802999854E-1
3.155000156E1,-7.027999759E-1,8.118000031E-1,-3.862999976E-1
3.157000625E1,-7.451999784E-1,9.454999566E-1,5.839999765E-2
3.160000156E1,-1.330000013E-1,7.198999524E-1,1.308099985E0
3.162000938E1,1.781999916E-1,5.091999769E-1,1.937999964E0
3.165000156E1,-5.648999810E-1,7.736999989E-1,1.262099981E0
3.167000156E1,4.065999985E-1,4.463999867E-1,1.628299952E0
3.169000156E1,1.805400014E0,-6.739999652E-1,2.227499962E0
3.172001563E1,2.999999821E-1,-6.689999700E-1,2.684599876E0
3.175000156E1,-1.665799975E0,-1.212099910E0,1.105499983E0
3.177000469E1,-1.963699937E0,-8.114999533E-1,1.174999997E-1
3.180000156E1,-1.508999914E-1,-8.826999664E-1,-7.720999718E-1
3.182000469E1,5.852999687E-1,-4.882999957E-1,-8.713999987E-1
3.185000156E1,4.291999936E-1,2.151999921E-1,-1.473899961E0
3.187000625E1,4.329999983E-1,5.299999714E-1,-1.961099982E0
3.190000156E1,7.759999633E-1,8.804000020E-1,-1.921599984E0
3.192000156E1,1.062600017E0,7.430999875E-1,-1.671299934E0
3.194000156E1,8.535999656E-1,5.152999759E-1,-1.871699929E0
3.196000156E1,1.284999996E-1,1.797000021E-1,-2.029000044E0
3.198000156E1,-5.680999756E-1,-3.289999813E-2,-1.529399991E0
3.200000156E1,-6.165999770E-1,-5.518999696E-1,-1.353500009E0
3.203000156E1,-7.900999784E-1,-5.882999897E-1,-1.342299938E0
3.205000156E1,-7.987999916E-1,-6.721000075E-1,-1.073400021E0
3.207000156E1,-7.921999693E-1,-8.754999638E-1,-3.149999976E-1
3.209000156E1,-7.552999854E-1,-9.074999690E-1,8.580999970E-1
3.211000156E1,-5.996999741E-1,-6.139000058E-1,1.985199928E0
3.214000000E1,-4.690000042E-2,-7.180000097E-2,2.402400017E0
3.216000469E1,1.911999881E-1,7.700999975E-1,2.067299843E0
3.219000156E1,1.945799947E0,-5.446000099E-1,1.042899966E0
3.221000156E1,2.103800058E0,-1.001699924E0,1.220999956E0
3.223000156E1,1.744699955E0,-7.616999745E-1,3.413899899E0
3.225000312E1,1.724699974E0,-9.914000034E-1,4.412199974E0
3.227003594E1,2.305500031E0,-7.857999802E-1,3.254199982E0
3.230000938E1,3.418699980E0,-3.689000010E-1,7.827000022E-1
3.233000156E1,2.333400011E0,-6.549999863E-2,-1.766499996E0
3.235000625E1,1.082000017E0,-2.994999886E-1,-2.620299816E0
3.238000000E1,1.723999977E-1,-3.292999864E-1,-2.729099989E0
3.240000313E1,3.046000004E-1,-2.250999957E-1,-2.679199934E0
3.243000000E1,1.049199939E0,-3.839999810E-2,-2.719699860E0
3.245000312E1,1.002699971E0,1.709999889E-2,-2.943099976E0
3.248000156E1,2.694000006E-1,9.619999677E-2,-3.058799982E0
3.250000312E1,1.319999993E-1,3.799999878E-2,-2.810799837E0
3.253000156E1,-1.219999976E-2,2.841999829E-1,-1.777599931E0
3.255000156E1,1.357000023E-1,2.078000009E-1,-1.099399924E0
3.258000156E1,-7.930000126E-2,4.620999992E-1,-5.424000025E-1
3.260000469E1,-5.814999938E-1,9.742999673E-1,-3.942999840E-1
3.263000156E1,1.100999936E-1,8.381999731E-1,4.511999786E-1
3.265000625E1,1.014400005E0,6.013999581E-1,1.448199987E0
3.268000156E1,5.020999908E-1,8.947999477E-1,2.297499895E0
3.270000469E1,3.376999795E-1,3.777000010E-1,2.330199957E0
3.272001406E1,4.125999808E-1,-4.140000045E-2,2.230099916E0
3.275000156E1,-7.274999619E-1,-1.902000010E-1,2.590699911E0
3.277000156E1,-1.508499980E0,-4.808999896E-1,2.147199869E0
3.279000469E1,-1.863699913E0,-4.187999964E-1,1.192299962E0
3.282000156E1,-2.249999940E-1,-5.315999985E-1,5.819999799E-2
3.284000156E1,8.568999767E-1,-6.229999661E-1,-2.613999844E-1
3.286000156E1,8.328999877E-1,-4.633999765E-1,-5.744999647E-1
3.288000156E1,4.671999812E-1,-2.039999962E-1,-1.224699974E0
3.290000156E1,4.311999977E-1,-9.910000116E-2,-2.157700062E0
3.292000156E1,4.506999850E-1,3.816999793E-1,-2.702699900E0
3.294000313E1,4.988999963E-1,6.812999845E-1,-2.514400005E0
3.297000156E1,4.562999904E-1,2.556999922E-1,-2.271499872E0
3.299000938E1,-1.871999949E-1,1.960000023E-2,-2.424900055E0
3.302000156E1,-1.355399966E0,-2.432999909E-1,-2.217000008E0
3.304000156E1,-1.726199985E0,-5.932999849E-1,-1.720600009E0
3.306000156E1,-2.045599937E0,-6.444999576E-1,-1.273800015E0
3.308000469E1,-2.238899946E0,-4.593999982E-1,-9.125999808E-1
3.311000156E1,-2.024800062E0,-3.867000043E-1,-4.496999979E-1
3.313000156E1,-1.280099988E0,-3.526999950E-1,2.241999954E-1
3.315000156E1,-5.278999805E-1,-3.294000030E-1,1.134699941E0
3.318001094E1,-5.967999697E-1,3.840000033E-1,2.260400057E0
3.321000000E1,3.461000025E-1,7.598999739E-1,1.838699937E0
3.323000469E1,2.215999842E0,-7.512999773E-1,1.707499981E0
3.325000781E1,2.530400038E0,-8.194999695E-1,3.065399885E0
3.328000156E1,1.511799932E0,-7.092999816E-1,5.055099964E0
3.330000156E1,1.621299982E0,-9.756000042E-1,3.425699949E0
3.332000156E1,2.195600033E0,-6.784999967E-1,1.918499947E0
3.334000156E1,3.254400015E0,-5.419999957E-1,-2.150999904E-1
3.336000156E1,3.369299889E0,-7.939999551E-2,-1.654599905E0
3.338000469E1,2.299499989E0,-7.149999589E-2,-2.317899942E0
3.341000156E1,3.461000025E-1,-3.007999957E-1,-2.447199821E0
3.343000625E1,-1.546999961E-1,-5.849999934E-2,-2.166199923E0
3.345000781E1,3.531000018E-1,-1.336999983E-1,-1.871899962E0
3.348000625E1,8.256999850E-1,1.692000031E-1,-2.114099979E0
3.350001875E1,6.861000061E-1,1.310999990E-1,-2.500200033E0
3.353000469E1,3.578999937E-1,1.666999906E-1,-2.282799959E0
3.356000156E1,4.648999870E-1,1.480000019E-1,-1.599099994E0
3.358000156E1,4.014999866E-1,2.001999915E-1,-1.163499951E0
3.361000156E1,3.889999911E-2,4.368999898E-1,-6.008999944E-1
3.364000000E1,-2.703999877E-1,6.345999837E-1,-3.222999871E-1
3.366000156E1,-4.078999758E-1,8.210999966E-1,1.354999989E-1
3.368000156E1,5.130000040E-2,5.794999599E-1,7.789999843E-1
3.370000156E1,4.874999821E-1,4.608999789E-1,1.412999988E0
3.372001406E1,4.228999913E-1,6.581000090E-1,1.510100007E0
3.375000156E1,8.664000034E-1,3.887999952E-1,2.164700031E0
3.377000625E1,1.061100006E0,-1.747999936E-1,2.360899925E0
3.380000156E1,-4.980999827E-1,-4.479999840E-2,2.376699924E0
3.382000156E1,-1.460999966E0,-3.621999919E-1,8.320999742E-1
3.384000156E1,-1.781099916E0,-2.022999972E-1,-2.752999961E-1
3.386000156E1,-1.117599964E0,-4.454999864E-1,-1.120299935E0
3.388000156E1,-3.702999949E-1,-6.028999686E-1,-1.212899923E0
3.390000156E1,-1.668999940E-1,-7.045999765E-1,-1.034600019E0
3.392000781E1,-3.921999931E-1,-5.841999650E-1,-1.401000023E0
3.395000000E1,-5.791000128E-1,-2.100999951E-1,-2.332299948E0
3.397000156E1,-2.685999870E-1,-9.749999642E-2,-2.514600039E0
3.399000156E1,-2.879999876E-1,-8.749999851E-2,-2.326499939E0
3.401000469E1,-6.119999886E-1,-2.552999854E-1,-2.209599972E0
3.404000156E1,-1.318400025E0,-4.280000031E-1,-1.918399930E0
3.406000469E1,-1.714800000E0,-3.721999824E-1,-1.648199916E0
3.409000156E1,-2.163599968E0,-4.257999957E-1,-1.428599954E0
3.411000469E1,-2.247499943E0,-4.192000031E-1,-1.195099950E0
3.414000156E1,-2.160399914E0,-1.670999974E-1,-5.561000109E-1
3.416000156E1,-1.834899902E0,-2.254999876E-1,-5.269999802E-2
3.418000156E1,-1.486299992E0,-1.862999946E-1,5.976999998E-1
3.420000156E1,-9.845999479E-1,-1.993999928E-1,1.452399969E0
3.422001406E1,-8.015999794E-1,2.266999930E-1,1.910399914E0
3.425000156E1,-4.107999802E-1,8.384000063E-1,1.503099918E0
3.428000156E1,1.348199964E0,-9.736999869E-1,2.074899912E0
3.430000156E1,1.173599958E0,-5.241999626E-1,3.467700005E0
3.432000156E1,9.511999488E-1,-5.821999907E-1,3.764999866E0
3.434000156E1,1.088999987E0,-5.888999701E-1,2.474999905E0
3.437000156E1,2.563899994E0,-4.379999936E-1,8.529999852E-2
3.439000156E1,2.815299988E0,-1.296000034E-1,-1.100399971E0
3.441000156E1,1.845600009E0,-3.079999983E-1,-1.866499901E0
3.443000156E1,2.926000059E-1,-5.248000026E-1,-2.046799898E0
3.445000156E1,-7.615999579E-1,-4.400999844E-1,-1.816699982E0
3.447000156E1,-7.800999880E-1,-3.084000051E-1,-1.510999918E0
3.449000156E1,-5.319999903E-2,-1.828999966E-1,-1.365599990E0
3.451000156E1,4.693999887E-1,7.239999622E-2,-1.572099924E0
3.453000156E1,6.337999701E-1,2.527999878E-1,-2.181499958E0
3.455000781E1,2.349999994E-1,3.048000038E-1,-2.836799860E0
3.458000156E1,-4.973999858E-1,3.457999825E-1,-2.773000002E0
3.460000156E1,-3.935000002E-1,1.264999956E-1,-2.131599903E0
3.462000156E1,-4.660999775E-1,1.802999973E-1,-1.344799995E0
3.464000156E1,-4.469999969E-1,-1.970000006E-2,-7.813999653E-1
3.466000156E1,-6.688999534E-1,4.719999805E-2,-4.982999861E-1
3.468000156E1,-8.162999749E-1,3.813999891E-1,-1.326999962E-1
3.471000156E1,7.189999819E-1,2.220999897E-1,6.552000046E-1
3.473000156E1,1.731199980E0,2.649999969E-2,1.321699977E0
3.475000156E1,1.474799991E0,-1.056999937E-1,1.560199976E0
3.478000156E1,-1.141999960E-1,-3.789999783E-1,1.999899983E0
3.480000938E1,-6.904999614E-1,-2.392999977E-1,2.191799879E0
3.483000156E1,-1.950099945E0,2.730999887E-1,1.536999941E0
3.485000469E1,-2.510699987E0,5.838999748E-1,4.093999863E-1
3.488000156E1,-2.732599974E0,1.141199946E0,-8.980000019E-2
3.490000156E1,-2.540599823E0,1.155099988E0,1.906999946E-1
3.492000156E1,-2.013499975E0,4.345999956E-1,5.519999862E-1
3.494000469E1,-1.784500003E0,-1.374000013E-1,7.653999925E-1
3.497000156E1,-1.565499902E0,-5.278999805E-1,2.195999920E-1
3.499000781E1,-1.587000012E0,-6.466000080E-1,-5.862999558E-1
3.502000156E1,-1.145699978E0,-3.350999951E-1,-1.583099961E0
3.504000313E1,-7.563999891E-1,-2.572999895E-1,-1.978500009E0
3.507000156E1,-9.395999908E-1,-2.155999988E-1,-2.447099924E0
3.509000469E1,-1.326699972E0,-2.502999902E-1,-2.531299829E0
3.512000156E1,-1.535099983E0,-6.297999620E-1,-2.851399899E0
3.514000156E1,-1.419399977E0,-8.145999908E-1,-2.632599831E0
3.516000156E1,-1.336599946E0,-9.231999516E-1,-1.774699926E0
3.518000156E1,-1.139799953E0,-9.641999602E-1,-6.803999543E-1
3.520000156E1,-6.786999702E-1,-1.033399940E0,3.452000022E-1
3.522001406E1,-1.824999899E-1,-9.150999784E-1,1.245499969E0
3.525000469E1,2.279999852E-2,2.139999904E-2,1.757399917E0
3.528000312E1,2.611999810E-1,1.092599988E0,1.581200004E0
3.531000156E1,3.122499943E0,-1.098699927E0,1.161299944E0
3.533000625E1,3.219099998E0,-1.059299946E0,2.153899908E0
3.536000156E1,1.471499920E0,-7.759000063E-1,4.353099823E0
3.538000312E1,9.825999737E-1,-2.858999968E-1,3.042599916E0
3.541000156E1,1.786000013E0,7.002999783E-1,1.023499966E0
3.543000312E1,2.731699944E0,7.836999893E-1,-6.342999935E-1
3.546000156E1,1.441499949E0,7.859999537E-1,-2.161299944E0
3.548000781E1,-9.269999713E-2,2.777999938E-1,-2.423899889E0
3.551000156E1,-1.658499956E0,6.189999729E-2,-2.296799898E0
3.553000312E1,-1.773499966E0,-4.369999841E-2,-1.824299932E0
3.556000156E1,-8.529999852E-1,-5.263000131E-1,-2.113699913E0
3.558000156E1,-4.764999747E-1,-5.091999769E-1,-2.539299965E0
3.560000156E1,-3.229999840E-1,-6.094999909E-1,-2.797499895E0
3.562000469E1,-3.155999780E-1,-7.361999750E-1,-2.601799965E0
3.565000156E1,-6.780000031E-2,-5.526999831E-1,-1.416000009E0
3.567000312E1,3.283999860E-1,-3.082000017E-1,-8.517000079E-1
3.570000156E1,6.198999882E-1,3.448999822E-1,-7.450000048E-1
3.572001875E1,1.035300016E0,9.186999798E-1,-5.569999814E-1
3.575000156E1,2.082999945E0,9.454999566E-1,3.075000048E-1
3.577000469E1,2.045099974E0,8.812999725E-1,1.359499931E0
3.580000156E1,6.979999542E-1,7.764999866E-1,2.056699991E0
3.582000312E1,6.179999933E-2,8.216999769E-1,1.813399911E0
3.585000781E1,6.112999916E-1,5.457999706E-1,2.237799883E0
3.588000000E1,-6.877999902E-1,7.109999657E-1,2.032000065E0
3.590000156E1,-1.689399958E0,2.676999867E-1,8.493999839E-1
3.592000625E1,-1.855999947E0,1.354999989E-1,4.407999814E-1
3.595000000E1,-8.106999993E-1,-3.765999973E-1,2.287999988E-1
3.597000781E1,1.072999984E-1,-6.463999748E-1,3.034999967E-1
3.600000156E1,1.870999932E-1,-6.130999923E-1,-4.876999855E-1
3.603000000E1,2.233999968E-1,-5.568000078E-1,-1.893799901E0
3.605000156E1,3.757999837E-1,-4.303999841E-1,-2.738499880E0
3.607000625E1,7.088999748E-1,-2.737999856E-1,-2.961199999E0
3.610000000E1,1.010599971E0,-3.534999788E-1,-2.846299887E0
3.612000156E1,7.597000003E-1,-5.794000030E-1,-2.717799902E0
3.615000156E1,3.861999810E-1,-1.024500012E0,-2.190899849E0
3.617000156E1,1.731999964E-1,-1.164899945E0,-1.781099916E0
3.619000156E1,-1.168999970E-1,-1.151999950E0,-1.004599929E0
3.621000469E1,-2.207999974E-1,-1.248399973E0,-5.570000038E-2
3.624000000E1,1.912999898E-1,-1.259500027E0,1.151299953E0
3.626000625E1,6.653999686E-1,-1.092899919E0,1.874799967E0
3.629000156E1,8.428999782E-1,-3.057999909E-1,1.655999899E0
3.631000156E1,1.789899945E0,-8.625999689E-1,1.399399996E0
3.633000156E1,2.044800043E0,-1.270999908E0,1.812699914E0
3.635000156E1,8.652999997E-1,-2.969000041E-1,3.858199835E0
3.638000000E1,1.321799994E0,2.457999885E-1,5.694999695E0
3.640000156E1,3.597299814E0,4.535000026E-1,4.394199848E0
3.642000156E1,5.728199959E0,2.847999930E-1,2.194700003E0
3.644000156E1,5.197199821E0,2.920999825E-1,7.840000093E-2
3.646000938E1,2.860999823E0,-1.008000001E-1,-1.406499982E0
3.649000156E1,3.288999796E-1,-4.298000038E-1,-2.585999966E0
3.651000156E1,1.464999914E-1,-3.154000044E-1,-2.807499886E0
3.654000156E1,1.339800000E0,-3.608999848E-1,-2.487499952E0
3.656000156E1,1.418699980E0,-4.508000016E-1,-2.460199833E0
3.659000156E1,7.019000053E-1,-5.205999613E-1,-2.612799883E0
3.661000156E1,3.495000005E-1,-4.569000006E-1,-2.689399958E0
3.663000156E1,4.847999811E-1,-4.957000017E-1,-2.902699947E0
3.665000625E1,5.320999622E-1,-1.463000029E-1,-2.879299879E0
3.668000156E1,3.294999897E-1,2.402999997E-1,-2.340100050E0
3.670000156E1,9.820000082E-2,3.066999912E-1,-1.588400006E0
3.672001406E1,-3.016999960E-1,6.275999546E-1,-7.362999916E-1
3.675000156E1,-2.055999935E-1,8.320999742E-1,9.412999749E-1
3.677000156E1,5.270000100E-1,7.385999560E-1,2.173899889E0
3.679000156E1,9.942999482E-1,6.527000070E-1,2.706399918E0
3.681000156E1,6.589999795E-1,1.159500003E0,2.558300018E0
3.683000156E1,9.982999563E-1,7.189999819E-1,2.288399935E0
3.685000156E1,1.289999962E0,2.202999890E-1,2.620100021E0
3.687000156E1,8.068000078E-1,-2.104000002E-1,2.584800005E0
3.689000938E1,8.940000087E-2,-7.538999915E-1,2.515199900E0
3.692000156E1,-7.730000019E-1,-9.508000016E-1,1.018199921E0
3.694000156E1,-8.240000159E-2,-7.078999877E-1,-1.014999971E-1
3.696000156E1,1.137899995E0,-7.360000014E-1,-1.022899985E0
3.698000156E1,1.624699950E0,-5.509999767E-2,-1.534399986E0
3.700000156E1,1.515100002E0,6.933000088E-1,-1.743299961E0
3.702000156E1,1.497099996E0,1.120199919E0,-1.969699979E0
3.704000156E1,1.489699960E0,1.344200015E0,-2.134500027E0
3.706000156E1,1.308399916E0,1.397699952E0,-2.084800005E0
3.708000156E1,9.425999522E-1,1.035699964E0,-2.041199923E0
3.710000156E1,1.347000003E-1,4.746999741E-1,-2.373399973E0
3.712000156E1,-9.556999803E-1,1.791999936E-1,-2.540699959E0
3.714000625E1,-1.738699913E0,1.239999942E-2,-2.380300045E0
3.717000156E1,-2.219899893E0,-2.366999984E-1,-1.634400010E0
3.719000469E1,-2.375299931E0,-1.859999895E-1,-9.526999593E-1
3.722001406E1,-2.609699965E0,-1.090000011E-2,-7.739999890E-2
3.725000156E1,-1.589900017E0,-1.806000024E-1,7.390999794E-1
3.727000156E1,-4.448999763E-1,-1.674000025E-1,1.442999959E0
3.729000469E1,1.340000033E-1,-1.102999970E-1,1.862599969E0
3.732000156E1,-6.899999920E-3,3.960999846E-1,2.137300014E0
3.734000625E1,6.850999594E-1,2.430999875E-1,1.876999974E0
3.737000156E1,2.525099993E0,-1.859899998E0,1.909199953E0
3.739000469E1,1.885499954E0,-1.578699946E0,3.247099876E0
3.742000156E1,1.552199960E0,-1.345899940E0,3.644899845E0
3.744000156E1,2.438699961E0,-1.139699936E0,2.047399998E0
3.746000156E1,3.405399799E0,-8.370999694E-1,-5.909999833E-2
3.748000625E1,3.304499865E0,-5.579999834E-2,-1.624199986E0
3.751000000E1,1.836199999E0,3.605999947E-1,-2.290099859E0
3.753000469E1,8.086999655E-1,4.645999968E-1,-2.421599865E0
3.756000156E1,5.141999722E-1,6.262999773E-1,-2.369499922E0
3.758000469E1,7.789999843E-1,5.271999836E-1,-2.088399887E0
3.761000156E1,5.167999864E-1,3.234999776E-1,-2.322299957E0
3.763000156E1,2.502000034E-1,3.662000000E-1,-2.620100021E0
3.765000156E1,2.631999850E-1,3.452000022E-1,-2.543699980E0
3.768000156E1,1.928000003E-1,3.516999781E-1,-1.987599969E0
3.770000156E1,-3.979999945E-2,2.741000056E-1,-1.633299947E0
3.772001406E1,-6.392999887E-1,4.750999808E-1,-1.131699920E0
3.775000156E1,-1.315500021E0,6.428999901E-1,-7.788999677E-1
3.777000625E1,-1.396999955E0,9.649999738E-1,-7.850999832E-1
3.780000156E1,-5.738999844E-1,9.511999488E-1,9.299999475E-2
3.782001094E1,1.365000010E-1,6.503999829E-1,1.057299972E0
3.785000156E1,-7.034999728E-1,9.623999596E-1,1.305999994E0
3.787000625E1,-1.344900012E0,1.721199989E0,1.196599960E0
3.790000156E1,8.455999494E-1,1.172699928E0,2.868000031E0
3.793000156E1,5.439000130E-1,9.666000009E-1,3.844499826E0
3.795000156E1,-4.968999922E-1,2.543999851E-1,3.507399797E0
3.797000156E1,-1.666299939E0,2.325999886E-1,2.297799826E0
3.799000156E1,-1.594499946E0,-2.251999974E-1,5.889999866E-1
3.801000156E1,-1.054399967E0,-5.389999747E-1,-2.567999959E-1
3.804000156E1,-5.821999907E-1,-6.870999932E-1,-6.213999987E-1
3.806000156E1,-5.496000051E-1,-3.211999834E-1,-1.472800016E0
3.808000156E1,-6.279999763E-2,-2.533999979E-1,-2.312700033E0
3.811000313E1,-5.200000014E-3,6.798999906E-1,-2.521299839E0
3.814000000E1,1.449999958E-1,-4.093999863E-1,-2.210799932E0
3.816000625E1,-5.496999621E-1,-3.885999918E-1,-2.298500061E0
3.819000156E1,-9.847999811E-1,-4.063999951E-1,-2.181400061E0
3.821000156E1,-9.129999876E-1,-6.599999666E-1,-1.601099968E0
3.823000156E1,-9.503999949E-1,-7.233999968E-1,-1.037599921E0
3.825000156E1,-8.169999719E-1,-8.539999723E-1,-7.585999966E-1
3.827000156E1,-6.571999788E-1,-7.484999895E-1,-3.685999811E-1
3.829000156E1,-3.007999957E-1,-9.846999645E-1,4.617999792E-1
3.831000469E1,7.009999454E-2,-1.062999964E0,1.219799995E0
3.834000156E1,-4.199999943E-2,-3.016999960E-1,1.342199922E0
3.836000469E1,6.667999625E-1,-5.982999802E-1,1.356799960E0
3.839000156E1,1.306499958E0,-1.445299983E0,2.229799986E0
3.841000469E1,6.536999941E-1,-4.221999943E-1,4.208499908E0
3.844000156E1,2.227099895E0,-4.420000017E-1,2.584399939E0
3.846000156E1,3.627499819E0,-6.268000007E-1,9.412999749E-1
3.848000156E1,3.956799984E0,-4.418999851E-1,-1.055199981E0
3.850001875E1,3.111199856E0,-2.969000041E-1,-2.164399862E0
3.853000000E1,7.423999906E-1,-2.223999947E-1,-2.613100052E0
3.855000156E1,-1.785999984E-1,-1.120999977E-1,-2.185999870E0
3.857000156E1,-2.678000033E-1,-1.077999994E-1,-1.595399976E0
3.860000625E1,4.686999917E-1,-3.969999775E-2,-9.570999742E-1
3.863000156E1,8.581999540E-1,2.847999930E-1,-1.488399982E0
3.865000313E1,8.718999624E-1,3.414999843E-1,-1.922799945E0
3.868000156E1,6.779999733E-1,4.329999983E-1,-1.915899992E0
3.870000156E1,7.001999617E-1,6.812999845E-1,-1.629299998E0
3.872001406E1,8.535999656E-1,8.585000038E-1,-1.322299957E0
3.875000312E1,9.201999903E-1,9.271999598E-1,-8.653999567E-1
3.878000156E1,2.547999918E-1,1.219299912E0,-4.763999879E-1
3.880000156E1,-1.878999919E-1,1.379099965E0,-2.056999952E-1
3.882000156E1,3.590000048E-2,9.961999655E-1,3.739999980E-2
3.884000156E1,1.370999962E-1,6.729999781E-1,4.933999777E-1
3.886000156E1,6.499999762E-2,5.741999745E-1,1.067700028E0
3.888000156E1,-2.108999938E-1,4.797999859E-1,1.088799953E0
3.890000156E1,4.700999856E-1,-7.806999683E-1,1.790300012E0
3.892000156E1,-9.259999543E-2,-8.894999623E-1,1.801199913E0
3.894000156E1,-1.405900002E0,-6.207999587E-1,1.456099987E0
3.897000156E1,-2.587699890E0,-1.894000024E-1,3.082000017E-1
3.899000781E1,-1.702600002E0,-2.458999902E-1,-1.445999891E-1
3.902000156E1,-4.879999757E-1,-2.449999899E-1,-4.265999794E-1
3.904000156E1,-7.226999998E-1,-2.594999969E-1,-4.118999839E-1
3.906000156E1,-1.164099932E0,-2.065999955E-1,-7.576000094E-1
3.908000156E1,-1.268199921E0,-2.022999972E-1,-1.407099962E0
3.910000312E1,-8.323000073E-1,-1.581999958E-1,-1.875000000E0
3.913000156E1,-2.006999999E-1,1.215999946E-1,-1.590600014E0
3.915000156E1,-3.912999928E-1,1.308999956E-1,-1.561299920E0
3.918000156E1,-1.037699938E0,3.480000049E-2,-2.048399925E0
3.920000156E1,-1.565099955E0,1.600999981E-1,-1.071799994E0
3.922001406E1,-1.123799920E0,5.529999733E-1,-1.056699991E0
3.925000781E1,3.851999938E-1,6.548999548E-1,-1.441799998E0
3.928000156E1,-2.270999998E-1,5.622999668E-1,-1.237699986E0
3.931000156E1,-4.939999878E-1,-1.562999934E-1,2.805999815E-1
3.933000156E1,-7.875999808E-1,-3.439999744E-2,1.453499913E0
3.935000156E1,-8.445000052E-1,8.695999980E-1,1.930099964E0
3.937000625E1,1.797000021E-1,6.970999837E-1,1.621999979E0
3.939000938E1,1.859099984E0,-2.462999970E-1,1.199000001E0
3.942000000E1,2.118499994E0,-1.572799921E0,2.641700029E0
3.944000156E1,7.938999534E-1,-1.060999990E0,3.869299889E0
3.947000156E1,7.045999765E-1,-1.423699975E0,2.387899876E0
3.949000625E1,1.794299960E0,-1.187799931E0,1.195199966E0
3.952000000E1,2.614599943E0,-6.861999631E-1,-8.625999689E-1
3.954000156E1,1.945799947E0,-4.844999909E-1,-1.807399988E0
3.956000156E1,7.958999872E-1,-2.554000020E-1,-2.071899891E0
3.958000313E1,1.939999871E-2,-1.440999955E-1,-1.834599972E0
3.961000156E1,1.636999995E-1,2.054999918E-1,-1.231400013E0
3.963000781E1,7.324000001E-1,3.298999965E-1,-1.279799938E0
3.965000938E1,7.463999987E-1,2.940999866E-1,-1.828699946E0
3.968000938E1,4.116999805E-1,1.825999916E-1,-2.306900024E0
3.971000156E1,3.563999832E-1,1.238999963E-1,-2.392799854E0
3.974000000E1,2.532999814E-1,7.299999706E-3,-2.300600052E0
3.976000156E1,4.050000012E-2,6.920000166E-2,-2.007599831E0
3.978000625E1,-1.368999928E-1,3.084999919E-1,-1.746899962E0
3.981000000E1,-5.460000038E-1,7.400999665E-1,-1.172399998E0
3.983000938E1,-4.623000026E-1,8.256999850E-1,-8.380999565E-1
3.986000156E1,-1.246999949E-1,6.647999883E-1,6.629999727E-2
3.988000469E1,-9.799999744E-2,2.710999846E-1,9.347999692E-1
3.991000156E1,-3.019999862E-1,-1.518999934E-1,2.289199829E0
3.993000469E1,2.333999872E-1,-9.688999653E-1,3.264799833E0
3.996000000E1,-1.154999971E0,-3.314999938E-1,4.025399685E0
3.998000156E1,-1.781899929E0,-7.853999734E-1,2.845599890E0
4.000000156E1,-2.326799870E0,-2.278999984E-1,1.696399927E0
4.002000625E1,-1.887199998E0,6.899999920E-3,7.337999940E-1
4.005000938E1,-8.873999715E-1,-6.799999624E-3,-4.292999804E-1
4.008000156E1,-3.823999763E-1,2.020999938E-1,-1.045199990E0
4.010000156E1,-1.966999918E-1,2.951000035E-1,-1.499899983E0
4.012000156E1,-8.309999853E-2,5.177000165E-1,-1.853799939E0
4.014000156E1,6.920000166E-2,5.419999957E-1,-1.756599903E0
4.016000156E1,-4.779999703E-2,6.631000042E-1,-2.031699896E0
4.018000156E1,-9.009999782E-2,4.709999859E-1,-2.389899969E0
4.020000156E1,-2.987000048E-1,2.669999897E-1,-2.579200029E0
4.022001562E1,-4.834999740E-1,-4.669999704E-2,-2.297699928E0
4.025000156E1,-6.905999780E-1,-3.131999969E-1,-1.729699969E0
4.027000156E1,-7.684999704E-1,-5.455999970E-1,-1.467499971E0
4.030000156E1,-6.728000045E-1,-5.302999616E-1,-1.335199952E0
4.032000156E1,-5.327000022E-1,-3.780999780E-1,-6.809999943E-1
4.034000156E1,-2.089999914E-1,-5.443999767E-1,1.645999998E-1
4.036000625E1,-2.113000005E-1,-3.245999813E-1,9.359999895E-1
4.039000156E1,-8.599999361E-3,3.671999872E-1,2.240299940E0
4.041000156E1,6.355999708E-1,3.335999846E-1,2.154000044E0
4.043000156E1,1.928299904E0,-7.145000100E-1,1.856699944E0
4.045000156E1,2.200899839E0,-5.618000031E-1,2.752499819E0
4.047000156E1,2.023000002E0,-7.718999982E-1,4.130499840E0
4.049000156E1,1.464900017E0,-7.813999653E-1,4.138799667E0
4.051000625E1,1.446299911E0,-7.466999888E-1,2.561300039E0
4.054000156E1,2.335399866E0,-4.999999655E-4,2.326999903E-1
4.056000312E1,2.155499935E0,6.439999491E-2,-1.080799937E0
4.059000000E1,3.638999760E-1,-1.577999890E-1,-2.179699898E0
4.061000156E1,-6.329999566E-1,-2.354999930E-1,-2.344699860E0
4.063000156E1,-9.769999981E-1,-7.459999621E-2,-2.381700039E0
4.065000781E1,-6.322000027E-1,4.910000041E-2,-2.384199858E0
4.068000156E1,1.030000020E-2,4.012999833E-1,-2.804899931E0
4.070000156E1,1.888999939E-1,4.329999983E-1,-3.226899862E0
4.072001250E1,-1.840000041E-2,3.962000012E-1,-3.254299879E0
4.075000156E1,-1.682000011E-1,3.599999938E-3,-2.450399876E0
4.077000156E1,-4.453999996E-1,-1.777999997E-1,-1.673799992E0
4.080000156E1,-4.409999847E-1,-3.373000026E-1,-8.291999698E-1
4.082000156E1,-3.975999951E-1,-5.169999972E-2,-4.167999923E-1
4.085000156E1,-2.098999918E-1,3.017999828E-1,1.648000032E-1
4.087000156E1,2.444999963E-1,5.855999589E-1,7.646999955E-1
4.089000156E1,1.234099984E0,4.596999884E-1,1.381199956E0
4.091000156E1,1.467800021E0,4.928999841E-1,1.611099958E0
4.093000156E1,8.242999911E-1,8.205999732E-1,2.425600052E0
4.095000469E1,2.387999892E-1,3.463999927E-1,3.163300037E0
4.098000156E1,-6.218999624E-1,5.209999904E-2,3.097800016E0
4.100000312E1,-9.917999506E-1,3.156999946E-1,2.514699936E0
4.103000000E1,-8.132999539E-1,4.895999730E-1,9.159999490E-1
4.105000625E1,-4.650999904E-1,6.371999979E-1,1.088999957E-1
4.108000156E1,2.976999879E-1,1.855999976E-1,-4.597999752E-1
4.110000156E1,3.317999840E-1,2.600000007E-3,-6.412000060E-1
4.112000156E1,-1.310000010E-2,9.160000086E-2,-1.084699988E0
4.114000156E1,-2.782000005E-1,1.268000007E-1,-1.718400002E0
4.116000156E1,-3.682999909E-1,3.339999914E-1,-1.945099950E0
4.118000156E1,-3.084999919E-1,4.581999779E-1,-2.187899828E0
4.120000469E1,-1.715999991E-1,3.836999834E-1,-2.616699934E0
4.122001250E1,-5.839999914E-1,4.600999951E-1,-2.719899893E0
4.125000156E1,-1.078699946E0,2.487999946E-1,-1.900999904E0
4.127000156E1,-1.014199972E0,-1.304000020E-1,-1.453499913E0
4.129000781E1,-1.181399941E0,-2.292999923E-1,-1.297500014E0
4.132000156E1,-1.092199922E0,-4.971999824E-1,-9.042999744E-1
4.134000312E1,-7.233999968E-1,-6.504999995E-1,-3.721999824E-1
4.137000000E1,-3.845999837E-1,-6.190999746E-1,2.254000008E-1
4.139000625E1,-5.113999844E-1,-3.026999831E-1,5.841000080E-1
4.142000156E1,-5.189999938E-1,2.888999879E-1,9.667999744E-1
4.144000156E1,4.824000001E-1,6.239999831E-2,1.059800029E0
4.146000156E1,1.907499909E0,-1.024899960E0,1.563799977E0
4.148000156E1,2.149299860E0,-1.097700000E0,2.908299923E0
4.150000156E1,1.594799995E0,-7.912999988E-1,4.020599842E0
4.152000156E1,1.350299954E0,-1.059899926E0,3.645299911E0
4.154000156E1,1.933599949E0,-1.078499913E0,2.022899866E0
4.156000156E1,2.879099846E0,-1.000399947E0,1.057999954E-1
4.158000313E1,3.036299944E0,-7.816999555E-1,-1.158499956E0
4.161000313E1,1.269899964E0,-6.297999620E-1,-1.656399965E0
4.164000000E1,-1.850000024E-1,-3.048999906E-1,-1.537499905E0
4.166000156E1,-2.930999994E-1,9.539999813E-2,-1.329100013E0
4.168000781E1,4.099999964E-1,2.225999981E-1,-1.566699982E0
4.171000156E1,6.796999574E-1,6.370999813E-1,-2.539299965E0
4.173000469E1,5.482999682E-1,7.629999518E-1,-2.901000023E0
4.176000156E1,4.007999897E-1,7.570999861E-1,-2.494799852E0
4.178000312E1,3.427000046E-1,7.488999963E-1,-1.880999923E0
4.181000000E1,2.040999979E-1,5.446000099E-1,-8.046000004E-1
4.183000156E1,-1.008999944E-1,3.181000054E-1,-6.586999893E-1
4.185000156E1,-7.040999532E-1,4.979999959E-1,-6.387999654E-1
4.187000156E1,-9.637999535E-1,7.561999559E-1,-2.590999901E-1
4.190000156E1,3.359999880E-2,6.663999557E-1,1.158800006E0
4.192000938E1,4.092999995E-1,4.285999835E-1,1.607899904E0
4.195000156E1,-5.277999640E-1,2.757000029E-1,1.950999945E-1
4.197000156E1,-9.631999731E-1,3.006999791E-1,-2.120999992E-1
4.199000156E1,-6.452999711E-1,-2.857999802E-1,9.027999640E-1
4.201000156E1,-9.629999995E-1,-6.065999866E-1,1.554499984E0
4.203000469E1,-1.310099959E0,-8.521999717E-1,1.961899996E0
4.206000156E1,-1.653599977E0,-9.185999632E-1,1.110700011E0
4.208000156E1,-1.273100019E0,-7.616999745E-1,5.360000134E-1
4.211000156E1,-4.867999852E-1,-7.721999884E-1,-9.690000117E-2
4.214000000E1,-7.547000051E-1,-2.640999854E-1,-7.810999751E-1
4.216000156E1,-6.151999831E-1,2.222999930E-1,-1.528299928E0
4.218000156E1,3.037000000E-1,4.493999779E-1,-1.935099959E0
4.220000156E1,8.676999807E-1,7.028999925E-1,-1.996999979E0
4.222001406E1,8.804000020E-1,9.133999944E-1,-1.806399941E0
4.225000156E1,1.845999956E-1,3.220999837E-1,-2.752300024E0
4.227000469E1,-3.398000002E-1,1.316999942E-1,-3.107499838E0
4.230000156E1,-7.674999833E-1,-3.524999917E-1,-2.777899981E0
4.232000156E1,-1.150399923E0,-6.135999560E-1,-2.053900003E0
4.234000156E1,-1.480899930E0,-7.267999649E-1,-1.500100017E0
4.236000469E1,-1.868999958E0,-6.524999738E-1,-1.056900024E0
4.239000000E1,-1.396699905E0,-6.566999555E-1,-4.199999850E-3
4.241000938E1,-5.108000040E-1,-5.708000064E-1,9.027999640E-1
4.244000156E1,-8.200000040E-3,-1.261000037E-1,1.510199904E0
4.246000625E1,1.436000019E-1,3.389999866E-1,1.608799934E0
4.249000156E1,1.751699924E0,-1.035699964E0,2.735499859E0
4.252000156E1,2.468299866E0,-9.748999476E-1,5.880799770E0
4.254000156E1,2.289499998E0,-1.030599952E0,6.025599957E0
4.256000469E1,2.041100025E0,-5.124999881E-1,4.034199715E0
4.259000156E1,2.835399866E0,-2.751999795E-1,5.834000111E-1
4.261000313E1,2.342999935E0,2.769999951E-2,-1.190899968E0
4.264000156E1,7.287999988E-1,4.501999915E-1,-1.960399985E0
4.266000156E1,1.451999992E-1,1.384999901E-1,-2.109099865E0
4.268000156E1,-2.179999948E-1,2.716999948E-1,-2.050600052E0
4.270000156E1,-9.820000082E-2,3.235999942E-1,-2.165899992E0
4.272001250E1,1.713999957E-1,5.245999694E-1,-2.749199867E0
4.275000469E1,3.865000010E-1,5.303999782E-1,-3.462800026E0
4.278000000E1,-2.040999979E-1,8.813999891E-1,-2.715699911E0
4.280000469E1,-9.979999810E-2,5.024999976E-1,-2.943599939E0
4.283000156E1,-4.787999988E-1,3.194999993E-1,-2.606899977E0
4.285000625E1,-3.380999863E-1,3.686999977E-1,-1.893199921E0
4.288000156E1,2.140000015E-1,1.085999981E-1,-4.141999781E-1
4.290000781E1,3.399999812E-2,2.626000047E-1,5.715000033E-1
4.293000000E1,1.319999993E-2,2.474999875E-1,1.173300028E0
4.295000938E1,2.342999876E-1,3.199000061E-1,1.650200009E0
4.298000156E1,6.583999991E-1,2.184999883E-1,1.361799955E0
4.300000469E1,6.017000079E-1,2.933999896E-1,1.905499935E0
4.303000000E1,-1.042999998E-1,-5.701000094E-1,2.584300041E0
4.305000312E1,-1.237299919E0,-6.649000049E-1,2.525699854E0
4.308000156E1,-2.343600035E0,-5.749999881E-1,1.317299962E0
4.311000156E1,-1.505199909E0,-1.076999977E-1,6.883999705E-1
4.313000156E1,-7.037000060E-1,-1.816999912E-1,1.543999910E-1
4.315000938E1,-8.179000020E-1,8.299999684E-2,-3.883999884E-1
4.318000156E1,-8.923999667E-1,5.213999748E-1,-1.444999933E0
4.320000469E1,-5.791000128E-1,8.917999864E-1,-2.028800011E0
4.322001406E1,-3.292999864E-1,1.258000016E0,-2.512599945E0
4.325000156E1,1.039000005E-1,1.063599944E0,-3.294799805E0
4.327000156E1,-2.950000018E-2,9.979999661E-1,-3.532899857E0
4.329000469E1,-5.313000083E-1,8.009999990E-1,-3.245699883E0
4.332000312E1,-1.040799975E0,1.361999959E-1,-2.188299894E0
4.334000469E1,-1.243299961E0,-1.664000005E-1,-1.553099990E0
4.337000000E1,-1.041599989E0,-3.878999949E-1,-5.472999811E-1
4.339000156E1,-1.001600027E0,-5.695999861E-1,1.656999886E-1
4.341000156E1,-1.094399929E0,-7.994999886E-1,9.968999624E-1
4.344000469E1,-1.318899989E0,-1.176800013E0,1.651299953E0
4.347000156E1,-1.297999978E0,-9.932999611E-1,1.103899956E0
4.349000156E1,-5.188999772E-1,-8.167999983E-1,7.741999626E-1
4.351000156E1,1.033599973E0,-1.245800018E0,6.216999888E-1
4.353000156E1,2.208999872E0,-1.680699944E0,1.494599938E0
4.355000156E1,2.308099985E0,-1.266299963E0,2.906999826E0
4.358000000E1,1.681999922E0,-1.377399921E0,3.885199785E0
4.360000156E1,1.604599953E0,-1.060599923E0,2.453099966E0
4.362000156E1,2.278800011E0,-7.080000043E-1,8.506000042E-1
4.364000156E1,2.328899860E0,-4.623000026E-1,-6.714999676E-1
4.366000156E1,1.743899941E0,-3.761000037E-1,-1.511799932E0
4.368000156E1,1.118700027E0,-2.549000084E-1,-1.996399999E0
4.370000156E1,5.543999672E-1,8.779999614E-2,-2.219499826E0
4.372001250E1,1.956999898E-1,4.278999865E-1,-2.446699858E0
4.375000156E1,-2.751999795E-1,8.223999739E-1,-2.617199898E0
4.377000156E1,-4.465000033E-1,1.000100017E0,-2.680199862E0
4.379000156E1,-2.056999952E-1,1.056699991E0,-2.415599823E0
4.381000156E1,-1.185999960E-1,1.085699916E0,-2.009599924E0
4.383000469E1,-3.384999931E-1,1.004400015E0,-1.854599953E0
4.386000781E1,-7.403999567E-1,1.102900028E0,-1.671499968E0
4.388000781E1,-6.690999866E-1,1.287999988E0,-1.182600021E0
4.391000156E1,-3.621999919E-1,1.208500028E0,-3.391999900E-1
4.393000156E1,-5.022999644E-1,1.486999989E0,6.333000064E-1
4.395000156E1,-3.619999811E-2,1.322499990E0,1.704100013E0
4.397000156E1,8.391999602E-1,9.583999515E-1,2.437000036E0
4.400000000E1,1.398499966E0,5.665999651E-1,2.434099913E0
4.402000781E1,1.634599924E0,7.404999733E-1,1.954299927E0
4.405000156E1,1.195999980E0,1.369999945E-1,2.293599844E0
4.408000313E1,-4.892999828E-1,-2.922999859E-1,1.946099997E0
4.411000156E1,-1.037999988E0,-3.111999929E-1,9.208999872E-1
4.413000156E1,-7.774999738E-1,-1.342999935E-1,8.039000034E-1
4.415000156E1,-3.621999919E-1,-3.544999957E-1,3.111999929E-1
4.418000156E1,-8.642999530E-1,-3.062999845E-1,-1.430999935E-1
4.420000156E1,-1.027300000E0,-4.000999928E-1,-2.412999868E-1
4.422001406E1,-9.140999913E-1,-3.788999915E-1,-7.287999988E-1
4.425000156E1,-7.847999930E-1,-1.332999915E-1,-1.501899958E0
4.427000156E1,-6.671999693E-1,8.519999683E-2,-1.927099943E0
4.429000156E1,-6.983000040E-1,3.143999875E-1,-2.065500021E0
4.432000312E1,-7.440999746E-1,2.216999978E-1,-2.419499874E0
4.435000000E1,-1.074199915E0,4.605999887E-1,-2.363499880E0
4.437000469E1,-1.040799975E0,2.185999900E-1,-2.217399836E0
4.440000156E1,-1.055400014E0,-9.629999846E-2,-1.573199987E0
4.442000625E1,-8.599999547E-1,-2.750999928E-1,-1.038200021E0
4.445000000E1,-1.493999958E-1,-7.008999586E-1,-3.978999853E-1
4.447000781E1,7.349999994E-2,-9.016999602E-1,-7.079999894E-2
4.450000156E1,-4.170999825E-1,-6.990000010E-1,5.852999687E-1
4.452000469E1,-3.567000031E-1,-2.110999972E-1,9.878000021E-1
4.455000156E1,1.157599926E0,-5.666999817E-1,1.255199909E0
4.457000156E1,2.277999878E0,-1.268999934E0,2.378200054E0
4.460000156E1,1.697399974E0,-1.238299966E0,3.049399853E0
4.462000156E1,1.321299911E0,-1.005599976E0,2.496299982E0
4.464000156E1,1.558699965E0,-9.494999647E-1,1.834499955E0
4.466000469E1,2.169800043E0,-6.653000116E-1,1.053599954E0
4.469000313E1,1.865299940E0,-2.158999890E-1,-5.870000124E-1
4.472001406E1,4.553000033E-1,-1.352999955E-1,-1.572499990E0
4.475000156E1,-4.032000005E-1,1.317999959E-1,-1.636500001E0
4.477000156E1,-1.261000037E-1,2.239999920E-1,-1.655499935E0
4.479000156E1,4.158999920E-1,2.326999903E-1,-1.924399972E0
4.481000781E1,5.906999707E-1,5.360999703E-1,-2.295799971E0
4.484000156E1,4.820999801E-1,6.525999904E-1,-2.699199915E0
4.486000313E1,5.036999583E-1,6.517999768E-1,-2.544600010E0
4.489000156E1,7.288999557E-1,5.683999658E-1,-2.051499844E0
4.491000625E1,6.412000060E-1,7.202000022E-1,-1.846300006E0
4.494000156E1,3.595999777E-1,7.529999614E-1,-1.267899990E0
4.496000156E1,6.199999712E-3,6.434000134E-1,-6.768000126E-1
4.498000156E1,-2.432999909E-1,5.253999829E-1,1.204999983E-1
4.500000469E1,-1.841000021E-1,3.984999955E-1,6.748999953E-1
4.503000000E1,2.368000001E-1,5.719999969E-2,6.642999649E-1
4.505000156E1,-1.454999894E-1,2.474999875E-1,7.374999523E-1
4.507000156E1,7.967999578E-1,-5.461999774E-1,2.130899906E0
4.509000156E1,1.053099990E0,-9.571999907E-1,2.334499836E0
4.511000156E1,-2.588000000E-1,-5.500000119E-1,2.063999891E0
4.513000156E1,-1.424999952E0,-7.354999781E-1,1.449499965E0
4.515000469E1,-2.067399979E0,-8.476999998E-1,9.560999870E-1
4.518000313E1,-1.246299982E0,-5.825999975E-1,7.965999842E-1
4.520000625E1,-4.636999965E-1,-4.157999754E-1,7.415999770E-1
4.522001406E1,-4.940999746E-1,-3.258999884E-1,9.889999777E-2
4.525000469E1,-6.292999983E-1,-1.762000024E-1,-1.208400011E0
4.528000156E1,-5.019999743E-1,1.049999986E-2,-2.213099957E0
4.530000312E1,-5.519999862E-1,3.450999856E-1,-2.127899885E0
4.533000156E1,-2.046999931E-1,2.277999967E-1,-2.475800037E0
4.535000469E1,-3.385999799E-1,3.281999826E-1,-2.525199890E0
4.538000156E1,-7.057999969E-1,4.086999893E-1,-2.708899975E0
4.540000156E1,-8.274999857E-1,3.968999982E-1,-2.746199846E0
4.542000156E1,-9.023000002E-1,4.411000013E-1,-2.167999983E0
4.544000469E1,-6.125000119E-1,3.082999885E-1,-1.317899942E0
4.547000156E1,-4.407999814E-1,1.847999990E-1,1.483999938E-1
4.549000469E1,-4.156999886E-1,-4.600000009E-2,7.658999562E-1
4.552000156E1,-4.172999859E-1,-4.055999815E-1,1.423099995E0
4.554000469E1,-7.968999743E-1,-2.620000020E-2,1.908999920E0
4.557000156E1,2.304999977E-1,-4.131999910E-1,1.859599948E0
4.559000312E1,1.696900010E0,-1.434199929E0,3.470499992E0
4.562000156E1,9.285999537E-1,-1.100600004E0,4.377999783E0
4.564000156E1,1.986999959E-1,-7.114999890E-1,3.992499828E0
4.566000156E1,1.125499964E0,-7.785999775E-1,2.330399990E0
4.568001094E1,2.657399893E0,-5.972999930E-1,1.122099996E0
4.571000156E1,2.775799990E0,-3.164999783E-1,-6.176999807E-1
4.573000312E1,1.857399940E0,-1.715999991E-1,-1.909399986E0
4.576000156E1,2.958999872E-1,-1.114400029E0,-1.900200009E0
4.578000781E1,-6.646999717E-1,-9.379999638E-1,-2.325199842E0
4.581000156E1,-6.262999773E-1,-3.597999811E-1,-1.464499950E0
4.583000781E1,1.327999979E-1,1.789999902E-1,-1.577199936E0
4.586000313E1,5.108999610E-1,7.694999576E-1,-2.035699844E0
4.588000469E1,6.394000053E-1,8.162999749E-1,-2.316400051E0
4.591000156E1,5.699999928E-1,1.107299924E0,-2.067499876E0
4.593000156E1,4.323000014E-1,1.000299931E0,-1.852099895E0
4.595000156E1,2.316000015E-1,1.020200014E0,-1.618999958E0
4.597000156E1,8.139999956E-2,1.218400002E0,-1.025699973E0
4.599000156E1,1.287999898E-1,1.246699929E0,-3.362999856E-1
4.601000156E1,-1.198999956E-1,1.372099996E0,3.046999872E-1
4.603000469E1,-3.720000014E-2,1.214499950E0,8.589999676E-1
4.606000156E1,4.754999876E-1,6.383000016E-1,1.437899947E0
4.608000469E1,1.542999893E-1,6.904000044E-1,1.335399985E0
4.611000156E1,-3.677999973E-1,7.089999914E-1,6.922999620E-1
4.613000469E1,3.818999827E-1,-2.585999966E-1,1.652699947E0
4.616000156E1,-9.810999632E-1,-3.531999886E-1,1.750999928E0
4.618000313E1,-2.218400002E0,-6.212999821E-1,1.235700011E0
4.621000156E1,-2.740399837E0,-1.709000021E-1,6.480999589E-1
4.623000156E1,-1.549799919E0,-2.818999887E-1,3.543999791E-1
4.625000156E1,-1.321000010E-1,-4.706999958E-1,8.039999753E-2
4.627000469E1,3.001999855E-1,-6.277999878E-1,-5.468999743E-1
4.630000156E1,-8.776999712E-1,-4.738999903E-1,-1.524599910E0
4.632000312E1,-1.279600024E0,-5.189999938E-1,-2.096799850E0
4.635000156E1,-1.093099952E0,-3.851999938E-1,-2.385099888E0
4.637000469E1,-7.192999721E-1,-1.950999945E-1,-2.240999937E0
4.640000156E1,-9.836999774E-1,4.299999774E-2,-2.256399870E0
4.642000781E1,-1.152099967E0,1.750999987E-1,-2.379899979E0
4.645000000E1,-6.133999825E-1,2.201000005E-1,-2.304999828E0
4.647000156E1,-5.137999654E-1,4.140999913E-1,-1.723999977E0
4.649000156E1,-6.262999773E-1,5.454999804E-1,-1.155200005E0
4.651001250E1,-6.723999977E-1,5.655999780E-1,-5.598999858E-1
4.654000156E1,-1.810999960E-1,2.014999986E-1,1.040599942E0
4.656000156E1,-2.899999917E-1,1.294000000E-1,1.517799973E0
4.658000156E1,-7.901999950E-1,4.723999798E-1,2.106299877E0
4.661000781E1,-2.771999836E-1,6.132000089E-1,2.030200005E0
4.664000156E1,1.371699929E0,-9.402999878E-1,2.333400011E0
4.666000156E1,1.251099944E0,-1.251600027E0,3.029599905E0
4.668000156E1,2.005999982E-1,-1.174600005E0,3.231199980E0
4.670000156E1,3.799999878E-2,-1.377699971E0,2.921000004E0
4.672001406E1,8.827999830E-1,-8.446999788E-1,1.632399917E0
4.675000156E1,3.192199945E0,-4.918999970E-1,5.184999704E-1
4.677000156E1,2.793099880E0,-1.727999896E-1,-3.024999797E-1
4.679000156E1,1.166100025E0,-3.519999981E-1,-1.174899936E0
4.681000312E1,4.600000102E-3,-1.889999956E-1,-1.508000016E0
4.684000156E1,1.430999935E-1,1.683000028E-1,-1.871999979E0
4.686000781E1,6.183999777E-1,2.921999991E-1,-2.250399828E0
4.689000156E1,8.768000007E-1,5.254999995E-1,-2.456399918E0
4.691000938E1,8.058999777E-1,3.937999904E-1,-2.804199934E0
4.694000156E1,3.960999846E-1,3.981999755E-1,-2.756799936E0
4.696000312E1,3.073000014E-1,4.461999834E-1,-2.278100014E0
4.698000312E1,7.703999877E-1,5.141000152E-1,-1.791399956E0
4.701000156E1,1.088599920E0,6.753999591E-1,-1.144500017E0
4.703000156E1,6.672999859E-1,8.349999785E-1,-5.699999928E-1
4.705000625E1,3.041000068E-1,6.268999577E-1,-2.416999936E-1
4.708000000E1,1.112999991E-1,4.668999910E-1,5.325999856E-1
4.710000469E1,4.782999754E-1,3.200999796E-1,9.729999900E-1
4.713000156E1,6.359999776E-1,3.651999831E-1,1.115100026E0
4.715000469E1,2.594999969E-1,1.996999979E-1,3.524000049E-1
4.718000313E1,3.648999929E-1,-5.097000003E-1,1.726999998E0
4.720000312E1,-5.374000072E-1,-7.479999661E-1,1.923199892E0
4.722001406E1,-1.439199924E0,-7.770999670E-1,1.557199955E0
4.725000000E1,-2.013200045E0,-8.671000004E-1,1.118000001E-1
4.727000156E1,-1.460199952E0,-3.219999969E-1,-1.053999960E-1
4.729000156E1,-1.840000004E-1,-4.611999989E-1,-6.379999965E-2
4.731000156E1,2.439999953E-2,-4.840999842E-1,-2.131000012E-1
4.733000156E1,-6.728999615E-1,-3.920999765E-1,-7.138999701E-1
4.735000469E1,-1.077399969E0,-2.918999791E-1,-1.260599971E0
4.738000156E1,-7.124999762E-1,-5.079999939E-2,-1.268299937E0
4.740000469E1,-5.099999905E-1,-4.959999770E-2,-1.162899971E0
4.743000156E1,-8.506000042E-1,2.433999926E-1,-1.676699996E0
4.745000469E1,-9.914999604E-1,3.750000000E-1,-1.872799993E0
4.748000156E1,-6.556000113E-1,4.738999903E-1,-1.759899974E0
4.751000156E1,-8.391999602E-1,6.037999988E-1,-1.726699948E0
4.754000781E1,-1.217599988E0,6.283999681E-1,-1.099300027E0
4.757000000E1,-9.065999985E-1,1.808999926E-1,-6.232999563E-1
4.759000469E1,-5.274999738E-1,3.399999812E-3,2.536999881E-1
4.762000156E1,-6.757000089E-1,1.004999951E-1,1.612399936E0
4.764000156E1,-2.089999914E-1,4.659999907E-2,1.394400001E0
