"Time (s)","Gyroscope x (rad/s)","Gyroscope y (rad/s)","Gyroscope z (rad/s)"
5.481562000E-3,-5.008745790E-1,-4.806636870E-1,8.196415305E-1
2.548156200E-2,-5.958728790E-1,-5.267753005E-1,8.089600801E-1
4.548156200E-2,-5.880363584E-1,-7.387280464E-1,7.186393142E-1
6.548312500E-2,-4.918861389E-1,-9.139765501E-1,5.425879359E-1
8.748156200E-2,-4.086513817E-1,-9.043772817E-1,3.489087820E-1
1.074831250E-1,-4.722686410E-1,-8.869763017E-1,2.659707367E-1
1.294800000E-1,-6.632076502E-1,-1.087689161E0,1.704488546E-1
1.494800000E-1,-8.316144943E-1,-1.296831965E0,-6.946410518E-3
1.694800000E-1,-9.934763312E-1,-1.411552429E0,-2.185152173E-1
1.894800000E-1,-1.198255777E0,-1.446057677E0,-3.137578368E-1
2.094800000E-1,-1.487858295E0,-1.549765110E0,-2.756398618E-1
2.294800000E-1,-1.828598857E0,-1.996569395E0,-2.394766212E-1
2.494800000E-1,-2.123454809E0,-2.298842907E0,-3.785968125E-1
2.694815620E-1,-2.256798029E0,-1.886962771E0,-6.172531247E-1
2.894878120E-1,-2.150018692E0,-9.230871797E-1,-8.041430116E-1
3.114800000E-1,-1.861463428E0,3.527310491E-2,-8.456643820E-1
3.314878120E-1,-1.546920180E0,2.267880887E-1,-7.155500650E-1
3.534800000E-1,-1.131008267E0,1.927541643E-1,-4.602607787E-1
3.734800000E-1,-6.767165065E-1,1.729795784E-1,-2.081479728E-1
3.934800000E-1,-3.131120801E-1,2.708576322E-1,2.511528693E-2
4.134893750E-1,-1.317723542E-1,4.274834991E-1,3.020990491E-1
4.354815620E-1,-8.951793611E-2,3.710221052E-1,5.867098570E-1
4.554893750E-1,-3.817034885E-2,4.078834355E-1,8.151735067E-1
4.774800000E-1,9.800023586E-2,6.929829717E-1,1.078840375E0
4.974800000E-1,1.964018941E-1,8.745495677E-1,1.234174728E0
5.174800000E-1,2.302089334E-1,9.431410432E-1,1.276621103E0
5.374800000E-1,3.014881611E-1,1.196423173E0,1.217855811E0
5.574800000E-1,4.750611782E-1,1.534755230E0,1.038051963E0
5.774800000E-1,7.723954320E-1,1.583711743E0,7.203322649E-1
5.974815620E-1,1.120728254E0,1.869858503E0,4.746073782E-1
6.194800000E-1,1.302748680E0,2.523606539E0,3.173881173E-1
6.394800000E-1,1.319765568E0,2.033971786E0,1.999623775E-1
6.594800000E-1,1.168183804E0,3.552268744E-1,-8.988445625E-3
6.794800000E-1,1.070270777E0,-7.679798007E-1,-3.704810441E-1
6.994800000E-1,1.014402866E0,-1.480370760E0,-6.401693225E-1
7.194800000E-1,8.563981652E-1,-1.649912119E0,-7.954163551E-1
7.394800000E-1,5.055345893E-1,-1.674119830E0,-7.513293624E-1
7.594800000E-1,1.204277202E-1,-1.185218215E0,-4.143935144E-1
7.794800000E-1,-2.232974172E-1,-5.291140079E-1,-1.588773280E-1
7.994800000E-1,-3.508809805E-1,-1.520181745E-1,-1.510931551E-1
8.194800000E-1,-2.686410844E-1,-9.616764262E-3,-1.469741762E-1
8.394800000E-1,-4.293509759E-3,-2.777342498E-1,-1.636944264E-1
8.594800000E-1,3.652625084E-1,-7.252715826E-1,-1.780934036E-1
8.794800000E-1,5.957157612E-1,-1.302748680E0,-2.169793248E-1
8.994800000E-1,5.450662971E-1,-1.256829023E0,-3.236887753E-1
9.194940620E-1,3.285931349E-1,-6.714456081E-1,-2.459692508E-1
9.414800000E-1,-1.632406414E-1,-4.232248962E-1,-6.585127115E-2
9.614800000E-1,-4.912927151E-1,1.215621829E-1,-9.983283468E-3
9.814800000E-1,-5.477541089E-1,3.472332656E-1,-1.211258490E-2
1.001480000E0,-5.270196199E-1,2.254267186E-1,2.928662486E-2
1.021480000E0,-4.076216519E-1,3.595378250E-2,1.718974710E-1
1.041480000E0,-1.280548126E-1,-2.572964430E-1,4.817457795E-1
1.063480000E0,2.856056690E-1,-6.262939572E-1,6.586872339E-1
1.083480000E0,8.037590384E-1,-8.893499970E-1,6.891956329E-1
1.103480000E0,9.418494701E-1,-8.155748844E-1,5.337740183E-1
1.123480000E0,6.277600527E-1,-5.554510355E-1,4.520228207E-1
1.143480000E0,3.447898030E-1,-5.313829184E-1,4.887969196E-1
1.163480000E0,2.601587772E-1,-7.509279251E-1,4.575729668E-1
1.183480000E0,4.329638183E-1,-6.769259572E-1,3.013834655E-1
1.203480000E0,5.839173794E-1,-5.544911027E-1,9.939649701E-2
1.223480000E0,4.585677981E-1,-3.573736250E-1,1.069363207E-1
1.243480000E0,1.561197042E-1,-1.258731484E-1,4.673991725E-2
1.263480000E0,-1.566607505E-1,-1.169894189E-1,-2.400525808E-1
1.283480000E0,-3.716503978E-1,1.213003788E-2,-5.807408690E-1
1.303480000E0,-4.006577730E-1,3.281742632E-1,-5.040685534E-1
1.323480000E0,-3.636044562E-1,6.083868742E-1,-2.462834120E-1
1.343480000E0,-1.902408898E-1,4.644495547E-1,6.585127115E-2
1.363480000E0,1.371828765E-1,1.279326379E-1,2.080083340E-1
1.383480000E0,3.663795292E-1,-1.897871047E-1,2.908765674E-1
1.403480000E0,4.082325101E-1,-4.317944646E-1,2.953620553E-1
1.423480000E0,4.038691819E-1,-3.222575784E-1,2.132268697E-1
1.443480000E0,3.908490241E-1,-1.040216256E-2,1.614255011E-1
1.463480000E0,2.373473197E-1,7.665485889E-2,8.527678996E-2
1.483480000E0,8.133234456E-3,5.141739920E-2,-1.066221669E-1
1.503480000E0,-1.820378453E-1,2.110975683E-1,-2.740865052E-1
1.523480000E0,-2.533519864E-1,3.074746430E-1,-2.986956537E-1
1.543480000E0,-2.137330174E-1,3.383320868E-1,-2.249554843E-1
1.563480000E0,-1.821949184E-1,4.154232740E-1,-1.390678287E-1
1.583480000E0,-2.188468277E-1,4.530002177E-1,-4.242895544E-2
1.603480000E0,-1.725956053E-1,4.589692354E-1,3.714060783E-2
1.623480000E0,-5.061454605E-3,3.264987469E-1,1.007578596E-1
1.643480000E0,5.675810575E-2,1.633104533E-1,9.314822406E-2
1.663480000E0,-3.979350626E-2,1.584409922E-1,8.628907800E-2
1.683480000E0,-2.042907923E-1,3.621558249E-1,1.071632132E-1
1.703480000E0,-3.533070087E-1,5.273163319E-1,1.739395112E-1
1.723480000E0,-4.339237511E-1,4.760560095E-1,2.989923656E-1
1.743480000E0,-4.709770977E-1,2.624975145E-1,3.704810441E-1
1.763480000E0,-5.344198346E-1,5.918411538E-2,1.291369051E-1
1.783480000E0,-4.180237949E-1,2.689552307E-2,4.747295752E-3
1.803480000E0,-1.651954204E-1,3.760137260E-1,8.754571527E-2
1.823480000E0,2.963569015E-2,6.262590289E-1,2.612757981E-1
1.843480000E0,6.115633622E-2,4.055272639E-1,2.984164059E-1
1.863480000E0,3.899065405E-2,-1.237612963E-1,1.979377866E-1
1.883480000E0,3.923500329E-2,-7.604573965E-1,1.385616958E-1
1.903480000E0,-6.841690745E-3,-9.595471025E-1,1.974665523E-1
1.923480000E0,2.766346931E-2,-7.530746460E-1,3.076491952E-1
1.943480000E0,8.649851382E-2,-5.510528088E-1,2.749940753E-1
1.963480000E0,1.085420251E-1,-3.698352575E-1,1.328544617E-1
1.983480000E0,7.000515610E-2,-1.155582517E-1,-7.435102481E-3
2.003480000E0,4.714134336E-2,9.929177910E-2,-5.628686771E-2
2.023480000E0,1.036376506E-1,2.255139947E-1,1.087340154E-2
2.043480000E0,1.436929554E-1,2.124240249E-1,1.111949235E-1
2.063480000E0,1.438151300E-1,3.649483621E-2,1.156978756E-1
2.083480000E0,2.086192071E-1,-2.612059712E-1,5.893976986E-2
2.103480000E0,4.119849801E-1,-3.912853599E-1,1.034980267E-2
2.123480000E0,6.104637980E-1,-3.530800939E-1,5.410520826E-4
2.143480000E0,5.566552877E-1,-3.920533061E-1,-2.993239649E-2
2.163480000E0,4.212701321E-1,-4.991466999E-1,-9.356710315E-2
2.183480000E0,3.454879224E-1,-5.194274187E-1,-1.373923123E-1
2.203480000E0,3.988949955E-1,-3.810053766E-1,-1.156280637E-1
2.223480000E0,3.054500818E-1,-1.249481216E-1,3.351032268E-3
2.243480000E0,2.146754973E-2,-5.044001341E-2,7.326892018E-2
2.263480000E0,-3.087312877E-1,-1.675865203E-1,-2.251474746E-2
2.283480000E0,-5.187991261E-1,-2.338392138E-1,-2.105739713E-1
2.303480000E0,-5.050808191E-1,-2.631956525E-2,-2.681872845E-1
2.323480000E0,-3.753679693E-1,2.240828276E-1,-1.446005255E-1
2.343480000E0,-2.053554356E-1,2.062106431E-1,2.954842336E-2
2.363480000E0,-5.012585595E-2,3.426081315E-2,9.571385384E-2
2.383480000E0,6.754424423E-2,-5.867796764E-2,1.360135078E-1
2.403480000E0,1.743234843E-1,3.602359444E-2,2.212379426E-1
2.423480000E0,2.716255784E-1,1.257160604E-1,2.773502767E-1
2.443480000E0,3.775670826E-1,1.468520015E-1,2.460216135E-1
2.463480000E0,3.287851214E-1,9.368927032E-2,1.057320461E-1
2.483480000E0,1.229060888E-1,-7.028441131E-2,-5.457644537E-2
2.503480000E0,-3.583160788E-2,-1.699601561E-1,-1.995609403E-1
2.523480000E0,-3.799581900E-2,-1.361356815E-3,-1.917593181E-1
2.543480000E0,-9.096655995E-2,3.929085135E-1,-2.635447122E-2
2.563480000E0,-1.643576622E-1,7.894298434E-1,1.874658167E-1
2.583480000E0,-3.023084700E-1,6.629109383E-1,2.759540081E-1
2.603480000E0,-2.342580855E-1,1.206022501E-2,3.589095175E-1
2.623480000E0,1.363800317E-1,-4.072900414E-1,4.794943035E-1
2.643480000E0,4.451462328E-1,-4.462806880E-1,5.641252995E-1
2.663480000E0,4.697728157E-1,-2.988527119E-1,5.738991499E-1
2.683480000E0,3.075095713E-1,-1.865931451E-1,4.707327485E-1
2.703480000E0,1.829279512E-1,4.590215907E-2,2.664594054E-1
2.723480000E0,9.512044489E-3,3.334625959E-1,2.342929989E-1
2.743481562E0,-3.488913178E-1,6.139544845E-1,4.796513915E-1
2.763481562E0,-7.723081708E-1,5.427275896E-1,6.270269752E-1
2.785481562E0,-8.122238517E-1,1.779886782E-1,5.050633550E-1
2.807480000E0,-2.175203860E-1,-3.193952516E-2,2.593210340E-1
2.827480000E0,2.649409771E-1,2.600540640E-3,2.260724902E-1
2.847481562E0,3.880565166E-1,-1.759291887E-1,3.751759827E-1
2.867481562E0,3.371627033E-1,-8.408647180E-1,5.231624246E-1
2.887481562E0,1.949707270E-1,-1.452096462E0,5.839697123E-1
2.909480000E0,-4.162610322E-2,-1.368093729E0,6.793868542E-1
2.929480000E0,-3.415609300E-1,-1.049134851E0,7.597243786E-1
2.949480000E0,-6.741159558E-1,-6.449165940E-1,8.217708468E-1
2.969480000E0,-8.904844522E-1,-3.422067165E-1,8.274082541E-1
2.989481562E0,-1.066239119E0,-1.979901493E-1,7.570016384E-1
3.011480000E0,-1.067949533E0,8.241444826E-2,6.652671695E-1
3.031480000E0,-9.621825814E-1,4.692841172E-1,6.888116598E-1
3.051480000E0,-7.926063538E-1,7.121117711E-1,6.965783834E-1
3.071480000E0,-5.107356906E-1,7.600559592E-1,6.641850471E-1
3.091480000E0,-1.424712241E-1,7.349755764E-1,6.421764493E-1
3.111480000E0,2.203827202E-1,5.326919556E-1,6.276378632E-1
3.131494062E0,5.178042650E-1,3.547381759E-1,4.447622597E-1
3.153480000E0,6.082298160E-1,8.977973461E-2,1.481260955E-1
3.173481562E0,5.445078015E-1,-4.220206290E-2,-4.834562074E-3
3.195481562E0,3.737797141E-1,2.203827202E-1,-2.048842013E-1
3.215481562E0,1.083849445E-1,8.888787031E-1,-2.772979140E-1
3.235481562E0,-4.494222701E-1,1.487858295E0,-2.758143842E-1
3.255481562E0,-9.850812554E-1,1.701765776E0,-2.879095078E-1
3.275481562E0,-1.240038991E0,1.481452942E0,-3.920707703E-1
3.295481562E0,-1.028156042E0,1.125842094E0,-5.200208426E-1
3.315481562E0,-4.938583672E-1,7.920129299E-1,-4.397706091E-1
3.335481562E0,7.904595882E-2,5.249775648E-1,-8.131489158E-2
3.355481562E0,5.117480159E-1,2.646617293E-1,3.194650710E-1
3.375481562E0,7.168067098E-1,-1.075471863E-1,5.260422230E-1
3.395481562E0,7.968125939E-1,-4.142713547E-1,4.923224747E-1
3.415481562E0,8.002683520E-1,-3.783175647E-1,4.032757878E-1
3.435481562E0,6.786189079E-1,-7.382742595E-3,3.601486981E-1
3.455481562E0,3.252595663E-1,2.890265286E-1,3.529579341E-1
3.475481562E0,-2.045874894E-1,3.028669953E-1,2.173109502E-1
3.495483125E0,-6.031683087E-1,2.410299703E-2,-1.912880875E-2
3.517481562E0,-8.413883448E-1,-4.524940550E-1,-1.186474785E-1
3.537481562E0,-1.000667095E0,-1.026358366E0,-8.032005280E-2
3.557481562E0,-1.045714021E0,-1.546082497E0,3.211405827E-3
3.579480000E0,-9.974905849E-1,-1.847047091E0,2.210808545E-1
3.599480000E0,-7.142760158E-1,-1.518000126E0,4.041484296E-1
3.619480000E0,-2.004510611E-1,-7.996400595E-1,4.706978500E-1
3.639480000E0,3.295705318E-1,-1.842718571E-1,5.040510893E-1
3.659480000E0,7.479084730E-1,2.781356573E-1,5.093917847E-1
3.679480000E0,9.055815339E-1,5.765171647E-1,4.250051379E-1
3.699481562E0,8.477587700E-1,7.054446340E-1,3.067241609E-1
3.721480000E0,7.596021891E-1,7.627612352E-1,3.281567991E-1
3.741480000E0,6.255434752E-1,6.280741692E-1,4.982216954E-1
3.761480000E0,2.241700888E-1,4.477991164E-1,5.075766444E-1
3.781480000E0,-2.528283894E-1,2.966361642E-1,5.824163556E-2
3.801480000E0,-5.725552440E-1,1.153488085E-1,-6.363295913E-1
3.821480000E0,-5.824338198E-1,9.309586138E-2,-9.480279684E-1
3.841480000E0,-5.406332016E-1,2.523920536E-1,-8.921948671E-1
3.861484687E0,-6.332403421E-1,2.769314051E-1,-5.752430558E-1
3.883480000E0,-8.311083317E-1,-7.005751878E-2,-2.367539108E-1
3.903480000E0,-1.086310387E0,-4.828278720E-1,-1.080358773E-1
3.923480000E0,-1.360222340E0,-9.014450908E-1,-1.468171030E-1
3.943480000E0,-1.649371028E0,-1.220037460E0,-4.321435094E-2
3.963481562E0,-1.849193811E0,-1.316990495E0,2.355845422E-1
3.985483125E0,-1.751385570E0,-1.062224865E0,4.780980349E-1
4.007480000E0,-1.287808657E0,-5.855056047E-1,4.314802885E-1
4.027480000E0,-5.764822364E-1,-9.717993438E-2,4.074645638E-1
4.047480000E0,1.569923609E-1,2.653249502E-1,5.460262299E-1
4.067481562E0,6.415306926E-1,4.509930909E-1,6.501526237E-1
4.087481562E0,9.169261456E-1,4.522671700E-1,7.223393917E-1
4.109480000E0,1.053288698E0,1.545663625E-1,6.553711295E-1
4.129480000E0,1.129489779E0,-1.141096279E-1,3.735702634E-1
4.149480000E0,1.055906773E0,-2.340835631E-1,-8.499753661E-3
4.169480000E0,7.629881501E-1,-2.148325741E-1,-2.781531215E-1
4.189481562E0,4.031012356E-1,-2.125811018E-2,-3.994884193E-1
4.211481562E0,8.421213925E-2,2.093696892E-1,-4.695982933E-1
4.231481562E0,-1.132893190E-1,4.407130778E-1,-5.245063305E-1
4.253480000E0,-3.934321105E-1,6.066066623E-1,-5.920506120E-1
4.273480000E0,-5.699198246E-1,6.061877608E-1,-6.538352370E-1
4.293480000E0,-5.740038753E-1,5.621531010E-1,-7.574030757E-1
4.313481562E0,-3.995233178E-1,5.556255579E-1,-9.203644991E-1
4.335481562E0,-4.921828583E-2,6.568546891E-1,-7.614697218E-1
4.355481562E0,2.603856623E-1,6.974161267E-1,-4.225965738E-1
4.375481562E0,4.748866260E-1,4.225791097E-1,-1.674294323E-1
4.395481562E0,6.791076064E-1,1.842544079E-1,-1.232202426E-1
4.415481562E0,8.799949884E-1,1.118406951E-1,-8.089601249E-2
4.435481562E0,9.383413792E-1,2.018124163E-1,-3.333579004E-2
4.455481562E0,8.539198041E-1,4.305901825E-1,-4.632103816E-2
4.475481562E0,5.740562677E-1,4.892855883E-1,-1.907819360E-1
4.495483125E0,1.539729387E-1,3.830997646E-1,-4.823392034E-1
4.515487812E0,-4.219158888E-1,1.147553995E-1,-9.106255174E-1
4.537480000E0,-8.636936545E-1,-5.448918045E-2,-9.921324253E-1
4.557480000E0,-9.739111662E-1,-9.557422996E-2,-1.008800268E0
4.577480000E0,-9.298765063E-1,-5.248204991E-2,-8.034273982E-1
4.597480000E0,-7.868118882E-1,-9.965829551E-3,-5.101073980E-1
4.617480000E0,-6.048438549E-1,3.014183603E-2,-3.284186125E-1
4.637480000E0,-4.900709987E-1,3.159045940E-3,-2.399304062E-1
4.657480000E0,-4.668581188E-1,6.881833076E-2,-1.612684280E-1
4.677480000E0,-4.234517813E-1,3.261322081E-1,-2.127556317E-2
4.697481562E0,-2.775247991E-1,5.305451751E-1,1.082104146E-1
4.717481562E0,-1.581617296E-1,5.976181626E-1,1.768716723E-1
4.739480000E0,-1.245990545E-1,5.420818329E-1,2.309070528E-1
4.759480000E0,-1.663996875E-1,3.524692357E-1,3.549475968E-1
4.779480000E0,-2.570695579E-1,1.699950732E-2,3.769562244E-1
4.799480000E0,-2.587625086E-1,-2.336646765E-1,1.441816539E-1
4.819480000E0,1.796816438E-1,-2.892883122E-1,8.133234456E-3
4.839480000E0,8.641124964E-1,-3.048217595E-1,2.724982500E-1
4.859480000E0,1.450281382E0,-5.179264545E-1,6.692115664E-1
4.879480000E0,1.728608966E0,-8.008617759E-1,8.561189175E-1
4.899480000E0,1.700858235E0,-1.119174957E0,8.318937421E-1
4.919494062E0,1.529048085E0,-1.582158446E0,6.941872835E-1
4.941480000E0,1.443666577E0,-2.076470613E0,6.182829142E-1
4.961480000E0,1.400103092E0,-2.412987471E0,6.223495007E-1
4.981480000E0,1.324600220E0,-2.634626865E0,5.993111730E-1
5.001480000E0,1.189965487E0,-2.743587732E0,6.849893928E-1
5.021480000E0,1.040355802E0,-2.052000999E0,7.214143872E-1
5.041480000E0,7.413285971E-1,-1.111425638E0,7.292858362E-1
5.061480000E0,4.820424914E-1,-1.181238815E-1,8.070228100E-1
5.081480000E0,3.136531115E-1,3.499210477E-1,8.995426893E-1
5.101480000E0,8.187339455E-2,6.836803555E-1,9.079551697E-1
5.121480000E0,-1.380031854E-1,1.070078850E0,7.753450871E-1
5.141480000E0,-2.709972858E-1,1.264176846E0,5.905147195E-1
5.161480000E0,-2.849424481E-1,1.395617604E0,3.713537157E-1
5.181480000E0,-3.724881709E-1,1.116906047E0,1.213876456E-1
5.201480000E0,-4.779409468E-1,7.505439520E-1,-1.108633131E-1
5.221481562E0,-4.260348678E-1,7.674736381E-1,-2.053728998E-1
5.243480000E0,-4.556705654E-1,1.071597219E0,-2.292490005E-1
5.263480000E0,-6.332927346E-1,1.416666269E0,-2.363873869E-1
5.283480000E0,-9.030333757E-1,1.643122792E0,-2.535963356E-1
5.303480000E0,-1.206930041E0,1.694871783E0,-3.660304546E-1
5.323480000E0,-1.313395143E0,1.481103897E0,-4.849048257E-1
5.343480000E0,-1.151550770E0,1.073028445E0,-4.527035058E-1
5.363480000E0,-8.111591935E-1,6.553013325E-1,-2.634923458E-1
5.383480000E0,-3.875852525E-1,2.754827738E-1,3.597123548E-2
5.403480000E0,-1.008800268E-1,7.503170520E-2,3.139847219E-1
5.423480000E0,1.838878840E-1,-4.249876738E-2,5.471607447E-1
5.443480000E0,6.129945517E-1,1.647590846E-2,7.645938396E-1
5.463480000E0,1.000475049E0,1.365371048E-1,8.871857524E-1
5.483480000E0,1.006461620E0,1.466076523E-1,7.919955254E-1
5.503480000E0,7.070852518E-1,-7.901105285E-2,5.748940110E-1
5.523480000E0,3.185400367E-1,-2.921681106E-1,3.952472508E-1
5.543480000E0,-8.756317198E-2,-5.605822802E-1,2.095442265E-1
5.563480000E0,-3.238458335E-1,-2.531774640E-1,3.490658477E-2
5.583481562E0,-3.351730406E-1,6.785839796E-2,7.386233658E-2
5.605481562E0,-3.544938266E-1,2.002765238E-1,4.176747501E-1
5.627480000E0,-3.000220954E-1,1.046673954E-1,8.258723617E-1
5.647480000E0,-5.256931856E-2,-1.649336070E-1,1.064354181E0
5.667480000E0,2.982069552E-1,-3.068463206E-1,1.182792187E0
5.687480000E0,5.860815644E-1,-2.855533063E-1,1.299310327E0
5.707480000E0,6.588966846E-1,-2.883458436E-1,1.299345255E0
5.727481562E0,5.415232778E-1,-1.410051435E-1,1.178027391E0
5.749480000E0,3.354522884E-1,-9.040805511E-3,1.261471629E0
5.769480000E0,-3.979350626E-2,-2.635447076E-3,1.538577557E0
5.789480000E0,-5.366887450E-1,-3.010343909E-1,1.287424684E0
5.809480000E0,-7.792196870E-1,-6.682690978E-1,5.504768491E-1
5.829480000E0,-3.134087622E-1,-7.665486336E-1,1.366592795E-1
5.849480000E0,3.407929838E-1,-5.209633112E-1,3.509333432E-1
5.869480000E0,7.487986088E-1,-2.685887218E-1,8.580911160E-1
5.889480000E0,6.070778966E-1,-6.314077377E-1,1.027806997E0
5.909480000E0,2.138726413E-1,-1.243198037E0,9.608560801E-1
5.929480000E0,-1.569050923E-2,-1.714506745E0,8.222420812E-1
5.949480000E0,-9.911724925E-2,-1.531788230E0,6.856351495E-1
5.969480000E0,-1.864884347E-1,-8.523140550E-1,6.089802980E-1
5.989480000E0,-3.905174136E-1,-1.513898522E-1,6.020687819E-1
6.009480000E0,-5.696056485E-1,2.672099173E-1,5.651026964E-1
6.029480000E0,-5.778610706E-1,3.659955561E-1,5.512971282E-1
6.049480000E0,-4.639608860E-1,3.323456049E-1,6.796137691E-1
6.069480000E0,-3.021688461E-1,2.299471349E-1,8.524362445E-1
6.089480000E0,-1.236740276E-1,1.240230948E-1,9.416924119E-1
6.109480000E0,3.961897455E-3,-6.058037654E-2,8.582831025E-1
6.129480000E0,1.208640486E-1,-1.552470326E-1,5.946162343E-1
6.149480000E0,1.135860309E-1,-2.612408698E-1,2.365968376E-1
6.169480000E0,-4.482005537E-2,-2.974913716E-1,-3.684389964E-2
6.189480000E0,-1.884082854E-1,-1.330115348E-1,-2.675764263E-1
6.209480000E0,-1.474803239E-1,4.504694641E-1,-4.325449467E-1
6.229480000E0,-1.403593719E-1,1.204905510E0,-4.325973094E-1
6.249480000E0,-2.904053330E-1,1.503164768E0,-4.306425452E-1
6.269480000E0,-4.333827198E-1,1.397904038E0,-5.296027064E-1
6.289480000E0,-5.144357681E-1,1.162005305E0,-7.177841067E-1
6.309480000E0,-5.197590590E-1,9.449735880E-1,-8.704829812E-1
6.329480000E0,-4.278500080E-1,6.726149917E-1,-8.156621456E-1
6.349480000E0,-2.671226263E-1,3.993662298E-1,-4.979773462E-1
6.369480000E0,-9.232792072E-3,2.069087774E-1,-3.509857133E-2
6.389480000E0,3.913202584E-1,2.045874894E-1,4.644321203E-1
6.409480000E0,7.253937125E-1,2.259328663E-1,6.937159896E-1
6.429480000E0,8.774642944E-1,1.704663038E-1,7.143283486E-1
6.449480000E0,8.810596466E-1,2.698278986E-2,6.373942494E-1
6.469480000E0,7.475594282E-1,-2.336297780E-1,5.022708774E-1
6.489480000E0,4.333303571E-1,-4.462283254E-1,3.247010410E-1
6.509480000E0,-9.791296907E-3,-5.681570172E-1,1.454033852E-1
6.529480000E0,-3.519107401E-1,-4.833689332E-1,5.396557972E-2
6.549480000E0,-4.340633750E-1,-2.452536672E-1,9.197884798E-2
6.569480000E0,-4.464377761E-1,-1.189267337E-1,2.873859107E-1
6.589481562E0,-4.473453462E-1,-7.504915446E-2,5.144357681E-1
6.611480000E0,-4.590739608E-1,-1.008102149E-1,5.990667939E-1
6.631480000E0,-2.875081003E-1,-6.862634420E-2,6.051754355E-1
6.651480000E0,-5.251695588E-2,-1.546361670E-2,6.533465385E-1
6.671480000E0,1.399579495E-1,-3.293436393E-2,7.293033004E-1
6.691480000E0,2.366666496E-1,-9.431759268E-2,8.136376143E-1
6.711480000E0,4.861091077E-1,-1.538333148E-1,8.921599388E-1
6.731480000E0,8.332201838E-1,-1.796990931E-1,1.048558950E0
6.751480000E0,8.480904102E-1,-1.048070192E-1,1.013704658E0
6.771481562E0,7.236832976E-1,9.841911495E-2,3.167772591E-1
6.793480000E0,7.458315492E-1,4.558276534E-1,-4.338015914E-1
6.813480000E0,8.189084530E-1,5.409822464E-1,-6.783396602E-1
6.833480000E0,6.392443180E-1,4.421791732E-1,-6.043726206E-1
6.853480000E0,2.042907923E-1,1.642529368E-1,-3.922801912E-1
6.873480000E0,-2.444159091E-1,-4.555833042E-1,-1.784424633E-1
6.893480000E0,-6.501002312E-1,-1.278942347E0,-5.667084083E-2
6.913480000E0,-9.281660914E-1,-1.735607743E0,-6.534512341E-2
6.933480000E0,-8.839394450E-1,-1.626332641E0,-7.447320223E-2
6.953480000E0,-6.257005334E-1,-1.138582945E0,-1.350012124E-1
6.973480000E0,-4.590739608E-1,-6.454402208E-1,-9.494590759E-2
6.993480000E0,-3.545636237E-1,-1.420872509E-1,7.688175142E-2
7.013480000E0,-1.872563809E-1,2.234195918E-1,2.573837042E-1
7.033480000E0,1.144936029E-2,3.507413566E-1,4.567177594E-1
7.053480000E0,2.007477731E-1,3.117856085E-1,5.302309990E-1
7.073480000E0,2.704038620E-1,7.986626774E-2,4.284434319E-1
7.093480000E0,2.193878889E-1,-1.921258420E-1,1.959481090E-1
7.113481562E0,5.536184460E-2,-4.629660249E-1,-1.277581006E-1
7.135481562E0,-1.267283559E-1,-6.278996468E-1,-4.529827535E-1
7.155481562E0,-2.512052357E-1,-5.344198346E-1,-6.329960227E-1
7.177480000E0,-4.338364899E-1,-4.620410204E-1,-8.123460412E-1
7.197480000E0,-5.651899576E-1,-7.372270525E-2,-9.246928692E-1
7.217480000E0,-6.347239017E-1,5.657484531E-1,-9.125977755E-1
7.237480000E0,-7.668104172E-1,1.047668815E0,-8.423656821E-1
7.257480000E0,-9.037140012E-1,1.227996230E0,-8.590685129E-1
7.277480000E0,-8.452978730E-1,1.270355344E0,-8.723329902E-1
7.297480000E0,-5.707401037E-1,1.311405540E0,-6.885847449E-1
7.317480000E0,-2.857802212E-1,1.252273679E0,-2.945068479E-1
7.337480000E0,9.232792072E-3,1.076536536E0,2.744355798E-1
7.357480000E0,3.140719831E-1,1.042188406E0,7.813490033E-1
7.377480000E0,7.124084830E-1,8.837649226E-1,1.090010524E0
7.397480000E0,1.000283122E0,8.087332249E-1,1.070166111E0
7.417480000E0,1.104287267E0,9.365436435E-1,8.824384809E-1
7.437480000E0,9.012356400E-1,6.816383600E-1,6.125581861E-1
7.457480000E0,4.198389649E-1,1.440071166E-1,1.210036799E-1
7.477480000E0,-6.656685472E-2,-2.040115297E-1,-1.929636002E-1
7.497480000E0,-3.966609836E-1,-4.171336889E-1,-4.010417461E-1
7.517480000E0,-4.952197075E-1,-4.860392809E-1,-5.063549280E-1
7.537481562E0,-3.994360566E-1,-3.993313313E-1,-3.671649098E-1
7.557481562E0,-2.755351365E-1,-2.709623575E-1,6.787585467E-2
7.579480000E0,-1.962971836E-1,-2.942450643E-1,6.300987601E-1
7.599480000E0,-6.616543233E-2,-2.389355749E-1,8.796110153E-1
7.619480000E0,1.310742199E-1,-1.428551972E-1,8.184198141E-1
7.639480000E0,3.439869285E-1,-4.511675984E-2,6.771179438E-1
7.659480000E0,4.133986831E-1,-3.078760765E-2,6.637138128E-1
7.679480000E0,4.119500518E-1,5.745624006E-2,6.848846674E-1
7.699481562E0,4.446749985E-1,7.204718888E-2,8.285601735E-1
7.721481562E0,1.831199378E-1,-1.680926532E-1,8.739736080E-1
7.743480000E0,-2.301914692E-1,-3.587175310E-1,3.729419410E-1
7.763480000E0,-2.624277174E-1,-3.042283356E-1,-1.576381326E-1
7.783480000E0,1.607797295E-1,3.117158078E-2,-3.836059272E-1
7.803480000E0,4.988150895E-1,2.721317410E-1,-2.132268697E-1
7.823480000E0,5.180486441E-1,7.714354992E-2,3.375466913E-2
7.843480000E0,1.691573113E-1,-5.768138766E-1,3.661700711E-2
7.863480000E0,-1.997180283E-1,-9.992184639E-1,4.724606127E-2
7.883480000E0,-4.203101993E-1,-1.005833268E0,2.014459074E-1
7.903480000E0,-4.782027602E-1,-6.375338435E-1,3.354871869E-1
7.923480000E0,-5.381897092E-1,-3.046646714E-1,2.757969201E-1
7.943480000E0,-6.068335176E-1,-2.280796319E-1,6.543239206E-2
7.963480000E0,-5.688027740E-1,-2.729171216E-1,-1.991420612E-2
7.983480000E0,-3.714758754E-1,-2.326872945E-1,2.448697016E-2
8.003480000E0,-1.822298318E-1,-1.418952644E-1,1.349139512E-1
8.023480000E0,-2.013586313E-1,-1.781981140E-1,1.748470813E-1
8.043480000E0,-3.275459409E-1,-3.164281845E-1,7.485716790E-2
8.063480000E0,-4.412890375E-1,-4.643448591E-1,-9.520771354E-2
8.083480000E0,-4.752531648E-1,-6.613401771E-1,-3.306700885E-1
8.103480000E0,-3.502526879E-1,-7.705454230E-1,-5.725377798E-1
8.123480000E0,-1.857030392E-1,-6.917961240E-1,-6.821793914E-1
8.143480000E0,-1.503775716E-1,-5.470210910E-1,-7.194072604E-1
8.163480000E0,-1.669930965E-1,-2.248333097E-1,-7.744549513E-1
8.183481562E0,-1.195899621E-1,2.560223341E-1,-7.341378331E-1
8.205500312E0,-1.750565320E-2,5.574058294E-1,-5.383293629E-1
8.227481562E0,5.031784251E-2,4.826708138E-1,-4.039215446E-1
8.249480000E0,1.157153323E-1,3.056071401E-1,-4.847652018E-1
8.269481562E0,2.218837142E-1,4.115311801E-1,-5.838649869E-1
8.291481562E0,3.872711062E-1,9.579937458E-1,-4.014257193E-1
8.313481562E0,3.328692019E-1,1.312557459E0,-1.147030368E-1
8.335481562E0,1.902408898E-1,1.212584972E0,1.624377966E-1
8.355481562E0,2.703689635E-1,8.716349006E-1,3.679503202E-1
8.377481562E0,4.806811213E-1,5.172283053E-1,5.430766344E-1
8.399480000E0,6.164503098E-1,2.608394623E-1,6.759834886E-1
8.419494062E0,6.459812522E-1,1.924400032E-1,7.804065347E-1
8.441480000E0,4.731238484E-1,1.219286993E-1,8.360301852E-1
8.461480000E0,8.779006451E-2,-1.316850930E-1,7.578568459E-1
8.481480000E0,-2.840523422E-1,-4.216890037E-1,5.483475327E-1
8.501481562E0,-4.750437140E-1,-5.274210572E-1,3.915122449E-1
8.523480000E0,-6.023305655E-1,-5.121319890E-1,4.136604965E-1
8.543480000E0,-6.455274820E-1,-3.699574471E-1,6.136577725E-1
8.563480000E0,-5.400747061E-1,-1.735206395E-1,8.547052145E-1
8.583480000E0,-3.202679157E-1,-1.275486648E-1,9.443278313E-1
8.603484687E0,-6.494370103E-2,-1.448099613E-1,9.353917837E-1
8.623484687E0,9.791296721E-2,-2.819230258E-1,9.110444188E-1
8.645481562E0,1.727177799E-1,-5.159891248E-1,8.111068606E-1
8.665481562E0,1.932603121E-1,-5.229704380E-1,5.825734735E-1
8.685481562E0,1.619490981E-1,-1.537984163E-1,3.357838988E-1
8.705483125E0,1.639736891E-1,5.207713246E-1,4.004134238E-1
8.727481562E0,2.727949619E-2,7.954163551E-1,5.920854807E-1
8.749480000E0,-1.169545129E-1,5.283111334E-1,4.206941724E-1
8.769481562E0,-5.061454698E-2,1.260651350E-1,1.292067170E-1
8.791480000E0,2.207492441E-1,-1.820552945E-1,7.670722157E-2
8.811480000E0,4.944168627E-1,-4.006054103E-1,2.595479190E-1
8.831480000E0,6.437123418E-1,-6.997199655E-1,4.421268106E-1
8.851480000E0,7.122339606E-1,-7.933917642E-1,4.828802347E-1
8.871480000E0,6.732432842E-1,-5.458517075E-1,4.948008358E-1
8.891480000E0,4.967730641E-1,-9.688322991E-2,5.397081375E-1
8.911480000E0,2.744704783E-1,3.552617729E-1,6.417750120E-1
8.931484687E0,1.295732409E-1,6.756169796E-1,6.674138904E-1
8.953480000E0,3.188716620E-2,8.189259171E-1,5.906368494E-1
8.973480000E0,-1.555088349E-2,7.555879354E-1,4.623028040E-1
8.993480000E0,-6.841690745E-3,4.681496620E-1,3.535687923E-1
9.013480000E0,-1.879719645E-2,7.888888009E-3,1.838006228E-1
9.033481562E0,-8.379326016E-2,-4.891983271E-1,-4.194026068E-2
9.055481562E0,-1.632231921E-1,-7.732157707E-1,-2.460914254E-1
9.075481562E0,-1.970127672E-1,-7.603352070E-1,-4.076565504E-1
9.095481562E0,-2.777167857E-1,-5.697278380E-1,-5.422214270E-1
9.115481562E0,-4.412890375E-1,-2.121098638E-1,-5.524665117E-1
9.135481562E0,-6.875550151E-1,1.911833584E-1,-4.465425014E-1
9.155481562E0,-9.028937221E-1,3.812846243E-1,-3.955439627E-1
9.175486250E0,-9.114981890E-1,3.186447620E-1,-4.127179980E-1
9.197480000E0,-6.995803118E-1,4.171685874E-1,-2.965838015E-1
9.217480000E0,-6.240250468E-1,5.374741554E-1,4.897394031E-2
9.237481562E0,-8.340928555E-1,4.254065454E-1,2.110626698E-1
9.257481562E0,-1.231713772E0,6.761405617E-2,3.246312216E-2
9.279480000E0,-1.505451202E0,-1.347568780E-1,-3.371452391E-1
9.299480000E0,-1.255205870E0,1.117359772E-1,-2.971248627E-1
9.319480000E0,-7.017794251E-1,4.814141691E-1,2.458470762E-1
9.339480000E0,-2.036799192E-1,5.843536854E-1,1.037092090E0
9.359480000E0,2.275385708E-1,4.657760262E-1,1.418621063E0
9.379480000E0,5.696056485E-1,2.527236640E-1,1.294161677E0
9.399480000E0,6.775367856E-1,3.544763848E-2,8.694881201E-1
9.419494062E0,6.069382429E-1,-1.217018068E-1,4.252669215E-1
9.441480000E0,4.018271565E-1,-2.481858134E-1,1.267109066E-2
9.461480000E0,7.538077235E-2,-2.924822867E-1,-2.676985860E-1
9.481480000E0,-2.050238252E-1,-1.965938807E-1,-3.549301624E-1
9.501480000E0,-2.796191871E-1,-7.836528122E-3,-2.834589183E-1
9.521480000E0,-1.288227588E-1,1.628043056E-1,2.155481651E-2
9.541480000E0,5.569345504E-2,4.527384043E-2,5.122366548E-1
9.561480000E0,2.145707756E-1,-9.927432984E-2,8.966454268E-1
9.581481562E0,4.317595363E-1,2.715732343E-2,9.935810566E-1
9.603480000E0,5.338613391E-1,8.962265402E-2,9.664411545E-1
9.623480000E0,5.621705651E-1,2.625498772E-1,8.234637976E-1
9.643480000E0,4.922875762E-1,3.180513382E-1,7.452381253E-1
9.663480000E0,3.688927889E-1,3.708999157E-1,6.930527687E-1
9.683480000E0,4.319515228E-1,3.752108812E-1,6.946410537E-1
9.703480000E0,5.440191031E-1,2.773153782E-1,7.922747731E-1
9.723480000E0,3.539527655E-1,1.595579982E-1,7.901629210E-1
9.743480000E0,9.224065393E-2,3.275983036E-2,2.832145691E-1
9.763480000E0,2.314655632E-1,5.284857005E-2,-3.662573397E-1
9.783486250E0,7.295126915E-1,7.562511414E-2,-7.996923923E-1
9.805481562E0,9.532814026E-1,-2.898991853E-2,-9.252688289E-1
9.827480000E0,8.956854939E-1,-3.080855310E-1,-6.720564961E-1
9.847481562E0,7.691317201E-1,-5.295677781E-1,-3.451214135E-1
9.869480000E0,4.280943573E-1,-6.264684796E-1,-1.790184230E-1
9.889480000E0,1.400801241E-1,-5.426926613E-1,-3.473205259E-3
9.909480000E0,-1.114916354E-1,-3.659082651E-1,7.340855151E-2
9.929480000E0,-4.844684899E-1,-8.236208558E-2,-2.967059799E-2
9.949480000E0,-7.878765464E-1,-2.100154608E-1,-2.919586897E-1
9.969480000E0,-8.618959188E-1,-6.638360023E-1,-4.131194353E-1
9.989481562E0,-8.052425385E-1,-9.318836331E-1,-4.043055177E-1
1.001148000E1,-5.981767178E-1,-1.144412398E0,-3.336022198E-1
1.003148000E1,-3.563613296E-1,-1.042380452E0,-2.568775713E-1
1.005148000E1,-1.874658167E-1,-8.361523151E-1,-2.420946211E-1
1.007148000E1,-6.735225767E-2,-6.718470454E-1,-3.048217595E-1
1.009149875E1,6.330309063E-2,-5.952096581E-1,-5.689598918E-1
1.011348000E1,2.326000333E-1,-3.430444598E-1,-8.959996700E-1
1.013348000E1,2.285159528E-1,2.912954427E-2,-1.110465765E0
1.015348000E1,4.801400751E-2,5.263040066E-1,-1.205149889E0
1.017348000E1,-2.635447085E-1,8.582133055E-1,-1.270966172E0
1.019348000E1,-5.202826262E-1,8.956506252E-1,-1.367238522E0
1.021348000E1,-6.177767515E-1,7.706850171E-1,-1.545366883E0
1.023348000E1,-6.149667501E-1,5.138598084E-1,-1.743880630E0
1.025348000E1,-4.328416586E-1,4.896521270E-1,-1.642895818E0
1.027348000E1,-7.668976486E-2,6.281788945E-1,-1.171761751E0
1.029348000E1,3.352777362E-1,7.657632232E-1,-4.475547671E-1
1.031348000E1,7.295126915E-1,9.026144743E-1,1.023635566E-1
1.033348000E1,9.227032065E-1,7.640876770E-1,2.371204346E-1
1.035348000E1,8.537801504E-1,3.437949419E-1,1.469043642E-1
1.037348000E1,6.984807849E-1,-2.804744057E-2,-8.845328540E-2
1.039348000E1,4.852189720E-1,-2.276432961E-1,-3.246137798E-1
1.041348000E1,1.976934373E-1,-2.280796319E-1,-5.114338398E-1
1.043348000E1,-1.268505305E-1,-1.373225003E-1,-6.147049665E-1
1.045348000E1,-3.726976216E-1,-7.881906629E-2,-5.866400599E-1
1.047348000E1,-4.530525804E-1,7.888888009E-3,-4.258603454E-1
1.049348000E1,-4.534365237E-1,1.671327353E-1,-1.713215262E-1
1.051348000E1,-5.000717640E-1,1.495921761E-1,1.241801754E-1
1.053348000E1,-4.526336789E-1,1.583013684E-2,5.178042650E-1
1.055348000E1,-2.272418737E-1,6.352998316E-3,8.477936983E-1
1.057348000E1,1.171115935E-1,1.537984163E-1,1.033933043E0
1.059348000E1,3.409500718E-1,2.347991467E-1,1.081563115E0
1.061348000E1,4.006403387E-1,4.455651045E-1,1.060601711E0
1.063348000E1,3.959628344E-1,3.904825151E-1,9.957975745E-1
1.065348000E1,2.369284481E-1,-6.138322875E-2,7.395657897E-1
1.067348000E1,3.726626933E-1,-3.285582364E-1,4.923399389E-1
1.069348000E1,7.992560863E-1,-1.563815027E-1,4.619013965E-1
1.071348000E1,1.135162115E0,1.539554894E-1,5.324301124E-1
1.073348000E1,1.076972842E0,2.054427117E-1,4.602084160E-1
1.075348000E1,7.188662291E-1,4.014257342E-2,3.200933933E-1
1.077348000E1,3.610213399E-1,1.565560326E-2,2.369982600E-1
1.079348000E1,1.424886733E-1,2.012015581E-1,2.576804161E-1
1.081348000E1,3.103195317E-2,5.432686210E-1,3.579146564E-1
1.083348156E1,-4.667010531E-2,7.489905953E-1,3.799407184E-1
1.085548313E1,-6.330309063E-2,6.307271123E-1,3.558900952E-1
1.087748156E1,-3.054326214E-2,3.030066192E-1,4.473627806E-1
1.089748156E1,3.686135262E-2,-1.279326342E-2,6.004805565E-1
1.091949406E1,9.133307636E-2,-2.930931449E-1,7.863581181E-1
1.094148156E1,-2.338741161E-2,-6.202027202E-1,8.592604995E-1
1.096348156E1,-1.539729387E-1,-8.418595791E-1,6.965609193E-1
1.098348469E1,-1.485624313E-1,-8.500102758E-1,5.166348815E-1
1.100548313E1,-5.719443783E-2,-5.518730879E-1,4.486019611E-1
1.102748156E1,-8.004079759E-2,-2.011317462E-1,4.246560633E-1
1.104748156E1,-2.726728022E-1,-2.450442314E-2,2.173458487E-1
1.106748156E1,-5.463404059E-1,8.532914519E-2,8.482299745E-3
1.108748156E1,-7.808253765E-1,2.053030729E-1,-4.356341809E-2
1.110748156E1,-8.461356163E-1,3.316649199E-1,7.155850180E-4
1.112948156E1,-7.624121904E-1,3.135833144E-1,-3.316125646E-2
1.115148156E1,-5.359731317E-1,1.663822383E-1,-2.563016117E-1
1.117348156E1,-1.434835196E-1,1.128704399E-1,-5.319240093E-1
1.119548156E1,1.203229949E-1,1.743234843E-1,-5.271068811E-1
1.121548312E1,2.127032727E-1,2.524444163E-1,-2.609441876E-1
1.123748156E1,1.631359309E-1,2.866703272E-1,7.063347101E-2
1.125948156E1,1.586329788E-1,2.605951130E-1,2.057045102E-1
1.128148000E1,3.341956437E-1,1.113869101E-1,1.781632155E-1
1.130148000E1,4.190535545E-1,3.914773464E-2,6.614797562E-2
1.132148000E1,3.815638721E-1,-1.532399096E-2,-8.433430642E-2
1.134148000E1,2.184628546E-1,-1.047721133E-1,-3.222226799E-1
1.136148156E1,-4.120722413E-2,-1.339191198E-1,-4.718148410E-1
1.138348000E1,-3.770783842E-1,-1.207593307E-1,-6.081774235E-1
1.140348156E1,-4.891285300E-1,-9.330530465E-2,-6.009866595E-1
1.142548156E1,-3.969925940E-1,-1.384918690E-1,-4.247607887E-1
1.144548156E1,-1.875356287E-1,-1.651954204E-1,-1.512502283E-1
1.146548156E1,-6.126105785E-3,-1.280722618E-1,7.770206034E-2
1.148548156E1,1.192758009E-1,5.927138031E-2,2.186199427E-1
1.150548313E1,1.135685742E-1,2.302961946E-1,2.597922683E-1
1.152748156E1,-9.470156580E-2,2.410648763E-1,3.496767282E-1
1.154948156E1,-3.214896619E-1,2.485523373E-1,3.510031700E-1
1.157148156E1,-2.891661525E-1,2.398780584E-1,3.096039593E-1
1.159148156E1,7.396705449E-2,4.776093364E-1,2.228785455E-1
1.161348156E1,3.023608327E-1,7.734252214E-1,3.210183978E-1
1.163548156E1,8.618436009E-2,7.665311694E-1,4.232423306E-1
1.165548156E1,5.304055661E-2,6.126629114E-1,6.656685472E-2
1.167548156E1,2.363001257E-1,4.585852623E-1,-2.246413231E-1
1.169548156E1,3.607944548E-1,3.778463304E-1,-2.022313029E-1
1.171548312E1,4.569970071E-1,2.804744244E-1,-2.893755957E-2
1.173748156E1,4.690746963E-1,-1.842194945E-1,1.518785506E-1
1.175748156E1,2.623578906E-1,-7.455697656E-1,1.686337143E-1
1.177748156E1,-4.335397854E-2,-7.900581956E-1,1.023984700E-1
1.179948000E1,-3.312809467E-1,-4.744677544E-1,1.360309571E-1
1.181948000E1,-3.803246915E-1,-3.524168730E-1,1.040390730E-1
1.183948156E1,-2.378883809E-1,-3.870791197E-1,1.972221956E-2
1.186148156E1,-1.957037747E-1,-3.420321643E-1,-2.019345947E-2
1.188348000E1,-1.651605070E-1,-7.763224840E-2,7.447320223E-2
1.190348000E1,-4.270820692E-2,6.174974889E-2,1.869945824E-1
1.192348000E1,8.934340626E-2,6.436774135E-2,1.523672491E-1
1.194348000E1,1.748296320E-1,-5.239478499E-2,-1.839577034E-2
1.196348156E1,1.713215262E-1,-2.368237227E-1,-2.223549485E-1
1.198548156E1,2.061582953E-1,-5.683664680E-1,-4.410796165E-1
1.200548313E1,1.609717160E-1,-7.670198679E-1,-5.844060183E-1
1.202748156E1,-7.216936350E-2,-6.648308039E-1,-7.314325571E-1
1.204948156E1,-4.168718755E-1,-2.558303475E-1,-7.764446139E-1
1.207148000E1,-6.691592336E-1,4.278325438E-1,-7.161958814E-1
1.209148156E1,-8.716174364E-1,9.839642644E-1,-5.284158587E-1
1.211348156E1,-1.171430111E0,1.043514848E0,-3.482106328E-1
1.213548312E1,-1.180662870E0,5.938657522E-1,-3.712140918E-1
1.215748156E1,-6.876597404E-1,3.279124498E-1,-3.891735077E-1
1.217748156E1,-6.555456668E-2,4.834910929E-1,-6.562437862E-2
1.219948156E1,4.432612658E-1,5.382071733E-1,5.325174332E-1
1.222148156E1,7.875274420E-1,4.906818569E-1,9.373115897E-1
1.224348156E1,1.115055919E0,5.015727282E-1,9.596518278E-1
1.226348156E1,1.192670703E0,5.078384280E-1,7.840018868E-1
1.228548312E1,9.459161162E-1,3.640931249E-1,4.426678419E-1
1.230748156E1,4.052829146E-1,-1.623156248E-3,3.975860029E-2
1.232748156E1,-1.411098689E-1,-4.503822029E-1,-4.474675059E-1
1.234748156E1,-5.992937088E-1,-8.844979405E-1,-8.663465381E-1
1.236748156E1,-7.377681136E-1,-1.061282396E0,-1.100098491E0
1.238748313E1,-7.287447453E-1,-7.111867666E-1,-9.899856448E-1
1.240948156E1,-7.212049365E-1,-2.377662063E-1,-5.875825286E-1
1.243148156E1,-6.458590627E-1,3.897320107E-2,-1.023461074E-1
1.245348000E1,-3.726976216E-1,2.087588310E-1,2.034530342E-1
1.247348000E1,-1.749343574E-1,1.948311031E-1,3.680375814E-1
1.249348000E1,-6.042329967E-2,1.595056355E-1,4.441339374E-1
1.251348000E1,-5.405284837E-2,1.930334233E-2,4.945914149E-1
1.253348156E1,-2.405063622E-2,-1.654572040E-2,5.146277547E-1
1.255548156E1,2.004510611E-1,3.104068041E-1,5.809677243E-1
1.257548156E1,2.508561611E-1,4.678878784E-1,5.638635159E-1
1.259548156E1,1.378460974E-1,5.354670286E-1,2.254267186E-1
1.261548156E1,3.053278923E-1,3.858574033E-1,5.218534265E-3
1.263548312E1,5.544736385E-1,-1.429424621E-2,-5.089380220E-2
1.265748000E1,6.045994759E-1,-6.403263807E-1,-1.446005255E-1
1.267748156E1,5.877047181E-1,-1.067513227E0,-2.269102484E-1
1.269948156E1,5.511226058E-1,-1.273130417E0,-1.406560838E-1
1.272148156E1,4.221777022E-1,-8.171457052E-1,-2.532472648E-2
1.274348156E1,3.561344445E-1,-9.662142396E-2,1.892635077E-1
1.276548000E1,2.649584413E-1,2.089682668E-1,3.875154555E-1
1.278548312E1,1.133067757E-1,-2.940879762E-2,2.661452591E-1
1.280748156E1,6.014404446E-2,-5.141216516E-1,6.134832278E-2
1.282948156E1,1.172861233E-1,-8.099026084E-1,7.826056331E-2
1.284948156E1,1.837657094E-1,-7.924667597E-1,1.617745608E-1
1.287148000E1,1.708502769E-1,-6.676756740E-1,2.114815414E-1
1.289148000E1,1.321912408E-1,-6.531720161E-1,1.351408362E-1
1.291148156E1,1.252273768E-1,-7.334222794E-1,-4.790928960E-2
1.293148156E1,2.417630106E-1,-9.544856548E-1,-2.778215110E-1
1.295348000E1,6.070429683E-1,-1.147763371E0,-4.640830457E-1
1.297348156E1,8.262388706E-1,-1.080271482E0,-5.528504848E-1
1.299548313E1,6.159092188E-1,-7.289367318E-1,-6.822666526E-1
1.301748156E1,4.344124347E-2,-1.960528344E-1,-9.230348468E-1
1.303948000E1,-6.793868542E-1,1.994911283E-1,-1.271193147E0
1.305948000E1,-1.167607784E0,4.538554251E-1,-1.552522779E0
1.307948000E1,-1.361391664E0,7.037516832E-1,-1.633820176E0
1.309948156E1,-1.191745758E0,1.037790179E0,-1.397938967E0
1.311948156E1,-7.542265654E-1,1.329713941E0,-8.287695646E-1
1.314148000E1,1.679006778E-2,1.359018087E0,-1.676039696E-1
1.316148000E1,7.562336922E-1,9.826727509E-1,2.050587386E-1
1.318148000E1,1.232970357E0,5.504593849E-1,3.044552207E-1
1.320148000E1,1.295610309E0,5.533566475E-1,1.263792962E-1
1.322148156E1,9.123883247E-1,7.005751729E-1,-4.717101455E-1
1.324348000E1,1.707630157E-1,8.772373796E-1,-1.016148090E0
1.326348000E1,-6.533814669E-1,7.708421350E-1,-1.246636271E0
1.328348000E1,-1.250231743E0,7.256380916E-1,-1.403419256E0
1.330348000E1,-1.293812513E0,5.085016489E-1,-1.255729437E0
1.332348156E1,-1.085943818E0,9.314822406E-2,-6.342700720E-1
1.334548313E1,-7.673165202E-1,-3.827332556E-1,4.064871669E-1
1.336548312E1,-4.513944983E-1,-6.472029686E-1,1.027196050E0
1.338748469E1,-2.211506665E-1,-8.232368827E-1,1.058646917E0
1.340948156E1,-1.760339141E-1,-7.339109182E-1,8.192400932E-1
1.342949875E1,-5.470560193E-1,-3.342131078E-1,6.461383104E-1
1.345148000E1,-8.980591893E-1,4.141491652E-1,4.880987704E-1
1.347148000E1,-7.446447015E-1,9.578017592E-1,6.643072367E-1
1.349148000E1,-4.166100919E-1,1.048052788E0,1.060322404E0
1.351148156E1,-3.298497796E-1,7.505264878E-1,9.456542730E-1
1.353348156E1,-4.575380683E-1,2.584832609E-1,1.065523475E-1
1.355548156E1,-2.396686077E-1,5.890486389E-2,-4.688128829E-1
1.357548156E1,2.415884733E-1,3.149970174E-1,-3.306700885E-1
1.359548156E1,5.255884528E-1,3.185575008E-1,2.186897546E-1
1.361548156E1,5.776166916E-1,2.457423508E-2,8.148244023E-1
1.363548312E1,5.800252557E-1,-5.151339173E-1,1.125353336E0
1.365748000E1,4.957607687E-1,-1.170801759E0,9.660223126E-1
1.367748156E1,3.576354086E-1,-1.484821439E0,6.605373025E-1
1.369948000E1,9.311331809E-2,-1.497213244E0,4.262268543E-1
1.371948000E1,-5.414011329E-2,-1.337515593E0,3.958930373E-1
1.373948000E1,4.220206290E-2,-1.025904536E0,4.687256217E-1
1.375948156E1,2.798984647E-1,-6.620382667E-1,4.980646074E-1
1.378148000E1,5.073497295E-1,-4.241499007E-1,3.915646076E-1
1.380148000E1,6.541668773E-1,-2.912954390E-1,2.265961021E-1
1.382148000E1,6.908013225E-1,-1.456826329E-1,2.600540593E-2
1.384148156E1,5.886995792E-1,-3.998549283E-2,-2.706482112E-1
1.386148156E1,3.962071836E-1,-5.253440887E-2,-6.192079186E-1
1.388348000E1,2.484476119E-1,-1.185776666E-1,-7.963588238E-1
1.390348000E1,4.347615317E-2,-1.514945775E-1,-7.480829954E-1
1.392348000E1,-1.765924096E-1,-7.237880677E-2,-7.109598517E-1
1.394348000E1,-2.868448496E-1,2.205398083E-1,-6.167993546E-1
1.396348156E1,-4.808382094E-1,4.852539003E-1,-4.018969536E-1
1.398548156E1,-8.798553944E-1,3.753330410E-1,-2.250602096E-1
1.400548313E1,-1.325472832E0,-4.769810438E-1,-6.063972116E-1
1.402748156E1,-1.036743045E0,-7.112914920E-1,-9.134529829E-1
1.404948156E1,-1.283166111E-1,5.002462864E-1,-3.250675797E-1
1.407148000E1,8.966978192E-1,1.108929873E0,7.541742325E-1
1.409148156E1,1.671903253E0,7.960795760E-1,1.207366467E0
1.411348156E1,1.974072099E0,-3.534291685E-2,1.012901783E0
1.413548312E1,1.810604572E0,-7.316594720E-1,4.730191231E-1
1.415748000E1,1.345683813E0,-9.187412858E-1,-8.454374969E-2
1.417748156E1,6.916739941E-1,-7.728492618E-1,-5.300216079E-1
1.419948156E1,-2.042733282E-1,-2.315004766E-1,-8.884598613E-1
1.422148156E1,-8.408472538E-1,4.312185049E-1,-1.054789782E0
1.424348000E1,-1.161115170E0,7.067361474E-1,-1.047965527E0
1.426348000E1,-1.295313597E0,7.636164427E-1,-9.663888216E-1
1.428348000E1,-1.259778619E0,6.758787632E-1,-5.818055272E-1
1.430348000E1,-1.068124056E0,5.066865087E-1,-4.644321278E-2
1.432348000E1,-8.636237979E-1,2.566157579E-1,4.165402651E-1
1.434348000E1,-6.055768728E-1,2.766346931E-2,7.141887546E-1
1.436348000E1,-2.972121239E-1,2.668783069E-1,8.662068844E-1
1.438348000E1,-1.967160553E-1,6.360154152E-1,8.778657317E-1
1.440348000E1,-3.179989755E-1,9.176068306E-1,9.085660577E-1
1.442348000E1,-4.920955896E-1,1.105491519E0,9.267523885E-1
1.444548156E1,-6.255783439E-1,9.279915690E-1,9.520945549E-1
1.446548156E1,-6.889512539E-1,7.703534365E-1,7.300537825E-1
1.448548156E1,-4.324402213E-1,5.219581723E-1,2.588672340E-1
1.450548469E1,1.901187152E-1,1.190489084E-1,-7.227408141E-2
1.452748000E1,7.589564323E-1,-2.867575921E-2,5.695009232E-2
1.454748000E1,9.624966979E-1,-1.930683255E-1,3.352603018E-1
1.456748000E1,9.305222631E-1,-6.061004996E-1,4.268202782E-1
1.458748156E1,7.274357677E-1,-6.813241839E-1,2.934945524E-1
1.460948000E1,6.876248121E-1,-4.934394956E-1,2.150594741E-1
1.462948000E1,7.297046781E-1,-2.567379177E-1,2.334203273E-1
1.464948000E1,5.026199222E-1,-1.335351467E-1,1.728225052E-1
1.466948000E1,-3.909537569E-3,-1.872389168E-1,-1.233249679E-1
1.468948000E1,-3.940778971E-1,-4.807858467E-1,-4.160166681E-1
1.470948000E1,-2.441366613E-1,-8.614072204E-1,-4.770683050E-1
1.472948000E1,1.764702350E-1,-1.066500902E0,-2.591988444E-1
1.474948000E1,3.870442212E-1,-8.319984674E-1,1.168672442E-1
1.476948156E1,-2.223723978E-1,-3.844436705E-1,2.078163475E-1
1.479148000E1,-1.109348774E0,-2.565633953E-1,-2.332458049E-1
1.481148000E1,-1.274125218E0,-2.549577057E-1,-5.497786999E-1
1.483148000E1,-7.973187566E-1,3.343876302E-1,-4.887794554E-1
1.485148000E1,-2.029817924E-2,9.395456314E-1,-2.086017579E-1
1.487148000E1,6.353871226E-1,9.408197403E-1,-3.666936606E-2
1.489148000E1,7.743676901E-1,5.975832939E-1,-1.696809083E-1
1.491148000E1,2.748195529E-1,1.679355800E-1,-4.568050206E-1
1.493148000E1,-5.936039090E-1,-3.382448107E-2,-9.228253961E-1
1.495148000E1,-1.342385054E0,2.654122114E-1,-1.289082766E0
1.497148000E1,-1.562645674E0,1.092523694E0,-1.217943072E0
1.499148469E1,-1.051019788E0,1.630294561E0,-5.462182164E-1
1.501348000E1,-2.019520402E-1,1.530130148E0,6.655987501E-1
1.503348000E1,7.175921202E-1,7.078357339E-1,1.605406165E0
1.505348000E1,1.365528107E0,-3.167597950E-1,1.972134829E0
1.507348000E1,1.513689160E0,-1.130537033E0,1.557898283E0
1.509348000E1,1.180732727E0,-1.385808825E0,8.535532951E-1
1.511348000E1,6.642723083E-1,-1.169737101E0,1.835388243E-1
1.513348000E1,2.853089571E-1,-8.366584778E-1,-2.322509587E-1
1.515348000E1,1.072330326E-1,-3.293785453E-1,-3.922278285E-1
1.517348000E1,-5.061454722E-4,4.131194204E-2,-2.979102433E-1
1.519348156E1,-1.506219208E-1,1.995784044E-1,-5.445427261E-3
1.521548312E1,-3.290992677E-1,2.378185689E-1,2.882760167E-1
1.523748000E1,-3.637440801E-1,1.682846397E-1,4.319340885E-1
1.525748000E1,-3.197268546E-1,2.444159091E-1,4.658283889E-1
1.527748000E1,-1.832944751E-1,5.045223236E-1,4.750262499E-1
1.529748000E1,-3.092723340E-2,6.631901860E-1,5.456597209E-1
1.531748000E1,-2.836159989E-2,5.653644800E-1,6.349333525E-1
1.533748000E1,-4.747295752E-3,4.071853161E-1,6.504492760E-1
1.535748000E1,1.380031854E-1,4.765621424E-1,7.325670719E-1
1.537748000E1,1.195725054E-1,5.542293191E-1,7.801446915E-1
1.539748156E1,-1.940107942E-1,6.224018335E-1,6.406056285E-1
1.541949406E1,-3.935717344E-1,4.736998081E-1,2.784498334E-1
1.544148000E1,-2.879793290E-3,1.208116934E-1,-2.029817924E-2
1.546148000E1,4.059286714E-1,-8.056439459E-2,9.628981352E-2
1.548148000E1,5.406157374E-1,-3.031636775E-1,3.259925842E-1
1.550148000E1,4.727922380E-1,-5.207364559E-1,3.102148175E-1
1.552148156E1,2.563539743E-1,-6.435901523E-1,1.393121779E-1
1.554348156E1,-6.841690838E-2,-6.081774235E-1,-7.091272622E-2
1.556548156E1,-3.922801912E-1,-2.428625673E-1,-2.227912843E-1
1.558548156E1,-6.912027597E-1,1.221730486E-1,-2.278876454E-1
1.560548156E1,-8.352447748E-1,1.395565271E-1,-2.393195480E-1
1.562748313E1,-7.486066222E-1,-1.726479679E-1,-2.797413766E-1
1.564948000E1,-4.115660787E-1,-4.860742092E-1,-2.331410795E-1
1.566948000E1,-3.735004738E-2,-6.230476499E-1,-5.918411538E-2
1.568948000E1,1.901187152E-1,-5.706353784E-1,1.491034776E-1
1.570948000E1,2.011142820E-1,-4.879242480E-1,2.158099562E-1
1.572948000E1,5.483824387E-2,-5.380151868E-1,4.544837400E-2
1.574948000E1,-1.509535313E-1,-6.871885061E-1,-2.346769720E-1
1.576948000E1,-2.486570626E-1,-6.502572894E-1,-4.531922042E-1
1.578948000E1,-2.513274252E-1,-4.066442549E-1,-4.720591903E-1
1.580948000E1,-2.942624986E-1,-5.040510744E-2,-4.617443085E-1
1.582948000E1,-2.301042080E-1,4.156326950E-1,-4.202578366E-1
1.584948156E1,-1.908866614E-1,6.993708611E-1,-3.547556102E-1
1.587148156E1,-3.164456487E-1,6.142686009E-1,-3.631855547E-1
1.589348156E1,-5.448569059E-1,2.321985960E-1,-6.399424076E-1
1.591548156E1,-4.877497256E-1,1.288925707E-1,-8.189433813E-1
1.593548156E1,-8.349654824E-2,3.902381659E-1,-5.808281302E-1
1.595548156E1,4.216366410E-1,6.782873273E-1,3.630284965E-2
1.597748000E1,8.093440533E-1,7.434229851E-1,6.851289868E-1
1.599748156E1,8.907637000E-1,5.826781392E-1,8.569043279E-1
1.601748156E1,9.194743633E-1,3.860493898E-1,7.776139975E-1
1.603748156E1,1.022605896E0,1.552993953E-1,5.913175344E-1
1.605948000E1,9.554805160E-1,-1.427679360E-1,3.369183540E-1
1.607948000E1,6.086661220E-1,-4.290542901E-1,8.819148690E-2
1.609948000E1,2.325651199E-1,-5.521697998E-1,-5.061454698E-2
1.611948000E1,-2.415535599E-2,-5.442809463E-1,-8.504989743E-2
1.613948000E1,1.605702937E-2,-4.564385116E-1,-2.038544603E-2
1.615948000E1,1.387711316E-1,-4.663868845E-1,1.474628747E-1
1.617948000E1,2.250427604E-1,-5.121493936E-1,3.562042415E-1
1.619948000E1,7.082545757E-2,-3.876027167E-1,5.337566137E-1
1.621948000E1,-1.591391265E-1,-3.036523759E-1,6.408150792E-1
1.623948000E1,-2.670179307E-1,-2.530552745E-1,5.618913174E-1
1.625948000E1,-2.867052257E-1,-2.480287403E-1,3.650530577E-1
1.627948000E1,-3.412118554E-2,-2.157401443E-1,1.273566782E-1
1.629948000E1,4.607145488E-1,-1.427853853E-1,1.387536712E-2
1.631948000E1,6.726324558E-1,1.578824818E-1,1.207244247E-1
1.633948000E1,3.624874353E-1,1.477421224E-1,3.009820282E-1
1.635948000E1,-2.391450107E-1,2.555336654E-1,-1.722814441E-1
1.637948000E1,-5.067912340E-1,1.503077596E-1,-6.758962274E-1
1.639948000E1,-3.536036909E-1,-1.328195482E-1,-7.565827966E-1
1.641949406E1,-1.366069168E-1,-4.214097559E-1,-5.078384280E-1
1.644148000E1,6.333799660E-2,-5.149943233E-1,-1.678308547E-1
1.646148000E1,1.391900033E-1,-5.036845803E-1,2.530727303E-3
1.648148000E1,1.919862116E-3,-4.721639156E-1,1.518436428E-2
1.650148000E1,-2.178345472E-1,-1.545663625E-1,-5.974261835E-2
1.652148000E1,-4.565432370E-1,1.510407925E-1,-9.887290001E-2
1.654148000E1,-6.709220409E-1,3.364645839E-1,-1.090481728E-1
1.656148000E1,-8.874475360E-1,1.143016145E-1,-6.653194875E-2
1.658148000E1,-9.642071128E-1,-1.126784533E-1,-5.324999616E-2
1.660148000E1,-7.180982828E-1,4.913101718E-2,-1.184554994E-1
1.662148000E1,-3.146828711E-1,2.523396909E-1,-8.714429289E-2
1.664148000E1,1.118930578E-1,2.948733866E-1,9.108873457E-2
1.666148000E1,4.087386429E-1,1.954594254E-1,1.921083927E-1
1.668148000E1,5.339660048E-1,-3.313856721E-1,6.248278543E-2
1.670148000E1,6.196093559E-1,-5.712637305E-1,-1.061334684E-1
1.672148156E1,6.135705113E-1,-5.274559259E-1,-1.774999797E-1
1.674348000E1,5.428671837E-1,-2.999173701E-1,-2.365095615E-1
1.676348000E1,3.152588308E-1,1.093623340E-1,-2.665466964E-1
1.678348000E1,2.415535599E-2,5.771454573E-1,-2.335425019E-1
1.680348000E1,-3.252421021E-1,7.852061987E-1,-3.557853699E-1
1.682348000E1,-5.765694976E-1,7.774045467E-1,-6.468888521E-1
1.684348000E1,-6.542716026E-1,6.259797812E-1,-7.350454330E-1
1.686348000E1,-6.452656984E-1,4.157897830E-1,-6.206390858E-1
1.688348000E1,-5.827130675E-1,1.788438857E-1,-3.101450205E-1
1.690348000E1,-3.628714085E-1,1.072155759E-1,2.261248529E-1
1.692348000E1,5.284857005E-2,2.944894135E-1,7.974758148E-1
1.694348000E1,4.679227769E-1,5.505990386E-1,1.096747398E0
1.696348000E1,6.429618597E-1,5.584878922E-1,9.650099874E-1
1.698348000E1,7.148345113E-1,3.460464180E-1,5.947907567E-1
1.700348000E1,5.554859638E-1,9.450957924E-2,2.946464717E-1
1.702348000E1,1.483529806E-1,-1.085943878E-1,1.027824357E-1
1.704348000E1,-2.712067068E-1,-2.563539743E-1,-8.218755573E-2
1.706348000E1,-4.760909081E-1,-3.071779609E-1,-1.649859697E-1
1.708348000E1,-5.164254904E-1,-2.971422970E-1,-6.829473376E-2
1.710348000E1,-4.680624008E-1,-3.167248964E-1,1.248259470E-1
1.712348000E1,-2.685538232E-1,-4.565432370E-1,3.126059175E-1
1.714348000E1,-1.139350906E-1,-5.287125707E-1,4.579045773E-1
1.716348000E1,-5.794493109E-2,-5.232846141E-1,5.925741792E-1
1.718348000E1,1.094670519E-1,-1.770461947E-1,7.463900447E-1
1.720348000E1,2.757445574E-1,3.244217932E-1,8.417723179E-1
1.722348000E1,3.743731380E-1,5.829225183E-1,7.316420078E-1
1.724548156E1,5.107356906E-1,6.161884665E-1,6.385287046E-1
1.726548156E1,5.513495207E-1,4.679751396E-1,5.444380045E-1
1.728548156E1,5.881584883E-1,2.113768309E-1,1.973094642E-1
1.730548156E1,6.197489500E-1,3.246312216E-2,-1.096939445E-1
1.732748000E1,6.135530472E-1,-9.939649701E-2,-2.461786866E-1
1.734748000E1,5.039114356E-1,-2.897944748E-1,-3.776019812E-1
1.736748000E1,4.001167417E-1,-4.541172087E-1,-5.267229080E-1
1.738748625E1,2.629513144E-1,-3.842691481E-1,-5.348561406E-1
1.740948156E1,6.682865322E-2,-3.256784379E-2,-4.398753345E-1
1.743148000E1,-1.436580569E-1,3.089407384E-1,-2.415012121E-1
1.745148000E1,-3.065496385E-1,5.096535683E-1,-1.935919225E-1
1.747148000E1,-3.722263575E-1,3.996804059E-1,-2.110452056E-1
1.749148000E1,-3.338291347E-1,2.434734255E-2,-1.823170930E-1
1.751148000E1,-2.547831535E-1,-3.118030727E-1,-3.136356547E-2
1.753148000E1,-1.947962046E-1,-4.384790659E-1,2.183755934E-1
1.755148000E1,-2.100329250E-1,-4.032932222E-1,3.529404700E-1
1.757148000E1,-1.399405003E-1,-2.058266848E-1,3.174404800E-1
1.759148156E1,-1.572541706E-2,-6.562437862E-2,1.648987085E-1
1.761348000E1,-8.045967668E-3,-1.834515631E-1,8.189085126E-2
1.763348000E1,-1.047546640E-1,-3.820351064E-1,5.167919770E-2
1.765348000E1,-2.766870558E-1,-5.233893394E-1,1.097986624E-1
1.767348000E1,-3.639011383E-1,-4.374667704E-1,9.916960448E-2
1.769348000E1,-3.510206044E-1,-3.228859045E-3,2.935643867E-2
1.771348000E1,-4.153360128E-1,4.398055077E-1,-1.209513191E-2
1.773348000E1,-6.409023404E-1,5.229704380E-1,-2.168397009E-1
1.775348000E1,-7.102791667E-1,3.285407722E-1,-5.732184649E-1
1.777348000E1,-5.429021120E-1,2.805616856E-1,-7.059158683E-1
1.779348000E1,-1.778315902E-1,6.424382329E-1,-4.721115530E-1
1.781348000E1,2.338392138E-1,9.461953640E-1,-2.930407785E-2
1.783348000E1,7.189010978E-1,1.083709836E0,4.588121474E-1
1.785348000E1,1.082959294E0,1.117691398E0,7.467390895E-1
1.787348000E1,1.300043344E0,1.000806689E0,7.580488324E-1
1.789348000E1,1.447541118E0,8.321205974E-1,5.401270390E-1
1.791348000E1,1.332960248E0,5.663593411E-1,2.821150124E-1
1.793348000E1,9.194743633E-1,6.263986975E-2,2.583087189E-3
1.795348000E1,3.396934271E-1,-5.009618402E-1,-2.243097126E-1
1.797348000E1,-3.333579004E-2,-9.824109077E-1,-4.091051817E-1
1.799348000E1,-1.069712266E-1,-1.108598232E0,-3.101624548E-1
1.801348000E1,-2.514321208E-1,-9.225286841E-1,1.321214251E-2
1.803348000E1,-6.845006943E-1,-3.677234054E-1,3.625921607E-1
1.805348000E1,-9.723054767E-1,2.115688175E-1,5.871636868E-1
1.807348000E1,-9.118472934E-1,4.742757678E-1,7.062823772E-1
1.809348000E1,-5.894849300E-1,6.304827332E-1,7.902152538E-1
1.811348000E1,-2.832145691E-1,6.297497153E-1,9.462302327E-1
1.813348000E1,-1.027998924E-1,2.413092256E-1,1.024839878E0
1.815348000E1,1.645670980E-1,-1.307600737E-1,8.497309685E-1
1.817348000E1,3.782477677E-1,4.525638744E-2,6.832789183E-1
1.819348000E1,3.621732593E-1,3.969576955E-1,5.125159621E-1
1.821348000E1,5.447172523E-1,4.626518786E-1,1.697332710E-1
1.823348000E1,6.775367856E-1,-3.349286690E-2,-2.468070090E-1
1.825348000E1,3.634473681E-1,-6.329960227E-1,-5.198463202E-1
1.827348000E1,-1.615825742E-1,-9.417447448E-1,-5.861338973E-1
1.829348000E1,-3.894178569E-1,-1.027265906E0,-4.207988679E-1
1.831348000E1,-4.278500080E-1,-9.605768323E-1,-1.982519478E-1
1.833348000E1,-3.479313850E-1,-4.669453800E-1,6.859143730E-3
1.835348000E1,-1.708502769E-1,1.315105557E-1,2.064724565E-1
1.837348000E1,1.005309634E-2,2.303660065E-1,3.231128156E-1
1.839348000E1,6.805038452E-2,1.022762898E-2,2.387261391E-1
1.841348000E1,-1.213003788E-2,-1.817236841E-1,2.230530791E-2
1.843348000E1,-1.844812930E-2,-3.487865925E-1,-1.311789453E-1
1.845348000E1,1.106015146E-1,-3.558726311E-1,-1.267632693E-1
1.847348000E1,1.445132643E-1,-3.034778535E-1,-1.504648328E-1
1.849348000E1,-9.000662714E-2,-2.069436908E-1,-2.564063072E-1
1.851348000E1,-4.947834015E-1,-2.980673313E-1,-3.206693530E-1
1.853348000E1,-7.047639489E-1,-5.283984542E-1,-4.144284427E-1
1.855348000E1,-8.498008251E-1,-7.439116836E-1,-5.362000465E-1
1.857348000E1,-6.116157174E-1,-4.404338300E-1,-4.920083284E-1
1.859348000E1,-2.950304449E-1,-3.621558100E-2,-3.777416050E-1
1.861348000E1,-1.648987085E-1,3.015754521E-1,-4.263839424E-1
1.863348000E1,-2.557256520E-1,6.054198146E-1,-4.791452289E-1
1.865348000E1,-6.952518821E-1,6.118426323E-1,-6.086486578E-1
1.867348469E1,-1.171081066E0,4.498935342E-1,-8.195717335E-1
1.869548156E1,-1.232481718E0,3.600265086E-1,-1.010458350E0
1.871548156E1,-7.227408290E-1,7.769507766E-1,-7.863929868E-1
1.873748000E1,2.178170905E-2,1.396682262E0,-7.920303941E-2
1.875748000E1,4.649731517E-1,1.297233462E0,5.094790459E-1
1.877748000E1,8.271115422E-1,9.945060611E-1,8.077907562E-1
1.879748000E1,1.267091632E0,7.286749482E-1,8.929976821E-1
1.881748000E1,1.468659639E0,5.136852860E-1,7.916115522E-1
1.883748000E1,1.195236325E0,3.456101120E-1,5.272465348E-1
1.885748000E1,5.949303508E-1,1.836086363E-1,1.388933063E-1
1.887748156E1,-1.091877967E-1,-2.979277074E-2,-2.921681106E-1
1.889948000E1,-6.128898263E-1,-4.620060921E-1,-6.743428707E-1
1.891949406E1,-6.839072704E-1,-7.006449699E-1,-7.661471963E-1
1.894148000E1,-6.267826557E-1,-6.701714993E-1,-6.400995255E-1
1.896148000E1,-5.640205741E-1,-4.727398753E-1,-3.674267232E-1
1.898148000E1,-5.874429345E-1,-1.332733482E-1,-8.550368249E-2
1.900148000E1,-5.998871326E-1,1.604132056E-1,1.336747706E-1
1.902148000E1,-5.118178129E-1,2.916794121E-1,3.496592641E-1
1.904148000E1,-3.014358282E-1,2.750813365E-1,5.109451413E-1
1.906148000E1,1.034980267E-2,8.190830052E-2,4.831594825E-1
1.908148000E1,2.358637899E-1,-1.876578033E-1,5.050633550E-1
1.910148000E1,3.960151970E-1,-2.422342449E-1,6.096783876E-1
1.912148000E1,6.026098132E-1,-5.906194076E-2,7.801098228E-1
1.914148000E1,5.871462226E-1,8.848819137E-2,5.679301620E-1
1.916148000E1,5.393416286E-1,3.482629955E-1,1.070410460E-1
1.918148000E1,5.019043088E-1,3.665191531E-1,-1.671850830E-1
1.920148000E1,4.084419608E-1,-6.773623079E-2,-2.764252424E-1
1.922148156E1,3.811973631E-1,-7.147297859E-1,-2.825164497E-1
1.924348000E1,4.180063605E-1,-1.159492016E0,-3.046646714E-1
1.926348000E1,3.140021861E-1,-1.127709627E0,-3.110700250E-1
1.928348000E1,1.149648353E-1,-5.753827095E-1,-2.834763825E-1
1.930348000E1,-1.463633180E-1,7.332128286E-2,-1.881814003E-1
1.932348000E1,-4.816236198E-1,5.717524290E-1,-1.942900568E-1
1.934348000E1,-8.068656921E-1,6.227160096E-1,-3.914075494E-1
1.936348000E1,-9.617811441E-1,3.641629517E-1,-5.479810238E-1
1.938348000E1,-8.571137190E-1,2.670353744E-3,-5.772676468E-1
1.940348000E1,-5.710717440E-1,-2.843839526E-1,-4.167846143E-1
1.942348000E1,-3.148922920E-1,-4.699299037E-1,-1.871865690E-1
1.944348000E1,-1.432042718E-1,-5.511051416E-1,-2.059488557E-3
1.946348000E1,-3.776892647E-2,-6.374640465E-1,1.247910410E-2
1.948348000E1,6.290166825E-2,-8.064642549E-1,-5.387831479E-2
1.950348000E1,2.240828276E-1,-9.076759219E-1,-1.403419226E-1
1.952348000E1,3.458195329E-1,-9.396328926E-1,-3.168645203E-1
1.954348000E1,2.352005690E-1,-8.554731011E-1,-6.039711833E-1
1.956348000E1,-1.183333248E-2,-3.561169803E-1,-7.667754889E-1
1.958348000E1,-2.691646814E-1,2.658834457E-1,-7.753276229E-1
1.960348000E1,-4.206767082E-1,5.755921602E-1,-8.430114985E-1
1.962348000E1,-4.441688359E-1,5.458517075E-1,-9.346936345E-1
1.964348312E1,-3.840771616E-1,4.943994284E-1,-9.311854839E-1
1.966548156E1,-2.460565120E-1,6.276378632E-1,-7.117801905E-1
1.968548156E1,-3.462733328E-2,7.957305312E-1,-3.238109350E-1
1.970548312E1,2.267182618E-1,9.319883585E-1,1.670280099E-1
1.972748000E1,5.087809563E-1,8.918283582E-1,6.290166378E-1
1.974748000E1,7.325496078E-1,7.729713917E-1,8.867843151E-1
1.976748000E1,9.357931614E-1,6.727720499E-1,9.375385046E-1
1.978748156E1,1.004070520E0,5.064421892E-1,7.842288017E-1
1.980948000E1,8.402189612E-1,2.427927554E-1,4.569970071E-1
1.982948000E1,4.326496720E-1,-4.337143153E-2,1.328544617E-1
1.984948156E1,-1.879719645E-2,-1.914800704E-1,-1.145634130E-1
1.987148156E1,-2.180963457E-1,-2.300867587E-1,-3.023259342E-1
1.989348000E1,-2.198242247E-1,-2.196322381E-1,-3.290120065E-1
1.991348000E1,-2.781705856E-1,-1.757721156E-1,-1.701346934E-1
1.993348000E1,-4.830373228E-1,-7.827802002E-2,-5.900958180E-2
1.995348000E1,-5.779134035E-1,9.133307636E-2,9.424777701E-3
1.997348000E1,-4.390550256E-1,3.761708140E-1,1.424712241E-1
1.999348000E1,-2.807536721E-1,5.235463977E-1,3.270747066E-1
2.001348000E1,-1.243197992E-1,3.927863538E-1,5.339660048E-1
2.003348000E1,-5.434955284E-2,2.030865103E-1,6.919357777E-1
2.005348000E1,-7.648032904E-2,5.518731102E-2,8.007395864E-1
2.007348000E1,-2.914525270E-1,-2.948559225E-1,7.762700915E-1
2.009348000E1,-5.725901723E-1,-8.001462221E-1,4.541346729E-1
2.011348000E1,-4.356690943E-1,-8.094662428E-1,6.627015024E-2
2.013348000E1,1.277930140E-1,-2.786592543E-1,9.894271195E-2
2.015348000E1,7.347137928E-1,2.336821258E-1,3.775496185E-1
2.017348000E1,8.267450333E-1,9.539970011E-2,4.062777460E-1
2.019348000E1,5.009618402E-1,-4.990420043E-1,2.292140871E-1
2.021348000E1,2.616423070E-1,-9.158615470E-1,8.370599151E-2
2.023348000E1,2.382898033E-1,-7.812966108E-1,5.075417459E-2
2.025348000E1,1.501332223E-1,-4.282514453E-1,1.511804163E-1
2.027348000E1,-2.147278637E-1,-7.798130810E-2,1.603783071E-1
2.029348000E1,-6.888989210E-1,1.482831687E-1,-2.586578019E-2
2.031348000E1,-9.635090232E-1,1.439896673E-1,-1.780061275E-1
2.033348000E1,-9.102240801E-1,-1.029395163E-1,-1.770287454E-1
2.035348000E1,-6.283010840E-1,-3.328866363E-1,-4.239404574E-2
2.037348000E1,-4.076041877E-1,-4.540474117E-1,1.458746195E-1
2.039348000E1,-3.197617829E-1,-4.186172187E-1,2.697406411E-1
2.041348000E1,-2.841919661E-1,-3.167074323E-1,2.139424533E-1
2.043348000E1,-1.721243709E-1,-3.279299140E-1,5.494296551E-2
2.045548156E1,-4.846779257E-2,-4.880638719E-1,-1.255589873E-1
2.047748000E1,-1.343903481E-3,-6.556503773E-1,-3.142465353E-1
2.049748000E1,1.295034308E-2,-4.694935679E-1,-5.196368694E-1
2.051748000E1,-9.965830296E-2,5.618214980E-2,-7.084814906E-1
2.053748000E1,-3.207042515E-1,5.301961303E-1,-8.363443017E-1
2.055748000E1,-5.562364459E-1,7.378553748E-1,-9.313251376E-1
2.057748000E1,-5.837079287E-1,6.835930943E-1,-1.077636123E0
2.059748000E1,-3.886673748E-1,6.111619473E-1,-1.161097765E0
2.061748000E1,-5.106833205E-2,6.663143635E-1,-9.673138261E-1
2.063748000E1,2.970375717E-1,7.631626725E-1,-5.527282953E-1
2.065748000E1,4.741536081E-1,7.049733996E-1,-1.510058790E-1
2.067748000E1,5.930105448E-1,5.477192402E-1,1.478468478E-1
2.069748000E1,7.428121567E-1,4.022634923E-1,3.546509147E-1
2.071748000E1,8.282459974E-1,2.225643843E-1,4.307472706E-1
2.073748000E1,8.570264578E-1,-4.049163777E-3,3.498337865E-1
2.075748000E1,7.580139637E-1,-2.216044515E-1,1.755626649E-1
2.077748000E1,4.732634723E-1,-4.152661860E-1,-1.302888244E-1
2.079748000E1,1.295383424E-1,-4.070456922E-1,-3.585953414E-1
2.081748000E1,-1.537984163E-1,-1.720720083E-1,-4.840670526E-1
2.083748000E1,-3.261322081E-1,1.651255935E-1,-3.924023807E-1
2.085748000E1,-4.035550356E-1,4.503647685E-1,-1.779712290E-1
2.087748156E1,-5.276130438E-1,5.154480934E-1,-5.899212789E-3
2.089748156E1,-5.605124831E-1,3.843215108E-1,1.555088311E-1
2.091949406E1,-4.615697861E-1,1.941853315E-1,4.047243893E-1
2.094148000E1,-2.579421997E-1,2.254965454E-1,5.564109683E-1
2.096148000E1,-1.220159680E-1,2.070135027E-1,5.209982395E-1
2.098148000E1,-6.393141299E-2,1.433962435E-1,3.475823104E-1
2.100148000E1,-6.281439960E-2,-2.242748067E-2,6.475171447E-2
2.102148000E1,-4.836307466E-2,-6.775368005E-2,2.289872058E-2
2.104148000E1,-9.669124149E-3,6.808529049E-2,3.045948744E-1
2.106148000E1,1.064476296E-1,1.777094305E-1,3.370230794E-1
2.108148000E1,3.673917949E-1,3.174055815E-1,-2.448522449E-1
2.110148000E1,4.192455411E-1,2.408903390E-1,-8.277398348E-1
2.112148000E1,3.394490778E-1,-7.920303941E-2,-1.012099028E0
2.114148000E1,3.546509147E-1,-4.549200535E-1,-8.945685029E-1
2.116148000E1,3.227637410E-1,-5.589591265E-1,-6.980618834E-1
2.118148000E1,2.733883858E-1,-4.279023707E-1,-4.484274387E-1
2.120148000E1,2.027025372E-1,-1.886002719E-1,-2.763030827E-1
2.122148000E1,1.698205434E-2,3.843215108E-2,-2.108357698E-1
2.124148000E1,-1.944471300E-1,1.454033852E-1,-1.836260855E-1
2.126148000E1,-3.814417124E-1,1.415985674E-1,-2.255314440E-1
2.128148000E1,-4.967381656E-1,1.185078546E-2,-2.639985085E-1
2.130148000E1,-4.601735175E-1,-1.608844548E-1,-1.724559814E-1
2.132148000E1,-3.389778435E-1,-2.932327688E-1,6.764896214E-2
2.134148000E1,-2.429498285E-1,-4.234343171E-1,2.812423408E-1
2.136148000E1,-6.723008305E-2,-4.291764498E-1,3.073524833E-1
2.138148000E1,8.573057503E-2,-3.974638283E-1,2.526713014E-1
2.140148000E1,9.801769257E-2,-4.171336889E-1,2.141344398E-1
2.142148000E1,3.766420484E-2,-5.465323925E-1,1.524021477E-1
2.144148000E1,1.658062823E-2,-6.696304679E-1,1.282817032E-2
2.146148000E1,8.780751377E-2,-5.612978935E-1,-2.410299629E-1
2.148148000E1,2.801427841E-1,-1.293288916E-1,-3.697305620E-1
2.150148000E1,3.757170141E-1,1.776047051E-1,-2.325825691E-1
2.152148000E1,2.949780822E-1,6.909758598E-2,-2.809456587E-1
2.154148000E1,6.510078162E-2,-2.070658654E-1,-5.963964462E-1
2.156148000E1,-1.743758470E-1,-9.201376140E-2,-9.419018626E-1
2.158148000E1,-2.467546463E-1,3.686135411E-1,-1.039570451E0
2.160148000E1,-3.176324666E-1,8.322427869E-1,-7.616617084E-1
2.162148000E1,-3.050835431E-1,9.249197841E-1,-3.901858032E-1
2.164148000E1,-1.263618320E-1,6.805737019E-1,-6.862634420E-2
2.166148000E1,2.309245169E-1,3.461162448E-1,1.573239714E-1
2.168148000E1,6.432759762E-1,-2.544690110E-2,1.953896135E-1
2.170148000E1,9.454622865E-1,-3.454879224E-1,1.537984163E-1
2.172148156E1,1.000702024E0,-4.406258166E-1,9.997245669E-2
2.174348000E1,8.099026084E-1,-2.764950693E-1,-6.665412337E-2
2.176348000E1,4.876973629E-1,-5.166174378E-3,-2.392846346E-1
2.178348000E1,1.729097664E-1,2.032086849E-1,-2.840348780E-1
2.180348000E1,6.768386811E-2,3.485771716E-1,-2.753256857E-1
2.182348000E1,8.922123164E-2,3.815813363E-1,-2.940356135E-1
2.184348000E1,4.345869645E-3,3.238632977E-1,-2.803871334E-1
2.186348000E1,-1.005309671E-1,2.127032727E-1,-1.974316388E-1
2.188348000E1,-3.305653483E-2,1.172337681E-1,-9.101892263E-2
2.190348156E1,1.600292325E-1,7.810348272E-2,-8.883725852E-3
2.192548000E1,3.715457022E-1,-1.502728462E-2,3.448770568E-2
2.194548156E1,5.104215145E-1,-1.221555918E-1,4.883431271E-2
2.196548156E1,5.797110796E-1,-1.686511636E-1,-4.433136433E-3
2.198548156E1,6.214593649E-1,-1.455779076E-1,-7.937757671E-2
2.200548156E1,6.169215441E-1,1.127482671E-2,-1.746027321E-1
2.202748000E1,5.132838488E-1,3.841644228E-1,-2.122320384E-1
2.204748000E1,3.078760803E-1,7.794291377E-1,-1.608320922E-1
2.206748000E1,8.780751377E-2,8.119969964E-1,-1.764702350E-1
2.208748156E1,-1.369036287E-1,4.045847654E-1,-4.594579339E-1
2.210948000E1,-3.043679595E-1,-3.192207217E-2,-8.130965233E-1
2.212948000E1,-1.233249679E-1,-3.902556375E-2,-6.455449462E-1
2.214948000E1,2.842617631E-1,3.039665520E-1,-1.172861271E-2
2.216948000E1,4.932300448E-1,4.058414102E-1,4.880289733E-1
2.218948000E1,4.266631901E-1,1.560847908E-1,5.326744914E-1
2.220948000E1,3.314729333E-1,-2.117782533E-1,4.913625419E-1
2.222948000E1,3.731688559E-1,-5.849121809E-1,5.331980586E-1
2.224948000E1,4.974711835E-1,-4.477118552E-1,4.152661860E-1
2.226948000E1,3.352777362E-1,-3.110176697E-2,2.215346396E-1
2.228948000E1,-1.996656694E-2,3.943920434E-1,3.574434295E-2
2.230948000E1,-2.692170441E-1,6.228731275E-1,-5.146975815E-2
2.232948000E1,-3.355919123E-1,5.284507871E-1,-7.808603346E-2
2.234948000E1,-1.755975783E-1,2.065597177E-1,-6.051056460E-2
2.236948000E1,1.505346447E-1,-1.489987522E-1,3.684389964E-2
2.238948000E1,4.949404597E-1,-2.922553718E-1,2.071705759E-1
2.240948000E1,6.089977622E-1,-3.625746965E-1,3.386985958E-1
2.242948000E1,5.803219676E-1,-2.891486883E-1,3.566405773E-1
2.244948000E1,4.686907232E-1,-2.031388730E-1,2.894977629E-1
2.246948000E1,2.602111399E-1,-1.770811081E-1,2.031388730E-1
2.248948000E1,1.024682820E-1,-7.267551124E-2,1.585980654E-1
2.250948000E1,-3.310889751E-2,2.368411794E-2,1.329068244E-1
2.252948000E1,-2.109753937E-1,8.196066320E-2,1.970825791E-1
2.254948000E1,-4.412890375E-1,3.066543490E-2,2.416408360E-1
2.256948000E1,-7.186916471E-1,-1.574112475E-1,1.026428118E-1
2.258948000E1,-9.309934974E-1,-3.636567891E-1,-1.436231434E-1
2.260948000E1,-8.515112400E-1,-2.815041542E-1,-2.190388143E-1
2.262948000E1,-4.543441236E-1,1.455604583E-1,7.321656495E-2
2.264948000E1,-1.588598639E-1,3.893305957E-1,5.858895779E-1
2.266948000E1,-1.125562862E-1,3.972369432E-1,8.195542693E-1
2.268948000E1,7.382742595E-3,3.265860081E-1,8.527154922E-1
2.270948000E1,1.839227974E-1,1.540776640E-1,7.758511901E-1
2.272948000E1,2.560746968E-1,-2.331759781E-2,5.737246275E-1
2.274948000E1,1.510058790E-1,-1.924400032E-1,2.564063072E-1
2.276948156E1,-1.204102635E-1,-3.134611249E-1,-6.237806752E-2
2.279148156E1,-4.264363050E-1,-3.291690946E-1,-2.933374941E-1
2.281148156E1,-4.357214570E-1,-2.006954104E-1,-3.207042515E-1
2.283348000E1,-2.366840988E-1,2.796017379E-2,-1.480039209E-1
2.285348000E1,-1.200961024E-1,3.233920634E-1,5.536184460E-2
2.287348000E1,-1.531526446E-1,3.922103941E-1,1.395216137E-1
2.289348156E1,-1.307775229E-1,2.672622800E-1,1.545314491E-1
2.291548156E1,1.534144431E-1,1.579872072E-1,2.518859208E-1
2.293548156E1,4.564210474E-1,2.895152271E-1,4.094891548E-1
2.295548156E1,5.434257388E-1,2.990796268E-1,5.450837612E-1
2.297548156E1,4.635769129E-1,1.828406900E-1,5.926963687E-1
2.299548156E1,3.858923018E-1,1.104618907E-1,6.035348773E-1
2.301548156E1,3.132866025E-1,4.993386939E-2,7.005751729E-1
2.303548156E1,1.758593768E-1,-7.850491256E-2,8.164126873E-1
2.305548156E1,9.920451790E-2,-2.348689586E-1,8.495739102E-1
2.307748000E1,1.075820923E-1,-3.654370308E-1,6.584079862E-1
2.309748312E1,2.294584364E-1,-2.770884633E-1,6.072524190E-1
2.311948000E1,3.707951903E-1,-2.062979154E-2,7.715228200E-1
2.313948000E1,2.110277563E-1,5.148721393E-3,7.993782759E-1
2.315948000E1,-1.854761392E-1,-3.133389652E-1,6.232745051E-1
2.317948000E1,-5.662720799E-1,-8.974832296E-1,3.435331583E-1
2.319948156E1,-5.940053463E-1,-1.240143657E0,5.984733999E-2
2.322148156E1,-3.626095951E-1,-9.939824343E-1,-7.209955156E-2
2.324348000E1,-3.410722315E-1,-5.430243015E-1,-1.446877979E-2
2.326348000E1,-5.837602615E-1,-1.662949771E-1,7.775441557E-2
2.328348000E1,-7.879288793E-1,9.199630469E-2,1.731715649E-1
2.330348000E1,-6.633123755E-1,2.623404264E-1,1.532922685E-1
2.332348000E1,-3.189065456E-1,3.014358282E-1,1.770112962E-1
2.334348000E1,-4.789183289E-2,1.699776202E-1,2.958507538E-1
2.336348000E1,3.117158078E-2,-5.166174471E-2,4.517784715E-1
2.338348000E1,1.066047102E-1,-2.121447772E-1,4.732285738E-1
2.340348000E1,2.513099611E-1,-2.927789688E-1,3.612307906E-1
2.342348000E1,3.795916438E-1,-3.670776486E-1,2.115513533E-1
2.344348000E1,4.358785152E-1,-4.109726846E-1,8.234463632E-2
2.346348000E1,3.847578466E-1,-3.812846243E-1,-3.375466913E-2
2.348348000E1,3.086963892E-1,-2.719571888E-1,-1.180191636E-1
2.350348000E1,1.807812005E-1,-3.775146976E-2,-2.991494350E-2
2.352348000E1,-1.697856337E-1,1.591391265E-1,1.320341527E-1
2.354348000E1,-5.677905083E-1,1.455953717E-1,1.802052408E-1
2.356348000E1,-7.559369802E-1,-5.096361507E-3,7.152359188E-2
2.358348000E1,-5.380501151E-1,4.623377323E-2,-7.330382708E-3
2.360348000E1,-1.814793348E-1,1.539729387E-1,6.515314430E-2
2.362348000E1,-8.826129884E-2,5.190609023E-2,1.680403054E-1
2.364348000E1,-1.683719158E-1,-1.239358261E-1,1.801179796E-1
2.366348000E1,-1.749343574E-1,-1.371479779E-1,1.913753450E-1
2.368348000E1,-1.252273768E-1,6.161012221E-3,2.620088160E-1
2.370348000E1,-5.145230517E-2,1.732588410E-1,3.772878349E-1
2.372348000E1,1.740093343E-2,2.110103071E-1,4.051083624E-1
2.374348000E1,2.321287990E-2,9.705775976E-2,2.755874991E-1
2.376348000E1,-6.654940546E-2,-1.104793418E-2,8.175121993E-2
2.378548156E1,-1.207942367E-1,5.434955284E-2,-6.981316954E-3
2.380548156E1,-6.115633622E-2,1.520181745E-1,1.815142483E-2
2.382748000E1,8.683013171E-2,2.305579931E-1,9.047786891E-2
2.384748000E1,2.458296269E-1,2.834240198E-1,1.456477195E-1
2.386748156E1,2.857452929E-1,2.116037160E-1,1.415112913E-1
2.388748156E1,2.539977729E-1,7.995353639E-2,1.073028445E-1
2.390948000E1,3.200410306E-1,-5.670574680E-2,7.557275891E-2
2.392948000E1,5.020788908E-1,-1.240754575E-1,7.374016196E-2
2.394948000E1,5.767964125E-1,-2.669481039E-1,3.431317210E-2
2.396948000E1,4.719370306E-1,-3.551745117E-1,-7.513642311E-2
2.398948000E1,3.056769669E-1,-2.090729922E-1,-1.888620704E-1
2.400948000E1,2.044653147E-1,1.151044667E-1,-9.909979254E-2
2.402948000E1,6.185446680E-2,2.747322619E-1,6.613052636E-2
2.404948000E1,-1.463458538E-1,3.595378250E-2,2.279400080E-2
2.406948000E1,-1.860171854E-1,-2.560746968E-1,-1.951278150E-1
2.408948000E1,2.890265174E-2,-2.872462869E-1,-2.305929065E-1
2.410948000E1,2.477669418E-1,-2.349911332E-1,-8.133234084E-2
2.412948000E1,2.646093667E-1,-3.526263237E-1,7.635815442E-2
2.414948000E1,1.874832660E-1,-5.333377123E-1,1.664694995E-1
2.416948000E1,5.576327071E-2,-6.683040261E-1,1.658586413E-1
2.418948000E1,-1.501681209E-1,-6.736796498E-1,1.978330761E-1
2.420948000E1,-3.063576519E-1,-4.908913076E-1,3.241076469E-1
2.422948000E1,-3.562915027E-1,-2.750639021E-1,3.866951466E-1
2.424948000E1,-3.330960870E-1,-1.722989082E-1,3.303559124E-1
2.426948000E1,-2.970026731E-1,-2.181312442E-1,2.214997411E-1
2.428948000E1,-2.823244631E-1,-3.167947233E-1,1.521228999E-1
2.430948000E1,-2.039766312E-1,-3.967657089E-1,1.745678335E-1
2.432948000E1,-4.925319180E-2,-3.392396569E-1,2.434734255E-1
2.434948000E1,-2.111848444E-3,-2.365095615E-1,2.459518015E-1
2.436948000E1,-9.522516280E-2,-1.725781560E-1,1.792802215E-1
2.438948000E1,-1.229759008E-1,-1.601863205E-1,9.299114347E-2
2.440948000E1,-5.543165654E-2,-2.753955126E-1,5.585053586E-4
2.442948000E1,8.281587064E-2,-3.954916000E-1,-1.442340016E-1
2.444948000E1,2.061408311E-1,-3.299545050E-1,-2.352878302E-1
2.446948000E1,1.407433450E-1,-1.302539259E-1,-1.186300293E-1
2.448948000E1,-4.255112633E-2,2.601762414E-1,1.301143020E-1
2.450948000E1,-3.021164834E-1,4.116184413E-1,1.995085925E-1
2.452948000E1,-4.022111297E-1,2.390577495E-1,1.349488646E-1
2.454948000E1,-2.499311417E-1,-7.410667837E-2,-2.307325229E-2
2.456948000E1,-2.588323317E-2,-2.433512509E-1,-1.879719645E-1
2.458948000E1,-3.370230645E-2,-3.679328561E-1,-3.015056252E-1
2.460948000E1,-1.148426607E-1,-4.107981324E-1,-3.169343472E-1
2.462948000E1,-5.698499829E-2,-2.835461795E-1,-2.717477679E-1
2.464948000E1,-2.949606394E-3,-4.003785178E-2,-1.957212240E-1
2.466948000E1,-7.660250366E-2,2.164731920E-1,-1.591740251E-1
2.468948000E1,-1.170243248E-1,4.406083822E-1,-1.758244634E-1
2.470948156E1,-5.639158934E-2,4.403291047E-1,-2.596526444E-1
2.473148156E1,3.857177682E-3,1.447227001E-1,-4.023332894E-1
2.475348000E1,-1.911135577E-2,-1.510233432E-1,-5.127253532E-1
2.477348000E1,-6.869615614E-2,-9.295623749E-2,-5.386958718E-1
2.479348000E1,1.047197497E-3,1.102524474E-1,-4.686383605E-1
2.481348000E1,1.097637564E-1,2.439446747E-1,-3.556108475E-1
2.483348000E1,1.562418789E-1,2.841047049E-1,-2.770535648E-1
2.485348000E1,1.598547101E-1,1.807113886E-1,-2.412568629E-1
2.487348000E1,2.131221592E-1,4.153883550E-3,-2.223025858E-1
2.489348000E1,3.492578268E-1,-1.392772794E-1,-1.460491568E-1
2.491348000E1,4.688827097E-1,-2.653947771E-1,-2.853613347E-2
2.493348000E1,4.349185824E-1,-4.525115192E-1,-3.272492439E-2
2.495348000E1,2.786243558E-1,-4.218460917E-1,-6.721262634E-2
2.497348000E1,2.723760903E-1,-4.427900165E-2,7.227408141E-2
2.499348000E1,3.830125034E-1,3.244392574E-1,3.273888528E-1
2.501348000E1,2.749591768E-1,1.012116447E-1,2.904751599E-1
2.503348000E1,1.333256960E-1,-5.340707675E-2,1.375319436E-2
2.505348000E1,4.878195375E-2,-8.326965570E-2,-1.560498923E-1
2.507348000E1,-1.161691174E-1,-2.336123139E-1,-9.711012244E-2
2.509348000E1,-2.556383610E-1,-3.816336989E-1,8.820894361E-2
2.511348000E1,-2.550973296E-1,-3.753505051E-1,2.814692557E-1
2.513348000E1,-2.792177796E-1,-2.775073647E-1,3.171088696E-1
2.515348000E1,-4.338015914E-1,-1.708677411E-2,2.654994726E-1
2.517348000E1,-6.173578501E-1,3.609515429E-1,2.304183692E-1
2.519348000E1,-7.572983503E-1,5.625894070E-1,1.901361644E-1
2.521348000E1,-8.464148641E-1,4.770508409E-1,7.262314856E-2
2.523348000E1,-8.144404292E-1,1.528733820E-1,-7.387978584E-2
2.525348000E1,-5.519254804E-1,-1.519483626E-1,-1.407957077E-1
2.527348000E1,-2.280796319E-1,-2.774026394E-1,-6.504841894E-2
2.529348000E1,-5.398303270E-2,-2.828131616E-1,7.801621407E-2
2.531348000E1,-6.647959352E-2,-1.609542668E-1,1.466774642E-1
2.533348000E1,-9.704030305E-2,-6.171484292E-2,2.698278986E-2
2.535348000E1,-1.202706397E-1,-1.217541695E-1,-2.149198502E-1
2.537348000E1,-1.485973299E-1,-2.960078418E-1,-4.828453362E-1
2.539348000E1,-2.125810981E-1,-4.776966274E-1,-7.089003921E-1
2.541348000E1,-1.685988009E-1,-3.267081678E-1,-8.135852218E-1
2.543348000E1,-6.986553222E-2,2.596875429E-1,-6.529102325E-1
2.545348000E1,-1.272868663E-1,7.736346126E-1,-3.997676671E-1
2.547348000E1,-2.626371384E-1,9.541540742E-1,-3.687182665E-1
2.549348000E1,-3.942524195E-1,7.989419103E-1,-5.457993746E-1
2.551348000E1,-4.151789248E-1,4.836656451E-1,-6.590363383E-1
2.553348000E1,-5.674763322E-1,2.446427941E-1,-5.834286809E-1
2.555348000E1,-6.057339907E-1,2.382025421E-1,-3.226764798E-1
2.557348000E1,-3.663620651E-1,4.513247013E-1,3.516838327E-2
2.559348000E1,1.074599251E-1,7.648905516E-1,5.070530772E-1
2.561348000E1,5.904623270E-1,8.525409698E-1,7.830070853E-1
2.563348000E1,9.025272131E-1,6.904348135E-1,7.378030419E-1
2.565348000E1,1.032571673E0,4.544313848E-1,5.146452188E-1
2.567348000E1,9.688846469E-1,2.592686713E-1,3.148573935E-1
2.569348000E1,4.941376150E-1,5.743878707E-2,9.157742560E-2
2.571348000E1,2.368411794E-2,3.124139272E-2,-1.007229537E-1
2.573348000E1,-9.426523000E-2,3.839724232E-4,-1.798387319E-1
2.575348000E1,8.531169593E-2,3.738495335E-2,-4.787437990E-2
2.577348000E1,2.449918687E-1,6.236061454E-2,2.954144180E-1
2.579348000E1,2.494075447E-1,6.382668763E-2,6.107954383E-1
2.581348000E1,4.518657550E-2,3.024655581E-2,6.891781688E-1
2.583348000E1,-1.137081981E-1,7.279768586E-2,6.610609293E-1
2.585348000E1,-1.207767799E-2,1.329766363E-1,6.581985354E-1
2.587348000E1,2.014808059E-1,1.687907875E-1,6.913947463E-1
2.589348156E1,2.460565120E-1,3.485422432E-1,6.257528663E-1
2.591548156E1,2.007128671E-3,5.015029311E-1,5.621007085E-1
2.593548156E1,-2.725331485E-1,4.522322714E-1,6.240599155E-1
2.595548156E1,-4.551120400E-1,2.798635364E-1,3.836408257E-1
2.597548625E1,-3.592236638E-1,1.502030343E-1,-1.356120855E-1
2.599748000E1,3.316125646E-2,1.052957103E-1,-4.944692254E-1
2.601748000E1,3.606722951E-1,3.591887653E-2,-4.888667166E-1
2.603748000E1,3.334800601E-1,-2.665641308E-1,-4.731587470E-1
2.605748000E1,-5.567600485E-3,-6.302732825E-1,-5.180137157E-1
2.607748000E1,-3.804119527E-1,-8.738514185E-1,-6.541842818E-1
2.609748156E1,-6.647959352E-1,-6.184574366E-1,-7.619234920E-1
2.611948000E1,-8.605171442E-1,-4.958480224E-2,-6.834185719E-1
2.613948000E1,-9.229301214E-1,3.659955561E-1,-4.006577730E-1
2.615948000E1,-9.940173626E-1,4.427027702E-1,-9.225810319E-2
2.617948000E1,-1.015188217E0,3.285582364E-1,6.373942643E-2
2.619948156E1,-9.759008288E-1,4.478514940E-2,1.388234943E-1
2.622148156E1,-6.938731074E-1,-2.317273617E-1,3.159744143E-1
2.624347844E1,-2.094220519E-1,-3.798534572E-1,5.466545820E-1
2.626348000E1,1.703615934E-1,-3.887721002E-1,5.240002275E-1
2.628348000E1,3.312809467E-1,-4.572238922E-1,3.028495312E-1
2.630348000E1,3.732735515E-1,-4.495269954E-1,1.380729973E-1
2.632348000E1,3.648785353E-1,-3.083996773E-1,1.118057892E-1
2.634348000E1,3.062878251E-1,-7.115707546E-2,1.479515582E-1
2.636348000E1,1.923701912E-1,2.822546363E-1,2.210459560E-1
2.638348000E1,4.488986731E-2,6.430491209E-1,2.742610276E-1
2.640348000E1,-1.964368075E-1,8.589637876E-1,3.026226461E-1
2.642348000E1,-4.893030524E-1,6.773099303E-1,9.276425093E-2
2.644348000E1,-6.262590289E-1,3.658733666E-1,-5.419596434E-1
2.646348000E1,-4.450066090E-1,2.777866125E-1,-8.669399619E-1
2.648348000E1,-6.419321150E-2,3.182433248E-1,-5.585576892E-1
2.650548156E1,3.619812727E-1,2.116560787E-1,1.655444801E-1
2.652748000E1,5.633922815E-1,-1.827359758E-2,5.593780279E-1
2.654748000E1,5.413836837E-1,-3.507239223E-1,4.516912103E-1
2.656748000E1,6.926687956E-1,-4.637514353E-1,1.605702937E-1
2.658748000E1,1.114322901E0,-6.230825558E-2,7.120943069E-2
2.660748000E1,1.302818418E0,2.741563320E-1,1.419825405E-1
2.662748000E1,1.015083432E0,3.196919560E-1,1.120850444E-1
2.664748000E1,3.587524295E-1,1.386315078E-1,-4.216715321E-2
2.666748000E1,-9.417796880E-2,-1.017526910E-2,-1.347568780E-1
2.668748000E1,-1.705884784E-1,-1.421047002E-1,-1.403768361E-1
2.670748000E1,-3.996803891E-3,-7.222172618E-2,2.261946723E-2
2.672748000E1,1.970476657E-1,-1.272345036E-1,3.142988980E-1
2.674748000E1,4.138350189E-1,-2.445555329E-1,6.065542698E-1
2.676748000E1,5.841791630E-1,-2.580469251E-1,7.815409899E-1
2.678748000E1,6.538527012E-1,-9.541714936E-2,8.548797369E-1
2.680748000E1,5.717872977E-1,1.605702913E-3,8.150513172E-1
2.682748000E1,3.299021423E-1,-2.190388180E-2,5.837602615E-1
2.684748000E1,-2.502802201E-2,-1.439896598E-2,2.338915765E-1
2.686748156E1,-3.340211213E-1,1.134638563E-1,1.538158655E-1
2.688748156E1,-5.491678715E-1,2.989749052E-2,3.298846781E-1
2.690948000E1,-6.855478883E-1,-2.176949233E-1,1.531875432E-1
2.692948000E1,-4.874879122E-1,-1.511280537E-1,-2.640334070E-1
2.694948000E1,-6.901031733E-2,1.520530879E-1,-3.636917174E-1
2.696948000E1,1.967509687E-1,2.084970325E-1,-1.534493417E-1
2.698948000E1,1.776745170E-1,-1.033234876E-2,8.045967668E-3
2.700948000E1,-1.400801241E-1,-5.192354321E-1,2.286381274E-2
2.702948000E1,-3.131993413E-1,-7.460060716E-1,-7.189010829E-2
2.704948000E1,-2.954144180E-1,-5.223944783E-1,-9.346237779E-2
2.706948000E1,-2.511354387E-1,-2.063851804E-1,-1.014734432E-1
2.708948000E1,-2.710845470E-1,-1.017526984E-1,-1.702219546E-1
2.710948000E1,-2.664419711E-1,-1.803797781E-1,-2.354972810E-1
2.712948000E1,-1.713738739E-1,-3.103544414E-1,-2.447300702E-1
2.714948000E1,3.056071512E-2,-4.549200535E-1,-2.705434859E-1
2.716948000E1,3.330960870E-1,-4.791277945E-1,-2.608394623E-1
2.718948000E1,5.091300011E-1,-5.038765669E-1,-1.435358822E-1
2.720948000E1,4.707676470E-1,-6.224891543E-1,-1.182984188E-1
2.722948000E1,4.410621524E-1,-7.146075964E-1,-2.617470324E-1
2.724948000E1,5.319240093E-1,-5.943718553E-1,-4.465599358E-1
2.726948000E1,5.443507433E-1,-5.003510118E-1,-6.328912973E-1
2.728948000E1,4.034677744E-1,-4.184601307E-1,-8.249298930E-1
2.730948000E1,2.705085874E-1,-9.283406287E-2,-8.641997576E-1
2.732948000E1,1.929461509E-1,3.559948206E-1,-6.618288755E-1
2.734948000E1,6.105161831E-2,5.604601502E-1,-4.139397442E-1
2.736948000E1,-2.036450207E-1,5.611757040E-1,-3.576005101E-1
2.738948000E1,-4.499807954E-1,3.999596536E-1,-5.082049966E-1
2.740948000E1,-4.578522146E-1,3.296054304E-1,-6.310063601E-1
2.742948000E1,-4.494048357E-1,1.548456103E-1,-5.756794214E-1
2.744948000E1,-4.156152606E-1,-1.807637513E-1,-4.430692792E-1
2.746948000E1,-3.287153244E-1,-4.875926375E-1,-3.096912205E-1
2.748948000E1,-1.617047489E-1,-4.812570810E-1,-1.240405515E-1
2.750948000E1,-6.387905218E-3,-1.913928092E-1,1.151044667E-1
2.752948000E1,5.414011329E-2,1.084024012E-1,2.679255009E-1
2.754948000E1,1.148426607E-1,2.691646814E-1,2.749940753E-1
2.756948000E1,1.619141996E-1,3.009645641E-1,9.817477316E-2
2.758948000E1,1.394518018E-1,4.295255244E-2,-1.144237816E-1
2.760948000E1,7.641051710E-2,-9.309586138E-2,-2.101899981E-1
2.762948000E1,9.061749279E-2,-4.906120524E-2,-2.235592157E-1
2.764948000E1,1.977109015E-1,1.131322384E-1,-9.395107627E-2
2.766948000E1,2.854136825E-1,2.412045002E-1,1.153488085E-1
2.768948000E1,2.326174825E-1,1.486147791E-1,2.165604532E-1
2.770948000E1,1.682671905E-1,-6.890559942E-2,2.031039596E-1
2.772948000E1,2.028421611E-1,-1.729621291E-1,1.029569730E-1
2.774948000E1,3.618242145E-1,-3.359758854E-2,5.951572675E-3
2.776948000E1,3.795742095E-1,-3.862413764E-2,7.033676840E-3
2.778948000E1,1.902408898E-1,-1.298001409E-1,-1.949532703E-2
2.780948000E1,8.726646192E-3,-3.630284965E-2,-5.379104614E-2
2.782948000E1,-9.590584040E-2,2.576978505E-1,1.012465507E-1
2.784948156E1,-2.900038958E-1,3.269525170E-1,3.500955999E-1
2.787148156E1,-7.689048052E-1,-2.265611887E-1,1.334653348E-1
2.789348000E1,-7.999018431E-1,-4.587074220E-1,-2.304707319E-1
2.791348469E1,-2.886425555E-1,1.148077548E-1,-6.366961449E-2
2.793548156E1,2.334203273E-1,4.785518348E-1,4.350931346E-1
2.795548156E1,3.668681979E-1,2.756572962E-1,6.633298397E-1
2.797748000E1,2.201907337E-1,-3.669729233E-1,5.623800159E-1
2.799748000E1,-2.635447122E-2,-8.672192097E-1,2.139599174E-1
2.801748000E1,-2.281145304E-1,-8.687725663E-1,-3.628539667E-2
2.803748000E1,-3.611609936E-1,-3.460289836E-1,-7.700392604E-2
2.805748000E1,-4.560545385E-1,3.227462769E-1,3.630284918E-3
2.807748000E1,-5.024104714E-1,7.250272036E-1,5.674065277E-2
2.809748156E1,-4.456698298E-1,7.827103734E-1,3.438298777E-2
2.811948000E1,-2.708576322E-1,5.195146799E-1,-1.870992966E-2
2.813948000E1,-7.656759769E-2,2.128254473E-1,-3.694862127E-2
2.815948000E1,2.481858246E-2,-5.536184460E-2,8.796459064E-3
2.817948000E1,8.628907800E-2,-2.054427117E-1,1.113520041E-1
2.819948156E1,1.829628646E-1,-3.107907772E-1,1.893333197E-1
2.822148000E1,1.645496339E-1,-5.538976789E-1,8.513715863E-2
2.824148000E1,2.316051908E-2,-6.994407177E-1,-1.538856775E-1
2.826148000E1,-1.103222594E-1,-7.841240764E-1,-3.368310928E-1
2.828148000E1,-1.373574138E-1,-6.562438011E-1,-3.018198013E-1
2.830148000E1,-1.255938858E-1,-3.403741121E-1,-9.245008975E-2
2.832148000E1,-7.990117371E-2,-1.010371074E-1,4.909611121E-2
2.834148000E1,-1.388234943E-1,-6.860889494E-2,6.161012128E-2
2.836148000E1,-2.842094004E-1,-1.403419226E-1,-1.387711316E-1
2.838148000E1,-3.544414639E-1,-1.015258059E-1,-3.751934171E-1
2.840148000E1,-5.114338398E-1,-1.870992966E-2,-4.334699810E-1
2.842148000E1,-7.459537387E-1,4.316199198E-2,-4.014257193E-1
2.844148000E1,-8.079303503E-1,1.004960611E-1,-3.071604967E-1
2.846148000E1,-6.260670424E-1,1.881639510E-1,-1.052608043E-1
2.848148000E1,-3.373197913E-1,2.801602483E-1,2.132094204E-1
2.850148000E1,9.180432186E-3,3.544589281E-1,5.253266692E-1
2.852148000E1,2.768615782E-1,1.832421124E-1,6.379004121E-1
2.854148000E1,3.490833044E-1,-1.239183769E-1,5.615596771E-1
2.856148000E1,2.032086849E-1,-4.524766207E-1,3.528881073E-1
2.858148000E1,-1.115265395E-2,-6.521597505E-1,1.892285943E-1
2.860148000E1,-2.898991853E-2,-3.425732255E-1,1.161342114E-1
2.862148000E1,6.777113676E-2,4.277801886E-2,1.967684180E-1
2.864148000E1,1.257509738E-1,2.342406362E-1,3.430968225E-1
2.866148000E1,2.439795732E-1,1.997005790E-1,3.880914152E-1
2.868149250E1,3.995931447E-1,6.401867419E-2,4.537506998E-1
2.870348000E1,5.570043921E-1,1.218239777E-2,5.395161510E-1
2.872348000E1,6.175673008E-1,-4.171337001E-3,4.281292558E-1
2.874348000E1,6.172356606E-1,-5.539675057E-2,8.749335259E-2
2.876348000E1,4.692492187E-1,-1.659284532E-1,-2.278876454E-1
2.878348000E1,1.679879427E-1,-2.829178572E-1,-3.950203657E-1
2.880348000E1,-7.178539038E-2,-1.097986624E-1,-2.826211751E-1
2.882348000E1,-9.075712413E-2,3.942349553E-1,2.457772642E-1
2.884348156E1,-8.878489584E-2,4.708374739E-1,5.621356368E-1
2.886548156E1,-2.264913768E-1,2.025978118E-1,1.485449672E-1
2.888548156E1,-2.606474757E-1,-1.073377486E-2,-4.295778871E-1
2.890548156E1,-1.878672391E-1,-4.956734926E-2,-5.068261623E-1
2.892748000E1,-1.213178337E-1,-6.600835174E-2,-1.968033314E-1
2.894748000E1,-1.436755061E-1,-4.562290758E-2,1.995958537E-1
2.896748000E1,-3.178768158E-1,-5.605997518E-2,3.336720467E-1
2.898748000E1,-6.286850572E-1,-9.419541806E-2,1.474105120E-1
2.900748000E1,-8.117875457E-1,4.682718217E-2,-7.504915819E-3
2.902748000E1,-8.064817190E-1,2.737025321E-1,-2.321287990E-3
2.904748000E1,-6.926164627E-1,4.983264208E-1,7.023204863E-2
2.906748000E1,-5.039463639E-1,6.711314321E-1,2.032784969E-1
2.908748000E1,-3.258355260E-1,6.551093459E-1,3.002839088E-1
2.910748000E1,-1.756324768E-1,4.105712473E-1,2.418328226E-1
2.912748000E1,-6.365215778E-2,2.036799304E-2,1.157153323E-1
2.914748000E1,9.861109778E-3,-4.051258266E-1,1.500983164E-2
2.916748000E1,1.748121828E-1,-7.415205836E-1,-1.562593281E-1
2.918748000E1,3.798010945E-1,-6.577971578E-1,-2.117608041E-1
2.920748000E1,3.726801574E-1,-5.659579039E-1,-1.100604609E-1
2.922748000E1,1.028347984E-1,-6.385287046E-1,-1.756499410E-1
2.924748000E1,-3.625223339E-1,-9.849765301E-1,-4.912578166E-1
2.926748000E1,-7.076786757E-1,-9.473646879E-1,-7.954512835E-1
2.928748000E1,-7.446970940E-1,-2.932502329E-1,-6.691766977E-1
2.930748000E1,-4.209559560E-1,6.660176516E-1,-2.190737277E-1
2.932748000E1,-1.313185692E-1,1.194433570E0,3.457497060E-2
2.934748000E1,-1.813920736E-1,1.285714269E0,-1.709550023E-1
2.936748000E1,-3.557679057E-1,1.205778122E0,-4.146902263E-1
2.938748000E1,-6.133959889E-1,7.592182159E-1,-5.616993308E-1
2.940748000E1,-8.369901180E-1,1.683719158E-1,-7.192676067E-1
2.942748000E1,-7.620456815E-1,-1.553517580E-1,-7.634593844E-1
2.944748000E1,-2.526887655E-1,-1.636769772E-1,-4.598419070E-1
2.946748000E1,2.112895548E-1,6.195918843E-2,6.215117499E-2
2.948748000E1,6.569419503E-1,3.964864314E-1,4.196644127E-1
2.950748000E1,8.973261118E-1,6.420542598E-1,5.349085331E-1
2.952748000E1,9.095783234E-1,5.867447853E-1,4.239230156E-1
2.954748000E1,7.431786656E-1,2.922903001E-1,1.382649839E-1
2.956748000E1,5.224119425E-1,7.627088577E-3,-1.633453667E-1
2.958748000E1,2.586752474E-1,-1.458222568E-1,-3.171088696E-1
2.960748000E1,4.204498231E-2,-2.333156168E-1,-4.392993748E-1
2.962748000E1,-5.787511915E-2,-3.069510460E-1,-4.143237174E-1
2.964748000E1,-1.254193634E-1,-3.440742195E-1,-1.549328715E-1
2.966748000E1,-2.583959997E-1,-5.751383305E-1,2.124065720E-2
2.968748000E1,-4.498586059E-1,-7.367558479E-1,7.190756500E-3
2.970748000E1,-5.365490913E-1,-4.587074220E-1,5.422737822E-2
2.972748000E1,-3.690847754E-1,2.445904464E-1,2.294933498E-1
2.974748000E1,-1.103920713E-1,7.245734334E-1,4.419348240E-1
2.976748000E1,-5.747369304E-2,9.877516627E-1,7.058460712E-1
2.978748000E1,7.806857675E-2,9.791122675E-1,1.005484223E0
2.980748000E1,1.006880477E-1,6.525437236E-1,1.112542629E0
2.982748000E1,6.892304868E-2,2.930756807E-1,5.883504748E-1
2.984748000E1,2.242224514E-1,3.087661862E-1,4.134684801E-2
2.986748000E1,6.343050003E-1,2.648711801E-1,1.001469940E-1
2.988748313E1,9.996722341E-1,-1.139700040E-2,4.472580850E-1
2.990948000E1,1.168532848E0,-4.091226161E-1,7.257776856E-1
2.992948000E1,9.746093154E-1,-8.448789716E-1,6.932447553E-1
2.994948000E1,4.309043288E-1,-1.004786015E0,3.935368359E-1
2.996948000E1,-1.291194558E-1,-9.475566745E-1,2.334901392E-1
2.998948000E1,-4.393691719E-1,-5.871112943E-1,2.822721004E-1
3.000948000E1,-4.341332018E-1,-1.373225003E-1,3.990869820E-1
3.002948000E1,-3.153635561E-1,1.777094305E-1,4.148996770E-1
3.004948000E1,-2.850646377E-1,2.146056890E-1,3.604803085E-1
3.006948000E1,-2.888869047E-1,-4.696680978E-2,2.352703810E-1
3.008948000E1,-1.211083978E-1,-3.049439192E-1,1.268679798E-1
3.010948000E1,1.177748144E-1,-5.115211010E-1,1.680403054E-1
3.012948000E1,3.048042953E-1,-6.766292453E-1,2.186373919E-1
3.014948000E1,3.578099608E-1,-8.496437073E-1,1.316676438E-1
3.016948000E1,3.160267770E-1,-9.360898733E-1,-3.342305496E-2
3.018948000E1,2.194053382E-1,-8.429242373E-1,-1.929461509E-1
3.020948000E1,2.171189524E-2,-5.118526816E-1,-3.078760803E-1
3.022948000E1,-2.423389703E-1,4.106759652E-2,-3.784222901E-1
3.024948000E1,-4.462108612E-1,7.532142997E-1,-3.424685001E-1
3.026948000E1,-6.188239455E-1,1.243058443E0,-2.192657143E-1
3.028948000E1,-8.016646504E-1,1.339575052E0,-2.107659578E-1
3.030948000E1,-9.857270718E-1,1.228467464E0,-3.297625184E-1
3.032948000E1,-1.028173447E0,1.183455348E0,-3.711268008E-1
3.034948000E1,-7.052701116E-1,8.473224640E-1,-2.863387167E-1
3.036948000E1,-2.843664885E-1,5.668829679E-1,-2.060535699E-1
3.038948000E1,1.346696019E-1,5.004382730E-1,-9.848892689E-2
3.040948000E1,4.172035158E-1,4.562988877E-1,2.534218132E-2
3.042948000E1,5.132140517E-1,4.905771315E-1,5.358160660E-2
3.044948000E1,6.349507570E-1,5.631479621E-1,-4.508185387E-2
3.046948000E1,8.287521601E-1,5.174726844E-1,-2.566506565E-1
3.048948000E1,8.281412721E-1,3.425383270E-1,-4.865454435E-1
3.050948000E1,6.485120058E-1,1.670629084E-1,-7.130717039E-1
3.052948000E1,3.002839088E-1,-2.862340026E-2,-9.583777189E-1
3.055148000E1,-2.295107953E-2,-2.897770107E-1,-1.156751871E0
3.057148000E1,-1.653699428E-1,-5.788908005E-1,-1.281542897E0
3.059148156E1,-2.774026394E-1,-7.178539038E-1,-1.264019847E0
3.061348000E1,-4.684812725E-1,-7.946484089E-1,-1.063516378E0
3.063348000E1,-6.657732725E-1,-7.830244899E-1,-8.076511025E-1
3.065348000E1,-7.456046343E-1,-4.330510795E-1,-4.683416486E-1
3.067348000E1,-6.558598280E-1,3.668681905E-2,6.442010403E-2
3.069348000E1,-5.960822701E-1,4.201705754E-1,4.229630828E-1
3.071348000E1,-4.884303808E-1,5.978974104E-1,6.006376147E-1
3.073348000E1,-2.440493852E-1,6.844308376E-1,8.076511025E-1
3.075348000E1,2.028072625E-2,5.313480496E-1,9.614320397E-1
3.077348000E1,2.390751988E-1,2.283588797E-1,7.774918079E-1
3.079348000E1,4.036422968E-1,3.185923994E-1,2.887821794E-1
3.081348000E1,6.379876733E-1,4.629660249E-1,2.213775665E-1
3.083348000E1,8.540419340E-1,2.634923458E-1,4.858996570E-1
3.085348000E1,8.897863030E-1,-1.424188614E-1,6.953042746E-1
3.087348000E1,6.647784710E-1,-6.891083717E-1,6.509903669E-1
3.089348000E1,2.024756521E-1,-1.070724607E0,3.369008899E-1
3.091348000E1,-2.946814001E-1,-9.253037572E-1,1.691398621E-1
3.093348000E1,-5.909160972E-1,-5.183453560E-1,2.412568629E-1
3.095348000E1,-6.084915996E-1,-3.783873841E-2,3.646516502E-1
3.097348000E1,-4.609588981E-1,2.912954390E-1,4.965985417E-1
3.099348000E1,-3.637615144E-1,2.390926480E-1,5.654866695E-1
3.101348000E1,-3.365692794E-1,-1.418778151E-1,5.085715055E-1
3.103348000E1,-2.067691535E-1,-4.762828946E-1,3.642153144E-1
3.105348000E1,4.656538367E-2,-6.564881206E-1,3.196221590E-1
3.107348000E1,3.151890039E-1,-7.244687080E-1,4.130147099E-1
3.109348000E1,4.721639156E-1,-8.256279826E-1,4.877671599E-1
3.111348000E1,5.193401575E-1,-9.341525435E-1,4.318817258E-1
3.113348000E1,4.569272101E-1,-9.733875990E-1,3.040887117E-1
3.115348000E1,2.348689586E-1,-8.868367076E-1,1.018574163E-1
3.117348000E1,-9.304349869E-2,-4.449367821E-1,-6.522295624E-2
3.119348000E1,-3.998723924E-1,3.660129905E-1,-8.897688240E-2
3.121348000E1,-8.386481404E-1,1.113956332E0,-7.721336931E-2
3.123348000E1,-1.461835384E0,1.515242457E0,-2.760063708E-1
3.125348000E1,-1.843905449E0,1.548717856E0,-6.104114652E-1
3.127348000E1,-1.910454869E0,1.468258262E0,-8.590335846E-1
3.129548156E1,-1.435079575E0,1.382335663E0,-7.126528621E-1
3.131548156E1,-6.339035630E-1,1.193368912E0,-1.927367151E-1
3.133548156E1,2.463532239E-1,7.652395964E-1,3.874107301E-1
3.135548156E1,1.015624523E0,3.412642181E-1,7.367034554E-1
3.137748000E1,1.598040938E0,-2.696533687E-2,7.989593744E-1
3.139748000E1,1.824619532E0,-1.700474322E-1,6.844483018E-1
3.141748000E1,1.838704348E0,-1.487020552E-1,4.972791970E-1
3.143748000E1,1.613364935E0,-1.392598152E-1,2.488664985E-1
3.145748000E1,1.223964453E0,-1.628915817E-1,-1.041961554E-2
3.147748000E1,7.512595057E-1,-1.770461947E-1,-2.417979091E-1
3.149748000E1,3.118030727E-1,-1.337620318E-1,-4.306949079E-1
3.151748000E1,-1.528908405E-2,-2.529331148E-1,-5.737944245E-1
3.153748000E1,-1.742013097E-1,-5.653121471E-1,-7.301759720E-1
3.155748000E1,-2.553591132E-1,-8.577944040E-1,-9.023177624E-1
3.157748000E1,-3.271096051E-1,-9.349554181E-1,-1.029185772E0
3.159748000E1,-6.088057756E-1,-8.102865815E-1,-1.018713832E0
3.161748000E1,-1.141532540E0,-2.085842937E-1,-7.801796198E-1
3.163748000E1,-1.607203841E0,6.036221385E-1,-3.176324666E-1
3.165748000E1,-1.833765030E0,1.210909486E0,5.206317082E-2
3.167748000E1,-1.751385570E0,1.425549984E0,2.270847857E-1
3.169748000E1,-1.460247159E0,1.245920777E0,4.197342396E-1
3.171748000E1,-1.076239824E0,9.328784943E-1,4.101174772E-1
3.173748000E1,-6.095213294E-1,8.946557641E-1,-7.189010829E-2
3.175748000E1,-1.085420251E-1,1.087113261E0,-5.923472643E-1
3.177748000E1,3.493450880E-1,7.515736818E-1,-5.761331916E-1
3.179748000E1,7.155326605E-1,1.352804750E-1,-2.229832709E-1
3.181748000E1,9.848194718E-1,-4.588470459E-1,8.461356163E-2
3.183748000E1,9.079900980E-1,-8.812167645E-1,9.321803600E-2
3.185748000E1,4.665614069E-1,-9.014625549E-1,-1.374097764E-1
3.187748156E1,1.005484164E-1,-4.927588105E-1,-4.125434756E-1
3.189948000E1,1.318945289E-1,-1.313534826E-1,-4.483401775E-1
3.191949406E1,3.308795094E-1,-1.517214775E-1,-3.452784717E-1
3.194148156E1,5.734977126E-1,-3.430269957E-1,-2.550100684E-1
3.196348000E1,8.481252789E-1,-5.396558046E-1,-1.936268210E-1
3.198348000E1,1.087724090E0,-7.061601877E-1,-1.760688126E-1
3.200348000E1,1.303726077E0,-9.441882372E-1,-1.804146916E-1
3.202348000E1,1.427661896E0,-1.198482633E0,-1.325577497E-1
3.204348000E1,1.356312752E0,-1.590885043E0,-8.909905702E-2
3.206348000E1,1.145738840E0,-1.853295326E0,-1.891064197E-1
3.208348000E1,8.325394988E-1,-1.806660056E0,-4.152487218E-1
3.210548156E1,2.359161526E-1,-1.558387041E0,-6.849195361E-1
3.212748000E1,-3.378433883E-1,-6.830345988E-1,-7.771602273E-1
3.214748000E1,-7.981739640E-1,3.886324763E-1,-7.781026959E-1
3.216748000E1,-1.203212500E0,8.720712066E-1,-8.519300818E-1
3.218748000E1,-1.419196963E0,8.093440533E-1,-9.044994116E-1
3.220748000E1,-1.389090061E0,4.159992337E-1,-9.480105042E-1
3.222748000E1,-1.074895978E0,2.470513582E-1,-8.579689264E-1
3.224748000E1,-6.206740141E-1,4.140095413E-1,-5.408949852E-1
3.226748000E1,-1.440420300E-1,6.362772584E-1,-1.077740788E-1
3.228748625E1,2.563365102E-1,5.285904408E-1,2.144486010E-1
3.230948000E1,5.594303608E-1,2.994635999E-1,3.562391400E-1
3.232948000E1,6.610434651E-1,6.771877408E-2,3.255039155E-1
3.234948000E1,6.749536991E-1,-7.923794910E-3,1.555262953E-1
3.236948000E1,7.338062525E-1,1.067443341E-1,-4.679227620E-2
3.238948000E1,8.807454705E-1,3.313333094E-1,-1.401499361E-1
3.240948000E1,9.671393037E-1,2.996381223E-1,-1.039169058E-1
3.242948000E1,8.137074113E-1,-5.401793867E-2,-1.616872996E-1
3.244948000E1,4.059461355E-1,-3.549301624E-1,-2.846457362E-1
3.246948000E1,-8.672541380E-2,-5.025151968E-1,-3.767467737E-1
3.248948000E1,-5.867971182E-1,-7.688698769E-1,-4.850269854E-1
3.250948000E1,-9.128944874E-1,-9.087405801E-1,-5.747718215E-1
3.252948000E1,-1.035573602E0,-5.598143339E-1,-4.494048357E-1
3.254948000E1,-1.079870105E0,2.084446698E-1,-1.997703910E-1
3.256948000E1,-1.164989829E0,8.558222055E-1,1.300270259E-1
3.258948000E1,-1.158566952E0,1.073290229E0,5.375439525E-1
3.260948000E1,-1.002290249E0,8.621577621E-1,7.858694196E-1
3.262948000E1,-6.338861585E-1,5.036321878E-1,1.118319750E0
3.264948000E1,3.949680179E-2,2.723062634E-1,1.458414555E0
3.266948000E1,7.437196970E-1,1.626472324E-1,1.189965487E0
3.268948000E1,1.158497214E0,-4.005530477E-2,5.888741016E-1
3.270948000E1,1.257492304E0,-6.200980544E-1,4.289844632E-1
3.272948000E1,1.234995008E0,-9.911550283E-1,7.083244324E-1
3.274948000E1,1.089766145E0,-1.061421990E0,1.023112059E0
3.276948000E1,9.535431862E-1,-1.058961034E0,1.109470844E0
3.278948000E1,6.098005772E-1,-9.120043516E-1,9.804387093E-1
3.280948000E1,2.077639997E-1,-5.285729766E-1,9.258622527E-1
3.282948000E1,-5.839871615E-2,-9.873327613E-2,9.414131641E-1
3.284948156E1,-2.036799192E-1,2.329316437E-1,9.128595591E-1
3.287148000E1,-3.288723826E-1,2.707354724E-1,8.324173093E-1
3.289148000E1,-4.044626057E-1,-5.321509019E-2,7.773172855E-1
3.291148000E1,-3.924721777E-1,-4.864232540E-1,6.918485165E-1
3.293148000E1,-2.675240636E-1,-7.789928317E-1,5.213822126E-1
3.295148000E1,-6.035348400E-2,-1.048925400E0,3.628015816E-1
3.297148000E1,2.145009637E-1,-1.133905530E0,2.285857648E-1
3.299148000E1,4.786914587E-1,-1.008416295E0,1.907470375E-1
3.301148000E1,4.520926476E-1,-9.416051507E-1,3.745476529E-2
3.303148000E1,1.878846884E-1,-7.804239988E-1,-2.648711801E-1
3.305148000E1,-1.665393114E-1,-2.782229483E-1,-6.038489938E-1
3.307148000E1,-3.846880198E-1,5.633573532E-1,-6.983062029E-1
3.309148156E1,-6.480058432E-1,1.158165574E0,-6.016498804E-1
3.311348000E1,-1.252029419E0,1.081371069E0,-7.395832539E-1
3.313348000E1,-1.759344220E0,6.996850371E-1,-1.090481758E0
3.315348000E1,-1.755696535E0,4.593706429E-1,-1.281228781E0
3.317348000E1,-1.380729914E0,6.883229613E-1,-1.181413412E0
3.319348000E1,-7.544884086E-1,1.204294682E0,-6.966656446E-1
3.321348000E1,-1.798387319E-1,1.433246970E0,-3.780383244E-2
3.323348000E1,1.498190612E-1,1.120955110E0,3.387160599E-1
3.325348000E1,3.108606040E-1,5.555732250E-1,2.419026345E-1
3.327348000E1,4.498760700E-1,2.080257982E-1,1.384046115E-2
3.329348000E1,5.164952874E-1,1.406037211E-1,-9.032078832E-2
3.331348000E1,4.883082211E-1,3.292738199E-1,-1.217018068E-1
3.333348000E1,4.319166243E-1,4.806462228E-1,-1.170068756E-1
3.335348000E1,2.622531652E-1,3.560995162E-1,-1.099557430E-1
3.337348000E1,7.668976486E-2,4.188789986E-3,-1.855983138E-1
3.339348000E1,1.068316028E-1,-4.100825489E-1,-2.458470762E-1
3.341348000E1,2.123367488E-1,-8.045618534E-1,-2.018822283E-1
3.343348000E1,3.634648025E-1,-8.923170567E-1,-3.748967126E-2
3.345348000E1,5.282413363E-1,-7.095461488E-1,1.261523962E-1
3.347348000E1,6.587221622E-1,-3.925071061E-1,2.664943337E-1
3.349348000E1,8.537801504E-1,1.070061326E-1,4.055097997E-1
3.351348000E1,9.336464405E-1,7.814537287E-1,4.826882482E-1
3.353348000E1,8.427147865E-1,1.275905490E0,5.894500613E-1
3.355348000E1,5.594652891E-1,1.565891981E0,7.177841067E-1
3.357348000E1,4.914847016E-2,1.411395431E0,7.349755764E-1
3.359348000E1,-3.794345856E-1,1.139560342E0,4.555658400E-1
3.361348000E1,-4.062602818E-1,6.895097494E-1,1.494350880E-1
3.363348000E1,-3.088709116E-1,2.604903877E-1,1.590867639E-1
3.365348000E1,-1.000597253E-1,4.166100919E-2,4.032059610E-1
3.367348000E1,2.136632055E-1,2.193878777E-2,6.383192539E-1
3.369348000E1,4.725304544E-1,1.074773744E-1,5.931676030E-1
3.371348000E1,4.830198586E-1,1.939235330E-1,4.207290709E-1
3.373348000E1,2.457074523E-1,4.181110859E-1,3.286629617E-1
3.375348000E1,1.024508290E-2,6.872233748E-1,3.734306395E-1
3.377348000E1,-1.224348471E-1,8.432732821E-1,3.557679057E-1
3.379348000E1,-2.404714674E-1,6.405881643E-1,2.789908946E-1
3.381348000E1,-4.421791732E-1,1.505346447E-1,1.772381812E-1
3.383348000E1,-5.126032233E-1,-4.304679930E-1,1.252971888E-1
3.385348000E1,-3.939731717E-1,-9.308713675E-1,1.276708394E-1
3.387348000E1,-1.860171854E-1,-1.351722598E0,1.449670494E-1
3.389348000E1,9.250245057E-4,-1.696128368E0,8.859290928E-2
3.391348000E1,1.380555425E-2,-1.988087058E0,-1.884606481E-1
3.393348000E1,-4.424409568E-2,-1.926895857E0,-4.847652018E-1
3.395348313E1,-6.089453772E-2,-1.409807205E0,-6.475695372E-1
3.397548000E1,-1.577428579E-1,-6.422986388E-1,-5.825734735E-1
3.399548156E1,-5.924519897E-1,2.764252424E-1,-5.994507670E-1
3.401548156E1,-9.848194718E-1,1.104653835E0,-4.697553813E-1
3.403548156E1,-1.157432556E0,1.426771760E0,-4.361403286E-1
3.405748000E1,-1.248416543E0,1.031070709E0,-8.279667497E-1
3.407748000E1,-1.316536784E0,6.542890072E-1,-1.247299552E0
3.409748156E1,-9.669996500E-1,3.727848828E-1,-1.267667532E0
3.411948000E1,-4.230678082E-1,4.239404798E-1,-8.347735405E-1
3.413948000E1,-1.012290944E-3,6.520724893E-1,-9.738937020E-2
3.415948000E1,3.701668680E-1,6.005503535E-1,5.864655375E-1
3.417948000E1,7.509279251E-1,3.124139309E-1,8.990539908E-1
3.419948156E1,1.027894258E0,-2.497566119E-2,8.090822697E-1
3.422148000E1,1.292241812E0,-1.908342987E-1,5.452059507E-1
3.424148000E1,1.497614622E0,-2.698977292E-1,3.046995699E-1
3.426148000E1,1.513252854E0,-2.471037209E-1,6.227334589E-2
3.428148000E1,1.267074108E0,-7.585200667E-2,-2.336821258E-1
3.430148000E1,8.606742024E-1,1.219985113E-1,-4.365766644E-1
3.432148000E1,4.091226161E-1,1.844114810E-1,-5.610709786E-1
3.434148000E1,6.391395628E-2,5.920156837E-2,-6.339035630E-1
3.436148000E1,-1.086816490E-1,-1.399928629E-1,-6.414259672E-1
3.438148000E1,-3.153460920E-1,-1.706582904E-1,-5.960124731E-1
3.440148000E1,-4.003436267E-1,-5.923647434E-2,-5.214171410E-1
3.442148000E1,-2.661801577E-1,2.377662063E-1,-3.803246915E-1
3.444148000E1,-2.510481477E-1,6.283534169E-1,-2.569822669E-1
3.446148000E1,-4.048814774E-1,7.911053896E-1,-2.318320870E-1
3.448148000E1,-6.486690640E-1,8.826479316E-1,-2.017600536E-1
3.450148000E1,-7.334920764E-1,7.753624916E-1,8.600982279E-2
3.452148000E1,-5.974611044E-1,4.888318181E-1,3.614926040E-1
3.454148000E1,-2.768092155E-1,3.419798017E-1,3.446327150E-1
3.456148000E1,1.235169470E-1,1.404640973E-1,2.425658554E-1
3.458148000E1,4.057715833E-1,-2.823942602E-1,3.659082651E-1
3.460148000E1,4.743630290E-1,-6.066764593E-1,4.692841172E-1
3.462148000E1,3.207042515E-1,-9.164200425E-1,4.408352673E-1
3.464148000E1,1.846558414E-2,-1.037510991E0,3.292738199E-1
3.466148000E1,-3.698178232E-1,-7.934964895E-1,1.816364080E-1
3.468148000E1,-4.799306393E-1,-4.468915462E-1,5.605997518E-2
3.470148000E1,-2.918888628E-1,-9.091419727E-2,1.628392190E-2
3.472148000E1,-9.234537184E-2,1.463633180E-1,7.459536940E-2
3.474148000E1,-1.300095767E-1,5.321509019E-2,1.685289890E-1
3.476148000E1,-2.686934471E-1,-3.393792808E-1,2.089508176E-1
3.478148000E1,-2.177298218E-1,-7.175746560E-1,2.003637999E-1
3.480148000E1,6.684610993E-2,-1.071998715E0,1.772556454E-1
3.482148000E1,4.768239558E-1,-1.269936442E0,1.464505792E-1
3.484148000E1,7.817329764E-1,-1.372998118E0,9.862855822E-2
3.486148000E1,7.061776519E-1,-1.681659579E0,-1.246514171E-1
3.488148000E1,4.438721240E-1,-1.679652452E0,-4.644844830E-1
3.490148000E1,1.621934474E-1,-1.071789265E0,-7.729015946E-1
3.492148000E1,-1.768367589E-1,1.963495463E-2,-8.825432062E-1
3.494148000E1,-6.480756402E-1,1.045347452E0,-7.455872297E-1
3.496148000E1,-9.469807148E-1,1.482814312E0,-5.904623270E-1
3.498148000E1,-1.090289712E0,1.355317950E0,-5.162683725E-1
3.500148000E1,-1.143208146E0,8.050505519E-1,-6.658605337E-1
3.502148000E1,-1.349628210E0,3.476521373E-1,-8.861210942E-1
3.504148000E1,-1.269011497E0,-1.253670007E-1,-9.077806473E-1
3.506148000E1,-1.191239595E0,-2.640857697E-1,-8.234637976E-1
3.508148000E1,-9.070650339E-1,-9.826203808E-3,-5.016425252E-1
3.510148000E1,-3.817907870E-1,3.522074521E-1,-1.804670505E-2
3.512148000E1,2.667212188E-1,4.396484494E-1,3.799930811E-1
3.514148000E1,8.126427531E-1,3.074746430E-1,5.095837712E-1
3.516148000E1,1.175828338E0,8.986700326E-2,4.693888426E-1
3.518148000E1,1.311213493E0,-1.489114910E-1,2.678556740E-1
3.520148000E1,1.150817752E0,-3.094294071E-1,-2.391101094E-3
3.522148000E1,7.132113576E-1,-4.449018836E-1,-3.060085773E-1
3.524148000E1,7.518878579E-2,-3.473030627E-1,-6.329262257E-1
3.526148000E1,-4.559498131E-1,-1.534318924E-1,-8.220326304E-1
3.528148000E1,-7.520623803E-1,-1.656142920E-1,-9.057909846E-1
3.530148000E1,-7.355166674E-1,-2.215520889E-1,-8.524013758E-1
3.532148000E1,-5.354146361E-1,-3.953170776E-1,-6.741857529E-1
3.534148000E1,-4.607669264E-2,-5.614200830E-1,-4.927762449E-1
3.536148000E1,8.078780174E-1,-3.052755296E-1,-1.799608916E-1
3.538148000E1,1.468938947E0,-1.616524011E-1,2.034006715E-1
3.540148000E1,1.784424663E0,6.325073540E-2,4.424758852E-1
3.542148000E1,1.797863603E0,4.551295042E-1,7.025125027E-1
3.544148000E1,1.606680274E0,8.115780950E-1,1.064842820E0
3.546148000E1,1.119715929E0,8.105483651E-1,1.147012949E0
3.548148000E1,8.656135201E-1,7.364591360E-1,7.639829516E-1
3.550148000E1,9.549743533E-1,5.711066127E-1,4.366813898E-1
3.552148000E1,8.463101387E-1,3.770260215E-1,4.087561071E-1
3.554148000E1,8.579689264E-1,3.412118554E-2,5.864131451E-1
3.556148000E1,9.207135439E-1,-2.712590694E-1,9.079551697E-1
3.558348000E1,8.326442242E-1,-7.010114789E-1,9.690067768E-1
3.560348000E1,4.724082649E-1,-5.574232340E-1,8.426623940E-1
3.562348000E1,3.054849803E-1,-3.060784042E-1,6.605373025E-1
3.564348000E1,2.313259393E-1,-2.731440216E-2,5.229355693E-1
3.566348000E1,1.924923658E-1,1.639562249E-1,5.041034222E-1
3.568348000E1,1.528210342E-1,9.623745829E-2,5.273512602E-1
3.570348156E1,-2.171189524E-2,-8.197811246E-2,4.708549380E-1
3.572548000E1,-2.494948208E-1,-3.761708140E-1,4.619013965E-1
3.574548156E1,-2.155830711E-1,-7.311184406E-1,4.135383070E-1
3.576548156E1,1.883210242E-2,-1.181553006E0,3.662573397E-1
3.578548156E1,3.020990491E-1,-1.323605299E0,3.045948744E-1
3.580548156E1,3.777939677E-1,-1.145703912E0,1.528035700E-1
3.582748000E1,1.842544079E-1,-5.947034955E-1,-3.396410868E-2
3.584748000E1,-1.208116934E-1,-1.035852879E-1,-2.278701812E-1
3.586748000E1,-4.130496085E-1,3.876201808E-1,-4.600513279E-1
3.588748156E1,-7.265980244E-1,8.543386459E-1,-7.348534465E-1
3.590948000E1,-1.439879179E0,1.202688932E0,-1.144691586E0
3.592948000E1,-2.145358801E0,1.256096005E0,-1.527547121E0
3.594948000E1,-2.399443626E0,1.164064765E0,-1.753252983E0
3.596948000E1,-2.055613995E0,9.304175973E-1,-1.772294641E0
3.598948000E1,-1.527948499E0,1.056203485E0,-1.391725540E0
3.600948000E1,-1.163000107E0,1.189424396E0,-7.550294399E-1
3.602948000E1,-8.154352903E-1,1.229758978E0,1.637118869E-2
3.604948000E1,-3.834139407E-1,8.069529533E-1,6.268349886E-1
3.606948000E1,1.281595230E-1,2.401049435E-1,8.206537962E-1
3.608948000E1,5.883504748E-1,-8.803440630E-2,7.294080257E-1
3.610948000E1,8.493469954E-1,-8.428195119E-2,6.017720699E-1
3.612948000E1,8.547226191E-1,-3.558726236E-2,4.717625082E-1
3.614948000E1,6.257354617E-1,-1.271123290E-1,2.915223539E-1
3.616948000E1,2.614154220E-1,-2.878397107E-1,4.274311289E-2
3.618948000E1,-6.417575479E-2,-3.299370408E-1,-1.175653785E-1
3.620948000E1,-4.127529263E-1,-1.929112375E-1,-1.131147891E-1
3.622948000E1,-7.698822021E-1,-1.080707833E-1,-9.190903604E-2
3.624948000E1,-9.229126573E-1,-2.583959997E-1,-1.027649865E-1
3.626948000E1,-8.154527545E-1,-3.590142131E-1,-3.228859231E-2
3.628948156E1,-5.338962078E-1,-9.264207631E-2,1.276184767E-1
3.631148000E1,-1.902408898E-1,1.274264902E-1,4.047942162E-1
3.633148000E1,2.755176723E-1,3.735528290E-1,6.429793239E-1
3.635148000E1,6.491752267E-1,6.145653129E-1,8.371471763E-1
3.637148156E1,6.021909714E-1,6.973637342E-1,8.309338093E-1
3.639348000E1,8.140215874E-1,5.145754218E-1,4.429471195E-1
3.641348000E1,1.218868136E0,1.042485163E-1,-1.640609466E-3
3.643348000E1,1.330831051E0,-4.342728257E-1,-1.986708343E-1
3.645348000E1,1.215586901E0,-7.087956667E-1,-1.049291939E-1
3.647348000E1,9.388824105E-1,-7.121641636E-1,1.446354389E-1
3.649348000E1,3.736400902E-1,-4.230678082E-1,3.457148075E-1
3.651348000E1,1.127482671E-2,-1.740442365E-1,3.592760265E-1
3.653348000E1,6.195918843E-2,-8.738863468E-2,3.603232205E-1
3.655348000E1,3.225019276E-1,-3.143338114E-2,4.321784377E-1
3.657348000E1,5.677905083E-1,-6.749188155E-2,5.861164927E-1
3.659348000E1,5.601285100E-1,-2.240130156E-1,7.419743538E-1
3.661348000E1,3.619114757E-1,-3.638313413E-1,8.669050336E-1
3.663348000E1,1.574985087E-1,-6.146002412E-1,8.567996025E-1
3.665348000E1,9.793042392E-2,-7.403686643E-1,8.196938634E-1
3.667348000E1,9.553932399E-2,-7.851887345E-1,7.854854465E-1
3.669348000E1,-4.553563893E-2,-8.408297896E-1,6.369404793E-1
3.671348000E1,-4.904375076E-1,-9.772621989E-1,3.118728697E-1
3.673348000E1,-9.157916903E-1,-1.207244277E0,3.665191308E-2
3.675348000E1,-9.179733992E-1,-1.398479939E0,-1.635722518E-1
3.677348000E1,-6.139020920E-1,-1.160626531E0,-2.676811516E-1
3.679348000E1,-3.676536083E-1,-4.164704680E-1,-3.165329099E-1
3.681348000E1,-4.903328121E-1,5.717175007E-1,-3.682470322E-1
3.683348000E1,-9.458637238E-1,1.138303757E0,-4.365068376E-1
3.685348000E1,-1.344898343E0,1.123189211E0,-7.021459341E-1
3.687348000E1,-1.218274713E0,9.505586624E-1,-1.012378216E0
3.689348000E1,-9.029461145E-1,8.396430016E-1,-9.758484960E-1
3.691348000E1,-7.491476536E-1,9.858841300E-1,-6.885498166E-1
3.693348000E1,-7.809301019E-1,1.106189728E0,-3.930481374E-1
3.695348000E1,-8.539896011E-1,1.130851150E0,-1.638166010E-1
3.697348000E1,-7.208733559E-1,9.761800766E-1,2.186897583E-2
3.699348000E1,-3.753156066E-1,7.109249830E-1,1.355946362E-1
3.701348000E1,8.543386310E-2,3.348937631E-1,1.717927605E-1
3.703348000E1,4.285830557E-1,-3.033382259E-2,1.760513633E-1
3.705348000E1,5.801299810E-1,-2.073451132E-1,1.603783071E-1
3.707348000E1,5.444729328E-1,-3.326772153E-1,1.333431602E-1
3.709348000E1,3.124139309E-1,-5.388355255E-1,4.577998444E-2
3.711348000E1,-4.113740847E-2,-6.950250268E-1,-8.456119895E-2
3.713348000E1,-4.474849701E-1,-7.109423876E-1,-1.856855750E-1
3.715348000E1,-7.775267363E-1,-7.162132859E-1,-2.147976756E-1
3.717348000E1,-9.092292786E-1,-5.829923153E-1,-1.985835582E-1
3.719348000E1,-1.048035264E0,-2.147453129E-1,-1.933650225E-1
3.721348000E1,-1.161883116E0,2.980847955E-1,-1.726654172E-1
3.723348000E1,-1.123852372E0,6.216339469E-1,-1.218588874E-1
3.725348000E1,-8.646884561E-1,5.720142126E-1,-2.605776489E-2
3.727348000E1,-3.349461257E-1,5.513145924E-1,2.719746530E-1
3.729348000E1,-5.061454605E-3,7.039610744E-1,3.548254371E-1
3.731348000E1,3.993313313E-1,7.779805064E-1,-2.001543641E-1
3.733348000E1,1.085891485E0,5.454502702E-1,-7.915766239E-1
3.735348000E1,1.343414783E0,-1.480039209E-2,-9.367182255E-1
3.737348000E1,1.222062111E0,-4.811349213E-1,-7.537902594E-1
3.739348000E1,1.018696308E0,-6.701540947E-1,-4.225442111E-1
3.741348000E1,9.222669005E-1,-6.774669886E-1,-2.110801190E-1
3.743348000E1,8.181231022E-1,-3.994534910E-1,-1.160643920E-1
3.745348000E1,5.403015614E-1,-3.427826613E-2,-1.310742274E-2
3.747348000E1,1.936442852E-1,2.782403827E-1,1.006705910E-1
3.749348000E1,-7.012733072E-2,4.761258066E-1,1.867851317E-1
3.751548156E1,-1.996307522E-1,4.693888426E-1,2.718699276E-1
3.753548156E1,-1.380729973E-1,1.556310058E-1,3.374594152E-1
3.755548156E1,-5.684537441E-2,-1.867851317E-1,3.845658600E-1
3.757748000E1,1.886875480E-1,-6.634520292E-1,3.788586259E-1
3.759748000E1,4.314279258E-1,-9.584649801E-1,4.050385654E-1
3.761748000E1,5.448917747E-1,-1.176753283E0,3.736226261E-1
3.763748000E1,3.934844732E-1,-1.253233671E0,2.281668931E-1
3.765748000E1,3.228859231E-2,-1.477892399E0,-1.902932525E-1
3.767748000E1,-2.854835093E-1,-1.535837412E0,-6.942745447E-1
3.769748000E1,-3.822445571E-1,-8.300960660E-1,-9.402786493E-1
3.771748000E1,-4.975759089E-1,2.500358820E-1,-7.826579809E-1
3.773748000E1,-9.141162038E-1,9.209753275E-1,-5.241223574E-1
3.775748000E1,-1.325350642E0,1.087008476E0,-4.420395494E-1
3.777748000E1,-1.424363256E0,8.793666959E-1,-5.407029986E-1
3.779748000E1,-1.306344032E0,8.639554381E-1,-5.743878484E-1
3.781748000E1,-9.845926166E-1,1.000195861E0,-3.774448931E-1
3.783748000E1,-7.267725468E-1,1.049169779E0,-5.619960371E-3
3.785748000E1,-5.419596434E-1,8.283157945E-1,3.609864414E-1
3.787748000E1,-3.136182129E-1,4.280070961E-1,5.988922715E-1
3.789748000E1,1.813396998E-2,1.690525860E-1,6.370800734E-1
3.791748000E1,4.156326950E-1,2.001543641E-1,4.907865822E-1
3.793748000E1,7.521321774E-1,3.658559024E-1,3.275634050E-1
3.795748000E1,9.164549112E-1,4.939456284E-1,2.614154220E-1
3.797748000E1,8.986700177E-1,5.505990386E-1,2.610139847E-1
3.799748000E1,7.645065784E-1,4.181459844E-1,2.202081978E-1
3.801748000E1,6.109699607E-1,2.290919125E-1,1.365371048E-1
3.803748000E1,5.098455548E-1,7.073819637E-2,9.023352526E-3
3.805748000E1,4.548851550E-1,-1.547408849E-1,-5.614724010E-2
3.807748000E1,2.880665958E-1,-4.414635897E-1,-9.826203436E-2
3.809748000E1,4.605923966E-2,-5.594478250E-1,-1.338318437E-1
3.811748000E1,-1.342158206E-2,-4.021936655E-1,-7.422885299E-2
3.813748000E1,-6.346017122E-2,-2.984513063E-3,4.886921868E-2
3.815748000E1,-2.409078032E-1,3.188716471E-1,1.768716723E-1
3.817748000E1,-4.120896757E-1,3.972369432E-1,2.923426628E-1
3.819748000E1,-3.428175747E-1,2.203478217E-1,5.584704280E-1
3.821748000E1,-1.296081543E-1,1.215447262E-1,7.130368352E-1
3.823748000E1,-9.386380762E-2,2.347467840E-2,3.819827735E-1
3.825748000E1,7.147122920E-2,2.775596976E-1,-6.339035928E-2
3.827748000E1,4.138524830E-1,2.789036036E-1,-1.660680771E-1
3.829748000E1,6.043202281E-1,1.473581493E-1,7.794640213E-2
3.831748000E1,6.007423401E-1,-8.056439459E-2,1.834864616E-1
3.833748000E1,5.132140517E-1,-3.106336892E-1,9.595820308E-2
3.835748000E1,2.239781022E-1,-4.817457795E-1,-4.105014354E-2
3.837748000E1,-7.012733072E-2,-3.834837377E-1,-1.636420637E-1
3.839748000E1,-1.232551485E-1,-7.386233658E-2,-1.611637026E-1
3.841748000E1,-4.450589418E-3,3.155555129E-1,-4.553563893E-2
3.843748000E1,8.372344077E-2,5.308244228E-1,1.287703961E-1
3.845748156E1,2.497566119E-2,3.863635361E-1,2.555162013E-1
3.847948000E1,3.979350626E-2,-1.948136538E-1,2.290221006E-1
3.849948000E1,9.508553892E-2,-7.652570605E-1,1.704663038E-1
3.851948000E1,1.052957103E-1,-1.045260191E0,2.222502232E-1
3.853948000E1,7.586946338E-2,-1.161254764E0,2.745053768E-1
3.855948000E1,5.803219602E-2,-1.193560839E0,2.055823356E-1
3.857948000E1,1.780235791E-3,-1.106015086E0,-1.090830751E-2
3.859948000E1,-3.386811316E-1,-1.011069179E0,-3.282266259E-1
3.862148000E1,-6.144431829E-1,-5.374916196E-1,-6.311983466E-1
3.864148000E1,-5.577024817E-1,2.581691146E-1,-6.109524965E-1
3.866148000E1,-4.749913514E-1,1.136261702E0,-3.590665758E-1
3.868148000E1,-6.553885937E-1,1.345893145E0,-2.975437343E-1
3.870148469E1,-7.830419540E-1,1.017649174E0,-5.338613391E-1
3.872348000E1,-7.911228538E-1,9.527927041E-1,-6.450038552E-1
3.874348000E1,-8.714603186E-1,9.264556766E-1,-5.549448729E-1
3.876348000E1,-9.591456652E-1,9.606815577E-1,-3.734830022E-1
3.878348000E1,-8.364315629E-1,8.080874681E-1,-1.288402081E-1
3.880348000E1,-5.324127078E-1,5.438795090E-1,1.118057892E-1
3.882348000E1,-1.175130159E-1,3.495720029E-1,2.939658165E-1
3.884348000E1,4.715355933E-1,2.673844397E-1,4.033281207E-1
3.886348000E1,1.020389318E0,2.372076958E-1,4.957782328E-1
3.888348000E1,1.297233462E0,1.598896086E-1,5.583133698E-1
3.890348000E1,1.328492284E0,-4.724606127E-2,5.006825924E-1
3.892348000E1,1.082051754E0,-3.481757343E-1,3.120125234E-1
3.894348000E1,6.339734197E-1,-6.075142026E-1,-7.557275705E-3
3.896348000E1,9.295623749E-2,-6.384589076E-1,-3.594156504E-1
3.898348000E1,-4.188092053E-1,-5.908114314E-1,-6.755820513E-1
3.900348000E1,-7.397577763E-1,-2.735803723E-1,-8.116478920E-1
3.902348000E1,-9.139590859E-1,4.761781693E-1,-8.180707097E-1
3.904348000E1,-9.198408723E-1,1.332436681E0,-6.708347201E-1
3.906348000E1,-7.898487449E-1,1.968434691E0,-3.360806108E-1
3.908348000E1,-7.361973524E-1,1.996813774E0,-3.633775562E-2
3.910348000E1,-5.844758749E-1,1.533463717E0,-4.817108624E-3
3.912348000E1,-3.670776486E-1,9.213244319E-1,2.040289901E-2
3.914348000E1,-2.917492390E-1,3.121172190E-1,-3.295181692E-2
3.916348000E1,-4.556879997E-1,-5.564109609E-2,-4.446749985E-1
3.918348000E1,-4.137477577E-1,-1.528384835E-1,-6.312856078E-1
3.920348156E1,-1.910786480E-1,-3.058165908E-1,-2.885901928E-1
3.922548156E1,2.080257982E-1,-2.662499845E-1,4.079357982E-1
3.924548156E1,6.926687956E-1,-3.222750425E-1,7.206289768E-1
3.926548156E1,1.076344490E0,-5.793097019E-1,6.865601540E-1
3.928548156E1,1.099243283E0,-7.979470491E-1,4.694761038E-1
3.930548156E1,9.245532751E-1,-5.814215541E-1,3.687182665E-1
3.932748000E1,6.497686505E-1,-1.049117446E-1,3.938684464E-1
3.934748000E1,3.907966614E-1,2.269626111E-1,4.418126345E-1
3.936748000E1,1.469567269E-1,2.139773667E-1,4.623377025E-1
3.938748156E1,-4.176572710E-2,1.099557430E-1,4.139397442E-1
3.940948000E1,-2.750988007E-1,-4.297349751E-1,3.364820182E-1
3.942948000E1,-2.380978167E-1,-8.922123313E-1,2.934596539E-1
3.944948000E1,3.961897455E-3,-1.245466948E0,2.720793784E-1
3.946948000E1,2.356194556E-1,-1.556851149E0,1.495049000E-1
3.948948000E1,1.660855263E-1,-2.002555847E0,-1.049117446E-1
3.950948000E1,-2.042035200E-2,-2.110766172E0,-5.225864649E-1
3.952948000E1,-1.573065221E-1,-1.449391246E0,-7.748738527E-1
3.954948000E1,-2.297551483E-1,-2.265088260E-1,-6.660699844E-1
3.956948000E1,-2.059837580E-1,6.067113280E-1,-3.684389964E-2
3.958948000E1,-1.834166497E-1,4.737521708E-1,3.674790859E-1
3.960948000E1,-1.605353802E-1,-3.341956437E-1,1.166229025E-1
3.962948000E1,-8.009316027E-2,-7.694982290E-1,-3.189763725E-1
3.964948000E1,-1.590867639E-1,-6.159964800E-1,-6.419669986E-1
3.966948000E1,-5.685235262E-1,8.524188399E-2,-6.178290844E-1
3.968948000E1,-1.015781641E0,8.752826452E-1,-3.575656116E-1
3.970948000E1,-1.251488328E0,1.275713563E0,-1.714611501E-1
3.972948469E1,-1.157711744E0,1.137972116E0,-1.195550561E-1
3.975148000E1,-6.091198921E-1,7.907214165E-1,-1.223999411E-1
3.977148000E1,7.929030806E-2,6.383367181E-1,-5.218534544E-2
3.979148000E1,6.201853156E-1,3.758392036E-1,8.578293025E-2
3.981148000E1,8.015424609E-1,4.565781355E-2,1.184904054E-1
3.983148000E1,6.482501626E-1,-3.045599461E-1,-2.426007576E-2
3.985148000E1,2.967757881E-1,-5.941973329E-1,-2.807187438E-1
3.987148156E1,-1.013512686E-1,-7.391644120E-1,-5.071228743E-1
3.989348000E1,-5.566552877E-1,-5.966233611E-1,-6.204820275E-1
3.991348000E1,-7.922922373E-1,-1.287878454E-1,-5.517858267E-1
3.993348000E1,-9.659001231E-1,4.069758654E-1,-2.631781995E-1
3.995348000E1,-1.068176389E0,5.758888125E-1,3.455228209E-1
3.997348000E1,-8.554207683E-1,4.873482883E-1,8.598713875E-1
3.999348000E1,-3.980572522E-1,3.229906261E-1,9.589362741E-1
4.001348000E1,2.855009437E-1,2.417979091E-1,9.855001569E-1
4.003348000E1,9.505237341E-1,3.788411617E-1,1.249882579E0
4.005348000E1,1.087793946E0,5.246285200E-1,1.336730242E0
4.007348000E1,8.102341890E-1,6.505191326E-1,8.876395226E-1
4.009348000E1,3.065845370E-1,4.917290509E-1,4.726351500E-1
4.011348000E1,-1.877974272E-1,-2.223549411E-2,1.844289452E-1
4.013348000E1,1.780235791E-3,-8.648281097E-1,-1.303760987E-2
4.015348000E1,3.336720467E-1,-8.256803751E-1,-5.084143952E-2
4.017348000E1,7.423408628E-1,-5.823116302E-1,1.069537774E-1
4.019348000E1,9.197361469E-1,-2.981720567E-1,2.809107304E-1
4.021348000E1,1.054423213E0,-1.493303776E-1,4.189488292E-1
4.023348000E1,1.189075351E0,-2.342929989E-1,5.743529201E-1
4.025348000E1,1.263618350E0,-5.881061554E-1,5.385562181E-1
4.027348000E1,1.063970208E0,-9.168912768E-1,3.312111199E-1
