"Time (s)","Gyroscope x (rad/s)","Gyroscope y (rad/s)","Gyroscope z (rad/s)"
1.568525630E-1,1.998314738E0,4.602782428E-1,-3.900112808E-1
1.768525630E-1,1.892076492E0,-1.786518991E-1,5.580341220E-1
1.968525630E-1,1.515382171E0,-1.165391207E0,1.416753531E0
2.168525630E-1,7.771427631E-1,-1.673090100E0,2.405185938E0
2.368525630E-1,-6.471680999E-1,-1.130310178E0,2.597398996E0
2.568525630E-1,-9.314996600E-1,-3.758915663E-1,1.403681040E0
2.768525630E-1,-7.119721770E-1,4.704709649E-1,-5.367236733E-1
2.988510000E-1,-7.349755764E-1,1.660157204E0,-1.697001100E0
3.188510000E-1,-6.733480096E-1,1.596278071E0,-1.417713523E0
3.388525630E-1,1.994038671E-1,1.370676875E0,-6.563135982E-1
3.588728750E-1,3.319965303E-1,1.476129651E0,-1.377902508E0
3.808525630E-1,-2.780658603E-1,1.854220390E0,-2.545841932E0
4.028525630E-1,-2.893755957E-2,1.814706087E0,-2.459168911E0
4.248525630E-1,6.897889972E-1,1.563954592E0,-1.265992045E0
4.448588130E-1,1.001225591E0,9.899681807E-1,-1.354026496E-1
4.668525630E-1,3.263591230E-1,5.749114752E-1,1.807463020E-1
4.888525630E-1,-1.522974372E-1,5.984385014E-1,3.023608327E-1
5.108510000E-1,2.425134927E-1,9.760230184E-1,3.260973096E-1
5.308525630E-1,8.849517703E-1,1.329975843E0,2.560223341E-1
5.528525630E-1,8.644790053E-1,9.362818599E-1,-1.819680333E-1
5.748603750E-1,7.875449061E-1,1.487893164E-1,2.731440365E-1
5.968588130E-1,5.278748274E-1,2.335948646E-1,4.128750861E-1
6.188510000E-1,2.893057764E-1,-3.615100384E-1,1.979727000E-1
6.388525630E-1,4.722511768E-1,-9.224239588E-1,6.512870789E-1
6.588713130E-1,7.224266529E-1,-1.685045600E0,6.427524090E-1
6.808510000E-1,4.649208188E-1,-2.016204357E0,-1.005833223E-1
7.008572500E-1,5.110324174E-2,-1.971139908E0,-4.730016887E-1
7.228510000E-1,-2.115339041E-2,-1.732309103E0,-8.030958176E-1
7.428556880E-1,3.846531212E-1,-1.268732190E0,-6.583731174E-1
7.648525630E-1,8.083667159E-1,-6.608863473E-1,-6.902776957E-1
7.848603750E-1,3.320314288E-1,5.988224596E-2,-3.387334943E-1
8.068510000E-1,-1.998751014E-1,-4.227187485E-2,1.885828227E-1
8.268525630E-1,-5.960299447E-2,1.804146916E-1,1.462062299E-1
8.488525630E-1,2.506991029E-1,6.871361285E-2,-2.507514656E-1
8.708525630E-1,6.802245975E-1,-1.188743785E-1,-5.772851110E-1
8.928556880E-1,5.146976113E-1,-1.895427555E-1,-2.110626698E-1
9.148510000E-1,-2.797937393E-1,-2.915747166E-1,1.221206859E-1
9.348525630E-1,-8.176344037E-1,-2.781182230E-1,4.598244429E-1
9.568525630E-1,-6.915692687E-1,-1.913928092E-1,4.035724699E-1
9.768525630E-1,-1.170766875E-1,3.546159863E-1,-2.548878789E-1
9.988619380E-1,-9.512044489E-3,4.184950590E-1,-6.216688156E-1
1.020852563E0,-1.821425557E-1,3.990346193E-1,-9.632995725E-1
1.040857250E0,-1.029744279E-3,6.023829579E-1,-1.734002113E0
1.062851000E0,3.138101846E-2,1.717072368E0,-1.983374715E0
1.082851000E0,-6.953391433E-2,2.022086143E0,-2.358166695E0
1.102851000E0,8.543561101E-1,1.664188862E0,-2.347485304E0
1.122851000E0,1.127238393E0,1.718957305E0,-2.129807711E0
1.142851000E0,7.290240526E-1,1.662548304E0,-2.075981855E0
1.162852563E0,6.590014100E-1,1.158985853E0,-1.423647642E0
1.184851000E0,7.863231897E-1,3.396410644E-1,-7.065965533E-1
1.204860375E0,8.627511263E-1,-1.202880889E-1,-3.007027805E-1
1.226852563E0,1.053306222E0,-3.633251786E-1,1.684940904E-1
1.246852563E0,1.053550601E0,-8.635888994E-2,2.817834020E-1
1.268855688E0,8.929104209E-1,4.354945421E-1,-2.193180770E-1
1.290857250E0,5.182406306E-1,5.767091513E-1,2.091777027E-1
1.312851000E0,2.104867063E-2,9.497209191E-1,8.960869312E-1
1.332851000E0,-6.384589076E-1,1.242133379E0,3.334975243E-1
1.352851000E0,-5.545260310E-1,-2.029119730E-1,-6.220004559E-1
1.372851000E0,-1.266410947E-1,-7.309264541E-1,-1.199407697E0
1.392851000E0,-2.028247118E-1,7.400196195E-1,-1.961802483E0
1.412851000E0,-2.923251987E-1,1.798788667E0,-2.304550171E0
1.432851000E0,-6.717772037E-2,1.667121053E0,-1.483512402E0
1.452851000E0,1.527861208E-1,1.200018525E0,3.089232743E-1
1.472851000E0,-4.328416660E-3,1.338109016E0,1.380415797E0
1.492851000E0,-1.394518018E-1,2.976309955E-1,1.379822373E0
1.512851000E0,5.797983706E-2,-1.460474014E0,4.675213397E-1
1.532851000E0,7.103490178E-3,-1.763271213E0,-7.173478007E-1
1.552851000E0,-1.004436985E-1,-6.248627901E-1,-9.324072599E-1
1.572851000E0,1.854063272E-1,4.911356568E-1,-1.101215482E0
1.592851000E0,2.367015481E-1,3.602883220E-1,-1.895026088E0
1.612851000E0,6.223843992E-2,7.803367078E-2,-2.252609253E0
1.632851000E0,-1.913578957E-1,4.815537930E-1,-1.827150226E0
1.652851000E0,-1.237787530E-1,7.504392266E-1,-1.164501071E0
1.672851000E0,-1.002517119E-1,-3.396759629E-1,-6.461034417E-1
1.692852563E0,-4.505916536E-1,-1.243931055E0,-3.068288788E-2
1.714852563E0,-1.113747001E0,-1.966218114E0,-2.563888580E-2
1.734852563E0,-1.840728998E0,-1.781632066E0,-3.325724900E-1
1.756851000E0,-2.148570061E0,-4.656713009E-1,-9.113934636E-1
1.776852563E0,-2.101236820E0,2.084272206E-1,-1.341896415E0
1.796852563E0,-1.899389505E0,3.065321743E-1,-1.231329799E0
1.816852563E0,-1.093919992E0,2.354449183E-1,-5.218883753E-1
1.836852563E0,3.511602432E-2,1.224889517E0,8.899433613E-1
1.858872875E0,6.789854169E-1,1.899982929E0,1.527686715E0
1.880851000E0,1.151428580E0,1.654258013E0,1.682026148E0
1.900851000E0,1.371758938E0,1.670315027E0,1.213684559E0
1.920851000E0,1.168689966E0,3.022770643E0,5.458168387E-1
1.940851000E0,1.413507223E0,3.365902424E0,6.008819342E-1
1.960851000E0,2.192342997E0,2.711613417E0,9.619731307E-1
1.980851000E0,2.858465433E0,1.731750607E0,3.509333432E-1
2.000851000E0,2.920564175E0,1.025119185E0,-8.410916328E-1
2.020851000E0,1.795053720E0,9.857794046E-1,-7.320085168E-1
2.040851000E0,1.464401007E0,5.796238184E-1,-4.497189820E-1
2.060851000E0,1.340569973E0,-1.860171854E-1,-6.557376385E-1
2.080851000E0,6.959500313E-1,-7.734600902E-1,-4.537855983E-1
2.100851000E0,7.320085168E-1,-3.925071061E-1,-2.918016016E-1
2.120851000E0,1.627606750E0,7.429866791E-1,-3.059038520E-1
2.140851000E0,2.290360689E0,1.108964801E0,-3.298672140E-1
2.160851000E0,1.639457583E0,-1.102873534E-1,-1.059414819E-2
2.180851000E0,1.030948520E0,-1.104426861E0,3.175103068E-1
2.200851000E0,8.156098127E-1,-1.196440697E0,5.321509019E-2
2.220851000E0,7.363369465E-1,-1.063743234E0,-5.645442009E-1
2.240851000E0,1.160853386E0,-2.225504160E0,-5.217836499E-1
2.260851000E0,1.173803687E0,-2.785248756E0,-2.401573025E-2
2.280851000E0,1.064441442E0,-2.517340660E0,1.084547564E-1
2.300851000E0,1.766133547E0,-1.834969401E0,2.847679257E-1
2.320851000E0,2.141379356E0,-1.807044029E0,6.319662929E-1
2.340851000E0,2.246692419E0,-1.559277177E0,4.440815747E-1
2.360851000E0,2.229605675E0,-8.492074013E-1,-3.896447420E-1
2.380851000E0,1.549328804E0,-4.452334940E-1,-3.809530139E-1
2.400851000E0,1.244367361E0,-4.667708576E-1,-1.918814927E-1
2.420851000E0,1.221590877E0,-2.476971298E-1,-1.545488983E-1
2.440851000E0,1.341913819E0,-4.954989627E-2,-9.346237779E-2
2.460851000E0,1.159980774E0,-2.531774640E-1,7.466518879E-2
2.480851000E0,9.674708843E-1,-3.314031065E-1,-3.289945796E-2
2.500851000E0,7.529699206E-1,-3.261496723E-1,3.623303398E-2
2.520851000E0,6.179512739E-1,-3.234269619E-1,-1.284562331E-2
2.540851000E0,5.655564666E-1,-2.477843910E-1,-1.453335732E-1
2.560851000E0,4.700520635E-1,1.397659630E-1,-3.436902463E-1
2.580851000E0,4.626518786E-1,1.402895600E-1,-2.221280485E-1
2.600851000E0,3.782303035E-1,3.543018363E-3,-3.300592005E-1
2.620851000E0,2.499835044E-1,1.159073189E-1,-4.600862563E-1
2.640852563E0,2.399827689E-1,1.477246732E-1,-4.299618602E-1
2.660852563E0,2.011317462E-1,1.451415867E-1,-2.619041204E-1
2.682851000E0,1.977458000E-1,1.387536712E-2,-2.104517967E-1
2.702851000E0,1.177050024E-1,1.952499896E-1,-2.219884247E-1
2.722851000E0,1.355771720E-1,3.517536521E-1,-2.417280972E-1
2.742851000E0,2.410997748E-1,2.989050746E-1,-3.135483861E-1
2.762851000E0,2.919586897E-1,2.469117343E-1,-2.661277950E-1
2.782851000E0,1.884606481E-1,2.791654170E-1,-2.892185152E-1
2.802851000E0,1.359436959E-1,3.654893935E-1,-2.694962919E-1
2.822851000E0,2.729869485E-1,2.869321406E-1,-2.568077445E-1
2.842852563E0,4.911705554E-1,1.859299242E-1,-2.593908310E-1
2.864852563E0,5.981592536E-1,2.148500234E-1,-2.821499407E-1
2.884854125E0,4.641354084E-1,1.855110526E-1,-2.121098638E-1
2.906851000E0,2.127556354E-1,-2.748893499E-1,-7.871435024E-3
2.926851000E0,1.330464482E-1,-5.030388236E-1,4.440117627E-2
2.946851000E0,7.639306039E-2,-3.780034184E-1,-8.915141970E-2
2.966851000E0,1.054178830E-2,-3.598694503E-1,-1.791231334E-1
2.986851000E0,-1.448623254E-3,-2.908416688E-1,-2.153212726E-1
3.006851000E0,6.148795038E-2,-1.258382387E-2,-1.318596303E-1
3.026851000E0,1.454557329E-1,-7.962191850E-2,1.994911395E-2
3.046851000E0,1.900663525E-1,-4.723384678E-1,1.451590359E-1
3.066851000E0,2.532472648E-2,-4.908738434E-1,1.506568193E-1
3.086851000E0,-1.257160604E-1,-7.066838443E-2,1.903979629E-1
3.106852563E0,-1.585282534E-1,-1.862964481E-1,3.252421021E-1
3.128851000E0,3.577925032E-3,-7.068932652E-1,5.212251544E-1
3.148851000E0,3.768165782E-2,-5.929930806E-1,5.395510793E-1
3.168851000E0,-5.515240598E-3,-1.816887707E-1,3.955963254E-1
3.188851000E0,1.302015595E-2,-7.929030806E-2,2.001368999E-1
3.208851000E0,5.508258939E-2,-2.170666009E-1,1.093099713E-1
3.228851000E0,1.509360671E-1,-3.949680179E-2,-5.249950290E-2
3.248851000E0,1.941853315E-1,2.018996924E-1,-2.257234305E-1
3.268851000E0,2.078163475E-1,1.942027807E-1,-2.729345858E-1
3.288851000E0,1.458222568E-1,1.851968914E-1,-3.513696790E-1
3.308851000E0,1.533271670E-1,-6.511823088E-2,-4.295429885E-1
3.328851000E0,2.077988982E-1,-9.834930301E-2,-5.909160972E-1
3.348851000E0,2.540152073E-1,1.340761930E-1,-6.603103876E-1
3.368852563E0,2.029468864E-1,1.072155759E-1,-5.443332791E-1
3.388855688E0,1.883733869E-1,-2.468593717E-1,-3.861366510E-1
3.408858813E0,2.268055379E-1,-5.806186795E-1,-5.624323487E-1
3.430854125E0,1.506917328E-1,-3.049788177E-1,-4.175700247E-1
3.452851000E0,2.242573500E-1,-4.696855545E-1,-3.687880635E-1
3.472860375E0,1.864535213E-1,-2.357765287E-1,-2.187246680E-1
3.494851000E0,1.857030392E-1,-3.126757443E-1,-1.320690662E-1
3.514852563E0,1.082104146E-1,-1.691398621E-1,-1.045277715E-1
3.536852563E0,-4.401720315E-2,1.086816490E-1,-5.227261037E-2
3.558872875E0,-9.349729121E-2,-7.360053062E-2,1.506219152E-2
3.580851000E0,-1.958259381E-2,-1.472708881E-1,9.599311277E-3
3.600851000E0,-1.556484550E-1,4.869468510E-2,-3.211405827E-3
3.620851000E0,-1.727701426E-1,6.257005036E-2,-7.731808349E-3
3.640851000E0,-7.630579174E-2,-9.660397470E-2,8.012806624E-2
3.660852563E0,-4.223696887E-3,6.283185445E-3,7.707373798E-2
3.680858813E0,-4.312708601E-2,1.242150813E-1,5.363396928E-2
3.702851000E0,-1.794198528E-2,9.841911495E-2,3.830997646E-2
3.722851000E0,-1.338667516E-2,5.450663343E-2,4.900884628E-2
3.742851000E0,-6.539748609E-2,-4.415682983E-3,5.942846090E-2
3.762855688E0,-1.353328228E-1,4.972442985E-2,4.478514940E-2
3.784851000E0,-1.511280537E-1,1.213701963E-1,2.567379363E-2
3.804857250E0,-1.378111988E-1,1.611462533E-1,-1.288053021E-2
3.826852563E0,-9.880308807E-2,3.415609151E-2,2.052507177E-2
3.848852563E0,-1.047721133E-1,-2.333505265E-2,5.729915947E-2
3.870851000E0,-1.178969890E-1,2.314306609E-2,5.906194076E-2
3.890851000E0,-1.484053433E-1,5.007349700E-2,7.716100663E-2
3.910851000E0,-1.444958150E-1,6.597344577E-2,6.819001585E-2
3.930851000E0,-6.347762793E-2,-1.942551509E-2,4.359832406E-2
3.950851000E0,-2.059488557E-3,-4.670501128E-2,3.218387067E-2
3.970851000E0,1.469567232E-2,8.337438107E-2,-2.541199327E-2
3.990851000E0,1.300270297E-2,2.486919612E-1,-8.037241548E-2
4.010851000E0,-2.631956525E-2,3.997502029E-1,-1.139176413E-1
4.030851000E0,-6.806784077E-4,3.453657627E-1,-1.445830762E-1
4.050851000E0,6.157521531E-2,3.245265186E-1,-1.295383424E-1
4.070851000E0,9.768607467E-2,3.160965741E-1,-1.240056455E-1
4.090852563E0,1.647939831E-1,2.635447085E-1,-1.743234843E-1
4.110852563E0,1.913055331E-1,1.779886782E-1,-2.416757345E-1
4.130852563E0,1.651954204E-1,1.691747606E-1,-3.385938704E-1
4.152860375E0,1.626995951E-1,1.357167959E-1,-2.885727286E-1
4.174852563E0,1.753532290E-1,1.359087825E-1,-3.145956099E-1
4.194861938E0,1.498714238E-1,2.331061810E-1,-4.125958383E-1
4.216852563E0,1.262047589E-1,2.071705759E-1,-4.469439089E-1
4.236860375E0,1.848827302E-1,-4.949753731E-2,-4.533143640E-1
4.258871313E0,2.347816974E-1,-5.044001341E-2,-5.708622932E-1
4.280851000E0,2.400002182E-1,7.330382941E-4,-5.587671399E-1
4.300852563E0,2.190213650E-1,1.980075985E-1,-5.438445807E-1
4.322851000E0,1.662949771E-1,4.689176083E-1,-5.757666826E-1
4.342851000E0,2.685363591E-1,3.316823840E-1,-5.290442109E-1
4.362851000E0,3.628539443E-1,2.209761292E-1,-4.787961841E-1
4.382851000E0,2.984513044E-1,2.021963894E-1,-4.006228745E-1
4.402855688E0,1.879370511E-1,2.776644230E-1,-3.404788375E-1
4.424852563E0,2.312735766E-1,1.399579495E-1,-2.366840988E-1
4.446851000E0,2.351656556E-1,8.813912980E-3,-1.674119830E-1
4.466851000E0,1.524370611E-1,-5.295328796E-2,-1.396263391E-1
4.486851000E0,3.956661373E-2,6.632251316E-4,-1.117185280E-1
4.506851000E0,-5.937610194E-2,-2.066469751E-2,-1.192408949E-1
4.526858813E0,-5.153957382E-2,-1.708153784E-1,-9.978047013E-2
4.548851000E0,-4.201007634E-2,-2.299122214E-1,-1.053829789E-1
4.568858813E0,-1.503252089E-1,-8.398524672E-2,-1.651081443E-1
4.590851000E0,-2.469291836E-1,7.199483365E-2,-1.796118319E-1
4.610851000E0,-2.379756421E-1,2.015855350E-2,-1.343379915E-1
4.630851000E0,-9.370672703E-2,-2.507863641E-1,-4.258603230E-2
4.650852563E0,-1.300270297E-2,-3.140545487E-1,8.587019518E-3
4.672851000E0,-1.342507303E-1,-8.683013171E-2,-2.223549411E-2
4.692852563E0,-1.696634591E-1,2.146754973E-2,-5.232496932E-2
4.714851000E0,-1.202008277E-1,2.228785492E-2,-4.495968297E-2
4.734869750E0,-7.075564563E-2,-6.038839370E-2,9.983283468E-3
4.756852563E0,-9.604547173E-2,-9.915215522E-2,1.069886796E-2
4.778852563E0,-1.714960486E-1,-9.965829551E-3,-2.583087189E-3
4.798852563E0,-2.332807034E-1,2.787290886E-2,-1.218239777E-2
4.820851000E0,-2.179567218E-1,4.972442985E-2,-3.874630900E-3
4.840858813E0,-2.087588310E-1,1.623156108E-2,1.059414819E-2
4.862851000E0,-1.611287892E-1,-5.167919770E-2,3.921754658E-2
4.882855688E0,-1.679181308E-1,-1.214749143E-1,1.157153323E-1
4.904852563E0,-2.076418251E-1,-5.173156038E-2,1.187871099E-1
4.924871313E0,-2.417280972E-1,-8.779006079E-3,1.455953717E-1
4.946851000E0,-2.147627622E-1,-5.420992523E-2,8.498007804E-2
4.966852563E0,-1.569923609E-1,-1.368861794E-1,4.794419557E-2
4.988852563E0,-1.278279126E-1,-1.338842064E-1,2.272418700E-2
5.010851000E0,-2.222851366E-1,1.055924222E-2,-2.637192421E-2
5.030851000E0,-2.389355749E-1,4.673991725E-2,1.876228862E-2
5.050851000E0,-1.470439881E-1,5.131267942E-3,8.698721230E-2
5.070851000E0,-1.612335145E-1,-6.283185445E-3,2.757620299E-3
5.090851000E0,-1.573937982E-1,-7.853982039E-3,1.420698036E-2
5.110851000E0,-1.296605170E-1,1.295034308E-2,3.684389964E-2
5.130851000E0,-1.697856337E-1,1.332558841E-1,-2.635447076E-3
5.150851000E0,-1.412494928E-1,2.171887755E-1,-4.263839498E-2
5.170852563E0,-1.037947312E-1,1.869945824E-1,-8.859290928E-2
5.190852563E0,-4.307472706E-2,1.557880938E-1,-8.344419301E-2
5.210852563E0,-2.069960535E-2,1.067094281E-1,-6.796312332E-2
5.230852563E0,-4.319689795E-2,1.004786044E-1,-5.668829381E-2
5.252851000E0,-1.447052509E-1,2.319891602E-1,-4.007275775E-2
5.272857250E0,-2.030516118E-1,2.560397983E-1,-2.546435408E-2
5.294852563E0,-1.222603172E-1,-5.998696759E-2,7.616616786E-2
5.314852563E0,-2.722713631E-3,-3.388556838E-1,2.028247118E-1
5.334855688E0,-1.168672442E-1,-1.958608478E-1,1.753357798E-1
5.356854125E0,-2.216044515E-1,7.443828881E-2,9.930923581E-2
5.376858813E0,-1.971873045E-1,6.647959352E-2,1.217018068E-1
5.396858813E0,-1.401673853E-1,-9.238027781E-2,1.045103148E-1
5.418852563E0,-8.574802428E-2,-2.430371046E-1,9.475392103E-2
5.438857250E0,-7.298967242E-2,-2.480112910E-1,8.934340626E-2
5.458871313E0,-1.639736891E-1,-5.096361507E-3,1.612684131E-2
5.480855688E0,-2.215695530E-1,2.010270208E-1,-3.012438305E-2
5.502851000E0,-1.779886782E-1,8.700466156E-2,-2.717477642E-2
5.522851000E0,-3.647737950E-2,-1.571494490E-1,2.933898382E-2
5.542851000E0,-8.459610492E-2,-5.557128415E-2,5.195845291E-2
5.562851000E0,-1.611113399E-1,1.428551972E-1,2.673844434E-2
5.582851000E0,-1.744980216E-1,1.517389268E-1,-3.351032268E-3
5.602851000E0,-1.286831200E-1,2.113593742E-2,-9.093165398E-3
5.622851000E0,-6.370452046E-2,-1.404466480E-1,6.841690745E-3
5.642851000E0,-1.165007278E-1,-1.441641990E-2,-3.303908184E-2
5.662858813E0,-1.844987571E-1,2.524618804E-1,-6.019640714E-2
5.684854125E0,-2.193878889E-1,2.946115732E-1,-2.614503168E-2
5.704855688E0,-1.485624313E-1,1.596452594E-1,1.406735368E-2
5.724858813E0,-7.419394702E-2,1.541125681E-2,1.083849445E-1
5.746851000E0,-1.377239376E-1,9.845402092E-2,1.756848395E-1
5.766851000E0,-3.633077443E-1,4.293684363E-1,1.968731433E-1
5.786851000E0,-5.426577926E-1,6.887592673E-1,2.145358771E-1
5.806851000E0,-6.092246175E-1,6.884450912E-1,3.114888966E-1
5.826851000E0,-6.463477612E-1,5.639333129E-1,5.176646709E-1
5.846851000E0,-7.004355192E-1,5.737769604E-1,6.386857629E-1
5.866851000E0,-8.799775243E-1,8.046665788E-1,6.803293228E-1
5.886851000E0,-1.081545591E0,1.318142414E0,6.667158008E-1
5.906851000E0,-1.300217986E0,1.881831408E0,6.648308039E-1
5.926851000E0,-1.257771492E0,1.790585637E0,6.747268438E-1
5.946851000E0,-8.629605770E-1,1.117481947E0,7.503519654E-1
5.966851000E0,-5.979323387E-1,9.812066555E-1,8.105134368E-1
5.986857250E0,-5.694834590E-1,1.276638508E0,5.769011378E-1
6.008852563E0,-4.530525804E-1,1.103083014E0,3.243345320E-1
6.030851000E0,-2.107310593E-1,6.118426323E-1,2.684141994E-1
6.050851000E0,1.346347034E-1,2.642952204E-1,1.555437446E-1
6.070851000E0,2.649409771E-1,2.042907923E-1,1.762084365E-1
6.090851000E0,1.220857799E-1,2.579596639E-2,3.013136387E-1
6.110851000E0,-2.906845808E-1,-4.045673311E-1,5.592034757E-2
6.130851000E0,-6.256307364E-1,-7.690793276E-1,-1.860869974E-1
6.150851000E0,-6.621779203E-1,-4.084593952E-1,-3.386985958E-1
6.170851000E0,-2.341882735E-1,2.161066681E-1,-5.140517950E-1
6.190851000E0,-1.713738739E-1,3.027099073E-1,-2.589544952E-1
6.210851000E0,-2.656216621E-1,-2.246413231E-1,-5.766567960E-2
6.230851000E0,-4.742059484E-2,-6.504667401E-1,-3.428175747E-1
6.250852563E0,2.780309506E-2,-6.582334638E-1,-6.842563152E-1
6.272852563E0,-4.162959456E-1,-3.241425455E-1,-7.105060816E-1
6.294851000E0,-4.524940550E-1,-5.640904233E-2,-6.331880093E-1
6.314861938E0,-1.366592795E-1,4.330161959E-2,-8.527154922E-1
6.336851000E0,3.375815749E-1,-1.642005742E-1,-1.382283330E0
6.356851000E0,7.899011374E-1,-8.505163789E-1,-1.665393114E0
6.376858813E0,2.656914592E-1,-4.684289098E-1,-6.889337897E-1
6.398851000E0,1.852667034E-1,-5.862386227E-1,3.321536183E-1
6.418851000E0,5.908637643E-1,-5.934468508E-1,4.863185287E-1
6.438851000E0,5.584006310E-1,-2.271196991E-1,3.658733666E-1
6.458871313E0,1.678657681E-1,2.171364129E-1,3.102148175E-1
6.480851000E0,-7.826056331E-2,-1.104967967E-1,6.023829579E-1
6.500851000E0,-3.748618066E-1,-4.117231667E-1,7.264583707E-1
6.520851000E0,-4.329289198E-1,-2.366840988E-1,4.950975478E-1
6.540851000E0,-1.274963021E-1,3.012438416E-1,5.914047956E-1
6.560851000E0,-4.636816084E-1,2.254092693E-1,7.418522239E-1
6.580851000E0,-4.737347066E-1,-1.085594818E-1,9.749060273E-1
6.600851000E0,-2.882585824E-1,-1.738347858E-2,1.006915331E0
6.620851000E0,7.836528122E-3,4.048116505E-1,4.732634723E-1
6.640851000E0,-6.736970693E-2,1.653524935E-1,-5.209458470E-1
6.660851000E0,-4.068537056E-1,-1.919164062E-1,-1.009393692E0
6.680851000E0,-7.637037039E-1,-5.140343904E-1,-8.758236766E-1
6.700851000E0,-9.337860346E-1,-7.075390220E-1,-7.827801704E-1
6.720851000E0,-1.060793638E0,-6.214768291E-1,-8.162555695E-1
6.740851000E0,-1.073412418E0,-4.062777460E-1,-5.023581386E-1
6.760851000E0,-1.130449772E0,-7.616267800E-1,7.307693362E-2
6.780851000E0,-1.186492324E0,-9.313251376E-1,4.712738097E-1
6.800851000E0,-1.361461520E0,-9.094212651E-1,3.981794119E-1
6.820851000E0,-1.351059318E0,-6.093293428E-1,2.456376404E-1
6.840851000E0,-1.317566514E0,-2.242573500E-1,2.810503542E-1
6.860851000E0,-1.252395868E0,5.543165654E-2,5.877047181E-1
6.880851000E0,-1.291665792E0,2.050761878E-2,7.962890267E-1
6.900857250E0,-1.398235559E0,-3.869394958E-2,5.170537829E-1
6.922851000E0,-1.259481907E0,-2.886076570E-1,-3.207740486E-1
6.942851000E0,-1.331511736E0,-6.899111867E-1,-2.734930813E-1
6.962851000E0,-1.939287663E0,-4.339761138E-1,-2.090031803E-1
6.982852563E0,-2.259712696E0,-3.895051181E-1,-2.957460284E-1
7.004855688E0,-1.718032241E0,-1.413943529E0,-1.951452643E-1
7.024871313E0,-1.670960784E0,-1.980163336E0,-1.352455616E0
7.046851000E0,-1.983182669E0,-1.142649651E0,-2.572440863E0
7.066855688E0,-2.337152958E0,-3.307747841E-1,-3.557853699E0
7.088851000E0,-2.882708073E0,5.570392609E-1,-5.648618698E0
7.108851000E0,-2.254267216E0,3.016278028E0,-6.840713024E0
7.128851000E0,8.307766914E-2,3.653270721E0,-6.958941936E0
7.148855688E0,7.442607284E-1,2.724162340E0,-6.928956985E0
7.170852563E0,-3.846880198E-1,1.110657692E0,-6.108739853E0
7.190854125E0,-1.195271254E0,-3.334625959E-1,-4.999006748E0
7.212851000E0,-1.742920637E0,-1.570534468E0,-3.066211939E0
7.232851000E0,-2.186705589E0,-3.050765753E0,-1.711225510E0
7.252851000E0,-1.607378364E0,-3.243746758E0,-1.915760636E0
7.272851000E0,-4.812745452E-1,-2.357171774E0,-2.643912077E0
7.292851000E0,5.581563115E-1,-2.369214535E0,-1.111425638E0
7.312851000E0,2.763030827E-1,-2.390106201E0,-2.392322868E-1
7.332851000E0,-8.755095005E-1,-1.590501070E0,-1.143714264E-1
7.352851000E0,-1.292904973E0,-8.987572789E-1,-3.556282818E-1
7.372851000E0,-9.460382462E-1,-2.908765674E-1,-2.489013970E-1
7.392851000E0,-6.331530809E-1,1.076868176E-1,-2.063502818E-1
7.412851000E0,-2.679952979E-1,-7.834783196E-2,-7.115707546E-2
7.432851000E0,-8.859290928E-2,-1.570796408E-2,-3.583160788E-2
7.452851000E0,-2.037671953E-1,8.829097152E-1,5.347688869E-2
7.472851000E0,-2.105041593E-1,1.243058443E0,2.048143893E-1
7.492851000E0,-2.809980186E-3,-1.142143458E-1,8.482299745E-3
7.512851000E0,6.449515224E-1,-7.612777352E-1,-2.788163424E-1
7.532851000E0,1.689321637E0,1.528332472E0,-9.096655995E-2
7.552851000E0,2.493028402E0,2.662744045E0,6.148795038E-2
7.572851000E0,3.503626347E0,2.226778269E0,1.856157631E-1
7.592851000E0,3.337820053E0,1.145407200E0,2.639810443E-1
7.612851000E0,2.518737078E0,1.082715034E0,5.610884428E-1
7.632851000E0,2.035350561E0,7.323401570E-1,6.420717239E-1
7.652851000E0,1.964786887E0,-9.247627258E-1,1.004367113E0
7.672851000E0,2.869094372E0,-9.945758581E-1,1.810377717E0
7.692851000E0,3.000849247E0,-9.484642744E-1,2.341778040E0
7.712851000E0,2.209447145E0,-2.748335123E0,2.231508255E0
7.732851000E0,2.083259821E0,-3.445611477E0,1.995016098E0
7.752851000E0,2.600261211E0,-3.855798721E0,1.590553403E0
7.772851000E0,2.845497608E0,-3.824906588E0,9.820269346E-1
7.792851000E0,2.848237753E0,-3.830578804E0,6.536432505E-1
7.812851000E0,2.503587484E0,-3.982003689E0,5.112418532E-1
7.832852563E0,1.868706584E0,-3.406585932E0,4.622155428E-1
7.854858813E0,9.848544002E-1,-2.295614004E0,2.344849855E-1
7.876851000E0,1.237612963E-1,-1.350012183E0,7.649777830E-2
7.896852563E0,-5.079431534E-1,-7.285178900E-1,-7.028441131E-2
7.916852563E0,-1.099522471E0,-3.887895346E-1,-2.784498334E-1
7.938851000E0,-1.683387518E0,-3.454530239E-1,-3.206169903E-1
7.958871313E0,-1.507301211E0,-4.013908207E-1,-7.628834248E-2
7.980851000E0,-5.673367381E-1,-3.044552207E-1,1.283515096E-1
8.000851000E0,-1.595230959E-2,6.747443080E-1,8.876046538E-1
8.020852563E0,-6.675884128E-2,5.007349849E-1,1.308892250E0
8.042851000E0,5.493598580E-1,-7.359704375E-1,1.238398314E0
8.062851000E0,-9.669647813E-1,-6.103242040E-1,1.025956869E0
8.082851000E0,-2.469797850E0,2.682571113E-2,3.825238049E-1
8.102851000E0,-2.064200878E0,1.594881892E0,-8.418071866E-1
8.122851000E0,2.814954281E0,2.507531881E0,-3.035424232E0
8.142851000E0,2.074690342E0,-1.681607246E0,-3.074223042E0
8.162851000E0,-1.124306202E0,-1.244943380E0,-1.769589305E0
8.182851000E0,-3.856200218E0,7.336491346E-1,5.073672161E-2
8.202851000E0,-4.720836163E0,3.663882494E0,7.073470354E-1
8.222851000E0,-4.561574936E0,3.909345627E0,7.656759620E-1
8.242851000E0,-3.760364294E0,2.895187140E0,4.935616553E-1
8.262851000E0,-2.470339060E0,1.444521785E0,2.440493852E-1
8.282851000E0,-1.208308935E0,-1.827743649E0,-3.675139844E-1
8.302851000E0,-1.001103401E0,-3.658157825E0,-9.464222193E-1
8.322851000E0,-7.515038848E-1,-2.743291140E0,-6.785665751E-1
8.342851000E0,-9.937381148E-1,-9.376257658E-1,-3.235840499E-1
8.362851000E0,-1.464942098E0,7.223568559E-1,-2.073974758E-1
8.382851000E0,-1.587918043E0,1.876473308E0,-5.619960371E-3
8.402851000E0,-1.624971390E0,1.923178315E0,1.986184716E-2
8.422851000E0,-1.769694090E0,7.879463434E-1,-1.100430116E-1
8.442851000E0,-1.651273489E0,-6.782698631E-1,-4.962145686E-1
8.462851000E0,-1.035905242E0,-8.425402641E-1,-4.484100044E-1
8.482851000E0,-5.760807991E-1,-6.337290257E-2,-2.548180819E-1
8.502851000E0,-1.947438419E-1,8.643568754E-1,-2.363873869E-1
8.522851000E0,4.258603230E-2,1.530200005E0,-3.993313387E-2
8.542851000E0,2.063851804E-1,1.542748928E0,2.256885320E-1
8.562851000E0,1.015572190E0,1.252273679E0,6.100972891E-1
8.582851000E0,2.127957821E0,7.647160292E-1,1.015048623E0
8.602851000E0,3.452435732E0,7.817329764E-1,1.568125963E0
8.622851000E0,3.450777769E0,-2.951700687E-1,1.666195989E0
8.642851000E0,2.646914005E0,-7.678226829E-1,1.393261433E0
8.662851000E0,1.932253957E0,-4.368559271E-2,4.121595025E-1
8.682851000E0,2.151362658E0,-1.794198453E-1,-5.507386327E-1
8.702851000E0,3.251461029E0,-1.652512670E0,-1.221416354E0
8.722851000E0,3.352079391E0,-7.861312032E-1,-3.657686412E-1
8.742851000E0,2.778319836E0,-1.445132643E-1,5.108578801E-1
8.762851000E0,2.437963247E0,-4.636118114E-1,5.666385889E-1
8.782851000E0,2.550083160E0,-9.575574398E-1,6.886370778E-1
8.802851000E0,2.821516752E0,-1.208151817E0,9.225112200E-1
8.822851000E0,2.966047525E0,-2.220233440E0,6.975557208E-1
8.842852563E0,2.930844069E0,-3.293732882E0,3.810053766E-1
8.864852563E0,2.550362349E0,-2.899061680E0,3.209660575E-2
8.884852563E0,1.925045848E0,-1.900681019E0,-3.693116829E-2
8.906851000E0,9.644864202E-1,-5.200732350E-1,1.488591284E-1
8.926851000E0,-5.579817668E-2,6.415830553E-2,2.109579444E-1
8.946851000E0,-1.134917736E0,-3.281219006E-1,2.679255009E-1
8.966851000E0,-1.773621082E0,-1.179947257E0,4.315675497E-1
8.986851000E0,-1.612055898E0,-1.892425537E0,3.507937193E-1
9.006851000E0,-4.331209064E-1,-1.801301956E0,3.535338938E-1
9.026851000E0,-1.203055456E-1,-9.764244556E-1,1.961924583E-1
9.046851000E0,-1.030791476E-1,-6.450038552E-1,4.811698198E-1
9.066851000E0,-1.314931065E-1,-4.941550791E-1,5.584180951E-1
9.086851000E0,-7.365813255E-1,-1.312487572E-1,4.558101892E-1
9.106851000E0,-1.350972056E0,9.693733454E-1,3.382448107E-2
9.126851000E0,-7.321132421E-1,2.824414015E0,-6.807482243E-1
9.146851000E0,3.510904312E-1,3.341781855E0,-1.886351854E-1
9.166851000E0,-1.305977464E0,9.334893227E-1,6.490879506E-2
9.186851000E0,-3.225700140E0,2.987305522E-1,-7.784168236E-3
9.206851000E0,-4.331697941E0,2.381990433E0,3.502526879E-1
9.226880688E0,-4.385593414E0,4.423728943E0,2.904402316E-1
9.248852563E0,-3.415836334E0,4.498167038E0,-1.821425557E-1
9.270851000E0,-2.056399345E0,2.248944044E0,-3.266558349E-1
9.290851000E0,-1.756324768E0,-9.067159891E-1,-5.198812485E-1
9.310851000E0,-1.608600140E0,-2.932903528E0,-7.311707735E-1
9.330851000E0,-1.252884626E0,-3.526682138E0,-8.373391628E-1
9.350851000E0,-9.319708943E-1,-3.545304775E0,-6.135530472E-1
9.370851000E0,-1.378565788E0,-1.419039965E0,-3.661002517E-1
9.390851000E0,-2.042366743E0,1.468607306E0,2.984512970E-2
9.410851000E0,-2.093103647E0,2.509015560E0,1.515294909E-1
9.430851000E0,-1.712098122E0,1.663002014E0,-2.582912743E-1
9.450851000E0,-1.249882579E0,6.177418232E-1,-5.511400700E-1
9.470851000E0,-1.278226733E0,-7.068583276E-3,-5.794144273E-1
9.490851000E0,-1.264805198E0,-8.483871222E-1,-4.867199659E-1
9.510851000E0,-1.100011230E0,-9.790773392E-1,-3.460813463E-1
9.530851000E0,-4.011988342E-1,9.959721565E-1,-1.262920201E-1
9.550851000E0,-5.246459693E-2,2.965471506E0,4.244640842E-2
9.570851000E0,-1.041263416E-1,2.783503532E0,2.690599561E-1
9.590851000E0,7.241371274E-1,1.679792166E0,4.198563993E-1
9.610851000E0,1.889301419E0,9.583253860E-1,7.029837370E-1
9.630851000E0,3.341764450E0,1.605615616E0,1.118372083E0
9.650851000E0,3.725946426E0,1.453876734E0,1.434713006E0
9.670851000E0,2.811550856E0,-2.143264264E-1,1.547059894E0
9.690851000E0,2.241020203E0,-1.445097685E0,1.306867599E0
9.710851000E0,2.110312462E0,-1.325821877E0,5.486966372E-1
9.730851000E0,2.780100107E0,-1.185375214E0,-2.669306695E-1
9.750851000E0,3.116477251E0,-5.873905420E-1,3.240029216E-1
9.770851000E0,2.195693970E0,-2.778040469E-1,8.657880425E-1
9.790851000E0,1.826469660E0,-7.282037139E-1,8.000938296E-1
9.810851000E0,2.186740398E0,-5.753652453E-1,4.366464615E-1
9.830851000E0,2.716989040E0,-1.050810337E0,3.288025856E-1
9.850852563E0,2.895099878E0,-1.366208792E0,3.700447083E-1
9.872851000E0,2.673268557E0,-1.788089871E0,3.132517040E-1
9.892851000E0,2.117241383E0,-2.370698214E0,7.059856504E-2
9.912851000E0,1.478066921E0,-2.180876255E0,-9.105382860E-2
9.932851000E0,7.840193510E-1,-1.607867122E0,4.234168679E-2
9.952851000E0,1.450194120E-1,-1.057704449E0,2.718175650E-1
9.972851000E0,-4.683416486E-1,-7.671245337E-1,3.844087720E-1
9.992851000E0,-1.051438689E0,-5.982988477E-1,5.818229318E-1
1.001285100E1,-1.713913321E0,-6.066240668E-1,7.109423876E-1
1.003285100E1,-1.921624899E0,-8.394859433E-1,5.091649294E-1
1.005285100E1,-7.960621119E-1,-1.407503366E0,2.717477679E-1
1.007285100E1,-9.773843922E-3,-9.062622190E-1,2.744181156E-1
1.009285100E1,3.690498769E-1,-7.910006642E-1,6.264859438E-1
1.011285100E1,9.602801502E-2,-8.122587800E-1,3.365169466E-1
1.013285100E1,-5.858371854E-1,5.570392609E-1,2.835112810E-1
1.015285100E1,-1.116679072E0,1.765644908E0,-3.920009434E-1
1.017285100E1,8.413359523E-1,2.336297750E0,-7.287796736E-1
1.019285100E1,-1.583013684E-2,1.576939821E0,-2.882062197E-1
1.021285100E1,-1.978173614E0,9.515185952E-1,7.492698729E-2
1.023285100E1,-3.845222235E0,1.061020613E0,2.559700012E-1
1.025285100E1,-5.097600460E0,3.010308981E0,-3.846705705E-2
1.027285100E1,-5.002514839E0,4.357982635E0,-6.723008156E-1
1.029285100E1,-3.958075047E0,4.136744499E0,-8.803266287E-1
1.031285100E1,-2.476691961E0,2.498211861E0,-6.167120934E-1
1.033285100E1,-1.634134293E0,-1.936826825E0,-1.984264851E-1
1.035285100E1,-1.430786014E0,-4.001778126E0,-2.463008612E-1
1.037285100E1,-1.006636143E0,-3.054203987E0,-2.287777513E-1
1.039285100E1,-1.177521229E0,-4.809080064E-1,-9.901253134E-2
1.041285256E1,-1.705204129E0,1.957020283E0,1.696285456E-1
1.043486506E1,-1.931014776E0,2.563522100E0,3.539527655E-1
1.045685100E1,-1.886666059E0,1.847483397E0,1.035154760E-1
1.047685256E1,-1.717962503E0,8.888612986E-1,-2.661277950E-1
1.049885100E1,-1.719236612E0,1.478642970E-1,-4.815363288E-1
1.051885100E1,-1.433386564E0,-7.624296546E-1,-5.903052688E-1
1.053885100E1,-9.310808182E-1,-1.104898095E0,-5.292885303E-1
1.055887131E1,-3.477917612E-1,3.832393885E-1,-3.807784915E-1
1.058085100E1,8.260643482E-2,2.149582386E0,-7.335618883E-2
1.060085100E1,3.275634050E-1,1.753357768E0,2.855882347E-1
1.062085100E1,1.375982642E0,8.464497924E-1,3.271270692E-1
1.064085100E1,2.769750357E0,8.389623165E-1,3.906745017E-1
1.066085100E1,3.851679802E0,9.541889429E-1,6.967529058E-1
1.068085100E1,3.721024513E0,6.437298059E-1,9.554979205E-1
1.070085100E1,2.658886909E0,1.088108063E0,1.037371397E0
1.072085100E1,1.903648019E0,1.811686635E0,6.505365968E-1
1.074085100E1,1.835615158E0,1.127500176E0,8.923344612E-1
1.076085100E1,2.934579134E0,-2.015000105E0,6.475869417E-1
1.078085100E1,3.573840857E0,-2.895972490E0,3.717551380E-2
1.080085100E1,3.143896580E0,-1.064912677E0,-1.584758982E-2
1.082085100E1,2.658101559E0,-2.480985522E-1,1.529257447E-1
1.084085100E1,2.351691484E0,-9.276948571E-1,5.045048594E-1
1.086085100E1,2.395970583E0,-1.741227746E0,7.049559355E-1
1.088085100E1,2.553713322E0,-1.663508177E0,6.886196733E-1
1.090085100E1,2.400386333E0,-2.290081501E0,4.022460282E-1
1.092085100E1,2.016309023E0,-2.775143385E0,-1.015781611E-2
1.094085256E1,1.484262943E0,-2.438469410E0,-2.576978505E-1
1.096285100E1,6.089977622E-1,-1.977719784E0,-1.356120855E-1
1.098285256E1,-2.648013532E-1,-1.478695273E0,1.670629084E-1
1.100485725E1,-1.329347491E0,-1.321894884E0,4.571540952E-1
1.102685100E1,-2.373892069E0,-1.418970108E0,5.140343904E-1
1.104685256E1,-2.187421083E0,-1.066797614E0,5.470036268E-1
1.106885256E1,3.232175112E-1,-3.598868847E-2,1.787217110E-1
1.109085100E1,7.066663504E-1,-6.271840930E-1,2.147103995E-1
1.111085100E1,5.267403647E-2,2.165779024E-1,6.058735847E-1
1.113085256E1,-2.398082316E-1,6.188064814E-1,2.527934909E-1
1.115285100E1,-7.052177191E-1,1.761072159E0,-1.263792962E-1
1.117285100E1,-2.200860232E-1,1.987354040E0,-3.632204831E-1
1.119285100E1,-2.509957850E-1,1.762363672E0,1.188569237E-2
1.121285100E1,-1.738435149E0,7.104886174E-1,1.602561325E-1
1.123285100E1,-3.252054453E0,7.877718210E-1,2.987130880E-1
1.125285100E1,-4.181808949E0,2.121622324E0,-1.780235791E-3
1.127285100E1,-3.554869175E0,2.964563847E0,-7.496189326E-2
1.129285100E1,-2.571777582E0,2.625603437E0,5.269323587E-1
1.131285100E1,-2.361779451E0,2.522873282E-1,7.057238817E-1
1.133285100E1,-2.446654797E0,-2.770221472E0,3.291865587E-1
1.135285100E1,-1.979011416E0,-3.010204315E0,-8.569566533E-3
1.137285100E1,-1.239899397E0,-1.086799026E0,-2.382548898E-1
1.139285100E1,-1.182443142E0,6.343399286E-1,-7.894124091E-2
1.141285100E1,-1.737545133E0,1.160120368E0,6.565928459E-2
1.143285100E1,-2.103034496E0,1.003075600E0,-3.543018550E-2
1.145285100E1,-1.801092505E0,4.409748912E-1,-3.412467837E-1
1.147285100E1,-1.558893204E0,2.486919612E-1,-4.036771953E-1
1.149285100E1,-1.694924116E0,5.345943570E-1,-3.948283792E-1
1.151285100E1,-1.534685493E0,1.822821796E-1,-3.789982498E-1
1.153285100E1,-1.158828855E0,-7.694283724E-1,-2.438050359E-1
1.155285100E1,-5.417851210E-1,-1.278279126E-1,-1.253844500E-1
1.157285100E1,-1.768542081E-1,2.303694963E0,-5.204571784E-2
1.159285100E1,-2.443460934E-2,3.181106806E0,1.584758908E-1
1.161285100E1,5.606172085E-1,2.158204317E0,1.440769285E-1
1.163285100E1,1.922933936E0,1.411290646E0,3.071081340E-1
1.165285100E1,3.303402185E0,2.048458099E0,7.897440195E-1
1.167285100E1,3.681422949E0,3.499385118E0,1.058786511E0
1.169285100E1,2.347380638E0,3.016993523E0,1.077845573E0
1.171285100E1,1.259429574E0,2.088862419E0,1.125039220E0
1.173285100E1,1.448378921E0,-2.243446261E-1,1.379124284E0
1.175285100E1,2.823209763E0,-2.491021156E0,1.089486837E0
1.177285100E1,3.479296446E0,-1.075838447E0,5.588020682E-1
1.179285100E1,2.680075169E0,-2.802300751E-1,2.848726511E-1
1.181285256E1,1.881447434E0,-5.490456820E-1,7.145727277E-1
1.183285256E1,2.010287762E0,-8.026245832E-1,1.138041973E0
1.185485100E1,2.349160910E0,-2.262871742E0,1.184397936E0
1.187485100E1,2.634399891E0,-2.557797432E0,7.742804289E-1
1.189485256E1,2.685677767E0,-3.388870955E0,4.663170576E-1
1.191685100E1,2.399775267E0,-3.704880238E0,1.167276204E-1
1.193685256E1,1.679739714E0,-3.231948376E0,-1.495049000E-1
1.195887131E1,5.793794990E-1,-2.425047636E0,-5.213298276E-2
1.198085100E1,-5.754525065E-1,-1.480423212E0,2.076243609E-1
1.200085100E1,-1.575089812E0,-7.910355926E-1,3.136880398E-1
1.202085256E1,-2.410229921E0,-7.009416819E-1,4.280070961E-1
1.204285100E1,-2.364694118E0,-7.128622532E-1,4.269773364E-1
1.206285100E1,4.896171987E-1,-3.286280334E-1,5.853834376E-2
1.208285100E1,1.261628747E0,-1.035748243E0,2.511877716E-1
1.210285256E1,5.408949852E-1,-6.755122542E-1,6.933669448E-1
1.212485725E1,3.803421557E-1,-2.820452154E-1,3.745301962E-1
1.214685881E1,-6.576400399E-1,4.967556000E-1,1.703964919E-1
1.216885100E1,-1.629003048E0,9.154251963E-2,-6.900333762E-1
1.218885256E1,4.398229718E-2,2.438975334E0,-6.928433776E-1
1.220885256E1,6.849370003E-1,2.436758995E0,-2.869670391E-1
1.222885256E1,-1.169667244E0,5.019741654E-1,7.970918715E-2
1.224885256E1,-3.394735098E0,-6.846926361E-2,5.839871615E-2
1.227085100E1,-4.398858070E0,1.711155653E0,1.825614423E-1
1.229085413E1,-3.936345816E0,2.966780424E0,1.186823919E-1
1.231285100E1,-3.318115234E0,3.030292988E0,-2.409776151E-1
1.233285100E1,-2.607731342E0,1.397066236E0,-4.084943235E-1
1.235285256E1,-1.811128139E0,-1.491942286E0,-5.831668377E-1
1.237485256E1,-1.156926394E0,-1.867432475E0,-6.124185920E-1
1.239485256E1,-1.188307405E0,-8.057137728E-1,-2.552369535E-1
1.241485256E1,-1.803204417E0,1.375668496E-1,-2.158274204E-1
1.243685100E1,-2.155725956E0,1.544808388E0,-3.202853799E-1
1.245685100E1,-2.043693304E0,2.421801329E0,-4.268028140E-1
1.247685100E1,-1.984404445E0,1.684417248E0,-6.882705688E-1
1.249685100E1,-1.905585408E0,3.296752274E-1,-8.708843589E-1
1.251685100E1,-1.649336100E0,-3.778637946E-2,-8.804313540E-1
1.253685256E1,-1.352089167E0,4.881162345E-1,-6.655812860E-1
1.255887288E1,-1.102402329E0,7.330208421E-1,-3.708650172E-1
1.258085100E1,-4.401371181E-1,1.238380909E0,-2.631607354E-1
1.260085100E1,-2.443286479E-1,1.107969880E0,-7.087782025E-2
1.262085100E1,3.176150024E-1,1.208465934E0,-1.699950732E-2
1.264085256E1,1.665846944E0,2.064707041E0,1.008451208E-1
1.266285100E1,2.772856951E0,2.243201971E0,4.643273950E-1
1.268285100E1,3.519718170E0,2.610157251E0,9.694780111E-1
1.270285100E1,2.552561522E0,7.492698431E-1,1.624185920E0
1.272285100E1,1.915847898E0,-7.652919888E-1,2.001892567E0
1.274285100E1,2.441174507E0,-6.746395826E-1,2.636773586E0
1.276285100E1,3.402362347E0,1.380380839E-1,2.971824408E0
1.278285100E1,3.167283773E0,2.651154995E-1,1.387833476E0
1.280285100E1,1.728992939E0,2.670353744E-3,-2.577851340E-2
1.282285100E1,1.399631858E0,-1.059345007E0,1.220508695E0
1.284285100E1,2.230548143E0,-1.892198682E0,1.752205849E0
1.286285100E1,2.829580069E0,-2.506031036E0,1.381305933E0
1.288285100E1,2.662534714E0,-3.214634657E0,1.030180573E0
1.290285100E1,2.518911600E0,-3.699399948E0,6.579716802E-1
1.292285256E1,2.293083429E0,-3.494602919E0,1.402895600E-1
1.294486506E1,1.851200938E0,-3.579495668E0,-1.737998873E-1
1.296486506E1,1.077042699E0,-2.877437115E0,-1.495747175E-2
1.298685100E1,7.913322747E-2,-1.909669399E0,1.990897059E-1
1.300685100E1,-8.505862355E-1,-1.019289732E0,3.362376690E-1
1.302685100E1,-1.669791341E0,-1.237438470E-1,5.230228305E-1
1.304685100E1,-2.012172699E0,4.850793481E-1,7.437894940E-1
1.306685100E1,-8.741132617E-1,-6.982364058E-1,2.670179307E-1
1.308685100E1,1.147466660E0,-1.473633885E0,-1.181064323E-1
1.310685100E1,7.527256012E-1,-1.286778927E0,3.482629955E-1
1.312685100E1,8.443903178E-2,2.988003790E-1,5.517334938E-1
1.314685100E1,4.387583137E-1,-4.761258140E-2,4.328416660E-2
1.316685100E1,-1.019499183E0,-1.950929016E-1,-3.672521710E-1
1.318685100E1,-9.731781483E-1,2.043570995E0,-1.096817255E0
1.320685100E1,2.342231758E-2,1.825614333E0,-5.442634821E-1
1.322686350E1,-1.344741225E0,2.050412744E-1,3.057118654E-1
1.324885256E1,-3.183899403E0,5.802347064E-1,3.109827638E-1
1.327085100E1,-4.003610611E0,3.380144358E0,-7.726572454E-2
1.329085100E1,-3.672818422E0,5.157482624E0,-4.362450540E-1
1.331085100E1,-2.947232723E0,5.829434395E0,-6.990741491E-1
1.333085100E1,-3.190601587E0,1.678640246E0,-3.365692794E-1
1.335085100E1,-3.102846384E0,-5.742482543E-1,-1.295034289E-1
1.337085100E1,-2.268666267E0,-6.247580647E-1,-2.146929502E-1
1.339085100E1,-1.640591979E0,-8.315970302E-1,-1.474279612E-1
1.341085100E1,-1.264368892E0,-1.046412110E0,-9.649925679E-2
1.343085100E1,-1.566310883E0,-1.382056475E0,-3.467445672E-1
1.345085100E1,-1.499272704E0,-3.212976754E-1,-3.343178034E-1
1.347085100E1,-1.146489382E0,1.987109661E0,-1.472883373E-1
1.349085100E1,-1.469026208E0,2.447667122E0,-1.507266313E-1
1.351085100E1,-1.673962712E0,1.604498625E0,-2.661277950E-1
1.353085100E1,-1.631306887E0,1.970302165E-1,-4.706629515E-1
1.355085100E1,-1.483407736E0,-1.037476063E0,-7.086909413E-1
1.357085100E1,-6.147224307E-1,-2.338043004E-1,-4.847303033E-1
1.359085100E1,6.337290257E-2,1.425986409E0,-9.711012244E-2
1.361085100E1,2.126509100E-1,1.500581741E0,1.935919225E-1
1.363085100E1,7.447320223E-2,3.667635024E-1,2.914001644E-1
1.365085100E1,1.232813358E0,3.752283454E-1,2.345897108E-1
1.367085256E1,2.695678473E0,1.508522987E0,3.700796068E-1
1.369285100E1,3.557382345E0,2.299715519E0,1.072801471E0
1.371285100E1,2.781199694E0,2.243289232E0,1.857100129E0
1.373285100E1,1.644518971E0,7.672292590E-1,2.090398312E0
1.375285100E1,1.809557319E0,2.239606529E-1,1.820343494E0
1.377285100E1,1.897382379E0,4.971046746E-1,1.186719179E0
1.379285100E1,3.056577682E0,-2.084499121E0,3.366565704E-1
1.381285100E1,3.085096359E0,-2.108026028E0,-1.937839091E-1
1.383285100E1,2.504460096E0,-1.175950527E0,-7.326892018E-2
1.385285256E1,2.654785395E0,-1.209617853E0,3.117856085E-1
1.387486663E1,2.899271011E0,-1.270145893E0,7.552039623E-2
1.389685256E1,2.665047884E0,-1.480161428E0,8.813912980E-3
1.391885100E1,2.421015978E0,-1.873279333E0,3.134960532E-1
1.393885100E1,2.220128536E0,-2.519469976E0,5.405808091E-1
1.395887600E1,1.679181218E0,-2.587782145E0,2.645395398E-1
1.398085100E1,1.003023267E0,-2.312805653E0,-4.420918971E-2
1.400085100E1,3.925420046E-1,-1.917122006E0,1.779014170E-1
1.402085100E1,-5.481904745E-1,-1.212584972E0,7.158991694E-1
1.404085100E1,-1.820884585E0,-8.768184781E-1,8.621926308E-1
1.406085100E1,-3.343195677E0,-7.696552873E-1,6.776241064E-1
1.408085100E1,-1.993829250E0,-8.915141821E-1,3.117158115E-1
1.410085100E1,1.027126312E0,-1.560987592E0,-7.243465185E-1
1.412085256E1,1.236705422E0,-1.257282853E0,1.126435474E-1
1.414285100E1,6.525437236E-1,-1.103519320E0,4.640481472E-1
1.416285100E1,3.539004028E-1,-1.424537748E-1,-2.356718034E-1
1.418285100E1,8.073893189E-2,2.102632999E0,-1.015938759E0
1.420285100E1,3.145781457E-1,1.742048025E0,-6.655289531E-1
1.422285100E1,-9.488831758E-1,1.255415320E0,-7.211700082E-2
1.424285100E1,-2.645063877E0,1.460892916E0,3.555061221E-1
1.426285100E1,-3.820752621E0,2.377557278E0,2.136806548E-1
1.428285100E1,-4.324140549E0,3.304676294E0,-4.537855983E-1
1.430285100E1,-3.878732443E0,3.678298950E0,-9.644689560E-1
1.432285100E1,-3.084136486E0,3.234705925E0,-5.780181289E-1
1.434285100E1,-2.511912823E0,4.224743843E-1,1.437627673E-1
1.436285100E1,-2.215381384E0,-1.646753073E0,1.433089823E-1
1.438285100E1,-1.669110775E0,-1.734612942E0,-2.013411820E-1
1.440285100E1,-1.035276890E0,-9.476090670E-1,-3.436378837E-1
1.442285100E1,-1.098300815E0,-6.567848325E-1,-2.444333583E-1
1.444285100E1,-1.375912905E0,-2.183755934E-1,-1.864360720E-1
1.446285100E1,-1.503531337E0,6.774495244E-1,-2.443460971E-1
1.448285100E1,-1.504351616E0,1.310864449E0,-2.122145891E-1
1.450285100E1,-1.608059049E0,1.271856308E0,-1.812524348E-1
1.452285100E1,-1.887974977E0,7.264583707E-1,-3.131469786E-1
1.454285100E1,-1.778420687E0,8.970992640E-3,-5.275257826E-1
1.456285100E1,-1.339854360E0,-9.430711865E-1,-6.856351495E-1
1.458285100E1,-7.706326842E-1,-7.800748944E-1,-5.906717777E-1
1.460285100E1,-7.192502171E-2,9.856048822E-1,-3.210882246E-1
1.462285100E1,1.977458000E-1,1.927262425E0,-4.907865822E-2
1.464285100E1,1.348790377E-1,1.415043116E0,9.822712839E-2
1.466285100E1,7.668278813E-1,8.459959626E-1,2.031214237E-1
1.468285100E1,2.217807293E0,1.414659142E0,6.177418232E-1
1.470285100E1,3.194441319E0,1.601130128E0,1.172931075E0
1.472285100E1,3.163671017E0,1.045748949E0,1.586923122E0
1.474285100E1,2.241753340E0,-3.317696452E-1,1.803850174E0
1.476285100E1,2.013568878E0,-1.981995851E-1,1.624866605E0
1.478285100E1,2.029154778E0,1.076362014E0,9.504190683E-1
1.480285100E1,2.530954361E0,-3.365169466E-1,6.015277505E-1
1.482285100E1,2.793992758E0,-1.579331040E0,6.316695809E-1
1.484285100E1,2.009816408E0,-7.615743876E-1,6.816906929E-1
1.486285100E1,1.728329778E0,-8.011759520E-1,1.229217887E0
1.488285100E1,2.005505562E0,-1.893629909E0,1.469479918E0
1.490285100E1,2.332073927E0,-2.328478575E0,1.226983905E0
1.492285256E1,2.484127045E0,-3.056577682E0,9.974556565E-1
1.494485256E1,2.758231163E0,-4.042374611E0,6.601533294E-1
1.496485725E1,2.675502539E0,-4.202560902E0,6.656685472E-2
1.498685100E1,1.899668694E0,-3.651211262E0,-4.799655378E-1
1.500685100E1,1.040303469E0,-2.615183830E0,-2.908591330E-1
1.502685413E1,7.595673203E-2,-1.717072368E0,3.417354822E-2
1.504885256E1,-8.574453592E-1,-1.376890182E0,3.340734839E-1
1.506885256E1,-1.941190124E0,-1.199215770E0,4.502774775E-1
1.509085100E1,-3.382849455E0,-1.128687024E0,3.244741559E-1
1.511085100E1,-7.278372049E-1,1.310393214E-1,7.689920813E-2
1.513085100E1,2.126264811E0,-4.410446882E-1,-2.657961845E-1
1.515085100E1,1.363835216E0,-1.286394954E0,3.181909621E-1
1.517085256E1,3.436029553E-1,-7.220078111E-1,2.172934860E-1
1.519285256E1,-6.146177053E-1,9.564229846E-1,-6.793868542E-1
1.521486350E1,-4.941201508E-1,3.318324566E0,-9.146223664E-1
1.523685100E1,5.029864311E-1,2.683164358E0,-3.125884756E-2
1.525685256E1,-1.334827781E0,6.520724893E-1,9.169960022E-2
1.527685256E1,-3.085305691E0,9.782221317E-1,2.248682231E-1
1.529885100E1,-4.045149803E0,3.216816425E0,1.611287892E-1
1.531885100E1,-3.887406826E0,4.665334702E0,-5.581563115E-1
1.533885100E1,-3.125378609E0,4.690101147E0,-6.854954958E-1
1.535887600E1,-2.652184963E0,1.563640475E0,-1.319643408E-1
1.538085100E1,-2.514303923E0,-5.268101692E-1,4.387757555E-2
1.540085100E1,-1.987807870E0,-1.031280160E0,-5.304055661E-2
1.542085100E1,-1.581530094E0,-1.272920966E0,-1.043183282E-1
1.544085100E1,-1.391062260E0,-1.384395123E0,-1.199913844E-1
1.546085100E1,-1.471679091E0,-1.021453977E0,-1.862091720E-1
1.548085100E1,-1.648777604E0,1.953023374E-1,-2.687108815E-1
1.550085100E1,-1.614918232E0,1.470317721E0,-3.111223876E-1
1.552085100E1,-1.588965178E0,1.226861715E0,-4.462806880E-1
1.554085100E1,-1.649894595E0,3.894702196E-1,-6.186842918E-1
1.556085100E1,-1.566904187E0,-1.743583977E-1,-6.618637443E-1
1.558085100E1,-1.276359320E0,-1.499063224E-1,-4.998099506E-1
1.560085100E1,-8.909207582E-1,8.640950322E-1,-2.411172390E-1
1.562085100E1,-4.839274287E-1,1.794948936E0,-1.928588748E-1
1.564085100E1,5.405284837E-2,1.876211524E0,-4.916592315E-2
1.566085100E1,4.883431196E-1,1.169335723E0,2.064375430E-1
1.568085100E1,1.216546893E0,1.016409993E0,4.555309415E-1
1.570085100E1,2.467546463E0,1.579697490E0,9.223017693E-1
1.572085100E1,3.574120045E0,1.638550043E0,1.475990057E0
1.574085100E1,3.160529375E0,-3.403391922E-3,1.630696058E0
1.576085100E1,2.511127472E0,-1.008608341E0,1.535034537E0
1.578085100E1,2.285072327E0,-5.995031595E-1,9.256702662E-1
1.580085100E1,1.930194497E0,1.795943826E-1,4.225791097E-1
1.582085100E1,2.642550707E0,-4.561941624E-1,1.684417278E-1
1.584085100E1,2.786889315E0,-1.307775259E0,3.552443087E-1
1.586085100E1,2.348567486E0,-1.956810832E0,8.136899471E-1
1.588085256E1,2.543765068E0,-2.054549217E0,9.531417489E-1
1.590285100E1,2.836404324E0,-1.790236592E0,8.691041470E-1
1.592285100E1,2.710094929E0,-2.031563282E0,1.026305914E0
1.594285100E1,2.707913160E0,-3.137508631E0,1.035870314E0
1.596285100E1,2.667875290E0,-4.231830120E0,6.460859776E-1
1.598285256E1,2.078844309E0,-4.166781425E0,-6.276203692E-2
1.600485100E1,1.001871347E0,-2.929657221E0,-4.220206290E-2
1.602485256E1,-1.903456002E-1,-1.549974561E0,2.963918149E-1
1.604485256E1,-1.356330276E0,-5.420643687E-1,4.629660249E-1
1.606685100E1,-2.705888748E0,-1.352630109E-1,5.867797136E-1
1.608685100E1,-3.973975182E0,1.414938420E-1,5.733406544E-1
1.610685256E1,-3.100263357E0,2.640334070E-1,2.634050846E-1
1.612685256E1,2.049993992E0,7.668802142E-1,-3.911108375E-1
1.614685256E1,1.584968448E0,-7.098428607E-1,-1.791929603E-1
1.616885100E1,2.053903490E-1,-6.329960227E-1,5.589591265E-1
1.618885100E1,-6.382668763E-2,-9.428268671E-2,-1.561022550E-1
1.620885256E1,-1.252238870E0,1.973618269E-1,-1.030966043E0
1.622885881E1,-8.868367076E-1,1.424921751E0,-8.718268871E-1
1.625085100E1,4.471882582E-1,3.541848898E0,2.987480164E-1
1.627085100E1,-1.194328785E0,1.209425926E0,3.767293096E-1
1.629085100E1,-3.450114489E0,-3.146828711E-2,2.048492879E-1
1.631085256E1,-4.185037613E0,1.831688166E0,-4.777140617E-1
1.633285256E1,-3.184964180E0,4.404058933E0,-6.776241064E-1
1.635486194E1,-2.636790991E0,4.511920452E0,-4.660028964E-2
1.637685100E1,-2.949222565E0,2.105669975E0,3.955614269E-1
1.639685256E1,-2.987654686E0,-1.380049229E0,1.037598252E-1
1.641885100E1,-1.810779095E0,-2.755333900E0,-4.104665220E-1
1.643885100E1,-8.225038648E-1,-2.031528234E0,-6.016150117E-1
1.645887756E1,-7.672641873E-1,-1.257789016E0,-6.225065589E-1
1.648085100E1,-1.316240072E0,-1.063778177E-1,-4.375889599E-1
1.650085100E1,-1.456669211E0,1.435515881E0,-2.217091769E-1
1.652085100E1,-1.520181775E0,1.860520959E0,-2.201383710E-1
1.654085100E1,-1.571756244E0,1.249708056E0,-3.202155530E-1
1.656085100E1,-1.363713026E0,2.236115783E-1,-4.623726308E-1
1.658085100E1,-9.417971373E-1,-5.677032471E-1,-4.784994721E-1
1.660085256E1,-5.200208426E-1,-1.287529320E-1,-1.992991418E-1
1.662085256E1,-3.410373256E-2,1.515085459E0,2.000147291E-2
1.664285100E1,1.849525422E-1,1.831112146E0,1.314407438E-1
1.666285100E1,4.288972020E-1,1.142230749E0,2.087413818E-1
1.668285100E1,1.416910648E0,8.521046638E-1,2.816961408E-1
1.670285100E1,2.992803335E0,1.495869279E0,6.683912873E-1
1.672285100E1,3.840684175E0,2.123629332E0,1.138932109E0
1.674285100E1,3.034080267E0,1.376122355E0,1.499063253E0
1.676285100E1,2.023883820E0,4.189139307E-1,1.740058303E0
1.678285100E1,1.784913301E0,1.868025959E-1,1.413542151E0
1.680285100E1,1.549224019E0,5.891533494E-1,8.561537862E-1
1.682285100E1,2.746991158E0,-4.921828508E-1,5.630257726E-1
1.684285100E1,3.117559433E0,-9.084613323E-1,4.373795092E-1
1.686285100E1,2.280709028E0,-1.334426403E0,5.440540314E-1
1.688285100E1,2.053170443E0,-1.329696536E0,7.509104609E-1
1.690285100E1,2.368778229E0,-1.510442853E0,5.752954483E-1
1.692285100E1,2.528877258E0,-1.910734057E0,5.610535145E-1
1.694285100E1,2.407419920E0,-2.451402187E0,8.339008689E-1
1.696285100E1,2.201122046E0,-3.091048002E0,7.480131984E-1
1.698285100E1,1.666353106E0,-3.472384930E0,1.054178849E-1
1.700285100E1,8.260643482E-1,-2.728700161E0,-1.876927018E-1
1.702485725E1,-4.192979038E-1,-1.469410181E0,2.193355262E-1
1.704486194E1,-1.521263838E0,-8.874999285E-1,4.941550791E-1
1.706685100E1,-2.615113974E0,-5.481555462E-1,6.408848763E-1
1.708685100E1,-3.736226320E0,-1.422268748E-1,6.270967722E-1
1.710685100E1,-2.141728401E0,8.496960998E-1,3.062005639E-1
1.712685100E1,2.440563679E0,-1.970476657E-1,-2.235243171E-1
1.714685100E1,1.511315465E0,-2.274443150E0,4.778362513E-1
1.716685100E1,4.192280769E-1,-9.694780111E-1,8.510400057E-1
1.718685100E1,-2.520255446E-1,-7.363718748E-1,1.015607119E-1
1.720685100E1,-1.624674678E0,-3.581764698E-1,-7.470183969E-1
1.722685100E1,-1.238206387E0,6.388079524E-1,-1.321964741E0
1.724685100E1,9.761975408E-1,3.040206432E0,-6.586523652E-1
1.726685100E1,-4.089829922E-1,1.429616690E0,1.376890242E-1
1.728685256E1,-2.617906570E0,-1.140398160E-1,3.916169703E-1
1.730885100E1,-3.849794865E0,1.597168207E0,1.063603610E-1
1.732885100E1,-3.307660818E0,4.276021957E0,-1.720545590E-1
1.734885100E1,-2.294200420E0,5.300268173E0,-9.560913593E-2
1.736885100E1,-2.108183146E0,3.820612907E0,1.990722567E-1
1.738885100E1,-3.203342438E0,-1.695168495E0,2.178694457E-1
1.740885100E1,-2.578811169E0,-2.565459490E0,-1.047197580E-1
1.742885100E1,-1.008468747E0,-1.874675632E0,-3.406708241E-1
1.744885256E1,-6.192079186E-1,-1.402529120E0,-3.379131854E-1
1.747085100E1,-1.556100607E0,-8.051727414E-1,-3.180862665E-1
1.749085725E1,-1.775663018E0,6.962642074E-1,-3.476346731E-1
1.751285100E1,-1.610328078E0,2.069611311E0,-4.361228645E-1
1.753285100E1,-1.679547787E0,1.693283558E0,-3.943047822E-1
1.755285100E1,-1.692201376E0,7.326019406E-1,-4.049687386E-1
1.757285100E1,-1.524161100E0,-5.501626730E-1,-5.300739408E-1
1.759285100E1,-1.257422447E0,-1.191571236E0,-5.462880731E-1
1.761285100E1,-3.968529701E-1,5.937610269E-1,-2.178869098E-1
1.763285100E1,8.169886470E-2,1.962395787E0,-5.180137232E-2
1.765285100E1,1.729097664E-1,1.762276411E0,2.230181694E-1
1.767285100E1,3.419798017E-1,7.257776856E-1,3.087312877E-1
1.769285256E1,1.343327522E0,2.030516118E-1,4.157199860E-1
1.771285256E1,3.020274878E0,1.119035244E0,7.547501922E-1
1.773485256E1,3.894981384E0,1.958433986E0,1.124114156E0
1.775486506E1,3.029909134E0,1.634378672E0,1.557968140E0
1.777685256E1,1.955693722E0,1.487788439E0,1.560167313E0
1.779685256E1,1.600623965E0,1.476269245E0,1.002778888E0
1.781885100E1,2.333557606E0,-1.981751561E0,3.654021323E-1
1.783885100E1,3.355063915E0,-1.753340364E0,4.022634923E-1
1.785887912E1,3.009802818E0,-6.179163456E-1,5.135805607E-1
1.788085256E1,2.486745119E0,-9.760230184E-1,5.767614841E-1
1.790085256E1,2.674211025E0,-8.046665788E-1,5.034925938E-1
1.792085256E1,2.577764034E0,-1.179702997E0,5.572312474E-1
1.794085256E1,2.528528214E0,-1.985311985E0,8.584925532E-1
1.796085256E1,2.778843403E0,-2.921227455E0,8.790001869E-1
1.798085256E1,2.347258329E0,-3.556405067E0,3.187669218E-1
1.800085256E1,1.593537927E0,-3.466206312E0,-2.723411620E-1
1.802085256E1,5.442983508E-1,-2.429812431E0,-2.501056902E-2
1.804085256E1,-5.536009669E-1,-1.529816031E0,2.109230459E-1
1.806285100E1,-1.549677849E0,-6.986553073E-1,4.692143202E-1
1.808285100E1,-2.335076094E0,-5.862910151E-1,7.848745584E-1
1.810285100E1,-2.975123167E0,-1.778490543E-1,7.849094868E-1
1.812285256E1,-1.931887507E0,-3.447374403E-1,2.087762803E-1
1.814285256E1,1.091773272E0,-7.601606846E-1,-1.047023013E-1
1.816285256E1,1.415147901E0,-7.552737594E-1,4.175351262E-1
1.818486038E1,5.367585421E-1,-7.533538938E-1,4.212177694E-1
1.820685100E1,-6.728767753E-1,5.673192739E-1,-1.637293398E-1
1.822685256E1,-1.683754086E0,1.510495186E0,-4.129972458E-1
1.824885100E1,-1.051874995E0,3.271986246E0,-7.291287184E-1
1.826885100E1,6.952170134E-1,2.360470533E0,-9.948551059E-1
1.828885256E1,-1.377675653E0,1.713826060E0,-3.919660449E-1
1.831085256E1,-3.301779032E0,1.523375750E0,1.302888244E-1
1.833285100E1,-4.320684910E0,2.598568439E0,5.721189082E-2
1.835285100E1,-4.012965679E0,3.875800371E0,-3.122394085E-1
1.837285256E1,-2.993763208E0,4.794873238E0,-3.822969198E-1
1.839285256E1,-2.454142332E0,3.427093506E0,-2.676287889E-1
1.841485256E1,-2.622863293E0,-4.155279994E-1,-3.848276436E-1
1.843485412E1,-1.783621788E0,-1.564687610E0,-4.637165368E-1
1.845685100E1,-7.454825044E-1,-1.593328476E0,-3.888767958E-1
1.847685256E1,-7.422710657E-1,-1.589593530E0,-2.629513144E-1
1.849885100E1,-1.314756513E0,-1.344653964E0,-2.336123139E-1
1.851885100E1,-1.514474511E0,1.242848933E-1,-2.936167419E-1
1.853885100E1,-1.697978497E0,1.342542171E0,-3.142639697E-1
1.855887600E1,-1.800865650E0,1.033793449E0,-3.930656016E-1
1.858085100E1,-1.574793100E0,1.049466506E-1,-5.741958618E-1
1.860085256E1,-1.323919535E0,-4.428947568E-1,-7.030884624E-1
1.862285256E1,-7.678924799E-1,3.887721002E-1,-5.425530672E-1
1.864485100E1,-2.199289352E-1,1.477176905E0,-1.865407825E-1
1.866485256E1,5.283111706E-2,1.616419196E0,1.647765338E-1
1.868485881E1,-9.808750451E-2,9.110269547E-1,3.744603992E-1
1.870486506E1,4.535587132E-1,7.878590822E-1,3.108256757E-1
1.872685100E1,2.061059237E0,1.288157701E0,5.089903474E-1
1.874685100E1,3.418925524E0,1.431693554E0,7.689048052E-1
1.876685256E1,3.685716391E0,1.160120368E0,1.126278400E0
1.878885100E1,2.651242495E0,2.294584364E-1,1.553500056E0
1.880885100E1,2.321287870E0,7.300712168E-2,1.657748580E0
1.882885256E1,2.146056890E0,7.709119320E-1,1.317287207E0
1.884885256E1,2.101376295E0,-3.524168730E-1,6.018767953E-1
1.887085100E1,3.000936508E0,-2.494756222E0,2.925695479E-1
1.889085256E1,3.050922871E0,-2.009729147E0,5.092172623E-1
1.891085256E1,2.749103069E0,-1.216616631E0,7.860614061E-1
1.893085256E1,2.694631338E0,-1.015746713E0,9.342747331E-1
1.895085256E1,2.506903648E0,-1.911118031E0,1.134045124E0
1.897085256E1,2.819108248E0,-3.082216501E0,1.093448758E0
1.899285100E1,2.857906818E0,-3.734393835E0,3.930132389E-1
1.901285100E1,2.165482283E0,-3.881769419E0,-3.440043926E-1
1.903285256E1,1.350605607E0,-2.997742653E0,-2.409252524E-1
1.905285256E1,2.258630544E-1,-1.655601859E0,5.372123420E-2
1.907285256E1,-8.536230922E-1,-7.642273307E-1,3.020117581E-1
1.909285256E1,-1.733879924E0,-2.167175263E-1,4.467868209E-1
1.911485100E1,-2.663808823E0,1.610938832E-2,6.281439662E-1
1.913485256E1,-3.328307867E0,2.435432374E-1,7.646461725E-1
1.915485256E1,-1.212288260E0,-2.288650274E-1,7.747516781E-2
1.917685100E1,1.455848932E0,-2.933723927E-1,-1.947962046E-1
1.919685256E1,1.406264186E0,-3.490309417E-1,5.823116302E-1
1.921885256E1,3.649483323E-1,1.589820385E-1,6.667506695E-1
1.924085100E1,-5.791177154E-1,6.768386811E-2,-1.238660142E-1
1.926085100E1,-1.823328018E0,-2.384643406E-1,-1.958259344E-1
1.928085100E1,-1.680490255E0,1.454941392E0,-2.110975683E-1
1.930085100E1,6.969972253E-1,4.818889141E0,-1.806590259E-1
1.932085256E1,-1.718102098E-1,2.504058838E0,-8.375486135E-1
1.934285100E1,-2.744495392E0,-3.637964427E-1,-7.124434114E-1
1.936285100E1,-4.310160160E0,1.704645634E0,-5.268276334E-1
1.938285100E1,-4.420046329E0,4.494153023E0,-3.448770642E-1
1.940285100E1,-3.702209949E0,5.325994492E0,-4.324576855E-1
1.942285100E1,-2.732190847E0,5.083044529E0,-4.278325438E-1
1.944285100E1,-2.577275276E0,2.300920010E0,-3.758392036E-1
1.946285100E1,-2.582005262E0,-1.827045560E0,-6.509729028E-1
1.948285100E1,-1.254874229E0,-2.565878391E0,-7.870387435E-1
1.950285100E1,-4.524591565E-1,-2.298546314E0,-6.060655713E-1
1.952285100E1,-9.251815677E-1,-2.146423340E0,-3.635520935E-1
1.954285100E1,-1.403331995E0,-7.360751629E-1,-2.658660114E-1
1.956285100E1,-1.493094206E0,1.371392488E0,-2.882585824E-1
1.958285100E1,-1.685883284E0,1.841078043E0,-2.552369535E-1
1.960285100E1,-1.683282733E0,1.163384080E0,-3.310365975E-1
1.962285100E1,-1.427574635E0,3.532197475E-1,-5.786813498E-1
1.964285100E1,-1.115387559E0,-1.248259470E-1,-7.512769699E-1
1.966285100E1,-5.174028277E-1,4.416555762E-1,-4.484623373E-1
1.968285100E1,2.146754880E-3,1.325420499E0,-1.374795884E-1
1.970285256E1,2.088460922E-1,1.293603182E0,1.482482702E-1
1.972487131E1,4.661774263E-2,4.583758116E-1,3.351555765E-1
1.974685256E1,1.400469661E0,7.096858025E-1,2.805965841E-1
1.976685256E1,2.718070984E0,1.284457564E0,5.739340782E-1
1.978885100E1,3.812427282E0,1.583659410E0,1.241784334E0
1.980885100E1,3.194301605E0,1.081458330E0,1.775174379E0
1.982885100E1,2.177420378E0,4.098381996E-1,2.002206802E0
1.984885256E1,1.940614104E0,4.977678955E-1,1.533865213E0
1.986885256E1,2.016239166E0,-8.350876570E-1,8.098676801E-1
1.989085100E1,2.668835402E0,-1.869544387E0,4.733158350E-1
1.991085100E1,2.501318693E0,-5.780705214E-1,5.531821251E-1
1.993085100E1,1.961750031E0,-4.661425352E-1,1.206528664E0
1.995085100E1,1.847692847E0,-8.659974933E-1,1.619124532E0
1.997085100E1,1.991525412E0,-1.976899505E0,1.514404774E0
1.999085100E1,2.193233013E0,-3.379864931E0,1.495118856E0
2.001085100E1,2.800345898E0,-4.444097042E0,1.335997224E0
2.003085100E1,2.961160421E0,-4.796915054E0,6.835930943E-1
2.005085256E1,2.342196941E0,-4.286161900E0,-8.604473434E-3
2.007285100E1,1.415409684E0,-2.838289261E0,1.745503843E-1
2.009285256E1,1.549852341E-1,-1.809557319E0,4.678005874E-1
2.011485100E1,-1.458973050E0,-1.037388802E0,5.353971720E-1
2.013485100E1,-2.695085049E0,-6.927211881E-1,4.568922818E-1
2.015485256E1,-3.161628962E0,-2.585181594E-1,3.760835528E-1
2.017485256E1,-1.219583750E0,-5.962044597E-1,-2.725506127E-1
2.019685256E1,1.220735669E0,-3.381924331E-1,-6.618114114E-1
2.021685256E1,6.816034317E-1,-3.917216957E-1,5.254139304E-1
2.023885100E1,1.369734406E-1,2.457249016E-1,8.086982965E-1
2.025887756E1,-5.319588780E-1,5.851565599E-1,7.522369269E-3
2.028085100E1,-1.875251532E0,1.196615219E0,-4.911530912E-1
2.030085100E1,-1.504753113E0,1.830239534E0,-1.055313349E0
2.032085100E1,6.043726206E-1,4.054818630E0,-5.758888125E-1
2.034085256E1,-3.273190558E-1,1.865913987E0,-7.557275891E-2
2.036085256E1,-2.420562267E0,-1.819505692E-1,1.117010694E-2
2.038285100E1,-3.928020477E0,2.278579712E0,-2.478891164E-1
2.040285256E1,-3.947568178E0,4.467763424E0,-3.618416488E-1
2.042485100E1,-2.930145979E0,4.915667534E0,-4.969126880E-1
2.044486819E1,-2.245139122E0,3.380109310E0,-4.511850774E-1
2.046685256E1,-2.481805801E0,-1.034683585E0,-6.292260885E-1
2.048685256E1,-1.832019806E0,-2.649724007E0,-7.054097056E-1
2.050685256E1,-9.284278750E-1,-2.316401005E0,-6.061877608E-1
2.052685256E1,-8.931024075E-1,-1.756097913E0,-3.551570475E-1
2.054686038E1,-1.448640704E0,-1.213859081E0,-2.635272741E-1
2.056885256E1,-1.677558064E0,7.385535240E-1,-2.639636099E-1
2.058885256E1,-1.688902736E0,2.365374804E0,-2.957634926E-1
2.061085100E1,-1.839227915E0,2.042733431E0,-4.043229818E-1
2.063085100E1,-1.683404922E0,6.535210609E-1,-5.647012591E-1
2.065085256E1,-1.102908492E0,1.511629671E-1,-6.964212656E-1
2.067285100E1,-6.908711195E-1,8.204094768E-1,-5.983337760E-1
2.069285256E1,-5.747194886E-1,1.228519797E0,-4.017747939E-1
2.071285256E1,-6.845181435E-2,1.292695522E0,-6.124360487E-2
2.073285256E1,3.813195229E-1,9.254084826E-1,3.026750088E-1
2.075285256E1,1.209443331E0,7.089178562E-1,4.383394420E-1
2.077285256E1,2.290727139E0,1.131043196E0,6.141464710E-1
2.079285256E1,3.462715864E0,1.666911602E0,1.035660863E0
2.081285256E1,3.694792271E0,1.792627692E0,1.642634034E0
2.083285256E1,2.499136925E0,1.124009490E0,2.052960873E0
2.085285256E1,1.714384556E0,6.736272573E-1,2.027758360E0
2.087285256E1,1.469375253E0,4.972268343E-1,1.483617067E0
2.089285256E1,2.467773438E0,-2.252993107E0,4.387059510E-1
2.091485256E1,2.989958525E0,-2.253429413E0,1.729795784E-1
2.093685100E1,2.361395597E0,-1.217716217E0,9.073268771E-1
2.095685100E1,2.290709734E0,-9.863902926E-1,1.259167790E0
2.097685256E1,2.392078400E0,-1.866350412E0,1.113380432E0
2.099685256E1,2.465225220E0,-2.888170719E0,1.078386545E0
2.101685256E1,2.828724861E0,-3.565376043E0,1.083099008E0
2.103885100E1,2.801550150E0,-4.184985161E0,5.622054338E-1
2.105887756E1,2.179113388E0,-4.389834881E0,-2.081130594E-1
2.108085256E1,1.208867431E0,-3.036925316E0,-1.402197480E-1
2.110085569E1,1.614429504E-1,-1.857903004E0,2.072578520E-1
2.112285100E1,-1.126348257E0,-6.924419403E-1,4.867199659E-1
2.114285256E1,-2.243411303E0,-2.973691821E-1,7.017619610E-1
2.116285256E1,-3.049823284E0,6.998770405E-3,1.131601691E0
2.118285256E1,-1.923666954E0,-7.746120095E-1,7.428470254E-1
2.120285256E1,1.356888771E0,-4.667708576E-1,1.608495414E-1
2.122285256E1,9.314298630E-1,-1.399439931E0,6.300638318E-1
2.124285256E1,3.000395596E-1,-8.417373896E-1,7.056016922E-1
2.126285256E1,-3.008598685E-1,-8.365362883E-2,8.710937947E-2
2.128285256E1,-1.363468647E0,8.174772859E-1,-1.938013583E-1
2.130285256E1,-1.829122543E0,1.375179768E0,-8.574104309E-1
2.132285256E1,7.947007418E-1,3.801414251E0,-9.477312565E-1
2.134285256E1,4.125783741E-1,1.823816657E0,-7.143807411E-1
2.136485100E1,-2.563574553E0,-1.128704399E-1,-9.341002256E-2
2.138485100E1,-4.483017921E0,1.427976012E0,2.686061710E-2
2.140485569E1,-4.689420223E0,3.757833481E0,-3.595901728E-1
2.142685100E1,-3.646254539E0,5.167134285E0,-7.614871264E-1
2.144685100E1,-2.886355639E0,4.087229252E0,-6.864554286E-1
2.146685100E1,-2.567588806E0,1.190227270E0,-5.325872302E-1
2.148685100E1,-2.160490751E0,-2.178607225E0,-6.540796161E-1
2.150685100E1,-1.362194538E0,-2.557570457E0,-5.769709349E-1
2.152685100E1,-7.098777890E-1,-1.258574367E0,-4.234168828E-1
2.154685413E1,-8.582656384E-1,-1.180540696E-1,-2.090729922E-1
2.156885256E1,-1.370624542E0,1.230491996E0,-2.092126161E-1
2.158885256E1,-1.567131162E0,2.200947523E0,-1.974665523E-1
2.160885256E1,-1.670489550E0,1.765854359E0,-2.019171417E-1
2.162885256E1,-1.624517560E0,5.511924028E-1,-3.651228845E-1
2.164885412E1,-1.515591502E0,-2.355147302E-1,-6.130468845E-1
2.167085256E1,-1.492012143E0,-4.657236636E-1,-8.425925970E-1
2.169085256E1,-8.303753138E-1,6.149144173E-1,-5.586100817E-1
2.171085256E1,-2.698279023E-1,1.387798548E0,-1.657713652E-1
2.173085256E1,-6.873106211E-2,1.075314760E0,1.926668882E-1
2.175085256E1,-2.422866076E-1,6.251595020E-1,3.219783306E-1
2.177285100E1,7.619932890E-1,9.959721565E-1,3.134611249E-1
2.179285100E1,1.852230668E0,9.244136214E-1,6.287723184E-1
2.181285100E1,3.221511364E0,1.201816320E0,1.211275935E0
2.183285100E1,3.490763187E0,5.307022929E-1,1.678587914E0
2.185285100E1,2.893825769E0,-7.117452621E-1,1.841479421E0
2.187285100E1,2.399670601E0,-6.607118249E-1,1.411587358E0
2.189285100E1,2.051460028E0,-1.186823845E-2,5.029864311E-1
2.191285100E1,3.012420893E0,-2.059610605E0,-3.595901728E-1
2.193285100E1,3.581275940E0,-2.098967791E0,-6.243566275E-1
2.195285100E1,2.939884901E0,-1.037720442E0,2.117258906E-1
2.197285100E1,2.583122253E0,-2.879793197E-2,6.721437573E-1
2.199285100E1,2.444455862E0,4.623377323E-2,8.585623503E-1
2.201285100E1,2.522541761E0,-9.314996600E-1,1.185898900E0
2.203285100E1,2.708419323E0,-1.941294789E0,1.323832273E0
2.205285100E1,2.906706333E0,-3.068027020E0,9.494765401E-1
2.207285100E1,2.471019745E0,-3.754953623E0,2.273814976E-1
2.209285100E1,1.699200153E0,-3.325742245E0,-2.389879376E-1
2.211285100E1,6.731734872E-1,-2.100311756E0,-2.389355749E-2
2.213285100E1,-4.479736686E-1,-1.225430608E0,3.736575246E-1
2.215285100E1,-1.617309332E0,-4.516912103E-1,5.512273312E-1
2.217285100E1,-2.728787422E0,-1.756499410E-1,6.514616013E-1
2.219285100E1,-3.402292490E0,-6.390174031E-1,8.744099736E-1
2.221285100E1,1.497841626E-1,-1.337236404E0,4.542219341E-1
2.223285100E1,2.285927534E0,-1.229165554E0,1.581791937E-1
2.225285100E1,1.216756225E0,-1.089137793E0,7.335095406E-1
2.227285100E1,9.503841400E-1,-1.305034995E0,8.702909946E-1
2.229285100E1,6.440264732E-2,-9.456368089E-1,6.023131311E-2
2.231285100E1,-1.665672421E0,7.558322549E-1,-5.860291719E-1
2.233285256E1,-5.353448391E-1,3.214529991E0,-1.158479691E0
2.235485256E1,4.964065552E-1,1.267719865E0,-1.176770806E0
2.237485256E1,-1.875897288E0,1.312958837E0,-5.273512602E-1
2.239485256E1,-3.541046143E0,1.494595289E0,4.848524556E-2
2.241485256E1,-4.673101425E0,2.498665810E0,4.520577192E-1
2.243685100E1,-4.537384987E0,3.832812786E0,5.462880433E-2
2.245685100E1,-3.140650272E0,5.019741535E0,-3.028495312E-1
2.247685256E1,-1.690456152E0,4.194898605E0,-1.991769671E-1
2.249885100E1,-2.176460505E0,-3.412642181E-1,-2.927615345E-1
2.251885256E1,-2.107764244E0,-2.344081879E0,-4.020715058E-1
2.254085256E1,-1.055732250E0,-2.581219673E0,-5.088682175E-1
2.256285100E1,-8.521569967E-1,-2.309716463E0,-6.035872102E-1
2.258285100E1,-1.419738054E0,-1.342088342E0,-6.003059745E-1
2.260285100E1,-1.781859040E0,9.427570701E-1,-6.344620585E-1
2.262285100E1,-2.039225340E0,2.065963745E0,-4.641354084E-1
2.264285100E1,-2.045299053E0,1.365213990E0,-3.818605840E-1
2.266285100E1,-1.726235390E0,1.621236354E-1,-4.644844830E-1
2.268285100E1,-1.280879736E0,-6.700144410E-1,-5.966582298E-1
2.270285256E1,-9.328086972E-1,-4.352676570E-1,-4.460014403E-1
2.272485100E1,-4.143760800E-1,1.159334898E0,-7.351326942E-2
2.274485256E1,2.747148275E-2,2.125374794E0,4.295255244E-2
2.276485413E1,1.903979629E-1,1.696442604E0,3.697130978E-1
2.278685100E1,3.849149048E-1,6.591410637E-1,5.520650744E-1
2.280685256E1,1.535697699E0,5.424832106E-1,6.577098966E-1
2.282685256E1,3.181089401E0,1.023112059E0,1.073220372E0
2.284685256E1,3.698911190E0,7.013431191E-1,1.529362202E0
2.286885256E1,2.784602880E0,-8.342674002E-3,1.861533284E0
2.289085100E1,2.015209436E0,-5.283111706E-2,1.428918481E0
2.291085100E1,1.682654500E0,4.838576317E-1,7.644891143E-1
2.293085256E1,2.713027000E0,-1.481365681E0,-4.014257342E-3
2.295285100E1,3.330332518E0,-1.718922377E0,-5.681046844E-2
2.297285100E1,2.764304876E0,-1.006007791E0,7.408398986E-1
2.299285100E1,2.619023561E0,-5.501452088E-1,1.107812881E0
2.301285100E1,2.540640831E0,-4.316199124E-1,1.098772049E0
2.303285100E1,2.503500223E0,-1.089329839E0,1.101686716E0
2.305285100E1,2.923723221E0,-2.363926172E0,9.508379102E-1
2.307285100E1,3.117088318E0,-3.349269390E0,4.847477376E-1
2.309285100E1,2.387557983E0,-3.741340160E0,-8.204792440E-2
2.311285100E1,1.454208374E0,-3.227619886E0,-2.641381323E-1
2.313285100E1,4.546233714E-1,-2.257077217E0,-3.605850041E-2
2.315285100E1,-5.587496758E-1,-1.364952207E0,2.297376841E-1
2.317285100E1,-1.556013346E0,-4.786041975E-1,5.070181489E-1
2.319285100E1,-2.671941996E0,-4.392993823E-2,6.199933290E-1
2.321285100E1,-3.963869572E0,2.106088847E-1,5.084842443E-1
2.323285100E1,-1.858356714E0,-1.155407950E-1,1.712691635E-1
2.325285100E1,1.522799730E0,-8.292059302E-1,-2.587450743E-1
2.327285100E1,1.431920528E0,-1.369437695E0,4.982391298E-1
2.329285100E1,3.392221928E-1,-1.177224517E0,4.023682177E-1
2.331285100E1,-5.740213394E-1,4.258777797E-1,-1.766796857E-1
2.333285100E1,-1.133242249E0,1.983427048E0,-8.033052683E-1
2.335285100E1,-6.614797749E-3,3.532528877E0,-7.989069819E-1
2.337285100E1,-1.105491519E-1,2.004946947E0,-4.493873715E-1
2.339285100E1,-2.157314301E0,1.167747498E0,-3.356093466E-1
2.341285100E1,-3.674040318E0,1.793884277E0,-1.949183643E-1
2.343285100E1,-4.398509026E0,3.457951069E0,-2.133664936E-1
2.345285100E1,-3.963991880E0,4.823008060E0,-4.623551667E-1
2.347285100E1,-2.879513979E0,5.010700703E0,-4.926191866E-1
2.349285100E1,-2.278527260E0,2.789420128E0,-3.001093566E-1
2.351285256E1,-2.571707726E0,-9.766513109E-1,-3.542145789E-1
2.353485256E1,-1.844568610E0,-2.202256441E0,-4.261919558E-1
2.355685256E1,-8.618610501E-1,-2.035211086E0,-4.507661760E-1
2.357885100E1,-9.747838378E-1,-1.529152751E0,-3.649483323E-1
2.359885100E1,-1.452044129E0,-5.870764256E-1,-2.847155631E-1
2.361885100E1,-1.623068929E0,9.925338626E-1,-2.567728460E-1
2.363885256E1,-1.721976757E0,1.618216872E0,-2.054601610E-1
2.365887600E1,-1.786204815E0,9.173450470E-1,-2.750115395E-1
2.368085100E1,-1.574601173E0,-1.832595677E-3,-5.690994859E-1
2.370085100E1,-1.110553026E0,-4.708549380E-1,-7.043276429E-1
2.372085100E1,-6.412165165E-1,1.261873078E-2,-5.348038077E-1
2.374085100E1,-2.162288427E-1,1.411727071E0,-2.274687588E-1
2.376085100E1,7.574729156E-3,1.904730201E0,1.529257447E-1
2.378085100E1,-7.538077235E-2,1.113642216E0,3.663446009E-1
2.380085100E1,6.474996805E-1,7.195992470E-1,2.851693332E-1
2.382085256E1,2.171067476E0,1.096642733E0,4.473977089E-1
2.384285100E1,3.552320957E0,1.799486756E0,8.281587362E-1
2.386285100E1,3.391244650E0,1.337864637E0,1.284335375E0
2.388285100E1,2.315388680E0,3.930830657E-1,1.669582009E0
2.390285100E1,1.790620565E0,-2.860594541E-2,1.507755041E0
2.392285100E1,1.755836129E0,1.165879890E-2,9.442929626E-1
2.394285100E1,2.853019953E0,-1.340779424E0,4.254589081E-1
2.396285100E1,3.075479507E0,-8.371471763E-1,3.764325976E-1
2.398285100E1,2.223043203E0,-6.256307364E-1,6.710616350E-1
2.400285100E1,1.896806359E0,-5.659753680E-1,9.899158478E-1
2.402285100E1,1.970529079E0,-7.694633007E-1,1.032816052E0
2.404285100E1,1.968103051E0,-1.629805923E0,1.066343784E0
2.406285100E1,2.078268290E0,-2.733360052E0,1.122141957E0
2.408285100E1,2.618953705E0,-3.673743486E0,9.297892451E-1
2.410285100E1,2.609581470E0,-4.072638512E0,3.757868409E-1
2.412285100E1,2.007756948E0,-4.036387920E0,-1.182984188E-1
2.414285100E1,1.112280846E0,-2.836544037E0,-1.658062823E-2
2.416285100E1,7.185520232E-2,-1.872371793E0,2.210284919E-1
2.418285100E1,-1.020267129E0,-1.230422258E0,4.853935242E-1
2.420285100E1,-2.285822868E0,-9.271188974E-1,6.255260110E-1
2.422285100E1,-3.534675598E0,-5.211727619E-1,7.949625850E-1
2.424285100E1,-1.110797286E0,-7.423408628E-1,5.617865920E-1
2.426285100E1,1.800865650E0,-1.368338168E-1,-4.057890549E-2
2.428285100E1,1.104775906E0,-9.181827903E-1,6.035872102E-1
2.430285100E1,3.868173063E-1,-4.409748912E-1,6.048613191E-1
2.432285100E1,3.673918173E-2,-1.159945801E-1,-9.908234328E-2
2.434285256E1,-1.389892936E0,1.173559353E-1,-5.520476699E-1
2.436485256E1,-9.550092816E-1,2.082561731E0,-1.155687213E0
2.438685100E1,5.552415848E-1,3.810298204E0,-4.554436803E-1
2.440685100E1,-1.404920220E0,7.695854902E-1,1.222428605E-1
2.442685100E1,-3.585272789E0,4.200658500E-1,5.009094998E-2
2.444685100E1,-4.458007336E0,3.570664406E0,-3.351904750E-1
2.446685100E1,-4.110616684E0,5.323079586E0,-6.021560431E-1
2.448685100E1,-3.080436230E0,5.417449474E0,-6.333276033E-1
2.450685100E1,-2.394260168E0,3.718284369E0,-4.264363050E-1
2.452685100E1,-2.597678185E0,-5.189911127E-1,-4.463330507E-1
2.454685100E1,-2.027217388E0,-2.436811209E0,-5.160589218E-1
2.456685100E1,-9.867742658E-1,-2.743779659E0,-5.385911465E-1
2.458685100E1,-7.166321874E-1,-2.420475006E0,-3.317696452E-1
2.460685100E1,-1.239305973E0,-1.332174897E0,-1.317723542E-1
2.462685100E1,-1.451049328E0,1.361915350E0,-1.571843475E-1
2.464685100E1,-1.569888711E0,2.565459490E0,-4.974188283E-2
2.466685100E1,-1.642791152E0,1.720056891E0,-9.892526269E-2
2.468685100E1,-1.487072825E0,3.977605402E-1,-4.109203219E-1
2.470685100E1,-1.399038434E0,-7.253937125E-1,-8.302531242E-1
2.472685100E1,-1.059816241E0,-6.684785485E-1,-8.420690298E-1
2.474685100E1,-3.306351602E-1,5.015901923E-1,-4.789532423E-1
2.476685100E1,5.876523629E-2,1.076396942E0,-1.122421250E-1
2.478685100E1,2.044478655E-1,8.861734867E-1,2.163335532E-1
2.480685100E1,2.656390965E-1,4.404861927E-1,3.151541054E-1
2.482685256E1,1.801389217E0,9.655510187E-1,3.197966814E-1
2.484885256E1,3.315409899E0,1.558334708E0,5.868320465E-1
2.486885256E1,3.850335836E0,1.615092754E0,1.132387042E0
2.489085100E1,2.710269451E0,4.171860516E-1,1.906580210E0
2.491085100E1,1.960737824E0,-4.431740046E-1,1.833817482E0
2.493085100E1,1.884344697E0,1.991420686E-1,1.407660365E0
2.495085100E1,2.229536057E0,5.350131989E-1,7.773870826E-1
2.497085100E1,3.105080366E0,-6.217560768E-1,8.269544244E-1
2.499085100E1,2.521005869E0,-1.739377618E0,1.138932109E0
2.501085100E1,2.442082167E0,-1.725275397E0,1.283968925E0
2.503085100E1,2.478472233E0,-1.230736375E0,1.170347929E0
2.505085100E1,2.389949083E0,-2.065125942E0,9.967401028E-1
2.507085100E1,2.225923061E0,-2.906287432E0,9.802641869E-1
2.509085100E1,2.438731194E0,-3.580158949E0,7.200006843E-1
2.511085100E1,2.097065449E0,-3.876637936E0,2.974040993E-2
2.513085100E1,1.298123479E0,-3.816057682E0,-5.097059608E-1
2.515085100E1,4.370653629E-1,-2.883318901E0,-4.180936217E-1
2.517085100E1,-5.847201943E-1,-2.042279482E0,-1.717927605E-1
2.519085100E1,-1.763410807E0,-1.239794612E0,1.066047102E-1
2.521085100E1,-2.684298992E0,-5.274035931E-1,3.157824278E-1
2.523085100E1,-3.124226570E0,3.473205268E-1,6.156474352E-1
2.525085100E1,7.744200230E-1,8.331329226E-1,2.784498334E-1
2.527085100E1,2.040080547E0,-8.130790591E-1,3.964515328E-1
2.529085100E1,8.024500012E-1,-1.798806190E0,1.048384428E0
2.531085100E1,4.461061656E-1,-1.124742508E0,4.169242382E-1
2.533085100E1,-4.565257728E-1,-2.787290812E-1,-3.719122112E-1
2.535085100E1,-1.329731464E0,7.024251819E-1,-8.326616883E-1
2.537085100E1,9.159662127E-1,3.966732025E0,-5.792049766E-1
2.539085256E1,6.318789721E-1,1.865948915E0,-2.892534137E-1
2.541285100E1,-2.074271441E0,5.660102889E-2,-2.161590308E-1
2.543285256E1,-3.962787390E0,1.583031058E0,-4.715879560E-1
2.545485256E1,-4.456523895E0,4.487642765E0,-5.745275021E-1
2.547685256E1,-3.786299706E0,4.945966244E0,-4.699822664E-1
2.549885256E1,-3.123737812E0,3.544344902E0,-3.024830222E-1
2.552085100E1,-2.833402395E0,2.827258706E-1,-2.233846933E-1
2.554085100E1,-2.400648117E0,-1.904834867E0,-3.391523659E-1
2.556085100E1,-1.364009738E0,-2.236307859E0,-5.293583870E-1
2.558085100E1,-9.851685166E-1,-1.758558869E0,-3.428524733E-1
2.560085100E1,-1.409458041E0,-1.094722867E0,-1.825090796E-1
2.562085100E1,-1.760007501E0,-5.279621109E-2,-2.486745119E-1
2.564085100E1,-1.791144133E0,1.101704121E0,-3.295007050E-1
2.566085100E1,-1.723285794E0,1.394762397E0,-4.645193815E-1
2.568085100E1,-1.621812344E0,6.933494806E-1,-6.127676368E-1
2.570085100E1,-1.425707102E0,6.119124219E-2,-5.893976688E-1
2.572085100E1,-1.022029877E0,-1.393470913E-1,-4.734729230E-1
2.574085100E1,-6.048613191E-1,8.216486573E-1,-1.958782971E-1
2.576085100E1,-7.536331564E-2,1.728923202E0,4.024729133E-2
2.578085100E1,3.086440265E-1,1.690560818E0,2.488315850E-1
2.580085100E1,3.452435732E-1,7.439640164E-1,3.009122014E-1
2.582085100E1,1.414833665E0,4.501727819E-1,3.265336454E-1
2.584085100E1,3.017290354E0,1.023740292E0,5.777039528E-1
2.586085100E1,4.095293045E0,1.354200959E0,8.674460649E-1
2.588085100E1,3.422869921E0,8.209156394E-1,1.458030581E0
2.590085100E1,2.232590199E0,2.579771280E-1,1.707682490E0
2.592085100E1,1.806956768E0,4.242197275E-1,1.307513356E0
2.594085256E1,1.570639253E0,8.877966404E-1,7.784692049E-1
2.596285100E1,2.934613943E0,-9.703506827E-1,5.667956471E-1
2.598285256E1,2.661854029E0,-1.754160643E0,8.784765601E-1
2.600485725E1,2.315406084E0,-1.361845493E0,1.201135635E0
2.602685100E1,2.414488554E0,-1.129227996E0,1.212375522E0
2.604685100E1,2.338531733E0,-2.147313595E0,1.152528167E0
2.606685100E1,2.681820631E0,-3.384507656E0,1.067007065E0
2.608685100E1,3.127664804E0,-3.780086517E0,6.167470217E-1
2.610685100E1,2.423424482E0,-3.727761507E0,-6.216862798E-2
2.612685100E1,1.467874289E0,-3.525530100E0,-2.465801090E-1
2.614685100E1,5.260596871E-1,-2.566157579E0,-1.752659678E-1
2.616685100E1,-4.447098970E-1,-1.627973318E0,-5.480333697E-3
2.618685100E1,-1.350780129E0,-8.935213089E-1,2.176600099E-1
2.620685100E1,-2.318704844E0,-2.294758856E-1,3.329739273E-1
2.622685100E1,-3.218736172E0,6.014928222E-1,5.679824948E-1
2.624685100E1,-1.801546335E0,-4.066617228E-3,4.567701221E-1
2.626685100E1,1.802698255E0,-4.887445569E-1,1.446179748E-1
2.628685100E1,1.280635357E0,-1.186719179E0,8.332551122E-1
2.630685100E1,6.111794114E-1,-4.132765234E-1,8.284903169E-1
2.632685100E1,2.122320421E-2,6.585127115E-2,-1.080184281E-1
2.634685256E1,-1.979220867E0,5.312433243E-1,-4.854633212E-1
2.636885100E1,-1.435323834E0,2.626388788E0,-9.078853726E-1
2.638885100E1,1.268871784E0,4.305203438E0,-9.448514581E-1
2.640885100E1,-9.581333995E-1,9.470331073E-1,-5.843886137E-1
2.642885256E1,-2.968665361E0,3.264463842E-1,1.813396998E-2
2.645085100E1,-4.414600849E0,2.704736710E0,-2.007128671E-3
2.647085100E1,-4.275044441E0,4.411843300E0,-2.374520451E-1
2.649085100E1,-3.266802549E0,5.112156391E0,-3.952123523E-1
2.651085100E1,-2.536452055E0,4.146780014E0,-1.783377379E-1
2.653085100E1,-2.518352985E0,4.559323490E-1,-1.341285557E-1
2.655085100E1,-2.216760159E0,-1.972553611E0,-3.825587034E-1
2.657085256E1,-1.012343287E0,-2.151833773E0,-4.229805470E-1
2.659085256E1,-7.728667259E-1,-1.738993645E0,-2.754304111E-1
2.661085256E1,-1.360361934E0,-1.111495495E0,-1.835737228E-1
2.663285100E1,-1.670733929E0,6.257703304E-1,-3.795916438E-1
2.665285100E1,-1.724123478E0,1.850607514E0,-5.493772626E-1
2.667285100E1,-1.813013077E0,1.554268003E0,-6.209881306E-1
2.669285100E1,-1.723896623E0,6.617241502E-1,-7.037865520E-1
2.671285100E1,-1.367273450E0,-1.059240326E-1,-6.416877508E-1
2.673285100E1,-9.957103133E-1,1.871691048E-1,-4.959527552E-1
2.675285100E1,-5.111894608E-1,1.238188982E0,-1.550550461E-1
2.677285100E1,-4.487241432E-2,1.642668962E0,9.796532989E-2
2.679285100E1,3.121695817E-1,1.325368166E0,3.775147200E-1
2.681285100E1,7.720114589E-1,7.577521205E-1,4.550597072E-1
2.683285100E1,1.807532787E0,8.918806911E-1,5.150815845E-1
2.685285100E1,3.140283585E0,1.640626907E0,8.936434984E-1
2.687285100E1,3.732822895E0,1.597779155E0,1.448588371E0
2.689285100E1,2.768807650E0,7.017794251E-1,1.844097376E0
2.691285100E1,2.000287056E0,2.930582464E-1,1.686127663E0
2.693285100E1,1.758855581E0,5.848249197E-1,1.082959294E0
2.695285100E1,2.510132551E0,-1.869003296E0,3.744080365E-1
2.697285100E1,3.045198202E0,-1.552749634E0,8.086110651E-2
2.699285100E1,2.379878521E0,-4.667882919E-1,5.340707302E-1
2.701285100E1,2.136021137E0,-4.434008896E-1,1.077758312E0
2.703285100E1,2.222990990E0,-8.188735843E-1,1.095735192E0
2.705285100E1,2.451000690E0,-1.678116560E0,9.964433908E-1
2.707285100E1,2.631467819E0,-2.477006197E0,8.546178937E-1
2.709285100E1,2.914769650E0,-3.483048916E0,4.296302497E-1
2.711285256E1,2.491248131E0,-3.992423296E0,-1.656492054E-1
2.713285256E1,1.623540163E0,-3.500013351E0,-5.029515028E-1
2.715485256E1,6.587744951E-1,-2.504844189E0,-2.028770745E-1
2.717485256E1,-2.875429988E-1,-1.639911413E0,1.762607992E-1
2.719486975E1,-1.248660922E0,-5.068436265E-1,4.340110123E-1
2.721685100E1,-2.551043034E0,5.747543573E-1,4.708025753E-1
2.723685100E1,-3.698021173E0,4.193502665E-1,5.714905858E-1
2.725685256E1,-2.905449569E-1,-3.152064681E-1,4.954815209E-1
2.727685256E1,1.847204089E0,-1.475588560E0,1.148426626E-2
2.729885100E1,9.213942289E-1,-1.405723095E0,7.846651077E-1
2.731885100E1,1.306727976E-1,-1.031559348E0,8.004080057E-1
2.733885100E1,-7.249748707E-1,-1.798910797E-1,-9.485864639E-2
2.735887756E1,-2.241753340E0,9.522167444E-1,-5.174028277E-1
2.738085100E1,-1.049640998E-1,4.184793472E0,-6.009691954E-1
2.740085100E1,8.895768523E-1,2.368272066E0,-7.781026959E-1
2.742085100E1,-1.451258779E0,1.250336409E0,-3.011565506E-1
2.744085100E1,-3.117821217E0,1.008416295E0,-1.189616397E-1
2.746085100E1,-4.233854771E0,2.344256401E0,-4.217239022E-1
2.748085100E1,-4.263874054E0,3.642188072E0,-6.774146557E-1
2.750085100E1,-3.433062553E0,4.003715515E0,-6.393839121E-1
2.752085100E1,-2.855079412E0,2.706551790E0,-3.774623573E-1
2.754085100E1,-2.374851942E0,7.317292690E-1,-1.199913844E-1
2.756085100E1,-2.086104870E0,-2.016151905E0,-2.883633077E-1
2.758085100E1,-1.301823616E0,-2.171660900E0,-5.020439625E-1
2.760085100E1,-8.677253127E-1,-1.182268620E0,-4.919559658E-1
2.762085100E1,-1.223161697E0,-4.904375076E-1,-4.010068476E-1
2.764085100E1,-1.531945348E0,3.130073547E-1,-3.060609400E-1
2.766085100E1,-1.544214964E0,1.348615885E0,-2.924822867E-1
2.768085100E1,-1.698624253E0,1.531648636E0,-3.567453027E-1
2.770085100E1,-1.696145892E0,6.148794889E-1,-3.667285740E-1
2.772085100E1,-1.232935429E0,-2.004685104E-1,-4.172384143E-1
2.774085256E1,-9.035394788E-1,-2.339090258E-1,-4.622679055E-1
2.776285100E1,-4.495444596E-1,5.413138866E-1,-2.798635364E-1
2.778285100E1,-1.754055917E-2,1.073796391E0,-1.698030829E-1
2.780285100E1,1.425933987E-1,9.050579071E-1,1.015956178E-1
2.782285100E1,5.682792068E-1,9.977000356E-1,2.713986933E-1
2.784285256E1,1.666353106E0,1.542521954E0,5.677730441E-1
2.786485100E1,3.272858858E0,1.770444512E0,1.215272784E0
2.788485256E1,3.672591686E0,1.025485635E0,1.683387518E0
2.790685256E1,2.694334507E0,-6.186494231E-1,1.840083122E0
2.792885256E1,2.255960226E0,-6.870313883E-1,1.245257497E0
2.794885412E1,1.838599682E0,7.464773208E-2,3.770434856E-1
2.797085100E1,3.126617670E0,-1.277930021E0,-4.812745452E-1
2.799085100E1,3.088744164E0,-8.059581518E-1,-4.045673087E-2
2.801085100E1,2.650718689E0,-9.171879888E-1,7.122862935E-1
2.803085256E1,2.567885399E0,-6.962990761E-1,8.853008151E-1
2.805285100E1,2.350522280E0,-6.999642849E-1,1.003494501E0
2.807285100E1,2.080327749E0,-1.575473785E0,1.219845533E0
2.809285100E1,2.443757534E0,-2.972086191E0,1.085036278E0
2.811285100E1,2.428782701E0,-3.757781029E0,6.054372787E-1
2.813285256E1,1.799417019E0,-3.731583834E0,-1.073377486E-2
2.815485100E1,8.405331373E-1,-2.835287333E0,-1.530479193E-1
2.817485256E1,-2.020393163E-1,-1.783953428E0,2.075370997E-1
2.819485256E1,-1.213928819E0,-9.709266424E-1,5.895896554E-1
2.821485725E1,-2.317692518E0,-4.910832942E-1,6.241821051E-1
2.823685100E1,-3.205035448E0,-2.761110850E-2,5.579293966E-1
2.825685256E1,-3.769911081E-2,-2.839825153E-1,6.997025013E-2
2.827685256E1,1.792034268E0,-1.540654540E0,-5.543165654E-2
2.829885100E1,9.800198078E-1,-1.402825832E0,9.304524660E-1
2.831885100E1,3.234967887E-1,-8.178438544E-1,5.674414635E-1
2.833885100E1,-7.850142121E-1,5.367760062E-1,-3.880914152E-1
2.835887756E1,-1.788473725E0,2.497304440E0,-1.063690901E0
2.838085100E1,9.134529829E-1,3.816703558E0,-1.328335166E0
2.840085256E1,-4.243593514E-1,5.434955359E-1,-7.863406539E-1
2.842285256E1,-2.770343542E0,1.152894735E0,3.619463742E-1
2.844485256E1,-4.297454357E0,2.355007648E0,4.116708040E-1
2.846685100E1,-4.472772598E0,4.101436615E0,-7.473500073E-2
2.848685100E1,-3.602586508E0,5.166977406E0,-4.679576755E-1
2.850685100E1,-2.663232803E0,4.734833717E0,-4.681147635E-1
2.852685100E1,-2.655396223E0,1.075175166E0,-2.964790761E-1
2.854685256E1,-2.674402952E0,-1.708363175E0,-2.949257493E-1
2.856885100E1,-1.406333923E0,-2.367643833E0,-3.913377225E-1
2.858885256E1,-6.690195799E-1,-2.068599224E0,-5.042256117E-1
2.860885256E1,-8.389448524E-1,-1.752799273E0,-4.506265521E-1
2.863085100E1,-1.394430757E0,-8.889485598E-1,-2.728298604E-1
2.865085100E1,-1.643157721E0,8.176692724E-1,-3.241425455E-1
2.867085100E1,-1.841287494E0,1.820151567E0,-2.970725000E-1
2.869085100E1,-1.751402974E0,1.507039428E0,-2.534567118E-1
2.871085100E1,-1.380136609E0,4.499284327E-1,-3.880041540E-1
2.873085100E1,-9.692336917E-1,-3.345097899E-1,-5.346641541E-1
2.875085100E1,-4.984136820E-1,5.145230889E-1,-4.004308879E-1
2.877085100E1,-1.301317513E-1,1.545907974E0,-1.769763827E-1
2.879085100E1,3.710569814E-2,1.613818645E0,1.362404078E-1
2.881085100E1,2.796366513E-1,1.101267815E0,2.808234692E-1
2.883085100E1,1.561703205E0,1.098772049E0,4.751833379E-1
2.885085100E1,2.875883818E0,9.101542830E-1,8.013504744E-1
2.887085100E1,3.958336830E0,1.298507452E0,1.260895610E0
2.889085100E1,3.164351702E0,6.575527787E-1,1.790411115E0
2.891085256E1,2.225643873E0,-6.387904882E-1,1.806642652E0
2.893285100E1,2.109195471E0,9.958848357E-2,1.442060828E0
2.895285100E1,1.810081005E0,8.610058427E-1,8.200255036E-1
2.897285100E1,2.692205191E0,-1.013791919E0,1.950056404E-1
2.899285256E1,2.665623903E0,-2.233393192E0,4.041484296E-1
2.901485569E1,2.577729225E0,-1.752450228E0,1.262449026E0
2.903685100E1,2.661871433E0,-1.240859270E0,1.454313040E0
2.905685256E1,2.394190311E0,-1.649807334E0,1.356365204E0
2.907885256E1,2.248629808E0,-3.214844227E0,1.193473577E0
2.910085256E1,2.495489120E0,-4.044085026E0,6.884625554E-1
2.912285100E1,2.017338753E0,-4.120495319E0,-7.757988572E-2
2.914285100E1,1.342140794E0,-3.763453484E0,-5.022534132E-1
2.916285100E1,5.397779942E-1,-2.710496426E0,-2.952922583E-1
2.918285100E1,-4.615697861E-1,-1.644711018E0,5.546656251E-2
2.920285100E1,-1.460491538E0,-7.392516732E-1,2.597224414E-1
2.922285100E1,-2.493621588E0,6.279694289E-2,2.336646765E-1
2.924285100E1,-2.333487749E0,1.087340154E-2,2.180090696E-1
2.926285100E1,1.798788667E0,-1.999972761E-1,3.463256955E-1
2.928285100E1,1.355928779E0,-1.260668755E0,1.090289712E0
2.930285100E1,5.927138329E-1,-9.919579029E-1,1.325525165E0
2.932285100E1,5.053600669E-1,-2.366666496E-1,6.725800633E-1
2.934285100E1,-1.168113947E0,1.265974522E0,-1.691922098E-1
2.936285100E1,-2.237477303E0,1.815369368E0,-9.210277200E-1
2.938285100E1,1.852509856E0,3.972125053E0,-1.033147693E0
2.940285100E1,-1.943249553E-1,8.458912969E-1,-7.971965671E-1
2.942285100E1,-2.373333693E0,1.020110011E0,2.674717009E-1
2.944285100E1,-3.789057493E0,1.835876942E0,1.172337681E-1
2.946285100E1,-4.479073524E0,3.338552952E0,-1.310742199E-1
2.948285100E1,-4.308275223E0,4.346899509E0,-5.391496420E-1
2.950285100E1,-3.327016354E0,5.036112785E0,-9.959721565E-1
2.952285100E1,-2.107729435E0,3.298794508E0,-7.519401908E-1
2.954285100E1,-2.435921192E0,-5.324650407E-1,-5.873032808E-1
2.956285100E1,-2.116316319E0,-1.880452633E0,-5.868320465E-1
2.958285100E1,-1.135633349E0,-1.828092813E0,-5.084493160E-1
2.960285100E1,-1.022815347E0,-1.579557896E0,-3.051708043E-1
2.962285100E1,-1.358651519E0,-1.032606602E0,-3.159744143E-1
2.964285100E1,-1.539781809E0,6.581636518E-2,-3.232175112E-1
2.966285100E1,-1.731052399E0,1.031524539E0,-3.509857059E-1
2.968285100E1,-1.861376166E0,1.359105349E0,-3.805515766E-1
2.970285100E1,-1.740494728E0,8.817752600E-1,-4.562639594E-1
2.972285100E1,-1.409632564E0,3.896796703E-1,-5.841267705E-1
2.974285100E1,-9.035220146E-1,7.646113038E-1,-5.210505724E-1
2.976285100E1,-4.660203755E-1,1.906562805E0,-2.282017916E-1
2.978285100E1,-1.702219546E-1,2.307848930E0,1.989849806E-1
2.980285100E1,-7.215191424E-2,1.323291183E0,5.205270052E-1
2.982285100E1,8.601855040E-1,6.060655713E-1,3.472855985E-1
2.984285256E1,2.984582901E0,1.069223642E0,3.231302500E-1
2.986485100E1,3.603651047E0,1.632912636E0,9.759357572E-1
2.988485256E1,3.158731699E0,8.440237641E-1,1.708956599E0
2.990685256E1,2.163998842E0,-3.322408795E-1,2.091148853E0
2.992885256E1,2.084464073E0,1.411971301E-1,1.779380560E0
2.995085100E1,1.963949203E0,1.875007153E-1,9.466665983E-1
2.997085256E1,2.740236759E0,-1.577742696E0,4.552167654E-1
2.999285100E1,2.343785286E0,-1.246898174E0,4.953069985E-1
3.001285100E1,2.033797264E0,-6.691417694E-1,1.182844520E0
3.003285100E1,1.983776093E0,-1.153802276E0,1.534633040E0
3.005285100E1,2.064898968E0,-2.043187141E0,1.357761383E0
3.007285100E1,2.134851933E0,-3.110455990E0,1.161778450E0
3.009285256E1,2.615026712E0,-4.319707394E0,8.194670081E-1
3.011485256E1,2.768109560E0,-4.703435421E0,1.298699528E-1
3.013485256E1,1.997825980E0,-4.116638184E0,-4.985184073E-1
3.015685100E1,9.853256345E-1,-2.770291328E0,-2.881014943E-1
3.017685100E1,-1.398532391E-1,-1.815351844E0,1.285958588E-1
3.019685256E1,-1.482587337E0,-9.181304574E-1,4.430169165E-1
3.021885100E1,-2.904053450E0,-2.137853801E-1,4.978900850E-1
3.023885100E1,-3.794747114E0,3.683691919E-1,4.945390522E-1
3.025887756E1,3.789807856E-1,1.053794861E0,4.975933582E-2
3.028085100E1,1.746411324E0,-1.352211237E0,2.251474708E-1
3.030085100E1,4.791975915E-1,-1.569557190E0,7.891855240E-1
3.032085100E1,2.237512171E-2,4.979424179E-2,-5.007349700E-2
3.034085100E1,-7.635641098E-1,1.467612505E0,-9.232093692E-1
3.036085100E1,-1.289798319E-1,2.804779053E0,-1.253094077E0
3.038085100E1,5.763077140E-1,2.594990492E0,-1.852667034E-1
3.040085100E1,-1.363590837E0,-1.388234943E-1,2.209412307E-1
3.042085100E1,-3.185400486E0,-3.735004738E-2,-1.145459563E-1
3.044085100E1,-3.872030497E0,2.765578985E0,-6.568022966E-1
3.046085100E1,-3.462017536E0,4.692649364E0,-1.171150804E0
3.048085100E1,-2.559071541E0,4.483279705E0,-8.837649226E-1
3.050085100E1,-2.642672777E0,1.827237606E0,-2.513448596E-1
3.052085100E1,-3.158522367E0,-2.337589264E0,1.788962446E-2
3.054085256E1,-2.153090477E0,-3.249890327E0,-2.123192996E-1
3.056285256E1,-8.404284120E-1,-2.343872547E0,-4.400149584E-1
3.058485100E1,-1.060915828E0,-7.344520092E-1,-4.528954923E-1
3.060485256E1,-1.728277326E0,6.792472601E-1,-3.527135849E-1
3.062685256E1,-1.767337799E0,1.907749534E0,-2.341184616E-1
3.064885256E1,-1.494926810E0,2.008507490E0,-1.993340552E-1
3.067085256E1,-1.444713712E0,1.166927099E0,-2.507863641E-1
3.069085256E1,-1.421500802E0,9.911724925E-2,-3.117856085E-1
3.071285100E1,-1.306344032E0,-1.133067727E0,-5.280318856E-1
3.073285100E1,-8.767138124E-1,-8.080525398E-1,-5.386784077E-1
3.075285100E1,1.251226515E-1,1.463999629E0,-3.103893399E-1
3.077285256E1,3.597821593E-1,1.996866107E0,7.487462461E-2
3.079485100E1,3.953519762E-1,9.417272806E-1,3.628888428E-1
3.081485100E1,1.662251592E0,7.741233110E-1,5.028991699E-1
3.083485256E1,3.136950016E0,1.092087388E0,8.093091846E-1
3.085485256E1,3.823754549E0,1.109017134E0,1.242831469E0
3.087485256E1,2.850558996E0,2.982069552E-1,1.683195472E0
3.089685100E1,1.977719784E0,-3.896447420E-1,1.612823844E0
3.091685256E1,1.791231394E0,2.336472273E-1,1.090673685E0
3.093885100E1,2.448574781E0,-5.709320903E-1,3.901509047E-1
3.095887756E1,3.001198292E0,-1.526395202E0,2.025803626E-1
3.098085100E1,2.265280247E0,-1.679111481E0,7.097381353E-1
3.100085100E1,2.314795256E0,-1.171517372E0,1.330831051E0
3.102085100E1,2.407315254E0,-1.360850692E0,1.387048006E0
3.104085256E1,2.267008066E0,-2.191505194E0,1.262291908E0
3.106085256E1,2.289784670E0,-3.298201084E0,1.213771820E0
3.108085569E1,2.492120743E0,-3.798290253E0,8.227481842E-1
3.110285256E1,1.989134312E0,-3.961949825E0,3.539527580E-2
3.112485413E1,1.059571981E0,-3.502264977E0,-1.747598201E-1
3.114685256E1,-3.078760803E-1,-2.774619818E0,3.312984109E-1
3.116885100E1,-2.019485474E0,-1.788595915E0,6.874153614E-1
3.118885256E1,-3.355919123E0,-8.180881739E-1,8.331329226E-1
3.120885881E1,-3.848695278E0,8.451756835E-1,5.842314959E-1
3.123085100E1,-5.778785050E-2,2.160159111E0,-7.009591460E-1
3.125085100E1,2.457982063E0,-7.378379107E-1,-6.030810475E-1
3.127085100E1,9.603848457E-1,-1.863226295E0,9.883275628E-1
3.129085100E1,1.070759520E-1,-1.800656170E-1,4.425282180E-1
3.131085100E1,-9.512218833E-1,1.442252874E0,-8.902924657E-1
3.133085100E1,-5.646663904E-1,3.136356592E0,-1.351495743E0
3.135085100E1,6.517059207E-1,2.563993454E0,-5.830447078E-1
3.137085100E1,-6.381272674E-1,4.383569062E-1,2.716779411E-1
3.139085256E1,-2.508771181E0,-3.483677283E-2,3.974812925E-1
3.141285100E1,-3.552949190E0,3.391069889E0,-3.783873916E-1
3.143285100E1,-3.186063528E0,5.729409695E0,-8.853008151E-1
3.145285100E1,-2.700757265E0,5.437887192E0,-6.549173594E-1
3.147285100E1,-3.488284826E0,1.338318467E0,-2.293013632E-1
3.149285256E1,-3.591329098E0,-1.604847670E0,-2.280272692E-1
3.151486038E1,-2.031440973E0,-2.217126608E0,-3.632030189E-1
3.153685100E1,-7.730935812E-1,-2.241927862E0,-4.502425790E-1
3.155685100E1,-9.445722103E-1,-2.138935804E0,-4.589168727E-1
3.157685256E1,-1.426719427E0,-9.466316700E-1,-2.590766847E-1
3.159687131E1,-1.437523007E0,1.469270468E0,-1.799434423E-1
3.161885256E1,-1.571442127E0,2.495227337E0,-1.506568193E-1
3.163885256E1,-1.825038433E0,1.958835363E0,-2.434210628E-1
3.165887756E1,-1.663752556E0,9.330006838E-1,-3.645120263E-1
3.168085100E1,-1.184973836E0,-3.943396807E-1,-5.463054776E-1
3.170085100E1,-5.065469146E-1,1.423316002E-1,-5.545434356E-1
3.172085100E1,4.263839498E-2,1.372212768E0,-1.393819898E-1
3.174085100E1,9.651670605E-2,1.258748889E0,3.340211213E-1
3.176085100E1,1.040565297E-1,4.555483758E-1,4.518831968E-1
3.178085100E1,1.296954155E0,3.345796168E-1,2.922553718E-1
3.180085100E1,2.962469578E0,1.053969383E0,5.461484194E-1
3.182085256E1,3.946974754E0,1.445603848E0,9.693733454E-1
3.184085256E1,3.254218817E0,1.133032799E0,1.487439394E0
3.186285100E1,2.024512053E0,7.300537825E-1,1.734944582E0
3.188285256E1,1.775872469E0,9.637708068E-1,1.327375293E0
3.190285256E1,2.096070528E0,-4.686208963E-1,5.963615775E-1
3.192486663E1,3.447077513E0,-2.061286211E0,2.059488557E-3
3.194685100E1,2.858831882E0,-7.154453397E-1,4.567701221E-1
3.196685100E1,2.504529953E0,-6.049660444E-1,8.561712503E-1
3.198685256E1,2.482120037E0,-8.982162476E-1,9.197012186E-1
3.200685256E1,2.406372786E0,-1.556537032E0,9.736493826E-1
3.202885100E1,2.312020302E0,-2.634923458E0,1.062905550E0
3.204885256E1,2.636721134E0,-3.748618126E0,7.920827866E-1
3.207085100E1,2.166355133E0,-4.272723198E0,1.264840066E-1
3.209085100E1,1.276394129E0,-3.768794060E0,-2.608045638E-1
3.211085100E1,3.857352138E-1,-2.537760973E0,-9.768607467E-2
3.213085100E1,-5.796238184E-1,-1.581407905E0,2.451838553E-1
3.215085100E1,-1.680752039E0,-6.969448924E-1,6.471331716E-1
3.217085100E1,-2.909778118E0,-2.362128645E-1,7.755370736E-1
3.219085256E1,-3.813526869E0,-8.037241548E-2,7.483623028E-1
3.221285100E1,7.874576449E-1,8.740609139E-2,1.549328715E-1
3.223285100E1,1.729184985E0,-1.713005781E0,1.480388194E-1
3.225285100E1,8.854753375E-1,-1.458484411E0,8.238477707E-1
3.227285100E1,2.331934422E-1,-8.546004891E-1,2.561096251E-1
3.229285100E1,-9.311331511E-1,4.029092491E-1,-4.500505924E-1
3.231285100E1,-9.699841738E-1,2.431645155E0,-9.013752937E-1
3.233285100E1,8.736768961E-1,3.555288076E0,-5.086936355E-1
3.235285256E1,-8.281412721E-1,9.848369360E-1,-2.448871434E-1
3.237485256E1,-2.945626974E0,1.274718642E0,-1.903630644E-1
3.239485256E1,-3.994744539E0,2.764775991E0,-4.638037980E-1
3.241687444E1,-4.063074112E0,4.186346531E0,-6.227334738E-1
3.243885100E1,-3.226956606E0,4.619013786E0,-4.888492823E-1
3.245887600E1,-2.793800831E0,3.235892773E0,-2.502278686E-1
3.248085100E1,-3.120666027E0,-6.684262156E-1,-1.505520940E-1
3.250085100E1,-2.333801985E0,-2.569875240E0,-2.575582266E-1
3.252085100E1,-8.682489395E-1,-1.882058382E0,-3.889466226E-1
3.254085100E1,-6.991614699E-1,-8.807106018E-1,-2.943672240E-1
3.256085100E1,-1.380537987E0,-5.527457595E-2,-1.298699528E-1
3.258085100E1,-1.681799293E0,1.141253352E0,-1.121199504E-1
3.260085256E1,-1.546693325E0,1.729970336E0,-1.988279074E-1
3.262285100E1,-1.501018047E0,9.364040494E-1,-2.850646377E-1
3.264285100E1,-1.505521059E0,2.711718082E-1,-3.892258704E-1
3.266285100E1,-1.384848952E0,-3.881612420E-2,-4.479911029E-1
3.268285100E1,-1.162075162E0,-2.823244631E-1,-4.472057223E-1
3.270285100E1,-5.033878684E-1,6.441835761E-1,-3.287851214E-1
3.272285100E1,4.504694790E-2,1.748837352E0,-1.039692611E-1
3.274285100E1,4.749041051E-2,1.427836418E0,2.449744195E-1
3.276285100E1,-3.930481523E-2,6.111270189E-1,3.483153582E-1
3.278285100E1,1.330324888E0,1.017230272E0,3.473205268E-1
3.280285100E1,2.724528790E0,1.312033772E0,6.689149141E-1
3.282285100E1,3.637004375E0,1.165286541E0,1.135441422E0
3.284285100E1,3.178174734E0,3.349112272E-1,1.600257516E0
3.286285100E1,2.283274651E0,-6.023131311E-2,1.760740519E0
3.288285100E1,1.967003465E0,4.482005537E-1,1.121775508E0
3.290285100E1,1.898499370E0,2.332807034E-1,4.179888964E-1
3.292285100E1,3.232087851E0,-2.062979221E0,-6.346017122E-2
3.294285100E1,3.086004019E0,-1.295976758E0,1.976410896E-1
3.296285100E1,2.433704615E0,-7.426550388E-1,6.228032708E-1
3.298285100E1,2.343750238E0,-6.135879755E-1,8.803266287E-1
3.300285256E1,2.302577972E0,-1.227071166E0,1.058699250E0
3.302485256E1,2.380908251E0,-2.557710171E0,1.117237568E0
3.304685256E1,2.972801924E0,-3.753330469E0,6.677629948E-1
3.306885100E1,2.515176535E0,-4.209908485E0,-4.120722413E-2
3.308885100E1,1.632388949E0,-3.545601368E0,-3.007027805E-1
3.310885100E1,5.047143102E-1,-2.117922068E0,5.768313259E-2
3.312885100E1,-6.780953407E-1,-1.095630407E0,4.309217930E-1
3.314885100E1,-1.722447991E0,-3.188542128E-1,7.038912773E-1
3.316885100E1,-2.820085526E0,3.476172388E-1,8.180009127E-1
3.318885256E1,-3.672958136E0,1.041333199E0,7.895171642E-1
3.320885256E1,-2.130348831E-1,2.843839526E-1,4.780456796E-2
3.322885256E1,1.729621291E0,-1.550829768E0,-1.047546640E-1
3.324885256E1,8.512145281E-1,-1.272816300E0,7.539298534E-1
3.327085256E1,6.525786221E-2,-5.002986193E-1,2.528109550E-1
3.329285100E1,-1.126627445E0,1.179545879E0,-4.680100381E-1
3.331285100E1,-1.449513435E0,2.855498314E0,-1.152196527E0
3.333285100E1,7.276801467E-1,3.612482548E0,-1.206092358E0
3.335285256E1,-3.307573497E-1,8.678824306E-1,-6.568720937E-1
3.337485412E1,-2.650125265E0,1.045714021E0,8.503244072E-2
3.339685100E1,-3.971147537E0,2.589684725E0,-1.324879378E-1
3.341685100E1,-3.811467409E0,4.404705048E0,-4.218286276E-1
3.343685100E1,-3.001983643E0,5.194274426E0,-3.704810441E-1
3.345685100E1,-2.776539564E0,3.689730644E0,-2.184454054E-1
3.347685256E1,-2.873021364E0,7.677703500E-1,-2.923775613E-1
3.349885100E1,-2.425693512E0,-2.912675142E0,-5.433908105E-1
3.351885100E1,-1.092087388E0,-3.212138891E0,-5.773898363E-1
3.353885100E1,-5.930105448E-1,-1.561074853E0,-6.696304679E-1
3.355887756E1,-1.188464522E0,1.109680310E-1,-5.040336251E-1
3.358085100E1,-1.655793905E0,1.731174588E0,-1.486845911E-1
3.360085256E1,-1.775348902E0,2.260637760E0,-1.087340117E-1
3.362285100E1,-1.695814252E0,1.289361954E0,-2.014633566E-1
3.364285100E1,-1.455499887E0,3.694862127E-2,-3.905697763E-1
3.366285100E1,-1.098248482E0,-7.516784072E-1,-6.920405030E-1
3.368285100E1,-6.485818028E-1,-4.878195226E-1,-6.880437136E-1
3.370285256E1,-1.935570091E-1,5.584704280E-1,-3.257656991E-1
3.372485100E1,1.746027321E-1,1.306309104E0,-2.317797206E-2
3.374485881E1,5.044001341E-1,1.039413333E0,2.594955564E-1
3.376485881E1,1.273741245E0,6.921277642E-1,3.219259679E-1
3.378685100E1,2.889532089E0,9.271712303E-1,5.674763322E-1
3.380685256E1,4.062341213E0,1.195917010E0,1.005623817E0
3.382885100E1,3.320209742E0,3.235840499E-1,1.644449234E0
3.384885412E1,2.195973158E0,-1.050932527E0,1.769851089E0
3.387085100E1,1.988942266E0,-5.933945179E-1,1.411203384E0
3.389085256E1,1.858025193E0,2.975960970E-1,6.271840930E-1
3.391285100E1,3.139253855E0,-6.168691516E-1,2.699326277E-1
3.393285100E1,2.688278198E0,-1.179633141E0,6.165550351E-1
3.395285100E1,2.245907068E0,-1.398828983E0,1.163314342E0
3.397285100E1,2.433896542E0,-1.440175891E0,1.249882579E0
3.399285256E1,2.354484081E0,-1.683020949E0,1.223214030E0
3.401486975E1,2.166355133E0,-3.044656992E0,1.350954652E0
3.403685100E1,2.600173950E0,-4.419330597E0,9.956055880E-1
3.405685256E1,2.162759542E0,-4.528256893E0,2.304532677E-1
3.407885725E1,1.125527978E0,-3.903498650E0,-3.759613633E-1
3.410085100E1,1.284562349E-1,-2.515176535E0,-1.508837193E-1
3.412085100E1,-7.871086001E-1,-1.561092257E0,-1.303760987E-2
3.414085100E1,-1.984771013E0,-7.949799895E-1,1.261523962E-1
3.416085100E1,-3.322844982E0,-4.085641205E-1,1.230108067E-1
3.418085100E1,-2.887594938E0,-1.528035700E-1,2.131919712E-1
3.420085100E1,2.020166159E0,4.079183638E-1,7.939851880E-1
3.422085100E1,8.598713875E-1,-1.790585637E0,1.090900540E0
3.424085100E1,3.442662060E-1,-1.239497900E0,9.248848557E-1
3.426085100E1,-2.091253549E-1,2.912780046E-1,8.075638115E-2
3.428085100E1,-6.183527112E-1,1.929531336E0,-8.006174564E-1
3.430085100E1,5.068959594E-1,2.439900398E0,-1.388566494E0
3.432085100E1,7.388677001E-1,2.772280872E-1,-9.360375404E-1
3.434085100E1,-1.646491289E0,1.771439314E0,-6.109874249E-1
3.436085100E1,-3.219504118E0,2.875656843E0,-3.925245628E-2
3.438085100E1,-4.252704144E0,2.997934580E0,2.391450107E-1
3.440085100E1,-4.361560345E0,3.562600851E0,6.981316954E-2
3.442085100E1,-3.409064293E0,4.508918285E0,-3.087661862E-1
3.444085100E1,-2.417036772E0,4.170516491E0,-3.247708678E-1
3.446085256E1,-1.977143884E0,1.205516338E0,-1.275835633E-1
3.448285256E1,-2.335529804E0,-2.180160522E0,-3.293610811E-1
3.450485725E1,-1.239428163E0,-1.789486051E0,-3.459940553E-1
3.452486194E1,-9.447990656E-1,-1.042904019E0,-2.306278050E-1
3.454685256E1,-1.403262138E0,-7.039610744E-1,-1.777094305E-1
3.456885100E1,-1.613260150E0,2.221804112E-1,-2.317099124E-1
3.458885100E1,-1.627676606E0,1.351338625E0,-3.614227772E-1
3.460885100E1,-1.802209496E0,1.585108042E0,-3.680899441E-1
3.462885100E1,-1.823258162E0,8.977624774E-1,-3.547905385E-1
3.464885256E1,-1.519047260E0,9.688322991E-2,-4.845383167E-1
3.467085100E1,-8.906939030E-1,9.442231059E-2,-4.439244866E-1
3.469085100E1,-4.727747738E-1,7.915766239E-1,-3.616671264E-1
3.471085100E1,-5.016076192E-2,1.427853823E0,-3.487167880E-2
3.473085100E1,1.723512560E-1,1.182146430E0,3.741811514E-1
3.475085100E1,6.227160096E-1,7.741233110E-1,3.896273077E-1
3.477085100E1,2.004981995E0,1.066518307E0,4.427202046E-1
3.479085100E1,3.390616179E0,1.637520313E0,7.319561839E-1
3.481085100E1,3.630214930E0,1.312103629E0,1.282886863E0
3.483085256E1,2.631363153E0,2.447300702E-1,1.730581164E0
3.485285100E1,1.952360153E0,-1.318421662E-1,1.520530820E0
3.487285100E1,1.841060519E0,1.180889755E-1,8.310385346E-1
3.489285100E1,3.141208649E0,-1.536744952E0,1.029744223E-1
3.491285100E1,3.137368917E0,-7.900058031E-1,-8.887216449E-2
3.493285256E1,2.300867558E0,-6.275156736E-1,5.845980048E-1
3.495486194E1,2.144800186E0,-6.433109045E-1,1.086484909E0
3.497685256E1,2.138900995E0,-1.133050323E0,1.212445378E0
3.499885100E1,2.133455515E0,-2.215660572E0,1.238939404E0
3.501885256E1,2.628710270E0,-3.416447163E0,9.011309147E-1
3.504085100E1,2.688295841E0,-4.280035973E0,2.494773567E-1
3.506085100E1,1.912078023E0,-3.829077721E0,-2.235243171E-1
3.508085100E1,8.479332924E-1,-2.640089750E0,-1.204277202E-1
3.510085256E1,-2.259677798E-1,-1.749884605E0,7.670722157E-2
3.512285100E1,-1.269971371E0,-9.798627496E-1,3.842691481E-1
3.514285100E1,-2.364065886E0,-3.749665320E-1,5.931676030E-1
3.516285100E1,-3.595256090E0,2.155830711E-1,5.525363088E-1
3.518285100E1,-1.571930766E0,7.583979368E-1,3.575656116E-1
3.520285100E1,1.727980614E0,-5.126380920E-1,3.867649660E-2
3.522285100E1,1.087357521E0,-1.796327710E0,7.587993145E-1
3.524285100E1,2.276956588E-1,-1.016113281E0,6.508158445E-1
3.526285100E1,-3.986681104E-1,3.882135749E-1,-2.885901928E-1
3.528285100E1,-1.508680105E0,1.506411076E0,-9.432457089E-1
3.530285100E1,-3.456624448E-1,3.447095156E0,-1.256340384E0
3.532285100E1,7.219205499E-1,2.033901930E0,-9.919055104E-1
3.534285100E1,-1.710667014E0,4.937012792E-1,-9.724974632E-2
3.536285100E1,-3.383181095E0,9.663015604E-1,2.221804112E-1
3.538285100E1,-4.003436089E0,2.782107115E0,-5.914920941E-2
3.540285100E1,-3.469138622E0,4.314820290E0,-3.619987369E-1
3.542285100E1,-2.603368044E0,4.275672913E0,-3.196570575E-1
3.544285100E1,-2.490392923E0,2.394504547E0,-1.308124214E-1
3.546285100E1,-2.932345152E0,-1.825509667E0,-1.084722131E-1
3.548285100E1,-1.926459551E0,-3.152291536E0,-2.297027856E-1
3.550285100E1,-7.343822122E-1,-2.373141527E0,-3.031287789E-1
3.552285100E1,-8.891928792E-1,-1.034159899E0,-2.898468375E-1
3.554285100E1,-1.616035223E0,2.326523811E-1,-1.396961510E-1
3.556285256E1,-1.918815017E0,1.419301748E0,-7.613126189E-2
3.558486350E1,-1.856628895E0,1.806572795E0,-2.749766111E-1
3.560685256E1,-1.752956390E0,9.783093929E-1,-4.466821253E-1
3.562685256E1,-1.572122812E0,-3.979350906E-3,-5.779657960E-1
3.564885256E1,-1.182216167E0,-7.114660144E-1,-5.947383642E-1
3.567085100E1,-6.055594087E-1,3.587524295E-1,-3.810926378E-1
3.569085100E1,-4.625122622E-2,1.659563780E0,-2.097885683E-2
3.571085100E1,2.168571651E-1,1.552470326E0,2.576105893E-1
3.573085256E1,4.196469784E-1,4.518308342E-1,3.008424044E-1
3.575085256E1,1.623068929E0,3.414387703E-1,2.232974172E-1
3.577285100E1,2.960724115E0,1.168428063E0,4.931951463E-1
3.579285100E1,3.716364384E0,1.621637821E0,9.994802475E-1
3.581285100E1,2.926795006E0,9.219003320E-1,1.491122007E0
3.583285100E1,2.038631916E0,2.596526444E-1,1.574339390E0
3.585285569E1,1.960563302E0,3.562915027E-1,1.181483150E0
3.587485256E1,2.512209415E0,-2.858151197E-1,5.059709549E-1
3.589485256E1,3.465717793E0,-1.582699418E0,1.923352778E-1
3.591685256E1,2.721090555E0,-1.478049517E0,3.798010945E-1
3.593885100E1,2.455294371E0,-1.132177591E0,9.361597300E-1
3.595887600E1,2.490497589E0,-1.135511160E0,1.112979054E0
3.598085100E1,2.308721542E0,-2.052577019E0,1.203788519E0
3.600085100E1,2.743552923E0,-3.168750048E0,1.064319253E0
3.602085100E1,2.906043053E0,-3.929329634E0,4.514992237E-1
3.604085256E1,2.302298784E0,-4.377669811E0,-2.299122214E-1
3.606285100E1,1.380363464E0,-3.551937103E0,-3.955439627E-1
3.608285100E1,4.168195426E-1,-2.364031076E0,-1.801179796E-1
3.610285100E1,-5.653819442E-1,-1.191361785E0,1.719149351E-1
3.612285100E1,-1.678291202E0,-1.322610527E-1,4.717974067E-1
3.614285100E1,-2.933496952E0,5.821545720E-1,7.091272473E-1
3.616285100E1,-2.837416649E0,5.487314984E-2,7.607366443E-1
3.618285100E1,1.184502602E0,-1.087863743E-1,3.405137360E-1
3.620285100E1,1.145861030E0,-1.449269056E0,5.401793718E-1
3.622285100E1,4.608716369E-1,-9.321105480E-1,1.043619633E0
3.624285100E1,6.369928122E-1,-8.116130233E-1,6.770655513E-1
3.626285100E1,-1.366400838E0,1.100604609E-1,7.194247097E-2
3.628285100E1,-2.524374485E0,1.254333258E0,-5.136678219E-1
3.630285256E1,-8.962614536E-1,3.087766647E0,-1.036533594E0
3.632285256E1,1.215167999E0,1.413838863E0,-2.017007113E0
3.634485413E1,-1.301963210E0,1.450298786E0,-1.151463509E0
3.636685100E1,-3.474933147E0,1.688728213E0,4.093146026E-1
3.638685100E1,-4.417288780E0,3.196692705E0,3.607944548E-1
3.640685256E1,-3.999369621E0,4.256037712E0,-1.225221157E-2
3.642885100E1,-3.107942581E0,4.364597321E0,-3.032509685E-1
3.644885413E1,-2.703864098E0,2.664821148E0,-2.698104382E-1
3.647085256E1,-2.644644976E0,-1.023740292E0,-2.998475730E-1
3.649085256E1,-1.815369368E0,-3.745895386E0,-4.981693327E-1
3.651285100E1,-7.452381253E-1,-2.984862089E0,-6.446024776E-1
3.653285100E1,-9.259495139E-1,-1.335456133E0,-5.724331141E-1
3.655285100E1,-1.389072657E0,1.847780049E-1,-2.234195918E-1
3.657285256E1,-1.664729953E0,1.425200939E0,-6.382668763E-2
3.659485256E1,-1.760286689E0,1.542958379E0,-2.092300653E-1
3.661685256E1,-1.702376723E0,8.881108165E-1,-3.812671602E-1
3.663885100E1,-1.256724358E0,2.178345472E-1,-3.951425552E-1
3.665887756E1,-8.842012286E-1,5.784020945E-2,-3.476870358E-1
3.668085256E1,-3.763279021E-1,6.065019369E-1,-3.229557276E-1
3.670285256E1,1.233947799E-1,1.158514619E0,4.398229718E-2
3.672485256E1,3.294134438E-1,8.810945749E-1,4.001865387E-1
3.674485256E1,1.264002323E0,7.976503968E-1,3.324503005E-1
3.676485569E1,2.586996794E0,1.315384865E0,5.114687085E-1
3.678486350E1,3.632501364E0,1.967003465E0,1.055226088E0
3.680685100E1,3.078987598E0,1.376488805E0,1.738173366E0
3.682685100E1,2.059942245E0,2.785196304E-1,1.936652184E0
3.684685256E1,1.854133129E0,2.205747068E-1,1.492099404E0
3.686685256E1,2.253429413E0,-4.664916098E-1,5.773374438E-1
3.688885100E1,3.523732424E0,-1.406124473E0,-4.029965401E-2
3.690885100E1,2.732243061E0,-5.494121909E-1,2.541897595E-1
3.692885100E1,2.111185074E0,-5.215218067E-1,9.088976383E-1
3.694885100E1,2.085424185E0,-8.348608017E-1,1.128425121E0
3.696885100E1,2.136527300E0,-1.567445278E0,1.173489571E0
3.698885100E1,2.313486338E0,-2.880177259E0,1.250319004E0
3.700885256E1,2.937389135E0,-3.963328600E0,8.868017793E-1
3.702885412E1,2.590173244E0,-4.541957378E0,1.814967841E-1
3.705085100E1,1.526587129E0,-3.858451605E0,-3.309493363E-1
3.707085100E1,5.179089904E-1,-2.663023472E0,-1.188918278E-1
3.709085100E1,-4.571017325E-1,-1.756255031E0,2.469466329E-1
3.711085256E1,-1.373940587E0,-8.940972686E-1,6.244788170E-1
3.713285256E1,-2.612373829E0,-4.070107639E-2,9.100320935E-1
3.715486819E1,-3.349199533E0,9.224239588E-1,8.799251914E-1
3.717685100E1,1.613975763E0,4.204498231E-2,1.323134154E-1
3.719685256E1,1.879667282E0,-2.041319609E0,3.873758316E-1
3.721685725E1,8.125903606E-1,-1.328212976E0,9.787457585E-1
3.723885100E1,2.920459509E-1,-8.158367276E-1,2.545911670E-1
3.725887756E1,-1.132247448E0,2.297551483E-1,-3.141592741E-1
3.728085100E1,-1.465500593E0,2.302438259E0,-7.718544006E-1
3.730085100E1,1.821495414E0,4.572849751E0,-7.877368927E-1
3.732085100E1,-3.178768158E-1,1.379159212E0,-7.533713579E-1
3.734085100E1,-2.577554703E0,2.135235816E-1,-1.454557329E-1
3.736085100E1,-4.260697842E0,2.125304937E0,-1.543569118E-1
3.738085100E1,-4.563215733E0,4.353339672E0,-1.514422148E-1
3.740085100E1,-4.040751457E0,5.120516777E0,-3.122394085E-1
3.742085256E1,-3.250745535E0,4.988936424E0,-4.801575243E-1
3.744285100E1,-2.708698511E0,2.390315771E0,-4.403814673E-1
3.746285100E1,-2.726186752E0,-1.484873772E0,-5.949303508E-1
3.748285100E1,-1.527547121E0,-2.337798595E0,-6.521073580E-1
3.750285100E1,-8.561014533E-1,-1.794530034E0,-4.463155866E-1
3.752285100E1,-1.158828855E0,-1.385355115E0,-3.448421657E-1
3.754285100E1,-1.311981440E0,-1.644798219E-1,-4.153360128E-1
3.756285256E1,-1.383190870E0,1.271297812E0,-4.268551767E-1
3.758485100E1,-1.788561106E0,1.825963497E0,-4.045498669E-1
3.760485725E1,-1.980320334E0,1.315838575E0,-3.763453364E-1
3.762685256E1,-1.557915807E0,2.452187538E-1,-4.778013229E-1
3.764885256E1,-8.735023737E-1,1.838355362E-1,-5.923996568E-1
3.767085100E1,-2.562143207E-1,1.205289483E0,-3.257482648E-1
3.769085100E1,1.062905490E-1,1.577760220E0,9.620254487E-2
3.771085100E1,-5.225515738E-2,9.151983261E-1,3.917042315E-1
3.773085100E1,6.240250468E-1,7.325844765E-1,3.806388676E-1
3.775085256E1,2.114815474E0,1.164989829E0,5.120272636E-1
3.777285100E1,3.521149397E0,1.590274215E0,1.005239844E0
3.779285100E1,3.513539791E0,1.020581245E0,1.579261184E0
3.781285256E1,2.563853741E0,-2.102423608E-1,1.851410389E0
3.783485100E1,2.113576174E0,-4.450066090E-1,1.464697719E0
3.785485569E1,1.826713920E0,-1.466076588E-3,6.543239355E-1
3.787685256E1,3.055670023E0,-1.539380431E0,-1.202531811E-2
3.789685256E1,3.038880110E0,-1.007997394E0,6.161012221E-3
3.791685256E1,2.319472790E0,-9.895842075E-1,7.809126377E-1
3.793685256E1,2.316016912E0,-1.016235352E0,1.136034846E0
3.795887756E1,2.294305086E0,-1.293463469E0,1.223929644E0
3.798085100E1,2.214857817E0,-2.424000502E0,1.330848455E0
3.800085100E1,2.656425953E0,-3.545374632E0,9.776287079E-1
3.802085100E1,2.543677807E0,-4.458234310E0,2.820102870E-1
3.804085100E1,1.690857530E0,-4.122816563E0,-3.294832408E-1
3.806085413E1,7.634942532E-1,-2.960130692E0,-1.831374019E-1
3.808285100E1,-3.497116268E-1,-1.801214695E0,1.463458538E-1
3.810285256E1,-1.420750380E0,-7.864627838E-1,4.847477376E-1
3.812285256E1,-2.590190887E0,1.935570128E-2,6.336767077E-1
3.814285256E1,-3.786753654E0,8.676729798E-1,7.424455881E-1
3.816285256E1,-6.099576354E-1,1.068525434E0,3.200933933E-1
3.818285256E1,1.976201415E0,-9.427396059E-1,6.698573381E-2
3.820485100E1,7.150613666E-1,-1.525923848E0,1.002255321E0
3.822486038E1,1.353502870E-1,-3.386287689E-1,5.218011141E-1
3.824486038E1,-4.078136384E-1,3.696432710E-1,-1.045626774E-1
3.826685256E1,-1.449495912E0,1.593084216E0,-6.498035192E-1
3.828885256E1,5.398827195E-1,3.280642986E0,-7.457617521E-1
3.830885256E1,4.104490876E-1,1.297093749E0,-9.523388743E-1
3.833085256E1,-2.202465773E0,2.407507151E-1,-6.161535978E-1
3.835285100E1,-4.092901707E0,1.836924076E0,-4.809952974E-1
3.837285100E1,-4.348644733E0,3.810315609E0,-5.257455111E-1
3.839285100E1,-3.665680170E0,4.471620560E0,-5.272290707E-1
3.841285100E1,-3.199781895E0,3.167214155E0,-3.767118752E-1
3.843285100E1,-2.863753796E0,7.573507428E-1,-2.452885658E-1
3.845285100E1,-2.582336903E0,-1.943197250E0,-1.766098738E-1
3.847285100E1,-1.798474550E0,-3.869464636E0,-3.646167219E-1
3.849285256E1,-7.317991257E-1,-2.173947096E0,-5.967455506E-1
3.851486975E1,-9.177814126E-1,-3.801327199E-2,-4.514817595E-1
3.853685100E1,-1.406264186E0,1.921415567E0,-7.024950534E-2
3.855685256E1,-1.584514618E0,2.714650154E0,4.590215907E-2
3.857885100E1,-1.665846944E0,1.764999151E0,-2.565633971E-3
3.859885100E1,-1.534161806E0,3.905174136E-1,-1.785297245E-1
3.861885413E1,-1.238276243E0,-7.172604799E-1,-4.833165705E-1
3.864085100E1,-8.052250743E-1,-4.464901388E-1,-5.156226158E-1
3.866085100E1,8.148942143E-2,1.156001329E0,-2.295107991E-1
3.868085256E1,3.765198886E-1,1.411744475E0,7.101744413E-2
3.870285100E1,5.030736923E-1,8.043175340E-1,3.379655480E-1
3.872285100E1,1.565996647E0,1.051107049E0,5.426577926E-1
3.874285100E1,3.064379215E0,1.714471817E0,8.833111525E-1
3.876285100E1,4.000067711E0,1.726374984E0,1.229287744E0
3.878285256E1,3.114836693E0,4.598593414E-1,1.612038493E0
3.880485569E1,2.025349855E0,-4.264537394E-1,1.515713692E0
3.882685100E1,1.785803437E0,-7.871434838E-2,7.426899672E-1
3.884685256E1,2.988213062E0,-1.744875431E0,-4.752531648E-2
3.886885256E1,3.275058031E0,-1.089294910E0,-1.552295834E-1
3.888885256E1,2.407786369E0,-5.036845803E-1,4.833165705E-1
3.890885256E1,2.063694715E0,-2.985211015E-1,8.971515894E-1
3.893085100E1,1.930072308E0,-6.332927346E-1,1.108685493E0
3.895085100E1,1.975381136E0,-1.641290188E0,1.366418242E0
3.897085100E1,2.380419731E0,-2.788320541E0,1.382981420E0
3.899085100E1,2.683216810E0,-3.900217533E0,8.364490271E-1
3.901085100E1,2.109230280E0,-4.305709839E0,5.112069473E-2
3.903085100E1,1.260319710E0,-3.621226549E0,-1.945518553E-1
3.905085100E1,2.437701374E-1,-2.505926371E0,9.691813588E-2
3.907085100E1,-5.987875462E-1,-1.809382796E0,4.650953412E-1
3.909085100E1,-1.553412795E0,-6.362946630E-1,7.910181284E-1
3.911085100E1,-2.838446379E0,8.212122917E-1,6.910456419E-1
3.913085256E1,-2.334220886E0,8.632398248E-1,8.751080930E-2
3.915285256E1,1.185218215E0,-1.649266362E0,-4.629485905E-1
3.917485256E1,1.187295079E0,-1.795472503E0,7.522194386E-1
3.919485881E1,5.683315396E-1,-9.447292686E-1,6.824761033E-1
3.921685100E1,-4.092273414E-1,1.899965405E-1,-1.708677262E-1
3.923685256E1,-1.741035700E0,1.662199259E0,-6.351078749E-1
3.925887600E1,5.123937726E-1,4.127686024E0,-7.584677339E-1
3.928085100E1,2.902308106E-1,1.485345006E0,-5.896595120E-1
3.930085100E1,-2.294374943E0,4.618490338E-1,-1.143016145E-1
3.932085256E1,-4.040506840E0,1.338423133E0,-9.854128957E-2
3.934285100E1,-4.562238216E0,3.712489843E0,-1.940107942E-1
3.936285100E1,-3.881716967E0,5.179980278E0,-5.815436840E-1
3.938285100E1,-2.800991535E0,5.220122814E0,-6.856351495E-1
3.940285100E1,-2.348968744E0,3.185749531E0,-3.048042953E-1
3.942285100E1,-2.727530718E0,-1.203561544E0,-3.118728697E-1
3.944285100E1,-2.015488863E0,-3.022962570E0,-4.504171312E-1
3.946285100E1,-8.982511759E-1,-2.275019169E0,-4.768239558E-1
3.948285100E1,-8.200603724E-1,-1.182809591E0,-4.109552205E-1
3.950285100E1,-1.435236573E0,-2.094918638E-1,-2.612408698E-1
3.952285100E1,-1.678605318E0,1.417556405E0,-9.484118968E-2
3.954285100E1,-1.767669439E0,2.294898510E0,-7.017968595E-2
3.956285256E1,-1.895113349E0,1.631830454E0,-2.433338016E-1
3.958485100E1,-1.673264623E0,3.163060248E-1,-4.933347702E-1
3.960485412E1,-1.247194767E0,-6.768212318E-1,-6.684785485E-1
3.962485881E1,-8.485267162E-1,-3.754726946E-1,-6.893177629E-1
3.964685100E1,-2.443286479E-1,1.089801073E0,-3.432189822E-1
3.966685100E1,-3.953170776E-2,1.479498148E0,1.022937447E-1
3.968685100E1,-1.898918301E-2,8.631525636E-1,4.087561071E-1
3.970685256E1,8.160635829E-1,7.152010202E-1,3.569547236E-1
3.972885256E1,2.182097912E0,1.188743711E0,6.576749682E-1
3.974885256E1,3.259646654E0,1.789730430E0,1.249097228E0
3.977085100E1,3.240709782E0,1.012500405E0,1.671362162E0
3.979085100E1,2.462013721E0,-2.135410309E-1,1.676144361E0
3.981085100E1,2.200842619E0,-5.082049966E-1,1.110919476E0
3.983085256E1,1.971750855E0,-4.128401875E-1,3.132866025E-1
3.985085256E1,3.269752264E0,-2.197526693E0,-3.581066430E-1
3.987285100E1,3.342514992E0,-1.289344549E0,-2.504547499E-2
3.989285256E1,2.657508135E0,-8.035146594E-1,5.394288898E-1
3.991486819E1,2.447754383E0,-7.690618634E-1,7.803890705E-1
3.993685100E1,2.496274710E0,-1.462411404E0,1.021419048E0
3.995685256E1,2.526015043E0,-2.187368870E0,1.293149352E0
3.997685256E1,2.890282631E0,-3.200288057E0,9.776985645E-1
3.999685569E1,2.575512648E0,-4.177777290E0,2.215346396E-1
4.001885256E1,1.696076035E0,-4.054644108E0,-2.794621289E-1
4.004085100E1,6.221575141E-1,-2.771024227E0,-3.078760765E-2
4.006085100E1,-3.714584112E-1,-1.777129173E0,2.764776051E-1
4.008085256E1,-1.296989083E0,-1.003634095E0,6.022607684E-1
4.010285100E1,-2.524758339E0,-2.477669418E-1,7.482924461E-1
4.012285100E1,-3.704112291E0,4.222126007E-1,6.970496178E-1
4.014285100E1,-5.110324174E-2,2.517462969E-1,2.178345472E-1
4.016285100E1,2.317448139E0,-1.210316062E0,-3.078760765E-2
4.018285100E1,1.394448280E0,-1.720720053E0,6.976953745E-1
4.020285100E1,3.903079927E-1,-1.024804950E0,2.770535648E-1
4.022285100E1,-2.628291249E-1,2.011841089E-1,-3.957010508E-1
4.024285100E1,-1.033601403E0,2.183668613E0,-6.284406781E-1
4.026285100E1,9.248150587E-1,4.303179264E0,-2.379581928E-1
4.028285256E1,-2.340486497E-1,1.310305953E0,-3.824714422E-1
4.030485256E1,-2.836840630E0,-1.771509275E-2,-1.923876405E-1
4.032486038E1,-4.301590919E0,2.530308485E0,-2.165604532E-1
4.034685256E1,-4.540857792E0,4.939770222E0,-3.152413666E-1
4.036885100E1,-3.794485331E0,5.382892132E0,-6.400471330E-1
4.038885100E1,-3.010500908E0,3.648331642E0,-4.074122012E-1
4.040885100E1,-2.702991486E0,1.258207858E-1,-2.442588210E-1
4.042885256E1,-2.357817650E0,-2.387069464E0,-4.211828411E-1
4.044885256E1,-1.355038762E0,-2.858063936E0,-5.041034222E-1
4.047085100E1,-8.680569530E-1,-1.914853096E0,-2.657961845E-1
4.049085256E1,-1.177887797E0,-8.260643482E-1,-1.878672391E-1
4.051285100E1,-1.608687401E0,4.528954923E-1,-2.336821258E-1
4.053285100E1,-1.694051504E0,1.511210799E0,-2.432989031E-1
4.055285100E1,-1.687349439E0,1.666632295E0,-2.298773080E-1
4.057285100E1,-1.648638010E0,1.074913383E0,-2.607172728E-1
4.059285100E1,-1.456093311E0,3.097610474E-1,-3.545112908E-1
4.061285100E1,-1.188708901E0,-3.326073885E-1,-5.396383405E-1
4.063285256E1,-5.927312374E-1,1.676563323E-1,-4.089829922E-1
4.065485100E1,2.425833046E-1,1.544284821E0,-2.806838453E-1
4.067485256E1,4.338015914E-1,1.604254246E0,8.803440630E-2
4.069486194E1,4.532445371E-1,6.872233748E-1,3.003013432E-1
4.071685100E1,1.786449194E0,4.935267568E-1,3.060085773E-1
4.073685100E1,3.263818026E0,1.232097745E0,6.149667501E-1
4.075685100E1,4.024834156E0,1.676214218E0,1.132631421E0
4.077685256E1,2.942660093E0,9.662666321E-1,1.446843028E0
4.079885256E1,1.915725708E0,4.302411079E-1,1.386681557E0
4.082085100E1,1.538699746E0,3.435506225E-1,8.537278175E-1
4.084085256E1,2.174156666E0,-2.219814539E0,3.391872942E-1
4.086285100E1,2.544079065E0,-1.044893742E0,4.881162345E-1
4.088285100E1,2.058319092E0,-9.808052182E-1,8.767661452E-1
4.090285100E1,1.897626638E0,-7.693062425E-1,1.083325863E0
4.092285100E1,1.923719406E0,-1.132579088E0,1.255240798E0
4.094285256E1,2.010095596E0,-2.335808992E0,1.239218712E0
4.096486506E1,2.433250666E0,-3.418087721E0,1.051176906E0
4.098685256E1,2.649776220E0,-4.309200287E0,5.211378336E-1
4.100885881E1,1.972937584E0,-4.219089031E0,-6.962118298E-2
4.103085100E1,1.060619116E0,-2.981790304E0,-1.260651350E-1
4.105085100E1,6.445501000E-2,-1.853783965E0,1.854237765E-1
4.107085100E1,-8.257327080E-1,-1.039413333E0,3.964166343E-1
4.109085100E1,-1.809941292E0,-3.917042315E-1,5.873207450E-1
4.111085100E1,-2.223025799E0,-2.176949233E-1,6.890036464E-1
4.113085100E1,1.211083978E-1,-6.627189517E-1,6.729465723E-1
4.115085100E1,1.387693882E0,-1.587952852E0,7.155151963E-1
4.117085100E1,9.406626225E-1,-1.300758958E0,1.103955626E0
4.119085100E1,9.618509412E-1,-1.522346020E0,7.955036163E-1
4.121085100E1,-2.429847419E-1,-3.051708043E-1,4.241150245E-2
4.123085100E1,-1.928990245E0,1.640225530E0,-7.375063300E-1
4.125085256E1,-3.903603256E-1,3.793368340E0,-1.577742696E0
4.127085256E1,1.361164808E0,8.903971910E-1,-1.942115068E0
4.129285100E1,-2.273273945E0,5.783323050E-1,-7.447145581E-1
4.131285100E1,-4.356498718E0,2.161886930E0,3.135483861E-1
4.133285100E1,-5.102818966E0,4.100790501E0,1.165181771E-1
4.135285100E1,-4.331976891E0,5.302711487E0,-2.611012459E-1
4.137285100E1,-3.265179396E0,5.466318607E0,-4.346916974E-1
4.139285100E1,-2.859111071E0,3.716678619E0,-4.392993748E-1
4.141285100E1,-3.204406977E0,-1.149718165E0,-5.869717002E-1
4.143285100E1,-2.176739693E0,-2.859721899E0,-6.022083759E-1
4.145285100E1,-9.902300239E-1,-2.271196842E0,-4.441863000E-1
4.147285100E1,-7.452381253E-1,-7.577695847E-1,-3.724707067E-1
