"Time (s)","Linear Acceleration x (m/s^2)","Linear Acceleration y (m/s^2)","Linear Acceleration z (m/s^2)"
1.200000000E-2,-1.751099944E0,9.883999825E-1,1.041700006E0
3.200156300E-2,-2.973699808E0,-1.299999934E-2,3.039999962E0
5.200156300E-2,-5.783400059E0,3.206199884E0,2.481299877E0
7.200156300E-2,-7.107800007E0,6.852299690E0,1.353500009E0
9.200156300E-2,-7.003799915E0,1.007279968E1,4.261899948E0
1.220015630E-1,-2.840999961E-1,3.092999935E0,5.070399761E0
1.420015630E-1,1.683399916E0,3.147199869E0,5.177099705E0
1.620015630E-1,-1.114999950E-1,3.122200012E0,3.810999870E0
1.820015630E-1,1.850999892E-1,1.704100013E0,3.401099920E0
2.020015630E-1,-2.611099958E0,1.418799996E0,1.844299912E0
2.220015630E-1,-4.557699680E0,-1.603699923E0,-2.668200016E0
2.420015630E-1,-6.720699787E0,-5.468699932E0,-4.849199772E0
2.620015630E-1,-4.049299717E0,-2.514099836E0,-4.450299740E0
2.820015630E-1,-1.451599956E0,-4.347599983E0,-6.609600067E0
3.120000000E-1,-2.004799843E0,2.705999911E-1,-4.335599899E0
3.320015630E-1,-2.107599974E0,2.747699976E0,-1.031499982E0
3.620000000E-1,-5.532000065E-1,-2.708999872E0,-4.493999779E-1
3.820000000E-1,-7.009999454E-2,-6.247999668E-1,-2.951900005E0
4.020015630E-1,1.194700003E0,3.328099966E0,-3.356299877E0
4.320000000E-1,3.139600039E0,4.984699726E0,2.320999950E-1
4.520000000E-1,2.795599937E0,1.331300020E0,2.471299887E0
4.720015630E-1,1.074999928E0,1.463400006E0,4.639999941E-2
4.920015630E-1,4.976999760E-1,4.296199799E0,-2.363999933E-1
5.220000000E-1,2.956499815E0,2.085599899E0,3.290999830E-1
5.420015630E-1,3.671099901E0,-2.915000021E-1,-6.819999963E-2
5.720000000E-1,2.921399832E0,1.955799937E0,1.380699992E0
5.920015630E-1,3.566999912E0,1.999099970E0,3.107599974E0
6.220000000E-1,1.303799987E0,1.242299914E0,2.060199976E0
6.420015630E-1,-1.351400018E0,3.591899872E0,2.454200029E0
6.620062500E-1,-4.989999905E-2,1.589199901E0,3.949999809E0
6.920046880E-1,-2.328999996E0,-5.220000148E-1,1.731999993E0
7.220000000E-1,-5.644099712E0,1.458999991E0,5.519999936E-2
7.420046880E-1,-7.333399773E0,2.355399847E0,1.177500010E0
7.720015630E-1,-1.060610008E1,6.692000031E-1,7.937999964E-1
8.020000000E-1,-7.010900021E0,-4.383599758E0,1.238799930E0
8.220000000E-1,-2.756799936E0,-6.624499798E0,1.210999966E0
8.420062500E-1,-8.042999506E-1,-5.121900082E0,1.254699945E0
8.720000000E-1,-3.608999848E-1,-8.812999725E-1,1.412199974E0
8.920046880E-1,-9.548999667E-1,-1.365199924E0,-5.769000053E-1
9.220000000E-1,8.540000021E-2,-2.449499846E0,-3.047899961E0
9.420000000E-1,5.541999936E-1,1.459699988E0,-5.445099831E0
9.620000000E-1,5.850599766E0,-4.126599789E0,-1.913800001E0
9.820031250E-1,6.828199863E0,-5.919600010E0,-4.696300030E0
1.012000000E0,5.684099674E0,-2.769699812E0,-4.901899815E0
1.032000000E0,5.105000019E0,-1.380899906E0,-3.006299973E0
1.052000000E0,2.486500025E0,-3.532399893E0,-3.377199888E0
1.072000000E0,4.787999988E-1,-4.280799866E0,-1.505999923E0
1.092000000E0,1.551100016E0,-1.535899997E0,4.197700024E0
1.112000000E0,-6.441000104E-1,-4.195499897E0,2.438899994E0
1.132001563E0,6.003999710E-1,-2.072700024E0,2.791999876E-1
1.152001563E0,-1.824899912E0,3.349999905E0,1.445199966E0
1.182000000E0,-3.422699928E0,2.382099867E0,2.544100046E0
1.202000000E0,-2.211999893E0,1.342499971E0,3.141399860E0
1.222009375E0,-1.157299995E0,2.053499937E0,2.054800034E0
1.252000000E0,1.173799992E0,-9.957000017E-1,1.414299965E0
1.272006250E0,6.369999647E-1,-1.409899950E0,1.608599901E0
1.302001563E0,-1.263199925E0,3.367300034E0,-6.360999942E-1
1.322006250E0,1.484200001E0,1.257799983E0,-1.665699959E0
1.352000000E0,2.887300014E0,2.631700039E0,2.206899881E0
1.372000000E0,1.389699936E0,-4.373999834E-1,1.184599996E0
1.392000000E0,3.461899996E0,-5.403299809E0,-2.441400051E0
1.412000000E0,1.736999899E-1,-2.547899961E0,-1.620800018E0
1.432000000E0,-4.817599773E0,1.740999937E0,-7.288999557E-1
1.452000000E0,-4.808000088E0,1.181999922E0,3.519799948E0
1.472000000E0,5.189999938E-1,7.746999860E-1,2.737900019E0
1.492000000E0,2.074599981E0,-2.359200001E0,2.972999811E0
1.512000000E0,2.589900017E0,-4.405200005E0,4.260499954E0
1.532000000E0,-3.542000055E-1,-3.288100004E0,-1.547999978E0
1.552000000E0,-3.186800003E0,8.141999841E-1,-3.406499863E0
1.572000000E0,-2.777999938E-1,-3.921999931E-1,-3.002399921E0
1.592000000E0,8.327999711E-1,-1.391299963E0,-1.861699939E0
1.612000000E0,-1.017000005E-1,-9.591999650E-1,-1.694299936E0
1.632000000E0,-4.369999766E-1,7.023999691E-1,-1.840699911E0
1.652000000E0,-5.249999762E-1,1.025799990E0,-7.885999680E-1
1.672000000E0,-1.643799901E0,3.729199886E0,1.260000020E-1
1.692001563E0,-1.493099928E0,4.818900108E0,-9.962999821E-1
1.722000000E0,6.078999639E-1,2.087999880E-1,-1.065299988E0
1.742000000E0,1.315799952E0,-1.903099895E0,-3.783199787E0
1.762000000E0,3.065699816E0,-4.280999660E0,-1.695599914E0
1.782001563E0,2.009599924E0,-2.427099943E0,-2.008199930E0
1.802001563E0,-1.480599999E0,-1.463999897E-1,1.360099912E0
1.822001563E0,-5.691899776E0,2.615700006E0,9.723999500E-1
1.842001563E0,-2.701599836E0,2.012899876E0,-1.281799912E0
1.872000000E0,-2.106299877E0,1.604099989E0,8.991999626E-1
1.892000000E0,-3.599999845E-2,3.865999877E-1,1.397099972E0
1.912000000E0,4.816999733E-1,-7.909999788E-2,-3.094499826E0
1.932000000E0,-2.104099989E0,1.994499922E0,-5.291999578E-1
1.952000000E0,-2.988099813E0,2.673799992E0,2.829399824E0
1.972000000E0,-1.271700025E0,5.259999633E-1,3.309099913E0
1.992000000E0,-1.663299918E0,-1.444499969E0,2.040699959E0
2.012000000E0,2.703999877E-1,-7.400000095E-2,4.210000038E-1
2.032000000E0,2.690999985E0,-2.367499828E0,2.743700027E0
2.052000000E0,1.743199944E0,-5.078999996E-1,1.095499992E0
2.072000000E0,-9.860000014E-1,5.936999917E-1,-1.286899924E0
2.092000000E0,-1.636099935E0,4.939999878E-1,-2.125299931E0
2.112000000E0,-1.892799973E0,-1.773499966E0,-3.620999813E0
2.132000000E0,-8.966999650E-1,-8.456999660E-1,-2.572299957E0
2.152000000E0,-2.678299904E0,2.243799925E0,-5.468999743E-1
2.172000000E0,-2.325899839E0,2.488100052E0,-7.033999562E-1
2.192000000E0,3.164999783E-1,1.935999990E-1,3.999999911E-2
2.212000000E0,1.581299901E0,-1.787899971E0,-7.279999852E-1
2.232000000E0,1.366699934E0,-4.293999970E-1,3.244899988E0
2.252000000E0,9.506999850E-1,1.233199954E0,4.460499763E0
2.272000000E0,-1.548999995E-1,-1.491699934E0,2.761799812E0
2.292000000E0,-1.840099931E0,-6.642999649E0,1.224999949E-1
2.312000000E0,-2.426100016E0,-3.383399963E0,-8.460000157E-2
2.332000000E0,6.019999832E-2,-6.704999804E-1,-1.144899964E0
2.352000000E0,3.422799826E0,-2.727699995E0,-3.352699995E0
2.372000000E0,-2.800999880E-1,6.104999781E-1,-4.018599987E0
2.392000000E0,4.339999706E-2,2.672999859E0,-1.568099976E0
2.412000000E0,1.387499928E0,2.711499929E0,-1.027400017E0
2.432000000E0,1.744699955E0,1.154399991E0,-1.260399938E0
2.452000000E0,1.145200014E0,2.629899979E0,-3.935000002E-1
2.472000000E0,1.537999988E0,2.797600031E0,-1.850000024E-2
2.492000000E0,-3.237999976E-1,6.046999693E-1,-1.922999918E-1
2.512000000E0,3.427999914E-1,-2.698000073E-1,-1.439999975E-2
2.532000000E0,4.993999898E-1,-1.016099930E0,-4.776999950E-1
2.552000000E0,7.700999975E-1,-1.326499939E0,-1.810699940E0
2.572000000E0,-4.310999811E-1,-1.413999945E-1,-5.435999632E-1
2.592000000E0,4.707999825E-1,-1.699999906E-2,5.902999640E-1
2.612000000E0,-5.792999864E-1,-2.663999796E-1,4.339999855E-1
2.632000000E0,-2.676999867E-1,-6.619999558E-2,5.530999899E-1
2.652001563E0,-1.829999983E-1,9.143999815E-1,-3.454000056E-1
2.682000000E0,-1.525000036E-1,6.430999637E-1,3.887999952E-1
2.702000000E0,9.519999474E-2,-7.391999960E-1,4.308999777E-1
2.722000000E0,-1.318999976E-1,-8.507999778E-1,3.992999792E-1
2.742000000E0,6.689999700E-1,3.420999944E-1,8.472999930E-1
2.762000000E0,5.177000165E-1,-4.080999792E-1,-9.519999474E-2
2.782000000E0,-4.132999778E-1,-1.151299953E0,8.320000023E-2
2.802000000E0,-4.934999943E-1,-3.874000013E-1,2.303999960E-1
2.822000000E0,2.395999879E-1,8.626999855E-1,4.237999916E-1
2.842001563E0,5.986999869E-1,1.344999909E0,2.489999980E-1
2.872000000E0,-7.736999989E-1,4.314999878E-1,-1.729999930E-1
2.892000000E0,-5.368999839E-1,9.940999746E-1,1.455099940E0
2.912000000E0,3.215000033E-1,1.070599914E0,1.637899995E0
2.932000000E0,-3.217000067E-1,1.697999984E-1,7.509999722E-2
2.952000000E0,-3.967999816E-1,-1.587999910E-1,1.485999972E-1
2.972000000E0,-1.274999976E-1,-2.633999884E-1,4.459999800E-1
2.992000000E0,-6.570999622E-1,-2.085999995E-1,-4.594999850E-1
3.012000000E0,1.001999974E-1,5.303999782E-1,-1.301599979E0
3.032000000E0,4.907999933E-1,2.017299891E0,-3.343999982E-1
3.052000000E0,7.515999675E-1,1.742999911E0,7.394999862E-1
3.072000000E0,-9.318999648E-1,7.501999736E-1,-9.037999511E-1
3.092000000E0,-8.756999969E-1,1.530399919E0,-1.577999890E-1
3.112000000E0,8.971999884E-1,1.309099913E0,1.733699918E0
3.132000000E0,-3.179999888E-1,6.793000102E-1,2.646999955E-1
3.152000000E0,-7.956999540E-1,7.239999622E-2,-1.099599957E0
3.172000000E0,1.705999970E-1,-3.480999768E-1,-8.208999634E-1
3.192000000E0,1.989999972E-2,4.086999893E-1,-1.472000033E-1
3.212000000E0,-2.493999898E-1,7.834999561E-1,6.887999773E-1
3.232000000E0,-4.482999742E-1,-6.523000002E-1,-6.460999846E-1
3.252000000E0,-3.454000056E-1,-2.102999985E-1,9.899999946E-2
3.272007813E0,7.069999725E-2,7.189999521E-2,1.984999925E-1
3.302000000E0,9.499999695E-3,8.086999655E-1,9.601999521E-1
3.322006250E0,-1.723999977E-1,1.907999963E-1,5.417999625E-1
3.352000000E0,-9.731999636E-1,-4.210999906E-1,-6.741999984E-1
3.372003125E0,-2.657999992E-1,1.344599962E0,8.299999833E-1
3.402001563E0,1.466999948E-1,9.329999983E-2,1.114499927E0
3.422007813E0,-8.333999515E-1,3.533999920E-1,-7.969999909E-1
3.452000000E0,-2.409999967E-1,6.911000013E-1,1.139999926E-2
3.472009375E0,-9.260999560E-1,7.351999879E-1,-8.773999810E-1
3.502000000E0,4.008999765E-1,-1.491999924E-1,9.929999709E-2
3.522000000E0,-5.421000123E-1,-3.567000031E-1,-1.090999961E0
3.542000000E0,-2.736999989E-1,1.072999984E-1,-4.739999771E-2
3.562000000E0,-1.105000004E-1,8.759999871E-1,4.736000001E-1
3.582001563E0,-2.839999795E-1,1.753000021E-1,-3.989999890E-1
3.612003125E0,1.247999966E-1,-1.322000027E-1,-6.979999691E-2
3.642000000E0,-4.250000045E-2,5.866000056E-1,-8.649999648E-2
3.662006250E0,-3.422999978E-1,1.595999897E-1,-9.562999606E-1
3.692000000E0,-4.229999781E-1,2.423999906E-1,-2.679999918E-2
3.712007813E0,-3.308999836E-1,3.197000027E-1,1.568000019E-1
3.742000000E0,-1.278999895E-1,1.565999985E-1,9.769999981E-2
3.762004688E0,-2.300999910E-1,-1.894999892E-1,-1.984999925E-1
3.792000000E0,-1.187999994E-1,1.474999934E-1,-2.899999963E-3
3.812007813E0,-3.314999938E-1,7.372999787E-1,2.992999852E-1
3.842000000E0,-2.561999857E-1,5.315999985E-1,1.944999993E-1
3.862000000E0,-1.471000016E-1,8.819999546E-2,2.777999938E-1
3.882000000E0,-1.411999911E-1,1.836999953E-1,1.683000028E-1
3.902000000E0,-5.739999935E-2,1.568999887E-1,4.919999838E-2
3.922000000E0,-1.595000029E-1,4.038999975E-1,6.719999760E-2
3.942000000E0,-2.031999975E-1,3.975999951E-1,4.499999806E-3
3.962009375E0,-3.544999957E-1,-1.950000040E-2,-1.680999994E-1
3.992000000E0,-1.703999937E-1,5.029999837E-2,-3.890999854E-1
4.012009375E0,-6.899999920E-3,3.446999788E-1,4.649999738E-2
4.042000000E0,-2.021999955E-1,3.024999797E-1,-4.059999809E-2
4.062001563E0,-2.393999994E-1,1.909999996E-1,-2.861999869E-1
4.092000000E0,3.033999801E-1,6.289999932E-2,1.196999997E-1
4.112004688E0,2.823999822E-1,8.060000092E-2,-1.310000010E-2
4.142000000E0,-4.805999994E-1,-7.849999517E-2,7.609999925E-2
4.162000000E0,-1.990000010E-1,1.504999995E-1,4.143999815E-1
4.182001563E0,-1.150999963E-1,-6.480000168E-2,-3.489999846E-2
4.202009375E0,-3.331999779E-1,-8.150000125E-2,-3.972999752E-1
4.232000000E0,-6.289999932E-2,2.985000014E-1,9.386999607E-1
4.252003125E0,-3.319999948E-2,-2.522000074E-1,3.624999821E-1
4.282000000E0,-1.090600014E0,-3.419999778E-2,-1.233999953E-1
4.302004688E0,-9.963999987E-1,-6.659999490E-2,-9.398999810E-1
4.332000000E0,-3.973999918E-1,8.960999846E-1,2.308999896E-1
4.352003125E0,4.349999875E-2,7.193999887E-1,4.223999977E-1
4.382000000E0,-5.245999694E-1,4.052000046E-1,-5.995999575E-1
4.402004688E0,-1.905999929E-1,3.816999793E-1,1.103999987E-1
4.432000000E0,3.107999861E-1,3.813000023E-1,6.643999815E-1
4.452004688E0,-3.249999881E-2,1.015999988E-1,1.979999989E-2
4.482000000E0,-5.920000076E-1,-8.329999447E-2,1.999999949E-4
4.502000000E0,-2.755999863E-1,8.039999753E-2,2.924999893E-1
4.522000000E0,-2.579999901E-2,1.044999957E-1,6.473999619E-1
4.542006250E0,-7.649999857E-2,1.228000000E-1,1.719999909E-1
4.572000000E0,-6.839999557E-2,-1.492999941E-1,-5.166999698E-1
4.592000000E0,-1.169999987E-1,1.675999910E-1,-2.655999959E-1
4.612000000E0,1.759999990E-2,4.897999763E-1,4.275999963E-1
4.632000000E0,-1.238999963E-1,8.576999903E-1,8.866999745E-1
4.652000000E0,-2.343999892E-1,-1.769999973E-2,-5.148999691E-1
4.672000000E0,-4.422999918E-1,-6.199999899E-2,-7.425999641E-1
4.692001563E0,-2.272000015E-1,5.959999934E-2,-4.969999939E-2
4.722000000E0,-1.796000004E-1,2.395000011E-1,2.204999924E-1
4.742009375E0,-5.669999868E-2,6.549999863E-2,8.899999782E-3
4.772000000E0,-2.806999981E-1,-5.449999869E-2,-4.944999814E-1
4.792004688E0,-3.402999938E-1,1.274999976E-1,-3.321000040E-1
4.822000000E0,-2.478999943E-1,1.709999889E-1,-1.736999899E-1
4.842000000E0,-1.912999898E-1,3.222000003E-1,2.361999899E-1
4.862000000E0,-3.394999802E-1,1.083000004E-1,3.350000083E-2
4.882004688E0,-5.611000061E-1,2.527999878E-1,1.871999949E-1
4.912000000E0,-6.437000036E-1,1.055999994E-1,-7.779999822E-2
4.932003125E0,-2.707000077E-1,2.290999889E-1,8.769999444E-2
4.962000000E0,1.859999895E-1,2.097999901E-1,1.315999925E-1
4.982006250E0,-2.020999938E-1,-1.850000024E-2,-5.579999834E-2
5.012000000E0,-3.075999916E-1,1.529999971E-1,-5.279999971E-2
5.032000000E0,-7.468999624E-1,2.201999873E-1,1.215000004E-1
5.052000000E0,-1.990000010E-1,3.795000017E-1,-1.605999917E-1
5.072000000E0,3.956999779E-1,2.146999985E-1,-3.826999962E-1
5.092000000E0,-2.495999932E-1,2.368999869E-1,1.440999955E-1
5.112000000E0,-1.905999929E-1,2.122999877E-1,-2.081999928E-1
5.132006250E0,-4.940999746E-1,1.315999925E-1,-1.190999970E-1
5.162000000E0,-7.889999449E-2,-1.709999889E-2,-1.048999950E-1
5.182006250E0,1.569999941E-2,2.893999815E-1,7.159999758E-2
5.212000000E0,-8.349999785E-2,1.858000010E-1,1.435000002E-1
5.232001563E0,-2.133999914E-1,2.441999912E-1,-1.964999884E-1
5.262000000E0,-1.865999997E-1,3.588999808E-1,-2.818000019E-1
5.282001563E0,-1.168999970E-1,5.643000007E-1,5.893999934E-1
5.302001563E0,-2.344999909E-1,4.730999768E-1,1.081300020E0
5.322006250E0,-2.836000025E-1,7.100000046E-3,5.289999768E-2
5.352001563E0,-6.222999692E-1,-1.301999986E-1,-2.418999970E-1
5.372004688E0,-4.847999811E-1,3.294000030E-1,1.429999992E-2
5.402000000E0,1.902999878E-1,2.255999893E-1,-6.729999930E-2
5.422006250E0,-1.366999894E-1,2.405999899E-1,3.564999998E-1
5.452000000E0,-5.150000006E-2,-3.597999811E-1,-5.065000057E-1
5.472004688E0,-5.724999905E-1,4.279999807E-2,-3.646999896E-1
5.502000000E0,-5.063999891E-1,6.155999899E-1,4.957000017E-1
5.522000000E0,-5.529999733E-2,5.175999999E-1,3.344999850E-1
5.542000000E0,-7.849999517E-2,-2.139999904E-2,-4.025000036E-1
5.562000000E0,-6.128999591E-1,6.769999862E-2,-1.445999891E-1
5.582000000E0,-1.692000031E-1,1.551999897E-1,-2.249999903E-2
5.602000000E0,-6.419999897E-2,3.634999990E-1,5.489000082E-1
5.622000000E0,-1.261000037E-1,3.075999916E-1,3.603000045E-1
5.642000000E0,-1.938000023E-1,-6.619999558E-2,-5.906000137E-1
5.662007813E0,-6.019999981E-1,9.339999408E-2,-4.908999801E-1
5.692000000E0,-2.448999882E-1,6.258999705E-1,1.603000015E-1
5.712001563E0,-9.519999474E-2,7.573999763E-1,3.853999972E-1
5.742000000E0,-6.026999950E-1,4.047999978E-1,-1.569999941E-2
5.762004688E0,-6.055999994E-1,2.263000011E-1,-6.701999903E-1
5.792000000E0,-4.287000000E-1,9.165999889E-1,1.750000007E-2
5.812006250E0,-5.597000122E-1,1.489399910E0,7.584999800E-1
5.842000000E0,-1.074999943E-1,8.985999823E-1,2.045999914E-1
5.862000000E0,1.184999943E-1,6.918999553E-1,-8.517000079E-1
5.882000000E0,1.008000001E-1,2.518000007E-1,-1.936399937E0
5.902000000E0,5.249999836E-2,-1.246999949E-1,-1.913399935E0
5.922000000E0,-4.716999829E-1,3.716000021E-1,4.580999911E-1
5.952000000E0,4.108999968E-1,1.428399920E0,1.643199921E0
5.972000000E0,1.375999898E-1,2.424199820E0,1.154999956E-1
5.992000000E0,-4.601999819E-1,4.319999814E-1,5.163999796E-1
6.012001563E0,-9.362999797E-1,-1.463999897E-1,5.665000081E-1
6.042003125E0,-2.060000002E-1,-1.328499913E0,5.232999921E-1
6.072000000E0,5.509999767E-2,-1.141099930E0,-6.049999967E-2
6.092000000E0,1.907999963E-1,2.630499840E0,1.643999934E0
6.112000000E0,1.979799986E0,6.446300030E0,1.862399936E0
6.132001563E0,1.208400011E0,4.405799866E0,9.463999867E-1
6.162000000E0,-1.095899940E0,-6.603699684E0,-3.405699968E0
6.182000000E0,-1.163399935E0,-4.399899960E0,-2.554499865E0
6.202001563E0,1.253000021E0,1.055999994E-1,2.161200047E0
6.232000000E0,2.053200006E0,3.488999903E-1,3.313199997E0
6.252000000E0,1.127900004E0,-2.209300041E0,3.770000041E-1
6.272001563E0,-3.876000047E-1,-3.050099850E0,-8.648999929E-1
6.302000000E0,-5.081999898E-1,-1.116400003E0,1.517999917E-1
6.322000000E0,3.229999915E-2,3.364999890E-1,3.797999918E-1
6.342000000E0,-8.240000010E-1,1.372099996E0,2.697599888E0
6.362000000E0,-2.202899933E0,3.444099903E0,4.177999794E-1
6.382000000E0,-2.691999912E0,3.237099886E0,6.839999557E-1
6.402000000E0,-2.116400003E0,1.633499980E0,1.059000015E0
6.422000000E0,1.759999990E-2,-2.223999947E-1,-2.139999904E-2
6.442000000E0,-2.511999905E-1,3.658999801E-1,-1.561100006E0
6.462000000E0,-1.100700021E0,1.979299903E0,-8.119999617E-2
6.482000000E0,-2.454699993E0,2.548099995E0,1.959599972E0
6.502000000E0,-6.489999890E-1,1.600099921E0,5.040000081E-1
6.522001563E0,4.045999944E-1,2.053699970E0,-6.520000100E-1
6.552000000E0,9.386000037E-1,2.642499924E0,-4.095000029E-1
6.572000000E0,1.126099944E0,3.218999863E0,1.337700009E0
6.592000000E0,2.560999990E-1,2.926399946E0,6.793999672E-1
6.612000000E0,2.249999903E-2,1.774299979E0,-2.327999920E-1
6.632000000E0,-2.026999891E-1,-2.660000026E-1,1.466799974E0
6.652000000E0,-2.003999949E-1,-1.430999935E-1,2.139499903E0
6.672000000E0,-5.842999816E-1,1.161899924E0,1.529500008E0
6.692000000E0,-1.892699957E0,1.901899934E0,1.259400010E0
6.712000000E0,-1.136099935E0,3.036599874E0,1.361699939E0
6.732000000E0,-5.284000039E-1,3.036599874E0,1.474099994E0
6.752001563E0,-4.925999939E-1,2.805999815E-1,2.805599928E0
6.782004688E0,-7.307999730E-1,2.011299849E0,8.646000028E-1
6.812000000E0,4.942999780E-1,3.358500004E0,4.343999922E-1
6.832007813E0,-8.929999918E-2,3.968199968E0,3.155999780E-1
6.862000000E0,-6.807999611E-1,2.495100021E0,1.172799945E0
6.882003125E0,-7.159000039E-1,2.314199924E0,6.308999658E-1
6.912000000E0,-1.764599919E0,-1.080600023E0,-1.573999971E-1
6.932000000E0,-4.396699905E0,-8.082000017E-1,-1.605799913E0
6.952000000E0,-4.689399719E0,-2.059200048E0,-5.095299721E0
6.972000000E0,-1.716499925E0,-5.420300007E0,-1.862899899E0
6.992000000E0,2.280799866E0,-4.935100079E0,2.499699831E0
7.012000000E0,6.121699810E0,-4.051300049E0,4.784999788E-1
7.032001563E0,6.210399628E0,-5.835999846E-1,-5.895899773E0
7.062000000E0,4.354700089E0,-3.388999999E-1,-7.832799911E0
7.082001563E0,3.666299820E0,-1.751699924E0,-3.314599991E0
7.112000000E0,-2.607800007E0,4.281099796E0,1.911599994E0
7.132006250E0,-2.023399830E0,5.583999753E-1,4.936399937E0
7.162000000E0,-3.181599855E0,4.895499706E0,-1.724299908E0
7.182004688E0,-3.446399927E0,6.122499943E0,-1.490999937E0
7.212000000E0,-5.355299950E0,6.969099998E0,-2.275199890E0
7.232000000E0,-5.483200073E0,6.910099983E0,-7.759999484E-2
7.252000000E0,7.249499798E0,-3.328590012E1,-1.551299930E0
7.272000000E0,-4.126999974E-1,-1.528479958E1,4.098499775E0
7.292000000E0,-3.200500011E0,1.986999959E-1,4.582999706E0
7.312000000E0,-2.380199909E0,4.947999954E0,7.181999683E-1
7.332000000E0,-8.249999583E-2,5.152599812E0,-1.707700014E0
7.352000000E0,9.746999741E-1,1.328899980E0,2.352099895E0
7.372000000E0,-1.034999937E-1,-3.883000016E-1,2.024499893E0
7.392000000E0,-6.827999949E-1,-2.463799953E0,2.373499870E0
7.412000000E0,-1.409600019E0,-3.788899899E0,5.021399975E0
7.432000000E0,-1.441299915E0,-4.765699863E0,4.710499763E0
7.452000000E0,-1.610799909E0,-3.076399803E0,2.342999876E-1
7.472000000E0,-7.620000094E-2,-3.142599821E0,1.121199965E0
7.492000000E0,1.333999991E0,-6.129899979E0,9.092899323E0
7.512000000E0,-1.459100008E0,-8.503799438E0,1.124759960E1
7.532000000E0,-3.506399870E0,-5.485699654E0,4.169399738E0
7.552000000E0,-3.214299917E0,-2.363199949E0,6.875199795E0
7.572000000E0,-2.123600006E0,-8.703999519E-1,5.406599998E0
7.592000000E0,-2.267400026E0,-1.440199971E0,-2.283900023E0
7.612000000E0,-1.049499989E0,-3.627499819E0,-8.016099930E0
7.632000000E0,-1.278800011E0,-4.538700104E0,-6.276099682E0
7.652000000E0,-3.629400015E0,-3.209100008E0,-3.072199821E0
7.672000000E0,-6.962899685E0,-2.546200037E0,1.774699926E0
7.692000000E0,-6.421299934E0,-3.345700026E0,3.130000085E-2
7.712000000E0,-4.893399715E0,-4.090799809E0,-2.257999897E0
7.732000000E0,-3.820999861E0,-2.984400034E0,-3.746399879E0
7.752000000E0,-1.816999912E0,-2.755199909E0,-5.541999817E0
7.772000000E0,-4.743999839E-1,-1.420400023E0,-6.841699600E0
7.792000000E0,1.551399946E0,7.214999795E-1,-6.198999882E0
7.812000000E0,2.843299866E0,3.114099979E0,-6.568299770E0
7.832001563E0,3.902299881E0,5.065399647E0,-7.235699654E0
7.862000000E0,2.895599842E0,6.618099689E0,-6.067800045E0
7.882000000E0,1.587299943E0,6.436800003E0,-4.800299644E0
7.902001563E0,1.278800011E0,5.815899849E0,-3.210099936E0
7.922001563E0,5.072000027E-1,5.386399746E0,-1.371999979E-1
7.952000000E0,-8.265999556E-1,3.034999847E0,5.295599937E0
7.972000000E0,-1.342999935E-1,-2.769299984E0,7.845599651E0
7.992000000E0,-3.201200008E0,-8.736299515E0,8.123399734E0
8.012000000E0,-6.120800018E0,-8.015799522E0,7.938199997E0
8.032000000E0,-7.420899868E0,-5.749999881E-1,1.119659996E1
8.052000000E0,-5.703799725E0,2.086199999E0,-4.409399986E0
8.072000000E0,9.240999818E-1,2.626399994E0,-1.518079948E1
8.092000000E0,5.817599773E0,-1.265900016E0,-1.246000004E1
8.112000000E0,1.353679943E1,-1.399090004E1,6.771699905E0
8.132007813E0,1.062069988E1,-8.377300262E0,1.238549995E1
8.162000000E0,-2.467999905E-1,6.425899982E0,-1.107520008E1
8.182000000E0,-3.067399979E0,2.547299862E0,-1.607649994E1
8.202000000E0,-3.471099854E0,-1.511699915E0,-1.012379932E1
8.222000000E0,-3.000200033E0,-3.484799862E0,-4.938199997E0
8.242000000E0,-2.584100008E0,-2.903899908E0,-1.258499980E0
8.262000000E0,-2.709899902E0,2.529999912E-1,5.255599976E0
8.282000000E0,-1.094300032E0,2.000599861E0,9.256099701E0
8.302000000E0,-1.463499904E0,2.186399937E0,4.367399693E0
8.322000000E0,-2.584899902E0,1.851999998E0,5.753999949E-1
8.342000000E0,-2.047499895E0,2.549999952E-1,-2.696999907E-1
8.362000000E0,-2.401299953E0,2.962000072E-1,7.048000097E-1
8.382000000E0,-2.842599869E0,2.377000004E-1,9.519999623E-1
8.402000000E0,-2.552199841E0,6.279999763E-2,9.892999530E-1
8.422000000E0,-1.926799893E0,-1.026399970E0,3.138299942E0
8.442000000E0,-2.088000059E0,-3.350199938E0,5.871999741E0
8.462000000E0,-2.777599812E0,-3.279699802E0,6.397399902E0
8.482000000E0,-1.636999965E0,-2.726699829E0,7.079099655E0
8.502000000E0,-1.862199903E0,-3.447099924E0,5.673199654E0
8.522000000E0,-3.559099913E0,-4.549099922E0,2.351399899E0
8.542000000E0,-4.752899647E0,-6.484499931E0,3.832899809E0
8.562000000E0,-5.949100018E0,-6.760699749E0,6.742599964E0
8.582000000E0,-6.616600037E0,-4.072099686E0,7.927199841E0
8.602000000E0,-4.975199699E0,-3.911199808E0,5.609799862E0
8.622000000E0,-2.329999954E-2,-7.215499878E0,1.393000036E-1
8.642000000E0,3.428499937E0,-9.684599876E0,-5.870500088E0
8.662000000E0,6.287199974E0,-1.108539963E1,-6.174599648E0
8.682000000E0,8.181399345E0,-6.730499744E0,3.971499920E0
8.702000000E0,7.318999767E0,-3.138899803E0,4.246699810E0
8.722000000E0,2.889299870E0,2.094399929E0,-5.546599865E0
8.742000000E0,1.353999972E0,2.394000053E0,-5.035299778E0
8.762000000E0,-3.208999932E-1,1.978099942E0,-3.860599995E0
8.782000000E0,-2.244199991E0,2.225499868E0,-4.020999908E0
8.802000000E0,-2.853799820E0,2.575500011E0,-3.761899948E0
8.822000000E0,-1.621099949E0,3.192600012E0,-4.390799999E0
8.842001563E0,-1.981099963E0,4.312799931E0,-6.905599594E0
8.872000000E0,-1.587599993E0,5.258999825E0,-9.586099625E0
8.892000000E0,-1.300300002E0,6.279099941E0,-8.861000061E0
8.912000000E0,-1.336300015E0,6.889499664E0,-5.135900021E0
8.932000000E0,-2.524399996E0,6.885999680E0,-1.270399928E0
8.952000000E0,-3.376699924E0,4.123499870E0,3.648299932E0
8.972000000E0,-1.491999984E0,3.588999808E-1,5.892899990E0
8.992000000E0,9.296000004E-1,-3.767099857E0,7.741600037E0
9.022000000E0,3.777899981E0,-9.183499336E0,4.751800060E0
9.042000000E0,1.508799911E0,-3.104300022E0,3.366299868E0
9.062000000E0,2.060899973E0,4.492999911E-1,2.509199858E0
9.082000000E0,3.125200033E0,-1.727999896E-1,-1.233199954E0
9.102000000E0,3.865599871E0,-3.085000038E0,-7.038599968E0
9.122000000E0,5.164599895E0,-5.122200012E0,-8.917200089E0
9.142000000E0,2.744400024E0,-5.349000096E-1,-2.963099957E0
9.162000000E0,1.851899981E0,4.931699753E0,-4.955299854E0
9.182000000E0,-1.584999919E0,2.420399904E0,-6.705199718E0
9.202000000E0,-3.549599886E0,-6.140999794E-1,-1.101069927E1
9.222000000E0,-2.702800035E0,-3.276700020E0,-7.663799763E0
9.242000000E0,-2.076400042E0,-3.724399805E0,-1.937399983E0
9.262000000E0,-2.793399811E0,-1.745599985E0,3.865999937E0
9.282000000E0,-1.277599931E0,1.609999985E-1,4.000000000E0
9.302000000E0,1.490999907E-1,3.799999878E-2,1.844299912E0
9.322000000E0,-4.827999771E-1,9.070000052E-2,8.768999577E-1
9.342000000E0,-2.825799942E0,2.865999937E0,2.188899994E0
9.362000000E0,-1.742699981E0,2.404700041E0,-3.320099831E0
9.382000000E0,-1.021299958E0,3.056499958E0,-4.579499722E0
9.402000000E0,2.329999954E-2,2.218899965E0,1.638599992E0
9.422000000E0,1.067199945E0,1.405999959E-1,6.414799690E0
9.442000000E0,-9.154999852E-1,-1.240999937E0,5.276199818E0
9.462000000E0,-2.834699869E0,-9.649999738E-1,7.136999965E-1
9.482001563E0,-3.270399809E0,-1.062099934E0,2.032000065E0
9.512000000E0,-2.188299894E0,-4.935699940E0,8.062899590E0
9.532000000E0,-2.030099869E0,-4.450399876E0,6.996799946E0
9.552000000E0,-2.509799957E0,-4.920000076E0,3.676299810E0
9.572000000E0,-2.878599882E0,-5.101999760E0,4.157799721E0
9.592000000E0,-3.736399889E0,-6.941999912E0,7.470599651E0
9.612000000E0,-4.851900101E0,-4.726299763E0,8.203000069E0
9.632000000E0,-5.300299644E0,-2.784699917E0,5.903699875E0
9.652000000E0,-1.794499993E0,-4.230400085E0,7.911999822E-1
9.672000000E0,8.510999680E-1,-5.503499985E0,-3.570400000E0
9.692000000E0,2.731899977E0,-7.520199776E0,-4.153199673E0
9.712000000E0,7.455099583E0,-1.176949978E1,-1.813199997E0
9.742000000E0,4.139800072E0,-1.059199929E0,3.485299826E0
9.762000000E0,1.224300027E0,4.350000024E-1,-3.531099796E0
9.782000000E0,6.370999813E-1,-1.656999886E-1,-3.553099871E0
9.802000000E0,1.890599966E0,4.156999886E-1,-4.200599670E0
9.822000000E0,8.885999918E-1,3.776700020E0,-3.490399837E0
9.842000000E0,4.554999769E-1,5.493700027E0,-4.662499905E0
9.862000000E0,1.700000018E-1,5.763599873E0,-5.032799721E0
9.882000000E0,1.730000041E-2,5.368700027E0,-5.411099911E0
9.902000000E0,-1.070099950E0,4.719500065E0,-7.187399864E0
9.922000000E0,-2.796099901E0,4.687200069E0,-8.419499397E0
9.942000000E0,-3.647899866E0,5.293999672E0,-7.730299950E0
9.962000000E0,-3.042399883E0,5.000000000E0,-5.578399658E0
9.982000000E0,-2.254999876E0,4.495299816E0,-2.442499876E0
1.000200000E1,-8.078999519E-1,3.818199873E0,2.047999859E0
1.002200000E1,9.605999589E-1,4.600999951E-1,8.804499626E0
1.004200000E1,3.862699986E0,-5.107800007E0,1.508439922E1
1.006200000E1,4.740099907E0,-9.758599281E0,9.479499817E0
1.008200000E1,8.503999710E-1,-2.787799835E0,5.085000038E0
1.010200000E1,1.929600000E0,3.197000027E-1,6.886000037E-1
1.012200000E1,3.191999912E0,-9.049999714E-1,-2.340499878E0
1.014200000E1,5.244699955E0,-5.392399788E0,-1.141370010E1
1.016200000E1,5.676699638E0,-8.969799995E0,-1.391399980E0
1.018200000E1,2.833600044E0,-1.533599973E0,-2.332700014E0
1.020200000E1,-1.234099984E0,6.419499874E0,-1.001259995E1
1.022200000E1,-1.694499969E0,4.116699696E0,-9.489099503E0
1.024200000E1,-7.978000045E-1,-7.075999975E-1,-1.233710003E1
1.026200000E1,-1.758999974E-1,-5.132199764E0,-8.524600029E0
1.028200000E1,-1.583799958E0,-5.649499893E0,-2.553200006E0
1.030200000E1,-3.069399834E0,-2.123399973E0,1.523499966E0
1.032200000E1,-4.609999657E0,2.874399900E0,1.120020008E1
1.034200000E1,-2.814899921E0,3.173499823E0,4.801799774E0
1.036200000E1,-2.945600033E0,3.210799932E0,6.348999739E-1
1.038200000E1,-1.952199936E0,2.402699947E0,-2.557199955E0
1.040200000E1,-9.637999535E-1,9.659999609E-1,-2.475600004E0
1.042200000E1,-4.916999936E-1,1.197999939E-1,1.626399994E0
1.044200000E1,-2.985000014E-1,2.811000049E-1,4.272200108E0
1.046200000E1,-9.145999551E-1,-1.112599969E0,3.867299795E0
1.048200156E1,-1.738999963E0,-1.961999983E-1,2.191999912E0
1.051200000E1,-2.464200020E0,-4.181999862E-1,5.441899776E0
1.053200000E1,-1.554999948E0,-3.753299952E0,8.192899704E0
1.055200000E1,-1.764899969E0,-3.973699808E0,7.893599987E0
1.057200000E1,-2.968299866E0,-3.910399914E0,4.804399967E0
1.059200000E1,-3.784600019E0,-2.878199816E0,4.410900116E0
1.061200000E1,-3.770799875E0,-2.797899961E0,9.005800247E0
1.063200000E1,-4.064700127E0,-4.524399757E0,8.340199471E0
1.065200000E1,-3.261099815E0,-4.594899654E0,7.505599976E0
1.067200000E1,-2.205999941E-1,-6.765799999E0,1.401899934E0
1.069200000E1,5.767999887E-1,-1.003059959E1,-7.137099743E0
1.071200000E1,4.130899906E0,-1.520440006E1,-7.344099998E0
1.073200000E1,1.897199988E0,-7.077099800E0,-2.412600040E0
1.075200000E1,4.878499985E0,-3.921799898E0,8.722999573E0
1.077200000E1,5.608599663E0,-4.661799908E0,3.013099909E0
1.079200000E1,3.212100029E0,-6.186999679E-1,-6.703199863E0
1.081200000E1,1.475999951E0,1.271199942E0,-4.675099850E0
1.083200000E1,4.924999774E-1,3.179999828E0,-3.604399920E0
1.085200000E1,-7.062000036E-1,3.690999985E0,-5.004899979E0
1.087200000E1,-1.867699981E0,4.654799938E0,-6.307699680E0
1.089200000E1,-2.073299885E0,6.145099640E0,-6.330800056E0
1.091200000E1,-2.355900049E0,6.844899654E0,-7.420499802E0
1.093200000E1,-2.404799938E0,6.616699696E0,-8.661799431E0
1.095200000E1,-2.676399946E0,5.791699886E0,-8.395400047E0
1.097200000E1,-2.675099850E0,5.582399845E0,-7.010900021E0
1.099200000E1,-2.519000053E0,6.192499638E0,-4.019700050E0
1.101200000E1,-1.691599965E0,4.946000099E0,-1.607999951E-1
1.103200000E1,1.705999970E-1,9.959999919E-1,5.061399937E0
1.105200000E1,6.549699783E0,-5.442100048E0,1.194379997E1
1.107200000E1,1.154649925E1,-1.212399960E1,1.448479939E1
1.109200000E1,4.979700089E0,-3.201999903E0,7.299999714E0
1.111200000E1,1.965199947E0,5.694000125E-1,8.035999537E-1
1.113200156E1,3.499399900E0,-3.302399874E0,7.586999536E-1
1.116200000E1,3.331799984E0,-6.392299652E0,-7.223199844E0
1.118200000E1,-1.594499946E0,7.881999612E-1,-7.369999886E0
1.120200000E1,-2.053400040E0,4.133299828E0,-1.030550003E1
1.122200000E1,-2.849599838E0,1.566100001E0,-9.514599800E0
1.124200000E1,-1.497399926E0,-3.001299858E0,-1.056820011E1
1.126200000E1,-1.056200027E0,-5.962299824E0,-6.009099960E0
1.128200000E1,-3.252199888E0,-3.692299843E0,-1.878499985E0
1.130200000E1,-3.214999914E0,-1.710899949E0,-3.409999982E-2
1.132200000E1,-2.375299931E0,1.807199955E0,6.813600063E0
1.134200000E1,-8.405999541E-1,3.213899851E0,3.209499836E0
1.136200000E1,-4.059999809E-2,3.239599943E0,4.111999869E-1
1.138200000E1,-7.856000066E-1,3.256399870E0,-1.759799957E0
1.140200000E1,-1.045199990E0,2.736299992E0,-9.871999621E-1
1.142200000E1,-5.821999907E-1,1.557799935E0,1.265900016E0
1.144200000E1,2.245000005E-1,-4.359999895E-1,5.061299801E0
1.146200000E1,-1.214599967E0,-1.223999932E-1,5.261799812E0
1.148200156E1,-1.795199990E0,-5.590999722E-1,1.641099930E0
1.151200000E1,-2.341899872E0,-1.921399951E0,4.518099785E0
1.153200000E1,-2.612399817E0,-2.780099869E0,8.848699570E0
1.155200000E1,-1.034699917E0,-4.114399910E0,7.081699848E0
1.157200000E1,-1.608699918E0,-3.441299915E0,2.779599905E0
1.159200000E1,-2.113899946E0,-3.253499985E0,3.712099791E0
1.161200000E1,-1.895799994E0,-5.484399796E0,8.584300041E0
1.163200000E1,-3.956199884E0,-5.513700008E0,9.825200081E0
1.165200000E1,-3.438599825E0,-3.911799908E0,6.338099957E0
1.167200000E1,-1.014999971E-1,-5.091099739E0,-1.257599950E0
1.169200000E1,2.280599833E0,-9.110799789E0,-7.000000000E0
1.171200000E1,3.275599957E0,-8.991600037E0,-4.663599968E0
1.173200000E1,2.477599859E0,-5.433700085E0,6.345099926E0
1.175200000E1,2.741199970E0,-4.338799953E0,7.152599812E0
1.177200000E1,2.382999897E0,-3.097399950E0,-3.124300003E0
1.179200000E1,1.334599972E0,-1.034399986E0,-5.500799656E0
1.181200156E1,1.017699957E0,-5.159999803E-2,-4.829400063E0
1.183200156E1,-2.910999954E-1,1.137599945E0,-1.838599920E0
1.186200000E1,-6.247999668E-1,2.280099869E0,-5.006099701E0
1.188200000E1,-4.562999904E-1,2.849999905E0,-6.453199863E0
1.190200000E1,-8.486999869E-1,4.979599953E0,-7.956999779E0
1.192200000E1,-8.664000034E-1,6.172299862E0,-9.641900063E0
1.194200000E1,-1.466300011E0,6.865999699E0,-9.221699715E0
1.196200000E1,-1.343599916E0,7.629899979E0,-8.724399567E0
1.198200156E1,-1.228099942E0,7.856400013E0,-6.463899612E0
1.201200000E1,-6.340000033E-1,5.229199886E0,-1.176999956E-1
1.203200000E1,2.075599909E0,4.420000017E-1,5.259500027E0
1.205200000E1,6.443099976E0,-8.592000008E0,1.560769939E1
1.207200000E1,6.430599689E0,-1.547769928E1,1.660339928E1
1.209200000E1,4.546999931E-1,-5.594599724E0,5.119499683E0
1.211200000E1,-8.899999782E-3,1.638299942E0,1.893999934E0
1.213200156E1,-2.980999947E-1,4.085700035E0,-3.355000019E-1
1.215200156E1,1.230099916E0,-1.289999962E0,-9.041600227E0
1.218200000E1,2.519000053E0,-5.365399837E0,-6.379799843E0
1.220200000E1,3.327099800E0,-1.947699904E0,-4.526999891E-1
1.222200000E1,2.062000036E0,3.121199846E0,-5.600599766E0
1.224200000E1,-2.746999860E-1,3.463999927E-1,-8.744500160E0
1.226200156E1,-1.320899963E0,-1.751899958E0,-1.001289940E1
1.229200156E1,-1.270699978E0,-2.978799820E0,-4.532000065E0
1.232200000E1,-2.476899862E0,-8.726999760E-1,-5.794000030E-1
1.234200156E1,-1.882200003E0,2.823699951E0,8.140699387E0
1.237200000E1,-1.343199968E0,1.654399991E0,8.252999783E-1
1.239200000E1,-2.040699959E0,2.203699827E0,-2.432999849E0
1.241200000E1,-9.549999833E-1,2.171700001E0,-1.735899925E0
1.243200000E1,-4.975999892E-1,1.606400013E0,-8.572999835E-1
1.245200000E1,-6.772999763E-1,1.276700020E0,1.160699964E0
1.247200000E1,-8.657999635E-1,5.202000141E-1,4.685499668E0
1.249200000E1,-2.670599937E0,1.570999920E-1,5.189799786E0
1.251200000E1,-3.491999865E0,-1.841399908E0,3.027799845E0
1.253200000E1,-4.310899734E0,-3.814999819E0,3.676999807E0
1.255200000E1,-4.105799675E0,-4.053599834E0,6.470499992E0
1.257200000E1,-2.825299978E0,-4.710999966E0,7.257899761E0
1.259200000E1,-1.465099931E0,-5.866199970E0,6.008899689E0
1.261200000E1,-6.649000049E-1,-4.924499989E0,7.484899998E0
1.263200000E1,-1.143999934E0,-4.645599842E0,7.617499828E0
1.265200000E1,-2.479599953E0,-3.407999992E0,7.577199936E0
1.267200000E1,-2.760200024E0,-2.677999973E0,5.171099663E0
1.269200156E1,-2.999500036E0,-2.851099968E0,-9.443999529E-1
1.272200000E1,-1.258599997E0,-4.393899918E0,-3.473999977E0
1.274200000E1,-1.461300015E0,-3.462899923E0,-2.464699984E0
1.276200000E1,3.293599844E0,-8.325200081E0,3.418900013E0
1.278200000E1,1.315939999E1,-1.808479881E1,2.284999847E0
1.280200000E1,4.204499722E0,-7.220599651E0,-1.067099929E0
1.282200000E1,-3.246399879E0,1.685999930E-1,-8.621999621E-1
1.284200000E1,-1.440999985E0,1.514299989E0,-2.341500044E0
1.286200000E1,-1.182299972E0,4.782199860E0,-4.322899818E0
1.288200000E1,-1.811899900E0,5.635200024E0,-7.649799824E0
1.290200000E1,-2.739099979E0,6.068099976E0,-7.963899612E0
1.292200156E1,-1.946399927E0,5.730700016E0,-8.373499870E0
1.295200000E1,1.623999923E-1,5.637099743E0,-9.478300095E0
1.297200000E1,1.021600008E0,6.404099941E0,-9.974599838E0
1.299200000E1,-4.239999875E-2,8.078999519E0,-7.490799904E0
1.302200000E1,-2.905400038E0,5.797800064E0,-9.001999497E-1
1.304200000E1,-1.336099982E0,1.828199983E0,5.918900013E0
1.306200000E1,6.605000019E0,-3.210099936E0,1.457049942E1
1.308200000E1,5.440099716E0,-1.087599945E1,1.434019947E1
1.310200000E1,1.205199957E0,-7.227399826E0,6.640999794E0
1.312200000E1,-7.525999546E-1,8.036999702E-1,1.548799992E0
1.314200000E1,2.234699965E0,-1.317399979E0,6.790400028E0
1.316200000E1,1.011099935E0,-5.343499660E0,-1.244449997E1
1.318200000E1,4.589699745E0,-9.714699745E0,-1.483640003E1
1.320200000E1,1.657899976E0,-4.149099827E0,-6.100100040E0
1.322200000E1,-6.584999561E-1,4.954199791E0,-8.072899818E0
1.324200000E1,-1.851999909E-1,1.005399942E0,-1.040520000E1
1.326200000E1,7.986999750E-1,-2.955600023E0,-1.272979927E1
1.328200000E1,4.314999878E-1,-2.857899904E0,-6.783099651E0
1.330200000E1,-2.265999913E-1,-2.052799940E0,-2.562000036E0
1.332200000E1,-1.532699943E0,6.416000128E-1,9.224100113E0
1.334200000E1,-1.804999948E0,8.329999447E-2,2.365000010E0
1.336200000E1,-1.309599996E0,1.284799933E0,-1.185400009E0
1.338200000E1,-2.309000015E0,3.615499973E0,-4.829999804E-1
1.340200000E1,-2.617100000E0,3.293900013E0,6.488999724E-1
1.342200000E1,-1.744799972E0,3.434000015E-1,2.353699923E0
1.344200000E1,-1.128700018E0,-6.463999748E-1,5.502399921E0
1.346200000E1,-1.483399987E0,4.434999824E-1,5.162099838E0
1.348200000E1,-2.498699903E0,8.854999542E-1,3.905599833E0
1.350200000E1,-2.559099913E0,4.574999809E-1,1.716099977E0
1.352200000E1,-2.222800016E0,-1.617999971E-1,1.822600007E0
1.354200000E1,-2.870399952E0,-2.211499929E0,5.738599777E0
1.356200000E1,-4.283299923E0,-4.189399719E0,9.927499771E0
1.358200000E1,-4.785299778E0,-4.486000061E0,6.287899971E0
1.360200000E1,-3.850999832E0,-3.389999866E0,2.685999870E0
1.362200000E1,-3.198799849E0,-1.749099970E0,4.547899723E0
1.364200000E1,-2.575099945E0,-1.981699944E0,1.059939957E1
1.366200000E1,-2.158599854E0,-3.835799932E0,1.077069950E1
1.368200000E1,-2.581899881E0,-3.038100004E0,7.737499714E0
1.370200000E1,-2.022599936E0,-5.569699764E0,-2.789700031E0
1.372200000E1,-1.403999925E-1,-9.473799706E0,-6.283400059E0
1.374200000E1,3.505999804E0,-1.497289944E1,-4.347300053E0
1.376200156E1,5.001999855E0,-1.355149937E1,-4.549099922E0
1.379200000E1,5.794899940E0,-4.266499996E0,1.166389942E1
1.381200000E1,3.722199917E0,-1.782699943E0,-2.606600046E0
1.383200000E1,2.061399937E0,8.032000065E-1,-4.340300083E0
1.385200156E1,2.769999981E0,2.269700050E0,-2.704299927E0
1.388200000E1,1.861799955E0,3.797499895E0,-6.062200069E0
1.390200000E1,3.486000001E-1,4.652599812E0,-6.415599823E0
1.392200000E1,-1.872799993E0,5.489899635E0,-7.337199688E0
1.394200000E1,-3.162199974E0,6.089900017E0,-8.713099480E0
1.396200000E1,-3.747900009E0,6.302000046E0,-8.831799507E0
1.398200000E1,-4.304800034E0,6.663300037E0,-8.639200211E0
1.400200000E1,-4.617499828E0,7.501299858E0,-8.289999962E0
1.402200000E1,-3.989899874E0,7.251699924E0,-5.802599907E0
1.404200000E1,-2.656499863E0,5.151999950E0,-5.363000035E-1
1.406200000E1,-2.417999953E-1,1.609799981E0,7.355000019E0
1.408200000E1,7.774600029E0,-6.678099632E0,1.968199921E1
1.410200000E1,1.052359962E1,-1.512179947E1,1.214890003E1
1.412200000E1,4.160599709E0,-5.893699646E0,3.163399935E0
1.414200000E1,2.876999855E0,-1.510100007E0,4.032999873E-1
1.416200000E1,5.275700092E0,-3.271699905E0,-1.567000002E-1
1.418200000E1,5.788399696E0,-6.519000053E0,-9.893499374E0
1.420200000E1,9.039999843E-1,-1.482800007E0,-6.035399914E0
1.422200000E1,-3.863399982E0,5.194499969E0,-1.318809986E1
1.424200000E1,-4.678199768E0,4.724199772E0,-1.245489979E1
1.426200000E1,-2.770099878E0,-9.404999614E-1,-1.177339935E1
1.428200000E1,-1.194599986E0,-6.560299873E0,-8.751699448E0
1.430200000E1,-1.300199986E0,-7.088699818E0,-4.651199818E0
1.432200000E1,-3.219199896E0,-4.397099972E0,-9.926999807E-1
1.434200000E1,-3.726599932E0,1.016199946E0,7.239799976E0
1.436200000E1,-1.927199960E0,1.812799931E0,4.164999962E0
1.438200000E1,-1.153100014E0,2.983099937E0,2.213899851E0
1.440200000E1,-1.886199951E0,2.911499977E0,1.487499952E0
1.442200000E1,-1.519999981E0,2.059499979E0,6.685999632E-1
1.444200000E1,-1.037999988E0,1.264999986E0,5.228999853E-1
1.446200000E1,-9.386999607E-1,3.831999898E-1,1.445299983E0
1.448200000E1,-2.022199869E0,1.598999947E-1,3.449399948E0
1.450200000E1,-2.268399954E0,-5.655999780E-1,3.106199980E0
1.452200000E1,-1.992299914E0,-1.429999948E0,1.765899897E0
1.454200000E1,-1.758799911E0,-1.136699915E0,3.171999931E0
1.456200000E1,-2.207099915E0,-2.076099873E0,6.862599850E0
1.458200000E1,-3.181399822E0,-3.781599998E0,7.983899593E0
1.460200000E1,-3.862999916E0,-3.911999941E0,5.076399803E0
1.462200000E1,-3.977399826E0,-3.672499895E0,2.923199892E0
1.464200000E1,-3.867599964E0,-2.570099831E0,5.108699799E0
1.466200000E1,-4.673399925E0,-3.558599949E0,1.004259968E1
1.468200000E1,-5.920700073E0,-3.192600012E0,9.255599976E0
1.470200000E1,-5.179699898E0,-2.980199814E0,5.752099991E0
1.472200000E1,-2.264899969E0,-6.145899773E0,-1.893299937E0
1.474200000E1,2.906999886E-1,-1.072159958E1,-5.185400009E0
1.476200000E1,3.899799824E0,-1.410319996E1,-5.818199635E0
1.478200000E1,4.973299980E0,-1.077309990E1,-4.625099659E0
1.480200000E1,4.749899864E0,-3.533799887E0,9.979899406E0
1.482200000E1,3.586499929E0,-3.052899837E0,1.044700027E0
1.484200000E1,1.760100007E0,-1.762199998E0,-5.132999897E0
1.486200000E1,-2.142999917E-1,-6.549999714E-1,-3.259999990E0
1.488200000E1,-4.447999895E-1,3.920999765E-1,-2.696899891E0
1.490200000E1,8.399999700E-3,2.657299995E0,-4.572799683E0
1.492200156E1,-7.090000063E-2,4.940700054E0,-5.989999771E0
1.495200000E1,-5.187000036E-1,7.096499920E0,-8.096499443E0
1.497200000E1,-1.142699957E0,6.792799950E0,-9.592000008E0
1.499200000E1,-1.358600020E0,7.187199593E0,-1.004609966E1
1.501200000E1,-1.155200005E0,8.042499542E0,-1.013619995E1
1.503200000E1,-1.405599952E0,8.254599571E0,-7.669699669E0
1.505200156E1,-2.018800020E0,6.680899620E0,-4.433399677E0
1.508200000E1,-8.226999640E-1,1.313399911E0,2.159699917E0
1.510200000E1,3.888999939E0,-7.852299690E0,1.827409935E1
1.512200156E1,1.074940014E1,-1.725179863E1,2.034770012E1
1.515200000E1,6.153899670E0,-2.878099918E0,5.741999745E-1
1.517200000E1,1.980999947E0,2.651999950E0,-2.886399984E0
1.519200156E1,3.392899990E0,-2.601699829E0,-9.166999817E0
1.522200000E1,4.275999963E-1,-3.916999817E0,-7.677499771E0
1.524200000E1,2.585999966E-1,8.761000037E-1,-2.723399878E0
1.526200000E1,-2.918499947E0,4.049299717E0,-8.592700005E0
1.528200000E1,-2.693699837E0,1.170099974E0,-1.340859985E1
1.530200000E1,-1.355899930E0,-3.218400002E0,-9.572400093E0
1.532200000E1,-1.137300014E0,-4.658999920E0,-4.910099983E0
1.534200000E1,-3.642999887E0,-3.388799906E0,2.171499968E0
1.536200000E1,-4.463200092E0,-1.331599951E0,4.439699650E0
1.538200156E1,-2.408299923E0,-3.297999799E-1,1.112999916E0
1.541200000E1,-2.022899866E0,3.119799852E0,7.831999660E-1
1.543200000E1,-1.678699970E0,3.633399963E0,1.166800022E0
1.545200156E1,-6.412000060E-1,2.331799984E0,6.211000085E-1
1.548200000E1,5.633000135E-1,1.707700014E0,6.811000109E-1
1.550200000E1,4.740999937E-1,1.465099931E0,3.108999968E0
1.552200000E1,-5.085999966E-1,2.586999834E-1,4.231100082E0
1.554200000E1,-1.357800007E0,-1.104200006E0,2.572000027E0
1.556200156E1,-2.246399879E0,-2.567800045E0,3.959299803E0
1.559200000E1,-4.230499744E0,-2.845199823E0,7.118899822E0
1.561200000E1,-3.558699846E0,-3.445899963E0,6.042399883E0
1.563200000E1,-3.533900023E0,-4.491499901E0,4.505399704E0
1.565200000E1,-4.266999722E0,-3.981899977E0,4.856699944E0
1.567200000E1,-5.588699818E0,-5.885099888E0,7.484099865E0
1.569200156E1,-6.562599659E0,-6.125899792E0,9.666799545E0
1.572200000E1,-3.693799973E0,-3.963999987E0,3.483899832E0
1.574200000E1,-4.249999821E-1,-6.490699768E0,-2.550400019E0
1.576200000E1,3.139699936E0,-1.142519951E1,-5.070499897E0
1.578200000E1,4.859099865E0,-1.268099976E1,-5.543799877E0
1.580200000E1,3.883799791E0,-7.827799797E0,-4.304699898E0
1.582200000E1,3.680399895E0,-2.554199934E0,6.932499886E0
1.584200156E1,9.164999723E-1,-2.159999870E-2,-3.454000056E-1
1.587200000E1,-4.131999910E-1,1.268100023E0,-5.131799698E0
1.589200000E1,-5.037999749E-1,2.423799992E0,-5.352399826E0
1.591200000E1,-1.443899989E0,4.325999737E0,-5.467899799E0
1.593200000E1,-1.880800009E0,5.884399891E0,-5.484600067E0
1.595200000E1,-1.876099944E0,5.783899784E0,-7.114099979E0
1.597200000E1,-1.805499911E0,5.078199863E0,-9.981900215E0
1.599200000E1,-1.167299986E0,5.488999844E0,-1.100419998E1
1.601200000E1,5.967999697E-1,6.732299805E0,-1.095279980E1
1.603200000E1,1.393399954E0,7.738999844E0,-8.887599945E0
1.605200156E1,5.109999776E-1,7.028100014E0,-5.874300003E0
1.608200000E1,-3.761999905E-1,2.774099827E0,1.562799931E0
1.610200000E1,3.447399855E0,-4.720799923E0,1.757159996E1
1.612200000E1,8.054100037E0,-1.818989944E1,2.555850029E1
1.614200000E1,5.670399666E0,-1.185079956E1,8.666899681E0
1.616200000E1,2.487299919E0,-1.064299941E0,-1.930499911E0
1.618200000E1,2.555199862E0,3.653699875E0,1.090000011E-2
1.620200000E1,9.819999933E-1,-3.716499805E0,-7.731299877E0
1.622200000E1,6.340000033E-1,-5.252500057E0,-1.287459946E1
1.624200000E1,-2.325000048E0,-2.843899965E0,-5.641399860E0
1.626200000E1,-2.149299860E0,4.525599957E0,-4.736099720E0
1.628200000E1,-2.182399988E0,3.379899979E0,-7.907399654E0
1.630200000E1,9.315999746E-1,-2.280299902E0,-9.445400238E0
1.632200000E1,4.524999857E-1,-2.895399809E0,-6.128699780E0
1.634200000E1,-2.138900042E0,-1.023100019E0,-3.496899843E0
1.636200000E1,-2.915699959E0,5.549999699E-2,-1.855399966E0
1.638200000E1,-1.289299965E0,1.577999949E0,1.251500010E0
1.640200000E1,2.325999886E-1,2.330100060E0,4.540699959E0
1.642200000E1,-5.160999894E-1,2.552999973E0,2.164700031E0
1.644200000E1,-1.753199935E0,1.928299904E0,1.707999945E0
1.646200000E1,-1.703599930E0,8.989999443E-2,2.277600050E0
1.648200000E1,-1.528999925E0,-3.747999966E-1,3.319899797E0
1.650200000E1,-1.962099910E0,-3.364999890E-1,3.727799892E0
1.652200000E1,-1.898199916E0,-1.204499960E0,3.067999840E0
1.654200000E1,-1.529799938E0,-1.027500033E0,2.039999962E0
1.656200000E1,-1.926799893E0,-1.569999903E-1,3.665399790E0
1.658200000E1,-2.908299923E0,-1.576999903E0,7.782999992E0
1.660200000E1,-3.716599941E0,-2.850100040E0,7.055999756E0
1.662200156E1,-3.792500019E0,-3.490000010E0,3.515699863E0
1.665200000E1,-3.375200033E0,-3.000599861E0,3.392099857E0
1.667200000E1,-3.545099974E0,-4.619599819E0,9.008399963E0
1.669200000E1,-3.873799801E0,-5.371999741E0,1.263389969E1
1.671200000E1,-2.916199923E0,-3.685999870E0,6.683300018E0
1.673200000E1,-7.221999764E-1,-4.229899883E0,-1.488399982E0
1.675200000E1,5.085999966E-1,-7.692999840E0,-6.038300037E0
1.677200000E1,3.945699930E0,-1.224889946E1,-4.786600113E0
1.679200000E1,5.112599850E0,-1.171369934E1,-5.354000092E0
1.681200000E1,3.896999836E0,-5.350100040E0,6.923699856E0
1.683200000E1,2.379499912E0,-1.423299909E0,5.283499718E0
1.685200156E1,9.005999565E-1,-6.659999490E-2,-2.542500019E0
1.688200000E1,7.459999919E-1,1.763899922E0,-5.498600006E0
1.690200000E1,1.241500020E0,3.021099806E0,-4.516699791E0
1.692200000E1,-4.199000001E-1,3.995399952E0,-6.253200054E0
1.694200000E1,-2.175999880E0,4.857100010E0,-6.057699680E0
1.696200000E1,-1.711599946E0,5.316199780E0,-7.684799671E0
1.698200000E1,-1.111299992E0,6.634199619E0,-9.305899620E0
1.700200000E1,-1.236799955E0,8.631599426E0,-1.100439930E1
1.703200000E1,-4.827999771E-1,9.179200172E0,-8.256299973E0
1.705200000E1,-9.315999746E-1,7.391999722E0,-4.939699650E0
1.707200000E1,-1.358999968E0,4.233699799E0,-8.488000035E-1
1.709200000E1,3.156999946E-1,-1.809299946E0,8.160200119E0
1.711200000E1,6.464799881E0,-1.877680016E1,3.367659760E1
1.713200000E1,5.693399906E0,-1.920039940E1,1.661170006E1
1.715200000E1,-4.262000024E-1,-1.990700006E0,6.868999600E-1
1.717200000E1,4.739999771E-2,4.709799767E0,-2.614500046E0
1.719200000E1,1.694899917E0,3.336799860E0,-5.989199638E0
1.721200000E1,3.671599865E0,-6.091399670E0,-1.128030014E1
1.723200000E1,3.710399866E0,-6.706699848E0,-7.900899887E0
1.725200000E1,2.115999907E-1,-6.578999758E-1,-1.194599986E0
1.727200156E1,-6.943999529E-1,6.230099678E0,-6.787899971E0
1.729200156E1,-1.092899919E0,2.182600021E0,-1.069139957E1
1.732200000E1,-1.409999933E-2,-2.078599930E0,-7.168699741E0
1.734200000E1,-1.437199950E0,-1.276600003E0,-2.733099937E0
1.736200000E1,-2.584300041E0,-3.469999880E-2,-6.547999978E-1
1.738200000E1,-2.218299866E0,2.281800032E0,6.382899761E0
1.740200000E1,1.899999939E-2,1.168099999E0,2.707999945E-1
1.742200000E1,-1.126299977E0,2.219499826E0,1.071599960E0
1.744200000E1,-2.352299929E0,2.614699841E0,2.089999914E-1
1.746200000E1,-8.012999892E-1,9.615999460E-1,3.200999796E-1
1.748200156E1,2.569999918E-2,3.964000046E-1,2.530900002E0
1.751200000E1,-1.000599980E0,5.935999751E-1,3.886099815E0
1.753200000E1,-2.022500038E0,-4.326999784E-1,2.544899940E0
1.755200000E1,-2.391399860E0,-1.234899998E0,1.916599989E0
1.757200000E1,-3.107800007E0,-2.600100040E0,4.895899773E0
1.759200000E1,-4.186699867E0,-3.409299850E0,8.621699333E0
1.761200000E1,-3.649099827E0,-2.965799809E0,6.466199875E0
1.763200000E1,-3.217499971E0,-3.671899796E0,3.369299889E0
1.765200000E1,-3.004099846E0,-4.064000130E0,2.529700041E0
1.767200000E1,-2.857499838E0,-4.983500004E0,7.323999882E0
1.769200156E1,-3.915699959E0,-5.523499966E0,1.186870003E1
1.771200156E1,-3.364499807E0,-4.199800014E0,9.718400002E0
1.774200000E1,3.730999827E-1,-4.986099720E0,-8.883999586E-1
1.776200000E1,1.724200010E0,-7.560599804E0,-7.058699608E0
1.778200156E1,5.178499699E0,-1.083360004E1,-5.886399746E0
1.781200156E1,6.943299770E0,-6.977299690E0,1.306680012E1
1.784200156E1,2.863899946E0,1.030000020E-2,-1.987499952E0
1.786200156E1,8.474999666E-1,-1.356000006E-1,-5.487799644E0
1.788200156E1,-4.657999873E-1,1.017400026E0,-4.001100063E0
1.790200156E1,7.419999689E-2,1.947899938E0,-4.032599926E0
1.792200156E1,-8.744999766E-1,3.091599941E0,-5.251999855E0
1.794200156E1,-1.838699937E0,4.260200024E0,-5.068799973E0
1.796200156E1,-2.235499859E0,4.567800045E0,-6.942100048E0
1.798200313E1,-2.133100033E0,5.661599636E0,-8.755399704E0
1.801200156E1,-1.763899922E0,7.181299686E0,-1.084249973E1
1.803200156E1,-6.112999916E-1,6.855299950E0,-1.026869965E1
1.806200000E1,-7.437999845E-1,6.470799923E0,-5.787799835E0
1.808200000E1,-2.742300034E0,3.764899969E0,2.012999952E-1
1.810200000E1,-5.269999802E-2,-8.326999545E-1,1.005389977E1
1.812200156E1,7.095299721E0,-1.233519936E1,2.340309906E1
1.814200156E1,8.878399849E0,-1.647419930E1,1.427029991E1
1.816200156E1,4.505899906E0,-2.960000038E0,2.203899860E0
1.819200000E1,6.899999976E-1,6.989899635E0,-4.546799660E0
1.821200156E1,2.002899885E0,3.111699820E0,-6.247900009E0
1.824200156E1,3.011199951E0,-3.329399824E0,-1.300169945E1
1.827200000E1,5.018599987E0,-4.889699936E0,5.512999892E-1
1.829200000E1,-2.963999808E-1,2.983799934E0,-1.092259979E1
1.831200156E1,-1.887399912E0,9.666000009E-1,-1.112510014E1
1.834200156E1,-1.917999983E0,-2.050299883E0,-6.931499958E0
1.837200156E1,-3.048699856E0,-1.486199975E0,-2.667099953E0
1.839200156E1,-4.001999855E0,-9.824000001E-1,5.508299828E0
1.842200000E1,-2.367699862E0,4.672999978E-1,3.575299978E0
1.844200000E1,-2.193500042E0,1.537400007E0,2.407799959E0
1.846200000E1,-2.025500059E0,2.375799894E0,3.093999922E-1
1.848200156E1,-1.435899973E0,1.683899999E0,8.524999619E-1
1.851200000E1,-3.125000000E-1,1.254099965E0,9.183999896E-1
1.853200000E1,-2.900999784E-1,1.741400003E0,1.824199915E0
1.855200000E1,-1.124699950E0,3.294999897E-1,4.031899929E0
1.857200000E1,-1.502699971E0,-1.150300026E0,3.958299875E0
1.859200156E1,-1.865199924E0,-1.764299989E0,5.355599880E0
1.862200156E1,-3.428699970E0,-3.012099981E0,6.957499981E0
1.865200000E1,-4.235799789E0,-4.389499664E0,3.382799864E0
1.867200156E1,-4.249399662E0,-4.299399853E0,2.857800007E0
1.869200156E1,-4.312200069E0,-3.045199871E0,7.274099827E0
1.871200156E1,-3.759899855E0,-5.980299950E0,1.129679966E1
1.874200000E1,-2.995199919E0,-3.354499817E0,1.055410004E1
1.876200156E1,-1.140499949E0,-3.095700026E0,1.703899980E0
1.879200000E1,4.197999835E-1,-8.923500061E0,-5.713399887E0
1.881200156E1,3.396299839E0,-1.306389999E1,-6.476299763E0
1.883200156E1,5.464099884E0,-1.311399937E1,-6.173199654E0
1.885200156E1,6.930799961E0,-5.548999786E0,1.163469982E1
1.888200156E1,1.248000026E0,7.888999581E-1,-1.218199968E0
1.890200156E1,-8.159999847E-1,9.181999564E-1,-6.304399967E0
1.892200156E1,-7.293999791E-1,1.727199912E0,-5.013199806E0
1.895200000E1,-1.308899999E0,5.305900097E0,-5.086400032E0
1.897200156E1,-1.908999920E0,6.502899647E0,-6.124300003E0
1.900200000E1,-1.728500009E0,5.744199753E0,-8.825200081E0
1.902200000E1,-8.048999906E-1,6.445299625E0,-9.649199486E0
1.904200000E1,2.335999906E-1,6.400799751E0,-1.093139935E1
1.906200000E1,6.300000101E-2,6.681799889E0,-9.541799545E0
1.908200000E1,-1.451999992E-1,6.292199612E0,-6.899199963E0
1.910200000E1,-1.220700026E0,4.857999802E0,-2.916999817E0
1.912200156E1,-1.995700002E0,2.450700045E0,4.404299736E0
1.915200000E1,8.233300209E0,-1.144829941E1,2.171500015E1
1.917200000E1,7.704699993E0,-1.850949860E1,1.441479969E1
1.919200000E1,2.915299892E0,-5.195199966E0,5.795700073E0
1.921200000E1,-2.190000005E-2,4.494100094E0,-3.055500031E0
1.923200000E1,1.631199956E0,6.381599903E0,-1.029999971E0
1.925200156E1,-1.046899915E0,1.241999939E-1,-5.608399868E0
1.927200156E1,-1.376999974E0,-6.033699989E0,-1.373239994E1
1.930200000E1,3.688199997E0,-3.958999872E0,-3.938299894E0
1.932200000E1,6.766900063E0,3.386600018E0,-2.486999989E0
1.934200000E1,3.604300022E0,2.998100042E0,-6.112899780E0
1.936200000E1,-6.024000049E-1,-2.361099958E0,-1.402439976E1
1.938200000E1,-3.432600021E0,-2.722899914E0,-8.347899437E0
1.940200000E1,-3.884999990E0,-2.378700018E0,-4.040699959E0
1.942200000E1,-4.266799927E0,-1.318199992E0,-1.648499966E0
1.944200000E1,-4.012399673E0,-1.286999941E0,5.385799885E0
1.946200000E1,-2.959199905E0,5.838999748E-1,4.921400070E0
1.948200000E1,-2.709100008E0,1.966399908E0,2.829900026E0
1.950200000E1,-2.878199816E0,3.040599823E0,7.803999782E-1
1.952200000E1,-1.134699941E0,1.324100018E0,1.107100010E0
1.954200000E1,1.873999983E-1,3.131999969E-1,6.459999681E-1
1.956200000E1,-2.133999914E-1,7.080999613E-1,8.865000010E-1
1.958200000E1,-1.298900008E0,7.368999720E-1,4.117300034E0
1.960200000E1,-1.858599901E0,-4.521999955E-1,4.166800022E0
1.962200000E1,-2.438400030E0,-1.065999985E0,4.972899914E0
1.964200000E1,-3.725099802E0,-2.876499891E0,7.223599911E0
1.966200000E1,-4.329499722E0,-3.830099821E0,6.708799839E0
1.968200000E1,-4.269000053E0,-4.159100056E0,4.613699913E0
1.970200156E1,-4.513899803E0,-4.326399803E0,2.909799814E0
1.973200000E1,-4.414000034E0,-3.160300016E0,9.159500122E0
1.975200000E1,-4.420700073E0,-5.451900005E0,1.072849941E1
1.977200156E1,-4.176300049E0,-3.421700001E0,9.386400223E0
1.980200000E1,-1.059899926E0,-5.633699894E0,-3.020099878E0
1.982200000E1,5.737999678E-1,-8.113999367E0,-6.149299622E0
1.984200156E1,4.292200089E0,-1.222900009E1,-5.514400005E0
1.987200000E1,5.728399754E0,-8.287499428E0,9.997499466E0
1.989200000E1,3.465499878E0,-4.089799881E0,1.348699927E0
1.991200000E1,6.428999901E-1,-1.042299986E0,-4.770199776E0
1.993200000E1,-1.048200011E0,-2.021999955E-1,-5.103399754E0
1.995200000E1,-6.054999828E-1,7.040999532E-1,-2.972199917E0
1.997200000E1,-6.498000026E-1,2.837599993E0,-3.213699818E0
1.999200000E1,-1.389699936E0,4.903199673E0,-5.029399872E0
2.001200000E1,-1.844499946E0,5.814399719E0,-7.032499790E0
2.003200000E1,-1.247200012E0,5.790099621E0,-1.035939980E1
2.005200156E1,-4.636999965E-1,6.365299702E0,-1.125259972E1
2.008200000E1,1.309399962E0,7.799999714E0,-1.029469967E1
2.010200000E1,9.239999652E-1,8.690799713E0,-6.971799850E0
2.012200000E1,-6.647999883E-1,6.695299625E0,-3.063899994E0
2.014200000E1,-1.513999999E-1,3.679499865E0,2.227799892E0
2.016200000E1,4.449500084E0,-2.397300005E0,1.050759983E1
2.018200000E1,8.869999886E0,-1.320259953E1,1.735639954E1
2.020200000E1,4.521500111E0,-1.126699924E1,6.850699902E0
2.022200000E1,1.738999933E-1,-2.607800007E0,2.627199888E0
2.024200000E1,-4.120000005E-1,3.096699953E0,1.143800020E0
2.026200000E1,1.692999959E0,1.343899965E0,-7.154999971E-1
2.028200000E1,1.850299954E0,-4.614299774E0,-9.759200096E0
2.030200000E1,2.910499811E0,-6.148099899E0,-1.007199955E1
2.032200000E1,1.740499973E0,-3.909199953E0,-5.961599827E0
2.034200156E1,3.115799904E0,4.404200077E0,-9.330999851E-1
2.036200156E1,3.872999847E-1,2.135499954E0,-7.661199570E0
2.039200000E1,-1.714299917E0,-1.894299984E0,-9.548799515E0
2.041200000E1,-1.863099933E0,-2.013799906E0,-3.921000004E0
2.043200000E1,-2.455699921E0,-1.203699946E0,-8.284999728E-1
2.045200000E1,-3.292799950E0,-4.779999703E-2,6.140500069E0
2.047200156E1,-1.977299929E0,9.070000052E-1,3.247200012E0
2.049200156E1,-1.751399994E0,1.602100015E0,1.832399964E0
2.051200156E1,-1.840999961E0,2.760399818E0,8.944999576E-1
2.053200156E1,-7.481999993E-1,1.790699959E0,7.824999690E-1
2.056200000E1,1.195999980E-1,1.207099915E0,-4.617999792E-1
2.058200156E1,-7.310000062E-2,1.484899998E0,8.240000159E-2
2.061200000E1,-6.362999678E-1,-3.601000011E-1,5.154699802E0
2.063200156E1,-1.898599982E0,-1.407599926E0,6.129499912E0
2.065200156E1,-4.363100052E0,-2.681299925E0,5.796299934E0
2.068200000E1,-5.156099796E0,-3.964999914E0,4.881499767E0
2.070200156E1,-5.019299984E0,-4.241300106E0,5.661200047E0
2.072200156E1,-5.214499950E0,-3.374399900E0,5.576900005E0
2.074200156E1,-5.385499954E0,-2.565199852E0,8.144399643E0
2.077200156E1,-4.637300014E0,-3.930099964E0,1.065170002E1
2.079200156E1,-2.647099972E0,-3.149499893E0,7.993599892E0
2.081200156E1,-1.163999915E0,-5.828499794E0,-1.887699962E0
2.083200156E1,9.949999452E-1,-1.007950020E1,-7.220799923E0
2.085200156E1,3.502399921E0,-1.459119987E1,-6.146999836E0
2.087200156E1,5.956399918E0,-1.362449932E1,-3.238600016E0
2.089200156E1,6.484200001E0,-7.266599655E0,1.360729980E1
2.092200156E1,-8.720000088E-2,2.019999921E-2,-5.248899937E0
2.095200156E1,-6.606000066E-1,1.435799956E0,-4.235899925E0
2.097200156E1,5.479999781E-1,2.784999847E0,-3.854699850E0
2.099200156E1,-2.876999974E-1,4.503699780E0,-6.404599667E0
2.102200000E1,-1.767799973E0,6.657499790E0,-7.958099842E0
2.104200000E1,-1.483500004E0,6.179499626E0,-9.054699898E0
2.106200156E1,-1.415699959E0,6.301799774E0,-1.070909977E1
2.108200156E1,-5.582000017E-1,7.356599808E0,-1.139199924E1
2.111200000E1,1.546999961E-1,7.611899853E0,-8.544899940E0
2.113200156E1,-7.606999874E-1,6.674999714E0,-3.510999918E0
2.115200156E1,-2.686199903E0,3.031599998E0,3.268699884E0
2.117200156E1,2.994099855E0,-3.753099918E0,1.197229958E1
2.119200156E1,8.076099396E0,-1.590249920E1,2.043309975E1
2.121200156E1,3.696299791E0,-1.092939949E1,1.056190014E1
2.123200156E1,7.829999924E-2,2.324999869E-1,1.190299988E0
2.125200156E1,3.889999911E-2,5.010799885E0,-8.596999645E-1
2.127200156E1,2.160199881E0,6.796000004E-1,-3.122999907E0
2.129200156E1,2.104699850E0,-6.993000031E0,-1.296539974E1
2.131200156E1,3.252499819E0,-6.532700062E0,-7.102900028E0
2.133200156E1,5.508199692E0,-3.349299908E0,1.394599915E0
2.135200156E1,3.845299959E0,4.338599682E0,-8.294400215E0
2.138200000E1,-3.942999840E-1,-1.112900019E0,-1.413000011E1
2.140200000E1,-9.947999716E-1,-2.951999903E0,-9.152999878E0
2.142200156E1,-2.462899923E0,-2.287199974E0,-4.981800079E0
2.145200000E1,-3.842799902E0,-7.392999530E-1,-2.942000031E-1
2.147200000E1,-3.344099998E0,1.022099972E0,8.161600113E0
2.149200000E1,-2.338000059E0,1.582999945E0,5.363100052E0
2.151200000E1,-1.750999928E0,1.893999934E0,1.672299981E0
2.153200000E1,-1.496199965E0,1.648800015E0,5.137999654E-1
2.155200156E1,-6.816999912E-1,1.130399942E0,8.416000009E-1
2.157200156E1,-9.174999595E-1,1.452799916E0,2.251999855E0
2.159200156E1,-2.133499861E0,1.021600008E0,1.386799932E0
2.161200156E1,-2.390899897E0,-3.246999979E-1,1.250699997E0
2.163200156E1,-1.917499900E0,-7.260999680E-1,1.289699912E0
2.165200156E1,-2.222599983E0,-7.744999528E-1,3.464499950E0
2.167200156E1,-2.863799810E0,-2.019299984E0,8.788800240E0
2.169200156E1,-4.044300079E0,-3.690500021E0,6.753699780E0
2.171200156E1,-4.644899845E0,-4.849899769E0,2.983299971E0
2.173200156E1,-4.525700092E0,-4.402199745E0,3.012499809E0
2.175200156E1,-4.321199894E0,-3.996699810E0,6.553999901E0
2.178200000E1,-4.566299915E0,-6.686499596E0,8.963899612E0
2.180200000E1,-5.591899872E0,-4.543900013E0,8.425499916E0
2.182200000E1,-4.111299992E0,-4.084700108E0,3.633499861E0
2.184200000E1,-1.346400023E0,-6.789899826E0,-1.611099958E0
2.186200000E1,2.138900042E0,-1.067290020E1,-5.024899960E0
2.188200000E1,5.391399860E0,-1.382349968E1,-5.965600014E0
2.190200000E1,8.963500023E0,-9.532499313E0,8.517700195E0
2.192200000E1,6.758399963E0,-2.899600029E0,4.720099926E0
2.194200000E1,2.299099922E0,1.887699962E0,-5.883199692E0
2.196200000E1,1.209999993E-1,2.274799824E0,-7.083499908E0
2.198200000E1,-3.332999945E-1,1.208799958E0,-4.771800041E0
2.200200000E1,-9.023000002E-1,2.234999895E0,-4.341000080E0
2.202200000E1,-8.897999525E-1,3.335500002E0,-5.740299702E0
2.204200000E1,-7.997999787E-1,5.236799717E0,-6.046899796E0
2.206200000E1,-1.477800012E0,6.252399921E0,-8.037599564E0
2.208200000E1,-1.833999991E0,7.044499874E0,-9.555399895E0
2.210200156E1,-2.172299862E0,7.918900013E0,-1.097609997E1
2.213200000E1,-2.035399914E0,8.404299736E0,-8.368000031E0
2.215200000E1,-2.891599894E0,7.241600037E0,-4.531099796E0
2.217200000E1,-3.131199837E0,4.636300087E0,1.722700000E0
2.219200000E1,1.376999974E0,-1.889999956E-2,1.050759983E1
2.221200000E1,7.029799938E0,-1.427950001E1,2.626980019E1
2.223200000E1,5.008999825E0,-1.994169998E1,1.277019978E1
2.225200000E1,1.224399924E0,-4.316299915E0,1.980899930E0
2.227200000E1,-1.758999974E-1,5.808099747E0,4.115999937E-1
2.229200000E1,4.224800110E0,4.909499645E0,-7.322799683E0
2.231200000E1,3.787400007E0,-2.858500004E0,-1.895699883E1
2.233200156E1,4.909599781E0,-6.831799984E0,-8.041600227E0
2.236200000E1,5.075200081E0,-3.168999851E-1,-1.018579960E1
2.238200000E1,-1.176100016E0,2.571699858E0,-1.077309990E1
2.240200000E1,-3.449199915E0,-2.354999930E-1,-1.327209949E1
2.242200000E1,-2.523799896E0,-2.754299879E0,-8.508299828E0
2.244200000E1,-2.135400057E0,-3.121299982E0,-4.476299763E0
2.246200000E1,-4.018399715E0,-1.119799972E0,1.080600023E0
2.248200000E1,-3.086899996E0,-2.804999948E-1,6.867099762E0
2.250200000E1,-1.938699961E0,8.889999986E-1,3.447599888E0
2.252200000E1,-1.001199961E0,2.155200005E0,1.305799961E0
2.254200000E1,-1.009999990E0,3.436199903E0,2.020799875E0
2.256200000E1,6.749999523E-2,2.050099850E0,1.188300014E0
2.258200000E1,6.712999940E-1,1.118000031E0,4.381999969E-1
2.260200000E1,-7.324000001E-1,6.340000033E-1,-1.991999894E-1
2.262200000E1,-2.442999840E0,1.543999910E-1,2.754999876E0
2.264200000E1,-3.259899855E0,-6.293999553E-1,4.508999825E0
2.266200000E1,-3.374799967E0,-1.760999918E0,4.687500000E0
2.268200000E1,-3.730199814E0,-2.606299877E0,5.366699696E0
2.270200156E1,-4.263099670E0,-2.281999826E0,8.057199478E0
2.273200000E1,-2.700000048E0,-3.341699839E0,4.990499973E0
2.275200000E1,-3.339200020E0,-5.005899906E0,2.071399927E0
2.277200000E1,-3.993499994E0,-4.580899715E0,3.796099901E0
2.279200000E1,-5.440599918E0,-5.721399784E0,8.910299301E0
2.281200000E1,-6.272099972E0,-4.870399952E0,1.078119946E1
2.283200000E1,-4.269199848E0,-3.547699928E0,7.256999969E0
2.285200469E1,-9.309999943E-1,-5.947399616E0,-8.309999853E-2
2.288200000E1,3.425299883E0,-1.068599987E1,-5.782199860E0
2.290200000E1,5.470499992E0,-1.182209969E1,-5.654900074E0
2.292200000E1,8.837399483E0,-8.670599937E0,1.014750004E1
2.294200000E1,6.853499889E0,-3.803099871E0,4.566100121E0
2.296200000E1,2.501799822E0,9.810999632E-1,-5.019499779E0
2.298200156E1,3.932999969E-1,1.947899938E0,-4.970399857E0
2.301200000E1,3.862999976E-1,2.847199917E0,-4.179500103E0
2.303200000E1,3.247999847E-1,3.761499882E0,-5.434599876E0
2.305200000E1,-3.539999947E-2,5.202600002E0,-5.351399899E0
2.307200000E1,-1.510599971E0,5.559000015E0,-6.881199837E0
2.309200000E1,-2.001100063E0,6.084799767E0,-8.785799980E0
2.311200000E1,-1.552299976E0,6.624099731E0,-9.910099983E0
2.313200000E1,-1.100499988E0,6.983999729E0,-1.049720001E1
2.315200000E1,-1.004599929E0,7.344099998E0,-9.118700027E0
2.317200000E1,-1.444700003E0,7.433599949E0,-5.863199711E0
2.319200000E1,-1.450699925E0,4.792999744E0,-7.623999715E-1
2.321200000E1,3.490999937E-1,7.245000005E-1,6.308300018E0
2.323200000E1,5.894299984E0,-1.120829964E1,2.616889954E1
2.325200000E1,8.784599304E0,-2.107019997E1,1.717659950E1
2.327200000E1,3.504899979E0,-5.376100063E0,3.382499933E0
2.329200000E1,2.080199957E0,2.910599947E0,-3.375200033E0
2.331200000E1,4.116600037E0,2.692800045E0,-7.805299759E0
2.333200000E1,3.185599804E0,-3.976499796E0,-1.379990005E1
2.335200000E1,2.573499918E0,-4.108299732E0,-6.142399788E0
2.337200000E1,2.789199829E0,1.399500012E0,-1.204399943E0
2.339200000E1,1.766999960E-1,3.171000004E0,-9.660599709E0
2.341200000E1,-1.314899921E0,-9.480999708E-1,-1.231680012E1
2.343200000E1,-1.327099919E0,-3.355499983E0,-9.395299911E0
2.345200000E1,-1.888499975E0,-3.032099962E0,-4.717499733E0
2.347200000E1,-2.922399998E0,-1.597999930E0,-9.291999936E-1
2.349200000E1,-4.219699860E0,-4.321999848E-1,8.030200005E0
2.351200156E1,-2.620699883E0,2.193000019E-1,3.186699867E0
2.354200000E1,-2.484099865E0,1.993399978E0,2.179499865E0
2.356200000E1,-2.398200035E0,2.713199854E0,1.044299960E0
2.358200000E1,-1.478099942E0,1.953199983E0,1.304299951E0
2.360200000E1,-7.828999758E-1,1.258000016E0,9.442999959E-1
2.362200000E1,-5.090000033E-1,9.014999866E-1,2.015499830E0
2.364200156E1,-9.106000066E-1,5.279999971E-1,4.159500122E0
2.367200000E1,-1.121299982E0,-1.398199916E0,3.975099802E0
2.369200000E1,-2.121899843E0,-1.327999949E0,4.978899956E0
2.371200000E1,-3.058799982E0,-2.607199907E0,7.546700001E0
2.373200000E1,-3.480299950E0,-3.871199846E0,5.975299835E0
2.375200000E1,-3.847899914E0,-4.916800022E0,2.343899965E0
2.377200000E1,-3.517699957E0,-4.000699997E0,2.766099930E0
2.379200000E1,-3.581699848E0,-4.395999908E0,8.834699631E0
2.381200000E1,-4.299600124E0,-5.379899979E0,1.137679958E1
2.383200000E1,-4.562799931E0,-3.736299992E0,9.532699585E0
2.385200156E1,-2.915400028E0,-3.259899855E0,3.340699911E0
2.388200000E1,2.465000004E-1,-7.087699890E0,-5.655699730E0
2.390200000E1,3.352200031E0,-1.043589973E1,-4.519700050E0
2.392200000E1,5.571599960E0,-1.054710007E1,-5.782999992E-1
2.394200000E1,5.174499989E0,-5.272500038E0,8.913199425E0
2.396200000E1,3.380899906E0,-1.926699996E0,-1.819599986E0
2.398200000E1,5.026999712E-1,3.429999948E-2,-4.710700035E0
2.400200000E1,-5.529999733E-1,4.062999785E-1,-3.581799984E0
2.402200000E1,-1.888999939E-1,1.151000023E0,-3.040400028E0
2.404200000E1,-1.153999940E-1,2.673300028E0,-3.648599863E0
2.406200000E1,-7.999999523E-1,4.100199699E0,-5.171099663E0
2.408200000E1,-1.227100015E0,5.292900085E0,-6.592499733E0
2.410200000E1,-9.575999975E-1,6.096299648E0,-9.176400185E0
2.412200000E1,-7.290999889E-1,6.912899971E0,-1.005369949E1
2.414200000E1,-3.164999783E-1,7.860999584E0,-1.042490005E1
2.416200000E1,1.480000000E-2,8.218599319E0,-8.614399910E0
2.418200000E1,-1.192999959E0,7.502699852E0,-5.150300026E0
2.420200000E1,-1.350099921E0,4.221300125E0,-4.494999945E-1
2.422200000E1,1.558200002E0,3.929999769E-1,6.087199688E0
2.424200000E1,8.065899849E0,-9.786199570E0,2.384689903E1
2.426200000E1,8.819000244E0,-1.789019966E1,1.367889977E1
2.428200000E1,7.414000034E-1,-4.558499813E0,4.852699757E0
2.430200000E1,-4.838999808E-1,3.113899946E0,-6.539999843E-1
2.432200000E1,1.521199942E0,2.197299957E0,6.199999712E-3
2.434200156E1,2.222599983E0,-5.604399681E0,-1.343589973E1
2.437200000E1,2.050199986E0,-5.932899952E0,-8.071800232E0
2.439200000E1,2.329499960E0,2.393399954E0,-2.757099867E0
2.441200000E1,2.029099941E0,4.664899826E0,-5.898799896E0
2.443200000E1,4.711000025E-1,-1.403399944E0,-1.329539967E1
2.445200000E1,-9.168999791E-1,-2.472399950E0,-8.918600082E0
2.447200000E1,-1.737499952E0,-2.313999891E0,-3.244799852E0
2.449200000E1,-3.035499811E0,-1.309299946E0,-4.478999972E-1
2.451200000E1,-3.681499958E0,-5.083000064E-1,5.423699856E0
2.453200000E1,-2.883199930E0,4.127999842E-1,3.049099922E0
2.455200000E1,-2.425600052E0,1.366400003E0,1.452399969E0
2.457200000E1,-3.076399803E0,2.983999968E0,1.365700006E0
2.459200000E1,-1.678299904E0,1.620800018E0,2.195600033E0
2.461200000E1,-1.676999927E-1,1.068199992E0,2.521800041E0
2.463200000E1,-5.870999694E-1,1.399999976E0,2.677999973E0
2.465200000E1,-1.360000014E0,3.367999792E-1,3.641899824E0
2.467200000E1,-1.410200000E0,-8.252999783E-1,3.179499865E0
2.469200000E1,-1.055400014E0,-1.148499966E0,3.646399975E0
2.471200000E1,-2.497999907E0,-2.076499939E0,7.159299850E0
2.473200000E1,-4.255300045E0,-3.243099928E0,7.863599777E0
2.475200000E1,-4.728499889E0,-4.615699768E0,5.294300079E0
2.477200000E1,-4.373699665E0,-4.679999828E0,3.292599916E0
2.479200000E1,-3.874499798E0,-2.688699961E0,4.585999966E0
2.481200000E1,-2.440099955E0,-3.588599920E0,1.089099979E1
2.483200000E1,-2.480599880E0,-4.519099712E0,1.149349976E1
2.485200156E1,-3.220499992E0,-2.775599957E0,9.156099319E0
2.488200000E1,-2.951099873E0,-5.580499649E0,-4.833099842E0
2.490200000E1,3.190000057E-1,-1.013809967E1,-5.528399944E0
2.492200156E1,3.510099888E0,-1.288369942E1,-6.252099991E0
2.495200000E1,4.830499649E0,-8.153399467E0,9.539799690E0
2.497200000E1,3.227399826E0,-2.718999863E0,4.198499680E0
2.499200000E1,1.242999911E0,-1.060500026E0,-2.564399958E0
2.501200000E1,1.907999963E-1,-2.645999789E-1,-4.571499825E0
2.503200000E1,1.132399917E0,1.457799911E0,-4.457900047E0
2.505200000E1,1.039399981E0,4.153399944E0,-6.082900047E0
2.507200000E1,-1.719999872E-2,6.025699615E0,-6.470200062E0
2.509200000E1,-1.092800021E0,6.606199741E0,-6.982699871E0
2.511200000E1,-6.207999587E-1,7.108799934E0,-8.742499352E0
2.513200000E1,-2.866999805E-1,8.101699829E0,-9.969599724E0
2.515200000E1,1.450999975E-1,8.491499901E0,-1.047299957E1
2.517200000E1,-1.450999975E-1,8.648200035E0,-9.104399681E0
2.519200000E1,-1.390499949E0,7.283499718E0,-5.619999886E0
2.521200000E1,-2.106099844E0,4.149399757E0,2.899999917E-2
2.523200000E1,2.578099966E0,-3.224200010E0,1.068270016E1
2.525200000E1,7.695199966E0,-2.073060036E1,3.347340012E1
2.527200000E1,3.773399830E0,-1.469089985E1,1.118900013E1
2.529200000E1,-1.400699973E0,-1.494999975E-1,3.577999771E-1
2.531200000E1,9.185000062E-1,4.405900002E0,-7.899999619E-1
2.533200000E1,2.529999912E-1,-1.330099940E0,-1.043489933E1
2.535200000E1,1.940499902E0,-5.065399647E0,-1.618499947E1
2.538200000E1,4.646699905E0,5.223000050E-1,4.515999854E-1
2.540200000E1,4.343400002E0,6.193299770E0,-8.178899765E0
2.542200000E1,1.620299935E0,2.280400038E0,-1.049489975E1
2.544200000E1,-5.791999698E-1,-3.017799854E0,-1.353949928E1
2.546200000E1,-1.918699980E0,-5.350399971E0,-7.327399731E0
2.548200156E1,-2.675199986E0,-4.286299706E0,-2.777400017E0
2.551200000E1,-3.715499878E0,-3.019999862E-1,5.050699711E0
2.553200000E1,-3.031999826E0,1.348500013E0,3.959999800E0
2.555200000E1,-2.571499825E0,2.030799866E0,3.268599987E0
2.557200000E1,-2.561199903E0,3.396299839E0,1.031899929E0
2.559200000E1,-1.343500018E0,2.129299879E0,-4.149999842E-2
2.561200000E1,-5.230000019E-1,1.531999946E0,1.814000010E-1
2.563200000E1,9.319999814E-2,1.636799932E0,1.639099956E0
2.565200000E1,7.569999695E-1,1.140699983E0,5.032799721E0
2.567200000E1,-9.806999564E-1,-1.430999994E0,5.908199787E0
2.569200000E1,-2.710099936E0,-2.425699949E0,3.527400017E0
2.571200000E1,-4.430999756E0,-2.131999969E0,6.082299709E0
2.573200000E1,-5.014599800E0,-3.347999811E0,8.114099503E0
2.575200000E1,-3.885799885E0,-4.734899998E0,6.719599724E0
2.577200000E1,-3.575299978E0,-4.627999783E0,4.130899906E0
2.579200000E1,-3.253399849E0,-3.792999983E0,5.211499691E0
2.581200000E1,-3.154099941E0,-5.352299690E0,9.857199669E0
2.583200000E1,-3.838299990E0,-4.290299892E0,1.180139923E1
2.585200000E1,-2.507799864E0,-3.541599989E0,8.443300247E0
2.587200000E1,-1.043599963E0,-5.041999817E0,-1.521899939E0
2.589200000E1,5.001999736E-1,-9.637299538E0,-6.634999752E0
2.591200000E1,4.285099983E0,-1.357599926E1,-5.788799763E0
2.593200000E1,4.727999687E0,-1.170589924E1,-6.086499691E0
2.595200000E1,4.627299786E0,-5.322899818E0,1.202799988E1
2.597200000E1,2.580699921E0,-7.527999878E-1,1.612800002E0
2.599200156E1,1.779999956E-2,6.848999858E-1,-5.374000072E0
2.602200000E1,-7.199999876E-3,2.244099855E0,-4.340699673E0
2.604200000E1,1.391000003E-1,3.494099855E0,-5.147699833E0
2.606200000E1,-4.723999798E-1,5.942299843E0,-5.062500000E0
2.608200000E1,-7.059999704E-1,6.101599693E0,-7.090499878E0
2.610200000E1,-4.025000036E-1,6.102099895E0,-9.125100136E0
2.612200000E1,-2.918999791E-1,6.677799702E0,-8.690400124E0
2.614200000E1,-5.299999937E-2,6.432899952E0,-9.872699738E0
2.616200000E1,-2.556000054E-1,7.254899979E0,-9.248899460E0
2.618200000E1,5.839999765E-2,7.422499657E0,-6.823199749E0
2.620200000E1,-3.929999769E-1,5.352399826E0,-3.086299896E0
2.622200000E1,-3.339999914E-2,2.067299843E0,3.303599834E0
2.624200000E1,5.721600056E0,-6.986999989E0,2.188159943E1
2.626200000E1,7.841599941E0,-2.041759872E1,2.119299889E1
2.628200000E1,2.520599842E0,-8.152400017E0,8.050000191E0
2.630200000E1,-9.034999609E-1,3.730899811E0,-2.213299990E0
2.632200000E1,1.305999994E0,5.827499866E0,-2.420699835E0
2.634200000E1,4.419999942E-2,-1.065699935E0,-1.501299953E1
2.636200000E1,2.181099892E0,-3.729699850E0,-1.544769955E1
2.638200000E1,4.181699753E0,-9.395400047E0,3.673499823E0
2.640200000E1,5.283400059E0,1.369400024E0,-4.253699780E0
2.642200000E1,1.681599975E0,3.193699837E0,-8.786999702E0
2.644200000E1,-5.012999773E-1,-8.403999805E-1,-1.297399998E1
2.646200000E1,-1.765399933E0,-1.886799932E0,-7.620100021E0
2.648200000E1,-2.533399820E0,-2.004799843E0,-3.285799980E0
2.650200000E1,-3.676100016E0,-1.549600005E0,-1.129599929E0
2.652200000E1,-4.404900074E0,3.255999982E-1,6.717799664E0
2.654200000E1,-2.504099846E0,6.688999534E-1,3.974099874E0
2.656200000E1,-2.332299948E0,1.823599935E0,2.580999851E0
2.658200000E1,-1.879599929E0,2.921399832E0,6.434000134E-1
2.660200000E1,-1.006999984E-1,2.023200035E0,2.777000070E-1
2.662200000E1,1.204699993E0,8.172999620E-1,2.322999984E-1
2.664200000E1,8.815999627E-1,1.051499963E0,1.982599974E0
2.666200000E1,-6.595000029E-1,9.989999533E-1,4.964900017E0
2.668200000E1,-2.014499903E0,-1.175799966E0,4.611700058E0
2.670200000E1,-3.148900032E0,-2.665899992E0,4.121399879E0
2.672200000E1,-5.009900093E0,-2.967599869E0,6.576699734E0
2.674200000E1,-5.369499683E0,-3.390100002E0,7.677499771E0
2.676200000E1,-3.648099899E0,-3.657899857E0,6.831899643E0
2.678200000E1,-3.083699942E0,-3.565699816E0,5.278899670E0
2.680200000E1,-3.092599869E0,-2.992399931E0,6.675199986E0
2.682200000E1,-3.933799982E0,-5.587299824E0,8.782099724E0
2.684200156E1,-5.398499966E0,-4.966899872E0,9.857299805E0
2.687200000E1,-1.777399898E0,-4.661999702E0,2.054299831E0
2.689200000E1,6.366999745E-1,-7.722599983E0,-5.462999821E0
2.691200000E1,4.055399895E0,-1.184949970E1,-5.359999657E0
2.693200000E1,6.013000011E0,-1.107100010E1,-2.911599874E0
2.695200000E1,7.248699665E0,-6.251299858E0,1.131459999E1
2.697200000E1,5.116600037E0,-3.649199963E0,-8.565999866E-1
2.699200000E1,1.189399958E0,-2.209999971E-2,-5.511300087E0
2.701200000E1,5.123000145E-1,1.109999977E-2,-2.975800037E0
2.703200000E1,1.064299941E0,1.564099908E0,-2.486599922E0
2.705200000E1,1.315799952E0,3.548599958E0,-3.615899801E0
2.707200000E1,3.747999966E-1,5.543600082E0,-5.103499889E0
2.709200000E1,-7.344999909E-1,6.605999947E0,-6.305500031E0
2.711200156E1,-1.807199955E0,7.481099606E0,-8.750599861E0
2.713200156E1,-2.109799862E0,7.689699650E0,-9.278499603E0
2.716200000E1,-1.641699910E0,7.078899860E0,-9.538000107E0
2.718200000E1,-1.080600023E0,7.382499695E0,-8.176099777E0
2.720200000E1,-6.850999594E-1,6.828999996E0,-3.846299887E0
2.722200000E1,4.694999754E-1,3.381199837E0,1.082800031E0
2.724200000E1,1.773899913E0,-3.694999933E0,1.569849968E1
2.726200000E1,8.416899681E0,-2.038570023E1,2.730229950E1
2.728200000E1,4.222599983E0,-1.146799946E1,7.518499851E0
2.730200000E1,-3.734999895E-1,2.830499887E0,9.115999937E-1
2.732200000E1,-1.028599977E0,7.538899899E0,-2.432600021E0
2.734200156E1,1.945400000E0,1.683599949E0,-1.039159966E1
2.737200000E1,2.415799856E0,-4.592599869E0,-1.070520020E1
2.739200000E1,5.777100086E0,-8.540900230E0,7.364299774E0
2.741200156E1,4.362499714E0,3.610899925E0,-1.007969952E1
2.744200000E1,4.902999997E-1,1.143499970E0,-9.748600006E0
2.746200000E1,-7.601000071E-1,-1.660200000E0,-9.676899910E0
2.748200156E1,-2.156100035E0,-3.047199965E0,-6.216899872E0
2.751200000E1,-3.529299974E0,-2.214900017E0,-1.496999979E0
2.753200000E1,-3.220299959E0,-7.277999520E-1,1.018100023E0
2.755200000E1,-3.303499937E0,2.028599977E0,7.787299633E0
2.757200000E1,-2.281899929E0,1.885999918E0,4.956500053E0
2.759200000E1,-1.584199905E0,1.873600006E0,1.185099959E0
2.761200156E1,-9.944999814E-1,1.022699952E0,4.650999904E-1
2.763200156E1,-9.932999611E-1,4.520999789E-1,1.625699997E0
2.765200156E1,-8.271999955E-1,6.854000092E-1,2.830299854E0
2.768200000E1,-1.879199982E0,-7.218999863E-1,4.798399925E0
2.770200000E1,-2.897300005E0,-2.052500010E0,4.666899681E0
2.772200000E1,-3.889699936E0,-2.232399940E0,6.355599880E0
2.774200000E1,-3.864899874E0,-2.082799911E0,7.730700016E0
2.776200000E1,-2.126199961E0,-3.222699881E0,6.518799782E0
2.778200000E1,-2.457900047E0,-4.026899815E0,4.256999969E0
2.780200000E1,-3.311100006E0,-3.501899958E0,4.222099781E0
2.782200000E1,-4.484499931E0,-4.909100056E0,7.368199825E0
2.784200156E1,-5.562900066E0,-5.475999832E0,9.599899292E0
2.787200000E1,-3.138599873E0,-4.131700039E0,6.264899731E0
2.789200000E1,-1.066399932E0,-7.180999756E0,-2.507200003E0
2.791200156E1,2.380699873E0,-1.054619980E1,-4.619400024E0
2.794200000E1,5.234999657E0,-1.056899929E1,-5.657099724E0
2.796200000E1,8.107899666E0,-6.075200081E0,1.126229954E1
2.798200000E1,4.926300049E0,-1.579199910E0,-6.008999944E-1
2.800200000E1,2.020599842E0,1.174799919E0,-4.432699680E0
2.802200000E1,7.310000062E-1,1.545300007E0,-3.958499908E0
2.804200000E1,-2.257999927E-1,2.488999844E0,-4.238199711E0
2.806200000E1,-1.136299968E0,3.523399830E0,-5.177099705E0
2.808200000E1,-7.930999994E-1,4.843699932E0,-4.569699764E0
2.810200000E1,-1.448099971E0,5.246299744E0,-6.768599987E0
2.812200000E1,-2.046000004E0,6.372099876E0,-8.707599640E0
2.814200000E1,-1.829299927E0,7.875799656E0,-9.308400154E0
2.816200000E1,-1.215299964E0,8.982099533E0,-9.933400154E0
2.818200000E1,-1.526700020E0,8.958299637E0,-7.276399612E0
2.820200000E1,-1.957399964E0,6.771199703E0,-3.621999979E0
2.822200000E1,-9.381999969E-1,2.563400030E0,1.763499975E0
2.824200000E1,3.393199921E0,-4.887700081E0,1.789550018E1
2.826200000E1,9.795100212E0,-1.998659897E1,2.491829872E1
2.828200000E1,4.999499798E0,-1.012539959E1,8.559100151E0
2.830200000E1,-5.527999997E-1,2.709300041E0,-5.929999948E-1
2.832200000E1,2.047999948E-1,5.652199745E0,-1.742100000E0
2.834200000E1,2.864099979E0,-6.869999766E-1,-1.637249947E1
2.836200000E1,3.599200010E0,-2.965699911E0,-1.511349964E1
2.838200000E1,7.081299782E0,-9.251299858E0,1.085799980E1
2.840200000E1,2.817800045E0,1.846499920E0,-1.248299980E1
2.842200156E1,-1.079599977E0,1.749899983E0,-1.042109966E1
2.845200000E1,-1.245100021E0,-1.276299953E0,-8.732099533E0
2.847200000E1,-1.751399994E0,-1.758199930E0,-4.903199673E0
2.849200000E1,-2.804299831E0,-1.257599950E0,-1.717899919E0
2.851200000E1,-4.287099838E0,-1.034899950E0,3.423899889E0
2.853200000E1,-3.476499796E0,-1.092999950E-1,4.035200119E0
2.855200000E1,-2.575599909E0,1.358299971E0,2.250699997E0
2.857200000E1,-2.569200039E0,2.710599899E0,1.769799948E0
2.859200000E1,-1.846399903E0,2.249199867E0,8.374999762E-1
2.861200156E1,-6.941999793E-1,1.070500016E0,1.462799907E0
2.864200000E1,8.222000003E-1,8.877999783E-1,2.519199848E0
2.866200000E1,-2.583999932E-1,8.874999881E-1,2.787099838E0
2.868200000E1,-1.440099955E0,-1.053900003E0,3.926199913E0
2.870200000E1,-1.828599930E0,-2.406499863E0,5.357899666E0
2.872200000E1,-3.352999926E0,-4.085599899E0,8.918099403E0
2.874200000E1,-3.630299807E0,-3.700999975E0,6.961499691E0
2.876200000E1,-3.497099876E0,-3.230199814E0,5.014100075E0
2.878200000E1,-4.027699947E0,-4.278399944E0,4.087899685E0
2.880200000E1,-4.616099834E0,-3.650399923E0,6.254799843E0
2.882200000E1,-5.433399677E0,-5.269399643E0,9.821199417E0
2.884200156E1,-5.085099697E0,-3.894299984E0,1.234480000E1
2.887200000E1,-2.344499826E0,-3.591499805E0,2.801699877E0
2.889200000E1,-1.382699966E0,-6.339499950E0,-5.188099861E0
2.891200000E1,2.243700027E0,-1.097889996E1,-5.205599785E0
2.893200000E1,3.948199987E0,-1.250199986E1,-6.274299622E0
2.895200000E1,4.840300083E0,-9.520199776E0,-4.089099884E0
2.897200000E1,5.578000069E0,-6.444699764E0,1.008220005E1
2.899200156E1,1.760800004E0,-1.409500003E0,-7.240999937E-1
2.902200000E1,-9.600000083E-2,2.417999953E-1,-5.182499886E0
2.904200000E1,4.910999835E-1,2.168799877E0,-4.508399963E0
2.906200156E1,4.805999994E-1,4.786799908E0,-5.518499851E0
2.909200000E1,-1.921999902E-1,6.879299641E0,-6.437999725E0
2.911200000E1,-4.308999777E-1,7.293599606E0,-8.941999435E0
2.913200156E1,-3.017999828E-1,7.499199867E0,-8.706699371E0
2.916200000E1,-7.880000025E-2,8.422100067E0,-9.753799438E0
2.918200000E1,-9.637999535E-1,8.601799965E0,-7.260900021E0
2.920200000E1,-1.565400004E0,6.297800064E0,-3.054699898E0
2.922200000E1,-7.260999680E-1,1.891799927E0,3.065999985E0
2.924200000E1,4.312299728E0,-7.733999729E0,1.924959946E1
2.926200000E1,8.475899696E0,-1.836820030E1,2.282810020E1
2.928200000E1,9.125999808E-1,-7.621299744E0,5.414199829E0
2.930200000E1,-3.167399883E0,4.881099701E0,-9.640000015E-2
2.932200000E1,-1.622499943E0,7.471299648E0,-1.290099978E0
2.934200000E1,2.628399849E0,2.221600056E0,-1.621339989E1
2.936200000E1,4.608200073E0,-3.408299923E0,-1.649600029E1
2.938200000E1,6.093100071E0,-1.527059937E1,1.802960014E1
2.940200000E1,6.026700020E0,-2.768000066E-1,-1.080070019E1
2.942200000E1,1.266499996E0,5.507299900E0,-1.051620007E1
2.944200000E1,-5.697000027E-1,7.265999913E-1,-1.196710014E1
2.946200000E1,-1.253499985E0,-2.183899879E0,-9.536499977E0
2.948200000E1,-1.262399912E0,-3.128399849E0,-5.448899746E0
2.950200000E1,-1.920699954E0,-2.869499922E0,-1.784500003E0
2.952200000E1,-4.204199791E0,-5.195999742E-1,7.502699852E0
2.954200000E1,-3.056999922E0,-3.370999992E-1,3.786099911E0
2.956200000E1,-2.683699846E0,8.452999592E-1,1.332999945E0
2.958200000E1,-3.082099915E0,2.706099987E0,1.041000009E0
2.960200000E1,-2.151499987E0,2.669800043E0,6.754999757E-1
2.962200000E1,-4.380999804E-1,1.602899909E0,1.306699991E0
2.964200000E1,5.240000039E-2,1.271399975E0,1.693599939E0
2.966200000E1,4.575999975E-1,1.236999989E0,3.131099939E0
2.968200000E1,-3.777000010E-1,3.667999804E-1,4.119899750E0
2.970200000E1,-9.082999825E-1,-1.318599939E0,3.738600016E0
2.972200000E1,-1.466399908E0,-1.801499963E0,5.727699757E0
2.974200000E1,-2.975600004E0,-3.431799889E0,8.183699608E0
2.976200000E1,-4.719799995E0,-4.475399971E0,6.111499786E0
2.978200000E1,-5.778999805E0,-5.706799984E0,5.604399681E0
2.980200000E1,-5.869799614E0,-5.261899948E0,7.236099720E0
2.982200000E1,-5.617799759E0,-4.832599640E0,1.393479919E1
2.984200156E1,-4.675600052E0,-4.037699699E0,1.099739933E1
2.987200000E1,-3.062700033E0,-3.761199951E0,7.608999610E-1
2.989200000E1,-1.255699992E0,-6.670099735E0,-5.036399841E0
2.991200000E1,2.002199888E0,-1.178199959E1,-5.328099728E0
2.993200000E1,4.573299885E0,-1.418839931E1,-5.370199680E0
2.995200000E1,6.639799595E0,-9.526899338E0,7.786199570E0
2.997200000E1,5.968800068E0,-4.550199986E0,5.402100086E0
2.999200000E1,2.291899920E0,-4.302999973E-1,-3.113899946E0
3.001200000E1,-3.716999888E-1,1.734099984E0,-3.852299929E0
3.003200000E1,-7.321000099E-1,1.547999978E0,-2.607899904E0
3.005200000E1,4.417999983E-1,2.932499886E0,-4.346799850E0
3.007200000E1,-7.840000093E-2,4.511199951E0,-6.182199955E0
3.009200156E1,-5.081999898E-1,6.171400070E0,-6.265500069E0
3.012200000E1,-8.914999962E-1,6.727799892E0,-1.023810005E1
3.014200000E1,-3.656999767E-1,7.540599823E0,-1.052190018E1
3.016200000E1,4.012999833E-1,8.145199776E0,-9.757800102E0
3.018200000E1,2.234999985E-1,8.821499825E0,-8.332399368E0
3.020200156E1,-2.845000029E-1,6.802599907E0,-4.759099960E0
3.023200000E1,1.646799922E0,8.037999868E-1,3.063799858E0
3.025200156E1,6.605199814E0,-1.252469921E1,2.623279953E1
3.028200156E1,1.962899923E0,-1.046809959E1,1.025629997E1
3.031200000E1,1.447099924E0,7.670999765E-1,-2.503399849E0
3.033200000E1,3.929199934E0,-3.013399839E0,-8.094300270E0
3.035200000E1,2.998699903E0,-5.858500004E0,-1.334630013E1
3.037200000E1,-6.499999668E-3,-1.180400014E0,-7.510499954E0
3.039200000E1,1.044999957E-1,5.967400074E0,-5.064300060E0
3.041200000E1,-3.545999825E-1,2.213299990E0,-9.477799416E0
3.043200000E1,-2.748999894E-1,-2.218299866E0,-1.303979969E1
3.045200000E1,-4.140999913E-1,-4.132599831E0,-8.009499550E0
3.047200000E1,-2.290799856E0,-2.580600023E0,-2.638700008E0
3.049200156E1,-2.937500000E0,-9.767999649E-1,-1.420999914E-1
3.052200000E1,-1.138199925E0,2.034499884E0,3.241299868E0
3.054200000E1,-1.802999973E-1,3.608599901E0,4.038599968E0
3.056200156E1,-6.105999947E-1,3.526700020E0,2.348299980E0
3.059200000E1,-1.012599945E0,7.127000093E-1,2.749999985E-2
3.061200000E1,-9.090999961E-1,1.006999984E-1,2.929499865E0
3.063200000E1,-1.791399956E0,2.179999948E-1,5.796099663E0
3.065200000E1,-2.713699818E0,-1.075199962E0,5.034399986E0
3.067200000E1,-2.593499899E0,-1.611799955E0,1.871699929E0
3.069200000E1,-2.462199926E0,-1.314299941E0,1.975299954E0
3.071200000E1,-2.963299990E0,-2.113899946E0,6.576699734E0
3.073200000E1,-2.755199909E0,-3.143800020E0,1.022299957E1
3.075200000E1,-3.510499954E0,-4.516099930E0,5.394099712E0
3.077200156E1,-4.125599861E0,-4.508299828E0,2.809700012E0
3.080200000E1,-4.762300014E0,-5.076699734E0,9.452899933E0
3.082200000E1,-5.342199802E0,-4.392199993E0,1.191939926E1
3.084200000E1,-3.792299986E0,-3.376600027E0,8.276499748E0
3.086200000E1,-1.575699925E0,-5.094099998E0,-1.999399900E0
3.088200000E1,6.474999785E-1,-8.116799355E0,-5.719699860E0
3.090200000E1,3.450299978E0,-1.168620014E1,-5.536499977E0
3.092200000E1,4.521599770E0,-1.091809940E1,-5.215499878E0
3.094200000E1,5.120899677E0,-6.055500031E0,1.116979980E1
3.096200000E1,2.780799866E0,-2.651700020E0,-8.254999518E-1
3.098200000E1,-2.030999959E-1,7.382999659E-1,-4.633299828E0
3.100200000E1,-6.304999590E-1,1.173099995E0,-4.342499733E0
3.102200000E1,2.859999835E-1,2.094599962E0,-4.186100006E0
3.104200156E1,-1.042999998E-1,3.836799860E0,-5.712499619E0
3.106200156E1,-2.637999952E-1,5.737199783E0,-5.984399796E0
3.109200000E1,7.169999927E-2,6.798699856E0,-9.300499916E0
3.111200000E1,3.443000019E-1,7.557799816E0,-9.485300064E0
3.113200156E1,6.266999841E-1,8.452499390E0,-9.973799706E0
3.116200000E1,-1.011999965E0,9.068599701E0,-9.318999290E0
3.118200156E1,-2.652600050E0,6.561999798E0,-5.682399750E0
3.121200000E1,3.721599817E0,-3.864199877E0,9.000100136E0
3.123200000E1,1.125679970E1,-1.944009972E1,3.342519760E1
3.125200000E1,5.838299751E0,-1.369609928E1,1.508279991E1
3.127200156E1,-7.005000114E-1,-1.181800008E0,-9.993000031E-1
3.130200000E1,1.260299921E0,-6.743999720E-1,-9.948699951E0
3.132200000E1,2.861799955E0,-5.070699692E0,-1.709079933E1
3.134200000E1,2.354500055E0,-5.166699886E0,-4.504799843E0
3.136200000E1,-4.616999924E-1,3.386199951E0,-2.944599867E0
3.138200000E1,-1.001899958E0,5.394599915E0,-7.523499966E0
3.140200000E1,1.459100008E0,-1.687799931E0,-1.346499920E1
3.142200000E1,1.415399909E0,-3.601999998E0,-8.446499825E0
3.144200000E1,-6.115999818E-1,-2.409999847E0,-2.886499882E0
3.146200000E1,-1.546499968E0,-1.174799919E0,3.222999871E-1
3.148200000E1,-8.571999669E-1,1.049899936E0,2.138700008E0
3.150200000E1,-4.749999940E-1,2.337399960E0,1.768999994E-1
3.152200000E1,-1.828799963E0,3.999399900E0,2.053599834E0
3.154200156E1,-2.300899982E0,2.161499977E0,2.902499914E0
3.156200156E1,-1.342499971E0,9.626999497E-1,3.530099869E0
3.159200000E1,5.692999959E-1,7.547999620E-1,2.683699846E0
3.161200000E1,-1.726000011E-1,3.637999892E-1,3.802699804E0
3.163200000E1,-7.343999743E-1,-9.218999743E-1,2.777699947E0
3.165200000E1,-1.402799964E0,-1.095199943E0,3.270699978E0
3.167200000E1,-3.416599989E0,-1.217000008E0,7.705099583E0
3.169200156E1,-5.141999722E0,-3.760900021E0,8.651399612E0
3.171200156E1,-5.494699955E0,-5.221499920E0,5.149099827E0
3.174200000E1,-4.140399933E0,-3.651299953E0,2.909099817E0
3.176200000E1,-3.578399897E0,-3.992299795E0,9.114999771E0
3.178200000E1,-3.352900028E0,-6.187699795E0,1.221669960E1
3.180200000E1,-3.317799807E0,-4.379799843E0,1.056260014E1
3.182200156E1,-1.488899946E0,-3.630699873E0,2.869499922E0
3.184200156E1,-3.665999770E-1,-5.574699879E0,-6.034100056E0
3.187200000E1,5.287299633E0,-1.103249931E1,-5.541299820E0
3.189200000E1,6.375799656E0,-1.080949974E1,-3.131299973E0
3.191200156E1,6.677399635E0,-6.771999836E0,1.301329994E1
3.193200156E1,4.121599674E0,-1.720399976E0,-3.964599848E0
3.196200000E1,-6.879000068E-1,1.424499989E0,-3.817999840E0
3.198200000E1,-6.369999647E-1,1.555899978E0,-3.401299953E0
3.200200000E1,-2.206999958E-1,2.902599812E0,-4.300099850E0
3.202200156E1,-5.945999622E-1,4.047899723E0,-5.478399754E0
3.204200156E1,-6.818999648E-1,5.455499649E0,-6.062999725E0
3.207200000E1,-1.545399904E0,7.064099789E0,-9.697699547E0
3.209200000E1,-1.452600002E0,7.593299866E0,-1.066029930E1
3.211200000E1,-6.216999888E-1,7.693899632E0,-1.032839966E1
3.213200000E1,-9.573999643E-1,8.689399719E0,-8.331099510E0
3.215200000E1,-1.810699940E0,7.312199593E0,-4.691999912E0
3.217200000E1,-1.105099916E0,2.805500031E0,9.904999733E-1
3.219200000E1,3.611199856E0,-3.862999916E0,1.254159927E1
3.221200000E1,9.988900185E0,-2.034309959E1,2.755079842E1
3.223200000E1,5.424999714E0,-1.304640007E1,1.122579956E1
3.225200000E1,8.481999636E-1,2.617000043E-1,-1.283699989E0
3.227200000E1,2.651199818E0,3.902899981E0,-2.557299852E0
3.229200000E1,2.435299873E0,-2.067699909E0,-1.231839943E1
3.231200000E1,2.447499990E0,-3.036700010E0,-1.421959972E1
3.233200000E1,3.141000032E0,-2.464900017E0,3.287999928E-1
3.235200156E1,2.290999889E0,5.410899639E0,-8.607399940E0
3.238200000E1,3.932999969E-1,-5.938000083E-1,-1.176749992E1
3.240200000E1,-5.286999941E-1,-3.389299870E0,-9.271599770E0
3.242200000E1,-1.680899978E0,-3.201999903E0,-5.666599751E0
3.244200000E1,-2.436899900E0,-1.976799965E0,-2.206500053E0
3.246200000E1,-2.670699835E0,-6.372999549E-1,-3.000999987E-1
3.248200156E1,-3.194900036E0,1.448699951E0,5.301399708E0
3.251200000E1,-2.628799915E0,2.316400051E0,3.327299833E0
3.253200000E1,-2.168499947E0,1.980599999E0,1.166100025E0
3.255200000E1,-1.115599990E0,5.257999897E-1,3.330999911E-1
3.257200000E1,-2.037999928E-1,2.599999905E-1,1.835799932E0
3.259200000E1,-4.009999931E-1,5.562999845E-1,4.288199902E0
3.261200000E1,-1.497799993E0,-4.388999939E-1,5.383599758E0
3.263200000E1,-1.643799901E0,-1.089499950E0,3.301199913E0
3.265200000E1,-1.781099916E0,-1.046800017E0,2.354599953E0
3.267200000E1,-2.269299984E0,-1.866400003E0,5.471600056E0
3.269200000E1,-2.459599972E0,-3.632200003E0,9.102799416E0
3.271200000E1,-2.877799988E0,-3.913299799E0,5.313799858E0
3.273200000E1,-3.409399986E0,-4.224499702E0,2.329299927E0
3.275200000E1,-4.077300072E0,-2.561599970E0,4.727999687E0
3.277200000E1,-4.361199856E0,-4.963099957E0,9.910900116E0
3.279200000E1,-4.712299824E0,-5.045300007E0,1.036240005E1
3.281200000E1,-3.462800026E0,-3.654599905E0,8.214099884E0
3.283200156E1,-1.076799989E0,-4.402599812E0,7.730999589E-1
3.285200156E1,3.298999965E-1,-6.943599701E0,-5.815599918E0
3.287200156E1,4.724299908E0,-1.143050003E1,-5.856499672E0
3.290200000E1,7.275799751E0,-8.828800201E0,5.726099968E0
3.292200000E1,6.273200035E0,-3.858299971E0,8.384300232E0
3.294200000E1,2.354899883E0,2.761999965E-1,-4.035900116E0
3.296200000E1,-9.730000049E-2,1.434000015E0,-5.622399807E0
3.298200000E1,-1.031700015E0,2.313499928E0,-3.521099806E0
3.300200156E1,-1.111699939E0,3.093899965E0,-3.879199982E0
3.303200000E1,-8.817999959E-1,4.782299995E0,-5.230499744E0
3.305200000E1,-1.210799932E0,5.017199993E0,-8.051699638E0
3.307200000E1,-1.648099899E0,6.312900066E0,-9.989899635E0
3.309200000E1,-9.824999571E-1,7.656299591E0,-1.119549942E1
3.311200000E1,2.760999799E-1,8.134399414E0,-1.095679951E1
3.313200000E1,2.092999965E-1,7.375799656E0,-7.654099941E0
3.315200000E1,-9.315999746E-1,5.821300030E0,-3.666199923E0
3.317200000E1,-4.961999953E-1,2.674399853E0,6.811999679E-1
3.319200000E1,2.585599899E0,-3.654899836E0,1.634879875E1
3.321200000E1,7.530999660E0,-1.827079964E1,2.710419846E1
3.323200156E1,3.418999910E0,-1.054879951E1,9.724699974E0
3.326200000E1,6.441999674E-1,3.698400021E0,-3.007299900E0
3.328200000E1,3.442499876E0,2.265799999E0,-7.907599926E0
3.330200000E1,3.355099916E0,-3.556699991E0,-1.610680008E1
3.332200000E1,4.146299839E0,-5.615599632E0,-6.116699696E0
3.334200000E1,4.366600037E0,-1.767199993E0,3.488699913E0
3.336200000E1,4.908999801E-1,3.865599871E0,-1.213599968E1
3.338200000E1,-4.060999751E-1,-1.982999891E-1,-1.225500011E1
3.340200000E1,3.309999779E-2,-2.257400036E0,-9.326700211E0
3.342200000E1,-1.375800014E0,-1.459900022E0,-5.525499821E0
3.344200000E1,-2.365900040E0,-3.894999921E-1,-2.671900034E0
3.346200000E1,-1.990999937E0,-1.671999991E-1,-7.250999808E-1
3.348200000E1,-1.822399974E0,8.939999938E-1,4.703399658E0
3.350200000E1,-2.099499941E0,1.714199901E0,5.944599628E0
3.352200000E1,-2.673599958E0,2.205199957E0,4.617399693E0
3.354200000E1,-2.004699945E0,1.289199948E0,1.323799968E0
3.356200000E1,-2.066900015E0,2.565999925E-1,1.283599973E0
3.358200000E1,-1.378499985E0,-3.188999891E-1,1.645200014E0
3.360200000E1,-1.407899976E0,3.610000014E-2,3.607299805E0
3.362200000E1,-1.959199905E0,2.806999981E-1,4.900599957E0
3.364200000E1,-2.097599983E0,-8.454999924E-1,4.851500034E0
3.366200000E1,-3.506399870E0,-2.018399954E0,6.316899776E0
3.368200000E1,-4.880799770E0,-2.929499865E0,7.671299934E0
3.370200156E1,-4.008800030E0,-4.512899876E0,6.238399982E0
3.373200000E1,-3.343799829E0,-4.101599693E0,4.347399712E0
3.375200000E1,-3.569999933E0,-3.062999964E0,7.524199963E0
3.377200156E1,-3.855599880E0,-4.712599754E0,1.103899956E1
3.379200156E1,-3.808599949E0,-3.463199854E0,1.079769993E1
3.382200000E1,-2.704299927E0,-5.941599846E0,-4.084499836E0
3.384200000E1,5.648999810E-1,-9.710499763E0,-5.565700054E0
3.386200000E1,3.181200027E0,-1.262779999E1,-5.769399643E0
3.388200000E1,4.964099884E0,-1.101539993E1,-6.143300056E0
3.390200000E1,5.615999699E0,-4.730599880E0,1.007179928E1
3.392200000E1,3.609999895E0,-9.080999494E-1,-2.840999961E-1
3.394200000E1,1.376999974E0,2.278999984E-1,-4.862299919E0
3.396200000E1,4.111999869E-1,6.661999822E-1,-3.521499872E0
3.398200000E1,5.512999892E-1,1.853199959E0,-4.972300053E0
3.400200000E1,-4.616999924E-1,3.615199804E0,-6.388799667E0
3.402200000E1,-7.767999768E-1,5.679899693E0,-5.748099804E0
3.404200000E1,-1.398100019E0,6.332399845E0,-9.232299805E0
3.406200156E1,-1.268999934E0,7.218899727E0,-1.040579987E1
3.409200000E1,5.065000057E-1,8.324299812E0,-1.109649944E1
3.411200000E1,1.303300023E0,8.271399498E0,-9.011499405E0
3.413200000E1,-1.453000009E-1,7.308699608E0,-5.897899628E0
3.415200000E1,-3.319999874E-1,2.359699965E0,-1.230299950E0
3.417200000E1,2.279399872E0,-4.860699654E0,7.466699600E0
3.419200000E1,5.949800014E0,-1.747620010E1,3.068109894E1
3.421200000E1,2.696899891E0,-1.149399948E1,9.188399315E0
3.423200000E1,-5.579999685E-1,1.669600010E0,7.218999863E-1
3.425200000E1,3.681699991E0,4.340399742E0,-4.082600117E0
3.427200156E1,7.194999695E0,-5.467999578E-1,-1.220199966E1
3.430200000E1,6.318799973E0,-6.970999718E0,2.087999880E-1
3.432200000E1,3.986699820E0,-2.340699911E0,-1.492999911E0
3.434200000E1,-8.298999667E-1,4.300199986E0,-1.297319984E1
3.436200000E1,-3.426299810E0,1.559499979E0,-1.256839943E1
3.438200000E1,-3.275599957E0,-1.636699915E0,-1.002369976E1
3.440200000E1,-2.514099836E0,-3.778800011E0,-7.525599957E0
3.442200000E1,-2.402499914E0,-2.978899956E0,-3.410300016E0
3.444200000E1,-2.863999844E0,-1.555499911E0,-2.469999939E-1
3.446200000E1,-3.067600012E0,1.135599971E0,9.197099686E0
3.448200156E1,-1.700099945E0,1.046899915E0,3.509299994E0
3.451200000E1,-1.795499921E0,2.356499910E0,8.685999513E-1
3.453200000E1,-1.247299910E0,1.803299904E0,4.217000008E-1
3.455200000E1,-3.376999795E-1,8.672999740E-1,9.984999895E-1
3.457200000E1,-7.400000095E-2,1.002399921E0,1.647099972E0
3.459200000E1,1.158999950E-1,1.245800018E0,2.824699879E0
3.461200000E1,-1.079699993E0,9.028999805E-1,4.616499901E0
3.463200000E1,-1.516999960E0,-1.152499914E0,4.683599949E0
3.465200000E1,-3.138799906E0,-2.233399868E0,5.047299862E0
3.467200000E1,-4.490499973E0,-3.507399797E0,6.291899681E0
3.469200000E1,-4.181200027E0,-4.480799675E0,6.196399689E0
3.471200000E1,-4.198999882E0,-4.431299686E0,4.476599693E0
3.473200000E1,-3.391799927E0,-3.084699869E0,5.500000000E0
3.475200000E1,-2.525599957E0,-5.080599785E0,9.509200096E0
3.477200000E1,-3.498699903E0,-5.169199944E0,1.051910019E1
3.479200000E1,-3.660099983E0,-3.676999807E0,7.628499985E0
3.481200000E1,-2.044499874E0,-5.052199841E0,-5.381999612E-1
3.483200000E1,1.599999960E-3,-6.887099743E0,-5.445099831E0
3.485200000E1,3.441099882E0,-9.667399406E0,-4.931799889E0
3.487200000E1,6.215899944E0,-1.025049973E1,7.840999961E-1
3.489200000E1,6.376599789E0,-6.710899830E0,9.110300064E0
3.491200000E1,4.365099907E0,-2.893499851E0,-3.565999985E0
3.493200156E1,5.566999912E-1,9.899999946E-3,-4.710099697E0
3.496200000E1,-1.823999882E-1,6.317999959E-1,-3.004699945E0
3.498200156E1,1.925999969E-1,2.221199989E0,-4.113899708E0
3.501200000E1,-3.570000082E-2,5.361899853E0,-5.548899651E0
3.503200000E1,-7.312999964E-1,6.789099693E0,-7.741499901E0
3.505200156E1,-1.300199986E0,7.833599567E0,-1.038289928E1
3.507200469E1,-1.031899929E0,8.191399574E0,-1.075879955E1
3.510200000E1,-4.825999737E-1,7.984399796E0,-8.852999687E0
3.512200000E1,-1.522499919E0,7.285799980E0,-6.036399841E0
3.514200000E1,-1.317299962E0,4.643899918E0,-2.018899918E0
3.516200000E1,7.947999835E-1,9.019999951E-2,4.367099762E0
3.518200000E1,6.199899673E0,-1.295819950E1,2.610249901E1
3.520200000E1,8.229199409E0,-1.813689995E1,1.705659866E1
3.522200000E1,1.224499941E0,-2.975800037E0,3.581199884E0
3.524200000E1,8.823999763E-1,4.615499973E0,-2.455399990E0
3.526200000E1,3.641999960E0,2.912699938E0,-7.183399677E0
3.528200000E1,2.871099949E0,-3.781199932E0,-1.590279961E1
3.530200000E1,3.536599874E0,-7.103199959E0,-6.881899834E0
3.532200000E1,3.920499802E0,-4.274799824E0,3.781799793E0
3.534200000E1,-5.085999966E-1,3.386399984E0,-1.123740005E1
3.536200000E1,-1.465799928E0,1.559999958E-2,-1.197270012E1
3.538200000E1,-6.642999649E-1,-1.663800001E0,-8.868100166E0
3.540200000E1,-1.653599977E0,-1.081599951E0,-4.479700089E0
3.542200000E1,-2.438899994E0,-8.068999648E-1,-1.500599980E0
3.544200000E1,-2.325999975E0,-3.145000041E-1,1.596799970E0
3.546200000E1,-1.802699924E0,1.519400001E0,4.168699741E0
3.548200000E1,-1.351699948E0,2.507900000E0,4.521199703E0
3.550200000E1,-1.646699905E0,2.954399824E0,2.227499962E0
3.552200000E1,-1.062799931E0,1.626199961E0,-5.730000138E-1
3.554200000E1,-4.580999911E-1,5.751000047E-1,-6.658999920E-1
3.556200156E1,5.838999748E-1,1.366000026E-1,1.775399923E0
3.559200000E1,-1.592999995E-1,5.091999769E-1,5.131799698E0
3.561200000E1,-1.293299913E0,-1.119099975E0,3.677899837E0
3.563200156E1,-2.912899971E0,-1.799799919E0,4.540699959E0
3.566200000E1,-5.186199665E0,-3.954999924E0,7.897299767E0
3.568200000E1,-4.497200012E0,-4.828000069E0,5.732100010E0
3.570200000E1,-3.373799801E0,-3.886699915E0,4.170300007E0
3.572200000E1,-2.185499907E0,-2.202499866E0,6.806200027E0
3.574200000E1,-1.719099998E0,-4.986099720E0,9.876500130E0
3.576200000E1,-3.441299915E0,-4.680599689E0,9.711400032E0
3.578200156E1,-3.903699875E0,-3.245399952E0,7.068599701E0
3.580200156E1,-2.063699961E0,-5.034199715E0,-2.059000015E0
3.582200156E1,1.532000005E-1,-8.107899666E0,-5.915899754E0
3.584200156E1,3.802699804E0,-1.102919960E1,-5.112099648E0
3.586200156E1,4.720099926E0,-1.045289993E1,-4.566400051E0
3.589200000E1,4.555599689E0,-5.197899818E0,4.667099953E0
3.591200000E1,1.608799934E0,-1.264500022E0,-3.763799906E0
3.593200000E1,-7.159000039E-1,2.578999996E-1,-5.013499737E0
3.595200000E1,-2.859999835E-1,1.315099955E0,-4.356400013E0
3.597200000E1,-4.084999859E-1,3.134699821E0,-5.933399677E0
3.599200156E1,-5.938000083E-1,5.607800007E0,-5.727099895E0
3.602200000E1,-8.650999665E-1,6.552999973E0,-8.691699982E0
3.604200000E1,-1.330500007E0,6.859799862E0,-9.950900078E0
3.606200000E1,-7.868999839E-1,7.139699936E0,-1.066720009E1
3.608200000E1,-5.875999928E-1,7.499799728E0,-1.028299999E1
3.610200000E1,-1.080699921E0,7.549699783E0,-7.437699795E0
3.612200000E1,-1.846599936E0,5.848000050E0,-3.166100025E0
3.614200000E1,1.322000027E-1,2.537099838E0,2.829200029E0
3.616200000E1,6.085799694E0,-4.352799892E0,1.530499935E1
3.618200000E1,8.521699905E0,-1.836059952E1,2.134119987E1
3.620200000E1,-1.881999969E-1,-9.867099762E0,9.623799324E0
3.622200000E1,-2.451799870E0,1.640299916E0,1.753999949E0
3.624200000E1,-1.415799975E0,4.893499851E0,1.518299937E0
3.626200000E1,-1.067999974E-1,4.193900108E0,-1.766099930E1
3.628200000E1,1.519400001E0,-6.776999831E-1,-1.671319962E1
3.630200156E1,4.899699688E0,-5.769599915E0,-5.222499847E0
3.632200156E1,1.067089939E1,-1.092869949E1,7.987299919E0
3.635200000E1,-2.211999893E-1,3.849499941E0,-1.081190014E1
3.637200000E1,-1.179999948E0,-2.970999777E-1,-1.248439980E1
3.639200000E1,-1.331099987E0,-1.090399981E0,-7.522599697E0
3.641200000E1,-2.102499962E0,-6.724999547E-1,-4.590499878E0
3.643200000E1,-2.648099899E0,-7.170999646E-1,-2.277499914E0
3.645200156E1,-2.111599922E0,-5.976999998E-1,-1.459999979E-1
3.647200156E1,-2.345399857E0,9.894999862E-1,6.345699787E0
3.649200156E1,-2.684900045E0,2.575099945E0,5.936199665E0
3.652200000E1,-1.648999929E0,1.719900012E0,9.820999503E-1
3.654200000E1,-8.288999796E-1,8.100000024E-1,2.666999996E-1
3.656200000E1,-2.950000018E-2,5.128999949E-1,7.885999680E-1
3.658200000E1,2.313999981E-1,8.272999525E-1,3.657399893E0
3.660200000E1,-8.391000032E-1,-7.180000097E-2,4.971600056E0
3.662200000E1,-2.462899923E0,-2.156899929E0,4.603499889E0
3.664200000E1,-4.309599876E0,-2.623999834E0,5.915099621E0
3.666200000E1,-4.643599987E0,-2.895299911E0,6.777099609E0
3.668200000E1,-3.437500000E0,-3.814599991E0,5.982899666E0
3.670200156E1,-3.352900028E0,-3.849599838E0,3.809599876E0
3.673200000E1,-2.228199959E0,-2.727699995E0,8.314100266E0
3.675200000E1,-2.592700005E0,-4.759799957E0,1.010820007E1
3.677200000E1,-3.415299892E0,-3.409499884E0,9.019599915E0
3.679200000E1,-2.361199856E0,-4.034299850E0,7.725999951E-1
3.681200000E1,-8.350999951E-1,-7.468899727E0,-5.785399914E0
3.683200000E1,3.406800032E0,-1.149749947E1,-4.936999798E0
3.685200156E1,5.502599716E0,-1.209420013E1,-5.541399956E0
3.688200000E1,6.351599693E0,-5.042799950E0,7.300999641E0
3.690200000E1,3.132799864E0,-9.955999851E-1,-4.999599934E0
3.692200000E1,1.062999964E-1,2.304999977E-1,-5.372600079E0
3.694200000E1,-4.903999865E-1,7.646999955E-1,-3.840999842E0
3.696200000E1,1.279999912E-1,2.467999935E0,-4.186599731E0
3.698200000E1,-5.990999937E-1,4.287099838E0,-5.324399948E0
3.700200156E1,-7.233999968E-1,5.840300083E0,-6.774799824E0
3.703200000E1,-1.914799929E0,7.347699642E0,-1.051690006E1
3.705200000E1,-1.758799911E0,7.885200024E0,-1.120650005E1
3.707200000E1,-8.374999762E-1,8.012199402E0,-1.071099949E1
3.709200000E1,-1.360499978E0,8.033200264E0,-8.543999672E0
3.711200000E1,-2.111000061E0,6.907799721E0,-4.731599808E0
3.713200156E1,-1.365199924E0,3.550899982E0,-1.277000010E-1
3.716200000E1,8.365699768E0,-1.160479927E1,2.629459953E1
3.718200000E1,9.433499336E0,-2.181760025E1,1.922159958E1
3.720200000E1,6.523999572E-1,-5.066899776E0,4.325699806E0
3.722200000E1,-8.761999607E-1,6.054899693E0,-3.249699831E0
3.724200000E1,2.654000044E0,5.460000038E0,-2.464999914E0
3.726200000E1,1.167500019E0,-3.205399990E0,-1.722620010E1
3.728200000E1,2.051300049E0,-4.664700031E0,-1.459789944E1
3.730200000E1,6.000699997E0,-8.289699554E0,4.471799850E0
3.732200000E1,3.753000021E0,4.914899826E0,-1.109739971E1
3.734200000E1,1.793999910E0,3.519099951E0,-9.059800148E0
3.736200000E1,-2.280000001E-1,-2.273000002E0,-1.515399933E1
3.738200000E1,-2.049099922E0,-3.631399870E0,-9.123799324E0
3.740200000E1,-2.013099909E0,-3.050400019E0,-4.789700031E0
3.742200156E1,-2.279700041E0,-1.711899996E0,-1.498899937E0
3.745200000E1,-3.472899914E0,3.226999938E-1,5.920300007E0
3.747200000E1,-2.589299917E0,1.004099965E0,3.889999866E0
3.749200156E1,-2.693300009E0,2.930599928E0,2.071899891E0
3.752200000E1,-7.109999657E-2,1.665799975E0,1.693199992E0
3.754200000E1,8.598999977E-1,7.163000107E-1,1.112800002E0
3.756200156E1,3.401999772E-1,1.067199945E0,1.944000006E0
3.759200000E1,-1.195699930E0,1.664000005E-1,2.517599821E0
3.761200000E1,-1.890199900E0,-1.431399941E0,3.147399902E0
3.763200156E1,-3.629099846E0,-1.658199906E0,7.301899910E0
3.766200000E1,-4.349499702E0,-4.079400063E0,7.204899788E0
3.768200000E1,-4.127500057E0,-4.359799862E0,4.254099846E0
3.770200156E1,-4.060800076E0,-4.118000031E0,3.383800030E0
3.773200000E1,-4.383800030E0,-5.221299648E0,1.007269955E1
3.775200000E1,-4.787899971E0,-4.846799850E0,1.100759983E1
3.777200000E1,-3.710599899E0,-3.036099911E0,6.318699837E0
3.779200000E1,-1.598099947E0,-4.800600052E0,-1.671899915E0
3.781200156E1,1.021399975E0,-8.553599358E0,-4.683199883E0
3.784200156E1,5.452600002E0,-1.311389923E1,-5.838099957E0
3.786200469E1,7.711899757E0,-9.204099655E0,8.351900101E0
3.789200156E1,4.818299770E0,-1.905699968E0,-2.491699934E0
3.791200156E1,7.975999713E-1,7.020999789E-1,-5.569799900E0
3.793200156E1,-3.129999936E-1,1.466699958E0,-3.693300009E0
3.795200156E1,-1.632999927E-1,2.842299938E0,-4.313999653E0
3.798200000E1,-5.042999983E-1,5.220200062E0,-5.918600082E0
3.800200000E1,-8.125999570E-1,6.564699650E0,-6.689199924E0
3.802200000E1,-1.231499910E0,6.933099747E0,-1.011339951E1
3.804200000E1,-1.329199910E0,7.605399609E0,-1.072919941E1
3.806200156E1,-3.297999799E-1,7.700799942E0,-1.070099926E1
3.809200000E1,-4.660999775E-1,7.688499928E0,-8.186800003E0
3.811200000E1,-1.031700015E0,5.449899673E0,-4.479700089E0
3.813200156E1,-1.459999941E-2,1.584499955E0,1.065999940E-1
3.815200156E1,6.313199997E0,-8.269800186E0,1.823189926E1
3.817200156E1,9.017499924E0,-2.082789993E1,2.551529884E1
3.820200000E1,-1.184199929E0,-1.306699991E0,1.000000000E0
3.822200000E1,9.662999511E-1,3.277799845E0,-2.069799900E0
3.824200000E1,1.919799924E0,1.424399972E0,-6.459899902E0
3.826200000E1,2.190700054E0,-3.247299910E0,-1.637870026E1
3.828200000E1,3.025499821E0,-2.256799936E0,-6.313699722E0
3.830200000E1,6.428799629E0,-1.122499943E0,2.425600052E0
3.832200000E1,4.049099922E0,2.785599947E0,-9.562199593E0
3.834200000E1,4.860000014E-1,-5.845999718E-1,-1.294810009E1
3.836200000E1,-8.043999672E-1,-2.949800014E0,-1.124720001E1
3.838200000E1,-2.081500053E0,-3.035799980E0,-6.624399662E0
3.840200000E1,-2.867899895E0,-1.473199964E0,-2.857699871E0
3.842200000E1,-2.572899818E0,-3.638999760E-1,1.030000020E-2
3.844200000E1,-2.370399952E0,1.742699981E0,2.128000021E0
3.846200000E1,-2.699100018E0,3.538399935E0,8.681499481E0
3.848200156E1,-1.444299936E0,1.763499975E0,5.375899792E0
3.851200000E1,-6.162999868E-1,-2.875999808E-1,1.982699990E0
3.853200000E1,-8.186999559E-1,2.859999835E-1,2.548199892E0
3.855200000E1,-1.858899951E0,6.068999767E-1,3.679899931E0
3.857200000E1,-2.121199846E0,-3.596999943E-1,2.848099947E0
3.859200000E1,-1.850699902E0,-8.435999751E-1,1.795599937E0
3.861200000E1,-2.462800026E0,-1.176599979E0,4.415499687E0
3.863200000E1,-3.440699816E0,-2.675400019E0,9.864299774E0
3.865200156E1,-3.011499882E0,-4.344599724E0,7.492399693E0
3.868200000E1,-3.164999962E0,-3.959699869E0,2.490599871E0
3.870200000E1,-3.436999798E0,-3.603099823E0,6.184199810E0
3.872200000E1,-4.232199669E0,-5.254699707E0,1.036590004E1
3.874200000E1,-4.086100101E0,-3.642299891E0,1.091639996E1
3.876200000E1,-2.260200024E0,-3.628399849E0,3.073199987E0
3.878200156E1,-7.010999918E-1,-6.034999847E0,-5.254799843E0
3.881200000E1,4.579299927E0,-1.147019958E1,-5.252899647E0
3.883200000E1,7.069099903E0,-1.061079979E1,3.382099867E0
3.885200156E1,5.656599998E0,-5.290699959E0,7.548299789E0
3.888200000E1,1.805099964E0,-2.485999912E-1,-6.075799942E0
3.890200000E1,2.010999918E-1,1.102999970E-1,-4.528999805E0
3.892200000E1,4.439999908E-2,9.802999496E-1,-3.334599972E0
3.894200000E1,-6.730999947E-1,2.370199919E0,-4.077699661E0
3.896200000E1,-7.955999970E-1,4.329299927E0,-4.919300079E0
3.898200000E1,-6.850999594E-1,5.869299889E0,-6.516999722E0
3.900200000E1,-8.848999739E-1,7.316400051E0,-9.871399879E0
3.902200000E1,-1.077499986E0,8.576999664E0,-1.074269962E1
3.904200000E1,-3.730999827E-1,9.001599312E0,-1.094040012E1
3.906200625E1,-7.773999572E-1,8.894100189E0,-8.147099495E0
3.909200000E1,-3.275899887E0,5.957599640E0,-3.391799927E0
3.911200000E1,-3.429999948E-1,1.616999984E0,5.416800022E0
3.913200000E1,8.134499550E0,-1.082039928E1,2.763579941E1
3.915200156E1,1.015439987E1,-1.927969933E1,1.457889938E1
3.918200000E1,1.013000011E-1,7.569999993E-2,-1.766199946E0
3.920200000E1,2.049000025E0,3.140100002E0,-1.374599934E0
3.922200000E1,1.833099961E0,-6.542999744E-1,-1.224790001E1
3.924200000E1,2.899999857E0,-3.570799828E0,-1.563079929E1
3.926200000E1,4.244800091E0,-6.974899769E0,3.909099817E0
3.928200000E1,4.856699944E0,3.585799932E0,-7.059399605E0
3.930200000E1,1.860299945E0,2.647199869E0,-9.689499855E0
3.932200000E1,-1.242999911E0,-9.110999703E-1,-1.349849987E1
3.934200000E1,-1.751799941E0,-2.745499849E0,-9.282099724E0
3.936200000E1,-1.879299998E0,-2.831899881E0,-4.820099831E0
3.938200000E1,-3.177599907E0,-1.153299928E0,-1.305799961E0
3.940200000E1,-2.832900047E0,-9.555999637E-1,1.155200005E0
3.942200000E1,-2.323199987E0,5.327000022E-1,5.099299908E0
3.944200000E1,-1.800699949E0,1.716699958E0,3.864699841E0
3.946200000E1,-1.748899937E0,2.598799944E0,2.007999897E0
3.948200000E1,-1.045199990E0,1.694000006E0,8.544999957E-1
3.950200000E1,-7.196999788E-1,1.197899938E0,9.541999698E-1
3.952200000E1,-3.366000056E-1,1.121500015E0,1.276399970E0
3.954200000E1,-4.147999883E-1,8.197999597E-1,2.908099890E0
3.956200156E1,-7.615999579E-1,-3.061999977E-1,3.906799793E0
3.959200000E1,-2.200399876E0,-6.420999765E-1,4.539999962E0
3.961200000E1,-3.147599936E0,-2.075899839E0,8.192500114E0
3.963200156E1,-3.096099854E0,-4.184299946E0,7.642899990E0
3.965200156E1,-3.508399963E0,-4.830899715E0,3.858899832E0
3.968200000E1,-3.747499943E0,-3.502399921E0,4.360099792E0
3.970200000E1,-4.127699852E0,-6.053499699E0,8.973899841E0
3.972200000E1,-5.216700077E0,-5.236199856E0,9.544899940E0
3.974200000E1,-4.664499760E0,-2.809199810E0,6.961099625E0
3.976200000E1,-1.577299953E0,-3.753499985E0,2.498100042E0
3.978200000E1,8.457999825E-1,-7.736799717E0,-3.735899925E0
3.980200000E1,3.979799986E0,-1.121479988E1,-4.259900093E0
3.982200000E1,5.326499939E0,-1.106739998E1,-4.963299751E0
3.984200000E1,7.607899666E0,-6.320699692E0,1.140049934E1
3.986200000E1,5.212199688E0,-2.061800003E0,-4.578999877E-1
3.988200000E1,1.595999956E0,8.963999748E-1,-5.793600082E0
3.990200000E1,2.859999835E-1,8.628999591E-1,-4.593699932E0
3.992200000E1,-2.804999948E-1,1.541000009E0,-3.618499994E0
3.994200000E1,-1.713699937E0,2.592000008E0,-5.384200096E0
3.996200000E1,-1.426100016E0,4.682799816E0,-5.558199883E0
3.998200156E1,-1.240899920E0,5.945699692E0,-7.216099739E0
4.001200000E1,-2.165600061E0,7.313099861E0,-1.001119995E1
4.003200156E1,-1.454299927E0,7.782899857E0,-1.122480011E1
4.006200000E1,-1.077399969E0,7.821199894E0,-8.534399986E0
4.008200156E1,-1.639400005E0,7.041800022E0,-4.897200108E0
4.011200156E1,4.957000017E-1,1.564199924E0,2.373399973E0
4.013200156E1,7.263999939E0,-8.543299675E0,2.201189995E1
4.016200000E1,7.300799847E0,-1.502919960E1,1.357619953E1
4.018200000E1,1.505899906E0,-8.754000068E-1,-7.825999856E-1
4.020200000E1,2.014299870E0,4.148799896E0,-3.082399845E0
4.022200000E1,1.556499958E0,-5.981000066E-1,-8.397899628E0
4.024200000E1,-2.199999988E-3,-4.100999832E0,-1.741619873E1
4.026200000E1,9.979999661E-1,-2.971299887E0,-4.070199966E0
4.028200156E1,4.038099766E0,4.049799919E0,-4.632400036E0
4.031200000E1,-5.843999982E-1,-1.132599950E0,-1.320449924E1
4.033200000E1,-1.953399897E0,-4.096499920E0,-1.299020004E1
4.035200156E1,-2.057999849E0,-4.863699913E0,-6.792999744E0
4.038200000E1,-3.241600037E0,-2.354500055E0,5.623999834E-1
4.040200000E1,-3.202399969E0,-3.667999804E-1,5.677399635E0
4.042200156E1,-1.615499973E0,1.152999997E0,3.894199848E0
4.045200000E1,-1.664199948E0,3.850199938E0,1.674299955E0
4.047200000E1,-1.043099999E0,3.529599905E0,1.401999891E-1
4.049200156E1,-5.649999902E-2,2.052799940E0,-1.888999939E-1
4.052200000E1,2.892999947E-1,1.402599931E0,2.422099829E0
4.054200000E1,-2.527999878E-1,8.852999806E-1,4.938699722E0
4.056200000E1,-2.015699863E0,-1.523199916E0,4.359299660E0
4.058200000E1,-2.596599817E0,-2.732599974E0,3.047600031E0
4.060200000E1,-3.367799997E0,-2.778899908E0,5.553299904E0
4.062200000E1,-3.365999937E0,-3.332999945E0,9.152400017E0
4.064200000E1,-2.663300037E0,-4.338999748E0,7.408399582E0
4.066200000E1,-3.561599970E0,-4.611399651E0,3.077999830E0
4.068200000E1,-3.846699953E0,-3.917899847E0,3.439299822E0
4.070200000E1,-3.813899994E0,-6.103499889E0,8.795199394E0
4.072200000E1,-4.260499954E0,-5.092000008E0,1.123139954E1
4.074200000E1,-3.265599966E0,-2.694399834E0,8.340399742E0
4.076200000E1,-4.814999998E-1,-3.754400015E0,-4.350000024E-1
4.078200000E1,7.317000031E-1,-6.283699989E0,-7.078599930E0
4.080200000E1,3.618599892E0,-1.060219955E1,-6.172199726E0
4.082200000E1,5.308899879E0,-1.145899963E1,8.829999566E-1
4.084200000E1,2.935999870E0,-5.912799835E0,8.900899887E0
4.086200000E1,1.324599981E0,-1.366599917E0,-3.600299835E0
4.088200000E1,-4.161999822E-1,6.865999699E-1,-4.989099979E0
4.090200000E1,-1.138199925E0,2.201200008E0,-4.124300003E0
4.092200000E1,-7.750000060E-2,3.188899994E0,-3.385200024E0
4.094200156E1,-1.331000030E-1,3.749799967E0,-4.907399654E0
4.097200000E1,7.759999484E-2,5.853099823E0,-5.847300053E0
4.099200156E1,-6.099999696E-2,6.227099895E0,-8.725899696E0
4.102200000E1,1.015999988E-1,7.777499676E0,-1.050739956E1
4.104200000E1,-2.326999903E-1,8.777799606E0,-9.366399765E0
4.106200000E1,-1.126399994E0,7.842099667E0,-5.465399742E0
4.108200000E1,-2.434200048E0,5.043299675E0,-1.007300019E0
4.110200000E1,-4.194999933E-1,8.321999907E-1,7.550199986E0
4.112200000E1,4.055799961E0,-9.470499992E0,2.059149933E1
4.114200000E1,7.257899761E0,-1.805949974E1,1.615449905E1
4.116200000E1,1.754699945E0,-5.965899944E0,3.805999994E0
4.118200156E1,-6.186999679E-1,4.244800091E0,8.585000038E-1
4.121200000E1,6.189999729E-2,1.245700002E0,-1.614089966E1
4.123200000E1,3.827799797E0,-1.588899970E0,-2.090340042E1
4.125200000E1,7.256000042E0,-7.865900040E0,-1.710199952E0
4.127200000E1,8.753099442E0,-2.456799984E0,4.799599648E0
4.129200000E1,1.788399935E0,3.184399843E0,-1.544709969E1
4.131200000E1,-1.342199922E0,-1.615799904E0,-1.472769928E1
4.133200000E1,-2.888000011E-1,-3.501899958E0,-9.275699615E0
4.135200000E1,-1.171199918E0,-1.931599975E0,-4.205199718E0
4.137200000E1,-2.588399887E0,3.519999981E-2,-1.642799973E0
4.139200000E1,-2.393699884E0,7.276999950E-1,7.044999599E-1
4.141200000E1,-2.273000002E0,1.245199919E0,6.785199642E0
4.143200000E1,-2.424299955E0,1.659500003E0,2.473799944E0
4.145200000E1,-3.542599916E0,2.091599941E0,2.808599949E0
4.147200000E1,-3.287099838E0,6.712999940E-1,3.240499973E0
4.149200156E1,-2.717900038E0,3.163000047E-1,2.729899883E0
4.152200000E1,-2.105499983E0,-3.932999969E-1,2.801599979E0
4.154200000E1,-1.337199926E0,-1.228299975E0,2.076200008E0
4.156200156E1,-1.048599958E0,-1.536999941E-1,2.266099930E0
4.159200156E1,-1.889400005E0,-8.823999763E-1,1.199300003E1
4.162200000E1,-3.206300020E0,-4.847300053E0,4.379099846E0
4.164200000E1,-3.608699799E0,-5.237099648E0,2.038699865E0
4.166200000E1,-4.386699677E0,-2.825500011E0,4.176799774E0
4.168200000E1,-4.566599846E0,-3.248899937E0,1.138739967E1
4.170200156E1,-4.615099907E0,-3.613399982E0,1.150319958E1
4.173200000E1,-2.693399906E0,-4.115600109E0,4.484099865E0
4.175200000E1,-1.171499968E0,-7.635799885E0,-4.138499737E0
4.177200000E1,2.069000006E0,-1.201859951E1,-4.252500057E0
4.179200000E1,4.798099995E0,-1.460869980E1,-6.595599651E0
4.181200000E1,5.065799713E0,-9.821399689E0,-5.818500042E0
4.183200000E1,8.261400223E0,-5.659299850E0,1.418249989E1
4.185200000E1,4.995100021E0,-4.951999784E-1,2.208999991E-1
4.187200000E1,2.440999985E0,4.250000045E-2,-5.898999691E0
4.189200000E1,-6.894999743E-1,2.357800007E0,-4.164000034E0
4.191200156E1,-1.084900022E0,3.578299999E0,-4.768899918E0
4.194200000E1,-6.685999632E-1,6.846099854E0,-5.308499813E0
4.196200000E1,-9.109999537E-1,7.522699833E0,-7.895199776E0
4.198200000E1,-1.224200010E0,7.734799862E0,-1.042140007E1
4.200200000E1,-1.234499931E0,8.362599373E0,-1.055259991E1
4.202200000E1,-9.325999618E-1,8.208799362E0,-1.052999973E1
4.204200000E1,-1.439499974E0,8.099599838E0,-7.853399754E0
4.206200000E1,-2.343999863E0,6.980999947E0,-4.115799904E0
4.208200000E1,-1.717599988E0,3.863399982E0,6.954999566E-1
4.210200000E1,3.033299923E0,-2.730199814E0,1.454119968E1
4.212200000E1,1.082509995E1,-1.968239975E1,2.579039955E1
4.214200000E1,6.489199638E0,-1.391099930E1,1.131459999E1
4.216200000E1,7.563999891E-1,2.797999978E-1,-1.873600006E0
4.218200000E1,-7.229999453E-2,7.535099983E0,-2.301599979E0
4.220200000E1,2.858299971E0,3.105399847E0,-6.069699764E0
4.222200000E1,3.057899952E0,-4.837699890E0,-2.116659927E1
4.224200000E1,3.050299883E0,-9.656799316E0,1.355999947E0
4.226200000E1,8.941599846E0,-3.338099957E0,1.451099992E0
4.228200000E1,2.392899990E0,4.879199982E0,-1.109809971E1
4.230200000E1,-1.352899909E0,-9.515999556E-1,-1.462709999E1
4.232200000E1,-2.540999889E0,-3.726199865E0,-1.220349979E1
4.234200000E1,-2.549999952E0,-4.084000111E0,-6.625299931E0
4.236200000E1,-3.192799807E0,-2.566099882E0,-2.029599905E0
4.238200000E1,-3.588699818E0,-1.054499984E0,1.365700006E0
4.240200000E1,-4.043200016E0,8.594999909E-1,7.153800011E0
4.242200000E1,-2.746599913E0,1.654500008E0,3.820499897E0
4.244200000E1,-2.810099840E0,2.849099874E0,1.958199978E0
4.246200000E1,-2.052000046E0,2.650899887E0,1.331499934E0
4.248200000E1,-5.282999873E-1,1.560199976E0,2.223500013E0
4.250200000E1,4.114999771E-1,1.117100000E0,1.835399985E0
4.252200000E1,7.040999532E-1,1.235199928E0,2.157099962E0
4.254200000E1,-1.152599931E0,6.141999960E-1,3.381199837E0
4.256200156E1,-1.878499985E0,-8.380999565E-1,4.058000088E0
4.259200000E1,-3.372699976E0,-3.304600000E0,5.862299919E0
4.261200000E1,-4.542200089E0,-5.737499714E0,6.409899712E0
4.263200000E1,-5.106599808E0,-5.062200069E0,5.904599667E0
4.265200000E1,-4.591899872E0,-3.776199818E0,6.602499962E0
4.267200000E1,-3.627499819E0,-3.594499826E0,9.746999741E0
4.269200000E1,-4.089299679E0,-6.002099991E0,1.019460011E1
4.271200000E1,-5.403500080E0,-4.197499752E0,8.991199493E0
4.273200000E1,-3.646299839E0,-3.861699820E0,1.248600006E0
4.275200000E1,-1.693499923E0,-7.075199604E0,-3.949299812E0
4.277200000E1,1.569800019E0,-1.155060005E1,-4.396100044E0
4.279200000E1,3.254999876E0,-1.241209984E1,-5.902400017E0
4.281200000E1,5.348299980E0,-9.305799484E0,2.611199856E0
4.283200000E1,4.377299786E0,-5.022599697E0,4.092000008E0
4.285200000E1,1.261699915E0,-4.172999859E-1,-3.273999929E0
4.287200156E1,8.139999956E-2,9.770999551E-1,-5.647199631E0
4.289200156E1,6.104999781E-1,1.693099976E0,-4.849699974E0
4.292200000E1,3.924999833E-1,4.556699753E0,-6.273699760E0
4.294200000E1,5.324000120E-1,5.959599972E0,-7.086599827E0
4.296200000E1,-7.389999926E-2,7.035099983E0,-8.892499924E0
4.298200000E1,7.549999654E-2,8.064299583E0,-1.125249958E1
4.300200000E1,2.748999894E-1,8.299900055E0,-1.048689938E1
4.302200000E1,3.373000026E-1,8.017000198E0,-9.807199478E0
4.304200000E1,2.999999821E-1,7.155499935E0,-7.064499855E0
4.306200156E1,-8.513000011E-1,4.759599686E0,-2.527099848E0
4.309200000E1,4.061699867E0,-2.152899981E0,7.282699585E0
4.311200000E1,8.229199409E0,-1.831069946E1,3.233459854E1
4.313200000E1,5.979899883E0,-1.373199940E1,1.131979942E1
4.315200000E1,-6.263999939E-1,5.199999809E-1,2.813999951E-1
4.317200000E1,1.269599915E0,6.368199825E0,-1.235899925E0
4.319200000E1,3.276700020E0,1.514599919E0,-8.451399803E0
4.321200000E1,5.417000055E-1,-3.057799816E0,-1.854399872E1
4.323200000E1,-1.138999939E0,-6.526899815E0,-3.525999784E-1
4.325200156E1,7.913399696E0,-2.630599976E0,-3.973199844E0
4.328200000E1,1.304799914E0,1.064199924E0,-1.236569977E1
4.330200000E1,-1.531399965E0,-2.799599886E0,-1.360929966E1
4.332200000E1,-1.930399895E0,-4.110899925E0,-8.017899513E0
4.334200000E1,-2.420500040E0,-2.932799816E0,-3.758299828E0
4.336200000E1,-3.101599932E0,-1.101999998E0,1.138399959E0
4.338200000E1,-2.979599953E0,4.888999760E-1,5.784599781E0
4.340200000E1,-2.301100016E0,1.830799937E0,3.174700022E0
4.342200156E1,-3.010499954E0,2.544800043E0,1.712000012E0
4.345200000E1,-1.393899918E0,2.089799881E0,-1.394999921E-1
4.347200000E1,-1.021999940E-1,1.340999961E0,1.572699904E0
4.349200156E1,9.118999839E-1,1.087899923E0,2.334199905E0
4.352200000E1,-4.745000005E-1,7.089999914E-1,4.703899860E0
4.354200000E1,-2.210599899E0,-1.286299944E0,5.057399750E0
4.356200156E1,-3.390499830E0,-2.397899866E0,5.622699738E0
4.359200000E1,-5.217599869E0,-3.809399843E0,7.531299591E0
4.361200000E1,-5.153999805E0,-3.984899998E0,6.490399837E0
