"Time (s)","Acceleration x (m/s^2)","Acceleration y (m/s^2)","Acceleration z (m/s^2)"
0.000000000E0,-1.616349101E0,3.436313868E0,9.602275848E0
2.179604200E-2,-1.486993313E0,3.378822565E0,9.137553215E0
4.219145800E-2,-1.443874717E0,3.287794352E0,9.027360916E0
6.250885400E-2,-1.645094872E0,3.196766138E0,9.405846596E0
8.260375000E-2,-1.578021526E0,3.206347942E0,9.501666069E0
1.026985420E-1,-1.357637405E0,3.096156120E0,9.262117386E0
1.227933330E-1,-1.300145984E0,3.100946903E0,9.233371735E0
1.428885940E-1,-1.261818290E0,3.172811270E0,9.295654297E0
1.629839060E-1,-1.161208272E0,3.120110750E0,9.463337898E0
1.830792190E-1,-9.935247302E-1,3.043455601E0,9.635812759E0
2.031745310E-1,-1.012688518E0,2.966800213E0,9.420219421E0
2.232698440E-1,-9.504061341E-1,2.985964060E0,9.520829201E0
2.433651560E-1,-1.017479539E0,2.947636366E0,9.616648674E0
2.634604690E-1,-9.120784402E-1,2.938054323E0,9.611857414E0
2.835557810E-1,-9.216603637E-1,2.899726868E0,9.568738937E0
3.036510940E-1,-8.689598441E-1,2.866190195E0,9.607067108E0
3.237464060E-1,-7.970954776E-1,2.823071480E0,9.626230240E0
3.438417190E-1,-8.018864393E-1,2.837444305E0,9.698095322E0
3.639370310E-1,-7.875135541E-1,2.818280458E0,9.578320503E0
3.840323440E-1,-8.881236911E-1,2.832653284E0,9.539993286E0
4.041276560E-1,-9.024965167E-1,2.789534807E0,9.583111763E0
4.242229690E-1,-8.737508059E-1,2.779952765E0,9.578320503E0
4.443182810E-1,-8.545869589E-1,2.784743786E0,9.568738937E0
4.644135420E-1,-8.114683628E-1,2.741625309E0,9.492083549E0
4.845083330E-1,-7.875135541E-1,2.741625309E0,9.535202026E0
5.046031250E-1,-8.785417676E-1,2.722461462E0,9.616648674E0
5.246980730E-1,-9.456151724E-1,2.803907633E0,9.530411720E0
5.447933860E-1,-8.018864393E-1,2.779952765E0,9.530411720E0
5.648886980E-1,-7.827225924E-1,2.751207113E0,9.554366112E0
5.849840110E-1,-8.785417676E-1,2.803907633E0,9.597484589E0
6.050793230E-1,-8.545869589E-1,2.866190195E0,9.559157372E0
6.251746360E-1,-7.539768815E-1,2.775161982E0,9.472919464E0
6.452699480E-1,-6.964854002E-1,2.799116611E0,9.520829201E0
6.653652610E-1,-6.342029572E-1,2.746416092E0,9.650185585E0
6.854605730E-1,-6.581577063E-1,2.717670441E0,9.702885628E0
7.055558860E-1,-5.479657054E-1,2.751207113E0,9.631021500E0
7.256511980E-1,-6.581577063E-1,2.789534807E0,9.635812759E0
7.457465110E-1,-5.671295524E-1,2.799116611E0,9.645394325E0
7.658418230E-1,-5.431747437E-1,2.847026348E0,9.698095322E0
7.859371360E-1,-6.102481484E-1,2.827862501E0,9.731631279E0
8.060324480E-1,-6.485758424E-1,2.909308672E0,9.650185585E0
8.261277610E-1,-7.587678432E-1,2.966800213E0,9.496874809E0
8.462230730E-1,-7.156491876E-1,2.985964060E0,9.310027122E0
8.663183860E-1,-7.252311110E-1,3.000336885E0,9.405846596E0
8.864136980E-1,-6.916944385E-1,3.033873558E0,9.798705101E0
9.065090110E-1,-8.018864393E-1,3.057828426E0,9.846614838E0
9.266038020E-1,-8.833327293E-1,3.067410231E0,9.602275848E0
9.466985940E-1,-8.641688824E-1,3.144065619E0,9.290863991E0
9.667935420E-1,-1.012688518E0,3.163229465E0,9.175880432E0
9.868888540E-1,-9.695699215E-1,3.235093832E0,9.247744560E0
1.006984167E0,-9.695699215E-1,3.201557159E0,9.554366112E0
1.027079479E0,-1.012688518E0,3.187184095E0,9.563947678E0
1.047174792E0,-1.180372000E0,3.163229465E0,9.223790169E0
1.067270104E0,-1.276191235E0,3.110528946E0,8.921959877E0
1.087365417E0,-1.194744945E0,3.000336885E0,9.099225044E0
1.107460729E0,-1.012688518E0,2.942845345E0,9.204626083E0
1.127556042E0,-8.833327293E-1,3.105737925E0,9.008196831E0
1.147651354E0,-9.743608832E-1,3.330912828E0,8.232062340E0
1.167746667E0,-1.280982137E0,3.105737925E0,7.738593578E0
1.187841979E0,-1.520529985E0,2.722461462E0,8.318299294E0
1.207937292E0,-1.276191235E0,3.134483576E0,9.975970268E0
1.228032604E0,-1.372010350E0,3.623161316E0,1.070898724E1
1.248127917E0,-1.611558199E0,3.905827761E0,9.952015877E0
1.268223229E0,-1.731332064E0,4.207658291E0,9.247744560E0
1.288318542E0,-1.630722046E0,4.360968590E0,9.094434738E0
1.308413854E0,-1.338473678E0,4.289104462E0,9.223790169E0
1.328509167E0,-1.261818290E0,4.193284988E0,9.127970695E0
1.348604479E0,-1.338473678E0,4.001646996E0,8.773440361E0
1.368699792E0,-1.333682656E0,3.924991608E0,8.279971123E0
1.388795104E0,-1.132462502E0,3.843545437E0,8.160197258E0
1.408890417E0,-1.070180058E0,3.651906967E0,8.778230667E0
1.428985729E0,-1.089343905E0,3.388404369E0,9.401055336E0
1.449081042E0,-1.223490715E0,3.378822565E0,9.635812759E0
1.469176354E0,-1.352846503E0,3.426732063E0,9.453756332E0
1.489271667E0,-1.295355082E0,3.618370295E0,9.223790169E0
1.509366979E0,-1.170790195E0,3.766890049E0,9.463337898E0
1.529462292E0,-1.017479539E0,3.972901106E0,9.971179008E0
1.549557604E0,-1.012688518E0,4.154957294E0,1.010053539E1
1.569652917E0,-9.887337685E-1,4.193284988E0,9.841823578E0
1.589748229E0,-6.773215532E-1,4.193284988E0,9.822659492E0
1.609843542E0,-2.844630778E-1,4.174121380E0,9.702885628E0
1.629938646E0,1.083954051E-1,4.250776768E0,9.578320503E0
1.650033438E0,-1.616948098E-2,4.222031116E0,9.659767151E0
1.670128229E0,-6.246210337E-1,3.843545437E0,1.016760826E1
1.690223490E0,-7.539768815E-1,3.426732063E0,1.085750675E1
1.710318802E0,-2.605082989E-1,3.292585373E0,1.096769810E1
1.730414115E0,2.281693369E-1,3.206347942E0,1.071856880E1
1.750509427E0,4.150166512E-1,3.144065619E0,1.040236568E1
1.770604740E0,-1.598981917E-1,2.914099693E0,1.058921337E1
1.790700052E0,-4.904742241E-1,2.530822992E0,1.101560783E1
1.810795365E0,-4.377737045E-1,2.080473185E0,1.108268166E1
1.830890677E0,1.323501915E-1,1.840925217E0,1.056525803E1
1.850985990E0,5.347905755E-1,2.425421953E0,9.185461998E0
1.871081302E0,4.341804981E-1,2.674551725E0,7.800875664E0
1.891176615E0,-3.036268950E-1,2.439794779E0,7.154096603E0
1.911271927E0,-6.294119954E-1,2.463749647E0,8.150615692E0
1.931367240E0,-8.593779206E-1,1.941535354E0,9.463337898E0
1.951462552E0,-5.048471093E-1,1.567840695E0,1.014844513E1
1.971557865E0,4.611296207E-2,1.553467870E0,9.856196404E0
1.991653177E0,5.108358264E-1,2.066100359E0,8.452445984E0
2.011748490E0,5.012539029E-1,2.545196056E0,7.336153030E0
2.031843802E0,5.395815372E-1,2.914099693E0,6.919339657E0
2.051939115E0,5.827001333E-1,3.168020487E0,7.082232475E0
2.072034427E0,6.641464233E-1,3.417150259E0,7.388853550E0
2.092129740E0,9.180671573E-1,3.541714907E0,7.115768909E0
2.112225052E0,7.647565007E-1,3.747726202E0,7.197215080E0
2.132320365E0,5.443724990E-1,4.097465992E0,7.575700760E0
2.152415677E0,4.611296207E-2,4.159748554E0,8.102705956E0
2.172510990E0,7.785305381E-3,4.289104462E0,8.347044945E0
2.192606302E0,-2.575139515E-2,4.164539337E0,8.883631706E0
2.212701615E0,2.473331541E-1,3.872291088E0,9.626230240E0
2.232796927E0,6.018639803E-1,3.666279793E0,1.090541649E1
2.252892240E0,6.066549420E-1,3.647116184E0,1.202649975E1
2.272987552E0,2.856608033E-1,3.757308006E0,1.191630840E1
2.293082865E0,-2.652992606E-1,3.762099028E0,1.202649975E1
2.313178177E0,-5.335928202E-1,3.733353376E0,1.173425198E1
2.333273490E0,-2.317625433E-1,3.992064953E0,1.229479408E1
2.353368958E0,-3.467455208E-1,3.857918262E0,1.113059139E1
2.373464792E0,-6.725305915E-1,3.824381590E0,9.333982468E0
2.393560625E0,8.030841947E-1,4.289104462E0,9.142343521E0
2.413656094E0,-1.024067104E-1,4.375341415E0,9.223790169E0
2.433751406E0,-2.306246996E0,1.687614679E0,1.014844513E1
2.453846719E0,-3.331511736E0,1.390575290E0,1.315716553E1
2.473942031E0,-1.721750259E0,2.407455891E-1,1.443156052E1
2.494037344E0,-1.295355082E0,3.317737877E-1,1.387101841E1
2.514132656E0,-1.151626348E0,8.923157454E-1,1.108747196E1
2.534227969E0,-2.109817743E0,1.294756174E0,9.190253258E0
2.554323281E0,-2.311038017E0,1.318710923E0,8.869258881E0
2.574418594E0,-2.785342693E0,2.712879419E0,9.353145599E0
2.594513906E0,-5.000561476E-1,7.917056680E-1,7.398435593E0
2.614609219E0,5.347905755E-1,1.931953430E0,6.550436020E0
2.634704531E0,1.191151738E0,2.573941708E0,6.234232903E0
2.654799844E0,9.324400425E-1,2.511659145E0,6.995995045E0
2.674895156E0,5.922820568E-1,2.664969921E0,7.997304916E0
2.694990469E0,3.191975057E-1,2.813489437E0,8.577011108E0
2.715085781E0,1.754688025E-1,3.383613348E0,7.542164326E0
2.735181094E0,-1.796608907E-3,3.613579273E0,6.957667351E0
2.755272917E0,9.402253479E-2,3.862709045E0,6.718119621E0
2.775359323E0,1.802597642E-1,4.059138298E0,6.995995045E0
2.795467708E0,4.725081325E-1,4.327432156E0,8.509937286E0
2.815563021E0,1.133660197E0,4.581352711E0,9.180671692E0
2.835658333E0,1.938541055E0,4.878392220E0,9.046525002E0
2.855753646E0,1.813976169E0,5.117939949E0,9.463337898E0
2.875848958E0,2.106224537E0,4.969420433E0,1.032091904E1
2.895944271E0,3.438110590E0,3.857918262E0,1.129348373E1
2.916039583E0,5.627577782E0,2.875771999E0,1.216064644E1
2.936134896E0,6.470786572E0,2.597896576E0,1.221334743E1
2.956230208E0,4.175918102E0,2.751207113E0,1.215106487E1
2.976325521E0,2.058315039E0,2.655387878E0,1.237623978E1
2.996420833E0,1.028259158E0,2.621851206E0,1.199775410E1
3.016516146E0,1.138451219E0,2.133173704E0,1.197859001E1
3.036611458E0,1.598383069E0,1.227682710E0,1.404349327E1
3.056706771E0,1.780439377E0,8.635700345E-1,1.405786610E1
3.076802083E0,1.411535740E0,1.213309884E0,1.072815037E1
3.096897396E0,6.401916146E-1,1.448066831E0,8.428491592E0
3.116992708E0,2.034360170E0,2.727252245E0,7.130141735E0
3.137088021E0,2.015196323E0,2.181083202E0,7.000785828E0
3.157183333E0,2.211625576E0,1.769060850E0,6.938503742E0
3.177278646E0,2.618856907E0,1.534304023E0,6.737283230E0
3.197373958E0,2.700303078E0,1.227682710E0,6.531272411E0
3.217469271E0,2.872777700E0,1.385784388E0,6.775610924E0
3.237564896E0,2.393682003E0,1.807388544E0,7.000785828E0
3.257660729E0,1.986450553E0,2.324811935E0,7.072650433E0
3.277756563E0,1.545682549E0,2.851817131E0,7.340943813E0
3.297851979E0,1.425908566E0,3.498596430E0,7.891903877E0
3.317947292E0,1.033050179E0,4.178912163E0,8.610548019E0
3.338042604E0,5.731182694E-1,4.763409138E0,9.300445557E0
3.358137917E0,4.772990942E-1,5.280832291E0,9.530411720E0
3.378233229E0,8.126661181E-1,5.702436447E0,9.386682510E0
3.398328542E0,1.018677235E0,6.071340561E0,8.629711151E0
3.418423854E0,1.296552777E0,6.464199066E0,7.829621792E0
3.438519167E0,1.809185147E0,6.411498547E0,7.853576183E0
3.458614479E0,2.192461729E0,6.080922127E0,8.811767578E0
3.478709792E0,1.507354856E0,6.090504169E0,1.008137131E1
3.498805104E0,4.533443153E-1,6.080922127E0,1.067545033E1
3.518900417E0,-1.194744945E0,4.758618355E0,1.119287395E1
3.538995729E0,-2.483512402E0,2.890144825E0,1.214627361E1
3.559091042E0,-2.243964434E0,1.558258772E0,1.430699539E1
3.579186354E0,-2.239173651E0,9.881349206E-1,1.463278103E1
3.599281823E0,-2.296664953E0,9.689710736E-1,1.160968685E1
3.619377656E0,-1.927761316E0,1.380993366E0,6.981622219E0
3.639473490E0,-1.784032702E0,1.711569428E0,4.969420433E0
3.659569167E0,-1.616349101E0,2.243365765E0,5.553916931E0
3.679664479E0,-1.879851818E0,2.602687359E0,7.024740696E0
3.699759792E0,-1.621140122E0,2.880563021E0,6.957667351E0
3.719845521E0,-8.593779206E-1,2.645806074E0,5.932402611E0
3.739948698E0,-1.237863541E0,3.096156120E0,5.151476383E0
3.760046146E0,-1.065389037E0,3.273421526E0,5.295205116E0
3.780141458E0,-5.335928202E-1,3.287794352E0,6.152786732E0
3.800236771E0,8.444061875E-2,3.134483576E0,7.499045372E0
3.820332083E0,7.982932329E-1,3.177602291E0,8.610548019E0
3.840427396E0,1.440281510E0,3.230302811E0,9.650185585E0
3.860522708E0,1.713366032E0,3.168020487E0,1.090541649E1
3.880618021E0,1.698993206E0,3.445895910E0,1.211273766E1
3.900713333E0,8.941123486E-1,3.915409565E0,1.274993420E1
3.920808646E0,-2.413444668E-1,4.667590141E0,1.280742645E1
3.940903958E0,-9.024965167E-1,5.146685600E0,1.224209309E1
3.960999271E0,-1.477411389E0,5.391024590E0,1.200254536E1
3.981094583E0,-1.693004489E0,4.988584042E0,1.283138084E1
4.001190417E0,-9.264513254E-1,5.065239429E0,1.356439686E1
4.021286250E0,-1.180372000E0,4.619680405E0,1.296552753E1
4.041382083E0,-1.501366138E0,3.992064953E0,1.260620594E1
4.061477448E0,-1.764868855E0,2.669760942E0,1.269723415E1
4.081572761E0,-8.354231715E-1,1.615750313E0,1.342066860E1
4.101668073E0,-1.503162831E-1,1.007298708E0,1.318112087E1
4.121763386E0,3.575251698E-1,1.270801425E0,1.018677235E1
4.141858698E0,3.144065440E-1,1.874462008E0,6.972040176E0
4.161954011E0,-1.598981917E-1,2.171501398E0,5.889284134E0
4.182049323E0,-2.940450013E-1,1.999026895E0,6.995995045E0
4.202145573E0,-3.515364826E-1,1.606168389E0,8.984242439E0
4.222234792E0,-2.030168027E-1,1.251637578E0,9.980761528E0
4.242336458E0,2.808698714E-1,9.977167845E-1,9.803496361E0
4.262431771E0,5.874910951E-1,1.309129000E0,7.887113094E0
4.282527083E0,3.174009174E-2,1.850507140E0,7.110978127E0
4.302622396E0,-5.431747437E-1,2.425421953E0,7.029531956E0
4.322717708E0,-3.084178567E-1,2.885353804E0,6.401916504E0
4.342813021E0,-1.137852296E-2,3.575251818E0,6.574390888E0
4.362908333E0,2.569150627E-1,4.116630077E0,6.272560596E0
4.383003646E0,7.360107899E-1,4.701126575E0,5.620990276E0
4.403098958E0,7.887113094E-1,5.247295856E0,5.779091835E0
4.423194271E0,8.653666377E-1,5.668900013E0,6.363588810E0
4.443289740E0,8.893213868E-1,5.870120049E0,7.810457706E0
4.463385573E0,7.599655390E-1,5.937193394E0,8.418909073E0
4.483481406E0,5.539544225E-1,5.898865700E0,8.811767578E0
4.503577240E0,3.191975057E-1,6.085713387E0,1.005741692E1
4.523672552E0,-3.323726356E-1,6.770820141E0,1.194984436E1
4.543767865E0,-1.554066658E0,6.804356575E0,1.275951672E1
4.563863177E0,-2.579331636E0,6.234232903E0,1.381831837E1
4.583958490E0,-3.432121992E0,4.854437351E0,1.463278103E1
4.604053802E0,-3.274020195E0,3.814799547E0,1.419680405E1
4.624149115E0,-2.224800587E0,3.139274597E0,1.236665821E1
4.644244427E0,-1.870269895E0,2.655387878E0,1.034487438E1
4.664339740E0,-2.488303423E0,2.430212975E0,9.017779350E0
4.684435052E0,-3.020099640E0,2.722461462E0,8.735112190E0
4.704530833E0,-2.397275209E0,2.923681498E0,8.500355721E0
4.724626667E0,-1.276191235E0,3.148856640E0,7.379271507E0
4.744722500E0,-1.070180058E0,3.345285892E0,5.903656960E0
4.764818073E0,-1.501366138E0,3.651906967E0,5.491634369E0
4.784913386E0,-1.678631544E0,3.958528280E0,6.219860077E0
4.805008698E0,-1.304936886E0,3.939364433E0,7.168469429E0
4.825104011E0,-5.719205141E-1,3.972901106E0,6.009057999E0
4.845199323E0,7.485870272E-2,4.428041935E0,4.322640896E0
4.865294636E0,7.503836751E-1,4.849646091E0,5.012538910E0
4.885389948E0,6.545644999E-1,5.223340988E0,6.186323166E0
4.905485261E0,4.150166512E-1,5.850956440E0,7.776921272E0
4.925580573E0,8.270389438E-1,5.970730305E0,8.155406952E0
4.945676354E0,1.603173971E0,6.215069294E0,8.380581856E0
4.965772188E0,1.775648475E0,6.813938618E0,8.155406952E0
4.985868021E0,1.607964993E0,7.350525856E0,8.117078781E0
5.005963646E0,1.483400106E0,7.829621792E0,8.222479820E0
5.026058958E0,1.818767071E0,8.246435165E0,9.343564034E0
5.046154271E0,2.570947409E0,8.653666496E0,1.075210571E1
5.066249583E0,1.871467590E0,8.687203407E0,1.132702065E1
5.086344896E0,1.061795831E0,8.802186012E0,1.072336006E1
5.106440208E0,5.156267285E-1,8.126661301E0,1.019635487E1
5.126535521E0,6.785193086E-1,6.737283230E0,9.932851791E0
5.146630833E0,1.516936779E0,5.424561024E0,9.693304062E0
5.166726302E0,2.312235594E0,4.864019394E0,7.805666924E0
5.186822136E0,2.455964327E0,5.199386120E0,5.750346184E0
5.206917969E0,2.202043533E0,5.414979458E0,5.175431252E0
5.227013802E0,2.120597363E0,4.892765045E0,6.392334461E0
5.247109219E0,1.842721820E0,4.111838818E0,8.145824432E0
5.267204531E0,2.005614519E0,3.326122046E0,8.572219849E0
5.287299844E0,2.331399441E0,2.947636366E0,7.930231571E0
5.307395156E0,2.345772266E0,2.914099693E0,6.756447315E0
5.327490469E0,2.111015558E0,3.283003330E0,5.529962063E0
5.347585781E0,1.847512841E0,3.881872892E0,4.811318874E0
5.367681094E0,1.560055375E0,4.255567551E0,4.820900440E0
5.387776458E0,1.387580991E0,4.816109657E0,5.429352283E0
5.407872292E0,1.325298548E0,5.156267643E0,5.506007195E0
5.427968125E0,1.272598028E0,5.697645664E0,5.913239002E0
5.448063958E0,1.195942640E0,6.157577515E0,6.976831436E0
5.468159531E0,1.373208046E0,6.622300625E0,7.503836632E0
5.488254844E0,1.938541055E0,7.101396084E0,7.958977222E0
5.508350156E0,2.364936113E0,7.489463806E0,8.227271080E0
5.528445469E0,2.839241028E0,7.877531052E0,7.733802319E0
5.548540781E0,3.308754683E0,8.299135208E0,8.217689514E0
5.568636094E0,2.911105394E0,9.094434738E0,9.405846596E0
5.588731406E0,1.574428320E0,9.602275848E0,1.046464825E1
5.608826719E0,-1.167795807E-1,9.496874809E0,1.141325760E1
5.628922448E0,-1.860687971E0,8.236852646E0,1.250559616E1
5.649018281E0,-2.148145437E0,6.210278034E0,1.380394554E1
5.669114115E0,-1.712168336E0,4.859228134E0,1.428304100E1
5.689209844E0,-1.688213468E0,4.265149593E0,1.304218292E1
5.709305156E0,-1.688213468E0,3.896245956E0,1.009095383E1
5.729400469E0,-2.291874170E0,3.848336220E0,8.514728546E0
5.749495781E0,-2.694314480E0,3.570460796E0,7.963768482E0
5.769576406E0,-2.004416704E0,3.283003330E0,6.574390888E0
5.789684479E0,-9.504061341E-1,3.206347942E0,5.031702518E0
5.809782604E0,-5.910843015E-1,3.474641562E0,4.083093166E0
5.829877917E0,-7.587678432E-1,4.039974689E0,3.512969255E0
5.849973229E0,-1.209117770E0,4.571770668E0,3.987273932E0
5.870068542E0,-1.271400213E0,4.935883522E0,4.907137871E0
5.890163854E0,-9.072874784E-1,5.070030212E0,4.528652191E0
5.910259167E0,-4.281917810E-1,5.506007195E0,3.618370295E0
5.930354479E0,-5.096380711E-1,6.344424725E0,3.436313868E0
5.950450000E0,-7.012763619E-1,6.938503742E0,4.796945572E0
5.970545833E0,-4.808923304E-1,7.436763287E0,6.392334461E0
5.990641667E0,-3.994460404E-1,7.724220753E0,7.733802319E0
6.010737500E0,8.923157305E-2,8.035633087E0,8.806977272E0
6.030832917E0,1.061795831E0,8.476400375E0,8.854886055E0
6.050928229E0,1.512145877E0,8.902795792E0,8.763857841E0
6.071023542E0,1.483400106E0,9.568738937E0,8.883631706E0
6.091118854E0,1.516936779E0,1.021551800E1,1.010532665E1
6.111214167E0,1.354044199E0,1.021072769E1,1.032091904E1
6.131309479E0,1.229479313E0,1.000950718E1,1.006699848E1
6.151404792E0,8.509937525E-1,9.089643478E0,1.022989082E1
6.171500261E0,5.156267285E-1,7.331362247E0,1.051255798E1
6.191596094E0,1.042631984E0,6.004266739E0,9.707676888E0
6.211691927E0,1.962495804E0,5.256877899E0,7.987723351E0
6.231787761E0,1.962495804E0,5.151476383E0,6.095294952E0
6.251883229E0,1.047423005E0,5.328742027E0,5.874911308E0
6.271978542E0,6.401916146E-1,4.772991180E0,6.272560596E0
6.292073854E0,7.839203477E-1,3.800426722E0,6.521690369E0
6.312169167E0,1.061795831E0,2.928472519E0,6.842684269E0
6.332264479E0,1.679829359E0,2.353557587E0,7.120560169E0
6.352359792E0,1.943331957E0,2.248156548E0,6.928921700E0
6.372455104E0,1.675038338E0,2.837444305E0,6.761238098E0
6.392550469E0,1.401953816E0,3.843545437E0,6.195905209E0
6.412646302E0,9.947224855E-1,4.600516319E0,6.119249821E0
6.432742136E0,3.623161316E-1,5.247295856E0,6.675001144E0
6.452837969E0,3.191975057E-1,5.841374397E0,7.202006340E0
6.472933542E0,5.012539029E-1,6.253396511E0,6.871430397E0
6.493028854E0,1.009095311E0,6.828311443E0,6.670209885E0
6.513124167E0,1.689411283E0,7.441554070E0,7.748175144E0
6.533219479E0,2.144552231E0,7.915858746E0,8.888422966E0
6.553314792E0,2.096642494E0,7.848785400E0,9.161507607E0
6.573410104E0,1.655874491E0,7.781712055E0,9.597484589E0
6.593505417E0,1.052213907E0,8.284762383E0,1.036882877E1
6.613600729E0,4.006437957E-1,8.835722923E0,9.506456375E0
6.633696406E0,-2.096043713E-2,9.084852219E0,8.543474197E0
6.653792240E0,-1.127671480E0,8.485982895E0,9.803496361E0
6.673888073E0,-1.788823605E0,6.813938618E0,1.232353973E1
6.693983854E0,-1.007897615E0,4.883183002E0,1.363147068E1
6.714079167E0,5.874910951E-1,3.618370295E0,1.216064644E1
6.734174479E0,1.071377754E0,3.599206448E0,9.032152176E0
6.754270208E0,-3.659093380E-1,4.471160889E0,7.259497643E0
6.774365625E0,-1.716959238E0,4.998166084E0,6.871430397E0
6.794460938E0,-1.999625683E0,5.017329693E0,6.282142639E0
6.814556250E0,-1.491784215E0,4.864019394E0,5.376651764E0
6.834651563E0,-8.258412480E-1,4.701126575E0,4.523861408E0
6.854746875E0,-7.443949580E-1,4.720290661E0,4.725081444E0
6.874842188E0,-3.084178567E-1,4.729872227E0,5.161058426E0
6.894937500E0,1.257626247E-2,4.749036312E0,5.611408710E0
6.915032813E0,2.712879479E-1,4.859228134E0,5.759928226E0
6.935128594E0,3.766889870E-1,5.165849686E0,5.295205116E0
6.955224427E0,2.617060244E-1,5.573081017E0,5.515589237E0
6.975320261E0,1.736721955E-2,6.109668255E0,6.406707287E0
6.995415886E0,-4.186098874E-1,6.569600105E0,7.906276703E0
7.015511198E0,-1.551072299E-1,6.871430397E0,9.544784546E0
7.035606511E0,5.347905755E-1,7.455926895E0,1.027780056E1
7.055701823E0,9.516038299E-1,7.978141308E0,1.111142731E1
7.075797136E0,1.080959678E0,8.131451607E0,1.181569767E1
7.095892448E0,1.195942640E0,8.050005913E0,1.253434181E1
7.115987761E0,1.598383069E0,8.121870041E0,1.194984436E1
7.136083073E0,1.579219222E0,8.485982895E0,1.022989082E1
7.156178594E0,8.653666377E-1,8.385373116E0,8.327880859E0
7.176274427E0,-2.892540395E-1,7.384062767E0,8.270389557E0
7.196370261E0,2.185874134E-1,5.659317970E0,9.070479393E0
7.216466094E0,1.584010243E0,4.787364006E0,7.815248966E0
7.236561458E0,2.019987345E0,4.921510696E0,5.165849686E0
7.256656771E0,1.301343679E0,5.247295856E0,3.512969255E0
7.276752083E0,6.976830959E-1,4.983793259E0,4.308268070E0
7.296847396E0,7.695474625E-1,4.169330597E0,6.243814945E0
7.316942708E0,1.009095311E0,3.498596430E0,6.579181671E0
7.337038021E0,1.195942640E0,2.832653284E0,6.219860077E0
7.357133333E0,1.368417144E0,2.526032209E0,6.009057999E0
7.377228646E0,1.435490489E0,2.540405035E0,6.349215984E0
7.397324375E0,1.392371893E0,2.832653284E0,7.149305820E0
7.417420208E0,1.301343679E0,3.484223604E0,7.029531956E0
7.437516042E0,1.210315585E0,4.442414761E0,6.325261116E0
7.457611719E0,9.468128681E-1,5.343114853E0,6.267769814E0
7.477707031E0,7.455927134E-1,6.066549301E0,6.833102703E0
7.497802344E0,6.976830959E-1,6.401916504E0,8.462027550E0
7.517897656E0,1.013886333E0,6.703746796E0,1.026821899E1
7.537992969E0,1.473818183E0,7.297825336E0,1.069940472E1
7.558088281E0,1.756484628E0,7.666728973E0,1.021072769E1
7.578183594E0,1.675038338E0,7.752966404E0,1.034008312E1
7.598278906E0,1.392371893E0,7.848785400E0,1.084792423E1
7.618374219E0,1.286970854E0,8.222479820E0,1.114975452E1
7.638469948E0,7.964966446E-2,8.016469002E0,1.077126884E1
7.658565781E0,-1.625931025E0,7.326570988E0,1.082396984E1
7.678661615E0,-2.914698601E0,5.424561024E0,1.300864601E1
7.698757292E0,-2.162518263E0,3.220721006E0,1.571553707E1
7.718852604E0,1.227682754E-1,2.147546530E0,1.416805744E1
7.738947917E0,1.033050179E0,2.003817797E0,1.058442211E1
7.759043229E0,-2.365535051E-1,2.439794779E0,8.198525429E0
7.779138542E0,-1.328891754E0,2.942845345E0,7.757757187E0
7.799233854E0,-1.084552884E0,3.239884615E0,6.651046276E0
7.819329167E0,-1.024067104E-1,3.326122046E0,5.860538483E0
7.839424479E0,4.054347575E-1,3.263839483E0,5.989893913E0
7.859519792E0,4.437623918E-1,3.335703850E0,6.473780632E0
7.879615417E0,-1.742710620E-1,3.599206448E0,6.751656055E0
7.899711250E0,-6.294119954E-1,4.030392647E0,6.114459038E0
7.919807083E0,-6.437848806E-1,4.404087067E0,5.141894817E0
7.939902813E0,-4.808923304E-1,4.605307579E0,4.332222939E0
7.959998125E0,-1.263614893E-1,4.964629173E0,4.437623978E0
7.980093438E0,-9.282479435E-2,5.352696896E0,5.855747223E0
8.000188750E0,-1.024067104E-1,5.769510269E0,7.776921272E0
8.020284063E0,1.227682754E-1,6.152786732E0,8.898005486E0
8.040379375E0,3.623161316E-1,6.684582710E0,9.444173813E0
8.060474688E0,5.204176903E-1,7.173260689E0,9.645394325E0
8.080570000E0,3.335703909E-1,7.551745892E0,9.990343094E0
8.100665313E0,3.431523144E-1,7.863158226E0,1.104914474E1
8.120760833E0,1.109705448E0,8.538682938E0,1.215106487E1
8.140856667E0,7.360107899E-1,8.989033699E0,1.248164082E1
8.160952500E0,-5.928809568E-2,9.137553215E0,1.147554016E1
8.181048333E0,-5.096380711E-1,7.978141308E0,1.148512173E1
8.201143646E0,-6.587565877E-3,5.951566219E0,1.189235306E1
8.221238958E0,1.497772932E0,4.533442974E0,1.101560783E1
8.241334271E0,2.278698921E0,4.164539337E0,8.917168617E0
8.261429583E0,2.158925056E0,4.145375729E0,6.698955536E0
8.281524896E0,1.928959131E0,3.910618782E0,5.999475956E0
8.301620208E0,1.612755895E0,3.383613348E0,6.301306248E0
8.321715521E0,1.358835220E0,2.803907633E0,6.900176048E0
8.341810833E0,1.057004929E0,2.267320395E0,6.492944717E0
8.361906146E0,1.885840535E0,2.521241188E0,5.520380497E0
8.382001927E0,2.796122313E0,3.096156120E0,5.122730732E0
8.402097761E0,3.160235167E0,3.450686932E0,5.161058426E0
8.422193594E0,3.165025949E0,3.944155455E0,4.413669109E0
8.442289167E0,2.628438950E0,4.384923458E0,3.685443640E0
8.462384479E0,2.350563288E0,4.907137871E0,4.188494205E0
8.482479792E0,2.034360170E0,5.232923031E0,6.095294952E0
8.502575104E0,2.005614519E0,5.357487679E0,7.479881763E0
8.522670417E0,2.398472786E0,5.376651764E0,9.492083549E0
8.542765729E0,2.968596697E0,5.649735928E0,1.123120117E1
8.562861042E0,3.438110590E0,5.985103130E0,1.190193558E1
8.582956354E0,3.366246223E0,6.468989849E0,1.221813869E1
8.603051667E0,2.987760544E0,7.206797123E0,1.222772026E1
8.623147083E0,2.441591501E0,8.318299294E0,1.221813869E1
8.643242917E0,1.248643160E0,9.027360916E0,1.088625240E1
8.663338750E0,-5.288019180E-1,9.012988091E0,9.381891251E0
8.683434583E0,-1.994834781E0,7.848785400E0,1.013886261E1
8.703529948E0,-1.956507087E0,5.879702091E0,1.198817253E1
8.723625261E0,-6.246210337E-1,4.121420860E0,1.212711048E1
8.743720573E0,4.198076129E-1,3.292585373E0,9.712468147E0
8.763815886E0,8.444061875E-2,2.981173038E0,7.307407379E0
8.783911198E0,-8.881236911E-1,2.741625309E0,6.430662155E0
8.804006511E0,-1.707377315E0,2.918890715E0,8.370999336E0
8.824101823E0,-1.616349101E0,3.182393312E0,8.749485016E0
8.844197136E0,-1.228281617E0,3.354867697E0,7.115768909E0
8.864292448E0,-1.113298655E0,3.618370295E0,5.534753323E0
8.884388177E0,-1.319309831E0,3.924991608E0,5.180222511E0
8.904484011E0,-1.257027388E0,4.212449074E0,5.290414333E0
8.924579844E0,-1.022270441E0,4.533442974E0,5.443725109E0
8.944675417E0,-6.485758424E-1,4.816109657E0,4.883183002E0
8.964770729E0,-4.377737045E-1,5.429352283E0,4.049556255E0
8.984866042E0,-2.461354136E-1,5.937193394E0,4.533442974E0
9.004961354E0,3.575251698E-1,6.009057999E0,6.756447315E0
9.025056667E0,6.881012321E-1,6.224650860E0,9.583111763E0
9.045151979E0,1.133660197E0,6.622300625E0,1.088625240E1
9.065247292E0,1.286970854E0,7.072650433E0,1.011969948E1
9.085342604E0,1.076168776E0,7.676311016E0,9.175880432E0
9.105437917E0,7.264288664E-1,8.318299294E0,8.591383934E0
9.125533333E0,1.219897389E0,8.763857841E0,9.003406525E0
9.145629167E0,1.310925603E0,8.883631706E0,9.539993286E0
9.165725000E0,8.989033103E-1,8.715949059E0,9.262117386E0
9.185820833E0,3.479432464E-1,8.370999336E0,8.864468575E0
9.205916198E0,2.856608033E-1,7.384062767E0,9.573530197E0
9.226011511E0,6.881012321E-1,6.042594433E0,1.082876110E1
9.246106823E0,1.492982030E0,5.137103558E0,1.066107750E1
9.266200938E0,2.388890982E0,4.777781963E0,9.118389130E0
9.286296511E0,2.465546370E0,3.992064953E0,8.303926468E0
9.306393542E0,2.848822832E0,3.551296949E0,8.519519806E0
9.326488854E0,3.136280298E0,3.407568216E0,8.442864418E0
9.346584167E0,2.944642067E0,3.465059757E0,6.972040176E0
9.366679479E0,2.470337152E0,3.747726202E0,5.635363102E0
9.386774792E0,1.655874491E0,4.212449074E0,5.985103130E0
9.406870104E0,1.037841082E0,4.399296284E0,7.005577087E0
9.426965417E0,1.090541601E0,4.212449074E0,7.451136112E0
9.447060729E0,1.430699587E0,4.025601864E0,7.273870468E0
9.467156042E0,1.047423005E0,4.528652191E0,6.746865273E0
9.487251354E0,4.677171707E-1,5.371860504E0,6.818729877E0
9.507346979E0,-1.796608907E-3,6.124041080E0,7.005577087E0
9.527442813E0,-9.761574864E-2,6.473780632E0,7.173260689E0
9.547538646E0,6.527678668E-2,6.560018063E0,7.843994617E0
9.567634323E0,3.144065440E-1,6.464199066E0,8.160197258E0
9.587729636E0,5.204176903E-1,6.497735500E0,7.743384361E0
9.607824948E0,6.833102703E-1,6.512108326E0,7.642774105E0
9.627920261E0,1.334880471E0,6.560018063E0,7.800875664E0
9.648015573E0,2.513455868E0,7.101396084E0,8.083541870E0
9.668110886E0,2.657184601E0,7.532582283E0,6.995995045E0
9.688206198E0,1.248643160E0,7.839203358E0,6.598345757E0
9.708301511E0,-7.683497667E-1,6.861848354E0,9.372309685E0
9.728396823E0,-9.312422872E-1,5.161058426E0,1.365542507E1
9.748492136E0,5.731182694E-1,3.699816704E0,1.506396675E1
9.768587813E0,1.809185147E0,3.575251818E0,1.220376587E1
9.788683646E0,1.095332623E0,4.035183430E0,9.918478966E0
9.808779479E0,-5.144290328E-1,4.245985508E0,1.061316776E1
9.828875104E0,-1.688213468E0,4.380132675E0,1.140367603E1
9.848970417E0,-1.338473678E0,4.317850113E0,9.645394325E0
9.869065729E0,-6.533667445E-1,4.087883949E0,7.106186867E0
9.889161042E0,-2.940450013E-1,3.987273932E0,5.338324070E0
9.909256354E0,-6.887000799E-2,4.083093166E0,4.595725536E0
9.929351667E0,2.856608033E-1,4.317850113E0,4.619680405E0
9.949446979E0,6.737283468E-1,4.921510696E0,4.897555828E0
9.969542292E0,1.004304409E0,5.506007195E0,5.170640469E0
9.989637604E0,1.234270334E0,5.975521088E0,5.252086639E0
1.000973292E1,1.373208046E0,6.363588810E0,6.315679073E0
1.002982854E1,1.009095311E0,6.478571892E0,8.131451607E0
1.004992438E1,2.042145431E-1,6.425871372E0,1.008137131E1
1.007002021E1,-2.940450013E-1,6.435452938E0,1.178695202E1
1.009011589E1,-2.509263754E-1,6.377961636E0,1.215585613E1
1.011021120E1,-2.365535051E-1,6.675001144E0,1.142283916E1
1.013030651E1,-5.144290328E-1,7.077441216E0,1.053651237E1
1.015040182E1,-4.090279639E-1,7.393644333E0,1.003346157E1
1.017049714E1,1.323501915E-1,7.594864845E0,9.468129158E0
1.019059245E1,6.833102703E-1,7.369689941E0,8.998615265E0
1.021068776E1,1.425908566E0,6.933712482E0,8.763857841E0
1.023078307E1,1.756484628E0,5.985103130E0,9.166298866E0
1.025087839E1,1.952913880E0,5.534753323E0,9.199835777E0
1.027097370E1,1.852303743E0,5.702436447E0,8.093124390E0
1.029106922E1,1.545682549E0,5.831792355E0,6.497735500E0
1.031116505E1,5.252086520E-1,5.659317970E0,5.242504597E0
1.033126089E1,-9.282479435E-2,5.534753323E0,5.898865700E0
1.035135667E1,1.419321001E-1,4.988584042E0,6.631882191E0
1.037145198E1,4.964629412E-1,4.226821899E0,6.689373970E0
1.039154729E1,9.755586386E-1,3.627952337E0,6.071340561E0
1.041164260E1,1.377999067E0,3.603997469E0,5.031702518E0
1.043173792E1,1.809185147E0,4.241194725E0,4.293895245E0
1.045183323E1,1.737320781E0,5.060448647E0,4.907137871E0
1.047192854E1,1.061795831E0,5.721600533E0,6.248605728E0
1.049202385E1,4.437623918E-1,6.100086212E0,7.556537151E0
1.051211917E1,7.887113094E-1,6.042594433E0,7.738593578E0
1.053221448E1,1.397162914E0,6.138413906E0,6.804356575E0
1.055230990E1,1.751693726E0,6.320470333E0,7.293034554E0
1.057240573E1,1.550473452E0,6.502526283E0,9.803496361E0
1.059250156E1,1.171987891E0,6.866639137E0,1.199775410E1
1.061259740E1,1.133660197E0,6.866639137E0,1.145637608E1
1.063269276E1,8.462027907E-1,6.804356575E0,1.040236568E1
1.065278807E1,1.090541601E0,7.340943813E0,9.554366112E0
1.067288339E1,5.060448647E-1,7.590073586E0,8.414118767E0
1.069297870E1,-2.748811543E-1,7.618819714E0,7.489463806E0
1.071307401E1,-1.036643386E0,6.617509365E0,8.830931664E0
1.073316932E1,-9.695699215E-1,5.146685600E0,1.107789040E1
1.075326464E1,-8.324287832E-2,4.121420860E0,1.229958439E1
1.077335995E1,3.144065440E-1,3.733353376E0,1.101560783E1
1.079345526E1,-2.700901926E-1,3.508178234E0,1.040236568E1
1.081355057E1,-1.300145984E0,3.541714907E0,9.942433357E0
1.083364641E1,-1.889433742E0,3.819590569E0,1.011011696E1
1.085374224E1,-1.544484735E0,3.848336220E0,8.715949059E0
1.087383807E1,-5.671295524E-1,3.680652857E0,6.727701664E0
1.089393354E1,1.179773211E-1,3.666279793E0,5.290414333E0
1.091402885E1,3.144065440E-1,3.848336220E0,4.787364006E0
1.093412417E1,3.766889870E-1,4.183703423E0,5.084403038E0
1.095421948E1,5.635363460E-1,4.456788063E0,4.959838390E0
1.097431479E1,8.126661181E-1,4.811318874E0,4.428041935E0
1.099441010E1,1.215106487E0,5.204176903E0,4.480742455E0
1.101450542E1,1.655874491E0,5.391024590E0,4.816109657E0
1.103460073E1,1.636710763E0,5.616199493E0,5.884492874E0
1.105469604E1,1.296552777E0,6.023430824E0,7.537373066E0
1.107479135E1,1.181569815E0,6.837893486E0,9.123180389E0
1.109488714E1,1.804394245E0,7.599655628E0,8.375790596E0
1.111498297E1,1.943331957E0,8.198525429E0,9.539993286E0
1.113507880E1,1.023468256E0,8.394954681E0,1.307092857E1
1.115517432E1,9.611857533E-1,8.658456802E0,1.419680405E1
1.117526964E1,1.401953816E0,9.017779350E0,1.189235306E1
1.119536495E1,1.152824044E0,8.869258881E0,1.017719078E1
1.121546026E1,4.485533535E-1,7.863158226E0,1.129348373E1
1.123555557E1,9.420219660E-1,6.052176476E0,1.158573151E1
1.125565089E1,2.072687864E0,5.276041508E0,8.347044945E0
1.127574620E1,2.815286160E0,5.573081017E0,5.534753323E0
1.129584151E1,2.427218676E0,5.788673878E0,4.202867031E0
1.131593682E1,1.382789969E0,5.515589237E0,4.634053230E0
1.133603214E1,4.533443153E-1,4.911928654E0,5.438933849E0
1.135612792E1,1.419321001E-1,3.939364433E0,5.577871799E0
1.137622375E1,4.102256894E-1,3.081783056E0,5.434143066E0
1.139631958E1,7.791293859E-1,2.454167843E0,5.424561024E0
1.141641510E1,8.749485612E-1,2.343975782E0,5.597035408E0
1.143651042E1,9.707676768E-1,2.320020914E0,6.588763714E0
1.145660573E1,9.947224855E-1,2.717670441E0,7.537373066E0
1.147670104E1,1.258225083E0,3.594415665E0,7.417599201E0
1.149679635E1,1.066586852E0,4.907137871E0,6.617509365E0
1.151689167E1,1.104914427E0,6.713328838E0,5.534753323E0
1.153698698E1,1.627128839E0,7.556537151E0,6.574390888E0
1.155708229E1,2.307444811E0,7.633192539E0,1.139409351E1
1.157717760E1,2.776958466E0,7.834412575E0,1.374166298E1
1.159727292E1,2.570947409E0,8.073960304E0,1.291282749E1
1.161736870E1,1.449863434E0,8.418909073E0,1.177257919E1
1.163746453E1,4.102256894E-1,8.759067535E0,1.115933704E1
1.165756036E1,3.174009174E-2,8.749485016E0,9.908897400E0
1.167765589E1,-5.144290328E-1,8.404536247E0,9.520829201E0
1.169775120E1,-9.168694019E-1,6.972040176E0,1.039278412E1
1.171784651E1,-1.233072639E0,5.218550205E0,1.109705448E1
1.173794182E1,-1.118089557E0,3.723771334E0,1.116891861E1
1.175803714E1,-9.551970959E-1,3.345285892E0,9.032152176E0
1.177813245E1,-1.348055601E0,3.618370295E0,6.607927322E0
1.179822776E1,-1.889433742E0,4.154957294E0,4.787364006E0
1.181832307E1,-1.851106048E0,4.662798882E0,5.237713814E0
1.183841839E1,-1.161208272E0,4.662798882E0,6.689373970E0
1.185851370E1,-1.982258558E-1,4.418460369E0,7.412808418E0
1.187860953E1,1.036044434E-1,4.475951672E0,7.173260689E0
1.189870537E1,-4.090279639E-1,4.796945572E0,6.248605728E0
1.191880120E1,-1.051016212E0,5.036493778E0,5.956357479E0
1.193889667E1,-9.504061341E-1,5.165849686E0,5.779091835E0
1.195899198E1,-1.646891534E-1,5.117939949E0,4.705917835E0
1.197908729E1,4.964629412E-1,5.405397415E0,4.236403942E0
1.199918260E1,1.263016105E0,5.740764141E0,4.830482483E0
1.201927792E1,2.503874063E0,5.745555401E0,6.722910404E0
1.203937323E1,3.577048302E0,5.688063622E0,8.763857841E0
1.205946854E1,2.906314373E0,6.162368774E0,1.036882877E1
1.207956385E1,2.575738192E0,7.039113522E0,1.163843250E1
1.209965917E1,2.508664846E0,7.101396084E0,1.189714432E1
1.211975453E1,2.005614519E0,7.987723351E0,1.092457962E1
1.213985037E1,1.416326642E0,8.965078354E0,9.348355293E0
1.215994620E1,8.701575994E-1,9.616648674E0,8.591383934E0
1.218004203E1,6.737283468E-1,9.559157372E0,8.198525429E0
1.220013745E1,4.054347575E-1,9.104016304E0,7.752966404E0
1.222023276E1,3.335703909E-1,8.509937286E0,7.240334034E0
1.224032807E1,1.210315585E0,7.484672546E0,7.240334034E0
1.226042339E1,1.952913880E0,6.373170853E0,7.637983322E0
1.228051870E1,1.976868629E0,5.769510269E0,7.039113522E0
1.230061401E1,1.191151738E0,5.443725109E0,6.449825764E0
1.232070932E1,1.080959678E0,5.367069721E0,6.603136539E0
1.234080464E1,1.579219222E0,4.523861408E0,6.531272411E0
1.236089995E1,2.101433516E0,3.757308006E0,6.124041080E0
1.238099536E1,2.379309177E0,3.335703850E0,5.587453842E0
1.240109120E1,2.029569149E0,3.230302811E0,6.104876995E0
1.242118703E1,9.803496003E-1,3.948946476E0,7.096605301E0
1.244128287E1,-1.886439323E-1,4.634053230E0,7.115768909E0
1.246137823E1,-8.066774011E-1,5.060448647E0,6.708537579E0
1.248147354E1,-1.309727907E0,5.343114853E0,6.665419102E0
1.250156885E1,-1.424710870E0,5.740764141E0,7.384062767E0
1.252166417E1,-1.098925829E0,6.277351379E0,8.428491592E0
1.254175948E1,-1.046225309E0,6.622300625E0,8.529101372E0
1.256185479E1,-1.113298655E0,7.019949913E0,8.150615692E0
1.258195010E1,-1.132462502E0,7.312198162E0,8.131451607E0
1.260204542E1,-1.300145984E0,7.551745892E0,7.618819714E0
1.262214073E1,-1.472620487E0,7.896695137E0,6.928921700E0
1.264223635E1,-1.419919848E0,7.968559265E0,7.173260689E0
1.266233219E1,-6.485758424E-1,7.772130013E0,8.294344902E0
1.268242802E1,-1.167795807E-1,8.107497215E0,7.738593578E0
1.270252370E1,-8.450050354E-1,8.035633087E0,6.071340561E0
1.272261901E1,-3.044054270E0,7.906276703E0,7.398435593E0
1.274271432E1,-3.230901718E0,6.186323166E0,1.110184574E1
1.276280964E1,-1.961298108E0,4.490324497E0,1.392371941E1
1.278290495E1,-3.419545591E-1,3.757308006E0,1.279784393E1
1.280300026E1,-4.491522163E-2,3.738144159E0,9.640603065E0
1.282309557E1,-1.295355082E0,4.408878326E0,8.476400375E0
1.284319089E1,-2.852416039E0,4.744245052E0,9.051315308E0
1.286328620E1,-3.130291700E0,4.634053230E0,8.936332703E0
1.288338151E1,-3.230901718E0,4.346595764E0,7.527791500E0
1.290347734E1,-3.336302757E0,4.279522419E0,6.200695992E0
1.292357318E1,-3.259647369E0,4.284313202E0,5.055657387E0
1.294366901E1,-2.723060131E0,4.327432156E0,4.293895245E0
1.296376448E1,-1.669049621E0,4.428041935E0,4.111838818E0
1.298385979E1,-5.048471093E-1,4.614889622E0,3.704607487E0
1.300395510E1,6.354007125E-1,4.931092739E0,3.896245956E0
1.302405042E1,1.325298548E0,5.410188198E0,4.734663486E0
1.304414573E1,1.253434181E0,5.908447742E0,5.712018490E0
1.306424104E1,1.009095311E0,6.468989849E0,7.120560169E0
1.308433635E1,6.449825764E-1,6.967249393E0,8.529101372E0
1.310443167E1,4.389714301E-1,7.221169949E0,8.883631706E0
1.312452698E1,2.521241307E-1,7.412808418E0,1.085750675E1
1.314462255E1,2.569150627E-1,7.436763287E0,1.364584351E1
1.316471839E1,7.647565007E-1,7.599655628E0,1.442676926E1
1.318481422E1,6.689373851E-1,7.805666924E0,1.216543770E1
1.320490995E1,-4.970617965E-2,8.169779778E0,1.060358620E1
1.322500526E1,-5.767114758E-1,7.451136112E0,1.042632008E1
1.324510057E1,-1.167795807E-1,6.325261116E0,1.036403751E1
1.326519589E1,3.383613527E-1,5.678482056E0,8.945914268E0
1.328529120E1,8.749485612E-1,5.333532810E0,8.399745941E0
1.330538651E1,1.334880471E0,5.017329693E0,8.610548019E0
1.332548182E1,1.694202185E0,4.365759850E0,8.711157799E0
1.334557714E1,1.536100626E0,3.551296949E0,8.303926468E0
1.336567245E1,1.425908566E0,3.096156120E0,8.265598297E0
1.338576776E1,1.181569815E0,3.043455601E0,7.326570988E0
1.340586354E1,6.833102703E-1,3.287794352E0,6.138413906E0
1.342595938E1,-1.215705350E-1,3.685443640E0,5.113149166E0
1.344605521E1,-1.151626348E0,4.260358810E0,4.528652191E0
1.346615078E1,-1.899015665E0,5.309578419E0,4.552607059E0
1.348624609E1,-2.124190569E0,6.334843159E0,4.629262447E0
1.350634141E1,-2.172100067E0,6.603136539E0,6.449825764E0
1.352643672E1,-1.678631544E0,6.114459038E0,8.941123962E0
1.354653203E1,-1.597185373E0,5.716809750E0,9.908897400E0
1.356662734E1,-1.592394352E0,5.874911308E0,9.769959450E0
1.358672266E1,-1.276191235E0,6.076131344E0,9.041733742E0
1.360681797E1,-1.122880578E0,6.540853977E0,8.428491592E0
1.362691328E1,-8.977055550E-1,6.794775009E0,8.720739365E0
1.364700865E1,-1.165999174E0,7.264288902E0,8.754276276E0
1.366710448E1,-2.751806021E0,7.824830532E0,7.077441216E0
1.368720031E1,-4.466968536E0,7.973350525E0,8.289553642E0
1.370729615E1,-3.858517170E0,6.454617023E0,1.145637608E1
1.372739156E1,-1.199535847E0,4.653216839E0,1.247205925E1
1.374748688E1,7.791293859E-1,4.063929558E0,1.033050156E1
1.376758245E1,1.205524564E0,4.107048035E0,8.639293671E0
1.378767677E1,6.641464233E-1,4.255567551E0,8.634502411E0
1.380777255E1,-7.366096228E-2,4.188494205E0,9.573530197E0
1.382786839E1,-2.940450013E-1,3.915409565E0,9.563947678E0
1.384796422E1,-1.359434128E-1,3.671070814E0,8.356626511E0
1.386805974E1,-5.623385906E-1,3.810008526E0,6.684582710E0
1.388815505E1,-1.180372000E0,4.279522419E0,5.745555401E0
1.390825036E1,-1.333682656E0,4.643635273E0,5.070030212E0
1.392834568E1,-9.024965167E-1,5.046075344E0,4.260358810E0
1.394844099E1,-7.156491876E-1,5.266459465E0,4.260358810E0
1.396853630E1,-3.946550786E-1,5.611408710E0,5.620990276E0
1.398863162E1,-2.078077644E-1,6.056967258E0,6.526481152E0
1.400872693E1,-6.677396297E-1,6.344424725E0,6.713328838E0
1.402882224E1,-1.496575236E0,6.742074490E0,9.209417343E0
1.404891781E1,-1.348055601E0,7.077441216E0,1.093895245E1
1.406901365E1,-1.731332064E0,7.762548447E0,1.185881615E1
1.408910948E1,-2.689523458E0,8.318299294E0,1.238103104E1
1.410920526E1,-3.408167124E0,8.533892632E0,1.212231922E1
1.412930057E1,-3.125500679E0,8.878841400E0,1.222292900E1
1.414939589E1,-2.761387825E0,9.012988091E0,1.141325760E1
1.416949120E1,-2.833252192E0,8.620129585E0,9.262117386E0
1.418958651E1,-3.077590942E0,7.403226376E0,7.690683842E0
1.420968182E1,-2.497885227E0,6.176741600E0,7.067859650E0
1.422977714E1,-1.041434288E0,5.539544106E0,5.367069721E0
1.424987245E1,7.006774843E-2,5.367069721E0,3.292585373E0
1.426996776E1,1.083954051E-1,5.429352283E0,2.166710377E0
1.429006307E1,-8.977055550E-1,5.616199493E0,3.671070814E0
1.431015885E1,-1.597185373E0,5.309578419E0,6.047385693E0
1.433025469E1,-1.683422565E0,4.600516319E0,6.876221180E0
1.435035052E1,-1.228281617E0,3.987273932E0,7.091814041E0
1.437044609E1,-1.113298655E0,3.766890049E0,7.360107899E0
1.439054141E1,-8.881236911E-1,3.805217743E0,7.010367870E0
1.441063672E1,-4.665194452E-1,4.068720341E0,7.235542774E0
1.443073203E1,-2.269715965E-1,4.739454269E0,6.349215984E0
1.445082734E1,-3.515364826E-1,5.458097935E0,5.855747223E0
1.447092266E1,-5.479657054E-1,6.176741600E0,5.539544106E0
1.449101797E1,-8.545869589E-1,6.972040176E0,5.429352283E0
1.451111328E1,-1.122880578E0,7.618819714E0,5.371860504E0
1.453120859E1,-1.165999174E0,8.059587479E0,6.076131344E0
1.455130417E1,-1.060598135E0,8.117078781E0,7.206797123E0
1.457140000E1,-9.168694019E-1,8.040423393E0,9.209417343E0
1.459149583E1,-6.294119954E-1,8.136242867E0,1.057963085E1
1.461159162E1,-6.773215532E-1,8.452445984E0,1.099644470E1
1.463168693E1,-2.047535181E0,8.107497215E0,1.050297546E1
1.465178224E1,-4.131601810E0,7.561327934E0,1.076647854E1
1.467187755E1,-6.076730251E0,6.392334461E0,1.192109871E1
1.469197286E1,-6.215667725E0,4.658008099E0,1.287929058E1
1.471206818E1,-4.543623924E0,3.671070814E0,1.267807007E1
1.473216349E1,-3.475240469E0,2.947636366E0,1.121203709E1
1.475225880E1,-3.647714853E0,2.909308672E0,9.070479393E0
1.477235516E1,-3.872889996E0,3.632743120E0,7.824830532E0
1.479245047E1,-3.748325109E0,4.169330597E0,6.550436020E0
1.481254578E1,-3.020099640E0,4.250776768E0,5.194595337E0
1.483264109E1,-2.143354416E0,4.327432156E0,4.226821899E0
1.485273641E1,-1.506157160E0,4.456788063E0,3.838754416E0
1.487283172E1,-1.348055601E0,4.643635273E0,4.035183430E0
1.489292703E1,-1.094134808E0,4.935883522E0,4.370550632E0
1.491302234E1,-1.094134808E0,5.041284561E0,4.509488583E0
1.493311771E1,-1.295355082E0,5.391024590E0,5.391024590E0
1.495321354E1,-1.309727907E0,5.745555401E0,6.042594433E0
1.497330938E1,-1.276191235E0,6.018640041E0,6.555226803E0
1.499340521E1,-1.300145984E0,6.334843159E0,7.676311016E0
1.501350068E1,-1.199535847E0,6.732492447E0,9.003406525E0
1.503359599E1,-9.551970959E-1,7.005577087E0,9.678931236E0
1.505369130E1,-8.785417676E-1,7.163678646E0,9.990343094E0
1.507378662E1,-1.132462502E0,7.484672546E0,1.011490822E1
1.509388193E1,-9.360332489E-1,7.987723351E0,1.035445595E1
1.511397724E1,-8.066774011E-1,8.361417770E0,9.908897400E0
1.513407255E1,-1.113298655E0,8.265598297E0,9.573530197E0
1.515416787E1,-1.372010350E0,7.637983322E0,1.018677235E1
1.517426328E1,-1.645094872E0,6.449825764E0,1.100602627E1
1.519435912E1,-1.170790195E0,5.884492874E0,1.154740429E1
1.521445495E1,1.467230618E-1,5.635363102E0,9.065688133E0
1.523455078E1,6.354007125E-1,5.299996376E0,6.751656055E0
1.525464620E1,4.725081325E-1,5.098775864E0,6.162368774E0
1.527474151E1,2.215817571E-2,4.653216839E0,7.297825336E0
1.529483682E1,-2.030168027E-1,4.092675209E0,7.992514133E0
1.531493214E1,-1.934348941E-1,3.618370295E0,7.374480724E0
1.533502745E1,-6.407905370E-2,3.350076675E0,6.607927322E0
1.535512276E1,3.174009174E-2,3.354867697E0,5.735973358E0
1.537521807E1,8.923157305E-2,3.474641562E0,5.438933849E0
1.539531339E1,2.994348295E-3,3.728562355E0,5.414979458E0
1.541540896E1,-1.311524510E-1,4.135793686E0,5.271250725E0
1.543550479E1,-3.227907419E-1,4.696335793E0,5.520380497E0
1.545560062E1,-6.294119954E-1,5.204176903E0,5.879702091E0
1.547569646E1,-7.731407285E-1,5.688063622E0,6.526481152E0
1.549579177E1,-9.839428067E-1,6.114459038E0,7.374480724E0
1.551588708E1,-8.306322098E-1,6.536063194E0,8.131451607E0
1.553598240E1,-6.916944385E-1,6.732492447E0,9.262117386E0
1.555607771E1,-9.791518450E-1,6.900176048E0,1.005741692E1
1.557617302E1,-1.395965099E0,7.230751991E0,1.068024063E1
1.559626833E1,-1.951716185E0,7.748175144E0,1.107309914E1
1.561636365E1,-2.852416039E0,7.542164326E0,1.134618378E1
1.563645896E1,-3.848935127E0,6.948085308E0,1.194505405E1
1.565655458E1,-4.898154736E0,5.716809750E0,1.322423935E1
1.567665042E1,-4.443013668E0,4.509488583E0,1.399079227E1
1.569674625E1,-2.828461409E0,3.575251818E0,1.288887215E1
1.571684203E1,-2.421229839E0,2.684133768E0,1.128390121E1
1.573693734E1,-2.905116558E0,2.684133768E0,9.832242012E0
1.575703266E1,-3.590223551E0,3.091365099E0,8.600965500E0
1.577712797E1,-3.288393259E0,3.603997469E0,7.417599201E0
1.579722328E1,-2.186473131E0,3.632743120E0,6.306097031E0
1.581731859E1,-1.051016212E0,3.551296949E0,5.577871799E0
1.583741391E1,-3.946550786E-1,3.570460796E0,5.165849686E0
1.585750922E1,-3.371635973E-1,3.623161316E0,5.333532810E0
1.587760453E1,-1.886439323E-1,3.766890049E0,5.122730732E0
1.589770021E1,-1.646891534E-1,4.140584469E0,4.442414761E0
1.591779604E1,-4.970617965E-2,4.466369629E0,4.150166512E0
1.593789188E1,2.994348295E-3,4.878392220E0,4.504697323E0
1.595798760E1,-1.598981917E-1,5.333532810E0,5.731182575E0
1.597808292E1,-3.084178567E-1,5.827001572E0,7.269079685E0
1.599817823E1,-3.850731850E-1,6.186323166E0,8.974659920E0
1.601827354E1,-2.988359630E-1,6.727701664E0,9.808286667E0
1.603836885E1,-1.982258558E-1,7.101396084E0,9.995134354E0
1.605846417E1,4.611296207E-2,7.475090981E0,1.009574413E1
1.607855948E1,-1.119886190E-1,7.757757187E0,1.156656837E1
1.609865479E1,7.006774843E-2,7.906276703E0,1.316674805E1
1.611875010E1,5.779091716E-1,8.174570084E0,1.247684956E1
1.613884589E1,2.952427268E-1,8.064378738E0,1.045027542E1
1.615894172E1,-3.467455208E-1,7.781712055E0,1.007658005E1
1.617903755E1,-4.234008193E-1,6.315679073E0,1.078564167E1
1.619913318E1,3.718980551E-1,4.887973785E0,1.008137131E1
1.621922849E1,1.272598028E0,4.547815800E0,8.390163422E0
1.623932380E1,1.239061236E0,4.753827095E0,6.550436020E0
1.625941912E1,3.000336885E-1,5.017329693E0,5.822210789E0
1.627951443E1,-5.288019180E-1,5.026911736E0,7.757757187E0
1.629960974E1,-4.808923304E-1,4.418460369E0,9.003406525E0
1.631970505E1,2.694913372E-2,3.704607487E0,9.051315308E0
1.633980037E1,5.569487438E-2,3.124901772E0,8.308717728E0
1.635989568E1,5.090392008E-2,2.971591234E0,7.403226376E0
1.637999151E1,1.179773211E-1,3.100946903E0,6.641464233E0
1.640008734E1,1.563049704E-1,3.541714907E0,5.702436447E0
1.642018318E1,2.473331541E-1,4.360968590E0,5.050866604E0
1.644027875E1,4.820900559E-1,5.515589237E0,4.691544533E0
1.646037406E1,7.120559812E-1,6.502526283E0,4.729872227E0
1.648046938E1,8.222479820E-1,7.082232475E0,5.467679977E0
1.650056469E1,5.970730186E-1,7.369689941E0,6.967249393E0
1.652066000E1,2.473331541E-1,7.676311016E0,9.127970695E0
1.654075531E1,-2.173896730E-1,7.556537151E0,9.928060532E0
1.656085062E1,-4.138189256E-1,7.379271507E0,1.112580013E1
1.658094594E1,-8.833327293E-1,7.019949913E0,1.213669205E1
1.660104125E1,-1.266609311E0,6.967249393E0,1.199775410E1
1.662113708E1,-1.146835327E0,7.211588383E0,1.074731445E1
1.664123292E1,-1.779241681E0,6.785192966E0,1.060358620E1
1.666132875E1,-2.842834234E0,5.515589237E0,1.195942688E1
1.668142432E1,-2.909907579E0,4.174121380E0,1.350211525E1
1.670151964E1,-1.812778354E0,3.345285892E0,1.218939209E1
1.672161495E1,-1.506157160E0,3.220721006E0,9.621439934E0
1.674171026E1,-2.311038017E0,3.474641562E0,7.968559265E0
1.676180557E1,-3.317138910E0,3.972901106E0,7.350525856E0
1.678190089E1,-3.408167124E0,4.701126575E0,5.750346184E0
1.680199620E1,-2.756597042E0,4.519070148E0,4.653216839E0
1.682209151E1,-1.942134261E0,4.413669109E0,3.642325163E0
1.684218682E1,-1.520529985E0,4.552607059E0,3.345285892E0
1.686228260E1,-1.376801252E0,4.725081444E0,3.072201252E0
1.688237844E1,-1.300145984E0,5.084403038E0,3.862709045E0
1.690247427E1,-1.443874717E0,5.285623550E0,5.726391315E0
1.692256984E1,-1.295355082E0,5.367069721E0,6.857057095E0
1.694266516E1,-2.748811543E-1,5.716809750E0,6.334843159E0
1.696276047E1,3.766889870E-1,6.095294952E0,6.727701664E0
1.698285578E1,1.133660197E0,6.377961636E0,7.973350525E0
1.700295109E1,1.627128839E0,6.622300625E0,9.223790169E0
1.702304641E1,2.005614519E0,6.909758091E0,9.353145599E0
1.704314172E1,2.614065886E0,7.427181244E0,8.754276276E0
1.706323703E1,3.241681337E0,7.949395657E0,7.719429493E0
1.708333234E1,3.208144665E0,8.533892632E0,7.331362247E0
1.710342812E1,3.155444145E0,8.854886055E0,8.610548019E0
1.712352396E1,2.954223871E0,9.012988091E0,9.434592247E0
1.714361979E1,2.508664846E0,9.214208603E0,8.696784973E0
1.716371536E1,1.521727800E0,9.338772774E0,8.327880859E0
1.718381068E1,7.791293859E-1,8.399745941E0,8.878841400E0
1.720390599E1,6.976830959E-1,6.646255016E0,1.046943855E1
1.722400130E1,1.344462276E0,5.644945145E0,1.150907707E1
1.724409662E1,2.149343014E0,5.443725109E0,9.535202026E0
1.726419203E1,1.799603224E0,5.649735928E0,6.679791927E0
1.728428708E1,1.325298548E0,5.707227707E0,6.651046276E0
1.730438344E1,9.036942720E-1,5.132312775E0,8.495564461E0
1.732447901E1,7.791293859E-1,4.499906540E0,8.706366539E0
1.734457432E1,9.659767151E-1,3.958528280E0,7.345735073E0
1.736466964E1,1.057004929E0,3.484223604E0,6.085713387E0
1.738476495E1,1.090541601E0,3.235093832E0,5.103567123E0
1.740486026E1,8.366208673E-1,3.215929985E0,4.360968590E0
1.742495557E1,7.839203477E-1,3.637534142E0,3.781262875E0
1.744505089E1,7.935022712E-1,4.193284988E0,3.704607487E0
1.746514620E1,9.611857533E-1,5.108357906E0,4.432833195E0
1.748524156E1,5.012539029E-1,6.224650860E0,5.295205116E0
1.750533740E1,-8.737508059E-1,7.599655628E0,8.663248062E0
1.752543323E1,-2.047535181E0,9.185461998E0,1.126952839E1
1.754552906E1,-6.102481484E-1,9.583111763E0,1.019635487E1
1.756562453E1,1.497772932E0,9.707676888E0,7.992514133E0
1.758571984E1,2.844031811E0,9.784332275E0,8.073960304E0
1.760581516E1,3.399782896E0,9.492083549E0,8.414118767E0
1.762591047E1,4.190290928E0,9.448965073E0,8.989033699E0
1.764600578E1,4.487329960E0,9.195044518E0,7.465508938E0
1.766610109E1,3.720777035E0,9.137553215E0,6.933712482E0
1.768619641E1,2.235580444E0,7.733802319E0,8.026050568E0
1.770629172E1,6.162368655E-1,5.769510269E0,1.118808270E1
1.772638703E1,5.635363460E-1,4.207658291E0,1.216543770E1
1.774648276E1,6.641464233E-1,3.599206448E0,1.035924721E1
1.776657859E1,-2.030168027E-1,3.661489010E0,8.476400375E0
1.778667443E1,-1.103716731E0,4.150166512E0,7.072650433E0
1.780677005E1,-1.472620487E0,4.686753750E0,6.435452938E0
1.782686536E1,-1.161208272E0,4.859228134E0,5.304787159E0
1.784696068E1,-6.246210337E-1,4.825691700E0,4.509488583E0
1.786705599E1,-1.455253214E-1,4.820900440E0,4.193284988E0
1.788715130E1,-1.598981917E-1,4.945465565E0,4.269940376E0
1.790724662E1,-1.071976647E-1,5.161058426E0,4.380132675E0
1.792734193E1,6.048583239E-2,5.367069721E0,4.260358810E0
1.794743724E1,3.527342081E-1,5.506007195E0,4.696335793E0
1.796753255E1,7.599655390E-1,5.673690796E0,6.267769814E0
1.798762818E1,1.013886333E0,6.253396511E0,7.446344852E0
1.800772401E1,9.947224855E-1,7.101396084E0,8.399745941E0
1.802781984E1,1.061795831E0,7.877531052E0,9.798705101E0
1.804791557E1,1.526518703E0,8.327880859E0,1.046943855E1
1.806801089E1,2.154134035E0,8.519519806E0,9.980761528E0
1.808810620E1,2.479919195E0,8.672829628E0,9.132761955E0
1.810820151E1,2.824867964E0,8.883631706E0,8.998615265E0
1.812829682E1,3.615375996E0,9.151926041E0,8.596175194E0
1.814839214E1,3.035670280E0,9.276490211E0,8.246435165E0
1.816848745E1,1.646292686E0,9.372309685E0,8.462027550E0
1.818858276E1,9.276490808E-1,8.481191635E0,7.858367443E0
1.820867807E1,4.150166512E-1,6.952876568E0,7.546955109E0
1.822877344E1,5.012539029E-1,5.678482056E0,8.150615692E0
1.824886927E1,1.104914427E0,5.084403038E0,7.963768482E0
1.826896510E1,1.612755895E0,4.983793259E0,6.823520660E0
1.828906094E1,1.526518703E0,4.734663486E0,6.147995472E0
1.830915641E1,9.947224855E-1,4.538234234E0,6.344424725E0
1.832925172E1,3.287794292E-1,4.222031116E0,7.077441216E0
1.834934703E1,-1.646891534E-1,3.656697989E0,7.436763287E0
1.836944234E1,-8.803384006E-2,3.220721006E0,7.805666924E0
1.838953766E1,4.054347575E-1,2.894935846E0,7.590073586E0
1.840963297E1,9.659767151E-1,2.938054323E0,6.377961636E0
1.842972828E1,1.080959678E0,3.469850779E0,5.338324070E0
1.844982359E1,7.839203477E-1,4.341804981E0,5.989893913E0
1.846991891E1,6.785193086E-1,5.041284561E0,6.191114426E0
1.849001448E1,3.671070933E-1,5.759928226E0,6.100086212E0
1.851011031E1,3.431523144E-1,6.435452938E0,5.673690796E0
1.853020615E1,3.287794292E-1,6.962458611E0,5.989893913E0
1.855030193E1,5.922820568E-1,7.465508938E0,7.499045372E0
1.857039724E1,7.024740577E-1,7.700265884E0,8.562638283E0
1.859049255E1,5.587453842E-1,7.939813614E0,9.104016304E0
1.861058786E1,-1.796608907E-3,8.097915649E0,1.012448978E1
1.863068318E1,-4.569375217E-1,8.509937286E0,1.175341511E1
1.865077849E1,-1.726541162E0,8.423700333E0,1.300385571E1
1.867087380E1,-4.016618729E0,8.284762383E0,1.407702923E1
1.869096912E1,-5.429951191E0,6.909758091E0,1.417763996E1
1.871106443E1,-5.516188145E0,5.256877899E0,1.355002403E1
1.873115974E1,-4.313657761E0,3.829172373E0,1.307092857E1
1.875125547E1,-2.986562967E0,2.890144825E0,1.153303146E1
1.877135130E1,-2.732642174E0,2.473331690E0,9.798705101E0
1.879144714E1,-2.981771946E0,2.545196056E0,8.284762383E0
1.881154271E1,-2.617659092E0,2.861399174E0,6.890594006E0
1.883163802E1,-1.875060797E0,3.057828426E0,5.242504597E0
1.885173333E1,-1.213908792E0,3.235093832E0,3.795635700E0
1.887182865E1,-1.089343905E0,3.465059757E0,2.789534807E0
1.889192396E1,-1.276191235E0,3.968110323E0,2.770370960E0
1.891201927E1,-1.175581098E0,4.260358810E0,3.076992273E0
1.893211458E1,-1.127671480E0,4.461578846E0,3.393195391E0
1.895220990E1,-9.935247302E-1,4.782572746E0,3.781262875E0
1.897230521E1,-1.113298655E0,5.204176903E0,5.223340988E0
1.899240073E1,-8.737508059E-1,5.692854881E0,6.967249393E0
1.901249656E1,-8.066774011E-1,6.162368774E0,8.682412148E0
1.903259240E1,-9.887337685E-1,6.809147835E0,9.693304062E0
1.905268818E1,-1.084552884E0,7.594864845E0,1.080001545E1
1.907278349E1,-9.647789598E-1,7.997304916E0,1.170071507E1
1.909287880E1,-8.593779206E-1,8.409327507E0,1.143721199E1
1.911297412E1,-6.342029572E-1,8.725530624E0,1.110184574E1
1.913306943E1,1.754688025E-1,9.171089172E0,1.082876110E1
1.915316474E1,4.437623918E-1,9.266908646E0,1.033050156E1
1.917326005E1,1.257626247E-2,8.778230667E0,1.016281796E1
1.919335537E1,-6.342029572E-1,7.379271507E0,1.043111134E1
1.921345068E1,-1.215705350E-1,6.430662155E0,9.525620461E0
1.923354599E1,3.814799488E-1,5.941984653E0,8.251225471E0
1.925364172E1,5.683273077E-1,5.587453842E0,6.785192966E0
1.927373755E1,1.179773211E-1,4.854437351E0,6.334843159E0
1.929383339E1,-3.994460404E-1,4.059138298E0,7.508627415E0
1.931392901E1,-5.383837819E-1,3.283003330E0,8.466818810E0
1.933402432E1,-3.754912615E-1,2.497286320E0,8.955496788E0
1.935411964E1,4.132200405E-2,1.888834834E0,9.041733742E0
1.937421495E1,4.964629412E-1,1.558258772E0,8.543474197E0
1.939431026E1,5.683273077E-1,1.548676848E0,7.570909977E0
1.941440557E1,3.766889870E-1,1.970281124E0,6.445034981E0
1.943450089E1,7.964966446E-2,2.703297615E0,5.918029785E0
1.945459620E1,-2.700901926E-1,3.297376156E0,5.597035408E0
1.947469151E1,-6.725305915E-1,3.915409565E0,5.520380497E0
1.949478682E1,-6.342029572E-1,4.432833195E0,6.100086212E0
1.951488260E1,-6.821125150E-1,4.830482483E0,7.532582283E0
1.953497844E1,-3.994460404E-1,5.266459465E0,9.290863991E0
1.955507427E1,-3.754912615E-1,5.611408710E0,1.011490822E1
1.957516979E1,-2.269715965E-1,5.688063622E0,1.084792423E1
1.959526510E1,-4.281917810E-1,5.707227707E0,1.155698586E1
1.961536042E1,-2.988359630E-1,6.200695992E0,1.158094120E1
1.963545573E1,-7.635588050E-1,6.421080112E0,1.049818516E1
1.965555104E1,-2.248755455E0,5.697645664E0,1.016281796E1
1.967564635E1,-3.944754362E0,4.844855309E0,1.210794640E1
1.969574167E1,-3.777070761E0,3.939364433E0,1.444114208E1
1.971583698E1,-1.884642720E0,3.723771334E0,1.327693939E1
1.973593229E1,-1.065389037E0,3.383613348E0,1.010053539E1
1.975602771E1,-2.229591608E0,3.302167177E0,8.835722923E0
1.977612354E1,-3.920799494E0,3.901036739E0,9.175880432E0
1.979621938E1,-3.901635647E0,4.039974689E0,8.596175194E0
1.981631521E1,-2.267919302E0,3.790844679E0,7.331362247E0
1.983641057E1,-9.887337685E-1,3.556087971E0,6.344424725E0
1.985650589E1,-4.569375217E-1,3.484223604E0,5.534753323E0
1.987660120E1,-2.317625433E-1,3.584833622E0,5.002956867E0
1.989669651E1,-2.748811543E-1,3.872291088E0,4.854437351E0
1.991679182E1,-2.796721160E-1,4.016019821E0,4.763409138E0
1.993688714E1,-2.461354136E-1,4.222031116E0,5.002956867E0
1.995698245E1,5.569487438E-2,4.351386547E0,5.477261543E0
1.997707776E1,6.048583239E-2,4.447206020E0,6.607927322E0
1.999717307E1,2.215817571E-2,4.245985508E0,8.802186012E0
2.001726859E1,-3.515364826E-1,4.241194725E0,1.095332527E1
2.003736443E1,-7.060673237E-1,4.610098362E0,1.206961823E1
2.005746026E1,-8.689598441E-1,4.830482483E0,1.173425198E1
2.007755604E1,-5.767114758E-1,4.744245052E0,1.113538170E1
2.009765135E1,1.850507110E-1,4.844855309E0,1.160489559E1
2.011774667E1,6.066549420E-1,6.133622646E0,1.188277149E1
2.013784198E1,-2.365535051E-1,5.999475956E0,1.095811653E1
2.015793729E1,-8.450050354E-1,5.391024590E0,1.090062523E1
2.017803260E1,-1.089343905E0,4.380132675E0,1.275951672E1
2.019812792E1,-2.575139515E-2,3.699816704E0,1.373687172E1
2.021822323E1,1.080959678E0,4.044765472E0,1.041673851E1
2.023831854E1,6.018639803E-1,3.805217743E0,7.877531052E0
2.025841385E1,-1.455253214E-1,3.354867697E0,6.967249393E0
2.027850938E1,-1.122880578E0,3.072201252E0,8.577011108E0
2.029860521E1,-1.434292793E0,2.631433249E0,9.602275848E0
2.031870104E1,-1.094134808E0,2.248156548E0,9.343564034E0
2.033879682E1,-2.700901926E-1,2.027772665E0,7.733802319E0
2.035889214E1,2.090055048E-1,1.931953430E0,6.315679073E0
2.037898745E1,6.018639803E-1,2.056518316E0,5.022120953E0
2.039908276E1,8.414118290E-1,2.492495537E0,3.939364433E0
2.041917807E1,7.216379046E-1,3.421941042E0,3.330912828E0
2.043927339E1,2.712879479E-1,4.116630077E0,3.364449501E0
2.045936870E1,-6.294119954E-1,4.552607059E0,5.026911736E0
2.047946401E1,-1.098925829E0,4.926301479E0,8.050005913E0
2.049955932E1,-8.402140737E-1,5.185013294E0,1.055567646E1
2.051965464E1,-3.563274443E-1,5.745555401E0,1.148991299E1
2.053975010E1,-3.515364826E-1,5.994685173E0,1.157135868E1
2.055984594E1,-7.060673237E-1,5.807837963E0,1.253434181E1
2.057994177E1,-8.162593246E-1,5.424561024E0,1.403391075E1
2.060003760E1,-5.623385906E-1,5.688063622E0,1.460403538E1
2.062013292E1,-1.558857679E0,5.908447742E0,1.245768642E1
2.064022823E1,-3.173410177E0,4.183703423E0,1.159052277E1
2.066032354E1,-3.676460743E0,2.942845345E0,1.361230659E1
2.068041885E1,-2.842834234E0,1.630123138E0,1.521727753E1
2.070051417E1,-1.439083695E0,7.964966297E-1,1.345899582E1
2.072060948E1,-1.113298655E0,1.251637578E0,1.024426365E1
2.074070479E1,-2.263128281E0,1.462439656E0,7.364898682E0
2.076080010E1,-3.575850487E0,2.037354469E0,6.315679073E0
2.078089542E1,-3.336302757E0,3.220721006E0,7.144514561E0
2.080099094E1,-2.392484188E0,3.412359238E0,7.532582283E0
2.082108677E1,-1.209117770E0,3.172811270E0,7.091814041E0
2.084118260E1,-4.761013687E-1,3.263839483E0,6.627091408E0
2.086127839E1,-4.042370021E-1,3.445895910E0,6.483362675E0
2.088137370E1,-5.000561476E-1,3.723771334E0,6.516899586E0
2.090146901E1,-8.929146528E-1,4.078302383E0,5.783883095E0
2.092156432E1,-9.743608832E-1,4.159748554E0,5.002956867E0
2.094165964E1,-6.342029572E-1,4.039974689E0,5.223340988E0
2.096175495E1,-3.515364826E-1,3.886663914E0,6.684582710E0
2.098185026E1,-7.366096228E-2,3.929782629E0,8.677620888E0
2.100194557E1,-1.982258558E-1,4.039974689E0,1.057004929E1
2.102204089E1,-8.018864393E-1,4.485533714E0,1.158094120E1
2.104213620E1,-1.386383176E0,5.084403038E0,1.150428581E1
2.106223193E1,-1.007897615E0,5.122730732E0,1.103477192E1
2.108232776E1,-2.557173371E-1,4.758618355E0,1.119287395E1
2.110242359E1,8.078751564E-1,4.576561928E0,1.229958439E1
2.112251922E1,1.924168110E0,5.213758945E0,1.260620594E1
2.114261453E1,1.885840535E0,6.397125244E0,1.122640991E1
2.116270984E1,-2.413444668E-1,5.649735928E0,1.018198109E1
2.118280516E1,-1.750495911E0,4.643635273E0,1.207920074E1
2.120290047E1,-1.199535847E0,3.206347942E0,1.394288254E1
2.122299578E1,9.516038299E-1,2.703297615E0,1.170071507E1
2.124309109E1,1.746902704E0,2.962009192E0,7.661938190E0
2.126318641E1,1.018677235E0,2.909308672E0,5.208968163E0
2.128328172E1,-5.928809568E-2,2.813489437E0,5.343114853E0
2.130337734E1,-6.102481484E-1,2.942845345E0,7.944604397E0
2.132347318E1,-6.198300719E-1,2.708088398E0,8.826140404E0
2.134356901E1,-3.371635973E-1,2.564359665E0,7.963768482E0
2.136366474E1,-2.078077644E-1,2.473331690E0,6.488153458E0
2.138376005E1,-2.125987262E-1,2.602687359E0,5.989893913E0
2.140385537E1,-7.845192403E-2,2.928472519E0,5.908447742E0
2.142395068E1,1.898416728E-1,3.225511789E0,5.482052803E0
2.144404599E1,1.275592297E-1,3.527342081E0,5.553916931E0
2.146414130E1,-1.359434128E-1,3.915409565E0,6.473780632E0
2.148423662E1,-3.611183763E-1,4.337013721E0,7.604446411E0
2.150433193E1,-6.581577063E-1,4.480742455E0,8.591383934E0
2.152442724E1,-1.089343905E0,4.504697323E0,1.006220722E1
2.154452302E1,-1.036643386E0,4.945465565E0,1.157135868E1
2.156461885E1,-3.419545591E-1,5.434143066E0,1.193547153E1
2.158471469E1,1.994235814E-1,5.347905636E0,1.157135868E1
2.160481031E1,-1.024067104E-1,5.055657387E0,1.196421719E1
2.162490562E1,-3.467455208E-1,5.597035408E0,1.241456795E1
2.164500094E1,-1.860687971E0,5.338324070E0,1.177257919E1
2.166509625E1,-3.360257626E0,4.317850113E0,1.180132484E1
2.168519156E1,-3.575850487E0,2.904517651E0,1.332484913E1
2.170528688E1,-2.114608765E0,1.994235873E0,1.457049847E1
2.172538219E1,-7.396039963E-1,2.080473185E0,1.296073627E1
2.174547750E1,-8.929146528E-1,2.099637032E0,1.000950718E1
2.176557370E1,-2.277501106E0,1.821761489E0,7.992514133E0
2.178566953E1,-3.091964006E0,2.334393740E0,7.561327934E0
2.180576484E1,-2.770969868E0,2.823071480E0,7.858367443E0
2.182586016E1,-1.712168336E0,2.832653284E0,7.585282803E0
2.184595547E1,-7.923045158E-1,2.736834288E0,7.221169949E0
2.186605078E1,-4.186098874E-1,2.808698654E0,6.895384789E0
2.188614609E1,-4.473556280E-1,3.096156120E0,6.612718582E0
2.190624141E1,-6.102481484E-1,3.354867697E0,5.822210789E0
2.192633672E1,-8.689598441E-1,3.489014387E0,5.242504597E0
2.194643255E1,-9.695699215E-1,3.613579273E0,5.443725109E0
2.196652839E1,-1.146835327E0,3.546505928E0,6.593554497E0
2.198662422E1,-8.402140737E-1,3.599206448E0,8.136242867E0
2.200671990E1,-6.150391102E-1,3.589624643E0,9.607067108E0
2.202681521E1,-5.288019180E-1,3.872291088E0,1.028259182E1
2.204691052E1,-8.689598441E-1,4.581352711E0,1.019156361E1
2.206700583E1,-1.434292793E0,5.247295856E0,9.899314880E0
2.208710115E1,-1.812778354E0,5.453306675E0,1.009095383E1
2.210719646E1,-1.740913987E0,5.266459465E0,1.151865864E1
2.212729177E1,-4.808923304E-1,5.620990276E0,1.308051014E1
2.214738708E1,-1.796608907E-3,6.133622646E0,1.251517773E1
2.216748286E1,-5.767114758E-1,5.994685173E0,1.121682835E1
2.218757870E1,-1.103716731E0,5.170640469E0,1.184923458E1
2.220767453E1,-5.527566671E-1,3.738144159E0,1.329131317E1
2.222777026E1,1.119287372E0,3.407568216E0,1.157614994E1
2.224786557E1,1.675038338E0,3.527342081E0,8.174570084E0
2.226796089E1,1.377999067E0,3.316540003E0,5.726391315E0
2.228805620E1,5.108358264E-1,3.144065619E0,5.745555401E0
2.230815151E1,-1.742710620E-1,3.033873558E0,7.882322311E0
2.232824682E1,-4.569375217E-1,2.521241188E0,9.032152176E0
2.234834214E1,-4.473556280E-1,1.955908179E0,9.492083549E0
2.236843755E1,7.964966446E-2,1.706778407E0,8.442864418E0
2.238853339E1,2.233783752E-1,1.764269948E0,7.192424297E0
2.240862922E1,4.102256894E-1,1.999026895E0,6.133622646E0
2.242872505E1,5.395815372E-1,2.545196056E0,5.410188198E0
2.244882068E1,2.760789096E-1,3.120110750E0,5.261668682E0
2.246891599E1,-3.036268950E-1,3.642325163E0,5.472470760E0
2.248901130E1,-8.306322098E-1,4.111838818E0,6.665419102E0
2.250910662E1,-1.180372000E0,4.586143494E0,8.404536247E0
2.252920193E1,-8.833327293E-1,5.089194298E0,9.559157372E0
2.254929724E1,-6.677396297E-1,5.367069721E0,1.008137131E1
2.256939255E1,-6.006662250E-1,5.549126148E0,1.051734829E1
2.258948818E1,-9.599879980E-1,5.472470760E0,1.112100887E1
2.260958401E1,-1.156417251E0,5.482052803E0,1.214148331E1
2.262967984E1,-1.074970961E0,5.994685173E0,1.278826237E1
2.264977568E1,-2.378111362E0,5.295205116E0,1.232353973E1
2.266987115E1,-4.189093113E0,4.102256775E0,1.370333481E1
2.268996646E1,-4.428640842E0,2.732043266E0,1.605569458E1
2.271006177E1,-2.742223978E0,1.836134315E0,1.607485962E1
2.273015708E1,-2.023580551E0,1.759479046E0,1.266369724E1
2.275025240E1,-3.302766085E0,1.812179565E0,9.693304062E0
2.277034870E1,-4.639442921E0,2.094846010E0,7.422390461E0
2.279044401E1,-4.069319248E0,2.770370960E0,7.331362247E0
2.281053932E1,-2.210427761E0,2.799116611E0,7.230751991E0
2.283063464E1,-2.988359630E-1,2.717670441E0,6.253396511E0
2.285072995E1,5.635363460E-1,2.851817131E0,4.586143494E0
2.287082526E1,4.964629412E-1,3.306958199E0,3.354867697E0
2.289092068E1,5.090392008E-2,4.140584469E0,3.704607487E0
2.291101651E1,-3.850731850E-1,4.744245052E0,3.881872892E0
2.293111234E1,-6.294119954E-1,5.084403038E0,4.303477287E0
2.295120818E1,-5.958752632E-1,5.386233330E0,5.376651764E0
2.297130391E1,-1.551072299E-1,5.309578419E0,6.991204262E0
2.299139922E1,2.425422072E-1,5.271250725E0,7.614028454E0
2.301149453E1,9.881348908E-2,5.635363102E0,8.888422966E0
2.303158984E1,6.401916146E-1,5.927611828E0,1.051734829E1
2.305168516E1,1.114496350E0,6.330051899E0,1.189714432E1
2.307178047E1,1.095332623E0,6.751656055E0,1.160968685E1
2.309187578E1,1.515140235E-1,7.158887863E0,1.138451195E1
2.311197156E1,-9.791518450E-1,7.561327934E0,1.229000282E1
2.313206740E1,-1.458247542E0,8.270389557E0,1.272597980E1
2.315216323E1,-2.052326202E0,7.441554070E0,1.122640991E1
2.317225906E1,-2.770969868E0,5.841374397E0,9.793913841E0
2.319235443E1,-2.794924498E0,4.461578846E0,9.218998909E0
2.321244974E1,-1.520529985E0,3.891454935E0,8.366209030E0
2.323254505E1,-8.324287832E-2,3.680652857E0,6.708537579E0
2.325264036E1,6.210278273E-1,3.766890049E0,4.538234234E0
2.327273568E1,6.048583239E-2,4.164539337E0,2.765579939E0
2.329283099E1,-6.869034767E-1,4.701126575E0,5.084403038E0
2.331292672E1,-5.144290328E-1,4.725081444E0,7.815248966E0
2.333302255E1,5.012539029E-1,4.514279366E0,8.342253685E0
2.335311839E1,1.162405968E0,4.610098362E0,7.235542774E0
2.337321422E1,1.057004929E0,5.156267643E0,6.004266739E0
2.339330964E1,7.024740577E-1,5.846165180E0,6.536063194E0
2.341340495E1,3.814799488E-1,5.961148262E0,9.185461998E0
2.343350026E1,-1.694801003E-1,6.042594433E0,1.033050156E1
2.345359557E1,-3.371635973E-1,6.143204689E0,8.945914268E0
2.347369089E1,-8.593779206E-1,6.377961636E0,8.279971123E0
2.349378620E1,-1.142044425E0,6.354006767E0,9.348355293E0
2.351388188E1,-1.324100733E0,6.382752419E0,9.784332275E0
2.353397771E1,-1.017479539E0,6.425871372E0,9.060897827E0
2.355407354E1,-6.869034767E-1,6.536063194E0,7.997304916E0
2.357416938E1,-8.737508059E-1,6.943294525E0,7.820039749E0
2.359426490E1,-1.453456640E0,7.010367870E0,8.117078781E0
2.361436021E1,-1.899015665E0,7.288243294E0,8.150615692E0
2.363445552E1,-2.263128281E0,7.460718155E0,6.995995045E0
2.365455083E1,-3.647714853E0,7.403226376E0,6.411498547E0
2.367464615E1,-4.629861355E0,6.449825764E0,7.872740269E0
2.369474146E1,-3.638133049E0,5.093985081E0,1.011969948E1
2.371483698E1,-1.448665619E0,4.207658291E0,1.032571030E1
2.373493281E1,1.227682754E-1,3.723771334E0,8.898005486E0
2.375502865E1,1.658868939E-1,3.814799547E0,6.756447315E0
2.377512448E1,-1.314518809E0,4.380132675E0,8.447654724E0
2.379522016E1,-2.507467270E0,4.902346611E0,1.045506573E1
2.381531547E1,-2.526630878E0,4.955047131E0,9.784332275E0
2.383541078E1,-1.745705009E0,4.959838390E0,7.791294098E0
2.385550609E1,-1.625931025E0,4.955047131E0,6.210278034E0
2.387560141E1,-1.429501772E0,5.161058426E0,6.033012867E0
2.389569672E1,-1.084552884E0,5.117939949E0,6.195905209E0
2.391579203E1,-9.647789598E-1,5.050866604E0,6.770820141E0
2.393588786E1,-9.983156919E-1,5.141894817E0,7.417599201E0
2.395598370E1,-2.030168027E-1,5.252086639E0,6.785192966E0
2.397607953E1,7.216379046E-1,5.712018490E0,6.473780632E0
2.399617537E1,1.325298548E0,5.989893913E0,8.054796219E0
2.401627073E1,1.349253297E0,6.277351379E0,9.516038895E0
2.403636604E1,1.162405968E0,6.679791927E0,9.516038895E0
2.405646135E1,9.180671573E-1,7.178051472E0,9.372309685E0
2.407655667E1,6.497735381E-1,7.527791500E0,9.434592247E0
2.409665198E1,8.923157305E-2,8.232062340E0,9.621439934E0
2.411674729E1,-4.090279639E-1,8.878841400E0,9.774749756E0
2.413684292E1,-1.046225309E0,8.898005486E0,9.635812759E0
2.415693875E1,-1.065389037E0,8.107497215E0,1.024905491E1
2.417703458E1,-5.144290328E-1,6.464199066E0,1.159531403E1
2.419713042E1,7.839203477E-1,5.601826668E0,1.110663605E1
2.421722594E1,1.780439377E0,5.553916931E0,8.749485016E0
2.423732125E1,1.483400106E0,5.299996376E0,6.277351379E0
2.425741656E1,5.108358264E-1,5.093985081E0,6.373170853E0
2.427751188E1,2.952427268E-1,4.490324497E0,6.698955536E0
2.429760719E1,7.360107899E-1,3.977692127E0,6.564808846E0
2.431770250E1,1.243852258E0,3.814799547E0,4.940674305E0
2.433779797E1,1.263016105E0,4.030392647E0,4.059138298E0
2.435789380E1,1.195942640E0,4.327432156E0,4.566979885E0
2.437798964E1,9.468128681E-1,4.566979885E0,6.703746796E0
2.439808547E1,4.964629412E-1,4.662798882E0,8.136242867E0
2.441818115E1,8.270389438E-1,5.304787159E0,6.377961636E0
2.443827646E1,8.749485612E-1,6.277351379E0,5.074821472E0
2.445837177E1,4.245985746E-1,6.756447315E0,7.446344852E0
2.447846708E1,1.994235814E-1,7.115768909E0,1.002388000E1
2.449856240E1,6.066549420E-1,7.393644333E0,8.893214226E0
2.451865771E1,1.138451219E0,7.920650005E0,7.312198162E0
2.453875302E1,8.462027907E-1,8.265598297E0,7.110978127E0
2.455884880E1,2.425422072E-1,8.045214653E0,8.006887436E0
2.457894464E1,3.814799488E-1,7.906276703E0,9.161507607E0
2.459904047E1,3.575251698E-1,8.394954681E0,8.260807991E0
2.461913630E1,-1.137253404E0,8.634502411E0,7.925440788E0
2.463923167E1,-2.876370907E0,7.441554070E0,9.448965073E0
2.465932698E1,-2.632032156E0,5.735973358E0,1.011011696E1
2.467942229E1,-9.360332489E-1,4.868810177E0,9.827450752E0
2.469951760E1,-5.240109563E-1,4.384923458E0,1.037362003E1
2.471961292E1,-1.424710870E0,4.356177807E0,9.966388702E0
2.473970823E1,-2.526630878E0,4.710708618E0,8.864468575E0
2.475980375E1,-2.770969868E0,4.792154789E0,7.867949486E0
2.477989958E1,-1.999625683E0,4.686753750E0,6.176741600E0
2.479999542E1,-5.335928202E-1,4.753827095E0,4.734663486E0
2.482009125E1,5.108358264E-1,5.002956867E0,3.771681070E0
2.484018682E1,7.455927134E-1,5.070030212E0,3.843545437E0
2.486028214E1,3.718980551E-1,5.074821472E0,5.707227707E0
2.488037745E1,2.329602838E-1,4.926301479E0,6.521690369E0
2.490047276E1,6.114459038E-1,4.811318874E0,6.286933422E0
2.492056807E1,9.947224855E-1,4.801736832E0,6.018640041E0
2.494066339E1,8.941123486E-1,5.218550205E0,7.039113522E0
2.496075870E1,7.647565007E-1,5.630572319E0,8.989033699E0
2.498085448E1,1.181569815E0,6.186323166E0,1.033050156E1
2.500095031E1,1.660665512E0,6.837893486E0,9.592694283E0
2.502104615E1,1.727738857E0,7.719429493E0,8.303926468E0
2.504114198E1,1.248643160E0,8.462027550E0,8.409327507E0
2.506123729E1,1.171987891E0,8.878841400E0,1.032091904E1
2.508133260E1,1.095332623E0,9.295654297E0,1.173904228E1
2.510142792E1,5.060448647E-1,9.554366112E0,1.066586781E1
2.512152323E1,-1.838529855E-1,9.444173813E0,1.049339390E1
2.514161854E1,-5.096380711E-1,7.949395657E0,1.133660221E1
2.516171385E1,3.287794292E-1,6.176741600E0,1.124078274E1
2.518180932E1,1.406744719E0,5.328742027E0,8.811767578E0
2.520190516E1,1.684620261E0,5.352696896E0,6.262978554E0
2.522200099E1,6.306097507E-1,5.453306675E0,5.414979458E0
2.524209682E1,-3.707002997E-1,5.165849686E0,5.563498974E0
2.526219010E1,-9.408242106E-1,4.466369629E0,5.424561024E0
2.528228542E1,-8.593779206E-1,3.570460796E0,5.467679977E0
2.530238339E1,-6.150391102E-1,2.914099693E0,5.333532810E0
2.532247870E1,-4.952651858E-1,2.468540668E0,5.103567123E0
2.534257401E1,-2.748811543E-1,2.219410896E0,5.065239429E0
2.536266932E1,3.575251698E-1,2.329602957E0,5.525171280E0
2.538276464E1,1.004304409E0,2.794325829E0,5.764719009E0
2.540285995E1,1.291761756E0,3.853127241E0,5.750346184E0
2.542295526E1,1.057004929E0,4.926301479E0,6.612718582E0
2.544305104E1,3.335703909E-1,6.076131344E0,7.690683842E0
2.546314688E1,-1.263614893E-1,7.225961208E0,8.610548019E0
2.548324271E1,-3.179997802E-1,7.546955109E0,9.195044518E0
2.550333854E1,7.964966446E-2,7.877531052E0,9.736422539E0
2.552343385E1,5.491634607E-1,7.652356148E0,1.083355141E1
2.554352917E1,7.216379046E-1,7.364898682E0,1.197859001E1
2.556362448E1,4.629262388E-1,7.748175144E0,1.247684956E1
2.558371979E1,-1.582812428E0,7.566119194E0,1.157135868E1
2.560381510E1,-3.154246330E0,5.970730305E0,1.056525803E1
2.562391042E1,-4.744843960E0,3.742935181E0,1.191151714E1
2.564400583E1,-4.131601810E0,2.554777861E0,1.394288254E1
2.566410167E1,-2.133772612E0,2.147546530E0,1.458008003E1
2.568419750E1,-1.089343905E0,1.218100786E0,1.274993420E1
2.570429333E1,-1.261818290E0,1.194146037E0,9.463337898E0
2.572438896E1,-1.851106048E0,1.266010404E0,6.411498547E0
2.574448427E1,-2.210427761E0,2.003817797E0,6.603136539E0
2.576457958E1,-1.568439603E0,2.521241188E0,8.979451180E0
2.578467490E1,-2.461354136E-1,2.818280458E0,9.051315308E0
2.580477021E1,3.671070933E-1,3.124901772E0,6.885803223E0
2.582486552E1,2.425422072E-1,3.421941042E0,5.137103558E0
2.584496083E1,-3.467455208E-1,3.857918262E0,5.065239429E0
2.586505641E1,-6.533667445E-1,4.135793686E0,6.042594433E0
2.588515224E1,-5.479657054E-1,4.236403942E0,7.072650433E0
2.590524807E1,-3.533330932E-2,4.241194725E0,7.551745892E0
2.592534391E1,3.287794292E-1,4.063929558E0,8.121870041E0
2.594543938E1,5.569487438E-2,4.442414761E0,8.783021927E0
2.596553469E1,-6.006662250E-1,5.070030212E0,9.597484589E0
2.598563000E1,-1.324100733E0,5.501216412E0,1.034966469E1
2.600572531E1,-1.463038564E0,5.506007195E0,1.092937088E1
2.602582062E1,-9.743608832E-1,5.405397415E0,1.150907707E1
2.604591594E1,6.048583239E-2,6.013848782E0,1.202170944E1
2.606601125E1,7.785305381E-3,6.114459038E0,1.157614994E1
2.608610698E1,-8.450050354E-1,5.568289757E0,1.076168728E1
2.610620281E1,-1.285773158E0,4.030392647E0,1.202170944E1
2.612629865E1,1.946326345E-1,3.124901772E0,1.391892815E1
2.614639448E1,1.555264473E0,3.541714907E0,1.300385571E1
2.616648979E1,7.264288664E-1,3.685443640E0,8.969869614E0
2.618658510E1,-1.311524510E-1,3.627952337E0,6.574390888E0
2.620668042E1,-1.646891534E-1,3.728562355E0,6.564808846E0
2.622677573E1,-1.263614893E-1,3.263839483E0,7.834412575E0
2.624687104E1,-1.646891534E-1,2.693715572E0,8.002096176E0
2.626696635E1,8.444061875E-2,2.310439110E0,7.546955109E0
2.628706167E1,7.695474625E-1,2.535614014E0,6.152786732E0
2.630715750E1,9.803496003E-1,2.870980978E0,4.840064526E0
2.632725333E1,7.216379046E-1,3.187184095E0,4.974211216E0
2.634734917E1,3.383613527E-1,3.278212309E0,5.807837963E0
2.636744490E1,2.090055048E-1,3.306958199E0,6.833102703E0
2.638754021E1,1.706778407E-1,3.283003330E0,7.949395657E0
2.640763552E1,-3.467455208E-1,3.421941042E0,8.830931664E0
2.642773083E1,-8.450050354E-1,3.575251818E0,1.004783440E1
2.644782615E1,-7.443949580E-1,4.016019821E0,1.114017296E1
2.646792146E1,-7.108582854E-1,4.193284988E0,1.145637608E1
2.648801677E1,-8.977055550E-1,4.164539337E0,1.110184574E1
2.650811219E1,-1.640303969E0,4.217239857E0,1.169592381E1
2.652820802E1,-1.750495911E0,4.935883522E0,1.230916691E1
2.654830385E1,-2.584122419E0,5.256877899E0,1.176778793E1
2.656839969E1,-2.905116558E0,4.902346611E0,1.113059139E1
2.658849531E1,-3.709997416E0,3.982483149E0,1.117850018E1
2.660859062E1,-3.892053843E0,2.890144825E0,1.301822853E1
2.662868594E1,-2.881161928E0,2.732043266E0,1.363626194E1
2.664878125E1,-2.037953377E0,2.885353804E0,1.149949455E1
2.666887656E1,-2.325410843E0,2.516450167E0,8.917168617E0
2.668897188E1,-3.106336832E0,2.444585800E0,7.441554070E0
2.670906719E1,-3.810607433E0,3.120110750E0,8.016469002E0
2.672916271E1,-3.446494818E0,3.426732063E0,8.466818810E0
2.674925854E1,-2.306246996E0,3.450686932E0,7.963768482E0
2.676935438E1,-1.520529985E0,3.402777195E0,6.986413002E0
2.678945021E1,-1.237863541E0,3.594415665E0,6.147995472E0
2.680954573E1,-9.839428067E-1,3.790844679E0,5.946775436E0
2.682964104E1,-7.635588050E-1,3.800426722E0,6.325261116E0
2.684973635E1,-4.090279639E-1,3.891454935E0,7.206797123E0
2.686983167E1,-4.090279639E-1,4.126211643E0,8.490774155E0
2.688992698E1,-2.575139515E-2,4.140584469E0,8.701576233E0
2.691002229E1,2.760789096E-1,4.384923458E0,8.385373116E0
2.693011760E1,2.521241307E-1,4.787364006E0,8.471610069E0
2.695021318E1,1.363626122E0,4.820900440E0,8.783021927E0
2.697030901E1,4.389714301E-1,5.745555401E0,1.005741692E1
2.699040484E1,-1.506157160E0,6.464199066E0,8.926751137E0
2.701050068E1,-9.983156919E-1,5.740764141E0,6.545645237E0
2.703059615E1,-2.461354136E-1,7.182842255E0,7.302616119E0
2.705069146E1,-1.257027388E0,6.560018063E0,7.896695137E0
2.707078677E1,6.641464233E-1,8.131451607E0,1.042152977E1
2.709088208E1,-2.172100067E0,5.391024590E0,1.140367603E1
2.711097740E1,-1.113298655E0,4.691544533E0,1.119766426E1
2.713107271E1,4.611296207E-2,4.317850113E0,8.950705528E0
2.715116802E1,1.036044434E-1,4.265149593E0,6.972040176E0
2.717126365E1,-2.263128281E0,4.135793686E0,7.350525856E0
2.719135948E1,-3.283602238E0,4.418460369E0,7.091814041E0
2.721145531E1,-1.573230505E0,4.116630077E0,7.733802319E0
2.723155115E1,-1.213908792E0,3.177602291E0,8.653666496E0
2.725164656E1,-1.534902930E0,2.439794779E0,9.664558411E0
2.727174188E1,-1.276191235E0,2.435003996E0,9.539993286E0
2.729183719E1,-7.348130345E-1,2.506868362E0,8.509937286E0
2.731193250E1,-4.761013687E-1,2.808698654E0,7.695474625E0
2.733202781E1,-3.275817037E-1,3.177602291E0,7.178051472E0
2.735212313E1,-6.629486680E-1,3.335703850E0,6.938503742E0
2.737221844E1,2.760789096E-1,2.808698654E0,6.794775009E0
2.739231406E1,-1.333682656E0,3.757308006E0,6.512108326E0
2.741240990E1,-1.694801003E-1,5.103567123E0,7.963768482E0
2.743250573E1,8.462027907E-1,5.319159985E0,8.677620888E0
2.745260156E1,7.503836751E-1,4.739454269E0,9.372309685E0
2.747269693E1,2.215817571E-2,4.696335793E0,1.015323544E1
2.749279224E1,-4.042370021E-1,4.935883522E0,1.057483959E1
2.751288755E1,-5.928809568E-2,4.691544533E0,1.124557400E1
2.753298286E1,6.114459038E-1,6.368379593E0,1.057004929E1
2.755307818E1,1.641501665E0,7.345735073E0,1.061316776E1
2.757317349E1,1.981659651E0,6.459407806E0,1.169113350E1
2.759326880E1,1.809185147E0,5.041284561E0,1.303260136E1
2.761336448E1,1.631919742E0,4.135793686E0,1.331526756E1
2.763346031E1,1.794812322E0,3.695025682E0,1.192109871E1
2.765355615E1,1.560055375E0,3.992064953E0,9.329191208E0
2.767365198E1,8.078751564E-1,4.332222939E0,6.914548874E0
2.769374729E1,-1.007897615E0,3.920200586E0,7.494254589E0
2.771384260E1,-1.640303969E0,3.249466658E0,1.017719078E1
2.773393792E1,-2.796721160E-1,3.412359238E0,9.913687706E0
2.775403323E1,1.080959678E0,3.752517223E0,7.063068390E0
2.777412854E1,2.087060690E0,3.996855974E0,5.453306675E0
2.779422385E1,2.455964327E0,4.001646996E0,5.812628746E0
2.781431917E1,2.111015558E0,3.996855974E0,6.320470333E0
2.783441490E1,1.823558092E0,4.207658291E0,5.817419529E0
2.785451073E1,1.416326642E0,4.471160889E0,5.783883095E0
2.787460656E1,1.881049514E0,4.533442974E0,6.301306248E0
2.789470234E1,2.786540508E0,4.447206020E0,6.698955536E0
2.791479766E1,3.035670280E0,4.590934753E0,7.316989422E0
2.793489297E1,3.174607992E0,4.979001999E0,8.481191635E0
2.795498828E1,2.757794619E0,5.323951244E0,8.711157799E0
2.797508359E1,2.235580444E0,5.649735928E0,8.577011108E0
2.799517891E1,2.604484081E0,5.965939522E0,8.102705956E0
2.801527422E1,2.312235594E0,6.310888290E0,9.147134781E0
2.803536953E1,2.609275103E0,6.387543678E0,1.114496422E1
2.805546531E1,3.634539843E0,6.459407806E0,1.099644470E1
2.807556115E1,4.808324337E0,7.340943813E0,8.668039322E0
2.809565698E1,3.601003170E0,6.909758091E0,1.195463562E1
2.811575271E1,3.998652458E0,7.010367870E0,1.106830883E1
2.813584802E1,5.090990543E0,5.932402611E0,1.150907707E1
2.815594333E1,5.225137711E0,4.787364006E0,1.100602627E1
2.817603865E1,4.487329960E0,4.533442974E0,8.682412148E0
2.819613396E1,3.658494711E0,4.710708618E0,6.914548874E0
2.821622927E1,8.318299055E-1,4.600516319E0,7.748175144E0
2.823632458E1,1.766066551E0,4.068720341E0,7.700265884E0
2.825641990E1,1.478609085E0,3.402777195E0,8.045214653E0
2.827651513E1,1.320507526E0,2.775161982E0,8.543474197E0
2.829661112E1,1.358835220E0,2.842235327E0,8.639293671E0
2.831670696E1,4.677171707E-1,3.014709711E0,8.433281898E0
2.833680269E1,-1.215705350E-1,2.669760942E0,7.690683842E0
2.835689800E1,-1.455253214E-1,2.770370960E0,7.245124817E0
2.837699331E1,5.108358264E-1,3.072201252E0,7.987723351E0
2.839708862E1,5.539544225E-1,3.431523085E0,8.500355721E0
2.841718394E1,2.185874134E-1,3.647116184E0,8.337463379E0
2.843727925E1,-4.042370021E-1,3.939364433E0,8.059587479E0
2.845737456E1,-7.683497667E-1,4.092675209E0,7.633192539E0
2.847746987E1,-3.946550786E-1,3.805217743E0,6.804356575E0
2.849756571E1,8.174570799E-1,4.514279366E0,7.479881763E0
2.851766154E1,7.312198281E-1,5.137103558E0,8.806977272E0
2.853775737E1,-1.055807114E0,4.902346611E0,8.907587051E0
2.855785305E1,-2.128981590E0,4.447206020E0,8.893214226E0
2.857794836E1,-2.173896730E-1,4.571770668E0,1.032571030E1
2.859804368E1,5.922820568E-1,4.729872227E0,1.032571030E1
2.861813899E1,-2.023580551E0,3.944155455E0,1.072336006E1
2.863823430E1,-3.475240469E0,3.369240522E0,1.160489559E1
2.865832961E1,-3.441703796E0,2.458958626E0,1.383748150E1
2.867842493E1,-1.942134261E0,2.123591661E0,1.511187649E1
2.869852034E1,-1.568439603E0,2.042145491E0,1.320507526E1
2.871861597E1,-2.330201864E0,1.716360331E0,9.458546638E0
2.873871180E1,-3.451285601E0,1.970281124E0,7.230751991E0
2.875880763E1,-3.863307953E0,1.400157213E0,7.063068390E0
2.877890321E1,-1.985252857E0,1.831343293E0,8.021260262E0
2.879899852E1,1.076168776E0,7.821237445E-1,8.045214653E0
2.881909383E1,1.277388930E0,1.328292847E0,8.040423393E0
2.883918914E1,4.102256894E-1,1.989444971E0,8.993824005E0
2.885928446E1,-1.838529855E-1,2.358348608E0,9.899314880E0
2.887937977E1,-9.935247302E-1,2.348766804E0,9.774749756E0
2.889947508E1,-1.362428427E0,1.769060850E0,9.022569656E0
2.891957065E1,-8.689598441E-1,1.275592327E0,8.917168617E0
2.893966649E1,-6.437848806E-1,9.929258823E-1,9.516038895E0
2.895976232E1,-1.017479539E0,6.671407819E-1,9.875360489E0
2.897985815E1,-1.352846503E0,7.390051484E-1,9.659767151E0
2.899995362E1,-6.916944385E-1,9.162705541E-1,9.448965073E0
2.902004894E1,-6.725305915E-1,1.261219501E0,9.487293243E0
2.904014425E1,-5.288019180E-1,1.323501945E0,9.865777969E0
2.906023956E1,2.664969862E-1,2.894935846E0,8.490774155E0
2.908033487E1,9.036942720E-1,3.115319729E0,9.468129158E0
2.910043018E1,1.286970854E0,3.781262875E0,1.057004929E1
2.912052550E1,1.036044434E-1,4.274731636E0,1.236186695E1
2.914062107E1,-1.175581098E0,4.236403942E0,1.314758396E1
2.916071690E1,-1.530111909E0,3.551296949E0,1.291282749E1
2.918081274E1,-7.396039963E-1,2.013399601E0,1.310925674E1
2.920090857E1,-3.371635973E-1,2.353557587E0,1.332964039E1
2.922100404E1,8.030841947E-1,2.267320395E0,1.082396984E1
2.924109935E1,6.162368655E-1,2.348766804E0,8.361417770E0
2.926119466E1,2.473331541E-1,2.712879419E0,7.815248966E0
2.928128998E1,-3.323726356E-1,2.597896576E0,8.303926468E0
2.930138529E1,-9.312422872E-1,2.334393740E0,8.754276276E0
2.932148060E1,-1.007897615E0,2.233783722E0,8.447654724E0
2.934157592E1,-3.946550786E-1,2.281693220E0,7.896695137E0
2.936167154E1,4.132200405E-2,2.205038071E0,7.618819714E0
2.938176737E1,1.850507110E-1,2.353557587E0,7.427181244E0
2.940186321E1,3.479432464E-1,2.698506594E0,6.598345757E0
2.942195904E1,4.677171707E-1,2.985964060E0,6.004266739E0
2.944205440E1,1.323501915E-1,3.220721006E0,6.377961636E0
2.946214972E1,-2.030168027E-1,3.292585373E0,7.197215080E0
2.948224503E1,-6.389939189E-1,3.503387451E0,8.021260262E0
2.950234034E1,-1.357637405E0,3.627952337E0,8.586592674E0
2.952243565E1,-3.371635973E-1,3.675861835E0,8.332672119E0
2.954253097E1,-8.737508059E-1,4.039974689E0,9.410637856E0
2.956262628E1,-1.266609311E0,3.953737259E0,1.092937088E1
2.958272206E1,-1.525321007E0,3.920200586E0,1.234749413E1
2.960281789E1,-8.833327293E-1,4.624471188E0,1.273556137E1
2.962291373E1,-1.276191235E0,4.993374825E0,1.195942688E1
2.964300946E1,-2.996144772E0,4.222031116E0,1.120724678E1
2.966310477E1,-3.959127188E0,3.584833622E0,1.196900845E1
2.968320008E1,-3.508777142E0,2.281693220E0,1.378957176E1
2.970329539E1,-1.175581098E0,2.013399601E0,1.377999020E1
2.972339071E1,-8.162593246E-1,2.176292181E0,1.110184574E1
2.974348602E1,-1.994834781E0,2.176292181E0,7.690683842E0
2.976358133E1,-2.675150633E0,2.305648088E0,7.043904781E0
2.978367675E1,-2.636822939E0,2.147546530E0,8.289553642E0
2.980377258E1,-1.606767178E0,2.070891142E0,8.586592674E0
2.982386842E1,-7.060673237E-1,2.022981644E0,7.901485920E0
2.984396425E1,-2.078077644E-1,2.157128334E0,7.379271507E0
2.986405982E1,-2.748811543E-1,2.516450167E0,7.254706860E0
2.988415513E1,-2.700901926E-1,2.875771999E0,7.316989422E0
2.990425045E1,-3.611183763E-1,3.043455601E0,7.446344852E0
2.992434576E1,-4.952651858E-1,3.139274597E0,7.700265884E0
2.994444107E1,-1.551072299E-1,3.206347942E0,8.150615692E0
2.996453638E1,2.994348295E-3,3.220721006E0,8.783021927E0
2.998463170E1,-2.413444668E-1,3.479432583E0,9.554366112E0
3.000472722E1,-4.713104069E-1,3.699816704E0,1.044069290E1
3.002482305E1,-4.665194452E-1,3.920200586E0,1.104914474E1
3.004491888E1,-2.461354136E-1,3.958528280E0,1.103477192E1
3.006501472E1,-4.491522163E-2,3.829172373E0,1.094853497E1
3.008511018E1,2.233783752E-1,3.651906967E0,1.143721199E1
3.010520550E1,1.282179832E0,4.322640896E0,1.186360741E1
3.012530081E1,1.023468256E0,4.926301479E0,1.125994682E1
3.014539612E1,-5.719205141E-1,4.681962967E0,1.037841034E1
3.016549144E1,-6.246210337E-1,3.963319302E0,1.126473808E1
3.018558675E1,5.970730186E-1,2.789534807E0,1.255829620E1
3.020568206E1,2.345772266E0,2.439794779E0,1.165280533E1
3.022577763E1,2.470337152E0,2.789534807E0,8.854886055E0
3.024587347E1,9.372310042E-1,2.885353804E0,7.182842255E0
3.026596930E1,-5.449713767E-2,3.134483576E0,7.264288902E0
3.028606513E1,-3.419545591E-1,2.803907633E0,7.618819714E0
3.030616055E1,-1.359434128E-1,2.262529373E0,7.532582283E0
3.032625586E1,1.658868939E-1,1.917580605E0,7.388853550E0
3.034635118E1,7.647565007E-1,1.922371507E0,7.513418674E0
3.036644649E1,9.659767151E-1,1.946326375E0,7.561327934E0
3.038654180E1,7.455927134E-1,2.243365765E0,7.412808418E0
3.040663711E1,3.766889870E-1,2.751207113E0,7.154096603E0
3.042673242E1,7.006774843E-2,3.187184095E0,6.871430397E0
3.044682800E1,-1.407343596E-1,3.536924124E0,6.962458611E0
3.046692383E1,-4.425646663E-1,3.790844679E0,7.748175144E0
3.048701967E1,-5.719205141E-1,3.805217743E0,9.022569656E0
3.050711550E1,-1.024067104E-1,3.953737259E0,1.054609394E1
3.052721092E1,1.179773211E-1,3.795635700E0,1.161447811E1
3.054730623E1,-7.366096228E-2,3.877082109E0,1.190672588E1
3.056740154E1,-4.904742241E-1,3.833963394E0,1.202649975E1
3.058749685E1,-4.329827428E-1,4.030392647E0,1.228042030E1
3.060759217E1,4.132200405E-2,4.945465565E0,1.260620594E1
3.062768748E1,-1.041434288E0,5.103567123E0,1.169113350E1
3.064778279E1,-3.077590942E0,3.733353376E0,1.124557400E1
3.066787826E1,-3.393794298E0,2.775161982E0,1.284575367E1
3.068797409E1,-2.483512402E0,2.176292181E0,1.355481529E1
3.070806992E1,-6.198300719E-1,2.286484241E0,1.162885094E1
3.072816576E1,-3.754912615E-1,2.444585800E0,8.529101372E0
3.074826123E1,-1.812778354E0,1.773851871E0,5.999475956E0
3.076835675E1,-2.905116558E0,2.109218836E0,6.219860077E0
3.078845206E1,-3.058427334E0,2.746416092E0,7.714638710E0
3.080854737E1,-1.903806567E0,2.890144825E0,8.141034126E0
3.082864269E1,-8.497959971E-1,2.593105555E0,7.992514133E0
3.084873800E1,-1.646891534E-1,2.617060423E0,7.690683842E0
3.086883331E1,-5.928809568E-2,2.962009192E0,7.604446411E0
3.088892862E1,-1.982258558E-1,3.239884615E0,7.786502838E0
3.090902399E1,-4.713104069E-1,3.211138964E0,7.752966404E0
3.092911982E1,-2.413444668E-1,3.321331024E0,7.451136112E0
3.094921565E1,1.736721955E-2,3.460268736E0,7.853576183E0
3.096931149E1,-1.790620238E-1,3.527342081E0,8.778230667E0
3.098940706E1,-3.467455208E-1,3.623161316E0,9.698095322E0
3.100950237E1,-7.923045158E-1,3.853127241E0,1.112580013E1
3.102959769E1,-6.725305915E-1,4.111838818E0,1.169592381E1
3.104969300E1,-4.138189256E-1,3.891454935E0,1.163364124E1
3.106978831E1,-1.982258558E-1,3.354867697E0,1.125515556E1
3.108988362E1,6.018639803E-1,3.508178234E0,1.133660221E1
3.110997894E1,1.373208046E0,4.744245052E0,1.149949455E1
3.113007425E1,2.473331541E-1,5.108357906E0,1.060358620E1
3.115017008E1,-1.348055601E0,4.595725536E0,1.052693081E1
3.117026592E1,-1.194744945E0,3.800426722E0,1.179653454E1
3.119036175E1,5.539544225E-1,2.971591234E0,1.175820637E1
3.121045737E1,2.197252750E0,3.163229465E0,9.851405144E0
3.123055269E1,1.972077727E0,3.239884615E0,7.446344852E0
3.125064800E1,3.335703909E-1,2.813489437E0,6.109668255E0
3.127074331E1,-8.018864393E-1,3.009918690E0,7.604446411E0
3.129083862E1,-1.448665619E0,2.660178900E0,9.487293243E0
3.131093394E1,-6.437848806E-1,1.922371507E0,9.602275848E0
3.133102925E1,3.431523144E-1,1.500767350E0,8.577011108E0
3.135112456E1,9.420219660E-1,1.697196603E0,7.379271507E0
3.137122029E1,1.148033142E0,2.267320395E0,6.622300625E0
3.139131612E1,5.683273077E-1,2.842235327E0,6.430662155E0
3.141141196E1,6.527678668E-2,3.412359238E0,6.258187771E0
3.143150769E1,-2.940450013E-1,3.901036739E0,6.430662155E0
3.145160300E1,-4.186098874E-1,4.020810604E0,7.087023258E0
3.147169831E1,-5.240109563E-1,3.910618782E0,8.265598297E0
3.149179362E1,-4.761013687E-1,3.685443640E0,9.520829201E0
3.151188894E1,-1.551072299E-1,3.757308006E0,1.095811653E1
3.153198425E1,-1.137852296E-2,4.121420860E0,1.102519035E1
3.155207956E1,3.174009174E-2,4.423251152E0,1.076168728E1
3.157217487E1,-1.119886190E-1,4.164539337E0,1.107789040E1
3.159227045E1,7.964966446E-2,4.533442974E0,1.192109871E1
3.161236628E1,-4.186098874E-1,5.462888718E0,1.195463562E1
3.163246211E1,-1.659467816E0,5.074821472E0,1.113059139E1
3.165255795E1,-2.473930359E0,4.217239857E0,1.128869247E1
3.167265331E1,-2.866788864E0,3.057828426E0,1.220376587E1
3.169274862E1,-2.382902384E0,1.812179565E0,1.320028496E1
3.171284394E1,-1.678631544E0,1.668450832E0,1.256787777E1
3.173293925E1,-1.788823605E0,2.018190622E0,9.822659492E0
3.175303456E1,-3.005726814E0,1.783433795E0,7.192424297E0
3.177312987E1,-3.858517170E0,1.749897122E0,7.139723778E0
3.179322518E1,-3.082381964E0,2.185874224E0,8.193734169E0
3.181332060E1,-1.889433742E0,2.454167843E0,8.485982895E0
3.183341644E1,-1.280982137E0,2.578732729E0,7.968559265E0
3.185351227E1,-1.472620487E0,2.856608152E0,7.676311016E0
3.187360810E1,-1.520529985E0,3.311748981E0,7.326570988E0
3.189370362E1,-1.290564060E0,3.551296949E0,6.809147835E0
3.191379894E1,-1.051016212E0,3.536924124E0,6.219860077E0
3.193389425E1,-8.066774011E-1,3.489014387E0,6.373170853E0
3.195398956E1,-5.719205141E-1,3.273421526E0,7.340943813E0
3.197408487E1,-3.036268950E-1,3.335703850E0,8.524310112E0
3.199418018E1,-3.533330932E-2,3.417150259E0,1.001908875E1
3.201427550E1,-2.030168027E-1,3.306958199E0,1.092457962E1
3.203437081E1,-7.845192403E-2,3.613579273E0,1.119766426E1
3.205446649E1,-5.449713767E-2,4.054347515E0,1.088625240E1
3.207456232E1,-1.119886190E-1,4.284313202E0,1.047422981E1
3.209465815E1,-9.761574864E-2,4.313059330E0,1.088146114E1
3.211475394E1,6.545644999E-1,4.691544533E0,1.163364124E1
3.213484925E1,4.102256894E-1,5.477261543E0,1.178695202E1
3.215494456E1,-1.601976275E0,5.841374397E0,1.135097504E1
3.217503987E1,-2.679941654E0,5.228131771E0,1.061795902E1
3.219513519E1,-1.879851818E0,3.493805408E0,1.082876110E1
3.221523050E1,5.443724990E-1,2.430212975E0,1.199775410E1
3.223532581E1,2.134970188E0,2.214619875E0,1.128390121E1
3.225542112E1,1.766066551E0,2.578732729E0,8.485982895E0
3.227551654E1,3.144065440E-1,2.856608152E0,6.737283230E0
3.229561237E1,-5.719205141E-1,3.110528946E0,7.024740696E0
3.231570821E1,-9.168694019E-1,2.775161982E0,7.935022831E0
3.233580404E1,-6.437848806E-1,2.296066284E0,8.069169044E0
3.235589956E1,-6.887000799E-2,1.783433795E0,7.695474625E0
3.237599487E1,5.635363460E-1,1.558258772E0,7.604446411E0
3.239609018E1,9.420219660E-1,1.754688025E0,7.700265884E0
3.241618550E1,7.264288664E-1,2.152337551E0,7.321780205E0
3.243628081E1,9.402253479E-2,2.741625309E0,6.804356575E0
3.245637612E1,-5.575476289E-1,3.330912828E0,7.178051472E0
3.247647144E1,-7.731407285E-1,3.479432583E0,8.169779778E0
3.249656675E1,-6.006662250E-1,3.354867697E0,9.338772774E0
3.251666237E1,-2.365535051E-1,3.239884615E0,1.024426365E1
3.253675821E1,6.048583239E-2,3.637534142E0,1.067065907E1
3.255685404E1,-4.491522163E-2,4.063929558E0,1.052693081E1
3.257694982E1,-4.377737045E-1,4.260358810E0,1.028738213E1
3.259704513E1,-7.060673237E-1,4.274731636E0,1.055567646E1
3.261714045E1,-3.179997802E-1,4.092675209E0,1.133660221E1
3.263723576E1,7.791293859E-1,4.950256348E0,1.169592381E1
3.265733107E1,-3.467455208E-1,5.022120953E0,1.055567646E1
3.267742638E1,-2.339783669E0,4.346595764E0,1.000471592E1
3.269752170E1,-3.408167124E0,3.766890049E0,1.188277149E1
3.271761701E1,-3.925590515E0,2.458958626E0,1.365542507E1
3.273771237E1,-2.627241135E0,1.342665672E0,1.369854450E1
3.275780821E1,-1.453456640E0,1.452857733E0,1.106351757E1
3.277790404E1,-1.745705009E0,1.630123138E0,7.403226376E0
3.279799987E1,-2.914698601E0,1.280383229E0,5.347905636E0
3.281809545E1,-3.135082483E0,1.462439656E0,6.109668255E0
3.283819076E1,-2.708687305E0,2.037354469E0,8.256016731E0
3.285828607E1,-1.922970414E0,2.147546530E0,9.060897827E0
3.287838138E1,-1.189953923E0,2.152337551E0,8.715949059E0
3.289847670E1,-9.743608832E-1,2.166710377E0,8.227271080E0
3.291857201E1,-1.074970961E0,2.641015053E0,8.188943863E0
3.293866732E1,-1.395965099E0,3.024291754E0,8.078751564E0
3.295876263E1,-1.108507752E0,3.057828426E0,7.321780205E0
3.297885815E1,-6.198300719E-1,2.957218170E0,7.278661728E0
3.299895399E1,2.521241307E-1,2.904517651E0,8.495564461E0
3.301904982E1,1.004304409E0,2.794325829E0,9.942433357E0
3.303914565E1,8.653666377E-1,2.837444305E0,1.055567646E1
3.305924102E1,7.964966446E-2,3.148856640E0,1.085750675E1
3.307933633E1,-3.563274443E-1,3.546505928E0,1.144200325E1
3.309943164E1,-2.796721160E-1,3.752517223E0,1.113059139E1
3.311952696E1,-7.845192403E-2,3.666279793E0,1.079043293E1
3.313962227E1,2.664969862E-1,3.695025682E0,1.089583397E1
3.315971758E1,7.551746368E-1,4.078302383E0,1.135097504E1
3.317981289E1,2.425422072E-1,4.212449074E0,1.112100887E1
3.319990821E1,-3.994460404E-1,4.504697323E0,1.072815037E1
3.322000399E1,-8.114683628E-1,4.332222939E0,1.084313393E1
3.324009982E1,-3.707002997E-1,3.268630505E0,1.162885094E1
3.326019513E1,6.162368655E-1,1.960699201E0,1.242894077E1
3.328028914E1,1.866676688E0,1.759479046E0,1.199775410E1
3.330038680E1,2.609275103E0,2.343975782E0,9.425010681E0
3.332048211E1,2.283489943E0,2.918890715E0,6.363588810E0
3.334057742E1,1.181569815E0,3.124901772E0,5.199386120E0
3.336067274E1,9.324400425E-1,3.153647423E0,6.952876568E0
3.338076805E1,8.845304251E-1,2.315229893E0,9.233371735E0
3.340086336E1,1.310925603E0,1.524722099E0,1.023468208E1
3.342095868E1,1.488191009E0,9.354343414E-1,1.035445595E1
3.344105399E1,1.449863434E0,8.300333023E-1,9.918478966E0
3.346114940E1,1.229479313E0,1.280383229E0,9.386682510E0
3.348124524E1,7.216379046E-1,1.788224697E0,8.485982895E0
3.350134107E1,2.712879479E-1,2.238574743E0,7.331362247E0
3.352143690E1,8.923157305E-2,2.808698654E0,6.536063194E0
3.354153242E1,-9.761574864E-2,3.268630505E0,6.612718582E0
3.356162774E1,-1.311524510E-1,3.651906967E0,7.475090981E0
3.358172305E1,-2.173896730E-1,3.781262875E0,8.260807991E0
3.360181836E1,-2.317625433E-1,4.121420860E0,8.720739365E0
3.362191368E1,-2.221806347E-1,4.255567551E0,9.017779350E0
3.364200899E1,-3.611183763E-1,4.116630077E0,9.626230240E0
3.366210430E1,-7.845192403E-2,3.838754416E0,1.092937088E1
3.368219961E1,9.563947916E-1,3.924991608E0,1.265411568E1
3.370229524E1,1.502563953E0,4.859228134E0,1.268765163E1
3.372239107E1,-2.652992606E-1,4.634053230E0,1.084313393E1
3.374248690E1,-1.908597589E0,3.283003330E0,1.020114517E1
3.376258269E1,-2.320619822E0,1.879252911E0,1.328173065E1
3.378267800E1,-1.285773158E0,1.127072692E0,1.561492729E1
3.380277331E1,2.215817571E-2,1.380993366E0,1.404349327E1
3.382286862E1,-4.090279639E-1,1.548676848E0,1.001908875E1
3.384296394E1,-1.736123085E0,1.337874770E0,7.063068390E0
3.386305925E1,-2.747014999E0,1.151027441E0,6.995995045E0
3.388315456E1,-2.445184708E0,2.042145491E0,9.357936859E0
3.390324987E1,-1.712168336E0,2.262529373E0,1.025384617E1
3.392334539E1,-7.060673237E-1,2.257738590E0,8.811767578E0
3.394344123E1,-5.096380711E-1,2.530822992E0,7.139723778E0
3.396353706E1,-5.719205141E-1,3.110528946E0,6.387543678E0
3.398363289E1,-7.587678432E-1,3.532133102E0,6.344424725E0
3.400372831E1,-7.875135541E-1,3.771681070E0,6.306097031E0
3.402382362E1,-8.737508059E-1,3.891454935E0,6.627091408E0
3.404391894E1,-4.856832623E-1,3.680652857E0,6.799565792E0
3.406401425E1,1.946326345E-1,3.647116184E0,7.187633514E0
3.408410956E1,5.156267285E-1,3.354867697E0,8.275180817E0
3.410420487E1,2.042145431E-1,3.374031544E0,9.118389130E0
3.412430018E1,-1.359434128E-1,3.790844679E0,9.769959450E0
3.414439550E1,-4.970617965E-2,3.948946476E0,1.034008312E1
3.416449133E1,1.563049704E-1,3.953737259E0,1.102039909E1
3.418458716E1,2.694913372E-2,3.891454935E0,1.159531403E1
3.420468300E1,1.275592297E-1,4.087883949E0,1.232833004E1
3.422477862E1,4.054347575E-1,5.026911736E0,1.258704185E1
3.424487394E1,-1.790620238E-1,5.141894817E0,1.139888477E1
3.426496925E1,-5.671295524E-1,4.691544533E0,1.099644470E1
3.428506456E1,-1.407343596E-1,3.656697989E0,1.238103104E1
3.430515987E1,1.243852258E0,2.823071480E0,1.258704185E1
3.432525518E1,2.072687864E0,3.345285892E0,1.019635487E1
3.434535050E1,1.143242121E0,4.073511124E0,7.412808418E0
3.436544581E1,-6.485758424E-1,3.819590569E0,6.445034981E0
3.438554154E1,-1.261818290E0,3.695025682E0,8.509937286E0
3.440563737E1,-9.599879980E-1,2.890144825E0,1.000471592E1
3.442573321E1,-5.928809568E-2,2.118800879E0,9.563947678E0
3.444582894E1,7.599655390E-1,1.812179565E0,8.361417770E0
3.446592425E1,1.282179832E0,2.128382683E0,7.125350952E0
3.448601956E1,1.478609085E0,2.847026348E0,6.004266739E0
3.450611487E1,1.239061236E0,3.321331024E0,5.410188198E0
3.452621019E1,8.078751564E-1,3.560878754E0,5.999475956E0
3.454630550E1,5.731182694E-1,3.738144159E0,7.316989422E0
3.456640081E1,6.258187890E-1,3.489014387E0,8.404536247E0
3.458649612E1,2.952427268E-1,3.350076675E0,9.123180389E0
3.460659175E1,3.653104603E-2,3.627952337E0,9.539993286E0
3.462668758E1,1.658868939E-1,4.073511124E0,9.932851791E0
3.464678342E1,5.156267285E-1,4.102256775E0,1.024905491E1
3.466687925E1,6.354007125E-1,3.963319302E0,1.103477192E1
3.468697456E1,5.012539029E-1,4.016019821E0,1.182528019E1
3.470706987E1,1.344462276E0,5.232923031E0,1.170071507E1
3.472716519E1,-2.892540395E-1,5.587453842E0,1.037841034E1
3.474726050E1,-2.603286266E0,4.495115280E0,1.098207092E1
3.476735581E1,-3.197365046E0,3.465059757E0,1.303739166E1
3.478745112E1,-3.024890423E0,2.166710377E0,1.400516510E1
3.480754644E1,-1.194744945E0,2.075682163E0,1.307571983E1
3.482764196E1,-9.360332489E-1,2.569150686E0,9.904106140E0
3.484773779E1,-2.464348555E0,2.454167843E0,7.302616119E0
3.486783362E1,-3.614178181E0,2.252947569E0,6.612718582E0
3.488792946E1,-3.230901718E0,2.861399174E0,8.241643906E0
3.490802487E1,-1.922970414E0,3.124901772E0,8.768649101E0
3.492812019E1,-8.066774011E-1,2.875771999E0,7.657146931E0
3.494821550E1,-1.934348941E-1,2.847026348E0,6.742074490E0
3.496831081E1,-9.282479435E-2,2.990754843E0,6.722910404E0
3.498840612E1,-4.952651858E-1,3.302167177E0,7.225961208E0
3.500850144E1,-9.839428067E-1,3.479432583E0,7.101396084E0
3.502859675E1,-1.122880578E0,3.589624643E0,6.325261116E0
3.504869217E1,-1.094134808E0,3.690234661E0,6.598345757E0
3.506878800E1,-7.156491876E-1,3.647116184E0,7.599655628E0
3.508888383E1,-2.748811543E-1,3.757308006E0,8.572219849E0
3.510897966E1,-3.275817037E-1,3.805217743E0,9.640603065E0
3.512907519E1,-2.844630778E-1,4.039974689E0,1.067545033E1
3.514917050E1,-5.928809568E-2,4.451996803E0,1.127911091E1
3.516926581E1,3.431523144E-1,4.543025017E0,1.101560783E1
3.518936112E1,3.335703909E-1,4.595725536E0,1.047902107E1
3.520945644E1,3.718980551E-1,5.146685600E0,1.103956318E1
3.522955175E1,9.881348908E-2,5.783883095E0,1.169592381E1
3.524964706E1,-1.175581098E0,5.597035408E0,1.194026279E1
3.526974237E1,-1.395965099E0,4.739454269E0,1.215106487E1
3.528983821E1,-5.671295524E-1,3.393195391E0,1.277867985E1
3.530993404E1,1.358835220E0,2.971591234E0,1.284096241E1
3.533002987E1,2.254744291E0,3.450686932E0,1.000471592E1
3.535012550E1,1.152824044E0,3.527342081E0,7.067859650E0
3.537022081E1,5.156267285E-1,3.249466658E0,6.694164753E0
3.539031612E1,-5.449713767E-2,2.808698654E0,8.749485016E0
3.541041144E1,-2.796721160E-1,2.506868362E0,9.602275848E0
3.543050675E1,-3.707002997E-1,2.118800879E0,9.089643478E0
3.545060206E1,-2.125987262E-1,1.884043932E0,8.342253685E0
3.547069737E1,7.964966446E-2,1.893625736E0,7.853576183E0
3.549079268E1,3.191975057E-1,2.209828854E0,7.431972027E0
3.551088847E1,9.402253479E-2,2.794325829E0,6.722910404E0
3.553098430E1,-3.323726356E-1,3.340494871E0,6.425871372E0
3.555108013E1,-6.006662250E-1,3.498596430E0,6.809147835E0
3.557117581E1,-3.611183763E-1,3.421941042E0,7.307407379E0
3.559127112E1,2.042145431E-1,3.350076675E0,7.642774105E0
3.561136644E1,6.401916146E-1,3.503387451E0,8.553055763E0
3.563146175E1,5.012539029E-1,3.795635700E0,9.626230240E0
3.565155706E1,3.239884675E-1,4.442414761E0,1.014844513E1
3.567165237E1,-1.455253214E-1,4.806527615E0,1.002867126E1
3.569174768E1,-4.042370021E-1,5.098775864E0,1.032571030E1
3.571184300E1,1.736721955E-2,5.395815372E0,1.159531403E1
3.573193868E1,-5.335928202E-1,5.496425629E0,1.172946072E1
3.575203451E1,-1.903806567E0,4.413669109E0,1.130306530E1
3.577213034E1,-2.885952711E0,3.407568216E0,1.190193558E1
3.579222612E1,-2.967399120E0,2.593105555E0,1.314279270E1
3.581232144E1,-1.587603450E0,2.214619875E0,1.300864601E1
3.583241675E1,-7.300220728E-1,2.588314533E0,1.068982315E1
3.585251206E1,-1.113298655E0,2.621851206E0,7.958977222E0
3.587260737E1,-2.315828800E0,2.099637032E0,5.918029785E0
3.589270268E1,-3.355466604E0,2.545196056E0,6.861848354E0
3.591279800E1,-3.216528893E0,2.650597095E0,8.773440361E0
3.593289331E1,-1.918179393E0,2.511659145E0,9.156716347E0
3.595298888E1,-1.151626348E0,2.492495537E0,8.907587051E0
3.597308472E1,-9.791518450E-1,2.755998135E0,8.490774155E0
3.599318055E1,-1.285773158E0,3.273421526E0,8.002096176E0
3.601327638E1,-1.453456640E0,3.800426722E0,7.427181244E0
3.603337175E1,-1.463038564E0,4.030392647E0,7.024740696E0
3.605346706E1,-1.223490715E0,4.111838818E0,7.197215080E0
3.607356237E1,-7.635588050E-1,3.958528280E0,7.882322311E0
3.609365769E1,-4.617284834E-1,3.814799547E0,9.161507607E0
3.611375300E1,-3.754912615E-1,3.848336220E0,1.113059139E1
3.613384831E1,-5.048471093E-1,3.996855974E0,1.216543770E1
3.615394362E1,-7.779316306E-1,4.159748554E0,1.111621857E1
3.617403914E1,-9.264513254E-1,4.226821899E0,9.779541016E0
3.619413498E1,-6.198300719E-1,4.159748554E0,9.583111763E0
3.621423081E1,2.856608033E-1,4.241194725E0,9.875360489E0
3.623432664E1,7.408017516E-1,4.284313202E0,9.808286667E0
3.625442206E1,1.736721955E-2,4.547815800E0,1.083355141E1
3.627451737E1,-7.587678432E-1,4.653216839E0,1.197379971E1
3.629461269E1,-2.030168027E-1,4.399296284E0,1.156656837E1
3.631470800E1,8.366208673E-1,3.441104889E0,1.100602627E1
3.633480331E1,2.249953270E0,3.421941042E0,1.050297546E1
3.635489862E1,2.321817636E0,3.551296949E0,8.596175194E0
3.637499394E1,1.742111802E0,3.335703850E0,6.445034981E0
3.639508946E1,9.851405621E-1,3.033873558E0,6.871430397E0
3.641518529E1,-1.503162831E-1,2.818280458E0,8.806977272E0
3.643528112E1,-6.773215532E-1,2.593105555E0,9.425010681E0
3.645537696E1,-4.329827428E-1,2.147546530E0,8.888422966E0
3.647547242E1,4.054347575E-1,1.874462008E0,7.901485920E0
3.649556774E1,1.013886333E0,1.999026895E0,7.235542774E0
3.651566305E1,1.253434181E0,2.209828854E0,6.536063194E0
3.653575836E1,8.845304251E-1,2.650597095E0,6.200695992E0
3.655585368E1,2.329602838E-1,3.302167177E0,6.732492447E0
3.657594899E1,-5.288019180E-1,3.603997469E0,7.633192539E0
3.659604430E1,-7.108582854E-1,3.498596430E0,8.414118767E0
3.661613977E1,-6.342029572E-1,3.354867697E0,9.333982468E0
3.663623560E1,-3.611183763E-1,3.738144159E0,1.048381138E1
3.665633144E1,-4.713104069E-1,4.068720341E0,1.082876110E1
3.667642727E1,-6.102481484E-1,4.198076248E0,1.061316776E1
3.669652279E1,-5.958752632E-1,4.451996803E0,1.125036526E1
3.671661810E1,-2.557173371E-1,4.576561928E0,1.242894077E1
3.673671342E1,-3.084178567E-1,4.964629173E0,1.240498543E1
3.675680873E1,-1.170790195E0,4.360968590E0,1.144679451E1
3.677690404E1,-1.927761316E0,3.378822565E0,1.125994682E1
3.679699935E1,-2.636822939E0,2.094846010E0,1.285533524E1
3.681709466E1,-1.352846503E0,1.567840695E0,1.436927795E1
3.683719013E1,-1.167795807E-1,2.137964487E0,1.245289516E1
3.685728597E1,-6.773215532E-1,2.114009857E0,8.835722923E0
3.687738180E1,-1.831942201E0,1.457648635E0,5.798255920E0
3.689747763E1,-2.770969868E0,2.008608818E0,6.085713387E0
3.691757315E1,-2.368529320E0,2.770370960E0,8.701576233E0
3.693766847E1,-9.791518450E-1,2.741625309E0,9.860987663E0
3.695776378E1,1.036044434E-1,2.564359665E0,8.984242439E0
3.697785909E1,1.610959321E-1,2.736834288E0,7.772130013E0
3.699795440E1,-3.611183763E-1,3.244675636E0,7.259497643E0
3.701804972E1,-8.354231715E-1,3.489014387E0,7.575700760E0
3.703814503E1,-9.935247302E-1,3.469850779E0,8.006887436E0
3.705824055E1,-6.198300719E-1,3.283003330E0,8.256016731E0
3.707833638E1,-1.167795807E-1,3.191975117E0,8.878841400E0
3.709843222E1,-2.096043713E-2,3.445895910E0,9.310027122E0
3.711852805E1,-3.802822232E-1,3.690234661E0,9.674139977E0
3.713862352E1,-3.898641467E-1,4.039974689E0,1.035924721E1
3.715871883E1,-9.761574864E-2,4.265149593E0,1.058921337E1
3.717881414E1,4.725081325E-1,4.039974689E0,1.068503189E1
3.719890946E1,9.084852338E-1,3.671070814E0,1.137972069E1
3.721900477E1,1.603173971E0,3.695025682E0,1.219418335E1
3.723910008E1,2.436800480E0,4.787364006E0,1.176778793E1
3.725919539E1,1.143242121E0,4.998166084E0,1.064670467E1
3.727929102E1,1.946326345E-1,5.343114853E0,1.018677235E1
3.729938685E1,-7.970954776E-1,4.686753750E0,1.074731445E1
3.731948269E1,1.371411532E-1,3.484223604E0,1.138930321E1
3.733957852E1,2.331399441E0,3.407568216E0,1.049339390E1
3.735967388E1,2.978178740E0,3.848336220E0,7.652356148E0
3.737976920E1,2.015196323E0,3.450686932E0,5.376651764E0
3.739986451E1,7.695474625E-1,3.254257679E0,5.299996376E0
3.741995982E1,-5.096380711E-1,3.297376156E0,7.661938190E0
3.744005513E1,-8.881236911E-1,2.698506594E0,9.425010681E0
3.746015045E1,-2.096043713E-2,2.176292181E0,9.578320503E0
3.748024576E1,1.052213907E0,1.769060850E0,8.548265457E0
3.750034154E1,1.569637299E0,1.898416758E0,6.852266312E0
3.752043737E1,1.483400106E0,2.597896576E0,5.438933849E0
3.754053321E1,7.072650194E-1,3.316540003E0,5.323951244E0
3.756062899E1,-1.455253214E-1,3.857918262E0,6.512108326E0
3.758072430E1,-4.186098874E-1,4.135793686E0,7.379271507E0
3.760081961E1,-5.335928202E-1,4.337013721E0,7.776921272E0
3.762091492E1,-5.575476289E-1,4.212449074E0,8.533892632E0
3.764101024E1,-4.281917810E-1,4.188494205E0,9.640603065E0
3.766110555E1,-2.700901926E-1,4.725081444E0,1.009095383E1
3.768120086E1,-4.377737045E-1,4.926301479E0,9.525620461E0
3.770129618E1,-7.156491876E-1,5.002956867E0,9.477710724E0
3.772139201E1,-6.964854002E-1,5.113149166E0,1.045027542E1
3.774148784E1,-1.263614893E-1,5.846165180E0,1.179174328E1
3.776158368E1,-1.070180058E0,5.683272839E0,1.141325760E1
3.778167940E1,-2.172100067E0,5.113149166E0,1.118808270E1
3.780177472E1,-3.259647369E0,4.346595764E0,1.237623978E1
3.782187003E1,-3.547104836E0,3.397986412E0,1.372249889E1
3.784196534E1,-2.464348555E0,2.794325829E0,1.417763996E1
3.786206065E1,-1.300145984E0,3.057828426E0,1.178216076E1
3.788215597E1,-1.760077834E0,3.005127907E0,8.370999336E0
3.790225128E1,-2.699105501E0,2.636224031E0,6.564808846E0
3.792234670E1,-3.182992220E0,2.770370960E0,7.384062767E0
3.794244253E1,-2.545794725E0,3.043455601E0,8.663248062E0
3.796253836E1,-1.673840642E0,2.760788918E0,8.529101372E0
3.798263420E1,-9.839428067E-1,2.746416092E0,7.882322311E0
3.800272982E1,-8.162593246E-1,2.990754843E0,7.609237671E0
3.802282513E1,-7.252311110E-1,3.359658718E0,7.269079685E0
3.804292045E1,-7.108582854E-1,3.623161316E0,6.742074490E0
3.806301576E1,-8.593779206E-1,3.714189529E0,6.239023685E0
3.808311107E1,-8.593779206E-1,3.910618782E0,6.579181671E0
3.810320638E1,-9.791518450E-1,4.063929558E0,7.551745892E0
3.812330170E1,-9.983156919E-1,4.408878326E0,8.452445984E0
3.814339727E1,-1.362428427E0,4.629262447E0,9.434592247E0
3.816349310E1,-1.640303969E0,4.772991180E0,1.011969948E1
3.818358894E1,-1.060598135E0,4.844855309E0,1.028738213E1
3.820368477E1,-3.515364826E-1,4.758618355E0,9.846614838E0
3.822378024E1,3.287794292E-1,4.595725536E0,9.252535820E0
3.824387555E1,6.593554616E-1,4.806527615E0,9.199835777E0
3.826397086E1,1.071377754E0,5.419770241E0,9.568738937E0
3.828406618E1,4.677171707E-1,5.290414333E0,1.019635487E1
3.830416149E1,-4.521465898E-1,5.501216412E0,1.152344990E1
3.832425680E1,-1.491784215E0,4.988584042E0,1.212231922E1
3.834435211E1,-1.070180058E0,3.805217743E0,1.197379971E1
3.836444789E1,1.076168776E0,3.378822565E0,1.126473808E1
3.838454373E1,1.996032476E0,3.862709045E0,8.634502411E0
3.840463956E1,9.611857533E-1,3.632743120E0,6.301306248E0
3.842473534E1,-2.748811543E-1,3.690234661E0,6.799565792E0
3.844483065E1,-1.036643386E0,3.910618782E0,8.648875237E0
3.846492597E1,-1.165999174E0,3.489014387E0,8.845304489E0
3.848502128E1,-5.575476289E-1,2.741625309E0,8.241643906E0
3.850511659E1,1.227682754E-1,2.310439110E0,7.834412575E0
3.852521190E1,6.258187890E-1,2.411049128E0,7.685893059E0
3.854530722E1,4.820900559E-1,2.760788918E0,7.202006340E0
3.856540268E1,1.850507110E-1,3.268630505E0,6.564808846E0
3.858549852E1,1.736721955E-2,3.685443640E0,6.612718582E0
3.860559435E1,8.444061875E-2,3.853127241E0,7.350525856E0
3.862569018E1,2.856608033E-1,3.968110323E0,8.016469002E0
3.864578576E1,1.131863594E-1,4.159748554E0,8.466818810E0
3.866588107E1,-4.761013687E-1,4.480742455E0,9.209417343E0
3.868597638E1,-8.402140737E-1,4.907137871E0,9.947224617E0
3.870607170E1,-6.725305915E-1,4.911928654E0,1.044548416E1
3.872616701E1,-2.652992606E-1,4.634053230E0,1.058442211E1
3.874626232E1,2.994348295E-3,4.519070148E0,1.102519035E1
3.876635763E1,1.227682754E-1,5.074821472E0,1.216543770E1
3.878645331E1,-5.383837819E-1,5.922820568E0,1.217981052E1
3.880654914E1,-2.526630878E0,5.237713814E0,1.149470425E1
3.882664498E1,-3.916008472E0,4.183703423E0,1.166717815E1
3.884674081E1,-4.260957241E0,2.856608152E0,1.264453316E1
3.886683618E1,-2.574540615E0,2.008608818E0,1.288887215E1
3.888693149E1,-9.599879980E-1,2.257738590E0,1.072336006E1
3.890702680E1,-1.118089557E0,2.200247049E0,7.408017159E0
3.892712211E1,-2.526630878E0,1.572631717E0,5.362278938E0
3.894721743E1,-3.580641508E0,2.521241188E0,7.010367870E0
3.896731274E1,-3.384212255E0,3.268630505E0,9.218998909E0
3.898740815E1,-1.956507087E0,3.144065619E0,9.420219421E0
3.900750399E1,-6.629486680E-1,2.727252245E0,8.476400375E0
3.902759982E1,-2.365535051E-1,2.818280458E0,7.532582283E0
3.904769565E1,-3.754912615E-1,3.326122046E0,6.938503742E0
3.906779128E1,-7.252311110E-1,3.589624643E0,6.684582710E0
3.908788659E1,-8.833327293E-1,3.762099028E0,6.612718582E0
3.910798190E1,-9.647789598E-1,3.838754416E0,6.698955536E0
3.912807722E1,-7.875135541E-1,3.819590569E0,7.408017159E0
3.914817253E1,-5.719205141E-1,3.752517223E0,8.409327507E0
3.916826784E1,-3.371635973E-1,3.786053896E0,9.377100945E0
3.918836315E1,-3.036268950E-1,4.193284988E0,1.019635487E1
3.920845883E1,-2.700901926E-1,4.835273266E0,1.067065907E1
3.922855467E1,-7.012763619E-1,4.705917835E0,1.116412735E1
3.924865050E1,-7.156491876E-1,4.111838818E0,1.132702065E1
3.926874633E1,3.383613527E-1,4.116630077E0,1.166717815E1
3.928884175E1,1.267807007E0,4.763409138E0,1.186360741E1
3.930893706E1,7.006774843E-2,4.744245052E0,1.209836483E1
3.932903237E1,-7.348130345E-1,4.681962967E0,1.233312130E1
3.934912768E1,-9.935247302E-1,3.766890049E0,1.218939209E1
3.936922300E1,3.910618722E-1,3.076992273E0,1.251038647E1
3.938931831E1,1.646292686E0,3.100946903E0,1.084792423E1
3.940941368E1,1.555264473E0,3.489014387E0,7.805666924E0
3.942950951E1,3.623161316E-1,3.249466658E0,6.358798027E0
3.944960534E1,-4.904742241E-1,3.191975117E0,7.724220753E0
3.946970118E1,-8.881236911E-1,2.741625309E0,9.319609642E0
3.948979690E1,-6.581577063E-1,2.133173704E0,9.587903023E0
3.950989222E1,-1.742710620E-1,1.673241735E0,8.773440361E0
3.952998753E1,3.191975057E-1,1.543885946E0,7.724220753E0
3.955008284E1,7.408017516E-1,1.869670987E0,6.857057095E0
3.957017815E1,1.013886333E0,2.387094259E0,6.157577515E0
3.959027347E1,7.503836751E-1,2.717670441E0,5.884492874E0
3.961036878E1,-1.796608907E-3,3.086574078E0,6.171950340E0
3.963046446E1,-9.456151724E-1,3.536924124E0,6.377961636E0
3.965056029E1,-1.285773158E0,4.087883949E0,6.646255016E0
3.967065612E1,-1.007897615E0,4.370550632E0,7.628401279E0
3.969075196E1,-4.617284834E-1,4.164539337E0,9.789123535E0
3.971084737E1,-5.383837819E-1,3.910618782E0,1.157614994E1
3.973094268E1,-7.875135541E-1,3.757308006E0,1.194026279E1
3.975103800E1,-8.689598441E-1,3.771681070E0,1.230916691E1
3.977113331E1,-3.850731850E-1,3.915409565E0,1.308051014E1
3.979122862E1,3.671070933E-1,4.768199921E0,1.261099720E1
3.981132394E1,-5.144290328E-1,5.362278938E0,1.109226322E1
3.983141940E1,-2.176891088E0,4.619680405E0,1.100123501E1
3.985151524E1,-3.379421473E0,3.800426722E0,1.407223892E1
3.987161107E1,-4.054946423E0,3.033873558E0,1.576823711E1
3.989170690E1,-2.689523458E0,2.516450167E0,1.386143684E1
3.991180253E1,-1.165999174E0,2.722461462E0,9.956806183E0
3.993189784E1,-9.839428067E-1,2.679342747E0,6.540853977E0
3.995199315E1,-2.018789530E0,1.931953430E0,4.935883522E0
3.997208847E1,-2.699105501E0,1.888834834E0,6.085713387E0
3.999218378E1,-2.531421900E0,2.655387878E0,8.337463379E0
4.001227909E1,-1.745705009E0,2.784743786E0,9.089643478E0
4.003237440E1,-1.036643386E0,2.708088398E0,8.208106995E0
4.005247019E1,-6.389939189E-1,2.799116611E0,7.034322739E0
4.007256602E1,-4.521465898E-1,3.292585373E0,7.034322739E0
4.009266185E1,-7.875135541E-1,3.455477715E0,7.379271507E0
4.011275769E1,-7.108582854E-1,3.522551298E0,7.537373066E0
4.013285305E1,-7.252311110E-1,3.594415665E0,8.021260262E0
4.015294836E1,-2.509263754E-1,3.738144159E0,8.696784973E0
4.017304368E1,-8.324287832E-2,3.963319302E0,9.683721542E0
4.019313899E1,-1.886439323E-1,3.968110323E0,9.961597443E0
4.021323430E1,-4.234008193E-1,4.097465992E0,9.511247635E0
4.023332961E1,-4.952651858E-1,4.499906540E0,9.444173813E0
4.025342513E1,-2.892540395E-1,4.672380924E0,9.415428162E0
4.027352097E1,1.371411532E-1,4.667590141E0,9.223790169E0
4.029361680E1,3.144065440E-1,4.413669109E0,9.175880432E0
4.031371263E1,9.947224855E-1,4.480742455E0,9.875360489E0
4.033380826E1,1.919377208E0,5.683272839E0,1.059400368E1
4.035390357E1,1.354044199E0,6.181532383E0,9.434592247E0
4.037399888E1,-2.096043713E-2,5.803046703E0,8.634502411E0
4.039409420E1,-3.563274443E-1,4.772991180E0,1.026821899E1
4.041418951E1,8.414118290E-1,4.131002903E0,1.202649975E1
4.043428482E1,2.197252750E0,3.992064953E0,1.075689602E1
4.045438013E1,1.952913880E0,3.723771334E0,7.618819714E0
4.047447592E1,8.989033103E-1,3.153647423E0,5.726391315E0
4.049457175E1,-3.275817037E-1,3.187184095E0,7.144514561E0
4.051466758E1,-1.419919848E0,3.019500732E0,9.487293243E0
4.053476342E1,-1.415128946E0,2.655387878E0,1.023947334E1
4.055485878E1,-7.204401493E-1,2.200247049E0,9.520829201E0
4.057495409E1,-2.125987262E-1,2.032563448E0,8.006887436E0
4.059504940E1,1.850507110E-1,2.444585800E0,6.976831436E0
4.061514472E1,-1.215705350E-1,2.918890715E0,6.483362675E0
4.063524003E1,-4.521465898E-1,3.345285892E0,6.229442120E0
4.065533534E1,-5.527566671E-1,3.867500067E0,6.440244198E0
4.067543097E1,-5.383837819E-1,4.135793686E0,7.096605301E0
4.069552680E1,-4.377737045E-1,4.245985508E0,8.423700333E0
4.071562263E1,-5.431747437E-1,4.241194725E0,9.554366112E0
4.073571847E1,-5.479657054E-1,4.274731636E0,1.015323544E1
4.075581399E1,-2.892540395E-1,4.552607059E0,1.049818516E1
4.077590930E1,-6.587565877E-3,4.749036312E0,1.033050156E1
4.079600461E1,1.736721955E-2,4.959838390E0,1.032571030E1
4.081609992E1,-7.845192403E-2,5.026911736E0,1.067545033E1
4.083619524E1,5.060448647E-1,5.601826668E0,1.117850018E1
4.085629055E1,-4.713104069E-1,5.438933849E0,1.086708832E1
4.087638602E1,-1.640303969E0,4.667590141E0,1.148512173E1
4.089648185E1,-2.426020861E0,3.800426722E0,1.289366341E1
4.091657768E1,-2.311038017E0,2.803907633E0,1.361709785E1
4.093667352E1,-1.175581098E0,2.305648088E0,1.320028496E1
4.095676925E1,-7.156491876E-1,2.684133768E0,1.110663605E1
4.097686456E1,-1.673840642E0,2.411049128E0,8.236852646E0
4.099695987E1,-2.761387825E0,2.205038071E0,6.622300625E0
4.101705519E1,-2.991353750E0,2.612269402E0,7.872740269E0
4.103715050E1,-1.999625683E0,2.909308672E0,8.979451180E0
4.105724581E1,-8.545869589E-1,2.779952765E0,8.663248062E0
4.107734123E1,-2.796721160E-1,2.755998135E0,7.752966404E0
4.109743706E1,-3.946550786E-1,2.938054323E0,7.360107899E0
4.111753289E1,-5.479657054E-1,3.330912828E0,7.489463806E0
4.113762873E1,-6.916944385E-1,3.594415665E0,7.269079685E0
4.115772456E1,-7.587678432E-1,3.747726202E0,6.526481152E0
4.117781987E1,-7.491859198E-1,3.881872892E0,6.186323166E0
4.119791518E1,-7.635588050E-1,3.987273932E0,6.876221180E0
4.121801050E1,-6.629486680E-1,4.212449074E0,8.006887436E0
4.123810581E1,-7.156491876E-1,4.375341415E0,8.773440361E0
4.125820222E1,-6.916944385E-1,4.514279366E0,9.372309685E0
4.127829753E1,-5.623385906E-1,4.701126575E0,1.022989082E1
4.129839284E1,-4.569375217E-1,4.557397842E0,1.045506573E1
4.131848815E1,-8.324287832E-2,4.380132675E0,1.015802670E1
4.133858347E1,5.347905755E-1,4.317850113E0,1.027300930E1
4.135867878E1,1.536100626E0,4.907137871E0,1.091499805E1
4.137877435E1,1.186360717E0,5.151476383E0,1.114017296E1
4.139887018E1,4.245985746E-1,5.199386120E0,1.137492943E1
4.141896602E1,-1.167795807E-1,5.022120953E0,1.187318897E1
4.143906185E1,-1.503162831E-1,3.709398508E0,1.205524540E1
4.145915768E1,1.090541601E0,2.732043266E0,1.207920074E1
4.147925300E1,2.245162249E0,2.861399174E0,1.041673851E1
4.149934831E1,2.000823498E0,3.340494871E0,7.748175144E0
4.151944362E1,4.916719794E-1,3.115319729E0,5.975521088E0
4.153953894E1,-4.234008193E-1,3.254257679E0,7.015159130E0
4.155963425E1,-9.264513254E-1,3.115319729E0,8.653666496E0
4.157972992E1,-9.408242106E-1,2.521241188E0,9.003406525E0
4.159982576E1,-3.467455208E-1,2.181083202E0,8.672829628E0
4.161992159E1,1.706778407E-1,2.137964487E0,7.882322311E0
4.164001742E1,5.683273077E-1,2.382303476E0,7.077441216E0
4.166011326E1,6.833102703E-1,2.669760942E0,6.262978554E0
4.168020857E1,3.575251698E-1,3.057828426E0,5.975521088E0
4.170030388E1,1.323501915E-1,3.560878754E0,6.555226803E0
4.172039920E1,-9.761574864E-2,3.843545437E0,7.503836632E0
4.174049451E1,-2.030168027E-1,4.030392647E0,8.174570084E0
4.176058982E1,-4.473556280E-1,4.164539337E0,8.653666496E0
4.178068560E1,-4.808923304E-1,4.231612682E0,9.137553215E0
4.180078144E1,-4.042370021E-1,4.404087067E0,1.001908875E1
4.182087727E1,-5.000561476E-1,4.485533714E0,1.135576630E1
4.184097310E1,-8.497959971E-1,4.480742455E0,1.237144852E1
4.186106894E1,-9.504061341E-1,4.432833195E0,1.256787777E1
4.188116425E1,-3.467455208E-1,5.122730732E0,1.197859001E1
4.190125956E1,-1.367219329E0,5.299996376E0,1.076168728E1
4.192135487E1,-2.229591608E0,4.514279366E0,1.047422981E1
4.194145018E1,-2.785342693E0,3.172811270E0,1.196900845E1
4.196154560E1,-2.775760651E0,2.133173704E0,1.364105225E1
4.198164144E1,-2.013998508E0,1.380993366E0,1.414889431E1
4.200173727E1,-1.271400213E0,1.481603503E0,1.205045509E1
4.202183310E1,-1.764868855E0,1.558258772E0,8.850095749E0
4.204192894E1,-2.818879366E0,1.371411443E0,7.034322739E0
4.206202472E1,-3.120709658E0,1.922371507E0,7.633192539E0
4.208212003E1,-2.334992647E0,2.602687359E0,8.529101372E0
4.210221534E1,-1.463038564E0,2.564359665E0,8.380581856E0
4.212231065E1,-1.070180058E0,2.669760942E0,7.733802319E0
