"Time (s)","Gyroscope x (rad/s)","Gyroscope y (rad/s)","Gyroscope z (rad/s)"
7.456583300E-2,-1.675127149E-1,-1.194426864E-1,1.487374306E-1
9.466062500E-2,-1.142495275E-1,-3.954791278E-2,1.966743022E-1
1.147554170E-1,-1.280979514E-1,-2.263685223E-3,1.934785098E-1
1.348504690E-1,-1.643169224E-1,-1.930790395E-2,1.881521940E-1
1.549457810E-1,-1.909485012E-1,-6.617950648E-2,1.860216707E-1
1.750410940E-1,-1.792306006E-1,-8.855003864E-2,1.860216707E-1
1.951364060E-1,-1.259674281E-1,-4.593949392E-2,1.711079776E-1
2.152317190E-1,-1.280979514E-1,-6.524739787E-3,1.593900770E-1
2.353270310E-1,-1.334242672E-1,-1.504684892E-2,1.519332230E-1
2.554223440E-1,-1.291632205E-1,-5.020054802E-2,1.540637612E-1
2.755176560E-1,-1.376853287E-1,-9.494162351E-2,1.508679688E-1
2.956129690E-1,-1.408811212E-1,-1.343563795E-1,1.412805915E-1
3.157082810E-1,-1.217063740E-1,-1.130511016E-1,1.295626909E-1
3.358035940E-1,-9.507478029E-2,-4.807002097E-2,1.178447902E-1
3.558989060E-1,-6.418213248E-2,-2.676474862E-2,9.653951973E-2
3.759942190E-1,-7.163897902E-2,-2.676474862E-2,8.056056499E-2
3.960895310E-1,-8.761793375E-2,-6.511423737E-2,6.884266436E-2
4.161848440E-1,-9.294424951E-2,-7.150582224E-2,6.351634115E-2
4.362801560E-1,-8.655267209E-2,-7.470161468E-2,5.819002539E-2
4.563754690E-1,-7.483477145E-2,-7.257108390E-2,5.925529078E-2
4.764704170E-1,-8.016108721E-2,-5.765739456E-2,5.179844424E-2
4.965652080E-1,-6.737792492E-2,-1.185105834E-2,4.114580899E-2
5.166600000E-1,-4.926844314E-2,6.258423906E-3,4.860265180E-2
5.367552610E-1,-5.992107838E-2,-2.463422157E-2,6.564687192E-2
5.568505730E-1,-7.270424068E-2,-4.807002097E-2,5.712476373E-2
5.769458860E-1,-7.270424068E-2,-4.807002097E-2,5.073318258E-2
5.970411980E-1,-6.524740160E-2,-7.576687634E-2,6.245107949E-2
6.171365110E-1,-7.483477145E-2,-8.748477697E-2,9.121319652E-2
6.372318230E-1,-8.655267209E-2,-8.428898454E-2,9.547425061E-2
6.573271360E-1,-8.122635633E-2,-3.315633163E-2,1.008005738E-1
6.774224480E-1,-6.205160543E-2,-1.198421582E-3,1.018658355E-1
6.975177610E-1,-4.500738904E-2,-1.185105834E-2,9.440898895E-2
7.176130730E-1,-4.926844314E-2,-2.463422157E-2,8.482161909E-2
7.377083860E-1,-4.820318148E-2,-3.954791278E-2,8.375635743E-2
7.578036980E-1,-4.074633494E-2,-2.250369452E-2,8.162582666E-2
7.778990110E-1,-1.731053367E-2,1.051947847E-2,6.990792602E-2
7.979943230E-1,1.038632076E-2,2.117211558E-2,6.990792602E-2
8.180896360E-1,2.636527456E-2,1.371526904E-2,7.949529588E-2
8.381849480E-1,1.571263932E-2,-2.250369452E-2,1.103879437E-1
8.582802610E-1,-2.583264373E-2,-1.504684892E-2,1.284974217E-1
8.783755730E-1,-5.033370852E-2,3.502054140E-2,1.444763839E-1
8.984708860E-1,6.125265732E-3,5.739107728E-2,1.583248079E-1
9.185658860E-1,6.578002870E-2,5.099949613E-2,1.806953400E-1
9.386606770E-1,7.323687524E-2,2.649843320E-2,1.977395564E-1
9.587554690E-1,3.701791167E-2,3.608580679E-2,2.179795653E-1
9.788507290E-1,-1.944106072E-2,6.058686972E-2,2.541985512E-1
9.989460420E-1,-4.500738904E-2,1.394163817E-1,2.755038142E-1
1.019041354E0,7.190529723E-3,1.948100924E-1,2.904174924E-1
1.039136667E0,7.110634446E-2,2.171806246E-1,3.063964546E-1
1.059231979E0,5.086633936E-2,2.225069404E-1,3.458112180E-1
1.079327292E0,8.255792782E-3,1.990711391E-1,3.937480748E-1
1.099422604E0,3.701791167E-2,1.862879843E-1,4.246407151E-1
1.119517917E0,1.296958476E-1,1.447426975E-1,4.107922912E-1
1.139613229E0,1.627190262E-1,5.952160433E-2,3.735080659E-1
1.159708542E0,-9.853689000E-3,6.378266215E-2,3.553985953E-1
1.179803854E0,-3.198454082E-1,2.054627240E-1,3.404848874E-1
1.199899167E0,-5.254412889E-1,2.874880135E-1,2.595248520E-1
1.219994479E0,-4.210454524E-1,2.992059290E-1,1.327584833E-1
1.240089792E0,-1.802958697E-1,2.555301189E-1,6.351634115E-2
1.260185104E0,-9.081372619E-2,2.310290486E-1,6.777740270E-2
1.280280417E0,-1.185105816E-1,1.639174372E-1,1.327584833E-1
1.300375729E0,-1.291632205E-1,7.443529367E-2,2.211753577E-1
1.320471042E0,-4.500738904E-2,-4.167843983E-2,2.605901062E-1
1.340566354E0,5.512739345E-2,-1.577921808E-1,2.904174924E-1
1.360661667E0,7.856319100E-2,-2.121206224E-1,3.426154256E-1
1.380756979E0,-4.527370445E-3,-1.918806136E-1,3.980091214E-1
1.400852292E0,-1.249021590E-1,-9.920267761E-2,4.310323000E-1
1.420947604E0,-1.366200596E-1,-6.085318699E-2,4.107922912E-1
1.441042917E0,-5.459476262E-2,-5.659212917E-2,3.596596420E-1
1.461138229E0,3.701791167E-2,-8.002793044E-2,3.287670016E-1
1.481233542E0,5.193160102E-2,-1.428784877E-1,3.117227852E-1
1.501328854E0,1.864211401E-3,-1.972069293E-1,3.063964546E-1
1.521424167E0,-8.788425475E-3,-2.334259003E-1,2.850911915E-1
1.541519479E0,7.643266767E-2,-2.291648388E-1,2.488722205E-1
1.561614792E0,1.691105962E-1,-2.206427306E-1,2.350237966E-1
1.581710104E0,1.925463974E-1,-2.366216928E-1,2.286322117E-1
1.601805417E0,2.106558830E-1,-2.376869470E-1,2.051964104E-1
1.621900729E0,1.861548275E-1,-2.227732539E-1,1.487374306E-1
1.641995521E0,9.028109163E-2,-1.556616426E-1,4.434159771E-2
1.662090313E0,-3.222422674E-2,-8.215846121E-2,-3.022685647E-2
1.682185365E0,-9.187898785E-2,-7.896266878E-2,-4.620581120E-2
1.702280677E0,-5.566002429E-2,-9.174583107E-2,-2.916159295E-2
1.722375990E0,3.994738683E-3,-8.002793044E-2,-6.964161247E-2
1.742471302E0,1.890842989E-2,9.454214945E-3,-1.506016403E-1
1.762566615E0,-3.009369783E-2,9.787109494E-2,-2.283658981E-1
1.782661927E0,-5.885581672E-2,8.295740932E-2,-2.241048366E-1
1.802757240E0,1.784316637E-2,3.182475269E-2,-1.559279710E-1
1.822852552E0,2.170474678E-1,-6.298371404E-2,-1.324921697E-1
1.842947865E0,4.588623047E-1,-1.141163707E-1,-1.793637723E-1
1.863043177E0,5.387570858E-1,-2.143843099E-2,-1.932121962E-1
1.883138490E0,3.438138366E-1,2.129195631E-1,-1.378184855E-1
1.903233802E0,-2.157158963E-2,3.300985694E-1,-2.277000993E-2
1.923329115E0,-2.569948435E-1,3.354249001E-1,1.391500682E-1
1.943424427E0,-2.569948435E-1,2.427469492E-1,3.053312004E-1
1.963519740E0,-6.631266326E-2,5.099949613E-2,3.266364634E-1
1.983615052E0,1.456748098E-1,-6.298371404E-2,2.691122293E-1
2.003710365E0,1.680453420E-1,-8.641951531E-2,2.115879953E-1
2.023805677E0,1.358211134E-2,-1.535311192E-1,1.679121852E-1
2.043900990E0,-1.557948142E-1,-1.908153445E-1,1.476721764E-1
2.063996302E0,-2.239716798E-1,-1.439437568E-1,1.434111148E-1
2.084091615E0,-2.175800949E-1,-4.274370521E-2,1.189100519E-1
2.104186927E0,-2.665822208E-1,6.697845459E-2,2.942790836E-2
2.124282240E0,-3.091927767E-1,1.713742912E-1,-2.596580051E-2
2.144377552E0,-3.091927767E-1,2.906838059E-1,-3.994738800E-4
2.164472865E0,-2.921485603E-1,3.514038324E-1,1.061268896E-1
2.184568177E0,-3.219759464E-1,3.780354261E-1,2.254364192E-1
2.204663490E0,-3.667170107E-1,3.652522564E-1,3.479417264E-1
2.224758802E0,-3.741738498E-1,3.311638236E-1,4.065312445E-1
2.244854115E0,-1.952095628E-1,2.938795984E-1,3.958786130E-1
2.264949427E0,7.856319100E-2,4.206459820E-1,3.479417264E-1
2.285044740E0,2.340916842E-1,5.154544711E-1,3.362238407E-1
2.305140052E0,3.384875357E-1,5.218459964E-1,3.617901504E-1
2.325235365E0,4.332959950E-1,4.131891429E-1,3.735080659E-1
2.345330677E0,6.058686972E-1,7.040061355E-1,3.617901504E-1
2.365426458E0,4.663191736E-1,6.688523889E-1,3.980091214E-1
2.385522292E0,-6.418213248E-2,2.608564198E-1,5.087965727E-1
2.405617969E0,-3.518033028E-1,-3.974764943E-1,1.998700947E-1
2.425713281E0,-6.426202655E-1,-2.250369452E-2,2.729738131E-2
2.445808594E0,-8.897614479E-1,2.012016773E-1,7.736477256E-2
2.465903906E0,-6.745781898E-1,-3.814975321E-1,1.135837361E-1
2.485999219E0,-1.376853287E-1,-1.151683211E0,1.689774394E-1
2.506094531E0,5.483444333E-1,-1.017459989E0,1.327584833E-1
2.526189844E0,7.827024460E-1,-3.848264739E-2,1.444763839E-1
2.546285156E0,7.102645040E-1,3.641870022E-1,2.818953991E-1
2.566380469E0,5.313002467E-1,-3.422159329E-2,4.704470634E-1
2.586475781E0,4.173170328E-1,-4.624575675E-1,6.589987278E-1
2.606571094E0,1.893506050E-1,-9.098683000E-1,6.313018799E-1
2.626666406E0,-6.311687082E-2,-9.428914785E-1,3.894870281E-1
2.646761719E0,-2.229064107E-1,-6.605966091E-1,2.169143111E-1
2.666857031E0,-1.494032294E-1,-2.611227632E-1,7.949529588E-2
2.686952344E0,7.962846011E-2,-1.418132186E-1,8.122635074E-3
2.707047656E0,2.958769798E-1,-2.462090552E-1,-3.342264518E-2
2.727142969E0,3.448790908E-1,-1.822932363E-1,-3.981423005E-2
2.747238281E0,1.712411344E-1,-2.366216928E-1,-1.637842879E-2
2.767317240E0,-1.302284747E-1,-5.508744717E-1,2.836264484E-2
2.787429583E0,-4.253064990E-1,-8.342345953E-1,6.245107949E-2
2.807524896E0,-4.679170549E-1,-9.343693852E-1,1.455416381E-1
2.827620208E0,-5.020055175E-1,-1.158074737E0,2.083922029E-1
2.847715521E0,-6.841655970E-1,-1.407346487E0,2.701774836E-1
2.867810833E0,-7.779088020E-1,-1.436108589E0,4.768386483E-1
2.887906146E0,-6.500771642E-1,-1.065396786E0,6.962829232E-1
2.908001458E0,-3.368896246E-1,-3.772364855E-1,6.643250585E-1
2.928096771E0,1.145158429E-2,2.310290486E-1,1.338237375E-1
2.948192083E0,1.946769357E-1,6.454166174E-1,-5.394228697E-1
2.968287396E0,2.063948363E-1,7.604650855E-1,-8.760461807E-1
2.988382708E0,1.850895584E-1,5.868270993E-1,-9.026777744E-1
3.008478021E0,-7.723161485E-3,2.043974549E-1,-8.227829933E-1
3.028573333E0,-2.506032586E-1,-3.900196552E-1,-7.972166538E-1
3.048668646E0,1.147821546E-1,-8.885630369E-1,-8.494145870E-1
3.068763958E0,7.145255804E-1,-1.105876803E0,-8.792420030E-1
3.088859271E0,8.412919641E-1,-1.104811549E0,-7.961513996E-1
3.108954583E0,7.060034871E-1,-9.993504286E-1,-5.958818197E-1
3.129049896E0,5.153213143E-1,-7.916240692E-1,-5.234439373E-1
3.149145208E0,4.439486265E-1,-4.795017838E-1,-4.584628344E-1
3.169240521E0,4.205128253E-1,-3.122554123E-1,-4.776375890E-1
3.189335833E0,3.597927988E-1,-3.761712313E-1,-6.235787272E-1
3.209431146E0,2.607232630E-1,-5.380913019E-1,-8.345009089E-1
3.229526563E0,2.767022252E-1,-5.189165473E-1,-1.031574726E0
3.249622396E0,3.874896467E-1,-3.016027808E-1,-1.109338880E0
3.269718229E0,4.844286442E-1,-4.167843983E-2,-1.089098930E0
3.289813854E0,5.174518228E-1,7.443529367E-2,-1.014530420E0
3.309909167E0,4.833633900E-1,9.147951752E-2,-9.399620295E-1
3.330004479E0,4.567317963E-1,1.713742912E-1,-8.142609000E-1
3.350099792E0,4.492749274E-1,2.512690723E-1,-6.182523966E-1
3.370195104E0,4.386222959E-1,2.161153555E-1,-4.051996469E-1
3.390290417E0,4.024033546E-1,5.739107728E-2,-2.219743133E-1
3.410385729E0,2.553969622E-1,7.123950869E-2,-5.046686530E-2
3.430481042E0,-9.081372619E-2,3.226417303E-1,5.499423668E-2
3.450576354E0,-5.169191957E-1,5.410207510E-1,-1.105211023E-2
3.470671667E0,-8.013445735E-1,6.528734565E-1,-1.974732429E-1
3.490766979E0,-8.503466845E-1,8.893619776E-1,-2.858901322E-1
3.510862292E0,-9.291762114E-1,1.404949546E0,-2.241048366E-1
3.530957604E0,-1.153946877E0,1.861947656E0,-1.218395308E-1
3.551052917E0,-1.272191048E0,1.882187724E0,-7.070687413E-2
3.571148229E0,-7.544729710E-1,1.256877899E0,-1.143826842E-1
3.591243542E0,1.573926955E-1,4.206459820E-1,-7.603318989E-2
3.611339323E0,6.740455627E-1,-1.034637317E-1,5.179844424E-2
3.631435156E0,4.609928429E-1,-3.209106624E-2,1.551290154E-1
3.651530990E0,7.190529723E-3,3.759049177E-1,2.424806356E-1
3.671626354E0,-1.696432382E-1,7.593998313E-1,3.500722647E-1
3.691721667E0,4.340949282E-2,1.009736776E0,5.535376072E-1
3.711814792E0,2.202432603E-1,1.084305286E0,7.293061018E-1
3.731903750E0,6.578002870E-2,8.339682817E-1,7.921566963E-1
3.752008021E0,-3.528685868E-1,6.038713455E-1,9.157272577E-1
3.772103333E0,-7.917572260E-1,2.736395895E-1,1.079777837E0
3.792198646E0,-1.078313112E0,1.298290044E-1,1.184173703E0
3.812293958E0,-1.153946877E0,1.788311303E-1,1.208674788E0
3.832389271E0,-1.113466859E0,3.471427858E-1,1.119192600E0
3.852484583E0,-1.005875230E0,4.494080842E-1,8.709861636E-1
3.872579896E0,-7.896266580E-1,5.644565821E-1,5.311670899E-1
3.892675208E0,-4.423507154E-1,6.262418628E-1,1.817606091E-1
3.912770521E0,-5.779055133E-2,5.399554968E-1,-2.383527346E-2
3.932865833E0,2.234390527E-1,2.736395895E-1,-4.301001877E-2
3.952961146E0,2.287653685E-1,-5.339634046E-2,-1.464737463E-3
3.973056458E0,5.938844755E-2,-2.515353858E-1,7.203845680E-2
3.993152083E0,3.994738683E-3,-4.677838981E-1,8.695214242E-2
4.013247917E0,4.127896577E-2,-6.467481852E-1,-2.490053698E-2
4.033343750E0,-1.206411049E-1,-7.990809083E-1,-9.414267540E-2
4.053439323E0,-2.985401452E-1,-9.386304021E-1,-1.079910994E-1
4.073534636E0,-2.569948435E-1,-9.056072235E-1,-8.668582886E-2
4.093629948E0,2.383527458E-1,-7.639271617E-1,-1.953427196E-1
4.113725261E0,9.744499326E-1,-7.277082205E-1,-3.306311965E-1
4.133820573E0,1.241831064E0,-4.592617750E-1,-4.041343927E-1
4.153915886E0,9.254477620E-1,1.245026886E-1,-3.327617347E-1
4.174011198E0,4.418180883E-1,7.583345771E-1,-1.633848101E-1
4.194106511E0,2.287653685E-1,1.261139035E0,-2.703106403E-2
4.214198281E0,4.301002026E-1,1.440103292E0,6.351634115E-2
4.234295573E0,8.444877267E-1,1.250486374E0,5.499423668E-2
4.254393646E0,1.227982640E0,8.478167057E-1,-6.218476593E-2
4.274488958E0,1.238635302E0,3.641870022E-1,-1.985385120E-1
4.294584271E0,1.119325757E0,-2.280995846E-1,-2.049300969E-1
4.314679583E0,1.029843569E0,-8.619314432E-1,-1.559279710E-1
4.334774896E0,8.913593292E-1,-1.113333702E0,-1.335574239E-1
4.354870208E0,8.338351250E-1,-1.079245210E0,-9.627319872E-2
4.374965521E0,7.305045128E-1,-8.587356806E-1,-6.751108170E-2
4.395060833E0,4.844286442E-1,-4.656533599E-1,-7.603318989E-2
4.415156146E0,2.245043069E-1,-1.198421582E-3,-4.514054582E-2
4.435251458E0,1.464737486E-2,3.322291076E-1,-3.022685647E-2
4.455347240E0,-5.246423557E-2,4.781702161E-1,-2.170474641E-2
4.475443073E0,-2.218411565E-1,4.302333593E-1,-5.792371184E-2
4.495538906E0,-5.339633822E-1,3.226417303E-1,-1.825595498E-1
4.515634427E0,-7.289066315E-1,1.085237339E-1,-3.615238369E-1
4.535729740E0,-6.799045205E-1,1.372858584E-1,-3.775027990E-1
4.555825052E0,-6.106624007E-1,5.207807422E-1,-2.315616906E-1
4.575920365E0,-4.679170549E-1,7.679219246E-1,-6.111950055E-2
4.596015677E0,-1.952095628E-1,4.472775757E-1,1.253016293E-1
4.616110990E0,1.424790174E-1,-3.101248741E-1,2.723080218E-1
4.636206302E0,3.821633458E-1,-8.054724932E-1,2.584595978E-1
4.656301615E0,4.577970505E-1,-6.020070910E-1,1.924132407E-1
4.676396927E0,3.821633458E-1,2.436790615E-2,1.966743022E-1
4.696492500E0,3.757717609E-1,3.109238148E-1,3.383543491E-1
4.716588333E0,4.950812757E-1,1.958753467E-1,3.969438672E-1
4.736684167E0,5.653886795E-1,3.502054140E-2,3.245059252E-1
4.756779948E0,4.546012580E-1,-6.298371404E-2,2.744385600E-1
4.776875261E0,3.693801761E-1,-1.663142890E-1,3.628554344E-1
4.796970573E0,5.366265774E-1,-3.154512048E-1,5.343628526E-1
4.817065886E0,8.476835489E-1,-5.636576414E-1,6.142576337E-1
4.837161198E0,8.721846342E-1,-6.712492704E-1,5.865607858E-1
4.857256511E0,5.653886795E-1,-7.074682117E-1,5.279712677E-1
4.877351823E0,3.619233072E-1,-7.287734747E-1,4.363586307E-1
4.897447136E0,3.438138366E-1,-5.018723607E-1,4.523375630E-1
4.917542448E0,5.206475854E-1,-2.771016955E-1,5.546028614E-1
4.937638021E0,6.048034430E-1,-2.589922249E-1,5.418196917E-1
4.957733854E0,5.632581711E-1,-5.093291998E-1,3.735080659E-1
4.977829688E0,4.109254479E-1,-8.629966974E-1,2.233058959E-1
4.997925521E0,2.085253596E-1,-9.748494029E-1,1.508679688E-1
5.018020833E0,-1.624527015E-2,-8.235819340E-1,1.316932142E-1
5.038116146E0,-6.524740160E-2,-5.519397259E-1,3.795001656E-2
5.058211458E0,8.069372177E-2,-2.930806577E-1,-1.953427196E-1
5.078306771E0,2.575274706E-1,-8.109319210E-2,-2.965427637E-1
5.098402083E0,2.532664239E-1,-9.494162351E-2,-2.091911435E-1
5.118497396E0,1.776327193E-1,-2.536658943E-1,-4.514054582E-2
5.138592708E0,1.968074590E-1,-4.134554565E-1,4.434159771E-2
5.158688021E0,3.459443748E-1,-7.458177209E-1,-2.063948289E-2
5.178783802E0,3.193127811E-1,-9.183903933E-1,-1.346226931E-1
5.198879636E0,3.701791167E-2,-5.870934129E-1,-1.442100704E-1
5.218975469E0,-2.814959288E-1,5.526055023E-2,-4.194475710E-2
5.239071094E0,-3.454117477E-1,6.731134653E-1,3.475422785E-2
5.259166406E0,-1.653821766E-1,8.297072053E-1,6.458161026E-2
5.279261719E0,3.701791167E-2,5.484775901E-1,-4.301001877E-2
5.299357031E0,1.797632426E-1,1.660479754E-1,-2.251701057E-1
5.319452344E0,2.351569533E-1,-8.322372288E-2,-4.083954394E-1
5.339547656E0,2.042642981E-1,-1.375521719E-1,-5.053344369E-1
5.359642969E0,1.286305785E-1,-4.913528636E-2,-5.202481151E-1
5.379738281E0,1.062600464E-1,1.916143000E-1,-4.627238810E-1
5.399833958E0,1.488705873E-1,3.908185959E-1,-3.604585826E-1
5.419929792E0,6.684529036E-2,3.748396337E-1,-2.763027549E-1
5.440025625E0,-5.672528967E-2,2.342248410E-1,-1.932121962E-1
5.460121406E0,-9.294424951E-2,5.419528857E-2,-9.840372950E-2
5.480216719E0,-1.078579426E-1,-8.535424620E-2,-9.986846708E-3
5.500312031E0,-8.974846452E-2,-9.494162351E-2,1.451421715E-2
5.520407344E0,-1.398158520E-1,-3.315633163E-2,-2.703106403E-2
5.540502656E0,-3.944138587E-1,8.189214021E-2,-2.155827284E-1
5.560597969E0,-5.733781457E-1,1.639174372E-1,-4.989428520E-1
5.580693281E0,-5.669865608E-1,5.399554968E-1,-6.597976685E-1
5.600788594E0,-5.328981280E-1,1.076848388E0,-6.182523966E-1
5.620884115E0,-5.723128915E-1,1.379383206E0,-4.360923171E-1
5.640979948E0,-6.095971465E-1,1.155677915E0,-2.209090441E-1
5.661075781E0,-3.826959729E-1,3.854922652E-1,-1.516669095E-1
5.681171615E0,1.531316489E-1,-3.889544010E-1,-1.537974328E-1
5.701267031E0,6.218476295E-1,-7.266429663E-1,-1.932121962E-1
5.721362344E0,6.708498001E-1,-4.656533599E-1,-2.667153776E-1
5.741457656E0,6.207823753E-1,-1.514005959E-1,-2.006690353E-1
5.761549948E0,6.687192321E-1,-1.311605871E-1,-3.022685647E-2
5.781635521E0,6.452834606E-1,-3.484743834E-1,3.688475490E-2
5.801744479E0,5.355613232E-1,-5.721797347E-1,-5.898897350E-2
5.821839792E0,3.864243925E-1,-5.636576414E-1,-1.772332340E-1
5.841935104E0,2.468748540E-1,-2.685796022E-1,-1.921469271E-1
5.862030417E0,2.990727723E-1,2.214416862E-1,-7.177213579E-2
5.882125729E0,5.089297295E-1,6.187850237E-1,8.588688076E-2
5.902221042E0,5.355613232E-1,6.997450590E-1,1.615206003E-1
5.922316354E0,2.788327634E-1,4.866923392E-1,1.679121852E-1
5.942411667E0,-4.926844314E-2,2.203764170E-1,2.424806356E-1
5.962507500E0,-1.728390306E-1,9.574057162E-2,3.692470193E-1
5.982603333E0,-1.089232042E-1,2.086585164E-1,4.768386483E-1
6.002699167E0,9.321057238E-3,2.001364082E-1,5.546028614E-1
6.022794792E0,9.773793817E-2,-2.334259003E-1,5.343628526E-1
6.042890104E0,5.725792050E-2,-6.616618633E-1,4.033354521E-1
6.062985417E0,-4.820318148E-2,-6.893587112E-1,2.659164369E-1
6.083080729E0,-1.494032294E-1,-3.719101548E-1,1.860216707E-1
6.103176042E0,-7.590003312E-2,-9.387636185E-2,1.498026997E-1
6.123271354E0,-6.950845569E-2,-2.250369452E-2,1.146489978E-1
6.143366667E0,-1.781653464E-1,-1.098553166E-1,1.199753210E-1
6.163461979E0,-2.250369489E-1,-1.460742801E-1,1.636511236E-1
6.183557761E0,-1.312937438E-1,-1.705753356E-1,2.041311413E-1
6.203653594E0,2.929474926E-3,-5.412870646E-1,1.593900770E-1
6.223749427E0,-2.370211668E-2,-8.938893676E-1,-2.530001104E-3
6.243845104E0,-2.559295893E-1,-7.479482293E-1,-7.390266657E-2
6.263940417E0,-4.295675755E-1,-2.504701018E-1,9.227846563E-2
6.284035729E0,-5.243760347E-1,2.544648647E-1,3.149185777E-1
6.304131042E0,-5.701823831E-1,5.090628862E-1,4.203796685E-1
6.324226354E0,-5.307676196E-1,3.364901543E-1,3.585943878E-1
6.344321667E0,-3.976096511E-1,-9.600688517E-2,1.050616279E-1
6.364416979E0,-2.292979956E-1,-4.273038805E-1,-1.932121962E-1
6.384512292E0,-5.246423557E-2,-4.262386262E-1,-3.881554306E-1
6.404607969E0,2.316948399E-2,-2.163816839E-1,-4.818986356E-1
6.424703802E0,6.364950538E-2,2.436790615E-2,-4.765723348E-1
6.444799636E0,1.296958476E-1,1.916143000E-1,-3.423491120E-1
6.464895417E0,1.680453420E-1,1.085237339E-1,-2.198437899E-1
6.484990729E0,4.554001987E-2,-1.375521719E-1,-1.335574239E-1
6.505086042E0,-1.334242672E-1,-2.249037921E-1,-8.562056720E-2
6.525181354E0,-1.280979514E-1,-1.407479644E-1,-9.840372950E-2
6.545276667E0,1.358211134E-2,9.574057162E-2,-1.687111259E-1
6.565371979E0,5.086633936E-2,4.259723127E-1,-3.338269889E-1
6.585467292E0,4.234423116E-2,6.390250325E-1,-5.362271070E-1
6.605562604E0,8.708529919E-2,4.323638678E-1,-6.597976685E-1
6.625658073E0,-8.335687965E-2,2.779006660E-1,-6.139913201E-1
6.645753906E0,-5.009402037E-1,4.856270552E-1,-4.424838722E-1
6.665849740E0,-7.331677079E-1,7.881619334E-1,-1.271658540E-1
6.685945573E0,-5.201149583E-1,7.966840267E-1,1.732385010E-1
6.706041042E0,3.062633052E-2,2.747048736E-1,1.860216707E-1
6.726136354E0,4.386222959E-1,-3.420827985E-1,-2.091911435E-1
6.746231667E0,4.407528341E-1,-3.303648829E-1,-6.203829050E-1
6.766327500E0,3.171822429E-1,1.596563905E-1,-6.342313290E-1
6.786422813E0,2.767022252E-1,4.834965467E-1,-3.679154217E-1
6.806518125E0,2.127864063E-1,4.483428299E-1,-3.874896467E-2
6.826613438E0,2.849580161E-2,1.223721579E-1,1.657816470E-1
6.846708750E0,-2.410158962E-1,-2.131858915E-1,2.350237966E-1
6.866804063E0,-3.571296334E-1,-3.601922691E-1,3.127880394E-1
6.886899375E0,-3.006706536E-1,-3.335606754E-1,3.511375189E-1
6.906994688E0,-1.142495275E-1,-1.790974438E-1,3.500722647E-1
6.927090261E0,5.619265884E-2,-2.889527567E-2,3.074617088E-1
6.947186094E0,3.488738462E-2,5.739107728E-2,2.563290596E-1
6.967281927E0,-6.205160543E-2,7.123950869E-2,2.350237966E-1
6.987377761E0,-1.185105816E-1,1.191763729E-1,2.946785688E-1
7.007473073E0,-7.803056389E-2,1.191763729E-1,4.267712533E-1
7.027568386E0,-4.527370445E-3,-5.020054802E-2,4.523375630E-1
7.047663698E0,-3.861580789E-2,-3.410175145E-1,3.767038584E-1
7.067759011E0,-5.992107838E-2,-6.062681675E-1,2.627206445E-1
7.087854323E0,4.660528526E-2,-6.829671264E-1,1.423458606E-1
7.107949636E0,3.193127811E-1,-7.905587554E-1,-2.170474641E-2
7.128044948E0,5.600623488E-1,-1.093093634E0,-2.741722167E-1
7.148140261E0,5.952160358E-1,-1.209207416E0,-4.318312407E-1
7.168236094E0,3.949464858E-1,-8.981503844E-1,-3.519364893E-1
7.188331927E0,2.905506492E-1,-4.230428338E-1,-6.964161247E-2
7.208427761E0,3.906854391E-1,-4.113249183E-1,2.303632535E-2
7.228523333E0,3.438138366E-1,-7.852324843E-1,-1.410142779E-1
7.248618646E0,-4.820318148E-2,-8.235819340E-1,-2.006690353E-1
7.268713958E0,-6.447508335E-1,-3.388870060E-1,-9.986846708E-3
7.288809271E0,-1.006940484E0,3.279680312E-1,2.829606533E-1
7.308904583E0,-1.013332009E0,6.933534741E-1,4.587291479E-1
7.328999896E0,-9.621993899E-1,6.645913720E-1,4.747081101E-1
7.349095208E0,-9.313067198E-1,4.355596602E-1,3.543333113E-1
7.369190521E0,-8.652604222E-1,2.651174963E-1,1.540637612E-1
7.389286042E0,-6.745781898E-1,2.395511568E-1,-6.538055837E-2
7.409381875E0,-3.123885691E-1,2.661827505E-1,-2.496711612E-1
7.429477708E0,-2.476738021E-2,3.588607013E-1,-3.476754129E-1
7.449573542E0,4.873581231E-2,5.356944799E-1,-3.487406969E-1
7.469668906E0,-2.796317078E-2,6.997450590E-1,-2.358227372E-1
7.489764219E0,-1.749695539E-1,7.423555851E-1,-9.094688296E-2
7.509859531E0,-2.037316710E-1,6.720482111E-1,2.623211779E-2
7.529954844E0,-8.122635633E-2,4.866923392E-1,6.458161026E-2
7.550050156E0,2.929474926E-3,4.174501896E-1,8.056056499E-2
7.570145469E0,-8.335687965E-2,5.293028951E-1,6.351634115E-2
7.590240781E0,-2.133190483E-1,7.103977203E-1,2.942790836E-2
7.610336094E0,-2.729738057E-1,7.796398401E-1,-1.744369231E-2
7.630431615E0,-3.241064548E-1,8.265114427E-1,-6.005423889E-2
7.650527448E0,-5.765739679E-1,9.863009453E-1,5.392897129E-2
7.670623281E0,-9.270457029E-1,1.150351524E0,3.490070105E-1
7.690719115E0,-8.151929975E-1,8.744482994E-1,7.388935089E-1
7.710814479E0,-1.334242672E-1,-1.929458827E-1,7.761777043E-1
7.730909792E0,4.183822870E-1,-9.940241575E-1,3.777691126E-1
7.751005104E0,5.121254921E-1,-8.384956717E-1,-6.644582003E-2
7.771100417E0,3.587275445E-1,-2.920154035E-1,-2.027995586E-1
7.791195729E0,2.798980176E-1,-2.037316747E-2,-6.964161247E-2
7.811291042E0,6.364950538E-2,-6.298371404E-2,6.245107949E-2
7.831386354E0,-1.728390306E-1,-2.898848653E-1,4.647212476E-2
7.851481667E0,-2.207758874E-1,-4.720449448E-1,-7.496792823E-2
7.871577083E0,-5.592633970E-3,-4.805670679E-1,-2.475406379E-1
7.891672917E0,3.874896467E-1,-3.623228073E-1,-2.933469713E-1
7.911768750E0,7.006771564E-1,-1.663142890E-1,-2.091911435E-1
7.931864583E0,7.773761153E-1,-5.233107507E-2,-9.094688296E-2
7.951960000E0,6.090644598E-1,-2.143843099E-2,7.057371549E-3
7.972055313E0,3.661843836E-1,9.574057162E-2,7.736477256E-2
7.992150625E0,2.980075181E-1,2.619217038E-1,1.892174482E-1
8.012245938E0,3.885549009E-1,3.141196072E-1,2.936132848E-1
8.032341250E0,4.024033546E-1,2.171806246E-1,3.234406710E-1
8.052436563E0,2.969422340E-1,-1.331579551E-4,3.170490861E-1
8.072531875E0,6.791055948E-2,-2.312953621E-1,3.095922470E-1
8.092627188E0,-1.866874546E-1,-3.804322779E-1,3.436806798E-1
8.112722500E0,-3.123885691E-1,-5.135902166E-1,3.223754168E-1
8.132818333E0,-2.314285189E-1,-6.936197877E-1,1.679121852E-1
8.152914167E0,-1.004010960E-1,-6.914892793E-1,1.146489978E-1
8.173010000E0,-1.632516533E-1,-3.506048918E-1,2.797648609E-1
8.193105521E0,-1.749695539E-1,7.763108611E-2,4.992091656E-1
8.213200833E0,3.382211924E-2,-2.143843099E-2,5.322323442E-1
8.233296146E0,2.426137924E-1,-4.784365296E-1,3.021354079E-1
8.253391458E0,2.404832691E-1,-6.094639897E-1,6.990792602E-2
8.273486771E0,1.890842989E-2,-2.941459119E-1,-2.063948289E-2
8.293582083E0,-1.962748319E-1,6.697845459E-2,-3.129211813E-2
8.313677396E0,-2.751043439E-1,1.937448233E-1,-3.235738352E-2
8.333772708E0,-1.579253376E-1,1.298290044E-1,-3.235738352E-2
8.353868021E0,-3.435475379E-2,-1.918806136E-1,2.516685426E-2
8.373963594E0,8.255792782E-3,-6.850976944E-1,3.262370080E-2
8.394059427E0,1.552621722E-1,-1.007872581E0,-2.596580051E-2
8.414155261E0,4.695149362E-1,-9.727188349E-1,-6.644582003E-2
8.434251042E0,6.197171211E-1,-4.368912578E-1,-4.514054582E-2
8.454346354E0,4.535360038E-1,2.182458937E-1,5.286370963E-2
8.474441667E0,1.510011256E-1,7.061366439E-1,2.020006180E-1
8.494536979E0,-7.057371736E-2,8.446208835E-1,3.351585865E-1
8.514632292E0,-3.624559641E-1,7.562040091E-1,3.596596420E-1
8.534727604E0,-5.137233734E-1,3.364901543E-1,2.435459048E-1
8.554822917E0,-4.540686309E-1,-3.528685868E-2,2.303632535E-2
8.574918229E0,-3.006706536E-1,-7.576687634E-2,-2.922817171E-1
8.595013542E0,-9.827057272E-2,2.299637944E-1,-6.139913201E-1
8.615108854E0,1.147821546E-1,5.804355145E-1,-9.058735967E-1
8.635204583E0,3.470096290E-1,6.496776342E-1,-1.076315761E0
8.655300417E0,2.990727723E-1,8.680567145E-1,-9.847030640E-1
8.675396250E0,-1.717737615E-1,1.040629387E0,-6.619281769E-1
8.695491823E0,-5.286371112E-1,6.550039649E-1,-2.518016994E-1
8.715587136E0,-3.869570196E-1,-1.332911104E-1,-4.660528619E-3
8.735682448E0,1.890842989E-2,-8.619314432E-1,-5.259739235E-2
8.755777761E0,2.074600905E-1,-9.396957159E-1,-2.336922139E-1
8.775873073E0,5.725792050E-2,-4.145207107E-1,-3.466101587E-1
8.795968386E0,-1.909485012E-1,1.937448233E-1,-3.924165070E-1
8.816063698E0,3.914843872E-2,3.588607013E-1,-3.210438192E-1
8.836159011E0,4.087949097E-1,2.523343265E-1,-2.592585385E-1
8.856254323E0,5.057339072E-1,8.402267098E-2,-2.677806616E-1
8.876349844E0,3.779022694E-1,-7.896266878E-2,-2.731069624E-1
8.896445677E0,2.820285559E-1,-2.025332451E-1,-2.070606202E-1
8.916541511E0,2.873548567E-1,-2.238385230E-1,-1.154479459E-1
8.936637292E0,3.480748832E-1,-3.122554123E-1,-3.448791057E-2
8.956732604E0,2.021337748E-1,-4.603270590E-1,5.992108025E-3
8.976827917E0,-2.047969401E-1,-6.520745158E-1,8.801741153E-2
8.996923229E0,-5.893571377E-1,-8.171903491E-1,1.657816470E-1
9.017018542E0,-5.723128915E-1,-8.864325285E-1,1.263668984E-1
9.037113854E0,-8.974846452E-2,-7.937545776E-1,3.155843541E-2
9.057209167E0,4.844286442E-1,-7.213166356E-1,-1.271658540E-1
9.077304479E0,7.432876825E-1,-5.583313107E-1,-2.571280003E-1
9.097399792E0,6.772413850E-1,-4.581965208E-1,-2.858901322E-1
9.117495104E0,4.109254479E-1,-4.635228515E-1,-2.145174593E-1
9.137590833E0,2.277000993E-1,-5.285038948E-1,-1.793637723E-1
9.157686667E0,1.680453420E-1,-4.049333334E-1,-1.442100704E-1
9.177782500E0,-1.091895252E-2,-9.281109273E-2,-4.407528415E-2
9.197878073E0,-3.368896246E-1,2.363553643E-1,1.519332230E-1
9.217973386E0,-5.392897129E-1,3.407512009E-1,3.266364634E-1
9.238068698E0,-4.721781015E-1,2.225069404E-1,3.905522823E-1
9.258164115E0,-3.539338410E-1,-2.504701018E-1,3.245059252E-1
9.278257656E0,-3.944138587E-1,-5.114597082E-1,2.115879953E-1
9.298355365E0,-3.954791129E-1,-4.038680792E-1,9.973530471E-2
9.318450729E0,-1.376853287E-1,-4.913528636E-2,-7.283740491E-2
9.338546042E0,2.404832691E-1,2.480732650E-1,-2.592585385E-1
9.358641354E0,3.427485824E-1,3.545996249E-1,-4.137217700E-1
9.378736667E0,1.435442716E-1,2.651174963E-1,-4.914860129E-1
9.398831979E0,1.864211401E-3,1.213068962E-1,-4.648544192E-1
9.418927292E0,8.282424510E-2,5.206476152E-2,-3.764375448E-1
9.439022604E0,2.553969622E-1,1.904158667E-2,-3.838943839E-1
9.459117917E0,3.736412227E-1,-4.274370521E-2,-5.010733604E-1
9.479213229E0,3.757717609E-1,-2.783001214E-2,-5.426186919E-1
9.499308646E0,3.683148921E-1,7.976161689E-2,-4.371575713E-1
9.519404479E0,3.438138366E-1,2.576606572E-1,-2.049300969E-1
9.539500313E0,2.553969622E-1,4.067975581E-1,2.303632535E-2
9.559596146E0,2.010685056E-1,3.876228034E-1,1.934785098E-1
9.579691511E0,1.094558388E-1,2.235722095E-1,3.074617088E-1
9.599786823E0,-1.249021590E-1,1.053279415E-1,3.958786130E-1
9.619882136E0,-3.954791129E-1,-2.356895804E-2,4.672512710E-1
9.639977448E0,-5.563339591E-1,-1.727058738E-1,4.438154697E-1
9.660072761E0,-5.872265697E-1,-2.994722426E-1,2.840259075E-1
9.680168073E0,-8.823046088E-1,-1.824264042E-2,1.785648167E-1
9.700263386E0,-1.413871169E0,5.708481669E-1,3.032006621E-1
9.720358698E0,-1.576856494E0,1.146090508E0,6.121271253E-1
9.740454011E0,-1.027180433E0,1.085370541E0,7.527419329E-1
9.760549479E0,-3.081275225E-1,3.407512009E-1,4.832302332E-1
9.780645313E0,-1.142495275E-1,-4.167843983E-2,6.884266436E-2
9.800741146E0,-2.410158962E-1,3.226417303E-1,-1.868206114E-1
9.820836979E0,-1.078579426E-1,6.475471258E-1,-2.209090441E-1
9.840932292E0,3.097254038E-1,5.069323182E-1,-4.940159991E-2
9.861027604E0,5.579318404E-1,1.607216448E-1,7.843003422E-2
9.881122917E0,5.494097471E-1,-1.812279820E-1,1.370195299E-1
9.901218229E0,3.970770240E-1,-3.825628161E-1,1.998700947E-1
9.921313542E0,2.703106403E-1,-4.123901725E-1,2.616553903E-1
9.941408854E0,2.681801319E-1,-2.547311783E-1,2.968090773E-1
9.961504167E0,3.576622605E-1,-2.569948509E-2,3.000048697E-1
9.981599479E0,4.109254479E-1,1.362205893E-1,2.446111590E-1
1.000169479E1,3.512706757E-1,3.013364673E-1,1.540637612E-1
1.002179021E1,3.406180441E-1,5.229113102E-1,5.712476373E-2
1.004188604E1,4.631233811E-1,7.817703485E-1,-5.725792143E-3
1.006198188E1,6.591318846E-1,9.181240797E-1,-3.994738800E-4
1.008207771E1,8.956204057E-1,7.796398401E-1,-6.791055668E-3
1.010217307E1,9.744499326E-1,3.844270110E-1,-6.964161247E-2
1.012226839E1,8.189214468E-1,-8.855003864E-2,-8.775109053E-2
1.014236370E1,5.259739161E-1,-4.304996729E-1,-1.105211023E-2
1.016245901E1,2.756369710E-1,-6.488786936E-1,1.125184745E-1
1.018255432E1,2.530001104E-2,-6.424871087E-1,2.233058959E-1
1.020264964E1,-1.877527237E-1,-5.285038948E-1,3.159838319E-1
1.022274495E1,-3.592601717E-1,-3.175817132E-1,2.925480306E-1
1.024284026E1,-3.326285779E-1,-1.183774248E-1,1.551290154E-1
1.026293557E1,-1.174453199E-1,-1.503353268E-1,-5.046686530E-2
1.028303089E1,4.340949282E-2,-1.876195520E-1,-1.782985032E-1
1.030312672E1,-3.755054250E-2,3.502054140E-2,-2.166479975E-1
1.032322255E1,-3.763043880E-1,3.940143883E-1,-1.079910994E-1
1.034331839E1,-5.222455263E-1,5.048018098E-1,9.014793485E-2
1.036341385E1,-4.540686309E-1,2.416816950E-1,2.073269337E-1
1.038350917E1,-2.814959288E-1,-2.280995846E-1,2.169143111E-1
1.040360448E1,-1.238368973E-1,-5.956155062E-1,1.306279600E-1
1.042369979E1,-9.187898785E-2,-6.179860830E-1,-1.531316526E-2
1.044379510E1,-1.547295451E-1,-2.259690464E-1,-1.410142779E-1
1.046389042E1,-1.376853287E-1,3.279680312E-1,-1.772332340E-1
1.048398573E1,-5.566002429E-2,6.454166174E-1,-1.250353158E-1
1.050408104E1,9.347688407E-2,4.302333593E-1,-3.129211813E-2
1.052417635E1,7.110634446E-2,-6.524739787E-3,-3.555317223E-2
1.054427167E1,-2.016011477E-1,-2.419480085E-1,-1.197090000E-1
1.056436740E1,-4.029359818E-1,-2.025332451E-1,-2.187785208E-1
1.058446323E1,-1.035968885E-1,-4.167843983E-2,-2.475406379E-1
1.060455906E1,4.993423223E-1,2.928143442E-1,-1.484711170E-1
1.062465464E1,7.827024460E-1,4.653870463E-1,-9.946899116E-2
1.064474995E1,7.294392586E-1,3.961449265E-1,-8.988162130E-2
1.066484526E1,4.727107286E-1,8.615319431E-2,-1.229047924E-1
1.068494057E1,4.767054692E-2,7.017423958E-2,3.368896246E-2
1.070503589E1,-5.680518150E-1,3.801659644E-1,3.159838319E-1
1.072513120E1,-9.771130681E-1,6.081323624E-1,6.355628967E-1
1.074522651E1,-9.984183311E-1,5.175849795E-1,7.740471959E-1
1.076532182E1,-7.725824714E-1,1.607216448E-1,6.068007946E-1
1.078541714E1,-6.255760789E-1,2.065279931E-1,3.298322558E-1
1.080551245E1,-4.732433856E-1,5.569997430E-1,9.973530471E-2
1.082560807E1,-2.751043439E-1,7.881619334E-1,3.688475490E-2
1.084570391E1,9.134636074E-2,6.624608040E-1,1.348890066E-1
1.086579974E1,3.118559420E-1,3.013364673E-1,2.478069514E-1
1.088589542E1,3.012032807E-1,-8.215846121E-2,2.222406268E-1
1.090599073E1,1.755021811E-1,-4.155859649E-1,1.423458606E-1
1.092608604E1,1.403484792E-1,-5.551354885E-1,1.189100519E-1
1.094618135E1,2.926811874E-1,-4.539354742E-1,1.700427085E-1
1.096627667E1,4.492749274E-1,-2.291648388E-1,2.371543199E-1
1.098637198E1,4.737760127E-1,2.543316968E-2,3.149185777E-1
1.100646729E1,4.024033546E-1,9.893636405E-2,3.298322558E-1
1.102656260E1,2.553969622E-1,3.289001435E-2,2.616553903E-1
1.104665792E1,1.563274413E-1,2.862896025E-2,2.211753577E-1
1.106675323E1,1.893506050E-1,-5.233107507E-2,2.371543199E-1
1.108684880E1,2.415485233E-1,-2.355564237E-1,2.392848432E-1
1.110694464E1,-1.515337527E-1,-1.343563795E-1,1.412805915E-1
1.112704047E1,-5.009402037E-1,-6.724476814E-2,-7.856319658E-3
1.114713620E1,-2.751043439E-1,-1.780321896E-1,-8.668582886E-2
1.116723151E1,1.179779470E-1,-6.574008465E-1,-1.921469271E-1
1.118732682E1,1.169126853E-1,-9.855020046E-1,-2.976080179E-1
1.120742214E1,-2.263685316E-2,-8.811061978E-1,-2.954775095E-1
1.122751745E1,3.054643571E-1,-6.637924314E-1,-1.623195410E-1
1.124761276E1,8.242477179E-1,-8.544746041E-1,-1.804290265E-1
1.126770807E1,8.860330582E-1,-1.090963125E0,-3.338269889E-1
1.128780339E1,5.771065950E-1,-8.661925197E-1,-4.925512671E-1
1.130789870E1,1.510011256E-1,-2.195774615E-1,-5.000081062E-1
1.132799401E1,-1.035968885E-1,3.332943618E-1,-3.103911877E-1
1.134808958E1,-1.898832470E-1,6.283723712E-1,1.731053460E-3
1.136818542E1,-2.740390599E-1,6.400902867E-1,2.584595978E-1
1.138828125E1,-3.699128032E-1,5.836313367E-1,3.362238407E-1
1.140837698E1,-4.668518007E-1,6.049365997E-1,2.786996067E-1
1.142847229E1,-5.328981280E-1,5.346291661E-1,1.636511236E-1
1.144856760E1,-3.933486044E-1,3.759049177E-1,1.344895363E-2
1.146866292E1,-1.280979514E-1,2.864227593E-1,-1.261005849E-1
1.148875823E1,2.423474751E-2,1.767006069E-1,-2.656501234E-1
1.150885354E1,-6.205160543E-2,-7.683213800E-2,-2.347574681E-1
1.152894885E1,-5.105276108E-1,-3.218427896E-1,-6.791055668E-3
1.154904417E1,-8.503466845E-1,-4.049333334E-1,9.653951973E-2
1.156913948E1,-4.370244145E-1,-2.195774615E-1,-2.530001104E-3
1.158923479E1,2.447443157E-1,9.041424841E-2,-2.219743133E-1
1.160933036E1,5.589970946E-1,3.780354261E-1,-4.499407411E-1
1.162942620E1,5.877591968E-1,5.293028951E-1,-4.914860129E-1
1.164952203E1,5.344960093E-1,4.110586047E-1,-3.838943839E-1
1.166961776E1,3.352917433E-1,5.335639119E-1,-1.964079887E-1
1.168971307E1,1.126516312E-1,7.689871788E-1,6.032055244E-2
1.170980839E1,4.234423116E-2,8.052061796E-1,1.988048255E-1
1.172990370E1,1.456748098E-1,6.251766086E-1,2.030658871E-1
1.174999901E1,3.970770240E-1,1.756353378E-1,3.581948951E-2
1.177009432E1,4.205128253E-1,-1.045289934E-1,-1.388837546E-1
1.179018964E1,1.350221634E-1,-5.233107507E-2,-1.644500792E-1
1.181028495E1,-4.029359818E-1,1.053279415E-1,-3.768370301E-2
1.183038026E1,-7.246456146E-1,1.777658761E-1,1.412805915E-1
1.185047557E1,-6.735129356E-1,1.074584723E-1,2.318280041E-1
1.187057120E1,-3.549990952E-1,-5.459476262E-3,1.338237375E-1
1.189066703E1,9.321057238E-3,6.484792382E-2,1.344895363E-2
1.191076286E1,2.351569533E-1,2.225069404E-1,5.392897129E-2
1.193085854E1,4.375570416E-1,2.874880135E-1,2.691122293E-1
1.195095385E1,5.494097471E-1,1.042626798E-1,5.098618269E-1
1.197104917E1,3.747064769E-1,-1.620532274E-1,6.600639820E-1
1.199114448E1,3.808317333E-2,-3.846933246E-1,7.399587631E-1
1.201123979E1,-2.218411565E-1,-5.040028691E-1,7.122619152E-1
1.203133510E1,-2.335590571E-1,-7.468829751E-1,4.438154697E-1
1.205143042E1,-5.352949724E-2,-9.428914785E-1,-2.277000993E-2
1.207152573E1,2.873548567E-1,-9.013462067E-1,-3.444796205E-1
1.209162104E1,7.475487590E-1,-7.990809083E-1,-5.330312848E-1
1.211171635E1,1.109738350E0,-9.045419693E-1,-7.737808824E-1
1.213181203E1,1.152348995E0,-9.620662332E-1,-9.335704446E-1
1.215190786E1,8.849677444E-1,-1.040895700E0,-9.538104534E-1
1.217200370E1,5.440834165E-1,-1.233708501E0,-8.973514438E-1
1.219209932E1,2.553969622E-1,-1.206011653E0,-7.961513996E-1
1.221219464E1,4.447475821E-2,-1.046222091E0,-6.065344810E-1
1.223228995E1,-1.856221855E-1,-6.978808641E-1,-3.764375448E-1
1.225238526E1,-3.230412006E-1,-4.645881057E-1,-3.029343486E-1
1.227248057E1,-3.134538233E-1,-5.263733864E-1,-3.902859688E-1
1.229257589E1,-3.347590864E-1,-5.732449889E-1,-4.542017877E-1
1.231267120E1,-4.093275666E-1,-2.739059031E-1,-3.295659423E-1
1.233276651E1,-3.954791129E-1,3.034669757E-1,-1.559279710E-1
1.235286182E1,-3.368896246E-1,5.708481669E-1,-1.559279710E-1
1.237295714E1,-2.889527678E-1,4.504733682E-1,-3.359575272E-1
1.239305287E1,-3.123885691E-1,2.736395895E-1,-6.171871424E-1
1.241314870E1,-2.346243113E-1,2.917490900E-1,-9.218525290E-1
1.243324453E1,7.190529723E-3,6.390250325E-1,-1.024117827E0
1.245334010E1,1.637842804E-1,9.064062238E-1,-9.516798854E-1
1.247343542E1,1.051947847E-1,8.190546036E-1,-8.142609000E-1
1.249353073E1,-6.418213248E-2,4.046670198E-1,-6.470144987E-1
1.251362604E1,-1.099884734E-1,9.574057162E-2,-4.627238810E-1
1.253372135E1,3.169159219E-2,7.123950869E-2,-3.391533196E-1
1.255381667E1,1.563274413E-1,2.363553643E-1,-2.624543309E-1
1.257391198E1,1.776327193E-1,3.631217480E-1,-1.772332340E-1
1.259400729E1,1.680453420E-1,3.854922652E-1,-8.135951310E-2
1.261410260E1,1.677790284E-2,3.961449265E-1,6.138581783E-2
1.263419802E1,-3.059969842E-1,4.408859909E-1,2.605901062E-1
1.265429385E1,-5.637907982E-1,5.048018098E-1,4.289017618E-1
1.267438969E1,-5.712476373E-1,4.036017656E-1,4.171838760E-1
1.269448552E1,-7.065361142E-1,3.428817391E-1,3.447459340E-1
1.271458089E1,-1.295626879E0,8.307724595E-1,4.320975542E-1
1.273467620E1,-1.785648227E0,1.575391769E0,8.006787896E-1
1.275477151E1,-1.596031308E0,1.646764398E0,9.966872931E-1
1.277486682E1,-8.151929975E-1,9.298419952E-1,8.667251468E-1
1.279496214E1,-2.111885101E-1,1.969406158E-1,4.310323000E-1
1.281505745E1,-1.419463754E-1,2.171806246E-1,-3.129211813E-2
1.283515276E1,-1.270326823E-1,9.064062238E-1,-2.038648278E-1
1.285524807E1,8.815056831E-2,1.450755954E0,-1.229047924E-1
1.287534339E1,3.416832983E-1,1.512541175E0,-1.105211023E-2
1.289543901E1,3.874896467E-1,1.106675744E0,1.242363751E-1
1.291553484E1,3.012032807E-1,4.419512451E-1,3.298322558E-1
1.293563068E1,1.488705873E-1,-1.620532274E-1,6.025397182E-1
1.295572635E1,3.994738683E-3,-4.166512489E-1,8.635293245E-1
1.297582167E1,-6.311687082E-2,-4.528702199E-1,1.016927361E0
1.299591698E1,-1.888179779E-1,-4.997417927E-1,1.029710412E0
1.301601229E1,-2.793653905E-1,-5.519397259E-1,8.795083165E-1
1.303610760E1,-2.516685426E-1,-4.944154918E-1,6.558029056E-1
1.305620292E1,-1.845569313E-1,-2.334259003E-1,4.523375630E-1
1.307629823E1,-3.222422674E-2,7.337003201E-2,3.245059252E-1
1.309639354E1,6.364950538E-2,1.916143000E-1,2.712427676E-1
1.311648885E1,-1.707084924E-1,1.031974182E-1,1.892174482E-1
1.313658422E1,-3.475422561E-1,-1.173121557E-1,7.736477256E-2
1.315668005E1,-1.440769136E-1,-6.222470999E-1,-1.069258377E-1
1.317677589E1,2.031990439E-1,-1.304015875E0,-3.956122994E-1
1.319687172E1,2.628538013E-1,-1.406281114E0,-5.809681416E-1
1.321696714E1,1.552621722E-1,-1.021721005E0,-5.234439373E-1
1.323706245E1,1.233042628E-1,-7.021418810E-1,-3.476754129E-1
1.325715776E1,1.051947847E-1,-7.351650596E-1,-2.422143221E-1
1.327725307E1,-1.557948142E-1,-8.342345953E-1,-1.825595498E-1
1.329734839E1,-3.667170107E-1,-6.318345070E-1,-1.772332340E-1
1.331744370E1,-3.826959729E-1,-1.418132186E-1,-2.464753687E-1
1.333753901E1,-2.537990510E-1,2.693785429E-1,-3.870901763E-1
1.335763432E1,1.145158429E-2,3.247722387E-1,-5.809681416E-1
1.337772964E1,4.918854833E-1,1.266332120E-1,-7.982819676E-1
1.339782521E1,8.881635666E-1,-2.142511457E-1,-1.018791556E0
1.341792104E1,1.088433146E0,-5.199818015E-1,-1.191364169E0
1.343801688E1,1.090563655E0,-7.383608818E-1,-1.256345272E0
1.345811266E1,9.787109494E-1,-7.149250507E-1,-1.171124220E0
1.347820797E1,7.198519111E-1,-2.430132627E-1,-9.175914526E-1
1.349830328E1,3.193127811E-1,4.845618010E-1,-5.681849718E-1
1.351839859E1,1.030642539E-1,8.765788078E-1,-2.581932843E-1
1.353849391E1,1.669800729E-1,7.743135095E-1,-1.580584943E-1
1.355858922E1,2.532664239E-1,3.577954173E-1,-1.079910994E-1
1.357868453E1,2.500706315E-1,-1.291632187E-2,-7.390266657E-2
1.359877984E1,9.773793817E-2,4.127896391E-3,-9.520793706E-2
1.361887516E1,-1.536642760E-1,3.450122476E-1,-1.122521535E-1
1.363897047E1,-2.697780132E-1,5.996102691E-1,-1.996037811E-1
1.365906615E1,-4.838960171E-1,5.229113102E-1,-1.868206114E-1
1.367916198E1,-1.191231012E0,4.110586047E-1,1.785648167E-1
1.369925781E1,-1.724928141E0,4.568649530E-1,8.539419770E-1
1.371935344E1,-1.573660731E0,-1.198421582E-3,1.348224282E0
1.373944875E1,-1.129445791E0,-7.607313991E-1,1.358876944E0
1.375954406E1,-9.440898895E-1,-1.087767363E0,1.058472633E0
1.377963901E1,-9.685909748E-1,-7.543398142E-1,7.367629409E-1
1.379973422E1,-8.641951084E-1,-2.569948509E-2,5.013396740E-1
1.381983005E1,-4.956139028E-1,5.186502337E-1,3.649859428E-1
1.383992589E1,-7.057371736E-2,5.708481669E-1,2.147837877E-1
1.386002162E1,2.426137924E-1,2.906838059E-1,2.516685426E-2
1.388011693E1,4.247738719E-1,3.821633384E-2,-2.490053698E-2
1.390021224E1,5.685844421E-1,1.021321490E-1,1.125184745E-1
1.392030755E1,6.431529522E-1,3.396859467E-1,3.159838319E-1
1.394040287E1,5.398223400E-1,6.177197695E-1,4.917523265E-1
1.396049818E1,4.343612492E-1,9.277114868E-1,6.419544816E-1
1.398059349E1,6.122602820E-1,1.661678076E0,7.846998572E-1
1.400068880E1,7.230476737E-1,2.555434227E0,8.518114686E-1
1.402078412E1,6.090644598E-1,2.837729216E0,9.104009271E-1
1.404087948E1,6.889592409E-1,2.601240635E0,9.370325208E-1
1.406097531E1,7.294392586E-1,1.626524448E0,6.888260841E-1
1.408107115E1,6.442182064E-1,4.302333593E-1,3.958786130E-1
1.410116698E1,5.366265774E-1,-4.603270590E-1,2.275669426E-1
1.412126245E1,4.854938984E-1,-9.791104198E-1,5.712476373E-2
1.414135776E1,6.878939867E-1,-1.143161058E0,-1.420795321E-1
1.416145307E1,9.542099237E-1,-9.972199202E-1,-2.858901322E-1
1.418154839E1,9.669930935E-1,-7.064029574E-1,-3.039996028E-1
1.420164370E1,8.434224725E-1,-4.848281145E-1,-2.113216817E-1
1.422173901E1,7.954856157E-1,-6.861629486E-1,-1.324921697E-1
1.424183432E1,5.866939425E-1,-9.982851744E-1,-1.665806025E-1
1.426192964E1,6.471476704E-2,-1.015329361E0,-2.954775095E-1
1.428202495E1,-6.021402478E-1,-4.858933687E-1,-3.817638457E-1
1.430212052E1,-9.131972790E-1,5.026713014E-1,-2.848248780E-1
1.432221635E1,-8.450203538E-1,1.296292663E0,-1.218395308E-1
1.434231219E1,-7.289066315E-1,1.270726323E0,-1.850895584E-2
1.436240797E1,-5.904223919E-1,7.370292544E-1,-1.105211023E-2
1.438250328E1,-3.954791129E-1,1.916143000E-1,-1.105211023E-2
1.440259859E1,-2.016011477E-1,-1.929458827E-1,-2.596580051E-2
1.442269391E1,1.147821546E-1,-3.016027808E-1,-8.775109053E-2
1.444278922E1,3.022685647E-1,-2.611227632E-1,-1.346226931E-1
1.446288453E1,3.800328076E-1,-2.195774615E-1,-1.261005849E-1
1.448297984E1,3.459443748E-1,-1.013332009E-1,-6.857634336E-2
1.450307516E1,1.605884880E-1,3.821633384E-2,4.540686309E-2
1.452317047E1,-1.675127149E-1,1.798963994E-1,1.679121852E-1
1.454326583E1,-5.222455263E-1,3.876228034E-1,2.510027587E-1
1.456336167E1,-8.237150908E-1,5.282375813E-1,2.360890508E-1
1.458345750E1,-8.684561849E-1,5.037365556E-1,9.440898895E-2
1.460355333E1,-7.150582075E-1,3.375554085E-1,-1.442100704E-1
1.462364880E1,-5.488771200E-1,2.331595868E-1,-3.860249221E-1
1.464374412E1,-6.234455705E-1,3.652522564E-1,-5.085302591E-1
1.466383943E1,-7.811045647E-1,7.231808305E-1,-3.732417524E-1
1.468393474E1,-8.024098277E-1,9.138630629E-1,9.187898599E-3
1.470403005E1,-5.648560524E-1,3.641870022E-1,3.287670016E-1
1.472412536E1,-1.462074369E-1,-3.111901283E-1,3.351585865E-1
1.474422068E1,1.680453420E-1,-4.720449448E-1,8.588688076E-2
1.476431703E1,2.841590643E-1,-2.568616867E-1,-7.603318989E-2
1.478441234E1,3.906854391E-1,-1.258342713E-1,-4.620581120E-2
1.480450766E1,4.290349185E-1,-1.705753356E-1,1.316932142E-1
1.482460297E1,3.331612051E-1,-3.346259296E-1,2.808301151E-1
1.484469828E1,1.755021811E-1,-4.613923132E-1,3.553985953E-1
1.486479359E1,3.808317333E-2,-3.708449006E-1,3.820301592E-1
1.488488891E1,5.060002208E-3,-1.290300637E-1,4.182491302E-1
1.490498422E1,3.914843872E-2,2.097237855E-1,4.416849315E-1
1.492507953E1,5.060002208E-3,5.516734123E-1,4.661859870E-1
1.494517521E1,-2.583264373E-2,6.858966351E-1,5.045354962E-1
1.496527104E1,-1.270326823E-1,5.740439296E-1,5.375586748E-1
1.498536688E1,-2.932138145E-1,4.536691606E-1,5.396891832E-1
1.500546255E1,-3.379548788E-1,3.716438413E-1,5.386239290E-1
1.502555787E1,-2.250369489E-1,1.862879843E-1,5.194491744E-1
1.504565318E1,-9.187898785E-2,-4.593949392E-2,4.331628382E-1
1.506574849E1,-1.304947957E-2,-1.833585054E-1,2.989396155E-1
1.508584380E1,2.530001104E-2,-2.153164148E-1,1.988048255E-1
1.510593912E1,8.282424510E-2,-2.920154035E-1,6.564687192E-2
1.512603443E1,2.849580161E-2,-2.057290375E-1,-5.259739235E-2
1.514612974E1,-1.504684836E-1,-1.717737690E-2,-1.143826842E-1
1.516622505E1,-2.346243113E-1,8.402267098E-2,-1.314269006E-1
1.518632078E1,-6.205160543E-2,-7.789740711E-2,-1.101216301E-1
1.520641662E1,3.523359597E-1,-4.496744275E-1,-8.881635964E-2
1.522651245E1,4.066644013E-1,-6.584661007E-1,-1.719069183E-1
1.524660807E1,9.880319983E-2,-5.700492263E-1,-2.794985473E-1
1.526670339E1,-2.047969401E-1,-2.845585644E-1,-3.316964805E-1
1.528679870E1,-1.728390306E-1,5.952160433E-2,-3.125217259E-1
1.530689401E1,7.190529723E-3,1.532648057E-1,-2.912164330E-1
1.532698932E1,9.454214573E-2,-1.611211337E-2,-3.008038104E-1
1.534708464E1,1.019989923E-1,-2.579269707E-1,-3.306311965E-1
1.536717995E1,4.447475821E-2,-3.932154477E-1,-3.583280444E-1
1.538727526E1,3.382211924E-2,-3.548659384E-1,-3.743070066E-1
1.540737062E1,4.234423116E-2,-2.174469382E-1,-3.902859688E-1
1.542746646E1,-1.624527015E-2,-1.119858399E-1,-4.009386003E-1
1.544756229E1,-8.335687965E-2,-9.068056941E-2,-3.806985915E-1
1.546765813E1,-1.941442937E-1,-3.528685868E-2,-3.348922431E-1
1.548775365E1,-2.814959288E-1,4.993423447E-2,-2.890859246E-1
1.550784896E1,-3.198454082E-1,1.500690132E-1,-2.155827284E-1
1.552794427E1,-3.454117477E-1,3.407512009E-1,-1.985385120E-1
1.554803958E1,-3.283675313E-1,4.536691606E-1,-2.400837988E-1
1.556813490E1,-3.326285779E-1,4.685828388E-1,-2.997385561E-1
1.558823021E1,-3.720433414E-1,3.844270110E-1,-3.540669978E-1
1.560832552E1,-4.700475931E-1,2.246374637E-1,-3.508712053E-1
1.562842083E1,-6.511424184E-1,1.980058849E-1,-2.837595940E-1
1.564851625E1,-8.290414214E-1,1.756353378E-1,-1.346226931E-1
1.566861208E1,-7.651256323E-1,-1.503353268E-1,1.221058443E-1
1.568870792E1,-4.242412448E-1,-6.925545335E-1,2.946785688E-1
1.570880375E1,-1.557948142E-1,-1.051548362E0,1.732385010E-1
1.572889922E1,4.873581231E-2,-1.120790482E0,-4.301001877E-2
1.574899453E1,1.435442716E-1,-8.683230281E-1,-1.420795321E-1
1.576908984E1,1.627190262E-1,-6.776408553E-1,-3.235738352E-2
1.578918516E1,1.318263710E-1,-6.339650154E-1,1.668469161E-1
1.580928047E1,6.151897460E-2,-7.394261360E-1,2.499374747E-1
1.582937578E1,1.997369342E-2,-8.768451214E-1,2.158490419E-1
1.584947109E1,9.667267650E-2,-9.226514697E-1,1.466069072E-1
1.586956641E1,3.203780353E-1,-8.480830193E-1,1.199753210E-1
1.588966188E1,5.483444333E-1,-5.210470557E-1,1.146489978E-1
1.590975771E1,5.984118581E-1,-8.215846121E-2,1.487374306E-1
1.592985354E1,4.514054656E-1,1.628521830E-1,1.806953400E-1
1.594994938E1,2.266348451E-1,2.352901101E-1,2.169143111E-1
1.597004479E1,8.708529919E-2,3.482080400E-1,2.850911915E-1
1.599014010E1,6.258423626E-2,5.463470817E-1,3.724428117E-1
1.601023542E1,1.222390011E-1,5.708481669E-1,4.331628382E-1
1.603033073E1,1.179779470E-1,3.034669757E-1,4.736428559E-1
1.605042604E1,-2.050632425E-2,-6.298371404E-2,4.704470634E-1
1.607052135E1,-2.751043439E-1,-3.101248741E-1,3.745733202E-1
1.609061667E1,-2.676474750E-1,-3.985417485E-1,2.786996067E-1
1.611071198E1,7.430213690E-2,-4.869586527E-1,1.178447902E-1
1.613080755E1,3.012032807E-1,-5.231776237E-1,-1.015995219E-1
1.615090339E1,2.000032514E-1,-4.890891612E-1,-2.070606202E-1
1.617099922E1,1.520663798E-1,-3.740406930E-1,-1.442100704E-1
1.619109505E1,3.416832983E-1,-2.739059031E-1,-8.988162130E-2
1.621119036E1,5.153213143E-1,-5.316997170E-1,-2.017343044E-1
1.623128568E1,4.716454744E-1,-6.595313549E-1,-3.966775537E-1
1.625138099E1,1.360874325E-1,-3.623228073E-1,-5.149217844E-1
1.627147630E1,-3.134538233E-1,2.310290486E-1,-4.563323259E-1
1.629157162E1,-3.656517565E-1,7.849661708E-1,-2.613890767E-1
1.631166693E1,-2.101232558E-1,9.341030717E-1,-1.367532164E-1
1.633176224E1,-3.222422674E-2,7.902924418E-1,-1.921469271E-1
1.635185755E1,1.179779470E-1,4.930838943E-1,-3.029343486E-1
1.637195318E1,2.404832691E-1,1.617869139E-1,-4.041343927E-1
1.639204901E1,3.587275445E-1,-1.609879732E-1,-4.936165512E-1
1.641214484E1,4.077296555E-1,-3.985417485E-1,-5.490102768E-1
1.643224063E1,3.992075622E-1,-5.828323960E-1,-5.426186919E-1
1.645233594E1,3.534012139E-1,-6.776408553E-1,-4.595280886E-1
1.647243125E1,2.735064328E-1,-5.721797347E-1,-3.295659423E-1
1.649252656E1,2.085253596E-1,-2.504701018E-1,-2.358227372E-1
1.651262188E1,2.383527458E-1,9.254477918E-2,-1.655153334E-1
1.653271719E1,3.683148921E-1,3.045322299E-1,-1.005342528E-1
1.655281250E1,2.777675092E-1,2.661827505E-1,-1.090563685E-1
1.657290781E1,1.818937659E-1,-8.655266836E-3,-1.814942956E-1
1.659300313E1,1.691105962E-1,-4.209122956E-1,-2.486059070E-1
1.661309875E1,1.083905771E-1,-7.564703226E-1,-2.262353599E-1
1.663319458E1,-1.696432382E-1,-7.980156541E-1,-2.123869359E-1
1.665329042E1,-4.285022914E-1,-3.772364855E-1,-1.324921697E-1
1.667338620E1,-3.805654347E-1,2.543316968E-2,2.303632535E-2
1.669348151E1,3.062633052E-2,-2.078595608E-1,7.629951090E-2
1.671357682E1,3.470096290E-1,-5.231776237E-1,-1.463405937E-1
1.673367214E1,3.757717609E-1,-3.069290817E-1,-4.190480709E-1
1.675376745E1,3.150517344E-1,1.852227151E-1,-5.607281327E-1
1.677386276E1,3.672496378E-1,4.728438854E-1,-4.435491562E-1
1.679395807E1,2.873548567E-1,5.420860648E-1,-1.303616315E-1
1.681405339E1,1.403484792E-1,2.491385341E-1,1.071921512E-1
1.683414870E1,-3.755054250E-2,-7.789740711E-2,2.584595978E-1
1.685424427E1,-1.312937438E-1,-2.121206224E-1,4.182491302E-1
1.687434010E1,-1.984053552E-1,-5.446160212E-2,6.238450408E-1
1.689443594E1,-1.376853287E-1,2.757701278E-1,8.976177573E-1
1.691453172E1,8.708529919E-2,2.938795984E-1,1.195891619E0
1.693462703E1,2.575274706E-1,3.821633384E-2,1.383378029E0
1.695472234E1,1.211737394E-1,-2.632532716E-1,1.371660113E0
1.697481766E1,-1.837579720E-2,-5.956155062E-1,1.304548502E0
1.699491297E1,1.677790284E-2,-6.456829309E-1,1.175651550E0
1.701500828E1,2.063948363E-1,-5.423523784E-1,1.012666225E0
1.703510359E1,3.619233072E-1,-5.700492263E-1,8.337019682E-1
1.705519891E1,3.576622605E-1,-6.435524225E-1,6.014744639E-1
1.707529422E1,1.403484792E-1,-6.243776679E-1,3.095922470E-1
1.709538979E1,-1.131842583E-1,-3.729754388E-1,7.203845680E-2
1.711548562E1,-1.089232042E-1,1.584579609E-2,-1.644500792E-1
1.713558146E1,-6.657897960E-3,1.394163817E-1,-3.828291297E-1
1.715567724E1,-1.280979514E-1,1.617869139E-1,-4.893554747E-1
1.717577255E1,-3.262369931E-1,2.960101366E-1,-4.030691385E-1
1.719586786E1,-4.231759906E-1,5.644565821E-1,-2.411490530E-1
1.721596318E1,-1.632516533E-1,5.878923535E-1,-1.516669095E-1
1.723605849E1,3.352917433E-1,2.683132887E-1,-1.516669095E-1
1.725615453E1,3.992075622E-1,-1.066595241E-1,-2.656501234E-1
1.727624859E1,-3.222422674E-2,-8.002793044E-2,-2.901511788E-1
1.729634490E1,-3.166496158E-1,2.874880135E-1,-2.294311523E-1
1.731644089E1,-1.387505829E-1,5.900229216E-1,-1.463405937E-1
1.733653620E1,1.478053331E-1,6.486123800E-1,-8.135951310E-2
1.735663151E1,2.713759243E-1,4.962796867E-1,-8.881635964E-2
1.737672682E1,3.086601496E-1,2.640522122E-1,-1.463405937E-1
1.739682214E1,3.107906580E-1,3.502054140E-2,-2.187785208E-1
1.741691745E1,3.012032807E-1,-9.600688517E-2,-2.304964215E-1
1.743701276E1,2.202432603E-1,-1.151816323E-1,-2.379532605E-1
1.745710807E1,1.147821546E-1,-9.920267761E-2,-2.592585385E-1
1.747720339E1,7.004108280E-2,-2.676474862E-2,-2.997385561E-1
1.749729906E1,4.980107397E-2,1.830921918E-1,-2.155827284E-1
1.751739490E1,4.205128253E-1,3.471427858E-1,1.870869249E-1
1.753749073E1,8.412919641E-1,1.138500497E-1,7.687208652E-1
1.755758641E1,6.942855716E-1,-7.671229839E-1,1.011600971E0
1.757768172E1,1.659148186E-1,-1.672597051E0,9.434241056E-1
1.759777703E1,-1.387505829E-1,-2.003894091E0,7.761777043E-1
1.761787234E1,-1.099884734E-1,-1.710946560E0,5.748428702E-1
1.763796766E1,1.595232338E-1,-1.079245210E0,3.042659163E-1
1.765806297E1,9.454214573E-2,-1.972069293E-1,-1.464737463E-3
1.767815828E1,-2.751043439E-1,6.741787195E-1,-1.665806025E-1
1.769825359E1,-6.362286806E-1,1.051282048E0,-2.134522051E-1
1.771834891E1,-4.593949318E-1,9.671262503E-1,-1.761679798E-1
1.773844443E1,-4.394212365E-2,6.997450590E-1,-3.008038104E-1
1.775854026E1,1.584579647E-1,6.795050502E-1,-5.095955133E-1
1.777863609E1,1.190432087E-1,7.732482553E-1,-6.065344810E-1
1.779873193E1,-2.583264373E-2,6.784397960E-1,-5.500755310E-1
1.781882724E1,-1.025316268E-1,4.014712274E-1,-3.359575272E-1
1.783892255E1,-2.324937880E-1,8.934898674E-2,-1.335574239E-1
1.785901787E1,-3.496727943E-1,-1.854890287E-1,-2.170474641E-2
1.787911318E1,-3.731085956E-1,-2.355564237E-1,3.262370080E-2
1.789920849E1,-2.697780132E-1,-6.404897571E-2,1.284974217E-1
1.791930380E1,-1.238368973E-1,1.862879843E-1,2.435459048E-1
1.793939912E1,-7.696529478E-2,3.801659644E-1,3.415501416E-1
1.795949443E1,-1.153147891E-1,4.504733682E-1,3.884217441E-1
1.797958984E1,-8.335687965E-2,3.098585606E-1,3.436806798E-1
1.799968568E1,-2.902843431E-2,2.331595868E-1,3.021354079E-1
1.801978151E1,3.595264629E-2,2.150501013E-1,3.394196332E-1
1.803987734E1,1.925463974E-1,6.271740049E-2,4.054659605E-1
1.805997276E1,3.267696202E-1,-2.515353858E-1,4.225101769E-1
1.808006807E1,3.246390820E-1,-5.668534040E-1,3.543333113E-1
1.810016339E1,1.989379823E-1,-6.616618633E-1,2.510027587E-1
1.812025870E1,1.371526867E-1,-6.041376591E-1,7.949529588E-2
1.814035401E1,6.897582114E-2,-4.581965208E-1,-2.475406379E-1
1.816044932E1,6.125265732E-3,-6.617950648E-2,-4.680502117E-1
1.818054464E1,7.989477599E-4,4.238417745E-1,-4.265049398E-1
1.820063995E1,-1.781653464E-1,8.062714338E-1,-3.402185738E-1
1.822073526E1,-4.103928208E-1,8.829703927E-1,-3.061301410E-1
1.824083094E1,-3.890875578E-1,5.239765644E-1,-3.348922431E-1
1.826092677E1,-2.793653905E-1,9.254477918E-2,-4.094607234E-1
1.828102260E1,-3.273022473E-1,5.099949613E-2,-4.904207587E-1
1.830111828E1,-4.807002246E-1,3.396859467E-1,-5.490102768E-1
1.832121359E1,-5.787044764E-1,7.998798490E-1,-5.309007764E-1
1.834130891E1,-5.382244587E-1,1.129046321E0,-4.467449486E-1
1.836140422E1,-3.954791129E-1,1.146090508E0,-3.412838280E-1
1.838149953E1,-1.462074369E-1,8.520777822E-1,-2.805638015E-1
1.840159484E1,7.962846011E-2,3.087933064E-1,-3.593933284E-1
1.842169016E1,1.019989923E-1,-1.844237745E-1,-5.351617932E-1
1.844178547E1,2.849580161E-2,-3.740406930E-1,-6.406229138E-1
1.846188078E1,1.137168929E-1,-4.294344187E-1,-6.395576596E-1
1.848197615E1,1.776327193E-1,-3.356912136E-1,-5.937513113E-1
1.850207198E1,1.233042628E-1,-2.302301079E-1,-4.818986356E-1
1.852216781E1,-1.472726911E-1,-9.707214683E-2,-3.796333373E-1
1.854226365E1,-4.295675755E-1,-3.954791278E-2,-3.050648868E-1
1.856235912E1,-5.052012801E-1,8.721846342E-2,-2.837595940E-1
1.858245443E1,-5.297023654E-1,2.235722095E-1,-3.242396116E-1
1.860254974E1,-6.490118504E-1,4.696480930E-1,-4.392880797E-1
1.862264505E1,-7.448856235E-1,7.604650855E-1,-5.969471335E-1
1.864274036E1,-6.767086983E-1,9.575388432E-1,-7.737808824E-1
1.866283568E1,-5.446160436E-1,1.202549458E0,-7.769766450E-1
1.868293099E1,-4.008054435E-1,9.990841150E-1,-4.850944281E-1
1.870302630E1,-3.635212183E-1,5.378249884E-1,-1.069258377E-1
1.872312162E1,-3.422159553E-1,-1.705753356E-1,1.870869249E-1
1.874321714E1,-1.344895363E-1,-8.416914344E-1,2.467416972E-1
1.876331297E1,1.243695319E-1,-9.769799113E-1,5.286370963E-2
1.878340880E1,3.459443748E-1,-7.181208730E-1,-1.410142779E-1
1.880350458E1,5.344960093E-1,-5.700492263E-1,-1.868206114E-1
1.882359990E1,6.953508258E-1,-6.637924314E-1,-1.569932252E-1
1.884369521E1,7.337003350E-1,-7.564703226E-1,-1.165132076E-1
1.886379052E1,6.197171211E-1,-7.159903049E-1,-1.165132076E-1
1.888388583E1,4.077296555E-1,-5.977460742E-1,-6.751108170E-2
1.890398115E1,2.756369710E-1,-3.047985733E-1,9.760478139E-2
1.892407646E1,1.978727281E-1,3.289001435E-2,2.605901062E-1
1.894417177E1,6.684529036E-2,2.874880135E-1,3.745733202E-1
1.896426708E1,-1.589905918E-1,4.302333593E-1,4.331628382E-1
1.898436240E1,-2.793653905E-1,4.408859909E-1,4.651207328E-1
1.900445823E1,-2.719085515E-1,4.206459820E-1,4.470112622E-1
1.902455406E1,-2.122537792E-1,3.631217480E-1,3.958786130E-1
1.904464990E1,-1.802958697E-1,1.692437679E-1,3.607248962E-1
1.906474536E1,-8.868319541E-2,-2.014679909E-1,3.628554344E-1
1.908484068E1,4.767054692E-2,-5.562008023E-1,3.277017176E-1
1.910493599E1,9.028109163E-2,-7.042724490E-1,2.872217000E-1
1.912503130E1,9.986846894E-2,-7.000113726E-1,2.371543199E-1
1.914512662E1,7.430213690E-2,-6.488786936E-1,1.167795286E-1
1.916522193E1,-1.198421605E-2,-4.464786351E-1,2.303632535E-2
1.918531724E1,-1.110537350E-1,-1.151816323E-1,3.368896246E-2
1.920541255E1,-1.312937438E-1,9.680583328E-2,1.018658355E-1
1.922550786E1,-2.239716798E-1,-5.446160212E-2,1.018658355E-1
1.924560339E1,-3.837612271E-1,-2.025332451E-1,1.008005738E-1
1.926569922E1,-7.704519033E-1,-6.404897571E-2,4.966791719E-2
1.928579505E1,-1.200818419E0,1.788311303E-1,3.901528195E-2
1.930589089E1,-1.296692133E0,3.727091253E-1,1.082574204E-1
1.932598620E1,-1.101748943E0,4.462123215E-1,1.892174482E-1
1.934608151E1,-7.214497924E-1,4.004059732E-1,2.083922029E-1
1.936617682E1,-2.463422120E-1,2.789659202E-1,1.274321675E-1
1.938627214E1,1.733716577E-1,1.149153188E-1,-3.022685647E-2
1.940636745E1,4.247738719E-1,-7.470161468E-2,-2.017343044E-1
1.942646276E1,4.886896908E-1,-1.396826953E-1,-3.082606792E-1
1.944655807E1,4.822981060E-1,-1.023984700E-1,-3.093259335E-1
1.946665339E1,3.960117698E-1,9.454214945E-3,-2.177132517E-1
1.948674870E1,1.989379823E-1,1.245026886E-1,-7.070687413E-2
1.950684427E1,-6.657897960E-3,2.523343265E-1,5.499423668E-2
1.952694010E1,-9.507478029E-2,3.929491341E-1,1.583248079E-1
1.954703594E1,-7.376950979E-2,5.069323182E-1,2.169143111E-1
1.956713167E1,-1.430116445E-1,4.323638678E-1,2.158490419E-1
1.958722698E1,-2.218411565E-1,2.448774725E-1,1.189100519E-1
1.960732229E1,-2.079927325E-1,1.063932031E-1,5.992108025E-3
1.962741760E1,-1.760348231E-1,5.099949613E-2,-1.026647836E-1
1.964751292E1,-3.645864725E-1,4.131891429E-1,-1.079910994E-1
1.966760823E1,-7.693866491E-1,7.412903309E-1,-1.105211023E-2
1.968770354E1,-8.684561849E-1,5.548691750E-1,2.030658871E-1
1.970779885E1,-3.816306889E-1,-1.492700726E-1,3.564638495E-1
1.972789417E1,5.832318589E-2,-5.551354885E-1,2.680469751E-1
1.974798948E1,1.145158429E-2,-2.494048476E-1,-3.595264861E-3
1.976808521E1,-1.930790395E-1,6.697845459E-2,-1.559279710E-1
1.978818104E1,-1.941442937E-1,3.182475269E-2,8.695214242E-2
1.980827688E1,-1.547295451E-1,-2.600574791E-1,4.129228294E-1
1.982837245E1,-1.440769136E-1,-5.583313107E-1,5.119923353E-1
1.984846776E1,-1.067926809E-1,-7.490134835E-1,4.448807240E-1
1.986856307E1,-7.270424068E-2,-7.372955680E-1,3.628554344E-1
1.988865839E1,-2.476738021E-2,-5.402218103E-1,3.351585865E-1
1.990875370E1,3.701791167E-2,-2.174469382E-1,3.777691126E-1
1.992884901E1,3.701791167E-2,1.436774284E-1,4.427502155E-1
1.994894432E1,-4.926844314E-2,4.163849354E-1,4.853607416E-1
1.996903964E1,-2.378201038E-1,5.431513190E-1,4.427502155E-1
1.998913495E1,-4.316980839E-1,5.708481669E-1,3.564638495E-1
2.000923026E1,-4.210454524E-1,5.282375813E-1,2.350237966E-1
2.002932609E1,-1.824263930E-1,3.290333152E-1,1.593900770E-1
2.004942193E1,8.921582997E-2,2.649843320E-2,1.668469161E-1
2.006951776E1,1.371526867E-1,-2.653838098E-1,1.636511236E-1
2.008961323E1,-3.542001545E-2,-4.656533599E-1,3.155843541E-2
2.010970854E1,-8.548741043E-2,-6.627271175E-1,-2.571280003E-1
2.012980385E1,-2.050632425E-2,-5.402218103E-1,-4.009386003E-1
2.014989917E1,-1.749695539E-1,-1.940111369E-1,-3.689807057E-1
2.016999448E1,-3.784348965E-1,1.691105962E-2,-2.432795912E-1
2.019008979E1,-1.078579426E-1,-8.535424620E-2,-1.506016403E-1
2.021018510E1,4.961465299E-1,-4.645881057E-1,-2.006690353E-1
2.023028042E1,5.589970946E-1,-3.921501637E-1,-2.858901322E-1
2.025037573E1,1.840242893E-1,6.271740049E-2,-3.231743574E-1
2.027047104E1,-3.294327855E-1,4.036017656E-1,-2.912164330E-1
2.029056688E1,-4.743086398E-1,4.419512451E-1,-1.548627019E-1
2.031066271E1,-3.219759464E-1,1.990711391E-1,-8.921583183E-3
2.033075854E1,-6.844318658E-2,-1.897500902E-1,5.819002539E-2
2.035085401E1,9.560741484E-2,-5.359607935E-1,2.729738131E-2
2.037094932E1,2.362222075E-1,-7.394261360E-1,-2.809632942E-2
2.039104464E1,2.820285559E-1,-6.701840162E-1,-1.165132076E-1
2.041113995E1,1.882853508E-1,-3.154512048E-1,-2.123869359E-1
2.043123526E1,-7.696529478E-2,1.841574460E-1,-2.262353599E-1
2.045133057E1,-4.647212625E-1,6.230461001E-1,-1.793637723E-1
2.047142589E1,-7.438203096E-1,9.607346654E-1,-4.620581120E-2
2.049152120E1,-7.289066315E-1,1.015063047E0,5.712476373E-2
2.051161651E1,-5.105276108E-1,7.796398401E-1,7.097318769E-2
2.053171182E1,-3.592601717E-1,5.122586489E-1,2.729738131E-2
2.055180760E1,-3.667170107E-1,4.728438854E-1,-1.464737463E-3
2.057190344E1,-2.953443527E-1,6.294376254E-1,-6.791055668E-3
2.059199927E1,-1.731053367E-2,7.018755674E-1,-8.349003643E-2
2.061209479E1,2.809632719E-1,4.281028211E-1,-1.772332340E-1
2.063219010E1,1.254348010E-1,5.101281404E-1,-1.744369231E-2
2.065228542E1,-2.772348523E-1,6.145239472E-1,1.700427085E-1
2.067238073E1,-2.143843025E-1,3.322291076E-1,3.713775277E-1
2.069247604E1,3.832286000E-1,-1.673795432E-1,3.820301592E-1
2.071257135E1,8.753803968E-1,-4.912196994E-1,1.668469161E-1
2.073266667E1,9.446225166E-1,-2.067943066E-1,-4.194475710E-2
2.075276198E1,4.791023135E-1,2.651174963E-1,-1.143826842E-1
2.077285729E1,-9.720530361E-2,3.237069845E-1,6.351634115E-2
2.079295260E1,-3.486075401E-1,1.904158667E-2,3.394196332E-1
2.081304844E1,-3.656517565E-1,-2.547311783E-1,5.034702420E-1
2.083314427E1,-3.187801540E-1,-3.143859208E-1,4.906870723E-1
2.085324010E1,-2.442116886E-1,-2.078595608E-1,4.054659605E-1
2.087333557E1,-1.131842583E-1,-8.109319210E-2,3.308975101E-1
2.089343089E1,7.856319100E-2,-2.356895804E-2,3.223754168E-1
2.091352620E1,8.708529919E-2,-3.209106624E-2,4.235754609E-1
2.093362151E1,-1.153147891E-1,-2.783001214E-2,5.418196917E-1
2.095371682E1,-3.560643792E-1,-8.655266836E-3,5.396891832E-1
2.097381214E1,-4.359591305E-1,4.354264960E-2,4.267712533E-1
2.099390745E1,-2.676474750E-1,1.191763729E-1,2.627206445E-1
2.101400276E1,6.045371294E-2,1.511342824E-1,1.295626909E-1
2.103409807E1,3.565970063E-1,6.697845459E-2,1.423458606E-1
2.105419359E1,4.194475710E-1,-1.471395344E-1,2.861564457E-1
2.107428943E1,2.234390527E-1,-4.230428338E-1,3.468764722E-1
2.109438526E1,1.997369342E-2,-6.669881940E-1,2.584595978E-1
2.111448109E1,1.009337306E-1,-7.628619075E-1,-4.087949172E-2
2.113457641E1,3.203780353E-1,-8.576703668E-1,-4.733765423E-1
2.115467172E1,3.225085735E-1,-5.466133952E-1,-6.757766008E-1
2.117476703E1,1.997369342E-2,-1.504684892E-2,-5.809681416E-1
2.119486234E1,1.019989923E-1,7.656582445E-2,-2.816290855E-1
2.121495766E1,6.910898089E-1,-2.334259003E-1,-1.410142779E-1
2.123505297E1,9.978857040E-1,-5.721797347E-1,-2.805638015E-1
2.125514828E1,6.751108170E-1,-4.986765385E-1,-4.563323259E-1
2.127524359E1,-9.853689000E-3,-6.724476814E-2,-5.245091915E-1
2.129533901E1,-5.360939503E-1,3.886880577E-1,-4.286354482E-1
2.131543484E1,-4.892223179E-1,4.930838943E-1,-2.858901322E-1
2.133553068E1,-2.271674722E-1,3.247722387E-1,-1.985385120E-1
2.135562651E1,-7.590003312E-2,7.976161689E-2,-1.857553422E-1
2.137572193E1,-1.430116445E-1,-7.257108390E-2,-2.102564126E-1
2.139581724E1,-1.941442937E-1,-1.620532274E-1,-2.134522051E-1
2.141591255E1,-1.739042848E-1,-1.418132186E-1,-2.059953511E-1
2.143600786E1,-1.973400861E-1,-1.291632187E-2,-2.177132517E-1
2.145610318E1,-2.687127590E-1,2.352901101E-1,-2.198437899E-1
2.147619849E1,-3.017359376E-1,4.813660085E-1,-2.091911435E-1
2.149629380E1,-3.070622385E-1,6.379597783E-1,-1.772332340E-1
2.151638912E1,-3.347590864E-1,6.539387107E-1,-1.324921697E-1
2.153648469E1,-2.793653905E-1,4.888228476E-1,-5.685844645E-2
2.155658052E1,-1.099884734E-1,2.086585164E-1,9.187898599E-3
2.157667635E1,1.864211401E-3,1.969406158E-1,1.984053478E-2
2.159677219E1,-2.796317078E-2,4.323638678E-1,-8.349003643E-2
2.161686750E1,-4.394212365E-2,5.985450149E-1,-2.241048366E-1
2.163696281E1,-5.992107838E-2,5.452818274E-1,-2.901511788E-1
2.165705813E1,-2.580601275E-1,6.294376254E-1,-1.378184855E-1
2.167715344E1,-5.435507894E-1,5.569997430E-1,1.295626909E-1
2.169724875E1,-4.849612713E-1,1.916143000E-1,3.202448785E-1
2.171734406E1,3.701791167E-2,-3.964112401E-1,2.520680130E-1
2.173743938E1,5.142560005E-1,-4.571312666E-1,8.801741153E-2
2.175753474E1,5.440834165E-1,8.721846342E-2,-6.325002760E-2
2.177763141E1,2.245043069E-1,4.621912539E-1,-6.431528926E-2
2.179772672E1,-1.046621501E-1,3.162501454E-1,1.039963663E-1
2.181782203E1,-2.229064107E-1,-7.470161468E-2,2.861564457E-1
2.183791734E1,-2.324937880E-1,-2.707101107E-1,3.202448785E-1
2.185801266E1,-1.302284747E-1,-2.675143182E-1,2.265016884E-1
2.187810797E1,3.275685757E-2,-1.482048035E-1,1.221058443E-1
2.189820328E1,2.170474678E-1,-8.655266836E-3,9.547425061E-2
2.191829859E1,2.458095849E-1,9.680583328E-2,1.284974217E-1
2.193839422E1,1.083905771E-1,1.532648057E-1,1.966743022E-1
2.195849005E1,-7.270424068E-2,2.012016773E-1,2.552638054E-1
2.197858589E1,-1.632516533E-1,1.862879843E-1,2.861564457E-1
2.199868172E1,-9.614004195E-2,2.862896025E-2,2.339585274E-1
2.201877708E1,1.051947847E-1,-1.535311192E-1,1.380847991E-1
2.203887240E1,3.012032807E-1,-2.909501195E-1,3.688475490E-2
2.205896771E1,3.320959508E-1,-3.047985733E-1,4.221107066E-2
2.207906302E1,1.499358565E-1,-2.334259003E-1,1.529984921E-1
2.209915833E1,-1.483379602E-1,-2.163816839E-1,2.765690684E-1
2.211925365E1,-2.527337968E-1,-4.177165031E-1,3.138532937E-1
2.213934896E1,-6.205160543E-2,-7.649924755E-1,1.551290154E-1
2.215944453E1,4.554001987E-2,-6.904240251E-1,1.344895363E-2
2.217954036E1,-1.099884734E-1,-4.198470414E-1,1.664474420E-2
2.219963620E1,-6.524740160E-2,-2.270343155E-1,9.014793485E-2
2.221973203E1,4.258391261E-1,-4.326302111E-1,2.623211779E-2
2.223982745E1,8.050730228E-1,-7.415566444E-1,-1.665806025E-1
2.225992276E1,6.974813938E-1,-5.530049801E-1,-3.348922431E-1
2.228001807E1,1.914811432E-1,-8.655266836E-3,-4.371575713E-1
2.230011339E1,-2.729738057E-1,5.069323182E-1,-3.977428079E-1
2.232020870E1,-3.432812095E-1,7.157239914E-1,-2.816290855E-1
2.234030401E1,-2.005358785E-1,5.548691750E-1,-1.932121962E-1
2.236039932E1,6.684529036E-2,2.203764170E-1,-1.889511347E-1
2.238049505E1,2.159821987E-1,-9.068056941E-2,-2.912164330E-1
2.240059089E1,2.788327634E-1,-3.047985733E-1,-3.732417524E-1
2.242068672E1,2.777675092E-1,-3.910849094E-1,-4.456796646E-1
2.244078255E1,2.085253596E-1,-3.154512048E-1,-4.978775978E-1
2.246087786E1,8.921582997E-2,-5.126581341E-2,-4.936165512E-1
2.248097318E1,-1.004010960E-1,2.459427416E-1,-4.222438633E-1
2.250106849E1,-2.122537792E-1,3.364901543E-1,-3.103911877E-1
2.252116380E1,-1.866874546E-1,2.161153555E-1,-1.814942956E-1
2.254125912E1,-1.195758432E-1,1.063932031E-1,-8.881635964E-2
2.256135443E1,-1.163800508E-1,1.756353378E-1,-5.153212696E-2
2.258144984E1,-1.898832470E-1,3.599259555E-1,-2.916159295E-2
2.260154568E1,-3.219759464E-1,4.877575934E-1,-2.916159295E-2
2.262164151E1,-3.848264813E-1,3.929491341E-1,-8.668582886E-2
2.264173734E1,-3.997401893E-1,3.769701719E-1,-1.218395308E-1
2.266183302E1,-6.820350289E-1,5.569997430E-1,-6.857634336E-2
2.268192833E1,-8.034750819E-1,4.792354703E-1,1.029310971E-1
2.270202365E1,-3.241064548E-1,1.584579609E-2,2.286322117E-1
2.272211896E1,4.524707198E-1,-4.070638716E-1,5.819002539E-2
2.274221427E1,8.988161683E-1,-3.186469972E-1,-1.633848101E-1
2.276231057E1,9.084035754E-1,7.869634777E-2,-1.964079887E-1
2.278240589E1,6.122602820E-1,3.588607013E-1,9.187898599E-3
2.280250120E1,5.589970946E-1,3.311638236E-1,3.042659163E-1
2.282259651E1,7.699192762E-1,1.607216448E-1,4.352933466E-1
2.284269182E1,9.851025343E-1,6.258423906E-3,3.170490861E-1
2.286278714E1,9.307740927E-1,-2.153164148E-1,1.284974217E-1
2.288288245E1,7.241129875E-1,-4.070638716E-1,1.557948068E-2
2.290297818E1,6.346307993E-1,-3.463438451E-1,6.138581783E-2
2.292307401E1,5.408875942E-1,-7.363634557E-2,2.030658871E-1
2.294316984E1,3.736412227E-1,3.311638236E-1,3.628554344E-1
2.296326568E1,2.202432603E-1,4.898881316E-1,5.002744198E-1
2.298336109E1,9.454214573E-2,1.745700836E-1,4.864259958E-1
2.300345641E1,-1.685779691E-1,-2.675143182E-1,3.862912357E-1
2.302355172E1,-3.145190775E-1,-7.074682117E-1,3.074617088E-1
2.304364703E1,-2.165148407E-1,-1.077114701E0,1.114532053E-1
2.306374234E1,1.541969180E-1,-1.116529465E0,-1.346226931E-1
2.308383766E1,3.874896467E-1,-6.552702785E-1,-3.870901763E-1
2.310393323E1,4.301002026E-1,-1.822932363E-1,-5.617933869E-1
2.312402906E1,5.451486707E-1,-2.110553533E-1,-6.619281769E-1
2.314412490E1,7.464835048E-1,-4.177165031E-1,-6.267744899E-1
2.316422073E1,7.283740044E-1,-5.498092175E-1,-5.479449630E-1
2.318431630E1,6.154560447E-1,-5.998765826E-1,-3.956122994E-1
2.320441162E1,6.719150543E-1,-6.893587112E-1,-2.134522051E-1
2.322450693E1,8.711193204E-1,-7.287734747E-1,-1.271658540E-1
2.324460224E1,1.009603620E0,-6.350302696E-1,-1.644500792E-1
2.326469755E1,6.655234694E-1,-5.061333776E-1,-2.624543309E-1
2.328479286E1,-6.098634377E-2,-4.241080880E-1,-2.699111700E-1
2.330488839E1,-2.910832763E-1,-1.279647946E-1,-1.165132076E-1
2.332498422E1,-7.723161485E-3,5.739107728E-2,1.664474420E-2
2.334508005E1,3.033338189E-1,-1.790974438E-1,-2.063948289E-2
2.336517589E1,3.310306668E-1,-5.263733864E-1,-1.697763950E-1
2.338527151E1,2.210422046E-2,-4.720449448E-1,-3.018690944E-1
2.340536682E1,-2.239716798E-1,-1.822932363E-1,-3.902859688E-1
2.342546214E1,2.103895694E-2,1.916143000E-1,-4.563323259E-1
2.344555745E1,3.374222517E-1,2.320943177E-1,-4.499407411E-1
2.346565276E1,3.075948656E-1,4.780370742E-2,-4.339617789E-1
2.348574807E1,1.669800729E-1,1.158474199E-2,-3.498059511E-1
2.350584354E1,2.585927546E-1,6.804371625E-2,-2.752375007E-1
2.352593938E1,4.514054656E-1,-2.263685223E-3,-1.793637723E-1
2.354603521E1,5.163865685E-1,-1.130511016E-1,-1.420795321E-1
2.356613104E1,3.768370152E-1,7.763108611E-2,-1.814942956E-1
2.358622677E1,1.925463974E-1,5.197154880E-1,-2.113216817E-1
2.360632208E1,2.636527456E-2,7.370292544E-1,-2.273006290E-1
2.362641740E1,-1.408811212E-1,6.155892015E-1,-1.644500792E-1
2.364651271E1,-5.563339591E-1,6.241113544E-1,4.926844500E-3
2.366660802E1,-1.188035250E0,7.412903309E-1,3.990744054E-1
2.368670333E1,-1.566203833E0,4.941491783E-1,8.880304098E-1
2.370679865E1,-1.404283762E0,-8.855003864E-2,1.161803126E0
2.372689448E1,-1.036767840E0,-5.189165473E-1,1.053146243E0
2.374699031E1,-8.279761672E-1,-3.559312224E-1,6.739124060E-1
2.376708615E1,-1.037833095E0,4.366249442E-1,2.627206445E-1
2.378718198E1,-8.663256764E-1,1.125850558E0,1.199753210E-1
2.380727734E1,-3.358243704E-1,1.206810594E0,2.446111590E-1
2.382737266E1,5.725792050E-2,6.741787195E-1,3.905522823E-1
2.384746797E1,1.137168929E-1,1.543300748E-1,4.448807240E-1
2.386756328E1,7.749792933E-2,-1.109205782E-1,5.599291921E-1
2.388765859E1,1.680453420E-1,4.460791498E-2,7.154576778E-1
2.390775391E1,3.342264593E-1,2.768353820E-1,8.432893157E-1
2.392784953E1,5.036033988E-1,2.608564198E-1,9.764472842E-1
2.394794537E1,6.378266215E-1,-9.068056941E-2,1.072321057E0
2.396804120E1,5.206475854E-1,-4.187817574E-1,9.892304540E-1
2.398813703E1,3.043990731E-1,-4.912196994E-1,8.038745522E-1
2.400823260E1,3.502054214E-1,-4.347607195E-1,5.375586748E-1
2.402832792E1,5.739107728E-1,-2.909501195E-1,2.733732760E-1
2.404842323E1,6.676539779E-1,-8.535424620E-2,4.647212476E-2
2.406851854E1,6.314350367E-1,5.952160433E-2,-9.946899116E-2
2.408861385E1,5.089297295E-1,3.715106845E-2,-2.049300969E-1
2.410870917E1,3.587275445E-1,-9.600688517E-2,-1.825595498E-1
2.412880458E1,1.488705873E-1,-4.061317816E-2,-8.668582886E-2
2.414890042E1,-1.781653464E-1,-4.167843983E-2,7.629951090E-2
2.416899625E1,-3.251717389E-1,-1.343563795E-1,2.339585274E-1
2.418909208E1,-9.081372619E-2,-4.464786351E-1,2.307627350E-1
2.420918781E1,2.234390527E-1,-8.022766709E-1,5.392897129E-2
2.422928313E1,2.340916842E-1,-6.669881940E-1,-1.932121962E-1
2.424937844E1,-6.631266326E-2,-1.822932363E-1,-3.412838280E-1
2.426947375E1,-2.122537792E-1,2.107890397E-1,-3.285006881E-1
2.428956906E1,-1.632516533E-1,1.298290044E-1,-2.763027549E-1
2.430966438E1,-9.853689000E-3,-3.058638275E-1,-3.018690944E-1
2.432975969E1,-3.435475379E-2,-6.137250066E-1,-3.806985915E-1
2.434985547E1,-1.376853287E-1,-6.446176767E-1,-4.456796646E-1
2.436995130E1,-3.009369783E-2,-4.166512489E-1,-4.446144104E-1
2.439004714E1,4.450138807E-1,-3.452785909E-1,-3.977428079E-1
2.441014297E1,9.265130758E-1,-5.647228956E-1,-3.178480268E-1
2.443023833E1,7.720498443E-1,-9.524788260E-1,-3.306311965E-1
2.445033365E1,2.031990439E-1,-1.253948450E0,-4.094607234E-1
2.447042896E1,1.478053331E-1,-1.084571600E0,-3.924165070E-1
2.449052427E1,6.186518669E-1,-7.159903049E-1,-2.592585385E-1
2.451061958E1,8.103992939E-1,-3.314301372E-1,-1.889511347E-1
2.453071490E1,6.079992056E-1,7.550056279E-2,-1.836248189E-1
2.455081047E1,2.479401082E-1,5.356944799E-1,-1.335574239E-1
2.457090630E1,-3.009369783E-2,7.625955939E-1,-8.668582886E-2
2.459100214E1,-9.614004195E-2,5.463470817E-1,-1.612542868E-1
2.461109797E1,-3.965443969E-1,7.423555851E-1,-1.378184855E-1
2.463119354E1,-8.290414214E-1,1.231311560E0,8.269108832E-2
2.465128885E1,-1.025049925E0,1.279248476E0,4.704470634E-1
2.467138417E1,-9.898962379E-1,6.922882199E-1,6.696513295E-1
2.469147948E1,-8.258456588E-1,3.439469934E-1,5.151881576E-1
2.471157479E1,-4.657865167E-1,6.752439737E-1,2.318280041E-1
2.473167010E1,-2.303632647E-1,1.132242084E0,4.008054361E-2
2.475176542E1,-1.824263930E-1,1.058738947E0,8.162582666E-2
2.477186125E1,-1.749695539E-1,4.355596602E-1,2.893522382E-1
2.479195708E1,-2.655169666E-1,-2.334259003E-1,4.981439114E-1
2.481205292E1,-3.688475490E-1,-5.743102431E-1,5.929523706E-1
2.483214870E1,-5.083971024E-1,-4.123901725E-1,6.206492186E-1
2.485224401E1,-5.286371112E-1,1.158474199E-2,6.472808123E-1
2.487233932E1,-2.111885101E-1,4.153196514E-1,7.452850938E-1
2.489243464E1,1.073253155E-1,5.133239031E-1,8.358324766E-1
2.491252995E1,1.723063886E-1,3.684480488E-1,7.825692892E-1
2.493262526E1,2.636527456E-2,1.276984811E-1,6.036050320E-1
2.495272057E1,-1.331579522E-3,-3.328948980E-3,4.874912798E-1
2.497281615E1,2.511359155E-1,-1.066595241E-1,4.022701681E-1
2.499291198E1,5.930855274E-1,-2.664490640E-1,2.499374747E-1
2.501300781E1,6.261087060E-1,-4.304996729E-1,4.008054361E-2
2.503310365E1,2.916159332E-1,-4.464786351E-1,-1.292963773E-1
2.505319917E1,-6.205160543E-2,-3.303648829E-1,-1.804290265E-1
2.507329448E1,-7.483477145E-2,-3.186469972E-1,-2.773680091E-1
2.509338979E1,8.815056831E-2,-4.230428338E-1,-4.094607234E-1
2.511348510E1,-3.115896136E-2,-4.091944098E-1,-4.158523083E-1
2.513358042E1,-1.483379602E-1,-3.580617309E-1,-2.763027549E-1
2.515367573E1,3.994738683E-3,-4.336954653E-1,-1.665806025E-1
2.517377104E1,3.310306668E-1,-6.637924314E-1,-2.390185297E-1
2.519386682E1,4.141212404E-1,-7.937545776E-1,-4.861596823E-1
2.521396266E1,2.106558830E-1,-4.731102288E-1,-6.352965832E-1
2.523405849E1,-1.731053367E-2,1.884185076E-1,-5.511407852E-1
2.525415516E1,-2.090579867E-1,7.530082464E-1,-3.508712053E-1
2.527424563E1,-4.253064990E-1,8.563387990E-1,-1.229047924E-1
2.529434526E1,-5.478118062E-1,6.592650414E-1,3.795001656E-2
2.531444057E1,-6.159886718E-1,5.069323182E-1,1.529984921E-1
2.533453589E1,-6.649908423E-1,4.419512451E-1,2.424806356E-1
2.535463120E1,-6.703171730E-1,4.312986135E-1,2.605901062E-1
2.537472651E1,-5.829655528E-1,4.440817833E-1,1.593900770E-1
2.539482182E1,-5.179844499E-1,3.950796425E-1,-1.637842879E-2
2.541491714E1,-5.563339591E-1,4.067975581E-1,-1.740374416E-1
2.543501271E1,-5.850960612E-1,4.771049619E-1,-2.763027549E-1
2.545510854E1,-5.787044764E-1,6.241113544E-1,-2.113216817E-1
2.547520438E1,-5.616602302E-1,7.945535183E-1,-6.538055837E-2
2.549530021E1,-6.127929091E-1,6.677871346E-1,4.860265180E-2
2.551539573E1,-6.926876903E-1,4.291680753E-1,8.269108832E-2
2.553549104E1,-6.564686894E-1,2.352901101E-1,-1.105211023E-2
2.555558635E1,-4.689823091E-1,2.619217038E-1,-1.740374416E-1
2.557568167E1,-2.580601275E-1,3.961449265E-1,-2.677806616E-1
2.559577698E1,-4.540686309E-1,9.362335801E-1,-7.390266657E-2
2.561587229E1,-1.079378366E0,1.185505271E0,1.615206003E-1
2.563596760E1,-1.360607982E0,6.592650414E-1,5.002744198E-1
2.565606333E1,-1.026115179E0,-1.268995255E-1,7.388935089E-1
2.567615917E1,-3.603254259E-1,-6.946850419E-1,6.664555669E-1
2.569625500E1,1.616537571E-1,-1.055809379E0,3.479417264E-1
2.571635083E1,1.968074590E-1,-9.514135718E-1,7.310371846E-2
2.573644615E1,-2.378201038E-1,-2.430132627E-1,-1.637842879E-2
2.575654146E1,-4.061317742E-1,6.890923977E-1,1.231711060E-1
2.577663677E1,2.743053809E-2,1.019324183E0,2.211753577E-1
2.579673208E1,5.036033988E-1,8.946883082E-1,1.508679688E-1
2.581682740E1,5.110602379E-1,4.664523304E-1,2.729738131E-2
2.583692271E1,1.723063886E-1,-1.504684892E-2,-6.751108170E-2
2.585701807E1,-1.078579426E-1,-3.016027808E-1,-3.342264518E-2
2.587711391E1,-1.483379602E-1,-2.344911546E-1,8.801741153E-2
2.589720974E1,-1.198421605E-2,-6.298371404E-2,1.625858694E-1
2.591730557E1,1.286305785E-1,7.337003201E-2,1.189100519E-1
2.593740125E1,1.755021811E-1,8.189214021E-2,-5.259739235E-2
2.595749656E1,1.680453420E-1,-2.783001214E-2,-1.772332340E-1
2.597759188E1,1.541969180E-1,-1.684448123E-1,-1.687111259E-1
2.599768719E1,1.371526867E-1,-2.344911546E-1,-4.301001877E-2
2.601778250E1,7.643266767E-2,-3.175817132E-1,4.327633604E-2
2.603787781E1,2.530001104E-2,-5.828323960E-1,-2.277000993E-2
2.605797312E1,6.364950538E-2,-7.788408995E-1,-1.857553422E-1
2.607806865E1,1.997369342E-2,-6.190513372E-1,-2.241048366E-1
2.609816448E1,-2.474074811E-1,-1.567269117E-1,-1.026647836E-1
2.611826031E1,-3.102580309E-1,2.012016773E-1,-6.325002760E-2
2.613835615E1,1.307611167E-1,-9.494162351E-2,-3.008038104E-1
2.615845167E1,5.749760270E-1,-3.548659384E-1,-6.107955575E-1
2.617854698E1,4.588623047E-1,-1.663142890E-1,-6.768419147E-1
2.619864229E1,2.743053809E-2,1.404816359E-1,-5.724460483E-1
2.621873760E1,-2.495380044E-1,3.226417303E-1,-4.190480709E-1
2.623883292E1,-2.484727502E-1,2.629869580E-1,-2.997385561E-1
2.625892823E1,-1.579253376E-1,-7.363634557E-2,-2.688459158E-1
2.627902354E1,-2.902843431E-2,-4.550007284E-1,-3.039996028E-1
2.629911917E1,-2.157158963E-2,-5.636576414E-1,-3.806985915E-1
2.631921500E1,-1.760348231E-1,-3.474090993E-1,-4.360923171E-1
2.633931083E1,-2.772348523E-1,3.075948730E-2,-4.158523083E-1
2.635940667E1,-3.123885691E-1,2.768353820E-1,-3.721764982E-1
2.637950208E1,-3.304980397E-1,3.407512009E-1,-3.732417524E-1
2.639959740E1,-3.368896246E-1,2.715090811E-1,-4.339617789E-1
2.641969271E1,-3.113232851E-1,2.502037883E-1,-4.446144104E-1
2.643978802E1,-1.802958697E-1,2.640522122E-1,-3.860249221E-1
2.645988333E1,4.234423116E-2,2.960101366E-1,-3.338269889E-1
2.647997865E1,1.755021811E-1,3.801659644E-1,-3.242396116E-1
2.650007396E1,7.323687524E-2,4.451470375E-1,-3.764375448E-1
2.652016969E1,-2.263685316E-2,3.237069845E-1,-4.137217700E-1
2.654026552E1,-1.518000662E-2,3.821633384E-2,-4.115912318E-1
2.656036135E1,-6.205160543E-2,5.419528857E-2,-2.486059070E-1
2.658045719E1,-2.527337968E-1,1.958753467E-1,-8.988162130E-2
2.660055250E1,-4.327633679E-1,2.129195631E-1,9.121319652E-2
2.662064781E1,-1.909485012E-1,-1.588574350E-1,1.945437789E-1
2.664074312E1,3.374222517E-1,-6.584661007E-1,1.966743022E-1
2.666083844E1,6.346307993E-1,-6.254429221E-1,1.316932142E-1
2.668093375E1,5.110602379E-1,-1.918806136E-1,3.475422785E-2
2.670102906E1,1.414137483E-1,8.934898674E-2,2.197106183E-2
2.672112438E1,-1.198421605E-2,-2.263685223E-3,2.073269337E-1
2.674122021E1,5.938844755E-2,-2.664490640E-1,3.916175365E-1
2.676131604E1,1.882853508E-1,-4.432828426E-1,4.406196773E-1
2.678141188E1,2.575274706E-1,-4.155859649E-1,4.129228294E-1
2.680150760E1,2.553969622E-1,-2.600574791E-1,4.118575454E-1
2.682160292E1,2.830938101E-1,-7.683213800E-2,4.416849315E-1
2.684169823E1,3.470096290E-1,1.021321490E-1,4.427502155E-1
2.686179354E1,4.801675975E-1,1.948100924E-1,4.161186218E-1
2.688188885E1,7.123950720E-1,1.265000552E-2,3.660512269E-1
2.690198417E1,8.562056422E-1,-1.588574350E-1,2.265016884E-1
2.692207948E1,8.849677444E-1,-1.375521719E-1,3.688475490E-2
2.694217484E1,7.720498443E-1,-2.781669796E-1,8.375635743E-2
2.696227068E1,8.082687855E-1,-3.005374968E-1,-5.792371184E-2
2.698236651E1,9.701888561E-1,1.000016257E-1,-3.061301410E-1
2.700246234E1,8.125298619E-1,1.820269227E-1,-7.709845901E-2
2.702255802E1,2.479401082E-1,-8.641951531E-2,1.199753210E-1
2.704265333E1,-1.962748319E-1,-2.259690464E-1,4.715123177E-1
2.706274865E1,-4.380896688E-1,5.633913279E-1,7.111966610E-1
2.708284396E1,-3.294327855E-1,2.044107676E0,4.842954874E-1
2.710293927E1,5.060002208E-3,2.535194397E0,6.025397182E-1
2.712303458E1,2.245043069E-1,1.774596095E0,1.668469161E-1
2.714312990E1,3.382211924E-2,3.386206925E-1,-4.946818054E-1
2.716322531E1,-4.881570637E-1,-3.974764943E-1,-8.291745782E-1
2.718332115E1,-9.419593811E-1,-1.055942550E-1,-5.607281327E-1
2.720341698E1,-1.296692133E0,-4.901544452E-1,-2.145174593E-1
2.722351281E1,-1.563008070E0,-4.123901725E-1,-2.539322078E-1
2.724360844E1,-1.573660731E0,-3.527354300E-1,-3.039996028E-1
2.726370375E1,-1.222123742E0,-5.860281587E-1,-2.656501234E-1
2.728379906E1,-6.926876903E-1,-1.017459989E0,-2.709764242E-1
2.730389438E1,-1.621863842E-1,-1.332777977E0,-2.763027549E-1
2.732398969E1,2.575274706E-1,-1.074984193E0,-2.038648278E-1
2.734408500E1,5.089297295E-1,-5.071986318E-1,-8.455529809E-2
2.736418031E1,6.218476295E-1,-1.727058738E-1,4.540686309E-2
2.738427573E1,5.163865685E-1,-3.953459561E-1,5.712476373E-2
2.740437156E1,3.779022694E-1,-5.966808200E-1,2.499374747E-1
2.742446740E1,3.363569975E-1,-7.095987201E-1,1.753690243E-1
2.744456323E1,2.575274706E-1,-8.874977827E-1,-3.874896467E-2
2.746465880E1,3.384875357E-1,-9.546093941E-1,-2.091911435E-1
2.748475412E1,4.833633900E-1,-1.015329361E0,-2.198437899E-1
2.750484943E1,5.142560005E-1,-1.540504336E0,-1.346226931E-1
2.752494474E1,4.002728164E-1,-1.578853846E0,-3.768370301E-2
2.754504005E1,1.233042628E-1,-1.488306522E0,3.053312004E-1
2.756513537E1,-2.378201038E-1,-1.062201023E0,3.937480748E-1
2.758523068E1,-4.561991692E-1,-9.748494029E-1,2.541985512E-1
2.760532615E1,-2.324937880E-1,-8.949546218E-1,1.082574204E-1
2.762542198E1,2.596580088E-1,-7.266429663E-1,-1.318263728E-2
2.764551781E1,6.974813938E-1,-7.831019163E-1,-1.772332340E-1
2.766561365E1,7.688540220E-1,-3.644533157E-1,-2.528669536E-1
2.768570917E1,3.320959508E-1,2.672480047E-1,-1.825595498E-1
2.770580448E1,-1.206411049E-1,2.587259114E-1,8.695214242E-2
2.772589979E1,-3.009369783E-2,-3.346259296E-1,4.022701681E-1
2.774599510E1,1.978727281E-1,-7.958850861E-1,5.940176249E-1
2.776609042E1,1.446095407E-1,-7.799061537E-1,6.217144728E-1
2.778618573E1,3.488738462E-2,-5.029376149E-1,4.960133731E-1
2.780628104E1,1.062600464E-1,-2.110553533E-1,3.351585865E-1
2.782637656E1,2.138516754E-1,-1.162468940E-1,2.520680130E-1
2.784647240E1,1.541969180E-1,-9.920267761E-2,3.042659163E-1
2.786656823E1,2.743053809E-2,-4.061317816E-2,4.651207328E-1
2.788666406E1,-5.246423557E-2,-6.085318699E-2,5.173186660E-1
2.790675953E1,-6.418213248E-2,-1.194426864E-1,4.012049139E-1
2.792685484E1,4.127896577E-2,-9.920267761E-2,2.499374747E-1
2.794695016E1,2.703106403E-1,-1.824264042E-2,1.253016293E-1
2.796704547E1,4.247738719E-1,-7.789740711E-2,1.082574204E-1
2.798714078E1,4.364917874E-1,-2.834932804E-1,2.169143111E-1
2.800723609E1,2.404832691E-1,-2.877543271E-1,3.149185777E-1
2.802733141E1,1.158474237E-1,-2.110553533E-1,4.608596861E-1
2.804742698E1,1.914811432E-1,-3.772364855E-1,5.279712677E-1
2.806752281E1,3.382211924E-2,-4.198470414E-1,3.767038584E-1
2.808761865E1,-2.122537792E-1,1.138500497E-1,2.137185186E-1
2.810771448E1,-1.067926809E-1,1.031974182E-1,2.595248520E-1
2.812780990E1,-3.006706536E-1,2.331595868E-1,2.573943138E-1
2.814790521E1,-2.910832763E-1,5.048018098E-1,-1.318263728E-2
2.816800052E1,-5.885581672E-2,5.900229216E-1,-4.360923171E-1
2.818809583E1,9.028109163E-2,9.703220129E-1,-7.311703563E-1
2.820819115E1,-4.926844314E-2,1.707484484E0,-8.036082387E-1
2.822828646E1,-2.261022031E-1,2.493649006E0,-5.745765567E-1
2.824838177E1,-4.103928208E-1,2.514954329E0,-5.223786831E-1
2.826847680E1,-5.584644675E-1,2.120806694E0,-6.086649895E-1
2.828857279E1,-6.820350289E-1,1.538107514E0,-7.087997794E-1
2.830866862E1,-7.480813861E-1,8.488819599E-1,-7.471492887E-1
2.832876446E1,-7.001445293E-1,4.004059732E-1,-6.715155840E-1
2.834885987E1,-6.181192398E-1,2.438122183E-1,-5.564671159E-1
2.836895519E1,-4.615254700E-1,3.258375227E-1,-4.488754570E-1
2.838905050E1,-1.962748319E-1,4.483428299E-1,-3.689807057E-1
2.840914581E1,1.041295230E-1,4.046670198E-1,-3.210438192E-1
2.842924112E1,2.245043069E-1,1.415469050E-1,-2.368880063E-1
2.844933644E1,1.169126853E-1,-7.896266878E-2,-5.579318479E-2
2.846943175E1,-1.153147891E-1,-2.781669796E-1,1.434111148E-1
2.848952737E1,-4.242412448E-1,-2.366216928E-1,1.615206003E-1
2.850962321E1,-5.137233734E-1,3.182475269E-2,-2.490053698E-2
2.852971904E1,-4.796349406E-1,4.206459820E-1,-5.685844645E-2
2.854981487E1,-6.202497482E-1,6.028060913E-1,2.296974659E-1
2.856991024E1,-8.748477697E-1,4.621912539E-1,4.331628382E-1
2.859000555E1,-9.046751261E-1,2.223737910E-2,1.455416381E-1
2.861010086E1,-1.053812027E0,-1.386174262E-1,-2.400837988E-1
2.863019618E1,-1.321193218E0,-5.446160212E-2,-8.135951310E-2
2.865029149E1,-1.553420663E0,9.361004084E-2,2.786996067E-1
2.867038680E1,-1.343563795E0,1.478053257E-2,5.577986836E-1
2.869048211E1,-6.873613596E-1,-4.763059914E-1,5.631250143E-1
2.871057763E1,7.323687524E-2,-2.142511457E-1,4.331628382E-1
2.873067347E1,1.328916401E-1,3.098585606E-1,6.302366257E-1
2.875076930E1,-2.708432674E-1,7.359640002E-1,8.582029939E-1
2.877086508E1,-7.523424625E-1,9.958883524E-1,1.216131568E0
2.879096039E1,-1.104944706E0,8.115977645E-1,1.158607364E0
2.881105571E1,-1.482048035E0,5.474123359E-1,5.066660047E-1
2.883115102E1,-1.743037581E0,3.673827946E-1,-1.569932252E-1
2.885124633E1,-1.606683850E0,2.747048736E-1,-5.873597264E-1
2.887134164E1,-1.133706808E0,4.673844203E-2,-7.471492887E-1
2.889143696E1,-5.957486629E-1,-3.868238628E-1,-6.416881680E-1
2.891153232E1,-1.739042848E-1,-8.661925197E-1,-4.808333814E-1
2.893162815E1,2.522011697E-1,-9.844367504E-1,-3.977428079E-1
2.895172399E1,7.901592851E-1,-3.942807019E-1,-3.412838280E-1
2.897181982E1,1.262071133E0,5.655218363E-1,-1.207742617E-1
2.899191550E1,1.585911274E0,1.077913642E0,2.403501123E-1
2.901201081E1,1.805355549E0,6.613955498E-1,3.926828206E-1
2.903210612E1,1.909751415E0,6.804371625E-2,4.715123177E-1
2.905220144E1,1.578454375E0,-1.460742801E-1,4.597944319E-1
2.907229675E1,1.024517298E0,-2.653838098E-1,2.733732760E-1
2.909239206E1,5.323655009E-1,-5.306344628E-1,-1.005342528E-1
2.911248737E1,1.659148186E-1,-4.379565120E-1,-4.243744016E-1
2.913258274E1,8.388951421E-2,-8.961530030E-2,-4.872249663E-1
2.915267857E1,7.536740601E-2,2.171806246E-1,-3.039996028E-1
2.917277440E1,3.062633052E-2,4.675175846E-1,-8.029424399E-2
2.919287024E1,2.340916842E-1,3.066627681E-1,-1.772332340E-1
2.921296592E1,7.368960977E-1,-3.612575233E-1,-3.221091032E-1
2.923306123E1,8.807067275E-1,-3.399522603E-1,-3.412838280E-1
2.925315654E1,6.048034430E-1,4.014712274E-1,-4.818986356E-1
2.927325185E1,3.001380265E-1,6.688523889E-1,-4.776375890E-1
2.929334716E1,9.773793817E-2,5.857618451E-1,-4.201133549E-1
2.931344248E1,3.701791167E-2,1.511342824E-1,-3.466101587E-1
2.933353779E1,7.989477599E-4,-2.568616867E-1,-2.390185297E-1
2.935363321E1,-3.328948840E-2,-6.424871087E-1,-2.134522051E-1
2.937372904E1,7.190529723E-3,-9.855020046E-1,-2.496711612E-1
2.939382487E1,1.424790174E-1,-9.269125462E-1,-2.486059070E-1
2.941392071E1,2.277000993E-1,-3.740406930E-1,-2.155827284E-1
2.943401628E1,2.287653685E-1,2.629869580E-1,-1.857553422E-1
2.945411159E1,2.511359155E-1,5.729786754E-1,-1.516669095E-1
2.947420690E1,2.862896025E-1,7.274419069E-1,-1.069258377E-1
2.949430222E1,3.257043660E-1,5.996102691E-1,9.187898599E-3
2.951439753E1,2.245043069E-1,2.938795984E-1,9.014793485E-2
2.953449284E1,-8.229161799E-2,3.075948730E-2,-4.727107286E-2
2.955458815E1,-2.708432674E-1,8.402267098E-2,-8.988162130E-2
2.957468373E1,-3.123885691E-1,3.141196072E-1,-7.816372067E-2
2.959477956E1,-1.632516533E-1,1.713742912E-1,-1.378184855E-1
2.961487539E1,2.103895694E-2,-1.950764060E-1,-2.432795912E-1
2.963497123E1,-6.311687082E-2,-1.185105834E-2,-2.262353599E-1
2.965506664E1,-4.924181104E-1,3.269027770E-1,-1.211737376E-2
2.967516196E1,-7.736477256E-1,3.620564938E-1,2.510027587E-1
2.969525727E1,-4.934833944E-1,-3.037332892E-1,3.585943878E-1
2.971535258E1,8.815056831E-2,-1.141030550E0,1.284974217E-1
2.973544789E1,3.097254038E-1,-1.039830446E0,-2.170474641E-2
2.975554321E1,-6.737792492E-2,-2.185122073E-1,4.647212476E-2
2.977563852E1,-4.615254700E-1,2.427469492E-1,2.211753577E-1
2.979573425E1,-4.732433856E-1,1.617869139E-1,3.841606975E-1
2.981583008E1,-3.198454082E-1,-1.066595241E-1,3.969438672E-1
2.983592592E1,-2.261022031E-1,-2.888196111E-1,2.893522382E-1
2.985602170E1,-1.547295451E-1,-3.612575233E-1,1.689774394E-1
2.987611701E1,-5.566002429E-2,-3.292996287E-1,1.327584833E-1
2.989621232E1,5.725792050E-2,-2.238385230E-1,1.625858694E-1
2.991630763E1,1.456748098E-1,-1.141163707E-1,2.158490419E-1
2.993640295E1,1.765674502E-1,-1.930790395E-2,2.818953991E-1
2.995649826E1,1.776327193E-1,2.010685205E-2,2.403501123E-1
2.997659357E1,2.042642981E-1,9.321057005E-4,1.412805915E-1
2.999668888E1,2.522011697E-1,-2.263685223E-3,1.210405827E-1
3.001678472E1,3.299654126E-1,-1.641837656E-1,1.221058443E-1
3.003688055E1,3.949464858E-1,-3.314301372E-1,1.657816470E-1
3.005697638E1,3.374222517E-1,-4.358259737E-1,1.572595388E-1
3.007707206E1,1.914811432E-1,-5.082638860E-1,1.295626909E-1
3.009716737E1,1.350221634E-1,-6.936197877E-1,1.344895363E-2
3.011726269E1,2.021337748E-1,-8.917587996E-1,-2.592585385E-1
3.013735800E1,1.414137483E-1,-5.870934129E-1,-3.231743574E-1
3.015745331E1,-1.515337527E-1,5.952160433E-2,-4.407528415E-2
3.017754862E1,-2.058621943E-1,4.291680753E-1,1.743037701E-1
3.019764394E1,2.031990439E-1,9.574057162E-2,8.056056499E-2
3.021773930E1,5.877591968E-1,-3.367564678E-1,-2.869553864E-1
3.023783513E1,4.524707198E-1,-1.354216337E-1,-5.575323701E-1
3.025793097E1,4.873581231E-2,2.533995807E-1,-5.404881239E-1
3.027802680E1,-2.250369489E-1,3.993407190E-1,-3.881554306E-1
3.029812243E1,-3.390201628E-1,4.174501896E-1,-2.070606202E-1
3.031821774E1,-4.125233591E-1,2.896185517E-1,-1.335574239E-1
3.033831305E1,-4.157191217E-1,4.673844203E-2,-1.687111259E-1
3.035840836E1,-2.729738057E-1,-3.954791278E-2,-2.784332931E-1
3.037850368E1,-3.222422674E-2,-1.078579482E-2,-4.030691385E-1
3.039859899E1,1.712411344E-1,7.550056279E-2,-4.595280886E-1
3.041869430E1,2.522011697E-1,1.905490309E-1,-4.265049398E-1
3.043878966E1,1.904158741E-1,2.555301189E-1,-3.348922431E-1
3.045888550E1,3.595264629E-2,3.514038324E-1,-1.932121962E-1
3.047898133E1,-1.419463754E-1,3.876228034E-1,-4.301001877E-2
3.049907717E1,-2.229064107E-1,3.162501454E-1,8.269108832E-2
3.051917279E1,-1.366200596E-1,2.597911656E-1,9.014793485E-2
3.053926810E1,1.997369342E-2,2.906838059E-1,2.410159074E-2
3.055936342E1,4.340949282E-2,2.992059290E-1,-5.685844645E-2
3.057945873E1,-3.755054250E-2,1.223721579E-1,-1.474058628E-1
3.059955404E1,-4.926844314E-2,-1.268995255E-1,-2.912164330E-1
3.061964935E1,6.897582114E-2,-2.035985142E-1,-3.966775537E-1
3.063974467E1,-5.459476262E-2,4.419512451E-1,-2.390185297E-1
3.065983998E1,-2.697780132E-1,8.275766969E-1,4.327633604E-2
3.067993576E1,-5.246423557E-2,4.888228476E-1,2.296974659E-1
3.070003159E1,5.291697383E-1,-2.057290375E-1,2.850911915E-1
3.072012742E1,8.977509141E-1,-5.327649713E-1,1.274321675E-1
3.074022310E1,7.379614115E-1,-2.206427306E-1,-1.318263728E-2
3.076031862E1,9.454214573E-2,2.768353820E-1,-1.424790081E-2
3.078041394E1,-4.530033767E-1,3.780354261E-1,1.274321675E-1
3.080050925E1,-6.426202655E-1,2.715090811E-1,4.097270370E-1
3.082060456E1,-6.511424184E-1,1.287637353E-1,5.290365815E-1
3.084069987E1,-5.605949759E-1,-9.600688517E-2,4.331628382E-1
3.086079518E1,-4.285022914E-1,-2.067943066E-1,2.765690684E-1
3.088089050E1,-2.644517124E-1,-2.099900991E-1,2.083922029E-1
3.090098581E1,-5.779055133E-2,-1.396826953E-1,2.243711501E-1
3.092108149E1,9.241162241E-2,-1.930790395E-2,2.744385600E-1
3.094117732E1,9.347688407E-2,1.426121742E-1,2.733732760E-1
3.096127315E1,8.069372177E-2,2.416816950E-1,2.190448344E-1
3.098136894E1,1.265000552E-1,2.683132887E-1,1.785648167E-1
3.100146425E1,1.808284968E-1,2.821617126E-1,1.572595388E-1
3.102155956E1,3.107906580E-1,6.804371625E-2,2.147837877E-1
3.104165487E1,3.704454303E-1,-2.398174703E-1,2.744385600E-1
3.106175018E1,3.257043660E-1,-5.125249624E-1,2.648511827E-1
3.108184550E1,2.170474678E-1,-6.456829309E-1,1.359542757E-1
3.110194081E1,2.127864063E-1,-7.586008906E-1,-1.420795321E-1
3.112203612E1,2.937464416E-1,-6.882934570E-1,-4.318312407E-1
3.114213175E1,1.797632426E-1,-1.897500902E-1,-4.073301852E-1
3.116222758E1,3.808317333E-2,9.787109494E-2,-1.399490088E-1
3.118232342E1,2.426137924E-1,-1.331579551E-4,5.179844424E-2
3.120241925E1,6.218476295E-1,-3.729754388E-1,-5.046686530E-2
3.122251456E1,7.198519111E-1,-4.795017838E-1,-3.348922431E-1
3.124260987E1,3.597927988E-1,-1.545963883E-1,-5.000081062E-1
3.126270518E1,-2.676474750E-1,2.725743353E-1,-4.371575713E-1
3.128280050E1,-5.723128915E-1,4.653870463E-1,-2.241048366E-1
3.130289581E1,-4.540686309E-1,3.418164849E-1,6.032055244E-2
3.132299112E1,-2.335590571E-1,4.247738793E-2,8.695214242E-2
3.134308644E1,-8.229161799E-2,-2.557964325E-1,-9.520793706E-2
3.136318196E1,-4.820318148E-2,-4.965460002E-1,-3.199785650E-1
3.138327779E1,-2.583264373E-2,-5.860281587E-1,-4.989428520E-1
3.140337362E1,4.660528526E-2,-4.336954653E-1,-5.085302591E-1
3.142346946E1,5.193160102E-2,-1.055942550E-1,-3.913512230E-1
3.144356487E1,-9.853689000E-3,2.182458937E-1,-2.400837988E-1
3.146366019E1,-8.229161799E-2,4.611259997E-1,-1.058605760E-1
3.148375550E1,-9.187898785E-2,5.175849795E-1,-1.531316526E-2
3.150385081E1,-2.796317078E-2,3.066627681E-1,-6.791055668E-3
3.152394612E1,1.520663798E-1,-8.215846121E-2,-7.709845901E-2
3.154404144E1,1.818937659E-1,-1.013332009E-1,-1.133174226E-1
3.156413675E1,3.914843872E-2,1.980058849E-1,-1.303616315E-1
3.158423211E1,-7.590003312E-2,4.547344148E-1,-2.198437899E-1
3.160432795E1,-3.222422674E-2,3.258375227E-1,-3.775027990E-1
3.162442378E1,-5.139897019E-2,4.014712274E-1,-3.348922431E-1
3.164451961E1,-2.889527678E-1,5.261070728E-1,-1.229047924E-1
3.166461519E1,-5.062665343E-1,5.953491926E-1,8.269108832E-2
3.168471050E1,-4.743086398E-1,6.496776342E-1,2.424806356E-1
3.170480581E1,-6.311687082E-2,2.640522122E-1,1.966743022E-1
3.172490112E1,4.354265034E-1,-1.268995255E-1,4.647212476E-2
3.174499644E1,4.514054656E-1,1.181111038E-1,-9.986846708E-3
3.176509175E1,-6.524740160E-2,3.897533417E-1,5.392897129E-2
3.178518706E1,-5.041360259E-1,9.787109494E-2,2.137185186E-1
3.180528237E1,-5.882918239E-1,-2.685796022E-1,3.106575012E-1
3.182537810E1,-4.753738940E-1,-4.613923132E-1,2.744385600E-1
3.184547394E1,-3.198454082E-1,-4.507396817E-1,1.668469161E-1
3.186556977E1,-1.270326823E-1,-3.793670237E-1,1.806953400E-1
3.188566550E1,2.743053809E-2,-3.133206666E-1,2.882869840E-1
3.190576081E1,7.110634446E-2,-2.802974880E-1,3.980091214E-1
3.192585612E1,-2.902843431E-2,-2.312953621E-1,4.874912798E-1
3.194595144E1,-1.813611388E-1,-1.098553166E-1,5.588639379E-1
3.196604675E1,-2.058621943E-1,-7.044056058E-2,5.482112765E-1
3.198614206E1,-1.004010960E-1,3.062632866E-3,4.970786572E-1
3.200623737E1,1.201084778E-1,-6.524739787E-3,3.862912357E-1
3.202633268E1,3.395527899E-1,-1.450090110E-1,2.659164369E-1
3.204642815E1,4.663191736E-1,-4.230428338E-1,1.402153224E-1
3.206652399E1,4.332959950E-1,-5.892239809E-1,5.819002539E-2
3.208661982E1,2.703106403E-1,-5.807018280E-1,1.451421715E-2
3.210671565E1,1.733716577E-1,-4.699144363E-1,-7.709845901E-2
3.212681112E1,2.394180000E-1,-4.198470414E-1,-3.316964805E-1
3.214690644E1,2.905506492E-1,-1.375521719E-1,-4.488754570E-1
3.216700175E1,1.563274413E-1,1.181111038E-1,-1.378184855E-1
3.218709706E1,-2.037316710E-1,3.908185959E-1,3.138532937E-1
3.220719237E1,-4.093275666E-1,3.716438413E-1,4.960133731E-1
3.222728768E1,-1.004010960E-1,-1.695100814E-1,2.041311413E-1
3.224738300E1,2.969422340E-1,-4.219775498E-1,-2.475406379E-1
3.226747831E1,2.234390527E-1,-8.322372288E-2,-4.744417965E-1
3.228757404E1,-1.504684836E-1,2.736395895E-1,-3.838943839E-1
3.230766987E1,-4.135886133E-1,4.376901984E-1,-1.548627019E-1
3.232776571E1,-4.679170549E-1,4.451470375E-1,7.949529588E-2
3.234786144E1,-4.679170549E-1,2.661827505E-1,1.902827173E-1
3.236795675E1,-4.583296776E-1,5.206476152E-2,1.561942846E-1
3.238805206E1,-3.400854170E-1,-6.404897571E-2,2.796316985E-3
3.240814737E1,-1.004010960E-1,-2.889527567E-2,-1.814942956E-1
3.242824268E1,5.406212807E-2,1.426121742E-1,-2.731069624E-1
3.244833800E1,-1.331579522E-3,3.269027770E-1,-2.187785208E-1
3.246843331E1,-1.153147891E-1,3.972101808E-1,-5.898897350E-2
3.248852862E1,-1.611211300E-1,3.332943618E-1,8.056056499E-2
3.250862404E1,-7.696529478E-2,1.447426975E-1,9.653951973E-2
3.252871987E1,8.815056831E-2,-2.996053919E-2,1.025316212E-2
3.254881571E1,2.394180000E-1,-1.620532274E-1,-8.562056720E-2
3.256891154E1,2.735064328E-1,-1.407479644E-1,-1.143826842E-1
3.258900701E1,1.648495495E-1,7.443529367E-2,-4.194475710E-2
3.260910232E1,4.127896577E-2,2.491385341E-1,2.197106183E-2
3.262919763E1,7.217161357E-2,1.745700836E-1,-7.709845901E-2
3.264929295E1,1.478053331E-1,6.484792382E-2,-3.285006881E-1
3.266938826E1,-6.418213248E-2,5.143891573E-1,-3.146522343E-1
3.268948357E1,-4.828307331E-1,8.765788078E-1,-1.314269006E-1
3.270957888E1,-5.840308070E-1,8.978840709E-1,8.588688076E-2
3.272967420E1,-2.069274634E-1,5.282375813E-1,2.818953991E-1
3.274976987E1,4.162517786E-1,-2.185122073E-1,1.860216707E-1
3.276986571E1,6.644582152E-1,-5.093291998E-1,4.114580899E-2
3.278996154E1,2.351569533E-1,-2.930806577E-1,2.942790836E-2
3.281005732E1,-5.243760347E-1,-6.831002980E-2,1.338237375E-1
3.283015263E1,-1.018658400E0,5.193160381E-3,2.978743315E-1
3.285024795E1,-9.856351614E-1,3.289001435E-2,4.810996950E-1
3.287034326E1,-7.278413773E-1,-1.717737690E-2,5.546028614E-1
3.289043857E1,-5.126581192E-1,-7.896266878E-2,5.034702420E-1
3.291053388E1,-3.592601717E-1,-1.812279820E-1,4.342280924E-1
3.293062920E1,-1.984053552E-1,-2.643185556E-1,4.608596861E-1
3.295072451E1,-6.631266326E-2,-2.920154035E-1,5.929523706E-1
3.297081982E1,-1.462074369E-1,-2.866890728E-1,6.930871606E-1
3.299091565E1,-2.868222296E-1,-3.452785909E-1,6.866955757E-1
3.301101149E1,-2.250369489E-1,-4.347607195E-1,5.098618269E-1
3.303110732E1,7.217161357E-2,-3.772364855E-1,2.414153665E-1
3.305120289E1,3.406180441E-1,-1.652490199E-1,4.647212476E-2
3.307129821E1,5.004075766E-1,-7.150582224E-2,4.926844500E-3
3.309139352E1,6.229129434E-1,-2.579269707E-1,4.647212476E-2
3.311148883E1,5.739107728E-1,-4.486091435E-1,8.588688076E-2
3.313158414E1,3.949464858E-1,-5.689839721E-1,5.819002539E-2
3.315167946E1,2.234390527E-1,-6.030724049E-1,-1.744369231E-2
3.317177477E1,1.563274413E-1,-6.179860830E-1,-1.495363861E-1
3.319187008E1,3.808317333E-2,-4.273038805E-1,-1.719069183E-1
3.321196565E1,-2.261022031E-1,-2.302301079E-1,-6.431528926E-2
3.323206149E1,-4.583296776E-1,-4.487423226E-2,1.210405827E-1
3.325215732E1,-4.029359818E-1,2.649843320E-2,2.009353489E-1
3.327225092E1,3.808317333E-2,-2.110553533E-1,3.688475490E-2
3.329234789E1,6.506097913E-1,-5.508744717E-1,-2.539322078E-1
3.331244399E1,9.286435843E-1,-6.467481852E-1,-4.723112583E-1
3.333253930E1,5.643234253E-1,-2.089248300E-1,-4.733765423E-1
3.335263461E1,-8.442214131E-2,3.727091253E-1,-2.390185297E-1
3.337272992E1,-4.199801981E-1,9.181240797E-1,5.992108025E-3
3.339282524E1,-3.645864725E-1,1.133307338E0,1.583248079E-1
3.341292055E1,-1.866874546E-1,9.362335801E-1,8.801741153E-2
3.343301586E1,1.145158429E-2,4.515386224E-1,-1.069258377E-1
3.345311118E1,1.957421899E-1,-1.185105834E-2,-3.210438192E-1
3.347320690E1,3.800328076E-1,-2.909501195E-1,-4.552670419E-1
3.349330274E1,4.993423223E-1,-3.900196552E-1,-4.914860129E-1
3.351339857E1,4.482096732E-1,-3.111901283E-1,-4.414186180E-1
3.353349430E1,2.671148479E-1,-8.002793044E-2,-3.551322520E-1
3.355358961E1,9.347688407E-2,2.075932473E-1,-2.336922139E-1
3.357368492E1,3.701791167E-2,3.460775316E-1,-1.335574239E-1
3.359378024E1,4.021370411E-2,2.928143442E-1,-6.431528926E-2
3.361387555E1,1.784316637E-2,1.830921918E-1,2.197106183E-2
3.363397086E1,-1.355548054E-1,2.491385341E-1,1.284974217E-1
3.365406618E1,-3.400854170E-1,3.993407190E-1,2.446111590E-1
3.367416149E1,-4.018706977E-1,3.737743795E-1,2.158490419E-1
3.369425690E1,-1.547295451E-1,8.721846342E-2,-3.342264518E-2
3.371435274E1,1.677790284E-2,-3.102580272E-2,-2.400837988E-1
3.373444857E1,-3.464770019E-1,2.917490900E-1,-9.414267540E-2
3.375454440E1,-9.259804487E-1,6.209155321E-1,1.071921512E-1
3.377463987E1,-7.832350731E-1,4.089280665E-1,1.913479865E-1
3.379473518E1,5.086633936E-2,-1.407479644E-1,9.121319652E-2
3.381483050E1,7.305045128E-1,-4.986765385E-1,-1.346226931E-1
3.383492581E1,6.836329699E-1,-3.633880615E-1,-2.219743133E-1
3.385502112E1,9.134636074E-2,1.021321490E-1,-1.793637723E-1
3.387511644E1,-4.157191217E-1,2.278332561E-1,-5.259739235E-2
3.389521175E1,-3.443464637E-1,7.656582445E-2,9.440898895E-2
3.391530706E1,3.701791167E-2,-9.707214683E-2,1.508679688E-1
3.393540289E1,2.436790615E-1,-2.206427306E-1,4.753739014E-2
3.395549873E1,2.191779912E-1,-2.813627720E-1,-3.235738352E-2
3.397559456E1,1.499358565E-1,-2.909501195E-1,-1.424790081E-2
3.399569018E1,1.467400640E-1,-2.270343155E-1,1.071921512E-1
3.401578550E1,1.488705873E-1,-8.961530030E-2,2.701774836E-1
3.403588081E1,1.659148186E-1,5.193160381E-3,4.097270370E-1
3.405597612E1,1.648495495E-1,5.193160381E-3,4.310323000E-1
3.407607144E1,1.488705873E-1,1.797632314E-2,3.330280483E-1
3.409616675E1,2.170474678E-1,5.313002318E-2,1.806953400E-1
3.411626206E1,2.522011697E-1,7.323687430E-3,1.039963663E-1
3.413635737E1,2.234390527E-1,-1.727058738E-1,1.061268896E-1
3.415645300E1,1.627190262E-1,-2.888196111E-1,9.547425061E-2
3.417654883E1,1.126516312E-1,-2.824280262E-1,9.187898599E-3
3.419664466E1,7.430213690E-2,-1.737711281E-1,-9.627319872E-2
3.421674050E1,1.456748098E-1,-2.419480085E-1,-2.656501234E-1
3.423683581E1,2.372874767E-1,-3.346259296E-1,-3.583280444E-1
3.425693112E1,5.512739345E-2,-1.812279820E-1,-2.454101145E-1
3.427702644E1,-1.962748319E-1,-6.511423737E-2,-8.881635964E-2
3.429712175E1,-1.624527015E-2,-1.737711281E-1,-6.538055837E-2
3.431721706E1,4.482096732E-1,-6.574008465E-1,-3.316964805E-1
3.433731237E1,5.888244510E-1,-6.968155503E-1,-5.937513113E-1
3.435740769E1,2.000032514E-1,-2.569948509E-2,-5.564671159E-1
3.437750321E1,-3.848264813E-1,5.165197253E-1,-2.624543309E-1
3.439759904E1,-5.605949759E-1,6.848313808E-1,8.801741153E-2
3.441769487E1,-3.901528120E-1,5.516734123E-1,3.138532937E-1
3.443779071E1,-1.888179779E-1,1.202416345E-1,2.637858987E-1
3.445788612E1,-4.500738904E-2,-3.484743834E-1,6.032055244E-2
3.447798144E1,3.701791167E-2,-6.446176767E-1,-1.346226931E-1
3.449807675E1,2.956106514E-2,-5.807018280E-1,-2.390185297E-1
3.451817206E1,-3.328948840E-2,-1.684448123E-1,-2.038648278E-1
3.453826737E1,-1.837579720E-2,2.747048736E-1,-9.094688296E-2
3.455836268E1,1.169126853E-1,4.600607455E-1,-5.725792143E-3
3.457845800E1,2.681801319E-1,4.163849354E-1,-1.744369231E-2
3.459855342E1,3.512706757E-1,2.906838059E-1,-2.596580051E-2
3.461864925E1,3.225085735E-1,9.467530251E-2,2.796316985E-3
3.463874508E1,2.319611609E-1,-7.683213800E-2,2.623211779E-2
3.465884092E1,1.243695319E-1,-1.930790395E-2,-3.448791057E-2
3.467893644E1,1.403484792E-1,2.203764170E-1,-1.388837546E-1
3.469903175E1,2.777675092E-1,3.002711833E-1,-2.997385561E-1
3.471912706E1,2.980075181E-1,3.258375227E-1,-5.458144546E-1
3.473922237E1,-9.081372619E-2,7.562040091E-1,-4.371575713E-1
3.475931768E1,-4.285022914E-1,9.341030717E-1,-1.964079887E-1
3.477941300E1,-3.294327855E-1,7.221155763E-1,-2.170474641E-2
3.479950831E1,1.286305785E-1,1.585911214E-1,4.860265180E-2
3.481960362E1,6.079992056E-1,-4.177165031E-1,-1.346226931E-1
3.483969946E1,5.803023577E-1,-3.996070325E-1,-2.304964215E-1
3.485979529E1,9.560741484E-2,1.340900660E-1,-8.881635964E-2
3.487989112E1,-4.359591305E-1,2.715090811E-1,1.412805915E-1
3.489998675E1,-5.435507894E-1,4.886896908E-2,3.756386042E-1
3.492008206E1,-4.125233591E-1,-2.089248300E-1,4.938828647E-1
3.494017737E1,-3.688475490E-1,-3.506048918E-1,4.416849315E-1
3.496027268E1,-3.709780574E-1,-2.749711871E-1,3.245059252E-1
3.498036800E1,-2.548643351E-1,-5.552686751E-2,2.446111590E-1
3.500046331E1,5.060002208E-3,1.500690132E-1,2.424806356E-1
3.502055862E1,1.850895584E-1,2.981406748E-1,3.191796243E-1
3.504065394E1,1.073253155E-1,3.215764761E-1,3.969438672E-1
3.506074966E1,-2.050632425E-2,2.171806246E-1,4.416849315E-1
3.508084550E1,-5.779055133E-2,5.952160433E-2,4.097270370E-1
3.510094133E1,-2.902843431E-2,2.862896025E-2,3.330280483E-1
3.512103706E1,6.684529036E-2,7.123950869E-2,2.808301151E-1
3.514113237E1,2.234390527E-1,-6.298371404E-2,2.265016884E-1
3.516122768E1,3.757717609E-1,-2.494048476E-1,1.774995476E-1
3.518132300E1,3.480748832E-1,-3.676491082E-1,5.286370963E-2
3.520141831E1,1.510011256E-1,-4.155859649E-1,-8.349003643E-2
3.522151362E1,3.488738462E-2,-4.805670679E-1,-2.294311523E-1
3.524160894E1,6.125265732E-3,-2.685796022E-1,-2.411490530E-1
3.526170425E1,-6.950845569E-2,1.010668874E-1,-3.235738352E-2
3.528179987E1,-1.589905918E-1,2.917490900E-1,1.402153224E-1
3.530189571E1,1.038632076E-2,-1.198421582E-3,9.440898895E-2
3.532199154E1,4.119907022E-1,-6.957502961E-1,-2.283658981E-1
3.534208737E1,4.226433635E-1,-8.044071794E-1,-4.797681272E-1
3.536218268E1,-6.950845569E-2,-2.217079997E-1,-4.211786091E-1
3.538227800E1,-5.083971024E-1,2.576606572E-1,-3.050648868E-1
3.540237331E1,-4.924181104E-1,5.516734123E-1,-1.537974328E-1
3.542246862E1,-2.932138145E-1,5.676523447E-1,-2.063948289E-2
3.544256394E1,-1.792306006E-1,3.375554085E-1,3.901528195E-2
3.546265925E1,-1.227716357E-1,-1.930790395E-2,1.451421715E-2
3.548275456E1,-2.050632425E-2,-3.292996287E-1,-8.029424399E-2
3.550285013E1,1.201084778E-1,-4.091944098E-1,-1.676458716E-1
3.552294597E1,1.531316489E-1,-2.366216928E-1,-1.537974328E-1
3.554304180E1,9.241162241E-2,-2.250369452E-2,-2.277000993E-2
3.556313763E1,8.282424510E-2,1.202416345E-1,1.157142594E-1
3.558323300E1,8.921582997E-2,1.980058849E-1,1.700427085E-1
3.560332831E1,4.021370411E-2,2.374206334E-1,7.416898012E-2
3.562342362E1,6.471476704E-2,2.704437971E-1,-9.946899116E-2
3.564351894E1,1.936116666E-1,2.938795984E-1,-2.241048366E-1
3.566361425E1,2.564622164E-1,3.908185959E-1,-2.603237927E-1
3.568370956E1,1.275653243E-1,5.079975724E-1,-2.304964215E-1
3.570380487E1,-8.335687965E-2,5.367597342E-1,-2.102564126E-1
3.572390034E1,-1.249021590E-1,3.450122476E-1,-3.125217259E-1
3.574399618E1,-1.973400861E-1,4.163849354E-1,-2.848248780E-1
3.576409201E1,-3.954791129E-1,5.665870905E-1,-1.633848101E-1
3.578418784E1,-4.796349406E-1,4.994754791E-1,-3.129211813E-2
3.580428331E1,-1.834916621E-1,1.149153188E-1,6.138581783E-2
3.582437862E1,3.246390820E-1,-4.954807460E-1,-2.596580051E-2
3.584447394E1,5.664539337E-1,-6.563355327E-1,-1.229047924E-1
3.586456925E1,3.459443748E-1,-1.801627129E-1,-1.282311082E-1
3.588466456E1,-2.996053994E-1,3.471427858E-1,-3.555317223E-2
3.590475987E1,-7.534077168E-1,4.920186400E-1,2.328932583E-1
3.592485519E1,-7.906919122E-1,4.153196514E-1,4.938828647E-1
3.594495055E1,-6.681866050E-1,1.735048145E-1,4.917523265E-1
3.596504638E1,-4.796349406E-1,-7.363634557E-2,3.394196332E-1
3.598514222E1,-2.527337968E-1,-2.078595608E-1,2.179795653E-1
3.600523805E1,-6.205160543E-2,-2.472743243E-1,2.456764281E-1
3.602533362E1,8.255792782E-3,-2.312953621E-1,3.436806798E-1
3.604542894E1,-2.796317078E-2,-1.631184965E-1,4.502070546E-1
3.606552425E1,-7.057371736E-2,-2.143843099E-2,5.279712677E-1
3.608561956E1,-4.394212365E-2,1.862879843E-1,5.077312589E-1
3.610571487E1,1.179779470E-1,2.533995807E-1,4.012049139E-1
3.612581018E1,5.153213143E-1,2.576606572E-1,2.946785688E-1
3.614590550E1,9.265130758E-1,1.031974182E-1,2.243711501E-1
3.616600081E1,9.424920082E-1,-1.290300637E-1,2.190448344E-1
3.618609664E1,6.207823753E-1,-4.411523044E-1,2.627206445E-1
3.620619248E1,2.798980176E-1,-6.467481852E-1,2.552638054E-1
3.622628831E1,3.488738462E-2,-6.222470999E-1,1.210405827E-1
3.624638394E1,-2.250369489E-1,-2.376869470E-1,-8.775109053E-2
3.626647925E1,-3.198454082E-1,2.862896025E-2,-1.719069183E-1
3.628657456E1,-2.250369489E-1,3.289001435E-2,-6.644582003E-2
3.630666987E1,-1.824263930E-1,-4.913528636E-2,1.731053460E-3
3.632676518E1,-4.181159660E-2,-3.985417485E-1,-1.058605760E-1
3.634686050E1,2.415485233E-1,-7.905587554E-1,-3.583280444E-1
3.636695581E1,2.479401082E-1,-6.574008465E-1,-4.818986356E-1
3.638705112E1,-1.643169224E-1,-7.044056058E-2,-4.893554747E-1
3.640714696E1,-4.583296776E-1,3.727091253E-1,-4.627238810E-1
3.642724279E1,-3.890875578E-1,5.420860648E-1,-2.805638015E-1
3.644733862E1,-2.090579867E-1,3.290333152E-1,-7.816372067E-2
3.646743430E1,-8.122635633E-2,-1.141163707E-1,-7.856319658E-3
3.648752961E1,-4.527370445E-3,-4.550007284E-1,-1.037300453E-1
3.650762492E1,7.962846011E-2,-5.498092175E-1,-2.677806616E-1
3.652772024E1,6.045371294E-2,-4.784365296E-1,-4.531365335E-1
3.654781555E1,-2.263685316E-2,-2.760364413E-1,-5.617933869E-1
3.656791086E1,-3.861580789E-2,5.193160381E-3,-5.181176066E-1
3.658800618E1,-6.657897960E-3,2.193111479E-1,-3.956122994E-1
3.660810149E1,-5.592633970E-3,3.087933064E-1,-3.327617347E-1
3.662819727E1,-2.396843163E-3,1.745700836E-1,-3.572627902E-1
3.664829310E1,6.151897460E-2,-4.274370521E-2,-3.817638457E-1
3.666838894E1,4.127896577E-2,-1.034637317E-1,-3.316964805E-1
3.668848467E1,-1.344895363E-1,-1.993374527E-1,-2.709764242E-1
3.670857998E1,-2.484727502E-1,-2.526006401E-1,-2.400837988E-1
3.672867529E1,-1.344895363E-1,-2.557964325E-1,-2.997385561E-1
3.674877060E1,-5.885581672E-2,9.454214945E-3,-2.688459158E-1
3.676886592E1,-2.633864284E-1,2.906838059E-1,-1.165132076E-1
3.678896123E1,-5.552686453E-1,2.736395895E-1,2.303632535E-2
3.680905654E1,-4.008054435E-1,3.289001435E-2,1.945437789E-1
3.682915185E1,3.107906580E-1,-5.285038948E-1,1.338237375E-1
3.684924763E1,8.423572183E-1,-6.904240251E-1,4.926844500E-3
3.686934347E1,7.358308434E-1,-1.972069293E-1,-1.464737463E-3
3.688943930E1,-1.944106072E-2,3.471427858E-1,6.884266436E-2
3.690953503E1,-6.905571818E-1,3.854922652E-1,2.904174924E-1
3.692963034E1,-7.310371995E-1,1.777658761E-1,5.503418446E-1
3.694972565E1,-4.114580750E-1,-2.783001214E-2,5.631250143E-1
3.696982097E1,-1.557948142E-1,-9.281109273E-2,3.681817353E-1
3.698991628E1,-6.737792492E-2,1.265000552E-2,2.296974659E-1
3.701001159E1,-7.163897902E-2,1.308942735E-1,2.563290596E-1
3.703010690E1,-3.115896136E-2,1.926795542E-1,3.585943878E-1
3.705020222E1,6.045371294E-2,2.129195631E-1,4.470112622E-1
3.707029805E1,1.371526867E-1,1.649827063E-1,4.235754609E-1
3.709039388E1,2.522011697E-1,1.371526904E-2,2.850911915E-1
3.711048972E1,3.438138366E-1,-4.061317816E-2,1.785648167E-1
3.713058539E1,3.619233072E-1,-1.002679393E-1,1.636511236E-1
3.715068071E1,3.619233072E-1,-3.548659384E-1,1.956090331E-1
3.717077602E1,2.585927546E-1,-6.286386847E-1,2.328932583E-1
3.719087133E1,8.495477587E-2,-8.171903491E-1,1.711079776E-1
3.721096664E1,8.175898343E-2,-8.161250949E-1,4.327633604E-2
3.723106196E1,3.331612051E-1,-7.266429663E-1,-2.027995586E-1
3.725115727E1,5.387570858E-1,-2.962764502E-1,-4.669849575E-1
3.727125268E1,4.684496820E-1,5.526055023E-2,-5.053344369E-1
3.729134852E1,2.756369710E-1,2.267680019E-1,-3.370227814E-1
3.731144435E1,2.362222075E-1,2.896185517E-1,-1.850895584E-2
3.733154018E1,5.217128396E-1,-1.428784877E-1,1.344895363E-2
3.735163576E1,8.402267098E-1,-4.475438893E-1,-2.262353599E-1
3.737173107E1,6.910898089E-1,-2.547311783E-1,-4.222438633E-1
3.739182638E1,9.773793817E-2,2.022669315E-1,-4.893554747E-1
3.741192170E1,-5.062665343E-1,5.452818274E-1,-4.094607234E-1
3.743201701E1,-6.703171730E-1,8.094671965E-1,-1.101216301E-1
3.745211232E1,-4.583296776E-1,6.603302956E-1,1.444763839E-1
3.747220763E1,-1.089232042E-1,2.565953732E-1,1.348890066E-1
3.749230321E1,2.149169445E-1,-5.233107507E-2,-8.455529809E-2
3.751239904E1,2.862896025E-1,-1.641837656E-1,-3.519364893E-1
3.753249487E1,1.041295230E-1,-1.759016514E-1,-5.372923613E-1
3.755259071E1,-6.098634377E-2,-8.322372288E-2,-5.319660306E-1
3.757268618E1,-2.396843163E-3,1.245026886E-1,-3.924165070E-1
3.759278149E1,1.328916401E-1,3.428817391E-1,-2.422143221E-1
3.761287680E1,1.744369268E-1,5.367597342E-1,-1.271658540E-1
3.763297211E1,1.968074590E-1,5.527386665E-1,-9.201214463E-2
3.765306742E1,3.075948656E-1,4.004059732E-1,-1.197090000E-1
3.767316274E1,3.587275445E-1,2.320943177E-1,-1.356879622E-1
3.769325805E1,1.850895584E-1,1.788311303E-1,-1.271658540E-1
3.771335368E1,-1.099884734E-1,3.119890988E-1,-1.015995219E-1
3.773344951E1,-2.697780132E-1,2.810964286E-1,-1.527321786E-1
3.775354534E1,-2.463422120E-1,2.928143442E-1,-2.581932843E-1
3.777364118E1,-3.667170107E-1,4.675175846E-1,-2.123869359E-1
3.779373659E1,-6.351634264E-1,5.538039207E-1,-1.207742617E-1
3.781383190E1,-6.916224360E-1,4.685828388E-1,6.671213359E-2
3.783392722E1,-3.741738498E-1,1.894837767E-1,2.435459048E-1
3.785402253E1,2.500706315E-1,-3.495396376E-1,2.051964104E-1
3.787411784E1,5.728455186E-1,-4.720449448E-1,1.050616279E-1
3.789421315E1,2.788327634E-1,-1.631184965E-1,1.135837361E-1
3.791430847E1,-2.846917212E-1,-7.150582224E-2,1.881521940E-1
3.793440420E1,-5.595297217E-1,-1.514005959E-1,3.681817353E-1
3.795450003E1,-4.647212625E-1,-1.503353268E-1,5.215796828E-1
3.797459586E1,-3.102580309E-1,-1.577921808E-1,5.119923353E-1
3.799469170E1,-1.888179779E-1,-1.450090110E-1,4.182491302E-1
3.801478701E1,-1.837579720E-2,-1.173121557E-1,3.596596420E-1
3.803488232E1,1.403484792E-1,-8.748477697E-2,3.351585865E-1
3.805497763E1,1.957421899E-1,-3.528685868E-2,3.351585865E-1
3.807507295E1,1.147821546E-1,2.330264263E-2,3.490070105E-1
3.809516826E1,6.684529036E-2,9.254477918E-2,3.308975101E-1
3.811526357E1,1.392832249E-1,1.298290044E-1,2.946785688E-1
3.813535894E1,2.735064328E-1,1.926795542E-1,2.552638054E-1
3.815545477E1,4.439486265E-1,2.832269669E-1,3.032006621E-1
3.817555060E1,5.834981799E-1,1.884185076E-1,4.054659605E-1
3.819564644E1,6.388918757E-1,-3.328948980E-3,4.544681013E-1
3.821574211E1,5.504750013E-1,-2.536658943E-1,4.022701681E-1
3.823583742E1,3.171822429E-1,-3.207775056E-1,2.648511827E-1
3.825593274E1,8.388951421E-2,-3.378217220E-1,9.760478139E-2
3.827602805E1,-1.238368973E-1,-6.617950648E-2,-8.135951310E-2
3.829612336E1,-2.580601275E-1,2.842922211E-1,-1.761679798E-1
3.831621868E1,-2.282327414E-1,4.930838943E-1,-1.037300453E-1
3.833631399E1,-1.312937438E-1,5.335639119E-1,1.434111148E-1
3.835640956E1,3.701791167E-2,7.337003201E-2,2.051964104E-1
3.837650539E1,2.830938101E-1,-4.954807460E-1,-8.242477477E-2
3.839660123E1,1.691105962E-1,-4.688491523E-1,-3.583280444E-1
3.841669706E1,-3.273022473E-1,-2.037316747E-2,-4.446144104E-1
3.843679253E1,-6.394245028E-1,2.278332561E-1,-3.466101587E-1
3.845688784E1,-5.776392221E-1,3.354249001E-1,-8.455529809E-2
3.847698315E1,-4.721781015E-1,1.873532385E-1,1.327584833E-1
3.849707847E1,-4.221107066E-1,-9.813741595E-2,1.423458606E-1
3.851717378E1,-3.230412006E-1,-2.856238186E-1,1.557948068E-2
3.853726909E1,-1.525990218E-1,-4.145207107E-1,-1.548627019E-1
3.855736440E1,-1.624527015E-2,-4.560659826E-1,-2.613890767E-1
3.857746018E1,-2.663159103E-4,-2.781669796E-1,-2.507364154E-1
3.859755602E1,-4.527370445E-3,-2.037316747E-2,-1.814942956E-1
3.861765185E1,6.364950538E-2,1.937448233E-1,-1.729721874E-1
3.863774763E1,1.456748098E-1,2.906838059E-1,-2.390185297E-1
3.865784295E1,1.531316489E-1,2.747048736E-1,-2.794985473E-1
3.867793826E1,1.424790174E-1,1.937448233E-1,-2.219743133E-1
3.869803357E1,1.105211005E-1,1.564605981E-1,-8.349003643E-2
3.871812888E1,5.832318589E-2,1.596563905E-1,-1.957421936E-2
3.873822420E1,-7.696529478E-2,2.299637944E-1,-8.349003643E-2
3.875831951E1,-1.845569313E-1,2.842922211E-1,-2.688459158E-1
3.877841498E1,-9.081372619E-2,1.500690132E-1,-4.925512671E-1
3.879851081E1,-2.263685316E-2,3.119890988E-1,-4.925512671E-1
3.881860664E1,-1.408811212E-1,5.761744976E-1,-2.773680091E-1
3.883870248E1,-2.697780132E-1,5.793702602E-1,1.451421715E-2
3.885879805E1,-8.868319541E-2,2.001364082E-1,2.776343226E-1
3.887889336E1,3.651190996E-1,-4.709796906E-1,2.424806356E-1
3.889898868E1,5.973466039E-1,-6.201165915E-1,7.203845680E-2
3.891908399E1,2.362222075E-1,1.371526904E-2,-3.555317223E-2
3.893917930E1,-5.243760347E-1,4.376901984E-1,-6.325002760E-2
3.895927461E1,-9.131972790E-1,4.163849354E-1,1.583248079E-1
3.897936992E1,-7.896266580E-1,1.873532385E-1,5.002744198E-1
3.899946565E1,-5.307676196E-1,-1.109205782E-1,5.982787013E-1
3.901956149E1,-2.974748611E-1,-2.611227632E-1,4.587291479E-1
3.903965732E1,-1.131842583E-1,-1.673795432E-1,3.149185777E-1
3.905975315E1,1.784316637E-2,1.997369342E-3,2.829606533E-1
3.907984847E1,9.134636074E-2,1.266332120E-1,3.277017176E-1
3.909994378E1,9.134636074E-2,1.649827063E-1,3.980091214E-1
3.912003909E1,1.677790284E-2,1.426121742E-1,4.597944319E-1
3.914013440E1,-7.723161485E-3,7.230477035E-2,4.619249403E-1
3.916022972E1,6.897582114E-2,2.756369673E-2,4.107922912E-1
3.918032503E1,1.968074590E-1,-4.700475931E-2,3.074617088E-1
3.920042050E1,3.129211962E-1,-1.673795432E-1,2.371543199E-1
3.922051633E1,3.299654126E-1,-1.918806136E-1,2.595248520E-1
3.924061216E1,2.639190555E-1,-2.291648388E-1,3.362238407E-1
3.926070800E1,8.602003753E-2,-3.516701460E-1,3.362238407E-1
3.928080362E1,-6.098634377E-2,-5.636576414E-1,1.242363751E-1
3.930089894E1,-1.632516533E-1,-3.900196552E-1,-1.761679798E-1
3.932099425E1,-2.250369489E-1,-2.195774615E-1,-2.656501234E-1
3.934108956E1,-2.292979956E-1,-1.331579551E-4,-1.708416492E-1
3.936118487E1,-1.760348231E-1,1.010668874E-1,-7.603318989E-2
3.938128018E1,1.861548275E-1,-2.760364413E-1,-2.560627460E-1
3.940137550E1,4.386222959E-1,-4.890891612E-1,-5.468797088E-1
3.942147118E1,1.755021811E-1,-1.300953180E-1,-6.683197618E-1
3.944156701E1,-3.432812095E-1,2.171806246E-1,-6.012081504E-1
3.946166284E1,-5.403549671E-1,3.812312186E-1,-4.243744016E-1
3.948175868E1,-3.720433414E-1,5.090628862E-1,-2.081258893E-1
3.950185409E1,-1.238368973E-1,3.950796425E-1,-1.229047924E-1
3.952194940E1,1.464737486E-2,7.123950869E-2,-1.751027107E-1
3.954204472E1,4.873581231E-2,-3.538006842E-1,-3.157175183E-1
3.956214003E1,5.193160102E-2,-6.360955238E-1,-4.680502117E-1
3.958223534E1,5.406212807E-2,-6.872282028E-1,-6.012081504E-1
3.960233065E1,9.880319983E-2,-6.499440074E-1,-6.757766008E-1
3.962242612E1,1.904158741E-1,-5.135902166E-1,-6.257092357E-1
3.964252196E1,1.936116666E-1,-3.399522603E-1,-4.520712495E-1
3.966261779E1,6.791055948E-2,-1.055942550E-1,-2.454101145E-1
3.968271362E1,-2.476738021E-2,2.672480047E-1,-4.833633825E-2
3.970280925E1,7.323687524E-2,5.623260736E-1,2.942790836E-2
3.972290456E1,2.213085145E-1,7.476819158E-1,6.245107949E-2
3.974299987E1,1.616537571E-1,7.359640002E-1,8.269108832E-2
3.976309519E1,2.423474751E-2,3.961449265E-1,4.753739014E-2
3.978319050E1,5.832318589E-2,-1.364869028E-1,-9.946899116E-2
3.980328581E1,3.595264629E-2,-5.029376149E-1,-3.199785650E-1
3.982338112E1,-3.283675313E-1,-1.492700726E-1,-2.933469713E-1
3.984347690E1,-7.022750378E-1,3.151848912E-1,-1.793637723E-1
3.986357274E1,-3.912180662E-1,5.175849795E-1,-3.874896467E-2
3.988366857E1,4.237086177E-1,1.820269227E-1,1.711079776E-1
3.990376440E1,1.079910994E0,-4.081291258E-1,1.956090331E-1
3.992385972E1,1.147022605E0,-6.201165915E-1,1.242363751E-1
