"Time (s)","Gyroscope x (rad/s)","Gyroscope y (rad/s)","Gyroscope z (rad/s)"
7.523807300E-2,-2.286019564E0,-5.266877651E0,-1.446104527E0
9.652796900E-2,-2.547462225E0,-3.579030514E0,-1.108916879E0
1.178178130E-1,-2.747209072E0,-2.141096115E0,-4.210264683E-1
1.391076570E-1,-2.606714249E0,-1.346994519E0,1.011410356E0
1.603975530E-1,-2.166904211E0,-2.211267054E-1,1.867818236E0
1.816873960E-1,-9.268843532E-1,4.764608666E-2,1.892862916E0
2.029772400E-1,4.653128982E-1,-5.051707029E-1,1.626533508E0
2.242671360E-1,1.375475287E0,-1.248648167E0,1.511083364E0
2.455569800E-1,8.739697337E-1,2.803254366E0,1.219098449E0
2.668468750E-1,1.192221165E0,1.484358788E0,1.074327588E0
2.881367190E-1,1.313168883E0,1.704263836E-1,6.265766025E-1
3.094266150E-1,1.362647533E0,-1.540022254E0,7.634063363E-1
3.307164590E-1,2.593581200E0,-3.717158318E0,4.402681589E-1
3.520063030E-1,3.895296574E0,-4.096494198E0,-6.856760383E-2
3.732961980E-1,4.297844887E0,-2.969404936E0,-2.780882120E-1
3.945860420E-1,3.490304947E0,-3.806341887E0,-6.507050395E-1
4.158759380E-1,3.661342144E0,-5.214344978E0,-1.435109258E0
4.371657820E-1,5.357741356E0,-7.932691574E0,-2.763702154E0
4.584556780E-1,6.273401260E0,-9.586331367E0,-4.807062626E0
4.797455210E-1,5.796940327E0,-9.093378067E0,-6.461313248E0
5.010354170E-1,4.683365822E0,-7.147141933E0,-7.307947636E0
5.223253130E-1,4.172010422E0,-5.590626717E0,-7.279848576E0
5.436151570E-1,3.988145351E0,-5.469068050E0,-6.333035469E0
5.649050530E-1,2.850747824E0,-3.480684042E0,-4.945114136E0
5.861948960E-1,1.081657767E0,-5.002838969E-1,-2.555403233E0
6.074847920E-1,1.287360638E-1,-6.572716236E-1,-2.066190839E-1
6.287746360E-1,4.054498672E-1,-1.903476357E0,9.208522737E-2
6.500645320E-1,8.880192041E-1,-2.930921555E0,-9.470423460E-1
6.713544280E-1,1.863542318E0,-1.400138259E0,-6.250494719E-1
6.926442710E-1,1.710830450E0,-5.112791657E-1,7.017107606E-1
7.139341670E-1,2.235013723E0,-1.244372249E0,1.983955503E0
7.352240110E-1,2.307093859E0,-8.600729704E-1,1.603321314E0
7.565139070E-1,1.527576327E0,-1.067226529E0,7.579087615E-1
7.778038030E-1,2.239900589E0,-1.518642664E0,3.021174192E0
7.990936460E-1,2.322364807E0,2.596788168E0,4.102373600E0
8.203835420E-1,-2.764083818E-2,8.851176500E-1,2.282659769E0
8.416734380E-1,8.947384953E-1,-8.765658140E-1,2.495234728E0
8.629632820E-1,2.148273468E0,-9.205468297E-1,4.256307125E0
8.842531780E-1,1.039509296E0,2.015261412E0,4.296012402E0
9.055430730E-1,-2.138194561E0,2.125748396E-1,1.854379535E0
9.268329170E-1,-3.365386724E0,1.588202864E-1,7.994463444E-1
9.481228130E-1,-2.531580210E0,-1.241317987E0,1.831014603E-1
9.694127090E-1,-1.184051037E0,4.544703662E-1,2.916795574E-2
9.907026050E-1,1.510472536E0,-3.405549765E0,-4.503471553E-1
1.011992448E0,1.265522838E0,-9.779664874E-1,-1.158395529E0
1.033282344E0,1.162289619E0,-1.325004101E0,4.213318825E-1
1.054572240E0,1.788255423E-1,-1.056765765E-1,4.940227270E-1
1.075862136E0,-2.768665254E-1,5.424323678E-1,5.520532131E-1
1.097152032E0,1.666085869E-1,9.474241138E-1,-4.680617154E-1
1.118441928E0,1.387081385E0,5.705313683E-1,-1.097310781E0
1.139731823E0,1.980901361E0,-6.682668924E-1,-3.520007432E-1
1.161021667E0,2.138499975E0,3.280249834E-1,-4.902049154E-2
1.182311563E0,2.181869984E0,4.868452549E-1,3.283303976E-2
1.203601459E0,1.520246148E0,6.688777208E-1,-7.233958840E-1
1.224891355E0,4.109475017E-1,9.101624042E-2,-1.026452422E0
1.246181250E0,-2.225011140E-1,3.567348123E-1,-7.209524512E-1
1.267471146E0,-3.008422814E-2,7.647807598E-1,-9.293277264E-1
1.288761094E0,-9.177216291E-1,6.432221532E-1,-1.382576466E0
1.310050990E0,-1.654403448E0,-2.260134928E-2,-1.742976308E0
1.331340886E0,-9.531508088E-1,-2.162399292E-1,-1.159617186E0
1.352630782E0,-3.691044450E-1,4.123218954E-1,-2.896943092E-1
1.373920678E0,-1.078985333E0,3.762819171E-1,-2.084516287E-1
1.395210573E0,-1.769853592E0,-2.217375487E-1,-3.342861533E-1
1.416500469E0,-1.311107278E0,-2.950392365E-1,7.742489129E-2
1.437790417E0,-5.444176197E-1,5.827482939E-1,7.047650218E-1
1.459080313E0,-3.782671690E-1,6.077930331E-1,1.040731072E0
1.480370209E0,-8.566369414E-1,-3.292466700E-1,9.594883323E-1
1.501660157E0,-5.657972693E-1,-6.267293096E-1,1.419456363E0
1.522950053E0,-2.115058601E-1,-1.368297935E-1,9.759812355E-1
1.544239948E0,-1.382041872E-1,2.620534599E-1,1.317444801E0
1.565529896E0,-7.870003581E-1,9.755230546E-1,1.274685502E0
1.586819792E0,-1.428389907E0,7.904363275E-1,1.313168883E0
1.608109740E0,-9.843040109E-1,4.630222321E-1,1.198329568E0
1.629399636E0,4.133908749E-1,2.541124523E-1,5.471664071E-1
1.650689584E0,1.058445573E0,4.630222321E-1,-5.260922313E-1
1.671979480E0,8.880192041E-1,2.583884001E-1,-1.871254206E0
1.693269428E0,1.126860499E0,-9.162709117E-2,-1.752749801E0
1.714559323E0,9.399412274E-1,-2.015795931E-2,-1.099754095E0
1.735849271E0,7.108734846E-1,-2.748812735E-1,-1.065546632E0
1.757139219E0,6.113054156E-1,-6.927008033E-1,-6.775823236E-1
1.778429115E0,-6.429167092E-2,7.146912813E-2,1.299577504E-1
1.799719063E0,-7.656207085E-1,3.243598938E-1,1.421747059E-1
1.821009011E0,-9.824714661E-1,-1.771457121E-2,2.783936262E-1
1.842298907E0,-1.515741110E0,2.363978922E-1,6.839962006E-1
1.863588855E0,-1.342871308E0,2.669402659E-1,7.788302377E-3
1.884878803E0,-1.064324975E0,1.716480851E-1,-4.081986845E-1
1.906168750E0,-2.909159958E-1,-1.404948719E-2,-6.488724947E-1
1.927458698E0,5.604523420E-2,1.191152185E-1,-1.153508663E0
1.948748646E0,3.376458287E-1,3.872771561E-1,-1.346536398E0
1.970038542E0,2.032594234E-1,-1.136175916E-1,-1.854761362E0
1.991328490E0,3.901786804E-1,1.466033459E-1,-2.454002619E0
2.012618438E0,8.342646360E-1,-3.176405653E-2,-1.671507120E0
2.033908386E0,6.277982593E-1,1.172826737E-1,-5.940489471E-2
2.055198334E0,-3.605526090E-1,7.116370797E-1,1.707776189E0
2.076488282E0,-2.118036509E0,1.527729034E0,1.993118286E0
2.097778230E0,-3.578648567E0,2.436746120E0,2.487293720E0
2.119068230E0,-3.977531910E0,1.563158154E0,2.536772251E0
2.140358178E0,-3.252990723E0,2.605950832E0,1.117697716E0
2.161648125E0,-1.047221303E0,2.284645081E0,2.533488870E-1
2.182938073E0,9.197832346E-1,1.769700885E0,2.490729690E-1
2.204228021E0,6.064186096E-1,2.698188782E0,4.573718905E-1
2.225517032E0,-1.173666596E0,3.880789042E0,1.363258362E0
2.246807969E0,-2.904807806E0,4.888152599E0,1.852547050E0
2.268097917E0,-2.899920940E0,4.524087429E0,1.867818236E0
2.289387865E0,-2.109484673E0,4.171552181E0,1.503753185E0
2.310677813E0,-1.810169458E0,3.929045916E0,1.341267824E0
2.331967813E0,-1.604924798E0,3.923548222E0,1.597212911E0
2.353257761E0,-1.457099795E0,3.955923319E0,1.780467033E0
2.374547709E0,-1.226199508E0,3.571700335E0,1.825669765E0
2.395837709E0,-1.013013840E0,3.502674580E0,1.802457571E0
2.417127657E0,-9.391012788E-1,2.489279032E0,1.777412772E0
2.438417605E0,-6.274928451E-1,2.172249317E0,1.804290056E0
2.459707605E0,-5.358657837E-1,1.655396104E0,1.557507753E0
2.480997553E0,-4.637857676E-1,1.929131985E0,1.335770249E0
2.502287553E0,-7.185090780E-1,2.409868717E0,1.161678791E0
2.523577500E0,-7.154548764E-1,2.032976151E0,1.066997409E0
2.544867448E0,-3.239017725E-1,1.456259847E0,8.617527485E-1
2.566157448E0,-1.589729935E-1,1.436712742E0,6.827745438E-1
2.587447396E0,-7.062921524E-1,1.824066281E0,4.830274582E-1
2.608737396E0,-8.083800077E-1,2.376883030E0,2.290677279E-3
2.630027344E0,-6.775823236E-1,8.191461563E-1,6.229115129E-1
2.651317344E0,-4.552339315E-1,3.542914093E-1,1.056613088E0
2.672607292E0,-6.329904795E-1,8.643488884E-1,1.454274654E0
2.693897292E0,-5.511369109E-1,2.227836370E0,1.882478595E0
2.715187240E0,-1.034393430E0,1.434269309E0,1.741372824E0
2.736477240E0,-1.554835320E0,-1.111742035E-1,1.059056401E0
2.757767240E0,-1.373413682E0,-1.569953799E0,2.118112892E-1
2.779057188E0,-6.653653979E-1,-1.905308962E0,4.335488379E-1
2.800347188E0,-1.152897835E0,-2.596100867E-1,1.292400122E0
2.821637136E0,-1.940890789E0,2.186833173E-1,1.135412335E0
2.842927136E0,-2.328167915E0,5.674771070E-1,1.258803487E0
2.864217084E0,-1.901796579E0,-7.849387527E-1,1.561783671E0
2.885507084E0,-1.303166270E0,-1.649974823E0,1.648524046E0
2.906797084E0,-1.250633359E0,-1.309122086E0,1.819561243E0
2.928087032E0,-1.371581197E0,-8.405258060E-1,1.822004676E0
2.949377032E0,-1.947610140E0,-5.534276366E-1,2.181869984E0
2.970667032E0,-3.153422594E0,-7.299624681E-1,1.881256819E0
2.991956980E0,-3.329957485E0,-7.476770282E-1,1.515970230E0
3.013246980E0,-2.471106291E0,-7.110261917E-1,1.652189136E0
3.034536980E0,-2.488209963E0,4.239279926E-1,2.264945269E0
3.055826928E0,-2.870600224E0,1.459924936E0,2.340079546E0
3.077116928E0,-2.157741547E0,2.099558353E0,2.618015051E0
3.098406928E0,-1.489474654E0,2.666424751E0,3.045608044E0
3.119696875E0,-1.347758174E0,3.127614260E0,3.525123119E0
3.140986875E0,-1.040501952E0,3.320031166E0,3.191600561E0
3.162276875E0,-8.657996058E-1,3.325528860E0,2.213023186E0
3.183566823E0,-7.001836896E-1,2.987119436E0,1.359593272E0
3.204856823E0,-7.148439884E-1,2.676198244E0,1.524522066E0
3.226146823E0,-3.996468186E-1,1.913860798E0,1.715106368E0
3.247436823E0,-4.840964451E-2,2.319463491E0,1.307060480E0
3.268726771E0,2.527380586E-1,3.111121416E0,5.563291311E-1
3.290016771E0,1.068982761E-3,2.539368391E0,3.834593594E-1
3.311306771E0,-5.024218559E-2,1.199704051E0,3.437542915E-1
3.332596771E0,3.161134571E-2,1.127624035E0,2.435753495E-1
3.353886719E0,2.122694254E-2,1.135565042E0,2.710634768E-1
3.375176719E0,-2.457133085E-1,7.617265582E-1,3.199312389E-1
3.396466719E0,-5.627430081E-1,4.086568058E-1,7.566870451E-1
3.417756719E0,-8.804599643E-1,1.032331884E-1,8.367080092E-1
3.439046719E0,-5.926745534E-1,2.932066843E-2,3.657447994E-1
3.460336667E0,-6.849125028E-1,9.590301663E-2,3.242071867E-1
3.481626667E0,-5.945070982E-1,-2.376195788E-1,5.007420182E-1
3.502916667E0,-8.572477698E-1,1.007898003E-1,8.641961813E-1
3.524206667E0,-8.810707927E-1,-6.841489673E-2,5.679352283E-1
3.545496667E0,-1.074709415E0,-2.437280566E-1,3.675773442E-1
3.566786615E0,-9.946883917E-1,-2.571666837E-1,5.325061083E-1
3.588076615E0,-7.007945180E-1,-3.536805511E-1,2.600682080E-1
3.609366615E0,-6.158867478E-1,-3.408527672E-1,-2.316638231E-1
3.630656615E0,-6.171084642E-1,-1.563768983E-1,-9.544488788E-2
3.651946615E0,-4.619532526E-1,-2.852656841E-1,2.901524538E-3
3.673236615E0,-4.986040890E-1,-1.178935245E-1,-1.956238300E-1
3.694526615E0,-6.543701291E-1,-1.594311297E-1,-1.333174109E-1
3.715816563E0,-5.358657837E-1,-3.060344756E-1,2.985515893E-1
3.737106563E0,-5.016583204E-1,2.919849753E-1,-9.422318637E-2
3.758396563E0,-6.794148684E-1,4.178195298E-1,-4.454603493E-1
3.779686563E0,-4.845545888E-1,5.583143830E-1,-4.955498278E-1
3.800976563E0,-4.668400288E-1,8.417475224E-1,-4.552339315E-1
3.822266511E0,-3.923166394E-1,7.586722970E-1,-1.186570823E-1
3.843556511E0,-4.979932308E-1,5.241069198E-1,2.075353563E-1
3.864846511E0,-5.322006941E-1,1.105633527E-1,2.710634768E-1
3.886136511E0,-7.393542528E-1,2.015795931E-2,3.816268146E-1
3.907426511E0,-9.928558469E-1,-2.791571915E-1,4.592044353E-1
3.928716459E0,-1.205430746E0,-5.320479870E-1,6.479562521E-1
3.950006459E0,-1.301944613E0,-1.103266478E0,9.991934299E-1
3.971296459E0,-1.416783810E0,-1.100212216E0,1.428008199E0
3.992586459E0,-1.221312761E0,-9.016105533E-1,1.225817680E0
4.013876459E0,-1.163893104E0,-3.286358118E-1,6.058077812E-1
4.035166407E0,-7.038487792E-1,3.665083647E-2,3.584146202E-1
4.056456407E0,-2.945810854E-1,3.665083647E-1,7.437065244E-2
4.077746407E0,1.904316396E-1,1.017671585E0,-2.683146596E-1
4.099036407E0,3.150444627E-1,1.069593549E0,-4.169032723E-2
4.120326355E0,4.017847776E-1,5.723638535E-1,3.376458287E-1
4.141616355E0,5.514423847E-1,2.730487287E-1,7.090409398E-1
4.162906355E0,1.026681542E0,4.062134326E-1,6.638382673E-1
4.184196355E0,1.223374367E0,3.494046330E-1,5.868715048E-1
4.205486303E0,9.857547879E-1,-2.199050188E-1,6.363501549E-1
4.226776303E0,9.961391687E-1,-8.069292307E-1,7.127060294E-1
4.248066303E0,1.295454383E0,-5.558710173E-2,6.216897964E-1
4.269356303E0,1.408461094E0,-6.878139973E-1,9.655967951E-1
4.290646250E0,1.180004239E0,-1.770311713E0,1.149461865E0
4.311936250E0,1.175728321E0,-2.454460621E0,1.224596024E0
4.333226250E0,9.405520558E-1,-2.048247099E0,7.456917763E-1
4.354516250E0,7.072083950E-1,-2.584571123E0,9.857547879E-1
4.375806198E0,9.338327646E-1,-3.746479034E0,1.624701023E0
4.397096198E0,6.394043565E-1,-3.406160593E0,1.569724798E0
4.418386198E0,3.584146202E-1,-1.966393709E0,8.568660021E-1
4.439676146E0,1.079672500E-1,-8.191461563E-1,2.771719396E-1
4.460966146E0,1.611109674E-1,-8.973346353E-1,5.238015205E-2
4.482256146E0,2.166980654E-1,-1.296905041E0,-9.300149232E-2
4.503546094E0,3.344388679E-2,-3.475720882E-1,2.367033064E-2
4.524836094E0,2.747285664E-1,8.991671801E-1,2.936648130E-1
4.546126094E0,7.151494026E-1,9.950701594E-1,2.356343269E-1
4.567416042E0,8.025006056E-1,6.352811456E-1,-6.368082762E-2
4.588706042E0,1.038287640E0,3.988832533E-1,-3.782671690E-1
4.609996042E0,1.184280157E0,9.791881442E-1,-4.863871336E-1
4.631286042E0,9.246700406E-1,1.139230132E0,-4.136963189E-1
4.652575990E0,6.827745438E-1,5.986303091E-1,-4.222481549E-1
4.673865990E0,3.608580232E-1,-3.237490356E-2,-3.996468186E-1
4.695155938E0,2.576248348E-1,-7.574506104E-2,-6.164975762E-1
4.716445938E0,4.353813827E-1,1.936385781E-1,-9.708653688E-1
4.737735938E0,4.133908749E-1,2.205158621E-1,-1.246968269E0
4.759025886E0,2.539597452E-1,-2.809897363E-1,-1.295836091E0
4.780315886E0,-2.536543310E-1,-7.721109390E-1,-1.024619937E0
4.801605886E0,-4.662291706E-1,-6.016845703E-1,-3.019112647E-1
4.822895834E0,-6.671979427E-1,9.077190161E-1,-4.631749392E-1
4.844185834E0,-1.998997629E-1,1.046992183E0,-8.419765830E-1
4.865475834E0,1.592784226E-1,1.565601468E0,-1.207874060E0
4.886765782E0,8.536590636E-2,1.687847376E0,-1.542618394E0
4.908055782E0,1.152974218E-1,2.674365759E0,-1.615309238E0
4.929345782E0,6.980457306E-1,2.831964254E0,-1.687389255E0
4.950635730E0,7.401941419E-1,1.993270993E0,-1.877973557E0
4.971925730E0,1.049282908E0,6.652126908E-1,-2.091159344E0
4.993215730E0,2.031601667E0,3.716471195E0,-4.595098495E-1
5.014505678E0,2.507451534E0,3.553374767E0,1.160457134E0
5.035795678E0,2.021828175E0,5.186093450E-1,1.305227876E0
5.057085625E0,-2.469350100E-1,5.277720094E-1,-1.071044326E0
5.078375625E0,-5.560237169E-1,9.877400398E-1,-1.548115969E0
5.099665625E0,-1.052184403E-1,4.275931045E-3,-1.826662421E0
5.120955573E0,-3.008422814E-2,2.492256761E-1,-1.284840822E0
5.142245573E0,-1.114796288E-2,-7.941014133E-3,-3.379512429E-1
5.163535521E0,-6.673506647E-2,-2.009687424E-1,-1.094943732E-1
5.184825521E0,-1.803526580E-1,-6.890357137E-1,-9.696436524E-1
5.206115469E0,1.550024897E-1,6.584933400E-1,-1.903018236E0
5.227405469E0,5.428904891E-1,1.291942000E0,-2.086883307E0
5.248695417E0,8.672503829E-1,1.525285602E0,-1.715488195E0
5.269985417E0,1.503142357E0,4.874561131E-1,-8.407548666E-1
5.291275365E0,1.404185176E0,-5.106683373E-1,-2.463241518E-1
5.312565365E0,5.227325559E-1,-1.103877306E0,-1.522536725E-1
5.333855313E0,-1.359135192E-2,-1.625540853E0,-2.519745007E-2
5.355145313E0,-1.058292910E-1,-1.872323155E0,-2.475458533E-1
5.376435261E0,3.248180151E-1,-1.427015543E0,9.880454093E-2
5.397725261E0,6.907155514E-1,-4.275931045E-3,3.266505599E-1
5.419015261E0,8.929060102E-1,8.319739699E-1,1.623326540E-1
5.440305209E0,9.228374958E-1,-9.834641218E-2,2.423536479E-1
5.461595209E0,1.102426648E0,-5.076140761E-1,6.357392669E-1
5.482885157E0,7.346965671E-1,-1.240707159E0,5.697677732E-1
5.504175157E0,7.414158583E-1,-1.253534913E0,4.866925478E-1
5.525465105E0,5.154023767E-1,-1.208332181E0,7.359182239E-1
5.546755105E0,-4.779879749E-2,-1.126478672E0,1.763974190E0
5.568045053E0,-3.403946459E-1,-2.541200876E0,2.535550594E0
5.589335000E0,-6.079457402E-1,-3.259557247E0,2.932601452E0
5.610625000E0,-3.978142738E-1,-3.158767462E0,2.530052900E0
5.631914948E0,7.498150319E-2,-1.620043278E0,1.424343109E0
5.653204948E0,2.808370292E-1,-8.289197087E-1,8.477032781E-1
5.674494896E0,3.272614181E-1,-4.813476503E-1,3.932329118E-1
5.695784896E0,6.106945276E-1,-5.638120174E-1,-8.093725890E-3
5.717074844E0,7.389724851E-1,-2.602209449E-1,-1.876828223E-1
5.738364844E0,1.280794024E0,1.259567022E0,2.857238054E-1
5.759654792E0,1.618592501E0,1.006065488E0,7.114843726E-1
5.780944740E0,1.387081385E0,6.474980712E-1,7.976137996E-1
5.802234740E0,1.130525589E0,5.338805318E-1,9.692618847E-1
5.823524688E0,8.177717924E-1,4.734066129E-1,1.352873921E0
5.844814688E0,6.613948941E-1,-2.987042964E-1,1.728545070E0
5.866104636E0,8.165500760E-1,1.649287641E-1,1.675401330E0
5.887394584E0,9.148964882E-1,8.093726039E-1,8.837432861E-1
5.908684584E0,5.294518471E-1,8.301414251E-1,7.377507687E-1
5.929974532E0,6.154286116E-2,-3.823903799E-1,7.707365155E-1
5.951264480E0,-2.102841735E-1,-8.246437907E-1,9.820896983E-1
5.972554480E0,-2.886253223E-2,-1.386623234E-1,7.182036638E-1
5.993844428E0,-5.818320066E-2,8.820634484E-1,3.132119179E-1
6.015134375E0,-3.055763543E-1,7.140804529E-1,-3.025220931E-1
6.036424375E0,-3.636068404E-1,9.290986657E-1,-9.177216291E-1
6.057714323E0,-1.998997629E-1,1.654174328E0,-1.653792620E0
6.079004271E0,2.061609551E-2,1.996936083E0,-2.078331470E0
6.100294271E0,-1.070509851E-1,1.988995075E0,-2.345882654E0
6.121584219E0,2.122694254E-2,1.786804557E0,-2.154687405E0
6.142874167E0,2.136438340E-1,1.448929667E0,-1.424724817E0
6.164164167E0,1.030804738E-1,1.027445078E0,-9.256626368E-1
6.185454115E0,-2.292204350E-1,9.480349422E-1,-8.541935086E-1
6.206744063E0,-6.018372774E-1,7.140804529E-1,-6.464291215E-1
6.228034063E0,-6.580352187E-1,1.262010455E0,-6.372663975E-1
6.249324011E0,-1.608055383E-1,2.517988682E0,-1.094867349E0
6.270613959E0,4.915793240E-1,3.422042608E0,-1.537731647E0
6.291903907E0,4.085040987E-1,2.877777815E0,-2.718499422E0
6.313193907E0,6.528429985E-1,1.961506963E0,-3.171747923E0
6.334483855E0,6.919372082E-1,2.907632887E-1,-3.380046844E0
6.355773803E0,-7.943304777E-1,-4.654656053E-1,-2.554181576E0
6.377063750E0,-1.387463212E0,-1.305456996E0,-9.061155319E-1
6.398353698E0,-1.250633359E0,-1.508258224E0,-2.353289127E-1
6.419643698E0,-1.153508663E0,-4.098785222E-1,7.414158583E-1
6.440933646E0,-1.253076792E0,3.512371778E-1,8.257128000E-1
6.462223594E0,-4.497362971E-1,2.632751763E-1,-6.592568755E-1
6.483513542E0,-1.300722837E0,-6.206207871E-1,-4.161396921E-1
6.504803542E0,-2.581669569E0,-2.715292454E0,2.600682080E-1
6.526093490E0,-2.683681011E0,-1.731828332E0,4.708105326E-1
6.547383438E0,-1.830327511E0,1.343864016E-2,2.112004459E-1
6.568673386E0,-4.106420577E-1,1.168550849E0,1.397313178E-1
6.589963334E0,6.546755433E-1,-7.140804529E-1,3.040492237E-1
6.611253334E0,1.627755284E0,-3.072561622E-1,1.879882365E-1
6.632543282E0,1.028514028E0,3.872771561E-1,7.192726433E-2
6.653833230E0,-5.126535892E-1,-1.681738853E0,7.072083950E-1
6.675123178E0,-8.065474629E-1,-1.715946317E0,1.471989155E0
6.696413125E0,-5.908420086E-1,-1.555293441E0,2.666882753E0
6.717703073E0,2.845021188E-1,-9.957574010E-1,3.666839838E0
6.738993073E0,1.722436547E0,-2.486148328E-1,2.920995235E0
6.760283021E0,2.344355345E0,-3.103103936E-1,1.436560035E0
6.781572969E0,2.248452425E0,1.596143842E0,-3.055763543E-1
6.802862917E0,1.481762767E0,1.223527074E0,-7.931088209E-1
6.824152865E0,4.396573007E-1,4.544703662E-1,-1.139459252E0
6.845442813E0,-2.060082406E-1,4.593571424E-1,-1.523071289E0
6.866732813E0,-6.073349118E-1,6.108472589E-3,-1.161449671E0
6.888022761E0,-5.871769190E-1,-8.680139780E-1,-6.372663975E-1
6.909312709E0,-3.031329513E-1,-1.388532162E0,-1.528645307E-1
6.930602657E0,1.348445266E-1,-1.904698133E0,4.146125913E-1
6.951892605E0,4.653128982E-1,-1.723887324E0,6.516213417E-1
6.973182553E0,4.317162931E-1,-1.686014771E0,5.300627351E-1
6.994472500E0,2.289150059E-1,-1.502760649E0,2.338017821E-1
7.015762448E0,6.826218218E-2,-3.518480062E-1,5.239542127E-1
7.037052396E0,3.987305462E-1,-1.747023165E-1,2.906105816E-1
7.058342344E0,9.491039515E-1,4.422534108E-1,-5.089884996E-1
7.079632292E0,9.283351302E-1,7.934905887E-1,-7.613447309E-1
7.100922292E0,9.399412274E-1,2.864873707E-1,-1.173666596E0
7.122212240E0,1.236812949E0,-1.502684206E-1,-8.315922022E-1
7.143502188E0,1.162289619E0,-2.834331393E-1,-1.730224788E-1
7.164792136E0,1.158013701E0,-9.071081877E-1,3.217637837E-1
7.186082084E0,6.766660213E-1,-2.300527096E0,8.996253014E-1
7.207372032E0,2.936648130E-1,-2.397041082E0,7.194253802E-1
7.228661980E0,6.748335361E-1,-1.946846604E0,5.850389600E-1
7.249951928E0,5.850389600E-1,-1.797188997E0,4.585935771E-1
7.271241823E0,7.640172243E-1,-9.847621322E-1,3.773508966E-1
7.292531771E0,6.045860648E-1,-3.512371778E-1,6.528429985E-1
7.313821719E0,2.686200738E-1,-2.327328026E-1,8.293778896E-1
7.335111667E0,2.307475507E-1,6.169557199E-2,3.761292100E-1
7.356401615E0,1.324011385E-1,9.223793447E-2,-2.275406010E-2
7.377691563E0,-1.852394342E-1,-1.319430023E-1,-6.287145615E-1
7.398981511E0,-4.766135812E-1,-1.337755471E-1,-4.466820657E-1
7.420271459E0,-5.835118294E-1,1.973036677E-1,5.709894896E-1
7.441561407E0,-9.928558469E-1,4.960079789E-1,1.113421798E0
7.462851355E0,-1.573771596E0,8.667922616E-1,1.185501814E0
7.484141303E0,-1.476036072E0,8.582404256E-1,1.117697716E0
7.505431250E0,-1.058216572E0,1.145949483E0,5.044071078E-1
7.526721198E0,-5.260922313E-1,1.355470061E0,-7.001836896E-1
7.548011146E0,-5.146388337E-2,1.160609841E0,-1.449158788E0
7.569301094E0,-3.324536085E-1,-6.273401380E-1,-1.308663845E0
7.590591042E0,1.695101149E-2,-1.216273308E0,-1.380133033E0
7.611880990E0,1.099372387E0,6.603258848E-1,-1.907905102E0
7.633170938E0,1.641804695E0,2.052523136E0,-3.075845003E0
7.654460834E0,1.288735032E0,3.021326780E0,-3.438153744E0
7.675750782E0,3.468085229E-1,2.188131332E0,-3.738690615E0
7.697040730E0,-1.141291738E0,-1.997470558E-1,-2.633591652E0
7.718330678E0,-1.629969597E0,7.941014320E-2,-2.339163303E0
7.739620625E0,-1.312939882E0,7.000309825E-1,-3.783282518E0
7.760910573E0,-8.230403066E-1,3.064697027E0,-5.847335339E0
7.782200521E0,-9.525399208E-1,4.649921894E0,-5.967061520E0
7.803490469E0,-1.119912148E0,3.890562534E0,-3.712424278E0
7.824780417E0,-8.981745243E-1,2.603507280E0,-1.175499201E0
7.846070365E0,-6.568135023E-1,1.314543247E0,-2.585411072E-1
7.867360313E0,-5.786250830E-1,7.238540053E-1,-1.589729935E-1
7.888650261E0,-3.452814221E-1,-2.070772201E-1,2.290677279E-3
7.909940209E0,-6.856760383E-2,5.827482939E-1,-9.727742523E-2
7.931230157E0,-3.220692277E-1,1.149614573E0,-8.242620230E-1
7.952520053E0,-5.095993280E-1,-8.032641411E-1,-2.841966748E-1
7.973810000E0,-6.513158679E-1,-1.895535350E0,-7.162184268E-2
7.995099948E0,-6.781931520E-1,-1.083108544E0,6.642963737E-2
8.016389896E0,-5.199837089E-1,-6.780404449E-1,2.244863659E-2
8.037679844E0,-1.718007922E-1,-9.028322697E-1,4.701996744E-1
8.058969792E0,-5.573981255E-2,-7.928797603E-1,7.401941419E-1
8.080259740E0,-1.314848661E-1,-4.324798584E-1,6.968240142E-1
8.101549688E0,-3.130592033E-2,-3.622324169E-1,7.786775231E-1
8.122839636E0,3.712424338E-1,-6.157340407E-1,7.548545003E-1
8.144129532E0,7.493568659E-1,-4.275930822E-1,9.234483242E-1
8.165419480E0,1.065775752E0,-2.272351831E-1,1.044396043E0
8.186709428E0,1.062110662E0,6.798729897E-1,1.196497083E0
8.207999375E0,8.165500760E-1,1.700675130E0,9.796462655E-1
8.229289323E0,1.073105931E0,1.455649018E0,1.513374150E-1
8.250579271E0,1.288735032E0,8.203678727E-1,-3.367295563E-1
8.271869219E0,6.229115129E-1,2.699944973E-1,-2.206685692E-1
8.293159115E0,5.428904891E-1,-2.247917950E-1,-5.138752460E-1
8.314449063E0,3.321481943E-1,5.021164417E-1,-3.312319219E-1
8.335739011E0,6.919372082E-1,1.000567794E0,-6.261184346E-3
8.357028959E0,7.029324770E-1,6.279509664E-1,8.061656952E-1
8.378318907E0,7.640172243E-1,1.301104724E-1,1.360204101E0
8.399608803E0,8.073873520E-1,6.084038615E-1,1.255138397E0
8.420898750E0,4.726430774E-1,5.796940327E-1,9.588775039E-1
8.442188698E0,1.106091619E0,6.059604883E-1,8.990144730E-1
8.463478646E0,8.464815617E-1,8.845068216E-1,2.733541466E-2
8.484768542E0,7.017107606E-1,6.273401380E-1,-4.546230733E-1
8.506058490E0,7.805100679E-1,-1.563768983E-1,-5.639647245E-1
8.527348438E0,6.033644080E-1,-7.653915882E-1,-4.840964451E-2
8.548638386E0,2.612899244E-1,-8.325847983E-1,5.972558856E-1
8.569928282E0,5.665608495E-2,-3.970507085E-1,1.545290828E0
8.591218230E0,1.267508045E-2,1.161220670E0,1.757254839E0
8.612508178E0,1.562241912E-1,8.350282311E-1,1.814674497E0
8.633798125E0,4.677563012E-1,-2.657185495E-1,1.213600755E0
8.655088021E0,-6.245913357E-2,-5.570927262E-1,1.456107140E0
8.676377969E0,-1.467560530E-1,-3.762819171E-1,1.166565537E0
8.697667917E0,2.550287358E-2,-1.203369126E-1,1.037676811E0
8.718957865E0,-5.376983285E-1,-1.899735034E-1,1.127471328E0
8.740247761E0,-5.853443742E-1,2.028012872E-1,7.432484031E-1
8.761537709E0,-5.175403357E-1,6.413896382E-2,5.764871240E-1
8.782827657E0,-7.863894701E-1,2.687728032E-2,4.504998401E-2
8.804117553E0,-3.629959822E-1,6.169557199E-2,-9.926267900E-3
8.825407500E0,-2.499892414E-1,2.809897438E-2,1.012479365E-1
8.846697448E0,-2.738122940E-1,6.108472589E-4,-2.854183912E-1
8.867987396E0,-1.956238300E-1,5.192201585E-2,-7.270609736E-1
8.889277292E0,-1.443126649E-1,6.719319522E-2,-9.055047035E-1
8.910567240E0,-2.414373755E-1,2.455606014E-1,-1.082650423E0
8.931857188E0,-1.791309565E-1,1.447708011E-1,-1.226199508E0
8.953147084E0,-2.451024652E-1,3.237490356E-1,-1.279343247E0
8.974437032E0,-4.094203711E-1,2.034121305E-1,-1.516351938E0
8.995726980E0,-4.668400288E-1,5.760289431E-1,-1.600038052E0
9.017016875E0,-5.230379701E-1,7.067502737E-1,-1.579269290E0
9.038306823E0,-5.370874405E-1,6.096255779E-1,-1.615920067E0
9.059596771E0,-5.926745534E-1,6.273401380E-1,-1.706325412E0
9.080886667E0,-5.254813433E-1,4.269822240E-1,-1.833992481E0
9.102176615E0,-5.425850749E-1,5.155550838E-1,-1.961048722E0
9.123466511E0,-6.769714952E-1,3.255815804E-1,-1.836435914E0
9.144756459E0,-4.161396921E-1,4.459185004E-1,-1.560943842E0
9.166046407E0,-2.774773538E-1,2.382304370E-1,-1.461986542E0
9.187336303E0,-3.397837877E-1,2.852656841E-1,-1.570717335E0
9.208626250E0,-2.396048307E-1,2.693836391E-1,-1.655625105E0
9.229916146E0,-3.067980409E-1,4.330907166E-1,-1.612865806E0
9.251206094E0,-3.385621011E-1,1.918060333E-1,-1.358753324E0
9.272496042E0,-3.495573401E-1,2.302894145E-1,-1.128463984E0
9.293785938E0,-3.391729295E-1,-8.246438205E-2,-1.113192797E0
9.315075886E0,-4.454603493E-1,-1.441599578E-1,-1.065546632E0
9.336365834E0,-4.851654470E-1,-3.200839758E-1,-7.894437313E-1
9.357655730E0,-4.833329022E-1,-2.693836391E-1,-4.466820657E-1
9.378945678E0,-3.941491842E-1,-3.274141252E-1,-2.200577259E-1
9.400235573E0,-2.402156889E-1,-5.302154422E-1,-1.481304597E-2
9.421525521E0,-1.236965694E-2,-4.538595080E-1,2.399102598E-1
9.442815417E0,2.301367074E-1,-2.431172132E-1,5.819846988E-1
9.464105365E0,3.553603888E-1,1.020114943E-1,9.326110482E-1
9.485395261E0,4.732539058E-1,3.304683566E-1,1.063332319E0
9.506685209E0,5.630484819E-1,3.243598938E-1,8.910734653E-1
9.527975105E0,4.598152637E-1,4.294256270E-1,7.792884111E-1
9.549265053E0,1.195733473E-1,6.163448691E-1,6.595623493E-1
9.570555000E0,-1.516428292E-1,8.295305967E-1,4.647020400E-1
9.591844896E0,6.032116711E-2,3.793361485E-1,2.838912606E-1
9.613134844E0,1.763821393E-1,1.466033421E-2,1.397313178E-1
9.634424740E0,-1.278197914E-1,1.740914732E-1,2.325800955E-1
9.655714688E0,1.012479365E-1,3.811686933E-1,5.337277651E-1
9.677004584E0,3.089359999E-1,3.029802442E-1,5.624375939E-1
9.698294532E0,2.118112892E-1,-2.046338320E-1,4.683671296E-1
9.719584428E0,2.240282297E-1,-4.978405237E-1,5.123481154E-1
9.740874375E0,5.209000111E-1,-5.528167486E-1,5.722111464E-1
9.762164271E0,8.703046441E-1,-6.420004964E-1,6.736118197E-1
9.783454219E0,7.945595980E-1,-6.664343476E-1,9.246700406E-1
9.804744115E0,7.878402472E-1,-5.008947253E-1,1.057834744E0
9.826034063E0,1.001025915E0,-4.813476503E-1,1.012632012E0
9.847323959E0,1.010188699E0,-5.839699507E-1,9.698727131E-1
9.868613855E0,9.399412274E-1,-6.499415040E-1,9.704836011E-1
9.889903803E0,8.538117409E-1,-4.776825607E-1,1.025459886E0
9.911193750E0,7.896727920E-1,-4.569137394E-1,1.033400893E0
9.932483646E0,7.676823139E-1,-3.158080280E-1,1.214211583E0
9.953773542E0,5.599942207E-1,-1.887518018E-1,1.201383829E0
9.975063490E0,4.689779878E-1,-4.294256270E-1,1.086544514E0
9.996353386E0,5.483881235E-1,-5.986303091E-1,1.214822531E0
1.001764333E1,3.608580232E-1,-4.611896873E-1,1.528797984E0
1.003893323E1,1.354553849E-1,-7.250757217E-1,1.556286097E0
1.006022318E1,1.104106456E-1,-1.728697717E-1,1.336381078E0
1.008151307E1,-1.785201132E-1,-2.028012872E-1,1.117697716E0
1.010280297E1,-2.469350100E-1,4.019374847E-1,1.095096469E0
1.012409292E1,-3.996468186E-1,4.532486796E-1,9.460496902E-1
1.014538281E1,-3.184041381E-1,7.983773947E-1,5.465555787E-1
1.016667276E1,-4.094203711E-1,5.723638535E-1,9.513945878E-2
1.018796266E1,-4.448495209E-1,4.709632397E-1,-1.314848661E-1
1.020925261E1,-4.430169761E-1,1.924168915E-1,-4.491254389E-1
1.023054250E1,-5.089884996E-1,-5.070032179E-2,-8.603020310E-1
1.025183240E1,-5.902311802E-1,1.606528312E-1,-1.073487759E0
1.027312234E1,-6.055023670E-1,1.630962193E-1,-1.173055768E0
1.029441224E1,-7.314132452E-1,1.270562261E-1,-1.384408951E0
1.031570214E1,-1.050886393E0,2.284568697E-1,-1.658679366E0
1.033699208E1,-1.133350730E0,4.489727318E-1,-1.906683326E0
1.035828198E1,-1.367916107E0,4.630222321E-1,-2.043513060E0
1.037957193E1,-1.449769616E0,7.073611021E-1,-2.166904211E0
1.040086182E1,-1.143124342E0,1.435490996E-1,-2.153465748E0
1.042215172E1,-1.033782601E0,2.174616307E-1,-1.995867014E0
1.044344167E1,-8.743515015E-1,7.879929543E-1,-1.973876595E0
1.046473156E1,-5.975613594E-1,3.542914093E-1,-1.852928758E0
1.048602146E1,-3.239017725E-1,-5.436540768E-2,-1.488252997E0
1.050731141E1,-1.455343664E-1,1.466033459E-1,-1.188937783E0
1.052860130E1,-1.797417998E-1,1.918060333E-1,-1.052718878E0
1.054989120E1,-2.078407854E-1,2.535016239E-1,-1.081428766E0
1.057118115E1,-3.177932799E-1,4.544703662E-1,-1.111360192E0
1.059247104E1,-3.214583695E-1,2.663294077E-1,-9.604809880E-1
1.061376094E1,-2.316638231E-1,-2.614426315E-1,-7.105680704E-1
1.063505089E1,-5.207473040E-2,-3.695625961E-1,-4.448495209E-1
1.065634078E1,5.115845799E-2,-6.218425035E-1,-1.786728203E-2
1.067763068E1,3.405473381E-2,-6.413896084E-1,2.930539846E-1
1.069892063E1,4.871506989E-2,-4.104893506E-1,6.137487888E-1
1.072021052E1,4.115583301E-1,-4.049917459E-1,7.744016051E-1
1.074150042E1,6.430694461E-1,1.160609815E-2,9.252808690E-1
1.076279031E1,5.661026835E-1,3.817795515E-1,9.265025854E-1
1.078408026E1,3.132119179E-1,6.273401380E-1,8.929060102E-1
1.080537016E1,3.767400384E-1,7.232431769E-1,9.148964882E-1
1.082666005E1,6.455128193E-1,4.422534108E-1,7.841751575E-1
1.084795000E1,5.966450572E-1,2.223484069E-1,6.326850653E-1
1.086923990E1,5.099047422E-1,3.054236248E-2,4.213318825E-1
1.089052979E1,3.290939629E-1,7.330167107E-3,6.339067221E-1
1.091181969E1,3.608580232E-1,6.841489673E-2,7.701256871E-1
1.093310958E1,4.347705245E-1,2.217375487E-1,7.408050299E-1
1.095439953E1,3.797942698E-1,1.722589284E-1,6.644490957E-1
1.097568943E1,2.661767006E-1,9.834641218E-2,6.638382673E-1
1.099697932E1,2.209739983E-1,2.443389036E-2,6.986565590E-1
1.101826922E1,2.142546773E-1,-1.368297935E-1,8.648070097E-1
1.103955917E1,2.386885732E-1,-3.683409095E-1,1.041341901E0
1.106084906E1,3.309265077E-1,-6.322268844E-1,1.101815701E0
1.108213896E1,3.694098890E-1,-4.752391577E-1,1.203827262E0
1.110342886E1,4.665345848E-1,-4.117110670E-1,1.343100429E0
1.112471880E1,5.636593103E-1,-5.558710098E-1,1.139077425E0
1.114600870E1,5.960342288E-1,-6.065713167E-1,1.055391312E0
1.116729859E1,6.009209752E-1,-4.789042473E-1,1.176949978E0
1.118858849E1,4.769189954E-1,-4.795151055E-1,1.319277406E0
1.120987839E1,3.614688516E-1,-2.229592502E-1,1.315612316E0
1.123116833E1,3.254288733E-1,-5.540384650E-1,1.211157441E0
1.125245823E1,2.832804024E-1,-6.963658929E-1,1.238034725E0
1.127374813E1,-1.298050396E-2,-5.173876286E-1,1.371199369E0
1.129503802E1,-4.474456236E-2,2.376195788E-1,1.260025144E0
1.131632792E1,-2.915268540E-1,1.924168915E-1,1.092653036E0
1.133761786E1,-5.132644176E-1,4.947862923E-1,8.745805621E-1
1.135890776E1,-5.016583204E-1,5.265503526E-1,4.915793240E-1
1.138019766E1,-4.399627447E-1,5.271611810E-1,4.443913698E-2
1.140148755E1,-3.593308926E-1,2.968717813E-1,-2.884726226E-1
1.142277745E1,-3.819322586E-1,3.836120665E-1,-4.045335948E-1
1.144406734E1,-4.039227366E-1,2.980934680E-1,-5.218162537E-1
1.146535724E1,-3.660502136E-1,2.504473627E-1,-9.042829871E-1
1.148664719E1,-2.945810854E-1,3.756710589E-1,-1.391128302E0
1.150793708E1,-3.391729295E-1,3.591781855E-1,-1.845598578E0
1.152922698E1,-4.124746025E-1,6.676560640E-1,-1.974487424E0
1.155051688E1,-6.287145615E-1,6.493306160E-1,-1.913402677E0
1.157180677E1,-7.741725445E-1,8.283088803E-1,-1.953718543E0
1.159309667E1,-5.566345453E-1,7.366818190E-1,-2.074666262E0
1.161438656E1,-3.080197275E-1,2.803788781E-1,-2.139416218E0
1.163567646E1,-2.677038014E-1,6.352811307E-2,-2.083829165E0
1.165696641E1,-4.778352678E-1,8.808417320E-1,-1.969600677E0
1.167825630E1,-4.992149174E-1,7.580614686E-1,-1.874308467E0
1.169954620E1,-2.139492482E-1,1.301104724E-1,-1.785735607E0
1.172083609E1,-1.345391124E-1,3.585673273E-1,-1.471149325E0
1.174212599E1,-1.614163816E-1,3.445178568E-1,-1.370359421E0
1.176341589E1,-1.467560530E-1,1.294996142E-1,-1.359975100E0
1.178470578E1,-5.635065958E-2,1.973036677E-1,-1.297057748E0
1.180599568E1,-5.207473040E-2,2.461714447E-1,-1.130907297E0
1.182728557E1,1.206423342E-2,3.066453338E-1,-8.297596574E-1
1.184857547E1,9.391776472E-2,2.809897363E-1,-3.880407214E-1
1.186986536E1,8.719844371E-2,2.504473738E-2,-4.963133857E-2
1.189115526E1,2.014268786E-1,-3.274141252E-1,2.857238054E-1
1.191244516E1,3.742966652E-1,-3.860554695E-1,5.844281316E-1
1.193373510E1,3.773508966E-1,-4.520269632E-1,8.110524416E-1
1.195502500E1,3.510844707E-1,-2.651077211E-1,9.252808690E-1
1.197631490E1,3.077143133E-1,3.848337755E-2,7.682931423E-1
1.199760479E1,2.142546773E-1,3.054236248E-2,6.467345357E-1
1.201889469E1,1.623326540E-1,4.459185153E-2,5.654918551E-1
1.204018458E1,2.790044844E-1,8.246438205E-2,5.679352283E-1
1.206147448E1,4.091149569E-1,1.850867122E-1,6.070294380E-1
1.208276438E1,5.563291311E-1,-1.050657257E-1,6.051968932E-1
1.210405427E1,6.687250137E-1,2.199050039E-2,6.375718117E-1
1.212534417E1,7.291989326E-1,1.838650256E-1,8.134958148E-1
1.214663406E1,7.273663878E-1,8.674030751E-2,8.385405540E-1
1.216792396E1,5.929799676E-1,-1.710372418E-2,8.513683677E-1
1.218921386E1,5.801522136E-1,-2.192941606E-1,1.013853788E0
1.221050375E1,7.017107606E-1,-5.931326747E-1,1.284459114E0
1.223179365E1,7.120952010E-1,-6.151232123E-1,1.351652265E0
1.225308354E1,6.137487888E-1,-4.453076422E-1,1.288735032E0
1.227437344E1,5.398362875E-1,-4.220954478E-1,1.338213682E0
1.229566333E1,5.239542127E-1,-4.025483429E-1,1.319277406E0
1.231695323E1,5.575508475E-1,-4.416425824E-1,1.401130915E0
1.233824312E1,5.691569448E-1,-5.118899941E-1,1.433505774E0
1.235953302E1,5.783196688E-1,-4.098785222E-1,1.283848286E0
1.238082292E1,4.811949134E-1,-8.783983588E-1,1.242310643E0
1.240211281E1,5.825955868E-1,-7.818844914E-1,1.448776960E0
1.242340271E1,3.681881726E-1,-5.436540842E-1,1.645469785E0
1.244469260E1,-4.107947648E-2,-4.257605374E-1,1.600878000E0
1.246598250E1,-2.066190839E-1,1.606528312E-1,1.437781692E0
1.248727240E1,-4.314108789E-1,2.247917950E-1,1.154959440E0
1.250856229E1,-6.342121959E-1,7.220214605E-1,8.336538076E-1
1.252985219E1,-7.399650812E-1,8.961129189E-1,3.455868363E-1
1.255114208E1,-6.189410090E-1,9.138274789E-1,-4.169032723E-2
1.257243198E1,-5.584670901E-1,8.570187092E-1,-2.237228155E-1
1.259372182E1,-5.346440673E-1,6.823163629E-1,-4.240806997E-1
1.261501172E1,-5.926745534E-1,3.463504016E-1,-7.191199064E-1
1.263630162E1,-5.621321797E-1,2.199050188E-1,-1.165114760E0
1.265759151E1,-6.708629727E-1,1.527118087E-1,-1.551170230E0
1.267888141E1,-6.617003083E-1,4.446968138E-1,-1.746030569E0
1.270017130E1,-6.390989423E-1,5.192201734E-1,-1.899964094E0
1.272146120E1,-6.696413159E-1,3.579564989E-1,-2.068557978E0
1.274275109E1,-8.053257465E-1,3.109212518E-1,-2.344660759E0
1.276404099E1,-9.232192636E-1,3.970507085E-1,-2.482101440E0
1.278533089E1,-8.248728514E-1,6.529957056E-1,-2.287241220E0
1.280662078E1,-4.350759685E-1,8.606837988E-1,-2.044123888E0
1.282791063E1,-4.057552814E-1,4.019374847E-1,-2.110095501E0
1.284920052E1,-4.356867969E-1,-3.726168349E-2,-2.155298233E0
1.287049042E1,-1.534753740E-1,-9.651386738E-2,-1.952496886E0
1.289178031E1,-5.573981255E-2,-8.490777016E-2,-1.529179811E0
1.291307021E1,-1.137702987E-1,-9.590301663E-2,-1.334319472E0
1.293436011E1,-2.835858464E-1,-1.032331884E-1,-1.287284255E0
1.295565000E1,-3.263451457E-1,8.490777016E-2,-1.160228014E0
1.297693984E1,-3.067980409E-1,-1.020114943E-1,-8.413657546E-1
1.299822974E1,-2.695363462E-1,-7.269082218E-2,-5.163186193E-1
1.301951964E1,-1.443126649E-1,-2.467822880E-1,-1.302631795E-1
1.304080953E1,1.140757278E-1,-3.891097009E-1,2.338017821E-1
1.306209943E1,3.309265077E-1,-2.058555335E-1,6.992673874E-1
1.308338932E1,4.182776511E-1,-4.275931045E-3,1.254527569E0
1.310467922E1,4.598152637E-1,3.176405653E-2,1.439003468E0
1.312596906E1,6.210789680E-1,-1.459924877E-1,1.300341129E0
1.314725896E1,6.003101468E-1,-3.799470067E-1,1.110367656E0
1.316854886E1,3.150444627E-1,-2.284568697E-1,7.970029712E-1
1.318983875E1,1.910424829E-1,1.673721522E-1,6.839962006E-1
1.321112865E1,2.093679011E-1,3.420744538E-1,6.369609833E-1
1.323241849E1,2.002051920E-1,2.144073844E-1,5.147915483E-1
1.325370839E1,1.977618039E-1,1.814216375E-1,4.482091665E-1
1.327499828E1,1.666085869E-1,4.886778072E-2,6.491779089E-1
1.329628818E1,3.987305462E-1,5.558710173E-2,8.562551737E-1
1.331757807E1,7.230904698E-1,-1.466033421E-2,9.393303990E-1
1.333886792E1,8.391514421E-1,-2.473931462E-1,1.075549364E0
1.336015781E1,8.165500760E-1,-3.860554695E-1,1.269798756E0
1.338144771E1,7.450809479E-1,-1.270562261E-1,1.592936993E0
1.340273760E1,7.658497691E-1,-1.007898003E-1,1.635696292E0
1.342402745E1,7.475243211E-1,-3.787252903E-1,1.362036705E0
1.344531734E1,6.784985662E-1,-3.756710589E-1,1.373031974E0
1.346660724E1,4.653128982E-1,-3.946073353E-1,1.542847514E0
1.348789714E1,3.724641204E-1,-6.139014959E-1,1.486649513E0
1.350918698E1,3.541387022E-1,-4.538595080E-1,1.287513256E0
1.353047688E1,3.724641204E-1,-6.071822047E-1,1.310114622E0
1.355176677E1,2.344126403E-1,-7.098045349E-1,1.567281365E0
1.357305667E1,-6.306997687E-2,-3.823903799E-1,1.694948435E0
1.359434612E1,-1.058292910E-1,1.349972486E-1,1.383416295E0
1.361563508E1,-2.750339806E-1,3.726168275E-1,1.132358074E0
1.363692498E1,-4.986040890E-1,4.929537475E-1,9.723161459E-1
1.365821487E1,-6.140542030E-1,5.387672782E-1,5.361711979E-1
1.367950477E1,-2.750339806E-1,6.126797795E-1,-1.510319859E-1
1.370079461E1,-3.031329513E-1,5.460974574E-1,-6.390989423E-1
1.372208451E1,-1.620272398E-1,5.546492934E-1,-8.438091278E-1
1.374337440E1,-2.255553454E-1,5.405998230E-1,-9.812497497E-1
1.376466425E1,-3.654393852E-1,5.277720094E-1,-1.214593410E0
1.378595414E1,-3.739912212E-1,4.691306949E-1,-1.341038823E0
1.380724404E1,-3.703261614E-1,3.530697227E-1,-1.514519453E0
1.382853394E1,-5.150969625E-1,2.663294077E-1,-1.839490175E0
1.384982378E1,-6.409314871E-1,4.282039404E-1,-2.141248703E0
1.387111368E1,-7.772268057E-1,5.980194807E-1,-2.288462877E0
1.389240357E1,-8.725189567E-1,4.257605374E-1,-2.341606617E0
1.391369342E1,-8.529718518E-1,6.139014959E-1,-2.316561937E0
1.393498331E1,-8.370898366E-1,2.938175201E-1,-2.179121256E0
1.395627321E1,-6.934643388E-1,2.247917950E-1,-2.067336082E0
1.397756305E1,-8.444963396E-2,2.779355049E-1,-1.833992481E0
1.399885295E1,4.260659590E-2,1.594311297E-1,-1.710601449E0
1.402014284E1,-2.005106062E-1,2.883199155E-1,-1.841933608E0
1.404143269E1,-3.819322586E-1,3.078670204E-1,-1.729537606E0
1.406272258E1,-3.507790267E-1,-8.429691941E-2,-1.293392658E0
1.408401248E1,-3.959817290E-1,-7.941014133E-3,-8.780165911E-1
1.410530232E1,-2.976353168E-1,-9.284878522E-2,-8.114342093E-1
1.412659222E1,-6.978929788E-2,-8.612946421E-2,-5.041016936E-1
1.414788211E1,1.476723254E-1,-1.459924877E-1,-7.101099193E-2
1.416917196E1,3.364241421E-1,-2.571666837E-1,2.673983872E-1
1.419046185E1,4.854708612E-1,-1.783674061E-1,6.106945276E-1
1.421175170E1,4.543176591E-1,6.108472496E-2,8.299887180E-1
1.423304201E1,4.628695250E-1,1.637070626E-1,8.141067028E-1
1.425433190E1,5.489989519E-1,-6.658235192E-2,7.047650218E-1
1.427562175E1,5.404471159E-1,-1.038440317E-2,6.406260729E-1
1.429691165E1,5.404471159E-1,-5.497625470E-2,7.206470370E-1
1.431820154E1,5.013529062E-1,2.565558441E-2,7.530219555E-1
1.433949138E1,4.628695250E-1,7.941014133E-3,7.463026643E-1
1.436078128E1,4.292729199E-1,5.803048983E-2,7.621846795E-1
1.438207112E1,4.982986450E-1,1.710372418E-2,7.157602906E-1
1.440336102E1,6.223006248E-1,-1.404948682E-1,7.072083950E-1
1.442465086E1,6.406260729E-1,-2.382304370E-1,8.415948153E-1
1.444594076E1,7.047650218E-1,-2.541124523E-1,1.037676811E0
1.446723066E1,8.593093753E-1,-3.304683566E-1,1.142131686E0
1.448852050E1,9.216157794E-1,-2.767138183E-1,1.276518106E0
1.450981040E1,7.847860456E-1,-3.341334462E-1,1.526354551E0
1.453110024E1,5.373928547E-1,-4.086568058E-1,1.719382286E0
1.455239013E1,6.027535200E-1,-3.781144619E-1,1.623479247E0
1.457367998E1,7.072083950E-1,-2.205158621E-1,1.515359282E0
1.459496987E1,6.070294380E-1,-7.452336699E-2,1.604543090E0
1.461625977E1,3.822376728E-1,-7.336275578E-1,1.554453611E0
1.463754961E1,3.419217467E-1,-6.676560640E-1,1.328440070E0
1.465883951E1,2.386885732E-1,-3.042019308E-1,1.366923451E0
1.468012935E1,-7.528692484E-2,-2.730487287E-1,1.435949206E0
1.470141925E1,-1.192679256E-1,1.331647038E-1,1.482984424E0
1.472270909E1,-7.223268598E-2,2.828222811E-1,1.258803487E0
1.474399899E1,-9.422318637E-2,1.362189353E-1,1.108535051E0
1.476528883E1,-2.328855246E-1,2.602209449E-1,8.880192041E-1
1.478657873E1,-2.774773538E-1,2.638860047E-1,4.207210541E-1
1.480786857E1,-2.750339806E-1,3.970507085E-1,-2.275406010E-2
1.482915847E1,-3.636068404E-1,3.286358118E-1,-3.202366829E-1
1.485044831E1,-4.185830951E-1,3.921639323E-1,-5.615213513E-1
1.487173821E1,-4.680617154E-1,2.480039895E-1,-8.731297851E-1
1.489302805E1,-5.651864409E-1,1.374406368E-1,-1.188326955E0
1.491431795E1,-5.883986354E-1,1.148392856E-1,-1.433887601E0
1.493560779E1,-6.134433746E-1,4.062134326E-1,-1.708768845E0
1.495689769E1,-7.521820664E-1,4.874561131E-1,-2.043513060E0
1.497818753E1,-9.604809880E-1,3.970507085E-1,-2.154687405E0
1.499947743E1,-9.781955481E-1,4.807367921E-1,-2.064281940E0
1.502076727E1,-9.195541739E-1,3.787252903E-1,-2.225545645E0
1.504205717E1,-7.894437313E-1,8.918370306E-2,-2.379479170E0
1.506334701E1,-5.578562617E-1,2.962609231E-1,-2.295182228E0
1.508463691E1,-3.758237660E-1,1.973036677E-1,-2.071612120E0
1.510592675E1,-3.770454824E-1,-2.076880634E-1,-1.761912584E0
1.512721664E1,-2.884726226E-1,2.382304333E-2,-1.581712604E0
1.514850649E1,9.009997360E-3,2.144073844E-1,-1.447937131E0
1.516979638E1,-1.705790907E-1,2.339545041E-1,-1.362418413E0
1.519108623E1,-4.246915579E-1,8.796200156E-2,-1.333708644E0
1.521237607E1,-4.601207078E-1,-2.345653474E-1,-1.086315513E0
1.523366597E1,-3.391729295E-1,-7.757759839E-2,-6.555918455E-1
1.525495581E1,-3.037438095E-1,-1.667613089E-1,-1.180462316E-1
1.527624571E1,-1.601946950E-1,-5.125008225E-1,2.759502530E-1
1.529753555E1,1.030804738E-1,-5.399889946E-1,6.119162440E-1
1.531882545E1,2.857238054E-1,-4.227063060E-1,8.477032781E-1
1.534011529E1,3.339807391E-1,-3.567348123E-1,9.692618847E-1
1.536140513E1,2.533488870E-1,-2.046338320E-1,9.026795626E-1
1.538269503E1,2.124221325E-1,-1.826433241E-1,9.283351302E-1
1.540398487E1,1.238492802E-1,-1.973036677E-1,8.690829277E-1
1.542527477E1,1.867665499E-1,-1.459924877E-1,7.756233215E-1
1.544656461E1,2.502946556E-1,-3.970507160E-2,5.642701387E-1
1.546785446E1,1.556133330E-1,8.551862091E-3,4.946335554E-1
1.548914435E1,1.849340051E-1,1.514901221E-1,5.202891231E-1
1.551043420E1,5.270084739E-1,1.508792788E-1,5.221216679E-1
1.553172409E1,6.992673874E-1,5.314370990E-2,5.984776020E-1
1.555301394E1,5.960342288E-1,2.461714447E-1,6.797202826E-1
1.557430378E1,5.129590034E-1,3.811686933E-1,8.898517489E-1
1.559559368E1,5.483881235E-1,2.357870489E-1,1.296065211E0
1.561688352E1,6.015318632E-1,-1.075091213E-1,1.537349820E0
1.563817336E1,5.789304972E-1,-2.614426315E-1,1.560562015E0
1.565946326E1,4.683671296E-1,1.197260618E-1,1.468934894E0
1.568075310E1,3.657447994E-1,-1.349972486E-1,1.432284117E0
1.570204295E1,3.119902313E-1,-6.407787800E-1,1.454274654E0
1.572333284E1,5.832064152E-1,-5.754181147E-1,1.501309872E0
1.574462269E1,6.968240142E-1,-8.796200156E-2,1.827502251E0
1.576591258E1,3.266505599E-1,1.221694518E-3,1.812231064E0
1.578720243E1,1.470614821E-1,-6.859814525E-1,1.672347069E0
1.580849227E1,3.492519259E-1,-2.583884001E-1,1.496423125E0
1.582978211E1,-2.153236605E-2,-1.539335102E-1,1.252084136E0
1.585107201E1,-1.656923145E-1,2.217375487E-1,1.171452284E0
1.587236185E1,-4.466820657E-1,4.709632397E-1,1.019351363E0
1.589365170E1,-3.855973184E-1,7.611156702E-1,7.304205894E-1
1.591494159E1,-3.929274976E-1,7.256865501E-1,3.113794029E-1
1.593623144E1,-3.721587062E-1,5.509842038E-1,5.955760833E-3
1.595752128E1,-3.245126009E-1,5.375455618E-1,-2.567085624E-1
1.597881118E1,-3.562766612E-1,4.837910235E-1,-5.963396430E-1
1.600010102E1,-1.950129867E-1,2.492256761E-1,-1.019733191E0
1.602139086E1,-1.687465608E-1,2.034121305E-1,-1.434498429E0
1.604268076E1,-1.223221645E-1,3.946073353E-1,-1.776572943E0
1.606397060E1,-2.438807636E-1,3.830012381E-1,-1.816277981E0
1.608526045E1,-3.837648034E-1,2.614426315E-1,-1.708768845E0
1.610655029E1,-3.910949528E-1,2.400629669E-1,-1.760690928E0
1.612784019E1,-4.143071473E-1,3.573456407E-1,-2.088104963E0
1.614913003E1,-4.680617154E-1,3.946073353E-1,-2.404523849E0
1.617041987E1,-5.150969625E-1,5.540384650E-1,-2.360542774E0
1.619170972E1,-5.370874405E-1,7.855495811E-1,-2.257920504E0
1.621299961E1,-3.520007432E-1,5.601469278E-1,-2.133307695E0
1.623428946E1,-1.467560530E-1,2.247917950E-1,-2.026409388E0
1.625557930E1,-4.474456236E-2,2.009687424E-1,-1.894466400E0
1.627686915E1,-2.214321308E-2,2.205158621E-1,-1.898131490E0
1.629815904E1,-1.595838517E-1,-2.260134816E-1,-1.909126759E0
1.631944888E1,-2.829749882E-1,-2.327328026E-1,-1.611033320E0
1.634073873E1,-3.654393852E-1,-3.665083647E-1,-1.239638209E0
1.636202857E1,-3.746020794E-1,-5.216635466E-1,-9.849148393E-1
1.638331842E1,-2.988570333E-1,-6.444438696E-1,-5.010474920E-1
1.640460831E1,-7.773031294E-2,-6.499415040E-1,7.437065244E-2
1.642589816E1,1.293469071E-1,-3.884988427E-1,5.599942207E-1
1.644718800E1,2.655658424E-1,-6.047387794E-2,9.203941226E-1
1.646847784E1,2.857238054E-1,-1.881409585E-1,1.030346632E0
1.648976769E1,3.028275371E-1,-2.553341687E-1,8.501466513E-1
1.651105758E1,4.243861437E-1,-1.368297935E-1,8.220477104E-1
1.653234743E1,3.571929336E-1,1.020114943E-1,7.206470370E-1
1.655363727E1,3.828485310E-1,2.565558553E-1,5.978667736E-1
1.657492711E1,5.092939138E-1,4.318690002E-1,6.400152445E-1
1.659621701E1,5.893148780E-1,3.359659910E-1,6.833853722E-1
1.661750685E1,6.943806410E-1,1.850867122E-1,6.638382673E-1
1.663879670E1,8.617527485E-1,5.192201585E-2,7.182036638E-1
1.666008654E1,8.849649429E-1,1.172826737E-1,8.434273601E-1
1.668137638E1,7.145385742E-1,1.099525094E-1,1.007745266E0
1.670266623E1,5.202891231E-1,2.180724740E-1,1.110978484E0
1.672395607E1,5.325061083E-1,8.918370306E-2,1.140299082E0
1.674524597E1,7.701256871E-1,-1.997470558E-1,1.286291599E0
1.676653581E1,8.867974877E-1,-7.879929990E-2,1.587439299E0
1.678782566E1,8.727480173E-1,-1.618745178E-1,1.625311852E0
1.680911550E1,7.896727920E-1,-3.304683566E-1,1.463437319E0
1.683040534E1,7.853968740E-1,-4.056025743E-1,1.464048147E0
1.685169519E1,8.434273601E-1,-8.441908956E-1,1.347376347E0
1.687298503E1,6.736118197E-1,-7.782194018E-1,1.164733052E0
1.689427493E1,5.141806602E-1,-4.727957845E-1,1.176339149E0
1.691556477E1,4.298837483E-1,-3.316900730E-1,1.396854997E0
1.693685461E1,-7.223268598E-2,-1.349972486E-1,1.738318563E0
1.695814446E1,1.702736765E-1,3.689517379E-1,1.309503794E0
1.697943430E1,7.192726433E-2,2.791571915E-1,7.114843726E-1
1.700072414E1,4.581354442E-4,2.003578991E-1,8.586985469E-1
1.702201399E1,-1.968455315E-1,2.565558553E-1,6.045860648E-1
1.704330383E1,-2.157817930E-1,3.915531039E-1,1.482831687E-1
1.706459373E1,-3.434488773E-1,6.725428104E-1,-2.573194206E-1
1.708588357E1,-4.472928941E-1,7.995990515E-1,-5.114318728E-1
1.710717342E1,-3.953709006E-1,5.015056133E-1,-7.924979329E-1
1.712846326E1,-3.587200642E-1,3.707842827E-1,-1.176110029E0
1.714975310E1,-5.065450668E-1,1.960819662E-1,-1.488863826E0
1.717104295E1,-5.358657837E-1,4.929537475E-1,-1.661122799E0
1.719233279E1,-5.951179266E-1,5.638120174E-1,-1.700217009E0
1.721362263E1,-6.067240238E-1,4.422534108E-1,-1.788789868E0
1.723491248E1,-5.334223509E-1,4.269822240E-1,-1.918900251E0
1.725620232E1,-4.784461260E-1,1.508792788E-1,-2.125977516E0
1.727749216E1,-5.138752460E-1,4.428642690E-1,-2.276856899E0
1.729878201E1,-4.167505503E-1,4.355340898E-1,-2.160184860E0
1.732007185E1,-4.454603493E-1,4.856235683E-1,-2.036182880E0
1.734136170E1,-4.668400288E-1,2.437280566E-1,-2.011138201E0
1.736265154E1,-1.699682474E-1,-6.108472589E-3,-1.794898272E0
1.738394138E1,2.794626169E-2,2.296785712E-1,-1.481533647E0
1.740523123E1,-1.479777545E-1,2.883199155E-1,-1.460154057E0
1.742652107E1,-2.915268540E-1,-1.588202827E-2,-1.463819146E0
1.744781092E1,-2.872509360E-1,-1.203369126E-1,-1.209706664E0
1.746910076E1,-3.440597057E-1,-2.895416021E-1,-7.332457900E-1
1.749039060E1,-2.964136302E-1,-3.005368412E-1,-3.929274976E-1
1.751168045E1,-1.406475753E-1,-3.274141252E-1,-9.926267900E-3
1.753297029E1,2.893888950E-1,-5.002838969E-1,2.576248348E-1
1.755426013E1,3.492519259E-1,-3.695625961E-1,5.398362875E-1
1.757554998E1,3.101576865E-1,-1.728697717E-1,7.609629631E-1
1.759683982E1,3.437542915E-1,2.199050039E-2,7.988355160E-1
1.761812966E1,2.851129472E-1,5.070032179E-2,6.864396334E-1
1.763941951E1,3.138227761E-1,-1.038440317E-1,7.163711190E-1
1.766070935E1,2.637332976E-1,-7.513421029E-2,7.010999322E-1
1.768199920E1,2.673983872E-1,-1.563768983E-1,7.383615971E-1
1.770328904E1,2.258607745E-1,-1.545443535E-1,7.768449783E-1
1.772457888E1,1.788255423E-1,-9.834641218E-2,8.153283596E-1
1.774586873E1,3.126010895E-1,-1.869192570E-1,8.165500760E-1
1.776715857E1,4.121691883E-1,-3.445178568E-1,8.892409205E-1
1.778844842E1,4.903576374E-1,-1.240019947E-1,1.020573020E0
1.780973826E1,5.673243999E-1,-1.099525094E-1,1.039509296E0
1.783102810E1,6.473453641E-1,-2.089097649E-1,1.109145880E0
1.785231795E1,5.789304972E-1,-1.924168915E-1,1.159235358E0
1.787360779E1,5.599942207E-1,-4.886778072E-2,1.311947227E0
1.789489763E1,5.893148780E-1,-2.186833173E-1,1.559951186E0
1.791618748E1,5.832064152E-1,-3.127537966E-1,1.547734261E0
1.793747732E1,4.940227270E-1,-1.710372269E-1,1.599656224E0
1.795876716E1,3.944546282E-1,-3.536805511E-1,1.609429836E0
1.798005701E1,4.017847776E-1,-4.239279926E-1,1.482373595E0
1.800134685E1,3.865135908E-1,-5.173876286E-1,1.270409584E0
1.802263670E1,2.735068500E-1,-5.943543911E-1,1.307060480E0
1.804392649E1,1.531699449E-1,-4.312581718E-1,1.537960649E0
1.806521633E1,1.366770715E-1,-2.266243398E-1,1.378529549E0
1.808650618E1,-9.300149232E-2,-6.352811307E-2,1.271631241E0
1.810779602E1,-1.296523362E-1,2.522799075E-1,1.159235358E0
1.812908586E1,-1.809635013E-1,4.886778072E-2,8.593093753E-1
1.815037571E1,-2.225011140E-1,1.630962193E-1,4.695888162E-1
1.817166555E1,-2.524326444E-1,4.092676565E-2,2.002051920E-1
1.819295540E1,-2.365505993E-1,2.229592502E-1,4.932591692E-2
1.821424524E1,-2.078407854E-1,3.603998944E-2,-1.027750522E-1
1.823553508E1,-2.206685692E-1,1.203369126E-1,-4.680617154E-1
1.825682493E1,-1.412584335E-1,-1.026223376E-1,-8.193752170E-1
1.827811472E1,-1.907370538E-1,-9.040539712E-2,-1.146789432E0
1.829940456E1,-2.884726226E-1,1.893626451E-1,-1.410064578E0
1.832069440E1,-5.095993280E-1,3.701734245E-1,-1.442439437E0
1.834198425E1,-5.737382770E-1,3.353551328E-1,-1.441828609E0
1.836327409E1,-5.346440673E-1,2.309002578E-1,-1.585377693E0
1.838456394E1,-4.692834020E-1,1.270562261E-1,-1.966546416E0
1.840585378E1,-5.224271417E-1,1.160609797E-1,-2.253033876E0
1.842714357E1,-5.254813433E-1,2.137965411E-1,-2.377646685E0
1.844843342E1,-4.979932308E-1,2.009687424E-1,-2.386198521E0
1.846972326E1,-4.069769979E-1,3.787253052E-2,-2.243260145E0
1.849101310E1,-3.959817290E-1,4.947862774E-2,-2.009916544E0
1.851230295E1,-1.314848661E-1,3.909422457E-2,-1.851096272E0
1.853359274E1,6.948387623E-2,1.246128380E-1,-1.912791848E0
1.855488258E1,1.145338640E-2,1.294996142E-1,-1.954329491E0
1.857617243E1,-2.451024652E-1,5.314370990E-2,-1.515741110E0
1.859746227E1,-2.053973973E-1,-1.453816444E-1,-1.003240228E0
1.861875211E1,-1.846285909E-1,-4.428642690E-1,-8.890118003E-1
1.864004190E1,-4.069769979E-1,-5.528167486E-1,-7.166765332E-1
1.866133175E1,-4.210264683E-1,-5.986303091E-1,-3.410054743E-1
1.868262159E1,-2.896943092E-1,-5.497625470E-1,8.658760041E-2
1.870391144E1,-1.327065676E-1,-5.748072863E-1,4.873034060E-1
1.872520128E1,-7.773031294E-2,-4.837910235E-1,7.365291119E-1
1.874649107E1,-1.363716573E-1,-3.927747905E-1,9.320002198E-1
1.876778092E1,-7.162184268E-2,-4.104893506E-1,1.046228647E0
1.878907076E1,-8.811471611E-2,-6.139014959E-1,1.069440842E0
1.881036060E1,-2.695363462E-1,-5.351021886E-1,9.393303990E-1
1.883165045E1,-2.976353168E-1,-2.651077211E-1,8.208259940E-1
1.885294024E1,-1.236965694E-2,-3.127537966E-1,7.976137996E-1
1.887423008E1,1.843231618E-1,-3.274141252E-1,7.884510756E-1
1.889551993E1,1.104106456E-1,-1.325538605E-1,9.313893318E-1
1.891680977E1,1.586675793E-1,-1.313321590E-1,1.184890985E0
1.893809956E1,3.144336343E-1,-1.606528312E-1,1.283237338E0
1.895938940E1,4.017847776E-1,-1.637070626E-1,1.338824511E0
1.898067925E1,3.877353072E-1,-3.787252903E-1,1.441446781E0
1.900196909E1,4.769189954E-1,-3.219164908E-1,1.538571477E0
1.902325888E1,5.801522136E-1,-1.154501289E-1,1.580109119E0
1.904454873E1,5.887040496E-1,-1.838650256E-1,1.570946455E0
1.906583857E1,4.756973088E-1,-2.101314515E-1,1.553842664E0
1.908712836E1,5.276193023E-1,-3.096995652E-1,1.406017661E0
1.910841821E1,6.998782754E-1,-4.978405237E-1,1.383416295E0
1.912970805E1,5.050179958E-1,-2.828222811E-1,1.361425877E0
1.915099790E1,3.718532622E-1,-4.355340898E-1,1.118919492E0
1.917228769E1,3.394783735E-1,-1.997470558E-1,1.200773001E0
1.919357753E1,1.513374150E-1,-5.057815313E-1,1.454885483E0
1.921486737E1,-1.656923145E-1,-1.075091213E-1,1.844606042E0
1.923615716E1,-4.216373265E-1,5.497625098E-3,1.532463074E0
1.925744701E1,-3.043546379E-1,1.624853760E-1,1.239867210E0
1.927873685E1,-4.045335948E-1,3.377985358E-1,9.515473247E-1
1.930002670E1,-4.112529159E-1,4.062134326E-1,7.634063363E-1
1.932131649E1,-3.129065037E-1,4.208737612E-1,4.384356141E-1
1.934260633E1,-3.367295563E-1,4.929537475E-1,1.831014603E-1
1.936389618E1,-3.923166394E-1,4.697415531E-1,-1.076618284E-1
1.938518597E1,-5.144860744E-1,5.662553906E-1,-3.819322586E-1
1.940647581E1,-7.479060888E-1,5.680879354E-1,-5.981721878E-1
1.942776566E1,-7.075138092E-1,2.559449971E-1,-8.224294782E-1
1.944905545E1,-7.741725445E-1,3.390202224E-1,-1.058216572E0
1.947034529E1,-7.521820664E-1,3.011476994E-1,-1.201154828E0
1.949163513E1,-7.204179764E-1,3.597890437E-1,-1.281175733E0
1.951292493E1,-6.885775924E-1,3.396310806E-1,-1.477257729E0
1.953421477E1,-7.552362680E-1,3.573456407E-1,-1.903018236E0
1.955550461E1,-8.963419795E-1,5.277720094E-1,-2.227988958E0
1.957679440E1,-9.513182640E-1,4.984513521E-1,-2.363597155E0
1.959808425E1,-8.181535602E-1,9.584193230E-1,-2.195614100E0
1.961937404E1,-6.427640319E-1,5.302154422E-1,-1.954329491E0
1.964066388E1,-2.279987335E-1,3.860554695E-1,-1.792454958E0
1.966195373E1,-6.490252167E-2,3.109212518E-1,-2.185840607E0
1.968324352E1,-2.438807636E-1,1.368297935E-1,-2.013581514E0
1.970453336E1,-1.705790907E-1,4.214845970E-2,-1.328210950E0
1.972582321E1,-1.039967462E-1,9.834641218E-2,-1.157173753E0
1.974711300E1,-3.800997138E-1,-2.137965336E-2,-1.211539149E0
1.976840284E1,-4.503471553E-1,1.160609815E-2,-1.129074812E0
1.978969263E1,-3.110739589E-1,-1.282779220E-2,-9.384904504E-1
1.981098248E1,-2.444916219E-1,2.565558553E-1,-6.439857483E-1
1.983227227E1,-8.506047726E-2,-2.370087355E-1,-4.314108789E-1
1.985356211E1,3.405473381E-2,-4.856235683E-1,2.183778957E-2
1.987485196E1,1.928750277E-1,-4.813476503E-1,5.233433843E-1
1.989614175E1,2.576248348E-1,-3.274141252E-1,7.481352091E-1
1.991743159E1,3.034383655E-1,-5.125008225E-1,7.676823139E-1
1.993872138E1,2.521272004E-1,-4.361449480E-1,8.281561732E-1
1.996001123E1,1.440072358E-1,-4.300364852E-1,9.045121074E-1
1.998130102E1,9.452861547E-2,-1.716480851E-1,8.501466513E-1
2.000259086E1,1.922641695E-1,1.148392856E-1,7.768449783E-1
2.002388071E1,4.182776511E-1,1.667613089E-1,6.485670805E-1
2.004517050E1,4.524851143E-1,2.046338320E-1,5.160132051E-1
2.006646034E1,2.942756712E-1,4.831801951E-1,5.196782947E-1
2.008775013E1,2.612899244E-1,6.896465421E-1,5.141806602E-1
2.010903998E1,3.455868363E-1,5.186093450E-1,4.372139275E-1
2.013032977E1,4.298837483E-1,3.316900730E-1,3.791834414E-1
2.015161961E1,4.610369802E-1,2.449497581E-1,4.304946065E-1
2.017290941E1,5.612159371E-1,1.319430023E-1,5.349494815E-1
2.019419925E1,7.157602906E-1,2.614426315E-1,7.151494026E-1
2.021548904E1,7.230904698E-1,3.066453338E-1,9.570449591E-1
2.023677888E1,7.243121266E-1,1.704263836E-1,1.182447553E0
2.025806868E1,8.709154725E-1,-5.558710173E-2,1.282626510E0
2.027935852E1,9.356653094E-1,-1.893626526E-2,1.066997409E0
2.030064831E1,9.436063170E-1,-1.282779276E-1,8.984035850E-1
2.032193816E1,7.933378816E-1,-2.608317733E-1,9.161182046E-1
2.034322795E1,6.363501549E-1,-5.803048983E-2,1.098150611E0
2.036451779E1,5.404471159E-1,1.014006436E-1,1.271020412E0
2.038580758E1,5.880932212E-1,-4.129327536E-1,1.384027123E0
2.040709743E1,4.219427407E-1,-4.807367921E-1,1.487871170E0
2.042838722E1,4.256078303E-1,-3.109212518E-1,1.157402873E0
2.044967706E1,3.920112252E-1,2.870982140E-2,1.024238110E0
2.047096685E1,2.794626169E-2,1.826433241E-1,1.107924223E0
2.049225670E1,-1.021642014E-1,4.141544402E-1,9.344435930E-1
2.051354649E1,-3.177932799E-1,2.400629669E-1,7.359182239E-1
2.053483633E1,-3.196258247E-1,2.901524603E-1,3.064926267E-1
2.055612612E1,-1.992889196E-1,2.516690791E-1,-3.436015919E-2
2.057741597E1,-1.522536725E-1,2.907632887E-1,-3.654393852E-1
2.059870576E1,-2.457133085E-1,3.396310806E-1,-5.780141950E-1
2.061999560E1,-3.825430870E-1,4.630222321E-1,-7.454627156E-1
2.064128540E1,-3.709369898E-1,4.520269632E-1,-1.017289758E0
2.066257524E1,-2.958027720E-1,5.803049207E-1,-1.418005586E0
2.068386503E1,-3.361186981E-1,4.178195298E-1,-1.675172210E0
2.070515482E1,-4.802786708E-1,3.090887070E-1,-1.727705121E0
2.072644467E1,-6.109999418E-1,5.784723759E-1,-1.769242764E0
2.074773446E1,-4.112529159E-1,5.393781066E-1,-1.896909833E0
2.076902430E1,-1.827960461E-1,4.227063060E-1,-1.930506349E0
2.079031409E1,-2.970244884E-1,3.579564989E-1,-1.922565341E0
2.081160394E1,-3.324536085E-1,4.935645759E-1,-1.860869765E0
2.083289373E1,-5.940489471E-2,3.909422457E-1,-1.828494906E0
2.085418352E1,4.581354442E-4,3.426853120E-1,-1.711823106E0
2.087547336E1,1.287360638E-1,3.744493723E-1,-1.448547959E0
2.089676316E1,2.637332976E-1,2.101314515E-1,-1.184661865E0
2.091805300E1,1.989834905E-1,3.408527672E-1,-1.174888372E0
2.093934279E1,7.864658535E-2,2.131856978E-1,-1.253076792E0
2.096063258E1,-1.320957243E-1,1.899735034E-1,-1.179775119E0
2.098192243E1,-2.780882120E-1,1.747023165E-1,-9.806389213E-1
2.100321222E1,-2.347180545E-1,2.761029601E-1,-7.178982496E-1
2.102450201E1,-1.542389300E-2,-6.902574003E-2,-4.234698713E-1
2.104579185E1,7.620319724E-2,-3.286358118E-1,-1.852394342E-1
2.106708165E1,1.727170646E-1,-1.001789495E-1,1.324011385E-1
2.108837149E1,2.942756712E-1,-1.563768983E-1,2.704526186E-1
2.110966128E1,3.382566571E-1,7.879929990E-2,4.237752855E-1
2.113095107E1,3.504736125E-1,6.108472589E-4,5.282301903E-1
2.115224092E1,2.783936262E-1,5.558710173E-2,6.277982593E-1
2.117353071E1,2.362451702E-1,2.993151546E-2,6.907155514E-1
2.119482050E1,7.925742865E-2,4.703523964E-2,6.534538269E-1
2.121611034E1,2.901524538E-3,-2.260134928E-2,6.632274389E-1
2.123740013E1,8.399149403E-3,1.026223376E-1,8.593093753E-1
2.125868993E1,1.201841980E-1,-1.881409585E-1,8.703046441E-1
2.127997977E1,4.616478086E-1,-4.361449480E-1,7.261446714E-1
2.130126956E1,6.387935281E-1,-2.846548259E-1,6.815528274E-1
2.132255935E1,6.937697530E-1,-1.056765765E-1,8.275453448E-1
2.134384920E1,7.291989326E-1,3.665083647E-2,9.210049510E-1
2.136513899E1,7.627955079E-1,-2.229592502E-1,9.265025854E-1
2.138642878E1,8.214368224E-1,-5.320479870E-1,1.020573020E0
2.140771857E1,7.120952010E-1,-5.418215394E-1,1.215433359E0
2.142900842E1,5.386145711E-1,-4.153761268E-1,1.351041436E0
2.145029821E1,4.995203316E-1,-3.518480062E-1,1.301562786E0
2.147158800E1,5.783196688E-1,-3.848337829E-1,1.139688253E0
2.149287784E1,4.732539058E-1,-3.035911024E-1,1.182447553E0
2.151416763E1,3.718532622E-1,-3.261924386E-1,1.241699815E0
2.153545743E1,4.335488379E-1,-1.618745178E-1,1.275296330E0
2.155674727E1,3.889569938E-1,-2.443389036E-2,1.411515355E0
2.157803706E1,1.861557066E-1,-4.159869850E-1,1.408461094E0
2.159932685E1,2.796153426E-1,-5.186093450E-1,1.386470556E0
2.162061665E1,2.454078794E-1,-3.542914093E-1,1.492758036E0
2.164190649E1,-2.634278834E-1,1.038440317E-2,1.230704546E0
2.166319628E1,-2.841966748E-1,3.225273490E-1,1.162289619E0
2.168448607E1,-4.124746025E-1,3.726168275E-1,1.161067963E0
2.170577586E1,-3.984251320E-1,3.775036037E-1,7.908945084E-1
2.172706571E1,-3.403946459E-1,3.921639323E-1,3.364241421E-1
2.174835550E1,-1.308740228E-1,7.617265582E-1,-1.180462316E-1
2.176964529E1,-1.992889196E-1,5.754181147E-1,-2.078407854E-1
2.179093513E1,-3.251234591E-1,5.344913602E-1,-2.603736520E-1
2.181222493E1,-2.713688910E-1,3.280249834E-1,-5.346440673E-1
2.183351472E1,-3.550549746E-1,-1.362189353E-1,-8.254837394E-1
2.185480451E1,-3.312319219E-1,1.466033421E-2,-1.152287006E0
2.187609430E1,-4.747810364E-1,6.474980712E-2,-1.270791411E0
2.189738414E1,-7.081246972E-1,2.724378705E-1,-1.293392658E0
2.191867394E1,-7.387434244E-1,2.522799075E-1,-1.369748592E0
2.193996373E1,-7.735617161E-1,1.918060333E-1,-1.644629836E0
2.196125352E1,-7.491278052E-1,4.966188073E-1,-1.968378901E0
2.198254331E1,-5.309789777E-1,7.073611021E-1,-2.042291403E0
2.200383316E1,-3.794888556E-1,9.474241138E-1,-1.852317929E0
2.202512295E1,-2.426590770E-1,5.375455618E-1,-1.760690928E0
2.204641274E1,-1.542389300E-2,7.348492742E-1,-1.950053573E0
2.206770253E1,1.476723254E-1,6.310052276E-1,-2.030074596E0
2.208899232E1,1.446180940E-1,8.069292307E-1,-1.914624333E0
2.211028211E1,1.708845198E-1,6.432221532E-1,-1.788179040E0
2.213157196E1,3.113794029E-1,3.665083647E-1,-1.688610911E0
2.215286175E1,2.447970361E-1,4.862344265E-1,-1.422892332E0
2.217415154E1,1.873773932E-1,1.905843467E-1,-1.256741881E0
2.219544133E1,1.342336833E-1,4.825693369E-2,-1.109527707E0
2.221673112E1,7.803573459E-2,-1.343864016E-2,-7.833352685E-1
2.223802092E1,8.231166750E-2,-3.878880143E-1,-3.892624080E-1
2.225931076E1,5.054761097E-2,-5.735855699E-1,-1.149920002E-1
2.228060055E1,1.415638477E-1,-5.204418898E-1,1.495048702E-1
2.230189034E1,3.297048211E-1,-2.089097649E-1,4.964661002E-1
2.232318013E1,4.494308829E-1,1.521009654E-1,7.835643291E-1
2.234446993E1,3.877353072E-1,5.302154422E-1,8.159392476E-1
2.236575972E1,2.191414535E-1,3.622324169E-1,6.858287454E-1
2.238704951E1,9.880454093E-2,6.108472589E-4,5.862606764E-1
2.240833935E1,-6.368082762E-2,-1.856975704E-1,5.416688323E-1
2.242962914E1,-1.644706279E-1,5.986303091E-2,6.736118197E-1
2.245091894E1,-2.750339806E-1,1.081199646E-1,8.275453448E-1
2.247220873E1,-1.760767251E-1,-1.783674061E-1,7.182036638E-1
2.249349852E1,-8.567132801E-2,-3.707842827E-1,6.082511544E-1
2.251478831E1,4.932591692E-2,-3.463504016E-1,7.676823139E-1
2.253607810E1,3.205420971E-1,-4.123218954E-1,8.672503829E-1
2.255736790E1,5.612159371E-1,-3.542914093E-1,8.031114340E-1
2.257865769E1,7.004891038E-1,-4.074351192E-1,8.287670016E-1
2.259994748E1,7.902836204E-1,-9.956810623E-2,1.038287640E0
2.262123727E1,8.819107413E-1,-1.252236813E-1,1.274685502E0
2.264252711E1,8.318212628E-1,-1.722589284E-1,1.305838704E0
2.266381690E1,6.510104537E-1,-3.274141252E-1,1.216044188E0
2.268510670E1,5.832064152E-1,-3.402419090E-1,1.209935665E0
2.270639649E1,8.183826208E-1,-3.860554695E-1,1.223374367E0
2.272768628E1,7.139277458E-1,1.771457121E-2,1.222152710E0
2.274897607E1,4.518742561E-1,-1.270562261E-1,1.132358074E0
2.277026586E1,3.773508966E-1,-7.476770282E-1,1.159846187E0
2.279155566E1,4.182776511E-1,-7.085828483E-2,1.446944475E0
2.281284545E1,1.067455560E-1,-2.754921019E-1,1.526354551E0
2.283413524E1,-1.498102844E-1,-1.575985998E-1,1.623479247E0
2.285542503E1,-2.458660305E-2,3.176405653E-2,1.421899676E0
2.287671482E1,-1.064401343E-1,2.137965336E-2,9.674293399E-1
2.289800461E1,-3.293993771E-1,4.214845970E-2,8.079982400E-1
2.291929441E1,-4.497362971E-1,2.260134816E-1,6.436802745E-1
2.294058420E1,-3.892624080E-1,4.697415531E-1,2.075353563E-1
2.296187399E1,-4.362976551E-1,5.589252710E-1,-1.510319859E-1
2.298316383E1,-5.291464329E-1,2.663294077E-1,-4.308000207E-1
2.300445362E1,-5.212054253E-1,2.302894145E-1,-6.604785919E-1
2.302574342E1,-5.871769190E-1,3.439069986E-1,-8.963419795E-1
2.304703316E1,-6.836907864E-1,7.085828483E-2,-1.016678929E0
2.306832300E1,-6.152759194E-1,1.740914732E-1,-1.242692351E0
2.308961279E1,-6.488724947E-1,1.325538605E-1,-1.579269290E0
2.311090258E1,-6.897992492E-1,4.703523964E-2,-1.923787117E0
2.313219237E1,-7.668423653E-1,2.076880634E-1,-2.081996441E0
2.315348216E1,-6.513158679E-1,4.740174711E-1,-1.988536954E0
2.317477196E1,-5.804576278E-1,2.938175201E-1,-1.852928758E0
2.319606170E1,-5.572454333E-1,1.056765765E-1,-1.803450227E0
2.321735154E1,-4.845545888E-1,5.638120174E-1,-1.874919295E0
2.323864128E1,-3.171824515E-1,4.422534108E-1,-1.965324640E0
2.325993112E1,-3.538332880E-1,2.828222811E-1,-1.841933608E0
2.328122092E1,-2.506000996E-1,5.467082858E-1,-1.532233953E0
2.330251066E1,-8.078455180E-2,3.396310806E-1,-1.377689600E0
2.332380045E1,-7.773031294E-2,5.381564498E-1,-1.584766865E0
2.334509024E1,-1.400367320E-1,2.638860047E-1,-1.644629836E0
2.336638003E1,-2.615953386E-1,1.032331884E-1,-1.260406971E0
2.338766982E1,-7.895200700E-2,-1.771457046E-1,-7.918871045E-1
2.340895961E1,7.559234649E-2,-2.535016239E-1,-4.869979918E-1
2.343024940E1,1.305686086E-1,-3.237490356E-1,-7.345438004E-2
2.345153920E1,2.093679011E-1,-2.889307439E-1,2.594573796E-1
2.347282899E1,3.681881726E-1,-1.154501289E-1,4.237752855E-1
2.349411878E1,4.976878166E-1,-2.015795931E-2,6.058077812E-1
2.351540857E1,5.361711979E-1,9.529217333E-2,7.829535007E-1
2.353669836E1,5.270084739E-1,3.426853120E-1,8.122741580E-1
2.355798816E1,4.921901822E-1,4.618005157E-1,6.766660213E-1
2.357927795E1,4.372139275E-1,3.127537966E-1,4.928010404E-1
2.360056774E1,1.666085869E-1,-1.215586066E-1,4.182776511E-1
2.362185753E1,1.128540337E-1,-6.841489673E-2,6.113054156E-1
2.364314727E1,4.451549351E-1,-9.895725548E-2,7.133168578E-1
2.366443706E1,4.958552718E-1,-3.035911024E-1,5.777087808E-1
2.368572685E1,4.085040987E-1,-2.693836391E-1,6.168029904E-1
2.370701665E1,4.427115619E-1,-2.522799075E-1,8.641961813E-1
2.372830644E1,4.237752855E-1,-1.466033421E-2,9.991934299E-1
2.374959623E1,5.453338623E-1,-2.382304333E-2,1.071884274E0
2.377088602E1,7.395833135E-1,-2.864873707E-1,1.199551344E0
2.379217581E1,7.689039707E-1,-4.642439187E-1,1.290567517E0
2.381346560E1,7.114843726E-1,-5.418215394E-1,1.539793253E0
2.383475540E1,5.404471159E-1,-1.087308154E-1,1.590493560E0
2.385604513E1,4.323271513E-1,-1.643179059E-1,1.453663707E0
2.387733493E1,5.990884304E-1,-3.567348123E-1,1.364480019E0
2.389862472E1,5.642701387E-1,-1.319430023E-1,1.497033954E0
2.391991451E1,3.724641204E-1,-2.009687424E-1,1.684563994E0
2.394120430E1,3.413109183E-1,-6.328377724E-1,1.785964727E0
2.396249409E1,2.948864996E-1,-9.779664874E-1,1.688229084E0
2.398378388E1,2.991624475E-1,-1.180233240E0,1.329661727E0
2.400507368E1,1.238492802E-1,-6.572716236E-1,1.161067963E0
2.402636342E1,-3.397837877E-1,-4.275931045E-3,1.120751977E0
2.404765321E1,-5.670189857E-1,3.903313875E-1,1.035844207E0
2.406894300E1,-9.311602712E-1,7.275190949E-1,8.971819282E-1
2.409023279E1,-7.888329029E-1,8.154810667E-1,4.860817194E-1
2.411152258E1,-6.580352187E-1,6.841489077E-1,9.636115283E-2
2.413281237E1,-5.474718809E-1,5.381564498E-1,9.086353332E-2
2.415410211E1,-5.651864409E-1,3.060344756E-1,2.000524849E-2
2.417539190E1,-3.617742956E-1,-1.087308154E-1,-3.422271907E-1
2.419668170E1,-3.116848171E-1,-2.669402659E-1,-8.719081283E-1
2.421797149E1,-4.772244096E-1,-4.312581718E-1,-1.248190045E0
2.423926128E1,-6.549809575E-1,-7.391251624E-2,-1.433276772E0
2.426055107E1,-8.413657546E-1,2.852656841E-1,-1.372192025E0
2.428184081E1,-8.486959338E-1,6.847597957E-1,-1.421059847E0
2.430313060E1,-8.774057031E-1,1.899735034E-1,-1.534066558E0
2.432442040E1,-7.619556189E-1,1.637070626E-1,-1.809558630E0
2.434571019E1,-5.841227174E-1,-3.909422457E-2,-2.014192581E0
2.436699993E1,-4.998257756E-1,1.661504507E-1,-1.897520661E0
2.438828972E1,-3.959817290E-1,2.260134928E-2,-1.766799331E0
2.440957951E1,-3.495573401E-1,-4.214845970E-2,-1.823608160E0
2.443086930E1,-4.094203711E-1,2.504473738E-2,-1.788179040E0
2.445215909E1,-1.345391124E-1,2.522799075E-1,-1.538953304E0
2.447344883E1,1.043021679E-1,1.844758689E-1,-1.452213049E0
2.449473862E1,-1.101052165E-1,3.481829539E-2,-1.487031341E0
2.451602842E1,-1.687465608E-1,1.630962193E-1,-1.381354690E0
2.453731821E1,-6.306997687E-2,-1.997470558E-1,-9.922450185E-1
2.455860795E1,-1.705790907E-1,-2.932066843E-2,-6.647545099E-1
2.457989774E1,-1.595838517E-1,-4.239279926E-1,-5.419742465E-1
2.460118753E1,-1.333174109E-1,-6.920899153E-1,-3.428380191E-1
2.462247732E1,1.511846948E-2,-7.904363275E-1,-3.680354729E-2
2.464376706E1,2.295258641E-1,-5.485408306E-1,2.930539846E-1
2.466505685E1,2.185306102E-1,8.612946421E-2,7.982246280E-1
2.468634664E1,3.089359999E-1,3.567348123E-1,1.073716760E0
2.470763644E1,4.622586668E-1,3.017585576E-1,9.991934299E-1
2.472892618E1,5.526640415E-1,-2.565558441E-2,8.703046441E-1
2.475021597E1,4.653128982E-1,-2.498365343E-1,8.318212628E-1
2.477150576E1,3.437542915E-1,-2.895416021E-1,7.334748507E-1
2.479279555E1,1.739387512E-1,-2.932066843E-2,7.456917763E-1
2.481408529E1,6.093201414E-2,6.444438696E-1,7.481352091E-1
2.483537508E1,4.443913698E-2,5.289937258E-1,7.389724851E-1
2.485666487E1,1.488940120E-1,-1.417165697E-1,6.711684465E-1
2.487795461E1,3.009949923E-1,-4.892886579E-1,6.015318632E-1
2.489924440E1,2.582356930E-1,-2.180724740E-1,5.056288242E-1
2.492053420E1,-2.519745007E-2,-2.626643144E-2,5.215108395E-1
2.494182399E1,-5.573981255E-2,-1.630962193E-1,6.125270724E-1
2.496311373E1,1.928750277E-1,-4.850127101E-1,6.937697530E-1
2.498440352E1,3.742966652E-1,-5.357130170E-1,9.411629438E-1
2.500569331E1,2.936648130E-1,-4.428642690E-1,1.289345860E0
2.502698305E1,3.649812192E-2,-3.842229247E-1,1.341878772E0
2.504827284E1,6.093201414E-2,-4.312581718E-1,1.247197390E0
2.506956263E1,3.578037918E-1,-3.341334462E-1,1.222152710E0
2.509085237E1,3.058817685E-1,-2.363978922E-1,1.500088215E0
2.511214216E1,2.611372061E-2,-5.662553906E-1,1.508029222E0
2.513343196E1,2.733541466E-2,-7.647807598E-1,1.497033954E0
2.515472170E1,1.647760421E-1,-5.033381581E-1,1.322331548E0
2.517601149E1,1.550024897E-1,-1.040960073E0,1.360814929E0
2.519730128E1,-1.620272398E-1,-2.877090573E-1,1.649745703E0
2.521859102E1,-2.615953386E-1,-4.703523964E-2,1.677844763E0
2.523988081E1,-4.124746025E-1,3.622324169E-1,1.101815701E0
2.526117060E1,-6.421532035E-1,6.242858768E-1,8.049439788E-1
2.528246034E1,-4.442386627E-1,5.442649126E-1,4.897467792E-1
2.530375013E1,-4.778352678E-1,6.035171151E-1,3.370349705E-1
2.532503993E1,-4.845545888E-1,4.257605374E-1,-2.214321308E-2
2.534632967E1,-5.395308137E-1,2.736595869E-1,-4.179722369E-1
2.536761946E1,-4.485146105E-1,2.455606014E-1,-7.405759692E-1
2.538890925E1,-5.993938446E-1,1.178935245E-1,-1.008737922E0
2.541019899E1,-7.460735440E-1,3.707842827E-1,-1.140070081E0
2.543148878E1,-6.989619732E-1,3.958290219E-1,-1.303166270E0
2.545277852E1,-7.350783348E-1,5.039489865E-1,-1.563998103E0
2.547406831E1,-8.132667542E-1,4.685198367E-1,-1.724040031E0
2.549535810E1,-6.714738607E-1,4.398100376E-1,-1.723429203E0
2.551664784E1,-5.871769190E-1,1.404948719E-2,-1.845598578E0
2.553793763E1,-5.712949038E-1,3.335226178E-1,-2.108873844E0
2.555922737E1,-6.342121959E-1,6.584933400E-1,-2.266472340E0
2.558051716E1,-5.737382770E-1,6.218425035E-1,-2.244481802E0
2.560180696E1,-4.631749392E-1,5.265503526E-1,-2.019079208E0
2.562309670E1,-1.114796288E-2,3.274141252E-1,-1.650738358E0
2.564438649E1,1.562241912E-1,9.895725548E-2,-1.439996004E0
2.566567623E1,-1.156028435E-1,1.545443535E-1,-1.326378465E0
2.568696602E1,-3.782671690E-1,4.947862774E-2,-1.246357441E0
2.570825581E1,-4.766135812E-1,4.703523964E-2,-1.170001626E0
2.572954555E1,-4.625640810E-1,9.773556143E-2,-1.041112781E0
2.575083534E1,-3.006895781E-1,-6.108472589E-4,-8.163210154E-1
2.577212508E1,-7.528692484E-2,-2.504473738E-2,-4.827220440E-1
2.579341487E1,-8.093725890E-3,-2.974826097E-1,2.794626169E-2
2.581470461E1,1.324011385E-1,-1.068982705E-1,6.070294380E-1
2.583599440E1,3.914003670E-1,-3.927747905E-1,8.464815617E-1
2.585728420E1,4.854708612E-1,-5.534276366E-1,9.210049510E-1
2.587857394E1,3.663556576E-1,-5.241069198E-1,9.393303990E-1
2.589986373E1,2.154763639E-1,-2.742704153E-1,9.063445926E-1
2.592115347E1,6.642963737E-2,1.612636745E-1,8.758022785E-1
2.594244326E1,6.765133142E-2,4.172086716E-1,6.467345357E-1
2.596373300E1,1.623326540E-1,2.742704153E-1,3.174878657E-1
2.598502279E1,1.262926757E-1,2.608317733E-1,3.461976945E-1
2.600631253E1,2.185306102E-1,1.844758689E-1,5.960342288E-1
2.602760232E1,2.331909388E-1,-1.099525020E-2,6.974348426E-1
2.604889206E1,4.683671296E-1,-5.741964281E-2,7.408050299E-1
2.607018185E1,6.778877378E-1,1.649287529E-2,7.518002391E-1
2.609147159E1,8.562551737E-1,1.954711229E-1,8.287670016E-1
2.611276138E1,9.393303990E-1,5.320479870E-1,8.525900841E-1
2.613405112E1,1.053558826E0,6.481089592E-1,9.063445926E-1
2.615534092E1,1.147629261E0,7.818844914E-2,9.985825419E-1
2.617663066E1,1.166565537E0,-1.386623234E-1,1.214822531E0
2.619792045E1,1.066997409E0,4.141544402E-1,1.351652265E0
2.621921019E1,9.228374958E-1,2.968717813E-1,1.254527569E0
2.624049998E1,9.368869662E-1,-2.400629669E-1,1.224596024E0
2.626178972E1,8.660287261E-1,-3.225273490E-1,1.245975733E0
2.628307951E1,6.259657145E-1,1.172826737E-1,1.199551344E0
2.630436925E1,4.683671296E-1,-2.199050039E-2,1.151905179E0
2.632565904E1,4.036173224E-1,-3.011476994E-1,1.234369636E0
2.634694878E1,1.262926757E-1,-3.720059693E-1,1.278350592E0
2.636823857E1,1.281252056E-1,-1.221694499E-1,1.131136417E0
2.638952831E1,7.253811508E-2,8.368607610E-2,8.739697337E-1
2.641081810E1,-1.149920002E-1,3.359659761E-2,8.141067028E-1
2.643210784E1,-2.389939874E-1,4.819584787E-1,6.748335361E-1
2.645339763E1,-4.222481549E-1,5.314370990E-1,4.323271513E-1
2.647468737E1,-2.707580328E-1,6.377245188E-1,2.588465214E-1
2.649597717E1,-3.617742956E-1,5.729747415E-1,4.382828996E-2
2.651726691E1,-2.524326444E-1,2.247917950E-1,-9.849911928E-2
2.653855670E1,-2.487675399E-1,-6.719320081E-3,-3.874298632E-1
2.655984644E1,-2.347180545E-1,-1.270562261E-1,-6.366555691E-1
2.658113618E1,-1.864611208E-1,-1.014006436E-1,-9.128348827E-1
2.660242597E1,-2.634278834E-1,-4.275931045E-3,-1.224367023E0
2.662371571E1,-2.780882120E-1,2.174616307E-1,-1.476646900E0
2.664500550E1,-4.656183124E-1,1.569877416E-1,-1.651349187E0
2.666629524E1,-5.859552622E-1,2.626643181E-1,-1.636078000E0
2.668758503E1,-6.305471063E-1,5.057815313E-1,-1.624471903E0
2.670887477E1,-5.621321797E-1,5.375455618E-1,-1.768631935E0
2.673016451E1,-4.534013867E-1,3.811686933E-1,-1.906683326E0
2.675145430E1,-3.605526090E-1,3.878880143E-1,-1.889579654E0
2.677274404E1,-3.904841244E-1,2.754921019E-1,-1.917067766E0
2.679403383E1,-2.151709497E-1,5.558710098E-1,-1.849874616E0
2.681532357E1,5.955760833E-3,3.933856487E-1,-1.551170230E0
2.683661331E1,4.993676394E-2,4.068242610E-1,-1.494361520E0
2.685790310E1,3.466558084E-2,2.309002578E-1,-1.454045534E0
2.687919284E1,5.604523420E-2,2.168507725E-1,-1.287284255E0
2.690048263E1,1.892099380E-1,7.696675509E-2,-9.904124737E-1
2.692177237E1,2.008160353E-1,-9.773556143E-2,-7.723399997E-1
2.694306211E1,8.719844371E-2,-1.142284349E-1,-6.384881139E-1
2.696435190E1,8.292251825E-2,-4.782933891E-1,-3.654393852E-1
2.698564164E1,8.170082420E-2,-7.598940134E-1,-1.290414780E-1
2.700693138E1,4.810422286E-2,-8.044858575E-1,6.154286116E-2
2.702822118E1,1.440072358E-1,-8.460234404E-1,2.179197669E-1
2.704951092E1,1.134648770E-1,-4.001049399E-1,3.046600819E-1
2.707080071E1,2.244863659E-2,1.099525020E-2,3.290939629E-1
2.709209045E1,-1.333174109E-1,1.062874198E-1,5.471664071E-1
2.711338019E1,-1.870719790E-1,-6.658235192E-2,6.662816405E-1
2.713466998E1,-2.304421216E-1,-1.850867122E-1,6.687250137E-1
2.715595972E1,-3.721587062E-1,5.436540768E-2,6.534538269E-1
2.717724946E1,-3.330644667E-1,3.665083554E-3,6.119162440E-1
2.719853925E1,-3.684936166E-1,-1.136175916E-1,3.547495604E-1
2.721982899E1,-4.051444530E-1,-2.082989216E-1,2.484621257E-1
2.724111873E1,-3.446705639E-1,-2.174616307E-1,3.883461356E-1
2.726240852E1,-6.612421572E-2,6.047387794E-2,4.738647640E-1
2.728369826E1,1.592784226E-1,-1.588202827E-2,3.541387022E-1
2.730498800E1,1.232384369E-1,-1.215586066E-1,1.892099380E-1
2.732627779E1,4.372139275E-1,-2.693836391E-1,2.331909388E-1
2.734756753E1,6.846070886E-1,-1.942494214E-1,4.811949134E-1
2.736885727E1,6.772769094E-1,-1.942494214E-1,9.051229358E-1
2.739014706E1,7.737907767E-1,-2.834331393E-1,1.215433359E0
2.741143680E1,9.320002198E-1,-3.439069986E-1,1.302784443E0
2.743272654E1,9.075663090E-1,-4.453076422E-1,1.267966151E0
2.745401633E1,9.460496902E-1,-5.460974574E-1,1.102426648E0
2.747530607E1,9.533798695E-1,-3.206948042E-1,1.054780483E0
2.749659581E1,9.600991607E-1,2.504473738E-2,1.215433359E0
2.751788555E1,6.943806410E-1,1.447708011E-1,1.421899676E0
2.753917534E1,5.398362875E-1,-8.857285231E-2,1.332105160E0
2.756046508E1,5.868715048E-1,7.941014133E-3,1.331494331E0
2.758175482E1,3.742966652E-1,-5.063923597E-1,1.451831222E0
2.760304461E1,2.008160353E-1,-2.638860047E-1,1.395633221E0
2.762433435E1,-9.315420873E-3,-3.249707520E-1,1.257581830E0
2.764562409E1,-1.656923145E-1,1.508792788E-1,1.264912009E0
2.766691383E1,-2.481566966E-1,1.966928244E-1,1.129303813E0
2.768820362E1,-5.719057322E-1,4.263713956E-1,9.900307059E-1
2.770949336E1,-6.048914790E-1,2.913741469E-1,6.302416325E-1
2.773078310E1,-5.651864409E-1,4.111002088E-1,3.657447994E-1
2.775207290E1,-6.140542030E-1,3.255815804E-1,1.079672500E-1
2.777336263E1,-7.191199064E-1,4.257605374E-1,-6.062658876E-2
2.779465237E1,-6.152759194E-1,1.264453828E-1,-3.061871827E-1
2.781594211E1,-5.474718809E-1,3.970507160E-2,-6.378772259E-1
2.783723191E1,-3.831539452E-1,-1.893626451E-1,-9.629243612E-1
2.785852165E1,-2.945810854E-1,-1.221694518E-2,-1.273845553E0
2.787981138E1,-3.996468186E-1,2.235700935E-1,-1.420448899E0
2.790110112E1,-3.697153032E-1,4.972296655E-1,-1.450380445E0
2.792239092E1,-3.849864900E-1,3.817795515E-1,-1.490696430E0
2.794368066E1,-3.495573401E-1,3.897205591E-1,-1.731370211E0
2.796497040E1,-2.701472044E-1,3.432961702E-1,-1.921343684E0
2.798626013E1,-2.640387416E-1,2.950392365E-1,-1.932949781E0
2.800754987E1,-1.693574041E-1,4.831801951E-1,-1.846209526E0
2.802883967E1,-1.742441803E-1,4.611896873E-1,-1.848652840E0
2.805012941E1,-1.424801201E-1,3.707842827E-1,-2.023966074E0
2.807141914E1,-1.815743446E-1,3.970507160E-2,-1.909126759E0
2.809270888E1,-2.738122940E-1,-9.284878522E-2,-1.262239456E0
2.811399862E1,-2.463241518E-1,-3.103103936E-1,-7.668423653E-1
2.813528842E1,-8.933641016E-2,1.172826737E-1,-1.026452422E0
2.815657816E1,-2.622061968E-1,2.913741469E-1,-1.285451651E0
2.817786790E1,-3.947600424E-1,3.689517379E-1,-1.267737150E0
2.819915763E1,-2.841966748E-1,2.082989216E-1,-1.110138535E0
2.822044737E1,-2.518217862E-1,9.590301663E-2,-8.719081283E-1
2.824173717E1,-1.583621502E-1,-9.162709117E-2,-5.260922313E-1
2.826302690E1,5.238015205E-2,-2.932066843E-2,-1.864611208E-1
2.828431664E1,7.620319724E-2,9.101624042E-2,2.307475507E-1
2.830560638E1,1.189625040E-1,-1.722589284E-1,4.164451063E-1
2.832689612E1,1.757712960E-1,-5.192201734E-1,5.147915483E-1
2.834818592E1,3.956763148E-1,-3.811686933E-1,7.774558663E-1
2.836947566E1,5.147915483E-1,1.233911440E-1,8.996253014E-1
2.839076540E1,3.345915973E-1,2.376195788E-1,8.049439788E-1
2.841205513E1,1.843231618E-1,2.589992285E-1,5.318952799E-1
2.843334487E1,2.625116110E-1,-3.237490356E-2,4.958552718E-1
2.845463461E1,2.991624475E-1,-1.160609797E-1,4.891359508E-1
2.847592435E1,1.812689304E-1,1.722589284E-1,4.592044353E-1
2.849721414E1,1.110214889E-1,4.782933891E-1,4.854708612E-1
2.851850388E1,2.796153426E-1,5.106683373E-1,5.422796607E-1
2.853979362E1,3.810159862E-1,3.646758199E-1,5.300627351E-1
2.856108336E1,3.565820754E-1,1.154501289E-1,4.824166298E-1
2.858237310E1,2.814478874E-1,-2.260134928E-2,3.718532622E-1
2.860366284E1,2.655658424E-1,1.863084137E-1,4.292729199E-1
2.862495258E1,4.103366435E-1,1.924168915E-1,6.888830066E-1
2.864624237E1,4.946335554E-1,3.237490356E-1,7.963921428E-1
2.866753211E1,4.158342779E-1,1.954711229E-1,9.350544214E-1
2.868882185E1,5.832064152E-1,2.199050039E-2,1.059056401E0
2.871011159E1,8.415948153E-1,-1.270562261E-1,1.024848938E0
2.873140133E1,8.446490765E-1,-1.893626451E-1,1.034011722E0
2.875269107E1,8.635852933E-1,-2.321219631E-2,1.062110662E0
2.877398081E1,8.464815617E-1,4.178195298E-1,1.129914761E0
2.879527055E1,6.449019909E-1,5.748072863E-1,1.221541762E0
2.881656029E1,5.459447503E-1,3.744493723E-1,1.335770249E0
2.883785008E1,4.158342779E-1,-2.993151546E-2,1.505585790E0
2.885913982E1,3.333698809E-1,-6.762079000E-1,1.472599983E0
2.888042956E1,2.747285664E-1,-4.972296655E-1,1.222763538E0
2.890171930E1,1.079672500E-1,-6.694886088E-1,1.110367656E0
2.892300904E1,-1.113269106E-1,-5.173876286E-1,1.079825282E0
2.894429878E1,-3.251234591E-1,-2.675510943E-1,1.019351363E0
2.896558852E1,-5.157077909E-1,-1.594311297E-1,7.835643291E-1
2.898687826E1,-6.091674566E-1,2.565558441E-2,5.031854510E-1
2.900816800E1,-5.474718809E-1,-1.594311297E-1,2.661767006E-1
2.902945774E1,-5.059342384E-1,-6.108472589E-3,4.581354442E-4
2.905074748E1,-6.213843822E-1,5.558710173E-2,-1.229330078E-1
2.907203722E1,-4.955498278E-1,2.687728032E-2,-3.177932799E-1
2.909332701E1,-3.935383558E-1,-2.449497581E-1,-6.195518374E-1
2.911461675E1,-5.016583204E-1,-2.987042964E-1,-8.871793151E-1
2.913590649E1,-5.767925382E-1,-2.864873707E-1,-1.058216572E0
2.915719623E1,-6.415423155E-1,-1.930277348E-1,-1.120522976E0
2.917848597E1,-7.160657048E-1,5.008947477E-2,-1.234140515E0
2.919977571E1,-6.757497787E-1,1.905843467E-1,-1.361196756E0
2.922106545E1,-7.320240736E-1,2.431172132E-1,-1.494361520E0
2.924235519E1,-7.918871045E-1,6.963659078E-2,-1.631191254E0
2.926364493E1,-5.627430081E-1,1.099525020E-2,-1.734424472E0
2.928493466E1,-4.442386627E-1,1.973036677E-1,-1.702049494E0
2.930622441E1,-4.534013867E-1,2.205158621E-1,-1.662955284E0
2.932751415E1,-2.732014358E-1,4.233171642E-1,-1.807115316E0
2.934880388E1,6.520794332E-2,2.192941606E-1,-1.821775556E0
2.937009362E1,3.889569938E-1,9.773556143E-3,-1.480311990E0
2.939138336E1,3.614688516E-1,5.332696438E-1,-1.094867349E0
2.941267310E1,1.501157135E-1,9.046648145E-1,-1.080206990E0
2.943396284E1,-1.162136942E-1,7.030851841E-1,-1.204819918E0
2.945525258E1,-3.324536085E-1,3.628432751E-1,-1.023398280E0
2.947654232E1,-5.089884996E-1,1.001789495E-1,-6.519267559E-1
2.949783206E1,-6.390989423E-1,-3.658975065E-1,-4.143071473E-1
2.951912180E1,-5.609105229E-1,-6.700994372E-1,-3.269560039E-1
2.954041154E1,-3.910949528E-1,-8.716790676E-1,-1.449235082E-1
2.956170128E1,-3.147390485E-1,-7.727217674E-1,5.543438718E-2
2.958299102E1,-2.041756958E-1,-6.181774139E-1,3.016058207E-1
2.960428076E1,-8.139539510E-2,-4.214846194E-1,5.636593103E-1
2.962557050E1,7.070557028E-2,-2.742704153E-1,6.259657145E-1
2.964686024E1,2.619007528E-1,-1.423274130E-1,6.027535200E-1
2.966814998E1,4.066715539E-1,1.539335102E-1,7.047650218E-1
2.968943972E1,2.924431264E-1,2.614426315E-1,7.340856791E-1
2.971072946E1,2.857238054E-1,3.188622594E-1,5.819846988E-1
2.973201920E1,4.317162931E-1,3.176405728E-1,4.964661002E-1
2.975330894E1,4.677563012E-1,4.770717025E-1,4.078932703E-1
2.977459868E1,3.046600819E-1,4.703523815E-1,4.714213610E-1
2.979588842E1,3.150444627E-1,5.949652195E-1,5.410579443E-1
2.981717816E1,2.728960216E-1,6.603258848E-1,5.929799676E-1
2.983846790E1,2.014268786E-1,4.782933891E-1,5.783196688E-1
2.985975758E1,1.898207814E-1,1.282779220E-2,4.604261220E-1
2.988104732E1,3.370349705E-1,-2.394521236E-1,4.598152637E-1
2.990233706E1,4.384356141E-1,-3.512371778E-1,6.650599241E-1
2.992362680E1,3.834593594E-1,-2.223484069E-1,8.672503829E-1
2.994491654E1,4.042281806E-1,-1.343863904E-1,9.222266674E-1
2.996620628E1,4.421007037E-1,-2.162399292E-1,9.258917570E-1
2.998749602E1,5.233433843E-1,-1.863084137E-1,9.130639434E-1
3.000878576E1,4.775298536E-1,2.932066843E-2,1.082268596E0
3.003007550E1,4.280512035E-1,1.991362125E-1,1.072495103E0
3.005136524E1,4.537068009E-1,1.747023165E-1,1.076771021E0
3.007265498E1,4.433223903E-1,1.948602796E-1,1.127471328E0
3.009394472E1,4.317162931E-1,2.260134816E-1,1.112200141E0
3.011523441E1,3.608580232E-1,-3.096995652E-1,1.070051670E0
3.013652415E1,4.469874799E-1,-5.070032477E-1,1.010188699E0
3.015781388E1,4.146125913E-1,-5.931326747E-1,1.180615067E0
3.017910362E1,2.295258641E-1,-6.468872428E-1,1.336381078E0
3.020039336E1,7.681404054E-2,-1.343864016E-2,1.311336398E0
3.022168310E1,-1.950129867E-1,1.924168915E-1,1.164122105E0
3.024297284E1,-3.752129376E-1,1.747023165E-1,9.246700406E-1
3.026426258E1,-6.983511448E-1,3.347443044E-1,7.951704264E-1
3.028555232E1,-7.075138092E-1,2.535016239E-1,5.942016840E-1
3.030684206E1,-5.535803437E-1,6.719320081E-3,2.197522968E-1
3.032813175E1,-4.753918648E-1,-1.331647038E-1,-6.001574174E-2
3.034942149E1,-4.246915579E-1,-2.938175201E-1,-1.504211426E-1
3.037071123E1,-4.576773047E-1,-2.797680497E-1,-1.870719790E-1
3.039200097E1,-5.230379701E-1,-1.887518018E-1,-3.342861533E-1
3.041329071E1,-3.410054743E-1,3.726168349E-2,-6.965186000E-1
3.043458045E1,-2.915268540E-1,2.327328026E-1,-1.245135784E0
3.045587019E1,-3.214583695E-1,1.704263836E-1,-1.603092313E0
3.047715987E1,-4.051444530E-1,4.611896873E-1,-1.549948573E0
3.049844961E1,-2.939702570E-1,7.049177289E-1,-1.371581197E0
3.051973935E1,-1.656923145E-1,3.811686933E-1,-1.474203467E0
3.054102909E1,-1.559187621E-1,3.451287150E-1,-1.713044763E0
3.056231883E1,-2.762556672E-1,2.925958335E-1,-1.799785137E0
3.058360857E1,-1.986780763E-1,1.869192570E-1,-1.750917315E0
3.060489826E1,-2.426590770E-1,2.974826097E-1,-1.712433934E0
3.062618800E1,-4.216373265E-1,1.643179059E-1,-1.772297025E0
3.064747774E1,-5.706840754E-1,3.145863414E-1,-1.722207546E0
3.066876748E1,-2.408265322E-1,8.002099395E-2,-1.391739130E0
3.069005722E1,5.543438718E-2,-1.001789495E-1,-1.036226034E0
3.071134696E1,2.428117767E-2,-3.750602305E-1,-1.022787333E0
3.073263665E1,-1.858502775E-1,-1.001789495E-1,-1.158395529E0
3.075392638E1,-2.481566966E-1,2.809897438E-2,-1.154730439E0
3.077521612E1,-5.260922313E-1,-3.579564989E-1,-1.107695103E0
3.079650586E1,-6.873558760E-1,-4.984513521E-1,-1.085093856E0
3.081779560E1,-2.084516287E-1,-4.819584787E-1,-8.413657546E-1
3.083908529E1,-1.339282542E-1,-2.663294077E-1,-5.315898061E-1
3.086037503E1,-4.779879749E-2,-2.712161839E-1,-1.119377613E-1
3.088166477E1,1.684411317E-1,-3.414636254E-1,2.673983872E-1
3.090295451E1,3.529170156E-1,-9.040539712E-2,6.717792749E-1
3.092424425E1,4.078932703E-1,6.780404598E-2,9.161182046E-1
3.094553394E1,2.643441558E-1,1.911951900E-1,1.049893737E0
3.096682368E1,3.364241421E-1,1.966928244E-1,1.161678791E0
3.098811342E1,5.514423847E-1,-2.626643144E-2,1.114032745E0
3.100940316E1,4.054498672E-1,-1.753131598E-1,8.556442857E-1
3.103069290E1,1.389677543E-2,-1.276670843E-1,6.357392669E-1
3.105198258E1,2.611372061E-2,-1.313321590E-1,8.061656952E-1
3.107327232E1,-2.764083818E-2,-2.516690791E-1,7.615737915E-1
3.109456206E1,-1.223221645E-1,-1.588202864E-1,5.221216679E-1
3.111585180E1,-6.184828654E-2,-5.864133686E-2,4.940227270E-1
3.113714149E1,-1.070509851E-1,7.452336699E-2,6.943806410E-1
3.115843123E1,-8.093725890E-3,2.535016239E-1,8.073873520E-1
3.117972097E1,1.635543555E-1,3.298575282E-1,6.351284385E-1
3.120101071E1,1.097997949E-1,3.188622594E-1,4.708105326E-1
3.122230040E1,9.636115283E-2,2.516690791E-1,5.141806602E-1
3.124359013E1,4.085040987E-1,-2.504473738E-2,7.737907767E-1
3.126487987E1,6.491779089E-1,-1.325538605E-1,9.955283403E-1
3.128616956E1,6.045860648E-1,1.588202827E-2,1.017518878E0
3.130745930E1,5.031854510E-1,1.197260618E-1,9.625425935E-1
3.132874904E1,5.734328628E-1,-1.979145110E-1,9.991934299E-1
3.135003878E1,6.247440577E-1,-4.465293586E-1,1.090820551E0
3.137132847E1,6.308525205E-1,-2.754921019E-1,1.087766290E0
3.139261821E1,5.874823332E-1,-1.942494214E-1,1.059667230E0
3.141390795E1,5.209000111E-1,-6.927008033E-1,1.021794796E0
3.143519763E1,4.329380095E-1,-3.616215885E-1,1.024238110E0
3.145648737E1,4.482091665E-1,-3.958290219E-1,1.204438090E0
3.147777711E1,8.353336155E-2,-3.787252903E-1,1.290567517E0
3.149906685E1,-1.827960461E-1,1.178935245E-1,1.167787194E0
3.152035654E1,-4.350759685E-1,3.781144619E-1,1.142131686E0
3.154164628E1,-5.529694557E-1,6.615476012E-1,9.478822351E-1
3.156293602E1,-4.869979918E-1,4.599680007E-1,7.713474035E-1
3.158422571E1,-4.491254389E-1,2.730487287E-1,6.503996253E-1
3.160551545E1,-3.776563108E-1,-1.380514801E-1,4.329380095E-1
3.162680519E1,-5.358657837E-1,1.221694518E-3,4.443913698E-2
3.164809493E1,-3.776563108E-1,-2.877090573E-1,-2.524326444E-1
3.166938461E1,-2.884726226E-1,-3.836120665E-1,-6.012263894E-1
3.169067435E1,-2.463241518E-1,-2.009687424E-1,-1.030728340E0
3.171196409E1,-3.129065037E-1,-1.588202827E-2,-1.239027262E0
3.173325378E1,-4.387410581E-1,3.848337829E-1,-1.234751344E0
3.175454352E1,-5.627430081E-1,4.685198367E-1,-1.260406971E0
3.177583326E1,-6.818582416E-1,3.848337829E-1,-1.452823877E0
3.179712295E1,-6.311579347E-1,3.481829464E-1,-1.725261688E0
3.181841269E1,-4.888305068E-1,3.939964771E-1,-1.942112446E0
3.183970243E1,-5.102101564E-1,5.467082858E-1,-1.994034529E0
3.186099211E1,-7.259156108E-1,5.662553906E-1,-2.007473230E0
3.188228185E1,-7.007945180E-1,5.686988235E-1,-1.995256186E0
3.190357154E1,-6.390989423E-1,4.966188073E-1,-1.990369439E0
3.192486128E1,-4.686725736E-1,5.803049207E-1,-2.087494135E0
3.194615102E1,-1.998997629E-1,3.915531039E-1,-1.984260917E0
3.196744071E1,-1.229330078E-1,2.516690791E-1,-1.609200716E0
3.198873045E1,-7.482878864E-3,1.386623234E-1,-1.298890352E0
3.201002019E1,2.289150059E-1,1.209477559E-1,-1.245746613E0
3.203130987E1,6.459710002E-2,4.782933891E-1,-1.184051037E0
3.205259961E1,-1.236965694E-2,4.911212027E-1,-1.075931072E0
3.207388935E1,2.183778957E-2,2.180724740E-1,-8.682430387E-1
3.209517904E1,7.177455351E-3,1.349972486E-1,-5.706840754E-1
3.211646878E1,2.290677279E-3,-2.254026383E-1,-1.797417998E-1
3.213775847E1,2.733541466E-2,-4.049917459E-1,1.531699449E-1
3.215904821E1,1.855448484E-1,-3.628432751E-1,3.761292100E-1
3.218033795E1,2.741177082E-1,-1.044548824E-1,6.986565590E-1
3.220162763E1,2.594573796E-1,1.832541823E-2,9.057337642E-1
3.222291737E1,2.588465214E-1,1.789782494E-1,1.004691005E0
3.224420706E1,1.928750277E-1,2.370087355E-1,9.564340711E-1
3.226549680E1,1.666085869E-1,4.080459774E-1,8.794673681E-1
3.228678654E1,3.370349705E-1,3.891097009E-1,6.992673874E-1
3.230807623E1,3.407000601E-1,1.814216375E-1,4.701996744E-1
3.232936597E1,2.081461996E-1,1.301104724E-1,4.799732268E-1
3.235065566E1,6.093201414E-2,7.024743408E-2,6.638382673E-1
3.237194540E1,1.605001241E-1,5.192201585E-2,7.298097610E-1
3.239323513E1,4.695888162E-1,-1.466033459E-1,6.656708121E-1
3.241452482E1,4.421007037E-1,1.905843467E-1,5.880932212E-1
3.243581456E1,2.429644912E-1,3.292466700E-1,6.009209752E-1
3.245710425E1,1.507265568E-1,3.781144619E-1,6.400152445E-1
3.247839399E1,5.019637346E-1,1.459924877E-1,6.791094542E-1
3.249968368E1,7.072083950E-1,-3.640649617E-1,8.495358229E-1
3.252097342E1,8.342646360E-1,-3.518480062E-1,1.040120125E0
3.254226316E1,9.918632507E-1,1.313321590E-1,1.101815701E0
3.256355284E1,8.159392476E-1,3.035911024E-1,1.022405624E0
3.258484258E1,6.320741773E-1,1.447708011E-1,1.052337170E0
3.260613227E1,6.998782754E-1,3.176405653E-2,1.028514028E0
3.262742201E1,8.031114340E-1,-3.622324169E-1,1.066386580E0
3.264871170E1,6.681141853E-1,-4.031592011E-1,1.223374367E0
3.267000144E1,4.372139275E-1,-6.719320081E-3,1.153126955E0
3.269129112E1,3.761292100E-1,-5.583143830E-1,1.030957460E0
3.271258086E1,2.631224692E-1,-6.108472347E-1,1.181836724E0
3.273387055E1,3.193204105E-1,-4.807367921E-1,1.354095697E0
3.275516029E1,8.108997345E-2,-2.321219593E-1,1.286291599E0
3.277644998E1,-8.506047726E-2,-6.108472589E-3,1.099983215E0
3.279773972E1,-2.102841735E-1,3.206948042E-1,9.258917570E-1
3.281902946E1,-4.973823726E-1,1.838650256E-1,8.434273601E-1
3.284031914E1,-4.564556181E-1,4.459185004E-1,4.897467792E-1
3.286160888E1,-4.002576768E-1,1.380514801E-1,1.501157135E-1
3.288289857E1,-4.106420577E-1,1.960819662E-1,-6.917845458E-2
3.290418831E1,-4.051444530E-1,-8.674030751E-2,-2.591519356E-1
3.292547800E1,-2.334963679E-1,-2.638860047E-1,-5.376983285E-1
3.294676774E1,-3.825430870E-1,-3.946073353E-1,-7.282826304E-1
3.296805743E1,-3.538332880E-1,-8.612946421E-2,-9.781955481E-1
3.298934717E1,-6.085565686E-1,2.211267054E-1,-1.113803625E0
3.301063685E1,-5.157077909E-1,2.467822880E-1,-1.184051037E0
3.303192659E1,-6.299362183E-1,2.528907657E-1,-1.406399488E0
3.305321628E1,-6.714738607E-1,2.822114229E-1,-1.635467172E0
3.307450602E1,-7.198071480E-1,2.638860047E-1,-1.812612891E0
3.309579571E1,-6.018372774E-1,5.173876286E-1,-1.857204676E0
3.311708545E1,-3.819322586E-1,5.931326747E-1,-1.759469151E0
3.313837513E1,-1.986780763E-1,1.386623234E-1,-1.716099024E0
3.315966487E1,-1.241547018E-1,1.710372269E-1,-1.848042011E0
3.318095456E1,-1.003316641E-1,3.573456407E-1,-1.882860303E0
3.320224430E1,-4.779879749E-2,4.080459774E-1,-1.840101004E0
3.322353399E1,1.165191159E-1,1.545443535E-1,-1.608589888E0
3.324482368E1,1.721062213E-1,6.963659078E-2,-1.298279524E0
3.326611342E1,7.498150319E-2,1.484358907E-1,-1.144345999E0
3.328740310E1,6.948387623E-2,1.197260618E-1,-1.133350730E0
3.330869284E1,5.787777901E-2,-2.260134816E-1,-1.078374505E0
3.332998253E1,-1.908897609E-2,-2.290677279E-1,-8.700755835E-1
3.335127227E1,-2.047865391E-1,-1.594311297E-1,-5.175403357E-1
3.337256196E1,-3.281776905E-1,-2.272351831E-1,-1.534753740E-1
3.339385170E1,-2.218902707E-1,-3.408527672E-1,3.649812192E-2
3.341514138E1,-1.253764033E-1,-9.651386738E-2,2.625116110E-1
3.343643107E1,-1.675248593E-1,1.954711229E-2,5.318952799E-1
3.345772081E1,-8.078455180E-2,-1.240019947E-1,9.753703475E-1
3.347901050E1,-3.558185324E-2,-5.607577562E-1,1.145796776E0
3.350030024E1,1.727170646E-1,-7.464553714E-1,9.252808690E-1
3.352158993E1,2.454078794E-1,-7.482879162E-1,9.057337642E-1
3.354287961E1,8.536590636E-2,-5.216635466E-1,7.401941419E-1
3.356416935E1,1.214058921E-1,-2.736595869E-1,5.935907960E-1
3.358545904E1,5.176930502E-2,-6.413896382E-2,4.659237564E-1
3.360674878E1,-2.316638231E-1,2.254026383E-1,4.561502039E-1
3.362803847E1,-1.430909634E-1,4.294256270E-1,5.105155706E-1
3.364932821E1,2.429644912E-1,6.597150117E-2,3.956763148E-1
3.367061790E1,2.344126403E-1,-3.084778786E-1,2.631224692E-1
3.369190758E1,2.612899244E-1,-2.363978922E-1,4.304946065E-1
3.371319732E1,3.828485310E-1,-4.886778072E-3,5.966450572E-1
3.373448701E1,4.194993675E-1,9.101624042E-2,6.100836992E-1
3.375577670E1,2.991624475E-1,1.875301152E-1,5.551074743E-1
3.377706644E1,4.842491746E-1,2.003578991E-1,4.640912116E-1
3.379835612E1,7.316423059E-1,-1.539335102E-1,5.966450572E-1
3.381964586E1,7.438592315E-1,-1.392731816E-1,9.552124143E-1
3.384093555E1,7.218687534E-1,1.087308154E-1,1.173895717E0
3.386222524E1,7.609629631E-1,-9.956810623E-2,1.146407604E0
3.388351498E1,6.351284385E-1,-3.139754832E-1,1.240478039E0
3.390480466E1,5.257867575E-1,-2.559449971E-1,1.233758807E0
3.392609435E1,5.697677732E-1,-6.126797795E-1,1.197718740E0
3.394738409E1,5.477772951E-1,-9.797990322E-1,1.169619799E0
3.396867378E1,1.391204596E-1,-2.058555335E-1,1.264912009E0
3.398996352E1,8.170082420E-2,-5.858024955E-1,1.295454383E0
3.401125321E1,1.152974218E-1,-7.397360206E-1,1.400520086E0
3.403254290E1,-3.558185324E-2,-2.003578991E-1,1.538571477E0
3.405383263E1,-2.988570333E-1,-1.850867122E-1,1.335770249E0
3.407512232E1,-5.993938446E-1,5.253286287E-2,1.076160192E0
3.409641201E1,-8.468633890E-1,3.035911024E-1,9.509364963E-1
3.411770175E1,-9.604809880E-1,2.706053257E-1,6.534538269E-1
3.413899144E1,-7.332457900E-1,1.203369126E-1,3.156553209E-1
3.416028112E1,-7.381325364E-1,1.160609815E-2,1.488940120E-1
3.418157086E1,-7.546254396E-1,-2.131856978E-1,-2.458660305E-2
3.420286055E1,-5.633538961E-1,-1.533226669E-1,-1.229330078E-1
3.422415024E1,-5.480827093E-1,-3.549022675E-1,-3.984251320E-1
3.424543998E1,-6.623111367E-1,-1.514901221E-1,-7.081246972E-1
3.426672966E1,-7.142331600E-1,2.192941606E-1,-1.080206990E0
3.428801935E1,-8.743515015E-1,3.494046330E-1,-1.219480157E0
3.430930909E1,-7.295807004E-1,5.192201734E-1,-1.226810336E0
3.433059878E1,-6.678087711E-1,5.143333673E-1,-1.352644920E0
3.435188847E1,-6.665870547E-1,3.671191931E-1,-1.622028589E0
3.437317821E1,-6.617003083E-1,3.420744538E-1,-1.685556650E0
3.439446790E1,-6.843016148E-1,1.850867122E-1,-1.655625105E0
3.441575758E1,-2.994678617E-1,3.048127890E-1,-1.669063807E0
3.443704727E1,-2.878617644E-1,3.732276857E-1,-1.691665173E0
3.445833701E1,-4.509579837E-1,3.035911024E-1,-1.720985770E0
3.447962670E1,-4.198047817E-1,-2.565558441E-2,-1.642186522E0
3.450091638E1,-2.469350100E-1,-7.635590434E-2,-1.410064578E0
3.452220612E1,-2.084516287E-1,3.188622594E-1,-1.144345999E0
3.454349581E1,-2.047865391E-1,-1.698155403E-1,-9.989643097E-1
3.456478550E1,-1.076618284E-1,-4.129327536E-1,-9.409338236E-1
3.458607519E1,-1.772984117E-1,-1.154501289E-1,-8.047149181E-1
3.460736493E1,-2.768665254E-1,-1.716480851E-1,-6.653653979E-1
3.462865461E1,-4.485146105E-1,-5.741964281E-2,-5.578562617E-1
3.464994430E1,-3.257342875E-1,-1.600419879E-1,-3.336753249E-1
3.467123399E1,-2.933593988E-1,-2.889307439E-1,-1.449235082E-1
3.469252373E1,-2.683146596E-1,-3.903313875E-1,-3.924693540E-2
3.471381342E1,-2.322746664E-1,-6.047387794E-2,4.579827189E-1
3.473510310E1,-1.931804419E-1,1.740914732E-1,9.741486907E-1
3.475639284E1,-2.396048307E-1,-7.635590434E-2,1.106091619E0
3.477768253E1,-1.259872466E-1,-2.938175201E-1,1.015686274E0
3.479897222E1,-8.322793990E-2,-3.451287150E-1,8.275453448E-1
3.482026190E1,-2.702999115E-2,-1.154501289E-1,5.172349215E-1
3.484155159E1,1.690519750E-1,1.404948682E-1,3.083251417E-1
3.486284133E1,3.235963285E-1,4.312581718E-1,3.352024257E-1
3.488413102E1,3.205420971E-1,5.283828974E-1,3.926220834E-1
3.490542071E1,2.790044844E-1,5.583143830E-1,5.245651007E-1
3.492671040E1,5.074613690E-1,5.851916671E-1,4.573718905E-1
3.494800013E1,7.493568659E-1,5.534276366E-1,3.339807391E-1
3.496928982E1,7.640172243E-1,3.371876776E-1,3.168770075E-1
3.499057951E1,8.568660021E-1,1.942494214E-1,4.634803534E-1
3.501186920E1,9.912523627E-1,1.081199646E-1,7.389724851E-1
3.503315888E1,1.036455035E0,3.542914242E-2,9.833113551E-1
3.505444862E1,1.114643574E0,-1.582094431E-1,1.200162172E0
3.507573831E1,1.241088867E0,-1.783674061E-1,1.352263093E0
3.509702800E1,1.123806238E0,-1.099525020E-2,1.319277406E0
3.511831769E1,8.898517489E-1,2.082989216E-1,1.110978484E0
3.513960737E1,7.316423059E-1,3.060344756E-1,1.113421798E0
3.516089706E1,7.872294188E-1,5.619794875E-2,1.199551344E0
3.518218680E1,6.809419990E-1,-4.275931045E-3,1.153737783E0
3.520347649E1,3.352024257E-1,-4.275931045E-3,1.151294351E0
3.522476618E1,2.240282297E-1,-1.130067408E-1,1.220320106E0
3.524605586E1,1.788255423E-1,-4.227063060E-1,1.327829242E0
3.526734555E1,5.726693198E-2,-2.443388999E-1,1.237423778E0
3.528863529E1,-2.615953386E-1,-3.176405653E-2,1.169008970E0
3.530992498E1,-3.465031087E-1,4.391991794E-1,1.233758807E0
3.533121467E1,-5.181511641E-1,6.255075932E-1,1.148240089E0
3.535250435E1,-5.938962698E-1,7.660024762E-1,8.660287261E-1
3.537379404E1,-3.965925872E-1,5.674771070E-1,4.188885093E-1
3.539508378E1,-1.247655526E-1,5.198310018E-1,1.023169141E-2
3.541637347E1,-3.008422814E-2,1.343864016E-2,-9.849911928E-2
3.543766316E1,-4.291202128E-2,-1.197260618E-1,-3.434488773E-1
3.545895284E1,-3.680354729E-2,-3.457395434E-1,-6.751389503E-1
3.548024253E1,3.038965166E-2,-5.296045542E-1,-1.006905317E0
3.550153222E1,-3.374931216E-2,-2.608317733E-1,-1.179775119E0
3.552282196E1,-1.437018216E-1,1.637070626E-1,-1.321491718E0
3.554411164E1,-3.104631305E-1,3.585673273E-1,-1.559111238E0
3.556540133E1,-4.784461260E-1,3.200839758E-1,-1.865145802E0
3.558669102E1,-5.908420086E-1,2.376195788E-1,-2.012359858E0
3.560798071E1,-6.055023670E-1,6.041279435E-1,-2.028241873E0
3.562927040E1,-4.265241027E-1,8.997780085E-1,-2.020300865E0
3.565056008E1,-7.284353673E-2,1.015228152E0,-1.938447475E0
3.567184977E1,1.572931744E-2,8.680139780E-1,-2.002586365E0
3.569313951E1,-1.113269106E-1,7.311841846E-1,-2.186451435E0
3.571442920E1,-9.544488788E-2,5.320479870E-1,-2.000143051E0
3.573571888E1,3.407000601E-1,6.609367132E-1,-1.554835320E0
3.575700857E1,4.078932703E-1,3.964398801E-1,-1.408842802E0
3.577829826E1,1.122431830E-1,-0.000000000E0,-1.426557422E0
3.579958795E1,-3.374931216E-2,3.219164908E-1,-1.385019779E0
3.582087763E1,3.405473381E-2,2.932066843E-2,-1.124798894E0
3.584216732E1,-6.062658876E-2,1.527118124E-2,-1.022176504E0
3.586345701E1,-5.207473040E-2,-3.011476994E-1,-1.278121591E0
3.588474675E1,9.620844387E-3,-2.064663768E-1,-1.162060499E0
3.590603644E1,-3.802524135E-2,1.099525020E-2,-6.244385839E-1
3.592732612E1,1.006370857E-1,-2.541124523E-1,-2.591519356E-1
3.594861581E1,2.081461996E-1,-4.306473136E-1,1.586675793E-1
3.596990550E1,3.852919042E-1,-4.080459774E-1,6.864396334E-1
3.599119519E1,4.659237564E-1,-1.832541777E-3,1.114643574E0
3.601248487E1,4.940227270E-1,2.687728032E-2,1.220320106E0
3.603377456E1,4.017847776E-1,-1.227803007E-1,1.132358074E0
3.605506425E1,2.698417902E-1,-1.404948682E-1,8.984035850E-1
3.607635394E1,7.375980914E-2,-6.047387794E-2,6.974348426E-1
3.609764362E1,1.452289373E-1,1.313321590E-1,5.526640415E-1
3.611893331E1,4.463766217E-1,1.038440317E-1,3.883461356E-1
3.614022300E1,3.920112252E-1,-1.294996142E-1,3.132119179E-1
3.616151269E1,2.851129472E-1,-1.924168915E-1,5.636593103E-1
3.618280243E1,3.034383655E-1,-6.230641901E-2,9.148964882E-1
3.620409211E1,3.773508966E-1,-1.954711229E-1,1.096318126E0
3.622538180E1,4.140017331E-1,-3.884988427E-1,1.165343881E0
3.624667149E1,4.708105326E-1,-4.385883212E-1,1.316833973E0
3.626796118E1,4.738647640E-1,-3.860554695E-1,1.530019641E0
3.628925086E1,4.970769584E-1,-2.614426315E-1,1.695559263E0
3.631054055E1,6.143596172E-1,-1.148392856E-1,1.753589749E0
3.633183024E1,6.424586177E-1,-2.376195788E-1,1.717549801E0
3.635311993E1,4.017847776E-1,-2.333436459E-1,1.600267053E0
3.637440961E1,3.003841341E-1,-1.441599578E-1,1.409682751E0
3.639569930E1,3.297048211E-1,-5.412106514E-1,1.239256382E0
3.641698899E1,2.796153426E-1,-5.644228458E-1,1.313168883E0
3.643827868E1,1.695101149E-2,-4.031592011E-1,1.454885483E0
3.645956836E1,1.389677543E-2,-5.528167486E-1,1.498255610E0
3.648085805E1,-3.069507517E-2,-2.211267054E-1,1.560562015E0
3.650214774E1,-2.451024652E-1,-2.351761907E-1,1.459161401E0
3.652343743E1,-3.581092060E-1,9.712471068E-2,1.396854997E0
3.654472711E1,-4.692834020E-1,1.246128380E-1,1.219098449E0
3.656601680E1,-4.546230733E-1,9.895725548E-2,9.069554806E-1
3.658730649E1,-4.521796703E-1,3.848337755E-2,5.477772951E-1
3.660859618E1,-4.619532526E-1,6.108472589E-3,1.916533262E-1
3.662988586E1,-5.578562617E-1,8.918370306E-2,7.437065244E-2
3.665117555E1,-4.912739098E-1,4.147652984E-1,-2.506000996E-1
3.667246524E1,-5.786250830E-1,3.219164908E-1,-6.311579347E-1
3.669375493E1,-4.118637741E-1,8.185353130E-2,-1.000186086E0
3.671504461E1,-4.576773047E-1,-7.330167294E-2,-1.241470695E0
3.673633430E1,-4.717268050E-1,-1.392731816E-1,-1.266515493E0
3.675762399E1,-5.945070982E-1,6.902574003E-2,-1.284229994E0
3.677891368E1,-6.733064055E-1,1.343864016E-2,-1.450380445E0
3.680020336E1,-6.061131954E-1,-2.870982140E-2,-1.726483464E0
3.682149305E1,-6.158867478E-1,2.589992285E-1,-2.005029678E0
3.684278274E1,-7.662315369E-1,5.589252710E-1,-2.305566549E0
3.686407243E1,-6.250494719E-1,4.263713956E-1,-2.395972013E0
3.688536211E1,-3.629959822E-1,1.698155403E-1,-2.235319138E0
3.690665180E1,-4.314108789E-1,2.559449971E-1,-2.158352375E0
3.692794149E1,-1.265980899E-1,1.728697717E-1,-2.041680574E0
3.694923118E1,1.488940120E-1,2.504473627E-1,-1.913402677E0
3.697052086E1,3.266505599E-1,2.101314515E-1,-1.677615643E0
3.699181055E1,4.879142344E-1,3.469612300E-1,-1.441217780E0
3.701310024E1,3.932329118E-1,3.762819171E-1,-1.422281504E0
3.703438993E1,-4.840964451E-2,2.718270421E-1,-1.423503160E0
3.705567961E1,-1.724116355E-1,1.075091213E-1,-1.179164290E0
3.707696925E1,-4.369085133E-1,-1.209477559E-1,-5.993938446E-1
3.709825894E1,-5.706840754E-1,-5.039489865E-1,-1.430909634E-1
3.711954862E1,-3.434488773E-1,-7.220214605E-1,6.948387623E-2
3.714083831E1,-8.200624585E-2,-7.434011102E-1,3.461976945E-1
3.716212800E1,1.433963925E-1,-3.946073353E-1,7.988355160E-1
3.718341769E1,2.545706034E-1,-2.137965336E-2,1.132358074E0
3.720470737E1,2.484621257E-1,1.887518018E-1,1.188556075E0
3.722599706E1,1.214058921E-1,-2.809897438E-2,1.046839476E0
3.724728675E1,4.016320780E-2,-2.082989216E-1,8.593093753E-1
3.726857644E1,3.771981969E-2,-2.980934680E-1,6.235223413E-1
3.728986612E1,4.749337584E-2,-6.438329816E-1,4.622586668E-1
3.731115581E1,-3.817795310E-3,-7.916580439E-1,4.237752855E-1
3.733244550E1,-4.779879749E-2,-7.757760286E-1,6.754443645E-1
3.735373513E1,-9.544488788E-2,-4.074351192E-1,8.831323981E-1
3.737502482E1,-3.817795310E-3,-3.445178568E-1,9.594883323E-1
3.739631451E1,2.851129472E-1,-6.859814525E-1,9.179506898E-1
3.741760420E1,5.117372870E-1,-8.209787011E-1,9.747595191E-1
3.743889388E1,5.416688323E-1,-2.785463631E-1,1.060278177E0
3.746018357E1,6.479562521E-1,1.111742035E-1,1.150072694E0
3.748147326E1,6.705575585E-1,1.429382563E-1,1.189166903E0
3.750276295E1,7.371399403E-1,4.031591862E-2,1.217876673E0
3.752405263E1,8.251019120E-1,2.217375487E-1,1.322942495E0
3.754534227E1,6.803311110E-1,2.309002578E-1,1.439614296E0
3.756663196E1,6.033644080E-1,-3.720059693E-1,1.435949206E0
3.758792164E1,6.839962006E-1,-6.102364063E-1,1.469545841E0
3.760921133E1,4.915793240E-1,-6.108472589E-4,1.420067191E0
3.763050102E1,3.523061574E-1,-2.076880634E-2,1.235591292E0
3.765179071E1,3.193204105E-1,-6.719319820E-1,1.229482770E0
3.767308040E1,3.400892019E-1,-6.902574301E-1,1.463437319E0
3.769437008E1,1.055238619E-1,-2.492256761E-1,1.654021621E0
3.771565972E1,-1.485885978E-1,2.870982140E-2,1.462215662E0
3.773694941E1,-2.194468826E-1,4.880669713E-1,1.324164152E0
3.775823909E1,-3.355078697E-1,4.355340898E-1,1.331494331E0
3.777952878E1,-5.474718809E-1,5.112791657E-1,1.098761559E0
3.780081847E1,-6.916317940E-1,3.518480062E-1,6.546755433E-1
3.782210816E1,-3.929274976E-1,3.976615667E-1,1.995943487E-1
3.784339784E1,-5.829010010E-1,4.593571424E-1,-1.107160673E-1
3.786468753E1,-3.752129376E-1,2.663294077E-1,-2.286095917E-1
3.788597716E1,-2.451024652E-1,1.832541823E-1,-6.000047326E-1
3.790726685E1,-2.750339806E-1,-2.199050039E-2,-8.957311511E-1
3.792855654E1,-3.721587062E-1,1.954711229E-2,-1.039280295E0
3.794984623E1,-4.381301999E-1,-6.108472589E-3,-1.203598142E0
3.797113592E1,-4.540122151E-1,1.038440317E-1,-1.320269942E0
3.799242560E1,-5.926745534E-1,9.468132257E-2,-1.484587908E0
3.801371524E1,-6.885775924E-1,1.331647038E-1,-1.713655591E0
3.803500493E1,-7.552362680E-1,4.343124032E-1,-1.884081960E0
3.805629461E1,-7.540146112E-1,7.287407517E-1,-1.932338953E0
3.807758430E1,-4.271349311E-1,6.358919740E-1,-1.976930857E0
3.809887399E1,-2.762556672E-1,5.143333673E-1,-1.993423700E0
3.812016362E1,-2.530434728E-1,6.322268844E-1,-2.056340933E0
3.814145331E1,-3.177932799E-1,1.029277682E0,-2.061227798E0
3.816274300E1,-3.764346242E-1,9.730796814E-1,-1.873697639E0
3.818403269E1,-2.292204350E-1,6.016845703E-1,-1.670285463E0
3.820532237E1,-2.139492482E-1,3.958290219E-1,-1.611033320E0
3.822661201E1,-4.882196784E-1,2.351761907E-1,-1.546283484E0
3.824790170E1,-5.315898061E-1,4.337015375E-2,-1.392960787E0
3.826919138E1,-3.727695346E-1,5.497625098E-3,-1.143124342E0
3.829048107E1,-2.713688910E-1,5.497625470E-2,-9.012287855E-1
3.831177076E1,-1.027750522E-1,3.542914242E-2,-7.295043468E-1
3.833306040E1,-9.422318637E-2,2.993151546E-2,-4.228590131E-1
3.835435008E1,9.086353332E-2,-4.703523964E-2,-1.265980899E-1
3.837563977E1,3.675773442E-1,-9.162709117E-3,1.543916464E-1
3.839692946E1,4.524851143E-1,5.680879578E-2,4.237752855E-1
3.841821914E1,3.498627543E-1,-5.558710173E-2,6.284091473E-1
3.843950878E1,1.855448484E-1,-1.154501289E-1,8.293778896E-1
3.846079847E1,2.105895877E-1,-1.068982705E-1,8.385405540E-1
3.848208816E1,3.119902313E-1,-1.533226669E-1,7.218687534E-1
3.850337784E1,2.967190444E-1,-5.253286287E-2,5.196782947E-1
3.852466748E1,1.317902952E-1,6.413896382E-2,3.590254784E-1
3.854595717E1,1.635543555E-1,3.567348123E-1,4.176668227E-1
3.856724685E1,3.791834414E-1,4.251496792E-1,5.899257660E-1
3.858853654E1,5.599942207E-1,1.252236813E-1,5.337277651E-1
3.860982618E1,6.229115129E-1,7.269082218E-2,5.966450572E-1
3.863111586E1,6.699467301E-1,8.551861346E-2,8.434273601E-1
3.865240555E1,6.149705052E-1,1.398840249E-1,8.867974877E-1
3.867369524E1,5.832064152E-1,5.436540768E-2,8.336538076E-1
3.869498487E1,5.942016840E-1,-3.665083647E-2,7.102626562E-1
3.871627456E1,6.772769094E-1,-2.064663768E-1,7.927270532E-1
3.873756425E1,7.353073955E-1,-3.793361485E-1,1.198940516E0
3.875885394E1,7.963921428E-1,-3.341334462E-1,1.467102408E0
3.878014357E1,7.603521347E-1,-8.307522535E-2,1.443890214E0
3.880143326E1,6.613948941E-1,-1.056765765E-1,1.380362034E0
3.882272295E1,5.337277651E-1,1.490467340E-1,1.217876673E0
3.884401263E1,3.987305462E-1,-2.009687424E-1,1.071273327E0
3.886530227E1,2.918322682E-1,-6.438329816E-1,1.141520858E0
3.888659196E1,3.675773442E-1,-6.878139973E-1,1.332715988E0
3.890788164E1,3.248180151E-1,-7.421793938E-1,1.371810198E0
3.892917133E1,2.802261710E-1,-8.441908956E-1,1.368145108E0
3.895046097E1,3.101576865E-1,-9.095515609E-1,1.455496311E0
3.897175066E1,2.020377368E-1,-5.668662786E-1,1.245975733E0
3.899304034E1,-8.704573847E-3,-2.883199155E-1,9.643751383E-1
3.901432998E1,-2.322746664E-1,1.343864016E-2,9.332218766E-1
3.903561967E1,-4.949389994E-1,6.181774139E-1,9.344435930E-1
3.905690935E1,-6.128324866E-1,5.412106514E-1,7.475243211E-1
3.907819904E1,-5.169295073E-1,6.670452356E-1,3.724641204E-1
3.909948868E1,-6.378772259E-1,6.927008033E-1,1.574458778E-1
3.912077836E1,-6.274928451E-1,4.752391577E-1,5.115845799E-2
3.914206805E1,-5.352548957E-1,2.009687424E-1,-3.648285270E-1
3.916335769E1,-4.753918648E-1,-4.275931045E-3,-9.287168980E-1
3.918464737E1,-4.387410581E-1,-2.009687424E-1,-1.231697083E0
3.920593706E1,-5.871769190E-1,1.893626451E-1,-1.360585928E0
3.922722675E1,-7.210288048E-1,2.137965411E-1,-1.324545979E0
3.924851638E1,-6.843016148E-1,3.096995652E-1,-1.293392658E0
3.926980607E1,-6.562026739E-1,2.651077211E-1,-1.410064578E0
3.929109576E1,-6.067240238E-1,2.137965411E-1,-1.781459689E0
3.931238540E1,-6.238277555E-1,2.082989216E-1,-2.010527372E0
3.933367508E1,-6.189410090E-1,5.454866290E-1,-2.011138201E0
3.935496477E1,-5.993938446E-1,7.104153633E-1,-1.838268518E0
3.937625441E1,-6.183301210E-1,7.696675658E-1,-1.813223720E0
3.939754409E1,-5.541911721E-1,8.087617755E-1,-1.863924026E0
3.941883378E1,-4.320217371E-1,4.886777997E-1,-1.625693679E0
3.944012342E1,-3.385621011E-1,3.292466700E-1,-1.256131053E0
3.946141310E1,-4.063661397E-1,7.201889157E-1,-1.243914127E0
3.948270279E1,-2.298312783E-1,4.776825607E-1,-1.399680138E0
3.950399243E1,-1.143811494E-1,5.528167486E-1,-1.380743861E0
3.952528211E1,-1.907370538E-1,3.408527672E-1,-1.188326955E0
3.954657180E1,-1.101052165E-1,2.345653474E-1,-1.000186086E0
3.956786144E1,3.344388679E-2,2.131856978E-1,-7.166765332E-1
3.958915112E1,3.038965166E-2,-2.864873707E-1,-3.941491842E-1
3.961044076E1,7.864658535E-2,-4.263713956E-1,-7.101099193E-2
3.963173045E1,2.948864996E-1,-3.738385141E-1,2.356343269E-1
3.965302013E1,2.038702667E-1,-1.606528312E-1,5.948125124E-1
3.967430977E1,1.904316396E-1,-1.123958975E-1,8.593093753E-1
3.969559946E1,3.663556576E-1,1.319430023E-1,8.568660021E-1
3.971688914E1,5.325061083E-1,-4.153761268E-2,6.968240142E-1
3.973817878E1,4.787515402E-1,-5.008947477E-2,5.343386531E-1
3.975946847E1,4.390464723E-1,1.496575773E-1,3.486410677E-1
3.978075816E1,4.243861437E-1,4.697415531E-1,2.356343269E-1
3.980204779E1,4.170559645E-1,5.442649126E-1,3.779617548E-1
3.982333748E1,4.421007037E-1,6.578825116E-1,5.502206683E-1
3.984462711E1,4.995203316E-1,5.253286362E-1,6.271874309E-1
3.986591680E1,6.125270724E-1,1.398840249E-1,6.449019909E-1
3.988720649E1,5.673243999E-1,-1.575985998E-1,6.039752364E-1
3.990849612E1,4.915793240E-1,-8.368607610E-2,6.668924689E-1
3.992978581E1,5.221216679E-1,-9.345962852E-2,8.214368224E-1
3.995107545E1,5.917583108E-1,-1.331647038E-1,9.106205702E-1
3.997236513E1,7.798992395E-1,-4.844018817E-1,1.066997409E0
3.999365482E1,8.532009125E-1,-4.862344265E-1,1.273463845E0
4.001494446E1,7.572978735E-1,-1.942494214E-1,1.238034725E0
4.003623414E1,6.271874309E-1,-2.119639963E-1,1.172674060E0
4.005752378E1,4.744756222E-1,-2.492256761E-1,1.066997409E0
4.007881347E1,3.516952991E-1,-3.524588645E-1,8.654178381E-1
4.010010316E1,3.461976945E-1,-2.944283783E-1,7.322531343E-1
4.012139279E1,2.435753495E-1,1.404948719E-2,7.725690603E-1
4.014268248E1,7.375980914E-2,2.498365343E-1,1.041952729E0
4.016397211E1,-7.467607409E-2,-3.158080280E-1,1.258803487E0
4.018526180E1,-4.169032723E-2,-5.705313683E-1,1.493979692E0
4.020655149E1,-1.786728203E-2,-5.033381581E-1,1.274685502E0
4.022784112E1,-1.846285909E-1,-6.157340407E-1,1.007134438E0
4.024913081E1,-3.452814221E-1,-4.288147688E-1,8.965710402E-1
4.027042045E1,-5.114318728E-1,1.404948682E-1,1.260635972E0
4.029171013E1,-5.157077909E-1,5.534276366E-1,1.079214454E0
4.031299977E1,-3.135173619E-1,5.094466209E-1,6.962131858E-1
4.033428946E1,-6.978929788E-2,3.860554695E-1,3.388675153E-1
4.035557914E1,-1.725643501E-2,-4.031591862E-2,5.176930502E-2
4.037686878E1,4.077405483E-2,-4.404208660E-1,-2.909159958E-1
4.039815847E1,-1.198787764E-1,-2.712161839E-1,-7.448518872E-1
4.041944810E1,-2.701472044E-1,3.665083554E-3,-9.684219956E-1
4.044073779E1,-3.855973184E-1,2.260134928E-2,-1.025841594E0
4.046202743E1,-4.033119082E-1,1.160609797E-1,-1.166947365E0
4.048331711E1,-6.458182931E-1,4.471401870E-1,-1.454045534E0
4.050460675E1,-7.253047824E-1,4.996730685E-1,-1.676393986E0
4.052589644E1,-6.769714952E-1,3.188622594E-1,-1.788179040E0
4.054718612E1,-5.700731874E-1,3.860554695E-1,-1.868810892E0
4.056847576E1,-3.507790267E-1,1.863084137E-1,-1.978152514E0
4.058976545E1,-4.332434237E-1,1.001789495E-1,-1.998310447E0
4.061105508E1,-4.448495209E-1,4.330907166E-1,-1.856593847E0
4.063234477E1,-3.171824515E-1,9.413156509E-1,-1.739311218E0
4.065363441E1,-3.666610718E-1,7.849387527E-1,-1.810780287E0
4.067492409E1,-2.298312783E-1,4.538595080E-1,-1.846209526E0
4.069621373E1,3.283303976E-2,7.238540053E-1,-1.536509871E0
4.071750342E1,1.214058921E-1,6.407787800E-1,-1.226199508E0
4.073879305E1,2.087570578E-1,3.750602305E-1,-1.152897835E0
4.076008274E1,1.262926757E-1,4.300364852E-1,-1.115025282E0
4.078137237E1,-1.374406274E-3,2.388412803E-1,-1.082039595E0
4.080266206E1,-1.186570823E-1,2.797680497E-1,-9.708653688E-1
4.082395170E1,-1.143811494E-1,-8.124268800E-2,-6.952968836E-1
4.084524138E1,1.756185852E-2,-5.424323678E-1,-4.399627447E-1
4.086653102E1,2.350234836E-1,-5.326588154E-1,-1.351499557E-1
4.088782071E1,4.164451063E-1,-1.991362125E-1,2.399102598E-1
4.090911034E1,4.011739492E-1,4.642439261E-2,6.125270724E-1
4.093040003E1,4.005630910E-1,3.463504016E-1,8.696937561E-1
4.095168966E1,3.009949923E-1,3.310792148E-1,8.373188972E-1
4.097297935E1,2.283041626E-1,-1.649287529E-2,6.827745438E-1
4.099426899E1,1.097997949E-1,-3.316900730E-1,5.795413256E-1
4.101555868E1,5.360184610E-2,-4.104893506E-1,4.475983381E-1
4.103684831E1,1.794363856E-1,-4.330907166E-1,4.976878166E-1
4.105813800E1,3.730749488E-1,-3.970507160E-2,5.172349215E-1
4.107942763E1,4.512633979E-1,-2.443389036E-3,5.697677732E-1
4.110071732E1,5.599942207E-1,9.651386738E-2,5.942016840E-1
4.112200696E1,6.015318632E-1,3.677300513E-1,6.668924689E-1
4.114329664E1,5.074613690E-1,5.650337338E-1,7.518002391E-1
4.116458628E1,4.738647640E-1,3.158080280E-1,8.214368224E-1
4.118587597E1,4.695888162E-1,5.131116882E-2,8.446490765E-1
4.120716560E1,5.245651007E-1,-3.781144619E-1,1.013853788E0
4.122845529E1,5.007420182E-1,-7.140804529E-1,1.340656996E0
4.124974493E1,4.647020400E-1,-6.981984377E-1,1.611873150E0
4.127103456E1,5.386145711E-1,-5.534276366E-1,1.651578307E0
4.129232425E1,5.154023767E-1,-8.209787011E-1,1.545901656E0
4.131361388E1,4.457657933E-1,-9.896489382E-1,1.410293579E0
4.133490357E1,4.378247857E-1,-7.372926474E-1,1.228871942E0
4.135619321E1,3.840702176E-1,-5.974085927E-1,1.215433359E0
4.137748290E1,2.075353563E-1,-4.129327536E-1,1.296676040E0
4.139877253E1,9.086353332E-2,-7.501204610E-1,1.384638071E0
4.142006222E1,9.636115283E-2,-8.698465228E-1,1.382805467E0
4.144135185E1,1.206423342E-2,-4.789042473E-1,1.356539011E0
4.146264154E1,-2.145601064E-1,-7.678350210E-1,1.292400122E0
4.148393118E1,-4.576773047E-1,-6.841489673E-2,1.409682751E0
4.150522081E1,-7.582905293E-1,1.569877416E-1,1.363869190E0
4.152651050E1,-8.737406731E-1,5.668662786E-1,1.233758807E0
4.154780013E1,-9.445989132E-1,7.226322889E-1,1.004691005E0
4.156908982E1,-8.242620230E-1,6.548282504E-1,7.444701195E-1
4.159037946E1,-7.790593505E-1,8.142594099E-1,3.687990308E-1
4.161166914E1,-6.739172339E-1,4.960079789E-1,1.659977436E-1
4.163295878E1,-5.065450668E-1,1.997470558E-1,-1.070509851E-1
4.165424847E1,-2.701472044E-1,-1.111742035E-1,-6.274928451E-1
4.167553810E1,-2.304421216E-1,-3.078670204E-1,-1.032560945E0
4.169682774E1,-4.790569544E-1,-5.619794875E-2,-1.177331686E0
4.171811743E1,-5.615213513E-1,2.913741469E-1,-1.230475426E0
4.173940706E1,-6.226060390E-1,5.638120174E-1,-1.439385176E0
4.176069675E1,-6.287145615E-1,6.468872428E-1,-1.709379673E0
4.178198638E1,-6.195518374E-1,3.518480062E-1,-1.842544436E0
4.180327602E1,-4.558447599E-1,4.746283293E-1,-1.929895520E0
4.182456571E1,-3.171824515E-1,6.248967648E-1,-1.970211506E0
4.184585534E1,-2.188360244E-1,5.961869359E-1,-1.942723393E0
4.186714503E1,-3.324536085E-1,7.409577370E-1,-2.022133589E0
4.188843467E1,-3.171824515E-1,8.252546191E-1,-2.017857552E0
4.190972430E1,-1.235438585E-1,7.452336550E-1,-1.881638646E0
4.193101399E1,-1.705790907E-1,7.030851841E-1,-1.659901023E0
4.195230362E1,-1.527118147E-4,1.869192570E-1,-1.515741110E0
4.197359326E1,-3.619270027E-2,3.316900730E-1,-1.543840051E0
4.199488295E1,-5.757235363E-2,4.141544402E-1,-1.463819146E0
4.201617258E1,-1.603474095E-2,1.948602796E-1,-1.200543880E0
4.203746227E1,-6.872031838E-3,2.040229887E-1,-1.045388699E0
4.205875190E1,1.328592747E-2,1.233911440E-1,-9.861365557E-1
4.208004154E1,6.566607859E-3,-6.536065787E-2,-8.071582913E-1
4.210133123E1,-5.039489828E-3,-1.172826737E-1,-5.548020005E-1
4.212262086E1,1.916533262E-1,-3.188622594E-1,-3.623851240E-1
4.214391055E1,2.802261710E-1,-2.852656841E-1,-6.001574174E-2
4.216520019E1,2.686200738E-1,-1.148392856E-1,4.647020400E-1
4.218648982E1,1.330119967E-1,-1.014006436E-1,8.348754644E-1
4.220777951E1,4.871506989E-2,1.667613089E-1,9.943066239E-1
4.222906915E1,2.362451702E-1,-2.260134928E-2,8.977927566E-1
4.225035878E1,2.899997234E-1,-1.429382563E-1,8.354863524E-1
4.227164847E1,3.877353072E-1,1.087308154E-1,7.927270532E-1
4.229293810E1,5.245651007E-1,1.423274130E-1,6.742226481E-1
4.231422779E1,4.781406820E-1,-3.359659761E-2,5.398362875E-1
4.233551743E1,4.353813827E-1,5.375456065E-2,6.198572516E-1
4.235680706E1,5.025745630E-1,3.536805511E-1,6.711684465E-1
4.237809670E1,4.402681589E-1,3.280249834E-1,6.717792749E-1
4.239938638E1,3.364241421E-1,1.899735034E-1,7.230904698E-1
4.242067602E1,3.645231128E-1,1.148392856E-1,7.664605975E-1
4.244196571E1,4.482091665E-1,1.710372418E-2,7.823426127E-1
4.246325534E1,4.567610323E-1,-3.982724249E-1,8.562551737E-1
4.248454498E1,4.610369802E-1,-8.136485219E-1,1.100594044E0
4.250583466E1,5.667135715E-1,-7.745543122E-1,1.344322085E0
4.252712430E1,4.818057716E-1,-4.850127101E-1,1.375475287E0
4.254841394E1,4.842491746E-1,-1.881409585E-1,1.207492352E0
4.256970362E1,3.956763148E-1,-1.288353205E0,1.221541762E0
4.259099326E1,2.521272004E-1,-1.808107942E-1,1.547734261E0
4.261228290E1,9.452861547E-2,7.250757217E-1,1.303395391E0
4.263357258E1,-2.774773538E-1,-5.845808387E-1,1.217876673E0
4.265486222E1,-3.452814221E-1,-2.596100867E-1,1.906912446E0
4.267615185E1,-1.223221645E-1,-2.180724740E-1,2.004724264E0
4.269744154E1,-1.443126649E-1,-7.666133046E-1,1.533684731E0
4.271873118E1,-7.895200700E-2,-7.696675658E-1,1.297897696E0
4.274002081E1,-8.200624585E-2,-6.401679516E-1,1.478708506E0
4.276131050E1,-3.080197275E-1,-3.567348123E-1,1.500088215E0
4.278260013E1,-4.246915579E-1,1.930277348E-1,1.023016453E0
4.280388977E1,-2.811424434E-1,2.205158621E-1,6.479562521E-1
