"Time (s)","Linear Acceleration x (m/s^2)","Linear Acceleration y (m/s^2)","Linear Acceleration z (m/s^2)"
5.987500000E-3,3.282999992E-1,-1.146999970E-1,-4.238999784E-1
2.599062500E-2,5.665999651E-1,-3.118999898E-1,3.899999857E-1
5.598750000E-2,1.033699989E0,-6.416000128E-1,1.824999928E0
7.599687500E-2,8.955999613E-1,-1.044799924E0,2.051599979E0
1.059859380E-1,1.125299931E0,-6.748999953E-1,5.760999918E-1
1.259875000E-1,9.320999980E-1,-3.673999906E-1,6.592999697E-1
1.459875000E-1,7.490000129E-2,-2.259999961E-1,9.004999995E-1
1.659968750E-1,-4.675999880E-1,-8.355999589E-1,2.891999781E-1
1.959875000E-1,1.231699944E0,-1.370000005E0,2.849999964E-1
2.159890630E-1,2.288499832E0,-7.283999920E-1,-1.081599951E0
2.459859380E-1,7.681999803E-1,-5.809999704E-1,-1.534799933E0
2.659906250E-1,-4.581999779E-1,-7.110999823E-1,1.383199930E0
2.959859380E-1,-2.786999941E-1,-8.543999791E-1,1.175199986E0
3.159890630E-1,5.861999989E-1,-1.659999937E-1,4.923999906E-1
3.459859380E-1,7.680000067E-1,-5.676999688E-1,4.256999791E-1
3.659906250E-1,5.022000074E-1,-1.253199935E0,4.302999973E-1
3.959859380E-1,1.153299928E0,-1.583899975E0,-2.279099941E0
4.159937500E-1,2.661700010E0,-1.320699930E0,-1.429199934E0
4.459875000E-1,1.344900012E0,-1.870899916E0,3.736999929E-1
4.659921880E-1,1.411700010E0,-6.035000086E-1,1.422999978E0
4.959859380E-1,6.725999713E-1,-8.445999622E-1,8.284999728E-1
5.159921880E-1,-1.545300007E0,-1.266899943E0,-8.008999825E-1
5.459875000E-1,-4.148200035E0,-2.635999918E-1,-3.909299850E0
5.659890630E-1,-3.040799856E0,-2.152499914E0,-3.264299870E0
5.959859380E-1,-5.376199722E0,-1.618399978E0,-1.018400002E1
6.159859380E-1,-7.523099899E0,3.401499987E0,-1.093369961E1
6.359859380E-1,-6.611799717E0,-4.386000037E-1,-4.605099678E0
6.559875000E-1,-4.620800018E0,-3.921700001E0,-4.705999792E-1
6.859859380E-1,-3.801199913E0,-2.455699921E0,1.789999940E-2
7.059859380E-1,-4.407700062E0,-3.009599924E0,-1.950999945E-1
7.259890630E-1,-3.608099937E0,-3.666999817E0,-1.930999905E-1
7.559859380E-1,-1.786599994E0,-4.942100048E0,4.754000008E-1
7.759859380E-1,-1.538199902E0,-6.847399712E0,1.936399937E0
7.959875000E-1,-1.401399970E0,-7.464699745E0,3.245499849E0
8.259875000E-1,5.317999721E-1,-7.100199699E0,5.295399666E0
8.559953130E-1,3.803900003E0,-8.874300003E0,7.316099644E0
8.859859380E-1,8.785399437E0,-1.188910007E1,7.931999683E0
9.059859380E-1,1.407919979E1,-1.278179932E1,5.439199924E0
9.259859380E-1,2.227919960E1,-1.324539948E1,3.633299828E0
9.460000000E-1,1.932229996E1,-1.313939953E1,3.538199902E0
9.759859380E-1,-2.993599892E0,-1.066769981E1,4.452600002E0
9.959859380E-1,-1.345860004E1,-4.834599972E0,5.466199875E0
1.015987500E0,-1.717729950E1,4.677199841E0,5.717499733E0
1.035987500E0,-1.602459908E1,1.229309940E1,1.011399937E1
1.065985938E0,-1.416549969E1,1.113099957E1,1.355029964E1
1.085987500E0,-1.318659973E1,6.238199711E0,8.892999649E0
1.115985938E0,-7.682399750E0,-1.316999942E-1,7.493000031E-1
1.135987500E0,-2.369299889E0,-1.705500007E0,-2.524799824E0
1.155987500E0,5.589600086E0,-3.564399958E0,-2.535500050E0
1.185985938E0,1.249339962E1,-3.857599974E0,-1.511099935E0
1.205985938E0,1.165219975E1,-2.716699839E0,-4.846999943E-1
1.225987500E0,8.548699379E0,-8.262000084E-1,1.425300002E0
1.245987500E0,3.884399891E0,6.844999790E-1,3.069799900E0
1.265987500E0,1.457999945E-1,8.227999806E-1,5.511799812E0
1.285987500E0,-1.555799961E0,1.011299968E0,6.657099724E0
1.315985938E0,-1.030799985E0,1.406999946E0,3.984699965E0
1.335987500E0,-1.649999991E-2,8.165000081E-1,1.737899899E0
1.365987500E0,2.590600014E0,-1.234499931E0,1.573399901E0
1.395985938E0,2.474599838E0,-2.377799988E0,1.206900001E0
1.415985938E0,1.188199997E0,-8.249999881E-1,6.969999522E-2
1.435987500E0,2.413999885E-1,-1.017999947E-1,-4.263099670E0
1.455987500E0,-5.766000152E-1,7.737999558E-1,-8.587699890E0
1.485985938E0,-2.134500027E0,2.449599981E0,-9.759200096E0
1.505987500E0,-2.971799850E0,2.716599941E0,-6.967999935E0
1.525987500E0,-4.233699799E0,3.678299904E0,-4.009200096E0
1.545987500E0,-3.817699909E0,3.567600012E0,-2.096299887E0
1.565987500E0,-4.181499958E0,4.133100033E0,1.497000009E-1
1.585987500E0,-4.425399780E0,4.409399986E0,1.945799947E0
1.615985938E0,-3.900799990E0,3.677199841E0,2.605000019E0
1.635987500E0,-3.787999868E0,3.476099968E0,2.734499931E0
1.655987500E0,-4.260699749E0,4.306799889E0,4.350800037E0
1.675987500E0,-4.812099934E0,4.917799950E0,6.532000065E0
1.705985938E0,-2.537600040E0,4.897699833E0,9.142799377E0
1.725987500E0,-7.430999875E-1,1.594399929E0,1.029119968E1
1.745990625E0,1.652099967E0,-1.695999950E-1,9.430099487E0
1.775987500E0,3.015699863E0,-8.748999834E-1,4.215199947E0
1.795987500E0,3.367499828E0,-2.167799950E0,3.380699873E0
1.825987500E0,3.112599850E0,-3.312199831E0,3.619899988E0
1.855985938E0,1.466599941E0,-5.580499649E0,3.271600008E0
1.875987500E0,4.719999805E-2,-4.509599686E0,1.700999975E0
1.905985938E0,-7.838999629E-1,-2.546299934E0,1.392499924E0
1.925987500E0,-1.308399916E0,-1.143599987E0,-9.562999606E-1
1.945987500E0,-2.200500011E0,3.190000057E-1,-3.580099821E0
1.975985938E0,-5.214600086E0,4.159999847E0,-9.019999504E0
1.995985938E0,-4.195199966E0,3.278800011E0,-6.251999855E0
2.015987500E0,-3.141099930E0,5.386899948E0,-3.104599953E0
2.035987500E0,1.483999938E-1,2.423999906E-1,4.062599659E0
2.065987500E0,-9.713999629E-1,-1.968699932E0,1.380800009E0
2.085987500E0,-7.275999784E-1,-2.014199972E0,-9.656999707E-1
2.115985938E0,1.966699958E0,-3.728199959E0,-2.202699900E0
2.135987500E0,2.965199947E0,-5.271199703E0,-1.904199958E0
2.155987500E0,3.648099899E0,-6.516399860E0,-1.773899913E0
2.185985938E0,3.157899857E0,-7.409199715E0,-2.962800026E0
2.205985938E0,2.737599850E0,-7.106899738E0,-2.885599852E0
2.225987500E0,2.880699873E0,-7.941299915E0,1.641999930E-1
2.255987500E0,2.500699997E0,-7.397299767E0,1.605199933E0
2.285987500E0,3.108899832E0,-6.206099987E0,3.065699816E0
2.305987500E0,2.054699898E0,-5.385299683E0,2.723199844E0
2.325987500E0,4.838999808E-1,-3.588099957E0,1.792199969E0
2.355985938E0,-3.613999784E-1,-6.054999828E-1,3.885999918E-1
2.375987500E0,-7.088999748E-1,1.060599923E0,-2.777000070E-1
2.405985938E0,-1.079699993E0,2.008100033E0,-7.558000088E-1
2.425985938E0,-2.423300028E0,2.550499916E0,-1.837700009E0
2.445987500E0,-3.888499975E0,4.087800026E0,-3.497999907E0
2.475985938E0,-3.703399897E0,4.486399651E0,-3.672599792E0
2.495985938E0,-4.117000103E0,4.772900105E0,-2.942299843E0
2.515987500E0,-4.249899864E0,4.758500099E0,-2.713799953E0
2.535987500E0,-4.078899860E0,4.406699657E0,-1.980299950E0
2.555987500E0,-2.887300014E0,3.240099907E0,-9.576999545E-1
2.575989063E0,-1.533899903E0,2.981899977E0,9.756999612E-1
2.605985938E0,-1.210999936E-1,2.964699984E0,2.616999865E0
2.625987500E0,4.648999870E-1,1.445799947E0,3.827399969E0
2.645987500E0,7.055000067E-1,9.082999825E-1,4.268599987E0
2.665987500E0,5.141999722E-1,1.882599950E0,3.480000019E0
2.685987500E0,6.129999831E-2,3.078199863E0,3.771299839E0
2.715987500E0,2.348999977E-1,3.416999817E0,7.995899677E0
2.735987500E0,-2.908000052E-1,3.899899960E0,7.366199970E0
2.755989063E0,1.113999963E0,2.704599857E0,8.073699951E0
2.785985938E0,4.093199730E0,-9.354999661E-1,9.749699593E0
2.805987500E0,4.300399780E0,-2.606499910E0,7.947099686E0
2.825987500E0,3.604799986E0,-1.968400002E0,3.891499996E0
2.845987500E0,2.750900030E0,-7.096999884E-1,8.648999929E-1
2.865987500E0,1.442899942E0,5.934999585E-1,-7.824999690E-1
2.895985938E0,-9.059999585E-1,1.275300026E0,-2.309799910E0
2.915985938E0,-2.401200056E0,1.224099994E0,-2.689199924E0
2.935987500E0,-3.043900013E0,4.194999933E-1,-3.042699814E0
2.955987500E0,-3.828999996E0,-6.520999670E-1,-3.023299932E0
2.985985938E0,-3.697999954E0,-2.126499891E0,-2.952100039E0
3.005987500E0,-3.095000029E0,-3.286299944E0,-2.542700052E0
3.035985938E0,-2.051800013E0,-5.106800079E0,-7.750999928E-1
3.055985938E0,-1.333699942E0,-6.023900032E0,2.827000022E-1
3.075987500E0,-9.174999595E-1,-6.215399742E0,2.060000002E-1
3.105985938E0,4.580999911E-1,-7.333499908E0,5.329999924E-1
3.125987500E0,1.235299945E0,-8.158800125E0,1.379799962E0
3.145992188E0,1.323599935E0,-6.896100044E0,-6.118999720E-1
3.175985938E0,3.569700003E0,-5.563499928E0,2.037999928E-1
3.195985938E0,4.442100048E0,-6.355000019E0,2.603699923E0
3.215987500E0,2.384799957E0,-5.486199856E0,2.493499994E0
3.235987500E0,-1.035300016E0,-2.959300041E0,1.323599935E0
3.265987500E0,-3.615399837E0,-6.985999942E-1,1.168200016E0
3.295987500E0,-2.776199818E0,9.201999903E-1,-1.453799963E0
3.325987500E0,-4.118999958E0,3.818699837E0,-5.231800079E0
3.355987500E0,-3.657699823E0,4.303999901E0,-4.401099682E0
3.375987500E0,-2.881799936E0,4.534500122E0,-3.271299839E0
3.405987500E0,-1.028100014E0,3.274699926E0,-1.447199941E0
3.425987500E0,3.935000002E-1,2.089400053E0,2.874999940E-1
3.445992188E0,1.830799937E0,6.424999833E-1,1.960699916E0
3.475985938E0,1.768499970E0,8.144999743E-1,3.885099888E0
3.495985938E0,1.595699906E0,2.609599829E0,4.318599701E0
3.515987500E0,2.039799929E0,3.455999851E0,5.822899818E0
3.535992188E0,2.661999941E0,3.495499849E0,6.650399685E0
3.565987500E0,3.364199877E0,1.544199944E0,7.093799591E0
3.585987500E0,3.180699825E0,1.574499965E0,5.745599747E0
3.615987500E0,3.415699959E0,4.124199867E0,4.907799721E0
3.645987500E0,6.445399761E0,4.614999890E-1,8.470600128E0
3.665987500E0,6.808799744E0,-3.376299858E0,8.654999733E0
3.685987500E0,4.771500111E0,-4.477699757E0,4.750899792E0
3.715987500E0,1.314000010E0,-2.181699991E0,-1.322600007E0
3.735987500E0,-2.974999845E-1,-8.946999907E-1,-2.901199818E0
3.765985938E0,-2.920899868E0,-3.931999803E-1,-2.807799816E0
3.785985938E0,-4.101299763E0,-3.738999963E-1,-2.780699968E0
3.805987500E0,-4.931600094E0,1.229999959E-2,-3.016399860E0
3.835987500E0,-6.213999748E0,-1.372699976E0,-3.041899920E0
3.865987500E0,-5.501699924E0,-5.815599918E0,-1.133299947E0
3.895985938E0,-4.319699764E0,-6.523200035E0,-2.437999964E0
3.915985938E0,-2.864099979E0,-7.458499908E0,-2.035500050E0
3.935987500E0,-2.240999937E-1,-9.178899765E0,-3.924999833E-1
3.965985938E0,1.351599932E0,-1.013420010E1,3.691000044E-1
3.985985938E0,1.797599912E0,-9.602600098E0,3.865999877E-1
4.005985938E0,9.150999784E-1,-7.762300014E0,-9.641000032E-1
4.025985938E0,7.978000045E-1,-5.951600075E0,-1.279999912E-1
4.045985938E0,1.678699970E0,-5.467199802E0,2.459699869E0
4.065985938E0,1.320999980E0,-3.626899958E0,2.062000036E0
4.085985938E0,1.390399933E0,-1.457799911E0,9.383999705E-1
4.105985938E0,3.134500027E0,-1.678599954E0,3.080499887E0
4.125985938E0,2.719799995E0,-5.414000154E-1,3.644999862E-1
4.145990625E0,1.678599954E0,1.098999977E0,1.021999955E0
4.175985938E0,6.999999750E-3,2.390300035E0,2.330600023E0
4.195985938E0,-9.961999655E-1,3.114199877E0,1.690999985E0
4.215987500E0,-1.935699940E0,3.585399866E0,-6.194999814E-1
4.235987500E0,-1.801399946E0,3.959800005E0,8.569999784E-2
4.265985938E0,-3.691299915E0,6.329299927E0,-5.821899891E0
4.285985938E0,-2.875399828E0,5.633399963E0,-2.720700026E0
4.305987500E0,-2.224400043E0,4.833300114E0,-1.827199936E0
4.335987500E0,-5.306999683E-1,3.209800005E0,-1.264299989E0
4.365987500E0,8.708999753E-1,2.443899870E0,-5.385000110E-1
4.395985938E0,6.549999714E-1,2.781599998E0,1.186999917E0
4.415985938E0,1.417699933E0,2.774799824E0,2.397599936E0
4.435987500E0,1.636500001E0,2.714599848E0,3.177699804E0
4.455987500E0,2.267999887E0,2.152600050E0,3.741999865E0
4.485985938E0,1.940599918E0,1.365700006E0,3.723500013E0
4.505987500E0,2.355599880E0,1.131999969E0,3.695199966E0
4.525987500E0,2.009799957E0,1.188899994E0,3.670599937E0
4.555985938E0,2.263599873E0,1.860999942E0,2.508800030E0
4.575987500E0,4.592099667E0,-5.084999800E-1,4.978799820E0
4.605985938E0,6.687599659E0,-5.101999760E0,6.683199883E0
4.625987500E0,6.108900070E0,-5.363699913E0,4.437599659E0
4.645992188E0,4.882800102E0,-4.370800018E0,2.187999964E0
4.675985938E0,2.542999983E0,-2.405200005E0,1.010499954E0
4.695985938E0,1.394299984E0,-2.233500004E0,1.328699946E0
4.715987500E0,-2.391999960E-1,-2.464499950E0,2.089999989E-2
4.735987500E0,-1.315599918E0,-3.049899817E0,-1.326699972E0
4.755989063E0,-1.821599960E0,-3.002899885E0,-3.103499889E0
4.785985938E0,-2.082000017E0,-4.042900085E0,-3.819599867E0
4.805987500E0,-2.081199884E0,-5.050999641E0,-3.764799833E0
4.825987500E0,-2.157799959E0,-6.010599613E0,-3.921199799E0
4.855985938E0,-2.649799824E0,-7.656799793E0,-3.082999945E0
4.875987500E0,-2.654099941E0,-8.188799858E0,-2.721799850E0
4.905985938E0,-2.482499838E0,-8.615699768E0,-1.768899918E0
4.925985938E0,-2.227599859E0,-8.509699821E0,-1.246999979E0
4.945987500E0,-1.552299976E0,-8.763400078E0,-9.781999588E-1
4.965987500E0,-4.614999890E-1,-8.427899361E0,-6.782000065E-1
4.995987500E0,1.241999984E0,-8.381699562E0,7.663999796E-1
5.015987500E0,5.273999572E-1,-7.950299740E0,-3.869999945E-2
5.035987500E0,9.809999913E-2,-5.622600079E0,-1.357399940E0
5.055987500E0,1.141299963E0,-4.523200035E0,-1.501899958E0
5.075987500E0,2.995699883E0,-5.517600060E0,2.511999905E-1
5.105985938E0,3.623399973E0,-6.364599705E0,4.469999969E-1
5.125987500E0,2.615099907E0,-5.399699688E0,-2.368999869E-1
5.145990625E0,1.885999918E0,-3.850600004E0,-4.116999805E-1
5.175985938E0,1.758999944E0,-1.524999976E0,-5.636999607E-1
5.195985938E0,1.659799933E0,9.599999525E-3,-1.408699989E0
5.215987500E0,1.199399948E0,1.528599977E0,-2.602299929E0
5.235987500E0,6.588000059E-1,2.912099838E0,-3.128899813E0
5.265987500E0,-2.459999919E-2,4.352999687E0,-1.653399944E0
5.285987500E0,-6.092999578E-1,4.936500072E0,1.875000000E-1
5.305987500E0,-3.222999871E-1,4.710499763E0,2.604199886E0
5.325987500E0,8.405999541E-1,4.742300034E0,4.154099941E0
5.345987500E0,1.676899910E0,5.277100086E0,4.776499748E0
5.365987500E0,2.232699871E0,6.082099915E0,5.450999737E0
5.395985938E0,4.332299709E0,6.336999893E0,7.965199947E0
5.415985938E0,5.867799759E0,6.225299835E0,9.619899750E0
5.435987500E0,6.796700001E0,5.961299896E0,9.828399658E0
5.455987500E0,6.818099976E0,5.905499935E0,8.598199844E0
5.485985938E0,6.436699867E0,5.251199722E0,6.821399689E0
5.505987500E0,5.884999752E0,4.470599651E0,5.893399715E0
5.525987500E0,4.310899734E0,5.576600075E0,2.494899988E0
5.555993750E0,5.535299778E0,3.830699921E0,2.902999878E0
5.585987500E0,7.873299599E0,-1.456099987E0,6.601299763E0
5.615985938E0,7.460099697E0,-3.898699999E0,4.667200089E0
5.635987500E0,7.072599888E0,-3.102299929E0,1.694099903E0
5.655987500E0,6.403199673E0,-2.621799946E0,1.288999915E0
5.685985938E0,5.144999981E0,-2.508299828E0,1.470099926E0
5.705985938E0,4.288799763E0,-3.365399837E0,8.618999720E-1
5.725987500E0,3.700500011E0,-3.973699808E0,-5.054999590E-1
5.745989063E0,3.844099998E0,-4.817800045E0,-8.105999827E-1
5.775985938E0,3.910899878E0,-6.505199909E0,-7.566999793E-1
5.795987500E0,4.640399933E0,-8.305699348E0,-3.562999964E-1
5.815987500E0,3.654500008E0,-8.998399734E0,-1.488099933E0
5.835987500E0,7.325999737E-1,-8.547100067E0,-2.482100010E0
5.855987500E0,-1.027199984E0,-7.316799641E0,-2.483500004E0
5.875987500E0,-1.243099928E0,-6.999599934E0,-2.350999832E0
5.895987500E0,-3.308999836E-1,-6.669299603E0,-1.453299999E0
5.925985938E0,-9.296000004E-1,-6.372399807E0,5.145999789E-1
5.945987500E0,-3.919099808E0,-5.829799652E0,7.999999821E-2
5.975987500E0,-6.413099766E0,-5.076900005E0,-4.129999876E-2
6.005987500E0,-4.724299908E0,-3.593799829E0,1.404899955E0
6.025987500E0,-2.100499868E0,-3.088999987E0,3.032399893E0
6.055985938E0,-1.613799930E0,-3.680199862E0,3.334599972E0
6.075987500E0,-4.245999813E0,-4.808799744E0,7.515999675E-1
6.105985938E0,-2.256199837E0,-2.547899961E0,-3.122799873E0
6.125987500E0,4.002900124E0,-2.234499931E0,-2.459300041E0
6.145987500E0,-1.666700006E0,4.684000015E-1,-5.671000004E0
6.165987500E0,-5.736999989E0,2.011100054E0,9.977099419E0
6.195985938E0,1.181900024E0,-1.393299937E0,-3.391999900E-1
6.215985938E0,-2.258499861E0,2.103499889E0,2.378999889E-1
6.235987500E0,1.738600016E0,3.811899900E0,-1.506000012E-1
6.265987500E0,-8.980000019E-1,3.967899799E0,-1.322700024E0
6.295987500E0,-2.356600046E0,2.811800003E0,-2.080999911E-1
6.325987500E0,-1.919199944E0,2.947899818E0,2.326999903E-1
6.345987500E0,9.865999818E-1,6.922000051E-1,3.328000009E-1
6.365987500E0,-3.651000023E0,3.906999826E-1,5.519299984E0
6.395985938E0,-1.403100014E0,6.547999978E-1,2.161499977E0
6.415985938E0,-1.014500022E0,4.223999977E-1,2.476599932E0
6.435987500E0,-1.323199987E0,5.012999773E-1,1.688499928E0
6.455987500E0,-1.513700008E0,1.410000026E-1,1.963299990E0
6.485985938E0,6.171000004E-1,4.745999873E-1,-1.032999977E-1
6.505987500E0,4.643699646E0,2.073299885E0,-1.136299968E0
6.525987500E0,4.782499790E0,-8.885999918E-1,1.859099984E0
6.555985938E0,2.865999937E-1,-1.791799903E0,-1.246899962E0
6.575987500E0,1.952999979E-1,-1.109300017E0,-1.454599977E0
6.595987500E0,1.070799947E0,-4.097999930E-1,2.449999936E-2
6.625987500E0,2.876999974E-1,-1.052000001E-1,-4.641999900E-1
6.645987500E0,-3.929999843E-2,1.268700004E0,-1.302399993E0
6.665987500E0,-2.133499861E0,2.865999937E-1,-2.382400036E0
6.695985938E0,-3.304499865E0,8.154000044E-1,-3.679399967E0
6.715985938E0,-8.165999651E-1,3.181000054E-1,-5.110699654E0
6.735987500E0,-6.213999987E-1,-1.283999979E-1,-6.501699924E0
6.755987500E0,-3.296999931E0,1.497900009E0,-6.406799793E0
6.785985938E0,-5.960700035E0,7.699999958E-2,-4.506999850E-1
6.805987500E0,-5.635200024E0,-1.639400005E0,4.643999934E-1
6.825987500E0,-4.145199776E0,-2.604199886E0,-1.238999963E0
6.855985938E0,-1.127900004E0,-6.040599823E0,-3.389299870E0
6.875987500E0,-1.883199930E0,-5.461400032E0,-2.997699976E0
6.905987500E0,-1.298299909E0,-6.717099667E0,-1.368600011E0
6.935987500E0,-1.622900009E0,-5.515599728E0,-4.203399658E0
6.955987500E0,-2.220099926E0,-4.827300072E0,-4.048599720E0
6.975987500E0,-1.220799923E0,-6.568899632E0,-2.656999826E-1
7.005987500E0,-1.015100002E0,-9.255499840E0,1.707999945E0
7.025987500E0,-3.567799807E0,-7.743399620E0,-4.343999922E-1
7.055987500E0,-4.330599785E0,-9.808199883E0,-7.066999674E-1
7.075987500E0,-4.033699989E0,-9.875999451E0,1.474099994E0
7.095987500E0,-3.725899935E0,-9.258099556E0,2.396299839E0
7.125987500E0,-5.156899929E0,-6.891499996E0,4.669999778E-1
7.145989063E0,-5.838099957E0,-5.670700073E0,8.452000022E-1
7.175985938E0,-4.523299694E0,-5.657299995E0,2.898099899E0
7.195985938E0,-5.768499851E0,-4.721099854E0,4.281300068E0
7.215987500E0,-7.645699978E0,-3.015100002E0,4.567699909E0
7.235987500E0,-9.016799927E0,-7.286999822E-1,5.313099861E0
7.265985938E0,-9.849599838E0,3.171099901E0,3.851099968E0
7.285985938E0,-9.888999939E0,3.722800016E0,3.194599867E0
7.305987500E0,-8.756400108E0,3.269399881E0,4.923699856E0
7.325987500E0,-9.298099518E0,3.314100027E0,5.481199741E0
7.355987500E0,-9.602700233E0,3.028699875E0,3.855999947E0
7.375987500E0,-8.040399551E0,2.844599962E0,2.988999844E0
7.405985938E0,-6.567599773E0,1.190299988E0,3.855799913E0
7.425985938E0,-3.345599890E0,3.296999931E0,4.077499866E0
7.445987500E0,-3.088399887E0,3.373699903E0,3.600499868E0
7.475985938E0,-8.902299881E0,1.964199901E0,2.072000027E0
7.495985938E0,-1.116889954E1,9.429000020E-1,1.310999990E0
7.515987500E0,-1.033020020E1,2.200500011E0,1.702600002E0
7.545985938E0,-7.274799824E0,4.868199825E0,3.437199831E0
7.565985938E0,-3.342799902E0,5.178199768E0,2.584399939E0
7.585987500E0,9.939999580E-1,5.009599686E0,-3.769999743E-2
7.615985938E0,2.724200010E0,4.507299900E0,-2.972499847E0
7.635987500E0,1.163800001E0,2.973799944E0,-4.817599773E0
7.655987500E0,-1.705999970E-1,-2.448999882E-1,-4.275099754E0
7.685985938E0,8.890999556E-1,-4.070199966E0,-2.679899931E0
7.705987500E0,2.909999847E0,-5.859799862E0,-1.834599972E0
7.725987500E0,4.031399727E0,-6.682099819E0,-7.037000060E-1
7.755985938E0,3.817299843E0,-7.950699806E0,1.346799970E0
7.775987500E0,2.796399832E0,-9.460899353E0,1.504999995E0
7.795987500E0,3.418299913E0,-1.019110012E1,4.348999858E-1
7.825987500E0,5.042799950E0,-9.482799530E0,-2.170300007E0
7.855985938E0,2.995399952E0,-8.637999535E0,-2.152199984E0
7.875987500E0,7.249999642E-1,-8.182600021E0,-1.858599901E0
7.905985938E0,1.354599953E0,-5.521499634E0,1.779699922E0
7.925987500E0,3.490999937E-1,-4.456399918E0,4.529099941E0
7.945987500E0,-1.486899972E0,-3.828399897E0,5.752500057E0
7.975985938E0,-3.511899948E0,-3.925499916E0,2.866999865E0
7.995985938E0,-1.174299955E0,-1.815599918E0,6.082000136E-1
8.015987500E0,5.205000043E-1,2.545999885E-1,-6.298999786E-1
8.035987500E0,1.581699967E0,1.501500010E0,-1.099399924E0
8.055987500E0,2.507099867E0,3.041199923E0,-1.152999997E-1
8.075987500E0,2.727200031E0,3.974499941E0,6.326000094E-1
8.095987500E0,2.783200026E0,4.737999916E0,9.912999868E-1
8.125985938E0,2.224299908E0,5.653699875E0,9.456999898E-1
8.145987500E0,7.718999982E-1,5.828000069E0,1.077499986E0
8.165987500E0,-5.349000096E-1,5.157599926E0,1.185699940E0
8.195985938E0,-1.479099989E0,2.997599840E0,1.415399909E0
8.215985938E0,-2.299900055E0,2.759799957E0,-3.721999824E-1
8.235987500E0,-4.025300026E0,2.573499918E0,-1.423799992E0
8.265987500E0,-5.507599831E0,2.009099960E0,-1.990399957E0
8.295987500E0,-4.710799694E0,1.156399965E0,-8.546999693E-1
8.325987500E0,-4.331099987E0,9.487999678E-1,1.288900018E0
8.355985938E0,-3.371299982E0,1.801599979E0,1.268199921E0
8.375987500E0,-2.388799906E0,3.119299889E0,9.554999471E-1
8.405987500E0,-4.447999954E0,2.763200045E0,-3.164999962E0
8.435987500E0,-8.357899666E0,-1.710699916E0,-3.855899811E0
8.455987500E0,-8.937600136E0,-4.253099918E0,-1.909599900E0
8.485985938E0,-5.247699738E0,-1.540899992E0,1.184000015E0
8.505987500E0,-3.667599916E0,5.029999837E-2,1.550199986E0
8.525987500E0,-1.928999901E0,8.678999543E-1,7.087999582E-1
8.555987500E0,1.083699942E0,1.434599996E0,-5.090000033E-1
8.575987500E0,1.945799947E0,1.224499941E0,-9.016999602E-1
8.595987500E0,2.496500015E0,-1.146999970E-1,-8.712999821E-1
8.625987500E0,2.383399963E0,-2.434399843E0,-4.648999870E-1
8.655987500E0,1.742100000E0,-3.814999819E0,-1.717000008E-1
8.685985938E0,2.247599840E0,-4.646100044E0,3.118999898E-1
8.705985938E0,2.645699978E0,-5.979899883E0,7.418999672E-1
8.725987500E0,2.929100037E0,-7.321699619E0,1.490999937E0
8.755985938E0,3.702899933E0,-7.313699722E0,2.165299892E0
8.775987500E0,3.249500036E0,-6.522999763E0,2.295399904E0
8.795987500E0,3.110399961E0,-6.306799889E0,2.161000013E0
8.825987500E0,2.539599895E0,-7.443500042E0,1.426299930E0
8.855985938E0,1.246500015E0,-4.444600105E0,1.210899949E0
8.875987500E0,-6.502999663E-1,-3.734999895E0,2.009399891E0
8.905987500E0,4.466999769E-1,-5.743599892E0,2.881299973E0
8.925987500E0,1.965999961E0,-6.001299858E0,2.296799898E0
8.945987500E0,1.988699913E0,-4.431799889E0,8.373000026E-1
8.975985938E0,4.420000017E-1,-1.054199934E0,5.630999804E-1
8.995985938E0,8.702999949E-1,4.754000008E-1,1.465499997E0
9.015987500E0,1.709299922E0,1.677599907E0,2.311499834E0
9.045985938E0,2.498399973E0,3.421399832E0,2.965799809E0
9.065985938E0,2.509799957E0,4.045099735E0,2.725399971E0
9.085987500E0,1.343299985E0,3.514599800E0,2.236099958E0
9.115985938E0,4.800999761E-1,2.306200027E0,1.890199900E0
9.135985938E0,-2.366999984E-1,2.139499903E0,1.503899932E0
9.155987500E0,-1.581200004E0,2.045399904E0,4.747999907E-1
9.185985938E0,-3.906499863E0,1.658899903E0,-4.217999876E-1
9.205985938E0,-5.117700100E0,1.613799930E0,-5.518999696E-1
9.225987500E0,-5.585799694E0,1.640100002E0,-5.439000130E-1
9.255985938E0,-6.694599628E0,1.933699965E0,-5.566999912E-1
9.275987500E0,-6.555099964E0,2.442899942E0,-1.003999949E0
9.295987500E0,-7.791100025E0,4.220999777E-1,-1.057600021E0
9.325985938E0,-6.171599865E0,3.133899927E0,-1.352199912E0
9.345985938E0,-5.971699715E0,4.096499920E0,-1.723899961E0
9.365987500E0,-6.081199646E0,2.830899954E0,-1.157599926E0
9.395985938E0,-4.475500107E0,-6.082999706E-1,3.531999886E-1
9.415985938E0,-3.707099915E0,-8.241999745E-1,1.636099935E0
9.435987500E0,-3.536499977E0,-7.270000130E-2,2.055999994E0
9.455987500E0,-2.954499960E0,7.904999852E-1,1.056200027E0
9.485987500E0,-1.142699957E0,1.599399924E0,-2.454999983E-1
9.505987500E0,1.902000010E-1,1.254499912E0,-3.658999801E-1
9.525989063E0,1.350199938E0,6.574000120E-1,3.183999956E-1
9.555987500E0,2.020699978E0,-1.752000004E-1,6.710999608E-1
9.575989063E0,2.324100018E0,-1.534699917E0,1.213899970E0
9.605987500E0,2.997099876E0,-4.159699917E0,1.906299949E0
9.635985938E0,2.916899920E0,-7.170199871E0,1.258099914E0
9.655987500E0,2.657599926E0,-8.469799995E0,1.252200007E0
9.685985938E0,1.814899921E0,-9.037400246E0,1.362599969E0
9.705987500E0,1.127099991E0,-8.607199669E0,1.337700009E0
9.725987500E0,6.820999980E-1,-7.801299572E0,7.368999720E-1
9.755985938E0,1.002200007E0,-7.643399715E0,5.934000015E-1
9.775987500E0,7.179999948E-1,-9.615900040E0,8.359999955E-2
9.795987500E0,2.321300030E0,-8.528800011E0,5.609999895E-1
9.825987500E0,2.042799950E0,-3.322499990E0,3.222499847E0
9.855985938E0,-2.496999949E-1,-2.391000032E0,2.552799940E0
9.875987500E0,7.239999771E-1,-5.389499664E0,-1.410999894E-1
9.905987500E0,3.195799828E0,-7.203799725E0,-7.452999949E-1
9.935987500E0,2.335299969E0,-3.041399956E0,2.616499901E0
9.965985938E0,1.973899961E0,1.550000012E-1,3.609899998E0
9.985985938E0,2.362499952E0,1.261099935E0,3.111199856E0
1.000598750E1,2.351899862E0,2.154899836E0,2.921299934E0
1.002598750E1,1.442999959E0,2.942699909E0,1.960599899E0
1.005598594E1,1.873999983E-1,3.509999990E0,-6.656999588E-1
1.007598750E1,-8.337999582E-1,2.944999933E0,-1.543699980E0
1.009598750E1,-2.233700037E0,1.248899937E0,-1.673999906E0
1.012598750E1,-6.449399948E0,-6.439999491E-2,-1.229900002E0
1.015598750E1,-9.009399414E0,3.200899839E0,-1.237299919E0
1.018598594E1,-1.127089977E1,4.502699852E0,4.645999968E-1
1.020598594E1,-1.268929958E1,4.238299847E0,1.577600002E0
1.022598750E1,-1.293319988E1,4.494599819E0,2.533900023E0
1.025598594E1,-8.801400185E0,4.218299866E0,3.601599932E0
1.027598594E1,-6.733999729E0,2.596799850E0,2.229500055E0
1.029598750E1,-3.908399820E0,3.658099890E0,1.593799949E0
1.032598750E1,-2.571499825E0,4.668699741E0,-1.178999990E-1
1.035598594E1,-8.804299355E0,6.696999669E-1,-5.141999722E-1
1.037598750E1,-1.090049934E1,-2.446499825E0,-1.434499979E0
1.040598594E1,-6.411399841E0,-3.117899895E0,1.154999956E-1
1.042598594E1,-2.820099831E0,-1.936399937E0,2.913800001E0
1.044598750E1,-7.088999748E-1,-1.071799994E0,3.436800003E0
1.047598594E1,9.928999543E-1,-4.238999784E-1,-4.075999856E-1
1.049598594E1,2.688799858E0,-2.451999933E-1,-4.660999775E0
1.051598750E1,2.907299995E0,5.153999925E-1,-6.286799908E0
1.053598750E1,2.608999968E0,-2.005999982E-1,-6.196599960E0
1.056598594E1,3.474900007E0,-3.817099810E0,-3.056200027E0
1.058598750E1,3.541399956E0,-7.888399601E0,-4.727999866E-1
1.061598750E1,3.408200026E0,-1.008199978E1,2.395499945E0
1.064598594E1,5.793099880E0,-1.190329933E1,1.209999919E0
1.066598750E1,7.404699802E0,-1.232409954E1,1.282799959E0
1.069598594E1,6.541299820E0,-1.026789951E1,2.287199974E0
1.071598594E1,3.083699942E0,-9.498899460E0,1.471799970E0
1.073598750E1,-1.439999975E-2,-8.422399521E0,-8.237999678E-1
1.076598750E1,2.746500015E0,-5.769000053E0,-2.146800041E0
1.079598750E1,5.701000094E-1,-6.792500019E0,3.511999846E-1
1.082598750E1,-1.032899976E0,-7.099099636E0,2.217299938E0
1.085598594E1,-1.365700006E0,-5.815799713E0,3.043999910E0
1.087598594E1,-5.439000130E-1,-4.365200043E0,3.099099874E0
1.089598594E1,6.642000079E-1,-2.508499861E0,3.341899872E0
1.091598594E1,1.488899946E0,-3.674999774E-1,3.232299805E0
1.093598750E1,1.370000005E0,1.530299902E0,2.812999964E0
1.095598750E1,1.131799936E0,2.966399908E0,2.120899916E0
1.098598594E1,4.459999800E-1,3.920199871E0,5.537999868E-1
1.100598750E1,-5.827999711E-1,3.722399950E0,2.969999909E-1
1.102598750E1,-1.732599974E0,3.387199879E0,5.189999938E-2
1.105598594E1,-3.596199989E0,2.009399891E0,-1.605599999E0
1.107598750E1,-4.344599724E0,6.984999776E-1,-3.279999971E0
1.109598750E1,-4.235700130E0,5.953999758E-1,-4.309700012E0
1.112598750E1,-5.664899826E0,2.217700005E0,-4.863100052E0
1.115598750E1,-7.680199623E0,3.695799828E0,-5.133599758E0
1.118598750E1,-9.217100143E0,3.396999836E0,-4.234499931E0
1.120598750E1,-7.735299587E0,5.526899815E0,-3.165099859E0
1.122598750E1,-7.281999588E0,6.835499763E0,-3.796799898E0
1.125598594E1,-1.024689960E1,2.548099995E0,-3.497900009E0
1.127598750E1,-1.020730019E1,-8.604999781E-1,-1.691499949E0
1.129598750E1,-8.908800125E0,-1.646600008E0,1.204699993E0
1.132598750E1,-6.271999836E0,1.496399999E0,4.022599697E0
1.135598594E1,-4.605700016E0,2.026999950E0,3.870800018E0
1.137598750E1,-3.260499954E0,1.768199921E0,3.233700037E0
1.140598594E1,-2.301100016E0,1.010100007E0,1.878600001E0
1.142598594E1,-2.365200043E0,-2.264999896E-1,4.223999977E-1
1.144598750E1,-2.597699881E0,-2.606600046E0,-4.332000017E-1
1.147598594E1,-1.328400016E0,-6.444200039E0,-3.077999949E-1
1.149598594E1,9.904999733E-1,-7.839099884E0,1.709000021E-1
1.151598750E1,3.321599960E0,-8.791600227E0,8.912999630E-1
1.154598594E1,5.298199654E0,-8.755700111E0,1.582099915E0
1.156598594E1,5.263400078E0,-8.583399773E0,2.118000031E0
1.158598750E1,5.529500008E0,-8.568599701E0,2.190700054E0
1.161598594E1,7.122399807E0,-8.360599518E0,2.036299944E0
1.163598750E1,8.048699379E0,-7.213899612E0,1.989899993E0
1.165598750E1,6.238299847E0,-7.402699947E0,2.113699913E0
1.168598594E1,4.623099804E0,-7.039299965E0,3.302399874E0
1.170598594E1,3.002599955E0,-6.741299629E0,4.343899727E0
1.172598750E1,5.869999900E-2,-7.088899612E0,5.068500042E0
1.175598594E1,-1.267699957E0,-8.327599525E0,4.927499771E0
1.177598750E1,-4.559999704E-2,-8.148799896E0,3.234099865E0
1.179598750E1,5.446000099E-1,-6.220200062E0,1.652899981E0
1.182598750E1,-3.762999773E-1,-2.532799959E0,9.869999886E-1
1.185598594E1,-9.302999973E-1,7.892000079E-1,1.748399973E0
1.187598750E1,8.739999682E-2,1.770699978E0,1.746500015E0
1.190598594E1,1.962399960E0,2.456199884E0,1.118199944E0
1.192598750E1,1.893999934E0,2.279399872E0,8.894999623E-1
1.194598750E1,1.341399908E0,1.999499917E0,2.269999981E-1
1.197598594E1,-2.542999983E-1,2.165199995E0,-1.622200012E0
1.199598594E1,-1.602599978E0,1.926199913E0,-3.077600002E0
1.201598750E1,-2.655499935E0,9.123999476E-1,-4.141900063E0
1.203598750E1,-3.869999886E0,3.398999870E-1,-4.434400082E0
1.205599219E1,-5.885399818E0,3.558999896E-1,-5.134900093E0
1.208598750E1,-8.924599648E0,4.508000016E-1,-3.648599863E0
1.211598594E1,-9.105299950E0,4.247200012E0,-1.554899931E0
1.213598594E1,-1.084749985E1,3.719299793E0,-1.774999976E0
1.215598750E1,-8.366700172E0,5.418099880E0,-1.115999937E0
1.218598594E1,-6.010599613E0,6.872999668E0,-4.988499641E0
1.220598594E1,-8.448800087E0,3.200999975E0,-6.193199635E0
1.222598750E1,-9.559399605E0,-4.431999922E-1,-4.977299690E0
1.225598594E1,-9.364799500E0,-1.804399967E0,-1.107800007E0
1.227598750E1,-8.210899353E0,-4.484999776E-1,1.048900008E0
1.229598750E1,-5.930199623E0,9.375999570E-1,2.066200018E0
1.231598750E1,-4.012899876E0,1.326699972E0,2.610299826E0
1.233598750E1,-2.022300005E0,6.003999710E-1,2.345199823E0
1.236598750E1,9.329999685E-1,-5.149999857E-1,1.025300026E0
1.239598594E1,2.791199923E0,-2.229899883E0,1.769999973E-2
1.241598750E1,2.930399895E0,-3.738099813E0,2.403999865E-1
1.243598750E1,2.850999832E0,-5.165699959E0,7.117999792E-1
1.245598750E1,3.556099892E0,-6.551199913E0,1.049999952E0
1.248598594E1,4.517600060E0,-7.876199722E0,1.463099957E0
1.250598750E1,4.428699970E0,-8.521800041E0,1.946299911E0
1.252598750E1,4.119100094E0,-9.484700203E0,2.923300028E0
1.255598594E1,4.481199741E0,-9.710199356E0,4.702600002E0
1.257598594E1,4.393899918E0,-1.016370010E1,4.471699715E0
1.259598750E1,3.581300020E0,-1.008990002E1,3.446099997E0
1.262598750E1,3.074299812E0,-7.206999779E0,4.045499802E0
1.265598750E1,-1.657799959E0,-6.423899651E0,4.577699661E0
1.268598594E1,-2.658200026E0,-7.095099926E0,2.616600037E0
1.270598750E1,-4.473999739E-1,-6.202300072E0,8.478999734E-1
1.272598750E1,1.377900004E0,-4.404900074E0,-6.949999928E-2
1.275598594E1,1.380599976E0,-7.396000028E-1,5.995000005E-1
1.277598594E1,1.860799909E0,6.082999706E-1,1.699199915E0
1.279598594E1,2.616699934E0,1.557500005E0,2.323400021E0
1.281598594E1,2.766700029E0,2.225399971E0,2.140899897E0
1.283598750E1,2.562500000E0,2.842799902E0,1.140900016E0
1.286598594E1,1.043599963E0,2.968299866E0,-1.226499915E0
1.288598594E1,4.089999944E-2,1.869399905E0,-2.536799908E0
1.290598594E1,-1.031999946E0,5.401999950E-1,-3.073199987E0
1.292598594E1,-2.529399872E0,5.799999926E-3,-2.665499926E0
1.294598594E1,-3.939599991E0,1.001299977E0,-2.860199928E0
1.296598594E1,-5.556799889E0,1.651199937E0,-3.556599855E0
1.298598594E1,-7.191199780E0,1.847999930E0,-4.371699810E0
1.300598750E1,-8.024799347E0,2.167099953E0,-4.618199825E0
1.302598750E1,-8.357399940E0,2.794800043E0,-4.639999866E0
1.305598594E1,-1.003059959E1,1.978599906E0,-4.936399937E0
1.307598594E1,-9.849299431E0,2.941200018E0,-3.656299829E0
1.309598594E1,-6.858899593E0,5.880599976E0,-2.870599985E0
1.311598594E1,-6.710399628E0,6.060400009E0,-2.686199903E0
1.313598594E1,-8.544599533E0,2.775300026E0,-1.809999943E0
1.315598594E1,-8.966400146E0,-1.745199919E0,-8.445999622E-1
1.317598594E1,-7.180799961E0,-3.646199942E0,6.283000112E-1
1.319598750E1,-4.454699993E0,-2.521100044E0,1.506999969E0
1.322598750E1,-3.132699966E0,-3.735999763E-1,2.377799988E0
1.324598750E1,-1.471899986E0,4.995999932E-1,2.324699879E0
1.326598750E1,1.284999996E-1,8.010999560E-1,1.715199947E0
1.329598750E1,1.579999924E0,8.190999627E-1,5.773999691E-1
1.331598750E1,2.085299969E0,-1.709999889E-1,-1.569999941E-2
1.333598750E1,2.362999916E0,-1.978199959E0,-2.209999971E-2
1.336598750E1,2.791800022E0,-5.180599689E0,5.532999635E-1
1.339598594E1,3.469599962E0,-7.869699955E0,1.297299981E0
1.341598594E1,4.158999920E0,-8.841599464E0,2.278199911E0
1.343598594E1,4.746500015E0,-9.165100098E0,3.106599808E0
1.345598594E1,5.365599632E0,-9.671199799E0,3.713299990E0
1.347598594E1,6.325299740E0,-9.715999603E0,3.894099951E0
1.349598750E1,7.115399837E0,-9.076099396E0,4.091499805E0
1.351598750E1,5.728899956E0,-9.058300018E0,3.652599812E0
1.354598594E1,3.105299950E0,-7.568899632E0,2.348399878E0
1.356598594E1,1.619399905E0,-5.345599651E0,2.475399971E0
1.358598750E1,-1.075799942E0,-3.863199949E0,2.710399866E0
1.361598594E1,-4.189700127E0,-5.829199791E0,1.510499954E0
1.363598594E1,-2.265399933E0,-6.859499931E0,3.757999837E-1
1.365598750E1,5.995000005E-1,-5.483299732E0,-1.578999907E-1
1.368598594E1,8.478999734E-1,-1.314899921E0,2.184999883E-1
1.370598750E1,2.660999894E-1,9.550999999E-1,7.073000073E-1
1.372598750E1,8.248999715E-1,2.597399950E0,7.824999690E-1
1.375598594E1,1.915399909E0,4.329099655E0,-2.104000002E-1
1.377598594E1,1.637099981E0,4.779200077E0,-1.339800000E0
1.379598750E1,6.796000004E-1,4.943200111E0,-2.375000000E0
1.381598750E1,-4.846999943E-1,3.973199844E0,-2.447700024E0
1.383598750E1,-1.758199930E0,2.395099878E0,-2.049499989E0
1.385598750E1,-3.097399950E0,1.559599996E0,-2.160799980E0
1.387598750E1,-4.400199890E0,2.172899961E0,-2.559799910E0
1.389598750E1,-4.834899902E0,3.253399849E0,-3.034999847E0
1.391598750E1,-5.276599884E0,3.346099854E0,-3.437299967E0
1.393598750E1,-6.039799690E0,2.427899837E0,-3.371399879E0
1.395598750E1,-6.203000069E0,1.484499931E0,-3.090999842E0
1.397598750E1,-6.244400024E0,1.778199911E0,-2.850899935E0
1.399598750E1,-7.509399891E0,1.059199929E0,-2.818399906E0
1.401598750E1,-7.649099827E0,1.864899993E0,-1.621699929E0
1.403598750E1,-5.420099735E0,4.474100113E0,-1.468299985E0
1.405599063E1,-6.219599724E0,3.925400019E0,-2.130899906E0
1.408598750E1,-9.298999786E0,-2.172199965E0,-2.262199879E0
1.410598750E1,-8.694799423E0,-5.203599930E0,-2.818000019E-1
1.412598750E1,-6.043999672E0,-4.307300091E0,1.618799925E0
1.414598750E1,-4.555200100E0,-1.899799943E0,2.481499910E0
1.416598750E1,-3.479799986E0,-4.129999876E-2,2.414799929E0
1.418598750E1,-1.484200001E0,1.157799959E0,1.890699983E0
1.421598750E1,1.300999999E0,1.695799947E0,1.170199990E0
1.423598750E1,1.803699970E0,1.779799938E0,8.704999685E-1
1.425598750E1,9.763999581E-1,1.192299962E0,5.961999893E-1
1.428598594E1,5.564000010E-1,-1.989199996E0,-7.849999517E-2
1.430598750E1,6.496999860E-1,-4.534899712E0,-1.288999915E-1
1.433598750E1,1.906299949E0,-7.662499905E0,1.129299998E0
1.435599062E1,3.541199923E0,-8.620999336E0,1.591199994E0
1.438598594E1,4.509699821E0,-9.554599762E0,2.005300045E0
1.440598594E1,4.868000031E0,-1.024609947E1,2.045399904E0
1.442598594E1,5.743999958E0,-1.037449932E1,2.452199936E0
1.444598750E1,6.801399708E0,-9.414400101E0,3.087899923E0
1.447598594E1,5.481899738E0,-7.841199875E0,3.400399923E0
1.449598594E1,3.902400017E0,-7.687500000E0,2.310400009E0
1.451598594E1,4.126299858E0,-5.852599621E0,1.931699991E0
1.453598750E1,2.227799892E0,-4.578899860E0,2.361199856E0
1.456598594E1,-1.294399977E0,-4.075500011E0,2.344399929E0
1.458598750E1,-1.993999958E0,-6.566199780E0,2.231299877E0
1.461598750E1,-7.829999924E-2,-8.014699936E0,2.139099836E0
1.463598750E1,-1.956999898E-1,-6.097899914E0,1.868399978E0
1.465598750E1,-1.492599964E0,-3.286000013E0,1.160799980E0
1.468598594E1,-1.843499899E0,5.812999606E-1,6.031999588E-1
1.470598594E1,-1.134199977E0,2.343400002E0,3.026999831E-1
1.472598750E1,-8.393999934E-1,4.231899738E0,-8.282999992E-1
1.475598750E1,-1.177799940E0,6.346999645E0,-2.997399807E0
1.477598750E1,-1.982199907E0,6.541199684E0,-3.192799807E0
1.479598750E1,-3.438599825E0,5.604399681E0,-2.259500027E0
1.482598750E1,-5.501999855E0,2.459499836E0,-1.449599981E0
1.485598594E1,-5.536499977E0,1.805799961E0,-4.311999977E-1
1.487598750E1,-5.618799686E0,3.039399862E0,-1.590099931E0
1.490598594E1,-7.585799694E0,3.188699961E0,-2.169499874E0
1.492598750E1,-8.555999756E0,2.786200047E0,-2.273599863E0
1.494598750E1,-8.169599533E0,3.074299812E0,-2.346199989E0
1.497598750E1,-9.235099792E0,9.796999693E-1,-1.868199944E0
1.500598594E1,-5.055699825E0,4.761499882E0,-1.623399973E0
1.502598750E1,-6.052799702E0,3.896600008E0,-2.975199938E0
1.505598594E1,-9.953599930E0,-2.414299965E0,-3.292899847E0
1.507598750E1,-9.428099632E0,-5.504600048E0,-1.124199986E0
1.510598594E1,-5.347199917E0,-4.280299664E0,2.581799984E0
1.512598750E1,-3.756599903E0,-2.301399946E0,3.988099813E0
1.515598594E1,-1.156899929E0,-1.325500011E0,2.954499960E0
1.517598594E1,1.427000016E-1,-1.040099978E0,2.011999846E0
1.519598594E1,9.896000028E-1,-2.798999846E-1,1.648099899E0
1.521598750E1,6.822999716E-1,3.278000057E-1,1.308200002E0
1.523598750E1,-2.232999951E-1,-4.221999943E-1,1.404699922E0
1.525598750E1,3.419999778E-2,-2.731999874E0,8.281999826E-1
1.527598750E1,8.345999718E-1,-4.943999767E0,7.322999835E-1
1.529598750E1,1.525200009E0,-6.973700047E0,8.853999972E-1
1.532598750E1,2.394399881E0,-9.937399864E0,1.249799967E0
1.535598594E1,3.738499880E0,-1.141939926E1,1.409099936E0
1.537598750E1,4.459499836E0,-1.186089993E1,1.812399983E0
1.540598594E1,4.545599937E0,-1.071980000E1,3.919399977E0
1.542598594E1,4.185100079E0,-9.425999641E0,5.679100037E0
1.544598750E1,3.195600033E0,-8.382599831E0,6.471600056E0
1.547598594E1,2.630499840E0,-6.648299694E0,5.748499870E0
1.549598594E1,2.111899853E0,-4.833499908E0,5.010999680E0
1.551598750E1,-1.842999905E-1,-3.755399942E0,4.382499695E0
1.554598594E1,-1.495800018E0,-5.153999805E0,3.056699991E0
1.556598594E1,-1.258799911E0,-7.758899689E0,2.507999897E0
1.558598750E1,2.624000013E-1,-8.559599876E0,1.692699909E0
1.561598594E1,5.467000008E-1,-6.172999859E0,1.451499939E0
1.563598750E1,-3.831000030E-1,-3.453199863E0,2.061399937E0
1.565598750E1,-6.432999969E-1,-9.140999913E-1,2.497799873E0
1.568598594E1,-1.789999902E-1,1.170199990E0,2.872999907E0
1.570598594E1,-4.125999808E-1,2.121399879E0,2.530599833E0
1.572598750E1,-1.340899944E0,3.197899818E0,9.265999794E-1
1.575598594E1,-2.923199892E0,3.555299997E0,-2.522000074E-1
1.577598594E1,-4.205199718E0,3.006099939E0,2.642999887E-1
1.579598750E1,-5.577899933E0,2.915799856E0,4.019999802E-1
1.582598750E1,-7.756599903E0,3.166499853E0,-1.001299977E0
1.585598594E1,-9.651700020E0,3.891899824E0,-1.355399966E0
1.587598750E1,-1.006330013E1,4.426300049E0,-1.940899968E0
1.590598750E1,-1.085479927E1,3.811100006E0,-2.065700054E0
1.593598750E1,-8.707399368E0,4.546700001E0,-2.545099974E0
1.595598750E1,-9.218199730E0,3.521999836E0,-3.111099958E0
1.598598594E1,-7.149999619E0,6.501299858E0,-2.602399826E0
1.600598594E1,-7.346999645E0,6.132499695E0,-3.233399868E0
1.602598750E1,-1.001539993E1,2.570699930E0,-3.392400026E0
1.605598594E1,-1.227349949E1,-4.158999920E0,-6.915999651E-1
1.607598750E1,-9.332599640E0,-4.993599892E0,2.632299900E0
1.609598750E1,-5.849099636E0,-4.300499916E0,4.812599659E0
1.612598750E1,-3.484999895E0,-3.167799950E0,3.280499935E0
1.614598750E1,-1.907699943E0,-2.727099895E0,1.396099925E0
1.616598750E1,-2.404999882E-1,-2.359899998E0,4.032999873E-1
1.619598750E1,1.033399940E0,-2.405599833E0,-3.179999813E-2
1.622598750E1,1.767799973E0,-4.951799870E0,6.748999953E-1
1.625598594E1,2.333799839E0,-7.002799988E0,1.169000030E0
1.627598594E1,2.642899990E0,-8.129499435E0,1.254699945E0
1.629598750E1,2.767799854E0,-9.428799629E0,1.402899981E0
1.631598750E1,3.049799919E0,-1.034599972E1,1.588099957E0
1.634598594E1,4.000299931E0,-1.133220005E1,1.976499915E0
1.636598750E1,5.424799919E0,-1.186450005E1,2.281599998E0
1.638598750E1,7.202299595E0,-1.167499924E1,2.768899918E0
1.641598594E1,7.281499863E0,-1.134639931E1,3.480599880E0
1.643598750E1,5.587800026E0,-1.092029953E1,2.883599997E0
1.645598750E1,4.141099930E0,-9.295999527E0,2.285199881E0
1.648598750E1,1.484999955E-1,-6.857499599E0,2.553400040E0
1.650598906E1,-1.488699913E0,-6.796899796E0,2.644999981E0
1.653598750E1,-8.517000079E-1,-7.770499706E0,1.982999921E0
1.656598594E1,6.297999620E-1,-6.671099663E0,7.123999596E-1
1.658598750E1,2.166000009E-1,-4.908199787E0,5.328999758E-1
1.661598594E1,-2.136999965E-1,-1.840399981E0,1.010999918E0
1.663598750E1,5.289999768E-2,1.087999940E-1,1.186200023E0
1.665598750E1,-2.304999977E-1,1.709999919E0,1.116699934E0
1.668598594E1,-7.601999640E-1,2.849299908E0,-6.099999696E-2
1.670598594E1,-1.339900017E0,3.235100031E0,-9.807999730E-1
1.672598750E1,-2.893599987E0,3.203999996E0,-1.766999960E0
1.675598750E1,-4.661099911E0,2.398599863E0,-2.481299877E0
1.677598750E1,-5.770099640E0,1.992199898E0,-3.049399853E0
1.679598750E1,-7.107199669E0,1.803299904E0,-2.952899933E0
1.682598750E1,-8.063599586E0,2.040999889E0,-1.853899956E0
1.684598750E1,-9.001599312E0,1.738499999E0,-1.511299968E0
1.686598750E1,-9.696099281E0,1.586799979E0,-1.378099918E0
1.688598750E1,-9.030799866E0,2.806299925E0,-1.044499993E0
1.691598594E1,-7.647299767E0,4.035399914E0,-9.890999794E-1
1.693598750E1,-6.624199867E0,3.656199932E0,-9.345999956E-1
1.695598750E1,-3.549000025E0,6.574100018E0,-1.896199942E0
1.698598594E1,-5.795899868E0,5.964499950E0,-2.998600006E0
1.700598594E1,-9.979700089E0,1.661899924E0,-2.494199991E0
1.702598750E1,-1.211669922E1,-3.427500010E0,-1.548299909E0
1.705598750E1,-9.649899483E0,-3.268599987E0,1.866299987E0
1.707598750E1,-7.249799728E0,-1.443199992E0,4.556399822E0
1.709598750E1,-4.634500027E0,-5.270999670E-1,5.202899933E0
1.712598750E1,3.901000023E-1,-1.096999943E-1,1.910099983E0
1.715598750E1,2.575799942E0,1.026000008E-1,-1.615799904E0
1.718598594E1,3.075799942E0,-1.255999923E0,-3.297600031E0
1.720598750E1,2.606299877E0,-2.942499876E0,-2.535399914E0
1.722598750E1,2.072299957E0,-5.241799831E0,-1.158599973E0
1.725598750E1,2.841899872E0,-8.100199699E0,9.579999745E-2
1.728598594E1,3.944700003E0,-9.163800240E0,4.174000025E-1
1.730598750E1,4.117199898E0,-9.510799408E0,-3.136999905E-1
1.732598750E1,4.921000004E0,-1.001819992E1,-1.208299994E0
1.735598594E1,7.708299637E0,-1.048589993E1,-8.649999499E-1
1.737598750E1,9.316899300E0,-1.118809986E1,-2.036200047E0
1.740598594E1,5.546000004E0,-1.283659935E1,-3.658799887E0
1.742598750E1,2.153699875E0,-1.079790020E1,-3.631999791E-1
1.744598750E1,-1.223299980E0,-8.561599731E0,2.534299850E0
1.747598594E1,-5.437500000E0,-7.705999851E0,4.783400059E0
1.749598594E1,-5.400399685E0,-7.238599777E0,2.480999947E0
1.751598750E1,-2.623899937E0,-5.280900002E0,-1.961999983E-1
1.754598594E1,-5.762999654E-1,-1.820299983E0,-1.075399995E0
1.756598594E1,1.909999996E-1,6.557999849E-1,-3.912999928E-1
1.758598750E1,7.638999820E-1,2.658599854E0,-2.233999968E-1
1.761598750E1,1.751999974E0,4.276199818E0,-1.235399961E0
1.764598750E1,1.963599920E0,4.119400024E0,-1.616099954E0
1.766598750E1,1.176999927E0,3.278999805E0,-7.621999979E-1
1.769598750E1,-1.181299925E0,1.712899923E0,1.702999920E-1
1.772598750E1,-3.805199862E0,7.811999917E-1,1.047899961E0
1.775598594E1,-5.274799824E0,2.814800024E0,7.236999869E-1
1.777598594E1,-6.883199692E0,3.812699795E0,1.156999990E-1
1.779598750E1,-8.686999321E0,3.743899822E0,9.999999311E-4
1.782598594E1,-9.221499443E0,3.707999945E0,5.449999869E-2
1.784598750E1,-9.462399483E0,3.176800013E0,-2.064999938E-1
1.786598750E1,-1.071059990E1,1.308300018E0,7.087999582E-1
1.788598750E1,-7.555099964E0,3.039899826E0,1.104799986E0
1.791598594E1,-5.485699654E0,3.908299923E0,-1.203400016E0
1.793598594E1,-6.749399662E0,1.133499980E0,-1.218799949E0
1.795598750E1,-6.627699852E0,-2.063699961E0,-8.930999637E-1
1.798598594E1,-4.602699757E0,-2.048899889E0,9.732999802E-1
1.800598594E1,-3.946999788E0,-2.712000012E-1,2.317699909E0
1.802598750E1,-2.322099924E0,9.113999605E-1,2.421900034E0
1.805598750E1,1.169600010E0,1.907199979E0,4.238999784E-1
1.808598750E1,2.822499990E0,1.691599965E0,-1.367399931E0
1.811598594E1,3.019099951E0,-5.648999810E-1,-1.264199972E0
1.813598594E1,3.006099939E0,-2.135599852E0,-2.721999884E-1
1.815598750E1,3.439899921E0,-3.482699871E0,4.072999954E-1
1.818598594E1,4.471600056E0,-5.555099964E0,1.075799942E0
1.820598594E1,4.805799961E0,-6.447199821E0,1.397799969E0
1.822598750E1,5.073899746E0,-6.512099743E0,1.680799961E0
1.825598750E1,5.620599747E0,-6.806799889E0,9.847999811E-1
1.828598594E1,4.830499649E0,-8.631699562E0,1.117799997E0
1.830598750E1,4.402899742E0,-8.629599571E0,1.526399970E0
1.833598594E1,3.277299881E0,-7.653299809E0,1.677999973E0
1.835598594E1,3.777999878E-1,-8.026399612E0,8.086000085E-1
1.837598750E1,-8.858999610E-1,-6.790699959E0,1.528699994E0
1.840598594E1,-1.240399957E0,-4.185400009E0,4.490200043E0
1.842598594E1,-3.873099804E0,-5.335299969E0,5.562599659E0
1.844598594E1,-5.230999947E0,-7.734999657E0,5.214999676E0
1.846598594E1,-2.677599907E0,-7.569999695E0,2.843999863E0
1.848598594E1,8.850000054E-2,-5.258899689E0,1.110399961E0
1.850598594E1,5.141999722E-1,-2.662099838E0,1.038900018E0
1.852598750E1,3.524999917E-1,-2.474000007E-1,1.199399948E0
1.855598594E1,1.042599916E0,2.364599943E0,1.457700014E0
1.857598594E1,7.997999787E-1,3.410099983E0,8.898999691E-1
1.859598594E1,2.493999898E-1,3.525300026E0,-2.019999921E-2
1.861598594E1,-3.783999979E-1,3.240099907E0,-8.219999671E-1
1.863598594E1,-1.538199902E0,2.772599936E0,-1.966899991E0
1.865598594E1,-2.922499895E0,1.878600001E0,-2.977499962E0
1.867598594E1,-3.901499987E0,8.938999772E-1,-3.635599852E0
1.869598750E1,-3.888599873E0,6.579999626E-2,-3.842499971E0
1.872598750E1,-4.576999664E0,8.218999505E-1,-5.004399776E0
1.875598594E1,-5.901499748E0,1.250699997E0,-7.451599598E0
1.877598594E1,-7.279099941E0,8.359999657E-1,-8.468299866E0
1.879598594E1,-8.426699638E0,6.482999921E-1,-7.111899853E0
1.881598750E1,-7.028999805E0,1.153999925E0,-4.217700005E0
1.884598594E1,-4.354499817E0,2.450799942E0,-1.040199995E0
1.886598750E1,-4.773499966E0,1.633599997E0,-2.019999921E-2
1.888598750E1,-4.813799858E0,1.337899923E0,8.696999550E-1
1.891598594E1,-3.670300007E0,1.777699947E0,-1.626799941E0
1.893598594E1,-6.328899860E0,-1.379999965E-1,-1.717700005E0
1.895598750E1,-8.692099571E0,-2.299700022E0,-8.281999826E-1
1.898598594E1,-7.176199913E0,-2.439800024E0,9.598000050E-1
1.900598594E1,-5.528800011E0,-2.483099937E0,2.876899958E0
1.902598750E1,-3.332399845E0,-2.761099815E0,4.362299919E0
1.905598750E1,9.257999659E-1,-1.333699942E0,4.304899693E0
1.908598750E1,3.715600014E0,-3.398000002E-1,2.231600046E0
1.911598594E1,4.195099831E0,2.339999937E-2,5.482999682E-1
1.913598594E1,3.892599821E0,-3.544999957E-1,-3.985999823E-1
1.915598750E1,3.024899960E0,-1.669399977E0,7.189999521E-2
1.918598594E1,2.110199928E0,-3.230399847E0,8.641999960E-1
1.920598594E1,2.033699989E0,-4.378600121E0,1.345700026E0
1.922598750E1,2.180299997E0,-5.372299671E0,1.760299921E0
1.925598594E1,3.615999937E0,-6.997599602E0,1.666099906E0
1.927598594E1,4.625599861E0,-8.178299904E0,1.721300006E0
1.929598750E1,5.824199677E0,-8.574099541E0,2.308799982E0
1.931598750E1,6.393099785E0,-7.732499599E0,3.532999992E0
1.934598750E1,5.937500000E0,-5.427799702E0,3.975799799E0
1.936598750E1,3.668799877E0,-5.455599785E0,2.729499817E0
1.938598750E1,2.619299889E0,-4.468299866E0,1.787499905E0
1.940598750E1,1.682500005E0,-2.848999977E0,1.438499928E0
1.942598750E1,-9.335999489E-1,-1.498099923E0,1.514899969E0
1.944598750E1,-3.205299854E0,-2.659499884E0,1.573799968E0
1.946598750E1,-3.501699924E0,-5.541800022E0,2.050499916E0
1.948598750E1,-6.699000001E-1,-6.638199806E0,2.515100002E0
1.951598750E1,1.095600009E0,-4.143399715E0,3.161399841E0
1.953598750E1,1.562999934E-1,-1.585099936E0,2.509399891E0
1.956598750E1,4.089999795E-1,1.566299915E0,7.617999911E-1
1.958598750E1,2.917000055E-1,4.105999947E0,-4.341999888E-1
1.961598594E1,-6.342999935E-1,6.770499706E0,-2.126600027E0
1.963598750E1,-5.220000148E-1,7.960299969E0,-3.644999981E0
1.965598750E1,-3.197000027E-1,7.860399723E0,-5.100299835E0
1.968598594E1,-1.343400002E0,4.291299820E0,-4.544199944E0
1.970598750E1,-1.599399924E0,1.385399938E0,-4.406699657E0
1.972598750E1,-2.240599871E0,-2.099999925E-3,-4.459399700E0
1.974598750E1,-3.422499895E0,-2.429999970E-2,-4.120399952E0
1.976598750E1,-5.132199764E0,-1.090000011E-2,-3.437799931E0
1.979598750E1,-7.191799641E0,-1.091400027E0,-2.922699928E0
1.981598750E1,-7.304599762E0,-1.365899920E0,-2.114599943E0
1.984598594E1,-5.045799732E0,1.229699969E0,-3.531999886E-1
1.986598750E1,-5.202600002E0,1.722399950E0,2.149999887E-2
1.988598750E1,-5.132899761E0,1.129499912E0,-1.189999934E-2
1.991598750E1,-2.840899944E0,3.957299948E0,-2.306799889E0
1.994598750E1,-7.371500015E0,1.628399968E0,-3.921099901E0
1.997598594E1,-7.755199909E0,-4.506299973E0,-1.794699907E0
1.999598594E1,-4.800799847E0,-4.982599735E0,2.549000084E-1
2.001598750E1,-3.037600040E0,-3.687699795E0,2.283099890E0
2.003598750E1,-1.847000003E0,-1.542199969E0,4.319799900E0
2.006598594E1,9.064999819E-1,1.289099932E0,4.073499680E0
2.008599219E1,2.660199881E0,1.551599979E0,2.092999935E0
2.011598594E1,4.194900036E0,1.381500006E0,-1.782599926E0
2.013598750E1,3.898099899E0,1.449100018E0,-3.461499929E0
2.015598750E1,2.419899940E0,4.163999856E-1,-3.326200008E0
2.017598750E1,7.175999880E-1,-1.472899914E0,-2.209100008E0
2.020598594E1,8.309999853E-2,-4.903899670E0,-5.486999750E-1
2.022598750E1,3.691000044E-1,-6.626800060E0,2.777000070E-1
2.025598750E1,6.075999737E-1,-8.516699791E0,1.366500020E0
2.027598750E1,2.439599991E0,-9.374799728E0,2.119600058E0
2.029598750E1,6.144299984E0,-1.093319988E1,2.901000023E0
2.031598750E1,1.011310005E1,-1.238289928E1,3.090999842E0
2.034598594E1,1.087080002E1,-1.323659992E1,2.597899914E0
2.036598594E1,6.426199913E0,-1.194479942E1,3.362399817E0
2.038598750E1,3.756699800E0,-8.159399986E0,4.160599709E0
2.041598750E1,-2.626899958E0,-5.079499722E0,4.546099663E0
2.044598750E1,-6.291599751E0,-6.937799931E0,4.313899994E0
2.047598594E1,-3.113199949E0,-6.721499920E0,2.758899927E0
2.049598594E1,-3.077199936E0,-4.528399944E0,1.837000012E0
2.051598750E1,-2.968699932E0,-1.795799971E0,1.216499925E0
2.053598750E1,-1.991899967E0,7.031999826E-1,4.746999741E-1
2.055598750E1,-5.525000095E-1,2.875200033E0,3.743000031E-1
2.058598750E1,1.431299925E0,4.767499924E0,-7.847999930E-1
2.061598594E1,1.052999973E0,4.763599873E0,-2.885999918E0
2.063598750E1,-5.367999673E-1,4.431399822E0,-3.894500017E0
2.065598750E1,-2.790400028E0,3.574399948E0,-5.637599945E0
2.068598594E1,-7.339699745E0,1.189100027E0,-4.437500000E0
2.070598750E1,-8.542900085E0,1.350199938E0,-2.577299833E0
2.072598750E1,-8.850600243E0,2.605200052E0,-3.278000057E-1
2.075598594E1,-1.075139999E1,3.679399967E0,1.698699951E0
2.077598594E1,-1.236889935E1,2.925799847E0,1.084800005E0
2.079598750E1,-1.086699963E1,2.552000046E0,5.579999834E-2
2.081598750E1,-8.554699898E0,2.654799938E0,-5.126999617E-1
2.084598594E1,-8.591799736E0,1.288699985E0,-1.142999977E-1
2.086598594E1,-6.283999920E0,3.324499846E0,-1.330799937E0
2.088598750E1,-8.731800079E0,2.163399935E0,-3.348699808E0
2.091598594E1,-1.323019981E1,-3.120699883E0,-3.541299820E0
2.093598594E1,-1.175249958E1,-5.211599827E0,-9.949999452E-1
2.095598750E1,-7.610599995E0,-5.199199677E0,2.008100033E0
2.098598594E1,-2.795599937E0,-3.274699926E0,5.986000061E0
2.100598594E1,-4.508999884E-1,-2.759399891E0,5.714799881E0
2.102598750E1,1.440099955E0,-2.450000048E0,4.099100113E0
2.105598750E1,2.457099915E0,-1.244899988E0,2.002300024E0
2.107598750E1,1.149899960E0,-1.193799973E0,1.165699959E0
2.109598750E1,7.516999841E-1,-2.516099930E0,6.699000001E-1
2.112598750E1,3.960999846E-1,-6.681599617E0,6.333000064E-1
2.115598750E1,8.425999880E-1,-1.003479958E1,6.843999624E-1
2.118598594E1,3.190000057E-1,-1.272029972E1,1.018800020E0
2.120598594E1,1.041199923E0,-1.380690002E1,2.126899958E0
2.122598750E1,3.705199957E0,-1.362809944E1,3.145599842E0
2.124598750E1,6.417399883E0,-1.247909927E1,4.183099747E0
2.127598594E1,7.549199581E0,-9.954500198E0,5.080199718E0
2.129598750E1,4.984799862E0,-8.564000130E0,4.944399834E0
2.131598750E1,3.155599833E0,-6.162399769E0,3.960299969E0
2.134598594E1,5.946999788E-1,-4.032999992E0,2.245399952E0
2.136598594E1,-1.324999928E-1,-4.923199654E0,1.214200020E0
2.138598750E1,1.455500007E0,-7.304999828E0,1.009400010E0
2.141598594E1,4.054999828E0,-9.739399910E0,1.639799953E0
2.143598594E1,3.448699951E0,-8.653800011E0,2.578299999E0
2.145598750E1,3.962000012E-1,-5.936899662E0,2.922399998E0
2.147598750E1,-1.163800001E0,-2.771399975E0,2.882099867E0
2.150598594E1,-1.406899929E0,1.053699970E0,1.788899899E0
2.152598750E1,-1.238699913E0,2.814999819E0,1.126199961E0
2.155598594E1,-1.104599953E0,4.059299946E0,-7.088999748E-1
2.157598594E1,-1.984699965E0,4.049799919E0,-2.500499964E0
2.159598750E1,-3.596299887E0,3.030799866E0,-3.309499979E0
2.162598750E1,-5.407299995E0,1.305699944E0,-1.782099962E0
2.164598750E1,-5.672800064E0,2.108299971E0,-1.577199936E0
2.166598750E1,-6.886899948E0,2.188199997E0,-1.920499921E0
2.169598594E1,-9.420599937E0,9.314000010E-1,-1.322499990E0
2.171598594E1,-1.069509983E1,-1.579999924E-1,-2.146999985E-1
2.173598750E1,-1.049839973E1,-1.929000020E-1,9.037999511E-1
2.175598750E1,-8.518799782E0,1.835099936E0,1.878499985E0
2.177598750E1,-6.204299927E0,3.919199944E0,2.158999920E0
2.179598750E1,-4.094999790E0,5.315799713E0,1.586499929E0
2.181598750E1,-2.916100025E0,6.546199799E0,-5.816999674E-1
2.184598750E1,-6.496999741E0,2.818300009E0,-5.709599972E0
2.187598750E1,-1.035059929E1,-3.669999838E0,-3.744099855E0
2.190598594E1,-7.404599667E0,-2.519099951E0,2.569799900E0
2.192598750E1,-6.294899940E0,-5.812999606E-1,6.302899837E0
2.194598750E1,-5.213699818E0,1.373899937E0,7.798299789E0
2.197598594E1,-1.531799912E0,1.665599942E0,5.292299747E0
2.199598594E1,8.288999796E-1,8.424999714E-1,3.085799932E0
2.201598750E1,2.500399828E0,7.649999857E-2,1.004400015E0
2.203598750E1,2.886999846E0,-1.389999967E-2,-3.384000063E-1
2.205598750E1,2.099299908E0,-5.027999878E-1,-6.031999588E-1
2.208598750E1,5.856999755E-1,-3.005699873E0,-4.109999910E-2
2.211598594E1,1.484699965E0,-6.349599838E0,5.117999911E-1
2.213598750E1,2.239899874E0,-7.885200024E0,7.748000026E-1
2.215598750E1,2.419399977E0,-9.532400131E0,1.346300006E0
2.218598594E1,3.170699835E0,-1.108489990E1,2.719099998E0
2.220598750E1,4.388099670E0,-1.120349979E1,3.732499838E0
2.222598750E1,5.403599739E0,-1.019279957E1,4.742599964E0
2.224598750E1,5.345399857E0,-8.087299347E0,5.225100040E0
2.227598750E1,3.779799938E0,-6.248499870E0,3.757299900E0
2.229598750E1,3.615499973E0,-4.528899670E0,2.779199839E0
2.231598750E1,2.500999928E0,-3.467399836E0,2.014600039E0
2.233598750E1,8.770999908E-1,-3.190899849E0,1.711399913E0
2.235598750E1,3.597999811E-1,-4.759200096E0,1.901999950E0
2.237598750E1,1.193400025E0,-6.819799900E0,2.198699951E0
2.240598594E1,2.045599937E0,-6.567399979E0,2.718899965E0
2.242598594E1,1.208699942E0,-3.964499950E0,2.455699921E0
2.244598750E1,2.349999994E-1,-9.763999581E-1,2.252099991E0
2.247598594E1,1.393999904E-1,2.530400038E0,1.098099947E0
2.249598594E1,6.583999991E-1,3.778299809E0,2.300999910E-1
2.251598750E1,9.186999798E-1,4.646299839E0,-8.420000076E-1
2.253598750E1,7.849999666E-1,5.048399925E0,-2.193699837E0
2.256598594E1,-5.321999788E-1,4.152499676E0,-3.023399830E0
2.258598750E1,-2.533999920E0,2.334300041E0,-2.324300051E0
2.261598594E1,-4.920000076E0,-1.242999956E-1,-1.140900016E0
2.263598594E1,-5.476799965E0,2.971999943E-1,-2.954999804E-1
2.265599375E1,-6.693799973E0,1.341799974E0,-5.533999801E-1
2.268598594E1,-9.554999352E0,1.815999985E0,-6.940999627E-1
2.270598594E1,-1.000909996E1,2.109200001E0,-1.125399947E0
2.272598750E1,-8.059899330E0,3.013799906E0,-2.131000042E0
2.274598750E1,-6.003299713E0,2.678699970E0,-2.619899988E0
2.277598594E1,-4.140399933E0,1.531799912E0,-1.340099931E0
2.279598750E1,-2.513299942E0,2.572599888E0,-2.522500038E0
2.281598750E1,-4.906699657E0,7.743999958E-1,-3.829699993E0
2.284598750E1,-9.659799576E0,-5.308799744E0,-3.909499884E0
2.287598750E1,-6.408999920E0,-4.631700039E0,1.268000007E-1
2.290598594E1,-4.589699745E0,-2.046000004E0,3.642299891E0
2.292598594E1,-3.506999969E0,-1.373199940E0,3.885699987E0
2.294598750E1,-6.905999780E-1,-8.417999744E-1,2.678499937E0
2.297598594E1,2.467599869E0,-8.096999526E-1,1.005800009E0
2.299598594E1,3.252699852E0,-5.825999975E-1,5.048999786E-1
2.301598750E1,2.800599813E0,-3.675999939E-1,3.685999811E-1
2.303598750E1,2.572199821E0,-1.011899948E0,2.561999857E-1
2.305598750E1,2.520900011E0,-2.617899895E0,9.989999980E-2
2.307598750E1,2.871399879E0,-5.108900070E0,-2.104000002E-1
2.309598750E1,3.585799932E0,-7.489500046E0,-2.807999849E-1
2.312598750E1,4.856299877E0,-9.314000130E0,2.723999918E-1
2.315598750E1,5.184499741E0,-9.556499481E0,7.129999995E-1
2.318598594E1,5.166899681E0,-1.029039955E1,8.759999871E-1
2.320598594E1,6.252599716E0,-1.050759983E1,1.538599968E0
2.322598750E1,7.170300007E0,-1.073639965E1,2.468299866E0
2.325598750E1,6.547499657E0,-9.598699570E0,4.189300060E0
2.328598594E1,3.157999992E0,-8.084400177E0,3.224999905E0
2.330598750E1,2.562199831E0,-6.003900051E0,2.876399994E0
2.332598750E1,7.760999799E-1,-4.484299660E0,3.019299984E0
2.335598594E1,-4.099599838E0,-4.160699844E0,2.408799887E0
2.337598750E1,-4.951499939E0,-6.907299995E0,1.820400000E0
2.340598594E1,-1.126299977E0,-7.667999744E0,1.003799915E0
2.342598594E1,-1.655599952E0,-5.697199821E0,4.131999910E-1
2.344598750E1,-3.087599993E0,-2.044100046E0,9.009999633E-1
2.347598594E1,-2.286000013E0,2.316999912E0,1.910899997E0
2.349598594E1,-1.702899933E0,4.000999928E0,1.283499956E0
2.351598750E1,-1.775099993E0,5.636899948E0,-7.339999825E-2
2.354598594E1,-1.681399941E0,6.271999836E0,-1.541799903E0
2.356598594E1,-1.553399920E0,5.358099937E0,-1.822999954E0
2.358598750E1,-2.322499990E0,4.144400120E0,-1.838999987E0
2.361598594E1,-3.619599819E0,3.335899830E0,-1.838899970E0
2.363598594E1,-4.956899643E0,2.902400017E0,-9.544000030E-1
2.365598750E1,-6.567199707E0,2.104699850E0,9.499999881E-2
2.368598594E1,-8.117199898E0,1.439099908E0,1.452000022E0
2.370598750E1,-9.217399597E0,1.408599973E0,1.872200012E0
2.372598750E1,-1.011369991E1,1.938599944E0,2.657399893E0
2.374598750E1,-1.084399986E1,2.717000008E0,3.097299814E0
2.376598750E1,-1.180770016E1,2.484799862E0,3.557099819E0
2.379598594E1,-7.128799915E0,5.988599777E0,2.770900011E0
2.381598750E1,-6.533099651E0,7.056099892E0,1.430099964E0
2.384598750E1,-1.015479946E1,2.633899927E0,-1.099399924E0
2.387598750E1,-1.234789944E1,-3.796499968E0,-2.699199915E0
2.390598594E1,-9.611599922E0,-4.898399830E0,-1.463199973E0
2.392598750E1,-8.964599609E0,-5.211699963E0,1.261000037E-1
2.394598750E1,-6.838799953E0,-6.110599995E0,5.652999878E-1
2.397598594E1,-7.202999592E-1,-6.265500069E0,-7.979999781E-1
2.399598594E1,1.277199984E0,-5.094399929E0,-2.100399971E0
2.401598750E1,1.942699909E0,-4.155200005E0,-2.624500036E0
2.403598750E1,1.916299939E0,-3.951799870E0,-2.513099909E0
2.405598750E1,1.475199938E0,-4.492300034E0,-2.455199957E0
2.407598750E1,1.460099936E0,-5.951600075E0,-2.530400038E0
2.409598750E1,3.017299891E0,-7.583999634E0,-2.962100029E0
2.412598750E1,4.844799995E0,-1.000290012E1,-3.217900038E0
2.415598750E1,6.611299992E0,-1.087449932E1,-3.209800005E0
2.418598594E1,7.343299866E0,-1.127569962E1,-2.550499916E0
2.420598594E1,7.729099751E0,-1.121529961E1,-1.921499968E0
2.422598594E1,7.809399605E0,-1.128660011E1,-1.253099918E0
2.424598750E1,7.500999928E0,-1.103809929E1,-6.724999547E-1
2.427598594E1,5.023900032E0,-1.060179996E1,-3.310000002E-1
2.429598750E1,3.603799820E0,-9.902199745E0,-5.385999680E-1
2.431598750E1,1.989199996E0,-8.640500069E0,-4.045999944E-1
2.434598594E1,-2.138999939E0,-7.365299702E0,1.162599921E0
2.436598750E1,-5.322700024E0,-8.323200226E0,1.733999968E0
2.438598750E1,-6.285799980E0,-9.923199654E0,2.332499981E0
2.441598750E1,-4.294600010E0,-9.063099861E0,1.379099965E0
2.444598750E1,-5.919199944E0,-4.645699978E0,4.476999938E-1
2.447598906E1,-5.366199970E0,1.568999887E-1,1.378600001E0
2.450598750E1,-3.768699884E0,3.806999922E0,1.884699941E0
2.452598750E1,-3.767099857E0,6.168200016E0,1.123299956E0
2.454598750E1,-3.188699961E0,7.139899731E0,2.854000032E-1
2.456598750E1,-3.284499884E0,7.364799976E0,-3.791999817E-1
2.458598750E1,-3.443300009E0,6.069499969E0,-6.775999665E-1
2.461598594E1,-4.175899982E0,4.332399845E0,-1.219299912E0
2.463598750E1,-5.088599682E0,4.072799683E0,-7.738999724E-1
2.465598750E1,-5.488199711E0,3.911299944E0,8.909999579E-2
2.467598750E1,-5.967400074E0,3.607399940E0,6.987000108E-1
2.470598594E1,-7.592299938E0,3.274600029E0,1.175300002E0
2.472598750E1,-9.398699760E0,2.468999863E0,1.940099955E0
2.474598750E1,-1.018400002E1,3.083299875E0,3.203999996E0
2.477598594E1,-1.048089981E1,2.947499990E0,3.799700022E0
2.479598594E1,-9.747900009E0,4.255000114E0,4.076799870E0
2.481598750E1,-7.436699867E0,6.578599930E0,3.158699989E0
2.484598750E1,-8.636599541E0,3.612799883E0,7.275999784E-1
2.487598750E1,-1.179909992E1,-2.078399897E0,-7.971999645E-1
2.490598594E1,-1.262119961E1,-3.654099941E0,1.174600005E0
2.492598750E1,-1.067829990E1,-4.337500095E0,3.731499910E0
2.494598750E1,-8.791399956E0,-5.259799957E0,4.842099667E0
2.497598594E1,-6.175399780E0,-6.590199947E0,2.230700016E0
2.499598750E1,-3.993799925E0,-6.755699635E0,1.753000021E-1
2.501598750E1,-2.561899900E0,-6.994299889E0,-1.630800009E0
2.504598594E1,-2.084499836E0,-7.409199715E0,-1.652799964E0
2.506598594E1,-2.350399971E0,-7.457999706E0,-1.480099916E0
2.508598750E1,-2.150099993E0,-8.313699722E0,-2.084800005E0
2.511598594E1,-1.447899938E0,-7.856899738E0,-4.146100044E0
2.513598750E1,-1.574999928E0,-7.441499710E0,-5.514899731E0
2.515598750E1,-1.398699999E0,-7.092099667E0,-5.457499981E0
2.517598750E1,-1.035599947E0,-6.653999805E0,-5.023299694E0
2.520598594E1,-7.360000014E-1,-5.915899754E0,-4.107100010E0
2.522598750E1,-7.724999785E-1,-5.265699863E0,-2.589200020E0
2.524598750E1,6.530999541E-1,-4.611999989E0,-1.892699957E0
2.526598750E1,1.421899915E0,-4.090199947E0,-2.784699917E0
2.529598750E1,5.945000052E-1,-2.563400030E0,-2.866499901E0
2.531598750E1,3.082000017E-1,-2.347499847E0,-1.112800002E0
2.534598906E1,2.202999890E-1,-1.940299988E0,6.430999637E-1
2.537599531E1,7.716999650E-1,-1.081699967E0,-3.483799934E0
2.540598594E1,-4.799000025E-1,3.559999913E-2,-2.658399820E0
2.542598750E1,-8.078999519E-1,3.824999928E-1,-1.128299952E0
2.544598750E1,-1.994999945E-1,3.209999800E-1,-1.080500007E0
2.547600313E1,8.205999732E-1,-1.400000006E-1,-1.240999937E0
2.550598594E1,-7.759999484E-2,9.803999662E-1,-2.355799913E0
2.552598750E1,-3.488999903E-1,1.452600002E0,-3.314599991E0
2.555598594E1,-8.100000024E-2,2.139299870E0,-4.338599682E0
2.557601719E1,-2.845999897E-1,2.263700008E0,-3.570199966E0
2.560598594E1,4.769999906E-2,1.420099974E0,-2.898399830E0
2.562598750E1,-1.801999956E-1,7.518999577E-1,-2.193599939E0
2.565598750E1,-6.502999663E-1,7.655000091E-1,-6.324999928E-1
2.567598750E1,-2.952199936E0,2.152299881E0,6.645099640E0
2.570598594E1,-6.827099800E0,4.013799667E0,7.080999613E-1
2.572598750E1,-4.092999995E-1,8.858000040E-1,-2.906599998E0
2.574598750E1,2.484499931E0,-8.633999825E-1,-5.781999826E-1
2.577598750E1,9.395999908E-1,-1.280999929E-1,-7.669999599E-1
2.580598750E1,-3.570000082E-2,-1.918399930E0,4.451600075E0
2.582598750E1,1.719699979E0,-2.176300049E0,3.925499916E0
2.585598594E1,1.078199983E0,6.050999761E-1,-4.174999893E-1
2.587598750E1,3.098999858E-1,8.579999804E-1,-8.967999816E-1
2.590598594E1,6.513000131E-1,-1.059999943E0,-1.595399976E0
2.592598750E1,5.055999756E-1,-1.484799981E0,-9.167999625E-1
2.594598750E1,-1.597999930E-1,-1.082199931E0,-3.201799870E0
2.596600469E1,-6.423000097E-1,-6.552000046E-1,-1.317299962E0
2.599598594E1,3.154999912E-1,-1.462499976E0,-2.364899874E0
2.601598906E1,-1.362999976E-1,-5.084999800E-1,-2.056099892E0
2.603603750E1,-1.805000007E-1,3.419999778E-1,-2.563599825E0
2.606598750E1,-2.748000026E-1,1.003999949E0,-2.764400005E0
2.608598750E1,3.610000014E-1,3.993999958E-1,-1.996699929E0
2.610598750E1,-1.504999995E-1,4.086000025E-1,-1.011199951E0
2.612598750E1,-3.614999950E-1,4.852999747E-1,1.371999979E-1
2.615599062E1,-1.182099938E0,1.370199919E0,7.378999591E-1
2.618598594E1,-6.521999836E-1,8.061999679E-1,1.172999978E0
2.620598906E1,-1.669999957E-2,5.809000134E-1,1.742499948E0
2.623598750E1,3.810999990E-1,1.883199930E0,6.937999725E-1
2.625599375E1,-7.389999926E-2,2.105599880E0,-6.348999739E-1
2.628598594E1,-1.965999961E0,-1.230299950E0,1.374400020E0
2.630599063E1,-1.895499945E0,-1.702199936E0,4.510200024E0
2.633598594E1,-7.993999720E-1,4.289999902E-1,1.689000010E0
2.635599531E1,-1.185799956E0,2.682999969E-1,-1.292500019E0
2.638598750E1,-1.745099902E0,-5.331000090E-1,3.747999966E-1
2.640599531E1,-1.299799919E0,-6.674000025E-1,7.864999771E-1
2.643598594E1,-4.954999983E-1,-6.759999990E-1,-4.348999858E-1
2.645602344E1,-6.179999933E-2,-4.682999849E-1,-1.459399939E0
2.648598594E1,3.791999817E-1,-5.949999765E-2,-2.018599987E0
2.650598594E1,4.909999967E-1,7.569999993E-2,-2.870899916E0
2.652598750E1,6.025999784E-1,1.926999986E-1,-3.349999905E0
2.655599375E1,1.166700006E0,-9.309999645E-2,-2.694000006E0
2.658601094E1,4.869000018E-1,6.236000061E-1,-2.322200060E0
2.661598594E1,1.699999906E-2,6.940999627E-1,-1.934099913E0
2.663598750E1,-4.681999981E-1,1.087399960E0,-2.487200022E0
2.665599062E1,-4.101999998E-1,1.327000022E0,1.385599971E0
2.668598594E1,4.357999861E-1,7.963999510E-1,2.308599949E0
2.670598594E1,6.561999917E-1,6.369000077E-1,1.236899972E0
2.672598594E1,1.287599921E0,1.570299983E0,1.704699993E0
2.674598906E1,1.113799930E0,1.517399907E0,1.930399895E0
2.677601563E1,-6.854000092E-1,2.888999879E-1,5.426399708E0
2.680598750E1,5.600999594E-1,1.074999943E-1,5.388700008E0
2.682598750E1,1.773499966E0,6.653999686E-1,1.613399982E0
2.684599063E1,1.998899937E0,7.910000086E-1,-1.391499996E0
2.687598750E1,9.114999771E-1,-6.669999659E-2,-9.807999730E-1
2.690598594E1,9.310999513E-1,-1.083799958E0,-4.463000000E-1
2.692598750E1,3.348999918E-1,-1.250999928E0,-8.749999851E-2
2.694598750E1,-1.730999947E-1,-1.036399961E0,-7.102000117E-1
2.696599375E1,-3.030999899E-1,-7.876999974E-1,-1.998199940E0
2.698599531E1,8.619999886E-2,-1.083999991E0,-2.866699934E0
2.701598750E1,5.881999731E-1,-9.369999766E-1,-3.373699903E0
2.703599375E1,3.680000007E-1,-4.669999704E-2,-3.600299835E0
2.706598750E1,-5.460999608E-1,1.003799915E0,-3.368899822E0
2.708599062E1,-7.181999683E-1,6.258999705E-1,-2.427500010E0
2.711598594E1,-1.074699998E0,8.854999542E-1,1.655000001E-1
2.713599219E1,-8.568999767E-1,8.605999947E-1,7.659999728E-1
2.716598750E1,-1.707599998E0,1.136199951E0,1.767300010E0
2.718599219E1,-1.771600008E0,1.070599914E0,2.823599815E0
2.721598594E1,-3.897999823E-1,1.818599939E0,2.726999998E0
2.723598750E1,-7.410999537E-1,1.844699979E0,1.504999995E0
2.725598750E1,-9.293999672E-1,-4.452999830E-1,2.398799896E0
2.728598906E1,-1.737100005E0,-9.404000044E-1,4.039700031E0
2.731598750E1,4.341999888E-1,-7.549999654E-2,5.022000074E-1
2.734598750E1,-9.000999928E-1,2.657999992E-1,-1.556499958E0
2.736598750E1,-2.244799852E0,7.687999606E-1,7.838999629E-1
2.738598750E1,-1.038599968E0,-3.585999906E-1,6.639999747E-1
2.741598750E1,5.842999816E-1,-1.035099983E0,-9.596999884E-1
2.744598750E1,4.273999929E-1,-7.326999903E-1,-1.611499906E0
2.746598750E1,9.352999926E-1,-6.888999939E-1,-2.141199827E0
2.749598594E1,9.572999477E-1,-2.347999960E-1,-3.406899929E0
2.751598750E1,5.194000006E-1,5.279999971E-1,-4.214699745E0
2.754598594E1,-3.393999934E-1,1.446099997E0,-4.605199814E0
2.756598750E1,-2.683999836E-1,9.534999728E-1,-3.199100018E0
2.758598750E1,4.419999942E-2,4.582999945E-1,-2.186199903E0
2.760598750E1,2.439999878E-1,3.316999972E-1,-5.834999681E-1
2.762598750E1,3.614999950E-1,6.265999675E-1,2.058999985E-1
2.765598750E1,5.343999863E-1,1.139899969E0,1.332199931E0
2.767598906E1,-1.274999976E-1,1.592000008E0,2.340999842E0
2.770598594E1,-8.422999978E-1,1.419999957E0,3.785399914E0
2.772598906E1,-1.951999962E-1,2.516799927E0,3.510099888E0
2.775598906E1,-1.074599981E0,3.839999810E-2,4.657199860E0
2.778598594E1,2.599999867E-2,-4.972999990E-1,6.645499706E0
2.780598750E1,1.515999913E0,-5.539999902E-2,1.994899988E0
2.782599063E1,1.927699924E0,7.093999982E-1,-1.366099954E0
2.785598750E1,4.860999882E-1,-5.105000138E-1,2.549000084E-1
2.787598750E1,-3.003999889E-1,-1.489899993E0,1.547399998E0
2.790598594E1,-2.999999851E-4,-1.196699977E0,-3.328999877E-1
2.792598750E1,-6.923999786E-1,-1.887999922E-1,-9.524999857E-1
2.794598750E1,-1.308699965E0,-1.620000042E-2,-1.843799949E0
2.796599531E1,-1.206599951E0,-5.009999871E-2,-3.163100004E0
2.799598594E1,-5.708000064E-1,2.061999887E-1,-4.480400085E0
2.801599375E1,-4.866999984E-1,9.886999726E-1,-4.681200027E0
2.804598594E1,-5.490999818E-1,1.006999969E0,-2.916399956E0
2.806599375E1,-1.158999920E0,6.820999980E-1,-7.983999848E-1
2.809598750E1,-1.352499962E0,8.203999996E-1,3.581999838E-1
2.811598906E1,-1.146399975E0,8.964999914E-1,7.580999732E-1
2.814599063E1,-1.241500020E0,3.349999785E-1,1.239300013E0
2.816601250E1,-1.208799958E0,1.051900029E0,1.489300013E0
2.819598750E1,-5.886999965E-1,1.752399921E0,1.403800011E0
2.821599375E1,4.539999738E-2,2.975999832E0,2.437999994E-1
2.824598750E1,-1.623499990E0,3.696999848E-1,8.200000040E-3
2.827598594E1,-3.405900002E0,-1.317999959E0,1.389699936E0
2.829598594E1,-2.181799889E0,-6.259999871E-1,9.936999679E-1
2.831598750E1,-2.035599947E0,5.979999900E-2,-4.869000018E-1
2.834598750E1,-3.327699900E0,8.520999551E-1,1.809199929E0
2.836598750E1,-2.544299841E0,3.892999887E-1,2.533499956E0
2.838598750E1,-2.730000019E-1,-3.184999824E-1,1.625999928E0
2.841598594E1,-1.991199970E0,-1.087199926E0,2.023299932E0
2.843598750E1,-1.381600022E0,-1.974099994E0,2.858399868E0
2.845598750E1,-1.121999994E-1,-1.021000028E0,1.305999994E0
2.848598594E1,-1.243999973E-1,3.480999768E-1,-2.541399956E0
2.850598594E1,7.353999615E-1,2.498999983E-1,-3.478600025E0
2.852598750E1,1.548200011E0,-3.091999888E-1,-3.472499847E0
2.854598750E1,9.766999483E-1,-3.057999909E-1,-2.118599892E0
2.856598750E1,6.425999999E-1,1.052000001E-1,-5.629999638E-1
2.858598750E1,5.654000044E-1,1.066999957E-1,-1.815699935E0
2.860598750E1,7.759999633E-1,4.614999890E-1,-1.512099981E0
2.862598750E1,6.162999868E-1,1.064399958E0,-9.169999957E-1
2.865598750E1,5.699999928E-1,1.095299959E0,1.168200016E0
2.867598750E1,7.730000019E-1,6.935999990E-1,1.677699924E0
2.870598594E1,1.274399996E0,1.221199989E0,1.771999896E-1
2.872598594E1,9.269999713E-2,1.358000040E-1,-1.143399954E0
2.874598750E1,-8.016999960E-1,3.130999804E-1,2.776299953E0
2.877598594E1,1.627200007E0,4.270000011E-2,1.888299942E0
2.879598594E1,2.775399923E0,6.410999894E-1,-1.966499925E0
2.881598750E1,1.274599910E0,4.624999762E-1,-4.219500065E0
2.884598594E1,-1.716300011E0,4.840999842E-1,-5.680000037E-2
2.886598750E1,-1.191299915E0,-1.349099994E0,2.611500025E0
2.888598750E1,-4.467999935E-1,-2.823499918E0,2.890499830E0
2.891598750E1,1.289999951E-2,-1.948899984E0,4.068000019E-1
2.893598750E1,-1.550000012E-1,-6.435999870E-1,-1.125499964E0
2.895598750E1,-6.549999863E-2,-1.545999944E-1,-5.419999957E-1
2.897602344E1,3.629999980E-2,-6.059999764E-2,-4.473999739E-1
2.900598750E1,-1.130399942E0,4.655999839E-1,-2.210599899E0
2.902598750E1,-2.024199963E0,1.300999999E0,-1.884699941E0
2.904598750E1,-1.412099957E0,1.411999941E0,-1.974199891E0
2.906598750E1,-1.328999996E-1,1.530799985E0,-1.668799996E0
2.908598750E1,-1.573999971E-1,8.912000060E-1,-1.034099936E0
2.910598750E1,-5.569999814E-1,7.394999862E-1,5.942999721E-1
2.912598750E1,-1.290300012E0,9.328999519E-1,1.629099965E0
2.915598594E1,-3.310000002E-1,-4.384999871E-1,3.653299809E0
2.917598750E1,3.380999863E-1,2.471999973E-1,3.363600016E0
2.920598594E1,-1.579999924E0,-4.176999927E-1,-8.999999845E-4
2.922598594E1,-2.498600006E0,-8.014000058E-1,3.083599806E0
2.924598750E1,-1.411000013E0,-1.207999945E0,2.898200035E0
2.927598594E1,-1.205299973E0,-1.403599977E0,-1.323499918E0
2.929598594E1,-2.912799835E0,1.184000000E-1,-1.628799915E0
2.931598750E1,-2.893699884E0,8.353999853E-1,-1.059999943E0
2.934598594E1,-1.009699941E0,4.829999804E-2,-6.094999909E-1
2.936599375E1,-2.895999849E-1,7.360000163E-2,-5.213999748E-1
2.939598594E1,-4.170999825E-1,7.669000030E-1,-1.276999950E0
2.941598594E1,1.370999962E-1,5.895999670E-1,-2.630999982E-1
2.943598594E1,1.058499932E0,6.729999930E-2,-4.632999897E-1
2.945598750E1,1.318699956E0,-2.802999914E-1,-1.281599998E0
2.948598594E1,4.733999968E-1,3.508999944E-1,-2.460999966E0
2.950598594E1,-3.373999894E-1,6.601999998E-1,-2.668599844E0
2.952598750E1,-2.666999996E-1,6.624999642E-1,-2.006199837E0
2.955598594E1,6.010000110E-1,3.549000025E-1,-9.271999598E-1
2.957598594E1,7.096999884E-1,3.944999874E-1,-1.776999980E-1
2.959598750E1,5.820999742E-1,7.409999967E-1,-1.397999972E-1
2.961598750E1,3.175999820E-1,1.115399957E0,-5.439000130E-1
2.963598750E1,1.860000007E-2,1.266499996E0,3.077999949E-1
2.966598750E1,5.841000080E-1,2.272799969E0,6.955999732E-1
2.968598750E1,-9.999999776E-3,1.326099992E0,-7.730999589E-1
2.971598594E1,-1.605999947E0,-5.701999664E-1,3.232199907E0
2.973598750E1,-8.825999498E-1,-5.054000020E-1,6.019499779E0
2.975598750E1,1.194800019E0,-1.420999914E-1,2.144000053E0
2.977598750E1,1.768000007E0,-3.549000025E-1,-2.235399961E0
2.980598594E1,2.522999942E-1,-1.268000007E0,-2.465299845E0
2.982598594E1,-6.248999834E-1,-1.546700001E0,4.219999909E-2
2.984598594E1,-4.777999818E-1,-1.705500007E0,6.929000020E-1
2.986598594E1,-4.008999765E-1,-1.683599949E0,9.048999548E-1
2.988598594E1,-2.868999839E-1,-1.334299922E0,5.148000121E-1
2.990598594E1,-7.999999523E-1,-3.777000010E-1,-7.427999973E-1
2.992598750E1,-1.026099920E0,2.930999994E-1,-1.569299936E0
2.995598594E1,-8.355999589E-1,7.845999599E-1,-1.810999990E0
2.997598594E1,-5.074999928E-1,8.276999593E-1,-1.539099932E0
2.999598750E1,-4.829999804E-1,4.002999961E-1,-7.225999832E-1
3.001598750E1,-4.280999899E-1,2.065999955E-1,-5.724999905E-1
3.003598750E1,-5.756999850E-1,5.573999882E-1,-8.366000056E-1
3.006598750E1,-2.309999913E-1,4.987999797E-1,-9.940999746E-1
3.008598750E1,-2.841999829E-1,3.567000031E-1,-7.778999805E-1
3.010598750E1,-6.518999934E-1,-1.674999893E-1,-8.699999750E-2
3.012598750E1,-6.547999978E-1,-5.661999583E-1,1.037099957E0
3.015598594E1,4.345999956E-1,9.869999886E-1,3.655999899E-1
3.017598750E1,-4.320999980E-1,2.685000002E-1,-2.714900017E0
3.020598594E1,-1.682299972E0,-2.449899912E0,6.250000000E-2
3.022598594E1,-1.047699928E0,-3.547399998E0,3.426699877E0
3.024598750E1,-5.900000036E-2,-2.292500019E0,2.331899881E0
3.026598750E1,1.234999970E-1,-8.410999775E-1,-1.406999946E0
3.029598594E1,-1.593899965E0,-5.505999923E-1,-1.347199917E0
3.031598750E1,-1.564899921E0,-8.537999988E-1,6.240999699E-1
3.034598594E1,-1.623999923E-1,-1.760699987E0,1.578199983E0
3.036598594E1,5.945999622E-1,-1.746500015E0,6.480999589E-1
3.038598750E1,2.128299952E0,-1.566299915E0,-1.586799979E0
3.041598594E1,1.305799961E0,3.247999847E-1,-1.917199969E0
3.043598594E1,-3.504000008E-1,1.910799980E0,-1.068199992E0
3.045598906E1,-1.599699974E0,2.582099915E0,-1.885999918E0
3.048598594E1,-1.358799934E0,3.597199917E0,-1.667499900E0
3.050598594E1,-1.156000018E0,4.361000061E0,2.626000047E-1
3.052598750E1,-6.593999863E-1,4.165499687E0,1.064000010E0
3.055598594E1,-4.361999929E-1,3.231599808E0,2.910599947E0
3.057598594E1,-4.328999817E-1,2.745100021E0,4.116399765E0
3.059598750E1,5.496999621E-1,2.153100014E0,5.808599949E0
3.061598750E1,2.618499994E0,4.828999937E-1,4.271399975E0
3.064599063E1,3.794299841E0,-4.064999819E-1,4.170599937E0
3.067598594E1,-1.491999924E-1,5.471999645E-1,4.132899761E0
3.069598594E1,2.453999966E-1,-1.725600004E0,3.470000029E0
3.071598594E1,7.852999568E-1,-3.286499977E0,4.672800064E0
3.073598750E1,1.120999977E-1,-1.457299948E0,2.774899960E0
3.075598750E1,1.088999957E-1,-1.569999941E-2,-6.112999916E-1
3.078598594E1,-1.019099951E0,1.504299998E0,-3.234099865E0
3.080598750E1,-2.205100060E0,6.679999828E-1,-9.946999550E-1
3.082598750E1,-2.851300001E0,-1.424999982E-1,9.879999757E-1
3.084598906E1,-2.674399853E0,-8.118000031E-1,2.093099833E0
3.087598750E1,-5.875999928E-1,-7.252999544E-1,8.937999606E-1
3.090598594E1,4.803999960E-1,2.363999933E-1,-5.884999633E-1
3.092598750E1,2.401999980E-1,-4.250999987E-1,6.466999650E-1
3.094599688E1,-1.570999920E-1,-1.129999980E-1,1.395499945E0
3.097598594E1,-3.076999784E-1,5.444999933E-1,-1.849000007E-1
3.099598750E1,6.175999641E-1,4.994999766E-1,-2.851999998E0
3.101598750E1,7.214999795E-1,5.972999930E-1,-4.520299911E0
3.104598594E1,-6.099999696E-2,5.742999911E-1,-2.710599899E0
3.106598750E1,2.958000004E-1,6.667999625E-1,-2.226399899E0
3.109598594E1,7.953000069E-1,-4.527999759E-1,-2.103399992E0
3.111598594E1,3.913999796E-1,-6.322000027E-1,-4.357999861E-1
3.113598594E1,-1.882299900E0,4.365999997E-1,2.577600002E0
3.115598594E1,-1.960099936E0,1.180899978E0,2.698799849E0
3.117598906E1,-1.255299926E0,2.994999886E-1,1.808999926E-1
3.120598594E1,-3.278999805E0,-2.862799883E0,1.931199908E0
3.122598594E1,-2.422499895E0,-2.159999847E0,4.236899853E0
3.124599375E1,-5.180999637E-1,-1.726399899E0,2.269899845E0
3.127598594E1,-2.370899916E0,-3.339999914E-2,-2.079099894E0
3.129598594E1,-1.959899902E0,5.928999782E-1,-1.270099998E0
3.131598750E1,-1.079100013E0,4.005999863E-1,-1.078299999E0
3.134598750E1,-4.682999849E-1,2.380999923E-1,-3.134899855E0
3.137598750E1,-8.252999783E-1,6.709999591E-2,-3.464299917E0
3.140598594E1,-8.157999516E-1,6.326999664E-1,-1.352299929E0
3.142598750E1,-3.696999848E-1,6.901999712E-1,-2.197000027E0
3.144598750E1,2.462999970E-1,8.298999667E-1,-3.957199812E0
3.147601094E1,9.790999889E-1,7.159999609E-1,-2.155200005E0
3.150598750E1,-6.915999651E-1,1.062299967E0,1.741099954E0
3.152598750E1,-9.795999527E-1,1.795699954E0,1.927999973E0
3.155598594E1,8.951999545E-1,1.097399950E0,2.232599974E0
3.157599219E1,8.071999550E-1,1.560599923E0,2.299700022E0
3.160598750E1,4.977999926E-1,2.109299898E0,1.372299910E0
3.162598750E1,5.167999864E-1,2.390100002E0,2.324800014E0
3.165598594E1,-1.600999951E0,8.859999478E-2,8.445000052E-1
3.167598750E1,-2.434499979E0,-1.722899914E0,4.575599670E0
3.170598594E1,2.719999850E-1,-2.205699921E0,3.304899931E0
3.172598594E1,1.235199928E0,-4.635999799E-1,-2.570299864E0
3.174598750E1,7.427999973E-1,3.308999836E-1,-4.505199909E0
3.177598750E1,-1.217700005E0,4.896999896E-1,-6.633999944E-1
3.180598750E1,-1.295199990E0,-1.958999932E-1,2.533900023E0
3.183598594E1,-7.041999698E-1,4.179999977E-2,1.405999959E-1
3.185598594E1,-3.546999991E-1,3.788000047E-1,-2.118999958E0
3.187598750E1,7.889999747E-1,4.879999906E-2,-3.843899965E0
3.190598594E1,6.894999743E-1,1.554999948E-1,-3.445799828E0
3.192598750E1,-3.319999874E-1,1.045099974E0,-2.441900015E0
3.194598750E1,-2.786999941E-1,1.970600009E0,-2.720000029E0
3.196599375E1,6.595000029E-1,1.496299982E0,-3.922899961E0
3.199598750E1,-3.568999767E-1,1.189399958E0,-1.076900005E0
3.201598750E1,-7.182999849E-1,1.201399922E0,1.350499988E0
3.203598750E1,-2.761999965E-1,4.050000012E-2,1.717899919E0
3.206598906E1,3.763999939E-1,-2.043000013E-1,1.945199966E0
3.209598750E1,-1.500999928E-1,3.339999914E-1,2.372799873E0
3.212598750E1,-2.022500038E0,-2.329099894E0,4.242199898E0
3.215598594E1,-3.225999773E-1,-4.141099930E0,7.599999905E0
3.217598750E1,-1.252999902E-1,-2.800099850E0,4.623399734E0
3.220598594E1,-1.999399900E0,1.118999943E-1,-1.166499972E0
3.222598594E1,-3.033399820E0,8.344999552E-1,-1.539399981E0
3.224598750E1,-2.065099955E0,2.759999931E-1,-2.140000015E-1
3.227598750E1,-9.340999722E-1,-5.200000014E-3,-4.143999815E-1
3.230598750E1,-7.863999605E-1,1.569999903E-1,-6.049000025E-1
3.232598750E1,-1.181800008E0,3.401999772E-1,1.515299916E0
3.235598750E1,3.570000082E-2,-2.032999992E-1,8.976999521E-1
3.237598906E1,5.594999790E-1,2.749999985E-2,-2.124099970E0
3.240598594E1,6.199999899E-2,1.693599939E0,-4.417099953E0
3.242598750E1,-1.238999963E-1,2.209699869E0,-4.438899994E0
3.244598750E1,-2.696999907E-1,1.804299951E0,-2.902699947E0
3.246598750E1,-5.810000002E-2,1.193300009E0,-9.975000024E-1
3.249598750E1,9.766999483E-1,7.387999892E-1,5.846999884E-1
3.251598750E1,7.468000054E-1,1.100000024E0,-3.630999923E-1
3.253598750E1,3.948999941E-1,1.062699914E0,-8.835999966E-1
3.256598750E1,6.548999548E-1,4.133999944E-1,1.321799994E0
3.258598750E1,1.365000010E0,7.936999798E-1,1.008700013E0
3.260598750E1,3.497999907E-1,-1.189000010E0,7.149999589E-2
3.262598750E1,-4.199999850E-3,-2.036700010E0,3.362200022E0
3.265598594E1,1.666599989E0,-9.243999720E-1,3.523499966E0
3.267598750E1,1.067399979E0,5.539999902E-2,-1.296999902E-1
3.270598594E1,-6.703000069E-1,-4.845999777E-1,4.417999983E-1
3.272598594E1,-3.788000047E-1,-1.510199904E0,2.035199881E0
3.274598750E1,-2.999999933E-2,-1.870000005E0,2.839099884E0
3.277598750E1,-1.755999923E-1,-9.142999649E-1,1.755999923E0
3.280598750E1,-1.659999974E-2,7.533999681E-1,1.436000019E-1
3.283598594E1,5.055999756E-1,1.168799996E0,-8.884999752E-1
3.285598750E1,5.976999998E-1,1.471300006E0,-1.997799993E0
3.287598750E1,1.296999902E-1,1.873399973E0,-3.144999981E0
3.290598594E1,-5.898000002E-1,1.489499927E0,-2.009399891E0
3.292598750E1,-9.007999897E-1,1.188199997E0,-5.913000107E-1
3.294598750E1,-5.656999946E-1,5.392999649E-1,-1.950000040E-2
3.296598750E1,-1.798999906E-1,2.694000006E-1,-8.036999702E-1
3.299598750E1,-4.431999922E-1,-5.526999831E-1,-7.599999756E-2
3.301598750E1,-7.378000021E-1,-1.048399925E0,1.276499987E0
3.303598750E1,-7.791000009E-1,-1.094799995E0,2.894699812E0
3.305599219E1,2.742999792E-1,-2.597999871E-1,1.710199952E0
3.308598594E1,-8.585999608E-1,-1.031700015E0,-1.595199943E0
3.310598750E1,-1.324199915E0,-1.434899926E0,2.506799936E0
3.312598750E1,-6.800999641E-1,-1.547899961E0,4.352900028E0
3.315598594E1,-3.789999783E-1,-1.110599995E0,-1.019699931E0
3.317598750E1,-1.793099999E0,-6.114999652E-1,-1.715899944E0
3.320598594E1,-1.115199924E0,-7.724999785E-1,6.868999600E-1
3.322598594E1,-1.693999916E-1,-5.509999990E-1,7.058999538E-1
3.324598750E1,2.372999936E-1,-3.016999960E-1,7.459999919E-1
3.326598750E1,5.437999964E-1,1.155999973E-1,7.961999774E-1
3.329598594E1,4.702999890E-1,6.320999861E-1,-6.905999780E-1
3.331598750E1,4.074999988E-1,9.049999714E-1,-1.911899924E0
3.334598594E1,6.927999854E-1,8.075000048E-1,-2.475800037E0
3.336598594E1,6.244999766E-1,2.657999992E-1,-2.341699839E0
3.338598750E1,3.847999871E-1,4.865999818E-1,-2.435099840E0
3.341598594E1,-1.067999974E-1,8.860999942E-1,-1.567699909E0
3.343598750E1,-3.080999851E-1,6.256999969E-1,-7.989000082E-1
3.345598750E1,-2.105999887E-1,5.823000073E-1,-5.256999731E-1
3.348598594E1,-4.508999884E-1,6.168999672E-1,-2.981999815E-1
3.350598750E1,-1.079699993E0,5.982999802E-1,3.944000006E-1
3.352598750E1,-8.003999591E-1,1.959999949E-1,1.240000010E0
3.355598594E1,-3.517999947E-1,9.199000001E-1,-7.180000097E-2
3.357598750E1,-1.343199968E0,-6.749999523E-2,-6.039999723E-1
3.359598750E1,-1.637099981E0,-5.927999616E-1,3.414999962E0
3.361598750E1,-1.463000029E-1,3.306999803E-1,4.729399681E0
3.363598750E1,1.090399981E0,7.391999960E-1,1.209699988E0
3.366598750E1,1.015599966E0,1.815999895E-1,-2.943899870E0
3.369598594E1,-7.586999536E-1,-1.155799985E0,1.774199963E0
3.371598594E1,-3.186999857E-1,-1.296700001E0,4.213200092E0
3.373598750E1,4.060999751E-1,-1.417899966E0,3.400599957E0
3.375598750E1,3.235999942E-1,-7.317000031E-1,1.069299936E0
3.377598750E1,-4.235000014E-1,-2.017000020E-1,-4.016999900E-1
3.380598750E1,-5.907999873E-1,-1.116999984E-1,-9.623999596E-1
3.382598750E1,-3.095999956E-1,3.879999816E-1,-7.676999569E-1
3.385599219E1,-1.010900021E0,7.055000067E-1,-1.442699909E0
3.388598750E1,-1.225799918E0,5.381000042E-1,-3.914999962E0
3.391598594E1,-4.517999887E-1,1.916999966E-1,-1.275399923E0
3.393598750E1,-3.953000009E-1,3.152999878E-1,-6.031999588E-1
3.395598750E1,-3.183999956E-1,4.053999782E-1,-1.257900000E0
3.397598906E1,-2.545000017E-1,1.318999976E-1,-1.196900010E0
3.400598594E1,1.719999872E-2,-2.395999879E-1,-5.439999700E-2
3.402598750E1,8.427000046E-1,4.262999892E-1,1.036199927E0
3.405599219E1,5.214999914E-1,4.430999756E-1,-3.652999997E-1
3.408598594E1,-1.476699948E0,-1.195699930E0,9.650999904E-1
3.410598750E1,-8.704999685E-1,-1.738399982E0,3.404899836E0
3.412598750E1,5.849999934E-2,-1.771699905E0,3.278599977E0
3.415598594E1,-5.997999907E-1,-1.702899933E0,-1.334999949E-1
3.417598750E1,-2.123100042E0,-9.440999627E-1,-6.130999923E-1
3.420598594E1,-1.995199919E0,-8.076999784E-1,7.819999754E-2
3.422598594E1,-1.457199931E0,-6.243000031E-1,3.804999888E-1
3.424598750E1,-1.223999977E0,-2.660000026E-1,2.621999979E-1
3.426598906E1,-4.360999763E-1,-1.322000027E-1,4.980999827E-1
3.429598594E1,7.141000032E-1,4.402999878E-1,4.459999874E-2
3.431598750E1,4.309999943E-1,1.010399938E0,-1.105499983E0
3.434598594E1,-1.430999935E-1,1.278699994E0,-2.105499983E0
3.436598594E1,-5.399999768E-2,9.156999588E-1,-1.880599976E0
3.438598750E1,2.053999901E-1,4.281999767E-1,-1.294700027E0
3.441598594E1,2.845999897E-1,-8.009999990E-2,-7.544999719E-1
3.443598594E1,-2.609999850E-2,1.379999965E-1,-5.557000041E-1
3.445598750E1,-3.833999932E-1,9.176999927E-1,-1.959999949E-1
3.448598594E1,-6.072999835E-1,1.373899937E0,-2.518000007E-1
3.450598750E1,-3.568999767E-1,9.479999542E-1,-7.116999626E-1
3.452598750E1,1.287999898E-1,5.898999572E-1,2.135799885E0
3.455598594E1,-5.149999857E-1,5.834999681E-1,-3.359999955E-1
3.457598594E1,2.495999932E-1,-9.102999568E-1,-1.605999917E-1
3.459598750E1,-2.136999965E-1,-5.221999884E-1,1.873499990E0
3.461598750E1,7.560999990E-1,-4.618999958E-1,4.061899662E0
3.463598750E1,2.005899906E0,1.136999950E-1,-2.397699833E0
3.466598750E1,-6.674000025E-1,-8.359999955E-2,-5.317000151E-1
3.469598594E1,5.394999981E-1,-4.718999863E-1,2.041199923E0
3.471598594E1,1.169999987E-1,-5.799999926E-3,7.203999758E-1
3.473598750E1,-4.796999991E-1,1.975999922E-1,-3.393999934E-1
3.475598750E1,-5.801999569E-1,3.939999938E-1,-4.228999913E-1
3.477598750E1,-5.572000146E-1,1.613999903E-1,-2.242999971E-1
3.480598750E1,-1.620000005E-1,2.928999960E-1,-1.258199930E0
3.482598750E1,-2.630000003E-2,4.835999906E-1,-1.933200002E0
3.485598750E1,-3.993999958E-1,5.076999664E-1,-1.657299995E0
3.487598750E1,-7.117999792E-1,3.829999864E-1,-1.285200000E0
3.489599375E1,-8.669999838E-1,5.543000102E-1,-5.270999670E-1
3.492598750E1,-7.938999534E-1,6.323999763E-1,-1.799999923E-2
3.494598750E1,-3.719999790E-1,1.477999985E-1,5.309999585E-1
3.496598750E1,-7.407999635E-1,1.472999901E-1,1.482599974E0
3.498599062E1,-9.941999912E-1,2.415999919E-1,2.373100042E0
3.501598594E1,-3.608999848E-1,1.472499967E0,3.937599897E0
3.503599063E1,-2.284999937E-1,1.342800021E0,9.939000010E-1
3.506598750E1,-1.789499998E0,-8.859999478E-2,1.595000029E-1
3.508598906E1,-2.352599859E0,-5.378000140E-1,3.215299845E0
3.511598594E1,-1.355199933E0,-1.023699999E0,8.406999707E-1
3.513598594E1,-1.786499977E0,-1.584800005E0,-2.160899878E0
3.515598594E1,-2.796099901E0,-1.058899999E0,-1.257699966E0
3.517598750E1,-2.542099953E0,-4.421999753E-1,-2.576999962E-1
3.520598750E1,-6.627999544E-1,-4.959999919E-1,-8.609999716E-2
3.523599531E1,2.236000001E-1,-1.052999943E-1,-2.748999894E-1
3.526602188E1,6.712999940E-1,5.763999820E-1,-1.525399923E0
3.529598594E1,1.503999978E-1,1.190199971E0,-1.992799997E0
3.531598750E1,-5.105000138E-1,1.315199971E0,-1.321599960E0
3.533599219E1,-3.555999994E-1,1.138000011E0,-9.454999566E-1
3.536598594E1,-2.210999876E-1,6.987999678E-1,1.950000040E-2
3.538599219E1,-5.949999765E-2,8.205999732E-1,5.744000077E-1
3.541598594E1,-6.929999590E-2,1.320599914E0,3.362999856E-1
3.543598594E1,-2.651000023E-1,1.774399996E0,4.501999915E-1
3.545598750E1,-4.569999874E-1,2.055299997E0,3.680000007E-1
3.547599062E1,-1.079999954E-1,1.722199917E0,3.775999844E-1
3.550598594E1,1.244899988E0,6.847000122E-1,8.343999982E-1
3.552598906E1,2.020499945E0,1.533100009E0,6.200999618E-1
3.555598594E1,-1.269999985E-2,8.909999579E-2,-5.527999997E-1
3.557598750E1,-7.976999879E-1,-6.082000136E-1,2.432499886E0
3.559598750E1,4.060999751E-1,-1.087399960E0,3.524799824E0
3.562599375E1,6.151999831E-1,-4.201999903E-1,6.599999964E-3
3.565598594E1,-1.034399986E0,-7.209999561E-1,-1.309899926E0
3.567598750E1,-1.237900019E0,-9.822999835E-1,1.015900016E0
3.570598594E1,7.869999856E-2,-1.331799984E0,1.116199970E0
3.572598594E1,2.895999849E-1,-9.654999971E-1,1.419000030E-1
3.574598750E1,1.876999885E-1,-5.066999793E-1,-3.896999955E-1
3.577598750E1,2.019999921E-1,7.660000026E-2,-8.200999498E-1
3.580598750E1,-9.319999814E-2,4.904999733E-1,-1.732399940E0
3.582598750E1,-4.266999960E-1,4.510999918E-1,-1.893099904E0
3.585598750E1,-7.838000059E-1,1.149000004E-1,-9.358999729E-1
3.587598750E1,-7.870000005E-1,4.490000010E-2,-4.458999932E-1
3.589598750E1,-4.129999876E-1,-2.231999934E-1,-8.274999857E-1
3.592598750E1,-4.912999868E-1,-7.360000163E-2,-8.944000006E-1
3.594598750E1,-7.073999643E-1,-2.816999853E-1,1.493999958E-1
3.596601406E1,-5.493999720E-1,-4.165999889E-1,1.475199938E0
3.599598594E1,3.141999841E-1,6.568999887E-1,2.188099861E0
3.601598594E1,-4.579999745E-1,2.151999921E-1,-2.058999985E-1
3.603598750E1,-2.149899960E0,-1.682999969E0,5.227000117E-1
3.605598750E1,-1.766399980E0,-2.763099909E0,4.312799931E0
3.608598594E1,7.109999657E-2,-2.354799986E0,3.283599854E0
3.610598750E1,-9.960999489E-1,-1.113399982E0,5.151999593E-1
3.612598750E1,-2.387899876E0,2.361999899E-1,4.079999775E-2
3.615598594E1,-1.234099984E0,-5.004999638E-1,5.338999629E-1
3.617598750E1,-2.268999964E-1,-1.065899968E0,9.502999783E-1
3.619598750E1,1.510999948E-1,-9.337999821E-1,9.127999544E-1
3.622598750E1,9.508000016E-1,-4.690000042E-2,-7.515000105E-1
3.624598750E1,1.231899977E0,6.750000119E-1,-2.133100033E0
3.626598750E1,8.399999738E-1,1.301999927E0,-2.944799900E0
3.629598594E1,5.414000154E-1,1.088099957E0,-2.802399874E0
3.631598750E1,-1.727000028E-1,1.251600027E0,-1.441299915E0
3.634598594E1,-7.164999843E-1,1.181999922E0,-6.013000011E-1
3.636598594E1,-6.635999680E-1,8.149999976E-1,-1.374799967E0
3.638598750E1,-5.324000120E-1,7.911999822E-1,-9.520999789E-1
3.641598594E1,-1.268000007E-1,1.082299948E0,-6.606999636E-1
3.643598594E1,-4.560999870E-1,1.459800005E0,-1.200999990E-1
3.645598750E1,-6.424999833E-1,9.456999898E-1,2.899999917E-2
3.648598594E1,2.038999945E-1,-1.638000011E-1,3.201999962E-1
3.650598594E1,5.317999721E-1,6.772999763E-1,6.082999706E-1
3.652598750E1,-2.705000043E-1,1.816999912E-1,-1.981000006E-1
3.655598594E1,-3.269999847E-2,-6.827999949E-1,2.548799992E0
3.657598594E1,6.552000046E-1,-9.276999831E-1,3.569700003E0
3.659598750E1,1.185599923E0,-1.069999952E-2,2.184700012E0
3.662598750E1,2.465000004E-1,8.971999884E-1,-1.523299932E0
3.665598594E1,-5.011000037E-1,1.775999963E-1,-1.393899918E0
3.667598750E1,-7.639999688E-2,-4.767999947E-1,5.669999719E-1
3.670598750E1,5.913999677E-1,-1.112800002E0,1.253700018E0
3.673598750E1,5.758000016E-1,-1.046199918E0,4.409999773E-2
3.676598594E1,4.233999848E-1,-6.294999719E-1,-7.023999691E-1
3.678598594E1,-4.499999806E-3,-7.469999790E-2,-7.943999767E-1
3.680598750E1,-2.687999904E-1,4.491999745E-1,-1.431299925E0
3.682598750E1,-4.122000039E-1,7.870000005E-1,-2.041199923E0
3.685598594E1,-4.021999836E-1,7.353000045E-1,-1.794799924E0
3.687598750E1,-9.399999678E-2,6.033999920E-1,-7.297999859E-1
3.689598750E1,2.511000037E-1,4.490000010E-1,6.169999763E-2
3.691598750E1,4.127999842E-1,2.525999844E-1,-1.950000040E-2
3.694598750E1,-6.144999862E-1,7.199999876E-3,1.086999997E-1
3.696598750E1,-6.001999974E-1,-5.270999670E-1,1.420899987E0
3.699598750E1,7.446999550E-1,-5.277999640E-1,3.632200003E0
3.702598750E1,3.053999841E-1,7.220999599E-1,6.184999943E-1
3.705598750E1,-1.309299946E0,-1.008499980E0,1.617900014E0
3.707598750E1,-1.055500031E0,-2.507900000E0,4.199899673E0
3.709598750E1,-1.569999941E-2,-2.536799908E0,4.891999722E0
3.712598594E1,-6.297000051E-1,-4.776999950E-1,-6.079999804E-1
3.714598594E1,-1.952699900E0,9.860000014E-2,-2.256899834E0
3.716598750E1,-2.119899988E0,4.849999771E-2,-5.500000119E-1
3.719598750E1,-7.989000082E-1,-5.645999908E-1,1.029999971E0
3.722598750E1,2.179999948E-1,-6.236000061E-1,-3.840999901E-1
3.724598750E1,3.353999853E-1,-3.439999819E-1,-1.309999943E0
3.726602188E1,2.533999979E-1,3.509999812E-2,-1.799299955E0
3.729598750E1,2.202999890E-1,3.046999872E-1,-1.081599951E0
3.731598750E1,1.162999943E-1,2.034999877E-1,-9.088000059E-1
3.733598750E1,-1.142999977E-1,2.904999852E-1,-1.704299927E0
3.736598750E1,-7.946999669E-1,6.890000105E-1,-1.909399986E0
3.738598750E1,-7.604999542E-1,4.979999959E-1,-9.536999464E-1
3.741598750E1,-6.717000008E-1,2.216999978E-1,-5.564999580E-1
3.744598750E1,-7.777999640E-1,7.439000010E-1,-7.996999621E-1
3.746598750E1,-8.118999600E-1,1.207999945E0,-1.059700012E0
3.749598750E1,-1.341499925E0,1.246699929E0,-7.809000015E-1
3.752598750E1,-1.028399944E0,9.054999948E-1,3.028999865E-1
3.755598594E1,-1.284999996E-1,3.640999794E-1,1.319100022E0
3.757598594E1,4.244999886E-1,1.268299937E0,1.886999905E-1
3.759598750E1,-8.429999948E-1,1.112299919E0,-1.320500016E0
3.762598750E1,-9.454999566E-1,2.945999801E-1,2.185999870E0
3.765598594E1,7.590999603E-1,-1.757099986E0,3.957799911E0
3.767598750E1,1.003700018E0,-4.285999835E-1,1.996299982E0
3.770598594E1,8.669999987E-2,6.924999952E-1,-2.070099831E0
3.772598594E1,-4.662999809E-1,6.143000126E-1,-2.458699942E0
3.774598750E1,-5.020999908E-1,-6.919999719E-1,-5.525999665E-1
3.777598750E1,-1.283999979E-1,-1.488099933E0,1.960399985E0
3.780598750E1,1.655000001E-1,-9.276999831E-1,-1.022999957E-1
3.782598750E1,-3.472999930E-1,-4.053999782E-1,-1.583899975E0
3.785598594E1,-6.136999726E-1,1.261999905E-1,-1.148499966E0
3.787598750E1,-4.551999867E-1,3.845999837E-1,-3.146999776E-1
3.789598750E1,-1.806000024E-1,3.735999763E-1,-1.127300024E0
3.792598750E1,-3.355999887E-1,6.377999783E-1,-1.544899940E0
3.795598750E1,-2.405999899E-1,8.206999898E-1,-4.453999996E-1
3.798598594E1,-1.357000023E-1,5.562999845E-1,5.144999623E-1
3.800598594E1,1.829999872E-2,5.468999743E-1,7.371999621E-1
3.802598750E1,4.250000045E-2,5.408999920E-1,1.318999976E-1
3.805598750E1,-3.999999762E-1,1.938000023E-1,7.270000130E-2
3.807599062E1,-9.892999530E-1,4.369999841E-2,1.000800014E0
3.810598750E1,2.375999987E-1,-1.128999963E-1,1.188199997E0
3.812598750E1,7.519999743E-1,9.826999903E-1,6.495000124E-1
3.815598594E1,-2.987000048E-1,4.851999879E-1,-1.178399920E0
3.817598750E1,-1.045799971E0,-7.838000059E-1,1.146799922E0
3.820598750E1,-2.313999981E-1,-2.799199820E0,4.116600037E0
3.823598750E1,3.979999945E-2,-1.303699970E0,1.945199966E0
3.825598750E1,-1.023499966E0,-3.334999979E-1,-9.774000049E-1
3.828598594E1,-1.679600000E0,2.261999995E-1,-1.506299973E0
3.830598750E1,-9.041999578E-1,-1.008999944E-1,8.940000087E-2
3.832598750E1,3.739999980E-2,-3.594000041E-1,5.665999651E-1
3.835598594E1,5.012999773E-1,-6.459999830E-2,-3.039999902E-1
3.837598750E1,2.058999985E-1,3.048000038E-1,-5.187999606E-1
3.839598750E1,7.109999657E-2,7.220999599E-1,-4.670999944E-1
3.842598750E1,1.416999996E-1,1.130599976E0,-1.086699963E0
3.845598750E1,7.129999995E-2,1.320599914E0,-1.762599945E0
3.848598594E1,-2.099999925E-3,8.894999623E-1,-1.063499928E0
3.850598594E1,-9.109999985E-2,8.878999949E-1,-3.237999976E-1
3.852598750E1,-1.879999973E-2,9.375999570E-1,-6.969999522E-2
3.855598594E1,-2.857999802E-1,9.268999696E-1,2.769999951E-2
3.857598594E1,-1.102999970E-1,1.261199951E0,-1.069999952E-2
3.859598750E1,1.187999994E-1,1.320699930E0,6.119999662E-2
3.862598750E1,-1.006999984E-1,1.551299930E0,5.056999922E-1
3.865598594E1,1.551000029E-1,1.769999981E0,1.999999955E-2
3.867598750E1,-4.975999892E-1,1.217999935E0,-7.809000015E-1
3.870598594E1,-5.022000074E-1,-4.997999966E-1,2.321799994E0
3.872598594E1,5.421000123E-1,-2.497699976E0,3.513799906E0
3.874598750E1,1.742699981E0,-3.241999865E0,4.135900021E0
3.877598594E1,2.066299915E0,-1.530299902E0,2.502699852E0
3.879598594E1,1.360099912E0,-3.479999900E-1,-2.617000043E-1
3.881598750E1,6.449999809E-1,4.678999782E-1,-1.745399952E0
3.884598594E1,-3.082000017E-1,4.757999778E-1,-1.570899963E0
3.886598594E1,-8.942999840E-1,2.669999897E-1,-1.428999901E-1
3.888598750E1,-5.230000019E-1,-3.015999794E-1,4.161999822E-1
3.891598594E1,7.784999609E-1,-5.654000044E-1,-3.969999775E-2
3.893598594E1,1.116199970E0,-3.007999957E-1,-6.782000065E-1
3.895598750E1,1.073799968E0,-1.613999903E-1,-8.301999569E-1
3.898598594E1,5.716999769E-1,3.881999850E-1,-3.657999933E-1
3.900598750E1,5.374999642E-1,4.371999800E-1,-8.093000054E-1
3.902598750E1,4.755999744E-1,5.722000003E-1,-1.245999932E0
3.905600156E1,2.290000021E-2,4.923999906E-1,-1.230199933E0
3.908598594E1,-2.872999907E-1,3.428999782E-1,-5.861999989E-1
3.910598750E1,-1.020999998E-1,3.838999867E-1,-6.322999597E-1
3.912598750E1,3.680000082E-2,5.534999967E-1,-9.239999652E-1
3.915598594E1,1.481000036E-1,2.080999911E-1,-1.925599933E0
3.917598906E1,-2.157999873E-1,-2.506999969E-1,-1.302399993E0
3.920598750E1,9.730000049E-2,-4.949999750E-1,9.431999922E-1
3.922598750E1,5.238000154E-1,5.179999769E-2,8.364999890E-1
3.924598750E1,1.871999949E-1,2.902999818E-1,-6.545999646E-1
3.926598750E1,-6.496999860E-1,-1.169999987E-1,-1.016799927E0
3.929598594E1,-4.549999833E-1,-1.011299968E0,2.355000019E0
3.931598750E1,4.789999872E-2,-1.439599991E0,1.855499983E0
3.934598594E1,-3.148999810E-1,-1.298099995E0,1.523999929E0
3.936598594E1,-5.368999839E-1,-1.084499955E0,1.464599967E0
3.938598750E1,-5.532000065E-1,-8.287000060E-1,1.224099994E0
3.941598594E1,2.502000034E-1,-3.195999861E-1,8.763999939E-1
3.943598750E1,8.236999512E-1,-6.059999764E-2,1.702999920E-1
3.945598750E1,9.815999866E-1,5.033000112E-1,-7.594999671E-1
3.948598594E1,8.756999969E-1,1.491500020E0,-1.902899981E0
3.950598594E1,1.013299942E0,1.961399913E0,-2.419800043E0
3.952598750E1,7.694000006E-1,2.414399862E0,-2.242799997E0
3.955598906E1,5.521000028E-1,2.628000021E0,-1.323400021E0
3.957598906E1,3.538999856E-1,2.494099855E0,-6.753999591E-1
3.960598750E1,9.200000204E-3,1.565299988E0,-2.964999974E-1
3.962598750E1,-9.739999473E-2,7.665999532E-1,1.480000019E-1
3.965598594E1,1.724999994E-1,4.032000005E-1,1.189399958E0
3.967598750E1,1.884000003E-1,4.888999760E-1,1.973299980E0
3.970598594E1,-2.741999924E-1,6.538999677E-1,1.891599894E0
3.972598594E1,-3.966999948E-1,4.894999862E-1,1.919499993E0
3.974598750E1,-2.106999904E-1,5.503000021E-1,1.977199912E0
3.976598750E1,-2.547999918E-1,7.549999952E-1,1.500000000E0
3.978598750E1,-1.783999950E-1,1.655000001E-1,1.698799968E0
3.980598750E1,-1.226999983E-1,-5.886999965E-1,3.036399841E0
3.982598750E1,3.452999890E-1,-1.141099930E0,3.457499981E0
3.985598594E1,1.358500004E0,-5.460000038E-1,1.159600019E0
3.987598750E1,1.491999984E0,2.230999917E-1,-9.702999592E-1
3.989598750E1,1.360199928E0,5.744999647E-1,-2.182100058E0
3.992598750E1,5.999000072E-1,9.979999810E-2,-5.692999959E-1
3.995598750E1,-1.982000023E-1,-2.829000056E-1,9.603999853E-1
3.998598594E1,1.674000025E-1,-8.894999623E-1,9.207999706E-1
4.000598750E1,4.599999785E-1,-1.071200013E0,6.466000080E-1
4.002598906E1,5.827999711E-1,-1.098199964E0,1.218999997E-1
4.005598594E1,6.891999841E-1,-8.823999763E-1,-1.120199919E0
4.007598750E1,8.465999961E-1,-6.579999924E-1,-2.108099937E0
4.009598750E1,5.555999875E-1,-1.842999905E-1,-2.427399874E0
4.012598750E1,2.922999859E-1,1.799999923E-1,-2.072399855E0
4.014599375E1,2.999999821E-1,2.651000023E-1,-1.726099968E0
4.017598750E1,6.132999659E-1,1.541000009E-1,-9.332999587E-1
4.020598594E1,9.896999598E-1,6.067999601E-1,-8.112999797E-1
4.022598750E1,9.817000031E-1,8.010999560E-1,-6.577000022E-1
4.024598750E1,6.275999546E-1,6.094999909E-1,5.759999901E-2
4.027598594E1,4.509999976E-2,5.550999641E-1,1.037599921E0
4.029598594E1,7.599999662E-3,1.028599977E0,1.500199914E0
4.031598750E1,-5.185999870E-1,1.572999954E0,1.809700012E0
4.033598750E1,-1.013000011E0,8.245999813E-1,2.185699940E0
4.036598750E1,-9.150999784E-1,-1.244499922E0,4.534800053E0
4.038598750E1,1.137999967E-1,-2.182699919E0,4.741399765E0
4.041598594E1,-8.439999819E-2,-1.202299953E0,1.420199990E0
4.043598750E1,-1.164600015E0,-3.021999896E-1,-4.242999852E-1
4.045598750E1,-2.282899857E0,2.273999900E-1,-9.090999961E-1
4.048598594E1,-2.251499891E0,-1.226999983E-1,7.000000030E-2
4.050598750E1,-1.519899964E0,-4.794999957E-1,-7.739999890E-2
4.052598750E1,-9.537999630E-1,-2.281999886E-1,-1.382699966E0
4.055598594E1,-2.058999985E-1,3.019999899E-2,-2.433799982E0
4.057598594E1,1.169999968E-2,9.160000086E-2,-2.577100039E0
4.059598750E1,-1.500999928E-1,4.517000020E-1,-2.346499920E0
4.062598594E1,5.939999968E-2,7.572999597E-1,-2.173399925E0
4.064598594E1,1.321000010E-1,1.018000007E0,-2.231099844E0
4.066598750E1,3.044999838E-1,1.085799932E0,-2.193699837E0
4.069598594E1,6.010000110E-1,7.206999660E-1,-1.305499911E0
4.071598594E1,7.497999668E-1,4.623000026E-1,-6.577999592E-1
4.073598750E1,1.172399998E0,4.272999763E-1,-3.501999974E-1
4.076598750E1,2.094599962E0,6.602999568E-1,3.000000026E-3
4.079598594E1,1.111699939E0,9.820999503E-1,7.827000022E-1
4.081598750E1,3.455999792E-1,7.982999682E-1,1.020200014E0
4.084598594E1,8.050999641E-1,4.693999887E-1,3.092599869E0
4.086598594E1,4.016000032E-1,1.468699932E0,3.423199892E0
4.088599063E1,-1.557999998E-1,9.009999782E-2,2.332000017E0
4.091598594E1,-1.685999930E-1,-1.011799932E0,3.816200018E0
4.093598750E1,6.877999902E-1,-1.061900020E0,2.495100021E0
4.095598750E1,9.878999591E-1,-3.304999769E-1,-8.053999543E-1
4.097598750E1,4.359000027E-1,8.736999631E-1,-2.749099970E0
4.100598594E1,-8.151999712E-1,4.905999899E-1,-1.479799986E0
4.102598750E1,-8.747999668E-1,-5.735999942E-1,1.066100001E0
4.105598594E1,-2.027999908E-1,-2.041399956E0,3.513799906E0
4.107598594E1,-1.335999966E-1,-1.584800005E0,1.906099916E0
4.109598594E1,-4.962999821E-1,-9.272999763E-1,1.579999924E-1
4.111598594E1,-6.987000108E-1,-5.231999755E-1,-3.143999875E-1
4.113598594E1,-6.983999610E-1,-3.712999821E-1,-1.040400028E0
4.115598594E1,-5.978999734E-1,-1.000999957E-1,-2.181499958E0
4.117600938E1,-2.874999940E-1,2.657999992E-1,-3.272300005E0
4.120598594E1,-3.906999826E-1,7.680000067E-1,-3.651799917E0
4.122598594E1,-5.449000001E-1,7.696999907E-1,-3.086999893E0
4.124598594E1,-7.924000025E-1,8.434999585E-1,-1.316499949E0
4.126598594E1,-2.737999856E-1,5.652999878E-1,-8.428999782E-1
4.128598594E1,2.308999896E-1,2.803999782E-1,-1.409999967E0
4.130598594E1,-7.539999485E-2,3.950999975E-1,-9.157999754E-1
4.132598750E1,-2.904999852E-1,5.493999720E-1,-3.497999907E-1
4.135598594E1,-4.657999873E-1,7.080000043E-1,8.190999627E-1
4.137598594E1,-2.435999960E-1,9.369999766E-1,1.594999909E0
4.139598594E1,-2.734999955E-1,1.142899990E0,1.259799957E0
4.141598594E1,-9.371999502E-1,4.318999946E-1,1.905599952E0
4.143598750E1,-1.663199902E0,-7.531999946E-1,4.446599960E0
4.145598750E1,-1.703699946E0,-1.824199915E0,6.389499664E0
4.148598594E1,-5.041999817E-1,-1.627799988E0,3.587399960E0
4.150598750E1,-8.289999962E-1,-6.635000110E-1,8.416999578E-1
4.152598750E1,-1.696699977E0,1.282999963E-1,-1.093099952E0
4.155599375E1,-2.108099937E0,7.999999821E-2,-7.506999969E-1
4.158598594E1,-1.222800016E0,-6.448999643E-1,-1.796000004E-1
4.160598750E1,-6.467999816E-1,-5.999000072E-1,-7.961999774E-1
4.162598750E1,-7.779999822E-2,-4.185999930E-1,-2.049499989E0
4.164598750E1,2.263999879E-1,-2.773999870E-1,-2.757499933E0
4.166598750E1,2.254999876E-1,-3.350000083E-2,-2.659699917E0
4.169598594E1,1.090999991E-1,5.191999674E-1,-2.267099857E0
4.171598594E1,2.193000019E-1,8.888999820E-1,-2.452199936E0
4.173598750E1,4.415999949E-1,1.025099993E0,-2.532199860E0
4.175598750E1,7.130999565E-1,8.236999512E-1,-1.783399940E0
4.177598750E1,8.607999682E-1,7.238000035E-1,-8.129999638E-1
4.179598750E1,1.019899964E0,4.244999886E-1,2.474000007E-1
4.181598750E1,8.563999534E-1,5.825999975E-1,1.079599977E0
4.184598594E1,9.181999564E-1,6.766999960E-1,1.373600006E0
4.186598594E1,1.128299952E0,7.773000002E-1,1.068099976E0
4.188598750E1,1.035899997E0,7.465999722E-1,6.294999719E-1
4.191598594E1,1.902000010E-1,1.102699995E0,1.357599974E0
4.193598594E1,2.410000004E-2,1.516099930E0,1.857800007E0
4.195598750E1,-1.228999943E-1,1.817999959E0,1.457799911E0
4.198598594E1,-8.089999855E-2,8.299999870E-3,2.875299931E0
4.200598750E1,8.060000092E-2,-1.056399941E0,4.466199875E0
4.202598750E1,4.347999990E-1,-1.155799985E0,3.496599913E0
4.205598594E1,3.323999941E-1,3.170000017E-1,-1.059599996E0
4.207598594E1,2.226999998E-1,9.280999899E-1,-2.624399900E0
4.209598750E1,-3.112999797E-1,3.813000023E-1,-1.500599980E0
4.212598750E1,-8.388999701E-1,-1.016799927E0,1.557899952E0
4.214599219E1,-3.127999902E-1,-1.909999967E0,2.511800051E0
4.217599531E1,1.917999983E-1,-2.118999958E0,8.249999881E-1
4.220598594E1,1.103999987E-1,-1.733399987E0,-9.790999889E-1
4.222598594E1,-1.277000010E-1,-1.170199990E0,-1.824999928E0
4.224598750E1,-3.274999857E-1,-6.322999597E-1,-2.534999847E0
4.226598750E1,-4.262000024E-1,-2.011999935E-1,-3.167500019E0
4.229598594E1,-4.494999945E-1,1.535999924E-1,-3.411799908E0
4.231598750E1,-4.346999824E-1,8.619999886E-2,-2.872200012E0
4.233598750E1,-1.978999972E-1,-1.094999984E-1,-1.589699984E0
4.235598750E1,-9.160000086E-2,6.809999794E-2,-1.084599972E0
4.238598750E1,2.465999871E-1,7.585999966E-1,-1.125699997E0
4.241598594E1,-1.476999968E-1,9.805999994E-1,-2.802000046E-1
4.243598594E1,-6.703999639E-1,7.118999958E-1,6.200999618E-1
4.245598906E1,2.515999973E-1,9.973999858E-1,1.276899934E0
4.248598594E1,1.262399912E0,1.353999972E-1,-5.629999936E-2
4.250598594E1,-6.688999534E-1,-1.411599994E0,1.779299974E0
4.252598750E1,-1.254199982E0,-2.277299881E0,4.927199841E0
4.254598906E1,3.100999892E-1,-3.684899807E0,6.124700069E0
4.257598750E1,9.039999843E-1,-2.463399887E0,2.538399935E0
4.260598594E1,-1.375199914E0,3.412999809E-1,-9.241999984E-1
4.262598594E1,-2.052099943E0,1.429600000E0,-1.474599957E0
4.264598594E1,-1.663199902E0,1.512399912E0,-1.176999927E0
4.266598594E1,-9.021999836E-1,1.283200026E0,-8.711999655E-1
4.268598594E1,-7.236999869E-1,1.278100014E0,-3.341999948E-1
4.270598594E1,-7.055999637E-1,1.386999965E0,-3.588999808E-1
4.272598594E1,-8.230999708E-1,1.668599963E0,-7.868999839E-1
4.274598750E1,-7.695999742E-1,1.842199922E0,-1.299799919E0
4.277598594E1,-3.536999822E-1,1.685899973E0,-1.728399992E0
4.279598594E1,-3.813000023E-1,1.816699982E0,-1.898299932E0
4.281598750E1,-3.565999866E-1,1.859899998E0,-2.645900011E0
4.284598594E1,-7.652999759E-1,1.481799960E0,-2.415899992E0
4.286598594E1,-4.723999798E-1,1.101199985E0,-9.169999957E-1
4.288598750E1,-1.800999939E-1,1.004799962E0,-3.391999900E-1
4.291598594E1,1.424999982E-1,1.237599969E0,4.274999797E-1
4.293598594E1,1.300999969E-1,1.341699958E0,4.361999929E-1
4.295598750E1,5.769999698E-2,1.025699973E0,3.597999811E-1
4.298598594E1,-2.249999940E-1,5.126999617E-1,1.445799947E0
4.300598594E1,3.849999979E-2,5.608999729E-1,3.034999847E0
4.302598750E1,3.689999878E-2,6.766999960E-1,3.448999882E0
4.305598594E1,-3.340999782E-1,-1.480000019E-1,3.427599907E0
4.307598750E1,-7.100000046E-3,-1.054600000E0,4.428199768E0
4.309598750E1,1.093199968E0,-1.454599977E0,2.985899925E0
4.311598750E1,1.496299982E0,-7.962999940E-1,6.309999526E-2
4.314598594E1,5.726000071E-1,9.855999947E-1,-2.803200006E0
4.316598750E1,-5.712000132E-1,7.160999775E-1,-1.250599980E0
4.319598594E1,-8.215000033E-1,-9.457999468E-1,2.587399960E0
4.321598594E1,-5.274999738E-1,-1.627399921E0,4.022999763E0
4.323598750E1,-3.486000001E-1,-1.399399996E0,2.592900038E0
4.325598750E1,-4.163999856E-1,-7.888000011E-1,6.094999909E-1
4.328598594E1,-3.757999837E-1,-1.405999959E-1,-1.228600025E0
4.330598750E1,-1.517999917E-1,-1.709999889E-2,-2.007499933E0
4.332598906E1,2.909999900E-2,1.551000029E-1,-2.636499882E0
4.335598750E1,1.497000009E-1,1.976999938E-1,-3.799799919E0
4.338598750E1,-9.200000018E-2,7.529000044E-1,-2.980599880E0
4.341598594E1,-4.043999910E-1,8.106999993E-1,-1.608199954E0
4.343598594E1,-8.170999885E-1,1.902599931E0,5.547999740E-1
4.345598750E1,-6.839999557E-1,-2.038999945E-1,-3.728999794E-1
4.348598594E1,-6.987000108E-1,-6.462999582E-1,7.469999790E-1
4.350598750E1,-2.414999902E-1,-7.895999551E-1,1.900900006E0
4.352598750E1,4.011999965E-1,-3.107999861E-1,1.907699943E0
4.355598594E1,-7.129999995E-1,-2.909999788E-1,4.210999906E-1
4.357598594E1,-1.604999900E0,-1.271999955E0,3.215199947E0
4.359598750E1,-1.124799967E0,-2.194299936E0,5.805999756E0
4.362598750E1,4.061999917E-1,-1.140299916E0,7.109000087E-1
4.364598750E1,-1.271399975E0,-8.060000092E-2,-1.285899997E0
4.366598750E1,-2.330999851E0,7.536999583E-1,-1.830099940E0
4.369598594E1,-1.871999979E0,1.308999956E-1,1.269400001E0
4.371598594E1,-8.547999859E-1,-3.055000007E-1,1.195400000E0
4.373598750E1,-4.992999732E-1,1.237000003E-1,-6.341999769E-1
4.375601094E1,-3.493999839E-1,4.858999848E-1,-1.760399938E0
4.378598594E1,-1.719999909E-1,8.090999722E-1,-2.658499956E0
4.380598594E1,-4.122999907E-1,1.487900019E0,-2.761099815E0
4.382598750E1,3.806999922E-1,8.549999595E-1,-3.054199934E0
4.385598750E1,1.036700010E0,1.126399994E0,-3.267400026E0
4.388598750E1,1.087700009E0,1.038800001E0,-1.614699960E0
4.391598594E1,1.149799943E0,7.698999643E-1,-4.084999859E-1
4.393598594E1,1.340600014E0,5.451999903E-1,1.259000003E-1
4.395598906E1,1.596399903E0,3.470999897E-1,9.547999501E-1
4.398598594E1,1.791299939E0,-9.049999714E-2,1.697499990E0
4.400598594E1,1.261399984E0,-3.651999831E-1,1.776099920E0
4.402598750E1,9.415999651E-1,-1.166999936E-1,2.508800030E0
4.405598594E1,3.362999856E-1,8.310999870E-1,1.879799962E0
4.407598750E1,-6.888999939E-1,4.465999901E-1,2.590899944E0
4.409598750E1,-1.807799935E0,-1.296000034E-1,4.672599792E0
4.412598594E1,-1.235000014E0,3.315999806E-1,2.800999880E0
4.414598750E1,-3.017999828E-1,1.325999975E0,-1.662099957E0
4.416598750E1,-6.161000133E-1,2.308399916E0,-3.901799917E0
4.419598594E1,-2.067600012E0,8.526999950E-1,-3.987999856E-1
4.421598594E1,-1.967299938E0,-7.777999640E-1,3.340999842E0
4.423598750E1,-8.725999594E-1,-2.178699970E0,4.640599728E0
4.425598750E1,1.030000001E-1,-2.238499880E0,2.207299948E0
4.428598594E1,2.648999989E-1,-1.624300003E0,-3.337999880E-1
4.430598594E1,4.113999903E-1,-1.396999955E0,-8.046000004E-1
4.432598594E1,9.379999638E-1,-1.379999995E0,-1.566200018E0
4.434598594E1,1.220899940E0,-1.095700026E0,-2.399899960E0
4.436598594E1,8.605999947E-1,-2.456999868E-1,-2.693699837E0
4.438598750E1,5.356000066E-1,4.954999983E-1,-2.688499928E0
4.441598594E1,3.797000051E-1,6.399999857E-1,-1.384999990E0
4.443598594E1,5.536999702E-1,4.592999816E-1,-2.935000062E-1
4.445598750E1,8.550999761E-1,2.037999928E-1,5.198999643E-1
4.448598594E1,2.919999957E-1,1.691000015E-1,5.992000103E-1
4.450598750E1,-2.972999811E-1,2.072999924E-1,5.279999971E-1
4.452598750E1,3.799999878E-2,8.700000122E-3,4.389999807E-1
4.455598594E1,8.986999989E-1,4.434999824E-1,-1.850999892E-1
4.457598750E1,3.869999945E-2,1.626999974E-1,-1.930399895E0
4.459598750E1,-1.677899957E0,-7.220000029E-1,-2.791000009E-1
4.462598750E1,-6.638000011E-1,-3.137399912E0,4.208600044E0
4.464603594E1,6.168999672E-1,-3.454999924E0,2.258699894E0
4.467598750E1,-1.532899976E0,-1.215699911E0,1.181999967E-1
4.470598594E1,-2.710599899E0,1.819999889E-2,9.575999975E-1
4.472598750E1,-1.757200003E0,-9.399999678E-2,9.336999655E-1
4.474598750E1,-9.544000030E-1,3.899999894E-3,1.479000002E-1
4.477598594E1,-3.161999881E-1,2.899000049E-1,-9.366999865E-1
4.479598594E1,4.199999943E-2,3.781999946E-1,-1.552099943E0
4.481598750E1,3.041999936E-1,6.439999938E-1,-2.574199915E0
4.484598594E1,3.005000055E-1,1.253799915E0,-3.553499937E0
4.486598594E1,2.239999920E-1,1.469099998E0,-3.120399952E0
4.488598750E1,4.300999939E-1,1.275300026E0,-2.740499973E0
4.491598594E1,5.525000095E-1,1.016899943E0,-2.035300016E0
4.493598594E1,3.368999958E-1,7.906999588E-1,-1.225199938E0
4.495598750E1,2.888999879E-1,6.728999615E-1,-5.081999898E-1
4.498598594E1,1.334999949E-1,8.314999938E-1,5.737999678E-1
4.500598594E1,-1.425999999E-1,9.909999967E-1,4.246999919E-1
4.502598750E1,-8.630999923E-1,1.045499921E0,2.492999882E-1
4.505598594E1,-8.272999525E-1,7.994999886E-1,3.797099829E0
4.507598750E1,-3.935000002E-1,1.304199934E0,4.093199730E0
4.509598750E1,-2.631999850E-1,1.304000020E0,2.338000059E0
4.512598594E1,-7.360999584E-1,-8.590000123E-2,4.087500095E0
4.514598906E1,5.512999892E-1,-8.993999958E-1,3.399799824E0
4.517598750E1,1.591300011E0,-9.219999611E-2,-1.208299994E0
4.520598594E1,2.748000026E-1,1.221499920E0,-2.964599848E0
4.522598594E1,-4.221999943E-1,3.559999764E-1,-4.797999859E-1
4.524598906E1,-4.037999809E-1,-9.205999970E-1,2.127300024E0
4.527598594E1,1.993999928E-1,-1.593099952E0,2.036200047E0
4.529598594E1,-2.308999896E-1,-9.338999987E-1,9.894999862E-1
4.531598750E1,-4.168999791E-1,-5.327000022E-1,1.545999944E-1
4.533598750E1,-7.949999720E-2,-6.772999763E-1,-1.103999987E-1
4.535598750E1,2.251999974E-1,-5.210999846E-1,-1.353600025E0
4.538598750E1,1.818999946E-1,2.440999895E-1,-2.466399908E0
4.541598594E1,1.916999966E-1,6.416999698E-1,-2.698199987E0
4.543598594E1,3.799999878E-2,7.616999745E-1,-2.563799858E0
4.545598750E1,-1.425999999E-1,6.746999621E-1,-1.322499990E0
4.548598594E1,2.954999804E-1,4.891999960E-1,-6.923999786E-1
4.550598594E1,3.958999813E-1,3.720999956E-1,-1.185699940E0
4.552598750E1,-2.454999983E-1,3.181000054E-1,-1.004999995E0
4.555598750E1,-5.487999916E-1,2.395999879E-1,6.899999976E-1
4.558598594E1,5.453999639E-1,8.441999555E-1,6.973999739E-1
4.560598750E1,-4.694999754E-1,8.363999724E-1,-6.456999779E-1
4.562598750E1,-2.290999889E0,-4.192000031E-1,2.864399910E0
4.565598594E1,-1.394500017E0,-3.103699923E0,7.779999733E0
4.567598750E1,1.542000026E-1,-2.857800007E0,4.463399887E0
4.570598594E1,-1.684700012E0,-6.202999949E-1,-2.538999915E-1
4.572598750E1,-2.963099957E0,5.087999701E-1,-6.789999604E-1
4.574600000E1,-2.671599865E0,5.414999723E-1,-8.249999881E-1
4.577598594E1,-1.144599915E0,-1.278000027E-1,-6.672999859E-1
4.579598594E1,-4.122000039E-1,-1.229999959E-1,-1.010900021E0
4.581598750E1,1.079999954E-1,-1.181999967E-1,-1.332099915E0
4.584598594E1,2.073999941E-1,1.457999945E-1,-1.861599922E0
4.586598594E1,1.233999953E-1,4.781000018E-1,-2.084199905E0
4.588598750E1,2.735999823E-1,6.414999962E-1,-2.796499968E0
4.591598594E1,3.312000036E-1,1.084999919E0,-2.878899813E0
4.593598594E1,2.692999840E-1,1.088699937E0,-2.315999985E0
4.595598906E1,2.577999830E-1,1.110599995E0,-1.592899919E0
4.598598594E1,5.451999903E-1,8.393999934E-1,-5.065000057E-1
4.600598594E1,8.833000064E-1,5.953999758E-1,2.349999994E-1
4.602598750E1,1.098500013E0,7.610999942E-1,3.159999847E-1
4.605600469E1,1.471599936E0,6.524999738E-1,1.266999990E-1
4.608598750E1,8.889999986E-1,7.620000094E-2,6.563999653E-1
4.610598750E1,5.432999730E-1,3.722999990E-1,1.756899953E0
4.613598594E1,-3.542000055E-1,1.986999959E-1,1.954899907E0
4.615598750E1,-8.772000074E-1,-1.311299920E0,3.200899839E0
4.618598594E1,-8.329999447E-2,-2.466099977E0,4.607699871E0
4.620598594E1,4.348999858E-1,-6.998999715E-1,-8.179999888E-2
4.622598594E1,-2.159999870E-2,9.659000039E-1,-3.194099903E0
4.624599531E1,-1.050499916E0,1.250499964E0,-1.768999934E0
4.627598594E1,-1.143499970E0,-4.442999959E-1,2.833999872E0
4.629598594E1,-5.410999656E-1,-1.341199994E0,2.704900026E0
4.631598750E1,-5.949000120E-1,-9.139999747E-1,8.149999976E-1
4.634598906E1,-1.036499977E0,-6.347000003E-1,-1.729999930E-1
4.637598906E1,-2.933000028E-1,-8.533999920E-1,1.084800005E0
4.640598594E1,-8.899999782E-3,-4.159999788E-1,-5.641999841E-1
4.642598750E1,-4.602999985E-1,3.608999848E-1,-2.208499908E0
4.644599219E1,-4.624999762E-1,5.733000040E-1,-2.958899975E0
4.646599531E1,-9.709999710E-2,-9.889999777E-2,-1.691999912E0
4.649598594E1,-1.193999946E-1,-7.924999595E-1,-5.220999718E-1
4.651598750E1,-8.509999514E-2,-8.338999748E-1,4.114999771E-1
4.653599063E1,-2.944000065E-1,-8.977999687E-1,5.733000040E-1
4.656598594E1,-2.749999985E-2,-8.992999792E-1,1.669999957E-1
4.658598750E1,2.919999957E-1,-1.005299926E0,-1.310999990E-1
4.660598750E1,1.814000010E-1,-9.601999521E-1,3.228999972E-1
4.663598594E1,2.811000049E-1,-5.799999833E-1,1.515499949E0
4.665598750E1,-3.007999957E-1,-1.228600025E0,-1.990000010E-1
4.667598750E1,-1.292099953E0,-1.681399941E0,1.034899950E0
4.670598594E1,-7.497000098E-1,-1.712999940E-1,2.934099913E0
4.672598594E1,-1.067700028E0,-1.005999967E-1,7.879999876E-1
4.674598750E1,-1.932199955E0,-3.211999834E-1,2.398000002E0
4.676598750E1,-1.497499943E0,-1.672399998E0,4.344699860E0
4.678598750E1,-7.635999918E-1,-2.063099861E0,4.582699776E0
4.681598750E1,-4.156999886E-1,-1.425099969E0,1.819000006E0
4.684598594E1,-1.206999943E-1,-9.165999889E-1,-4.566999972E-1
4.686598594E1,-1.326999962E-1,-3.603999913E-1,-1.721499920E0
4.688598750E1,-2.779999971E-1,-3.544999957E-1,-2.724200010E0
4.691598594E1,-4.509999752E-1,-2.545999885E-1,-3.235199928E0
4.693598594E1,-6.578999758E-1,-1.606999934E-1,-2.899699926E0
4.695598750E1,-5.216000080E-1,-4.509999976E-2,-2.405299902E0
4.697598750E1,-5.963000059E-1,3.265999854E-1,-2.454900026E0
4.700598594E1,-7.398999929E-1,5.414000154E-1,-1.841799974E0
4.702598750E1,-9.067999721E-1,-9.039999545E-2,-1.777399898E0
4.705598594E1,-3.019999862E-1,-1.037299991E0,6.784999967E-1
4.707598750E1,-2.069000006E-1,-2.899000049E-1,1.753899932E0
4.709598750E1,-5.069000125E-1,4.676999748E-1,2.899000049E-1
4.712598750E1,-1.770900011E0,9.614999890E-1,-2.234999985E-1
4.714598750E1,-1.462700009E0,5.345999599E-1,1.356799960E0
4.716598750E1,-7.799999788E-3,4.860000014E-1,1.471799970E0
4.718598750E1,4.219000041E-1,1.377799988E0,4.837999940E-1
4.721598750E1,6.319999695E-2,1.791199923E0,-3.842999935E-1
4.723598750E1,2.707000077E-1,1.093199968E0,4.539999738E-2
4.725600156E1,3.370999992E-1,-4.605999887E-1,6.855999827E-1
4.728598594E1,1.073499918E0,-2.346899986E0,2.754400015E0
4.730598594E1,-1.288999915E-1,-2.546200037E0,3.556399822E0
4.732598906E1,-2.211999893E-1,-1.939000010E0,2.060299873E0
4.735598594E1,-9.089999646E-2,-5.099999905E-1,-6.042999625E-1
4.737598750E1,-2.615000010E-1,8.240000159E-2,-1.646600008E0
4.739598750E1,5.692999959E-1,4.640999734E-1,-1.861199975E0
4.742598750E1,2.075999975E-1,2.985999882E-1,-1.397499919E0
4.745598750E1,-3.119999915E-2,-2.754999995E-1,-7.605999708E-1
4.748598594E1,5.036000013E-1,-1.555299997E0,6.227999926E-1
4.750598594E1,7.181000113E-1,-2.109499931E0,2.071599960E0
4.752598750E1,2.281999886E-1,-1.685499907E0,2.443500042E0
4.755598594E1,-4.493999779E-1,-2.791999876E-1,5.716999769E-1
4.757599688E1,-3.064000010E-1,4.391999841E-1,-3.772999942E-1
4.760598750E1,6.560000032E-2,7.518000007E-1,-1.007099986E0
4.763598594E1,5.179999769E-2,9.267999530E-1,-1.603399992E0
4.765598750E1,-3.958999813E-1,6.245999932E-1,-1.436800003E0
4.767598750E1,6.650000066E-2,4.122000039E-1,-9.738999605E-1
4.770598594E1,3.564999998E-1,9.420000017E-2,-4.863999784E-1
4.772598750E1,-4.556999803E-1,9.099999815E-2,-5.999999642E-1
4.774598750E1,3.935999870E-1,6.739000082E-1,-1.408999920E0
4.777598750E1,3.396999836E-1,4.605000019E-1,-6.377999783E-1
4.780598594E1,2.483999878E-1,7.261999846E-1,3.465999961E-1
4.782598750E1,2.635000050E-1,9.864999652E-1,6.352999806E-1
4.785598594E1,4.830999970E-1,8.705999851E-1,-6.179999933E-2
4.787598594E1,4.477999806E-1,4.423999786E-1,-9.860000014E-2
4.789598750E1,-1.700999886E-1,5.457999706E-1,8.581999540E-1
4.792598750E1,-1.343999952E-1,4.162999988E-1,-1.234999970E-1
4.795598750E1,-6.279999614E-1,-1.371999979E-1,1.188099980E0
4.797598750E1,-1.027999967E-1,-1.512999982E-1,6.067999601E-1
4.800598594E1,-6.674000025E-1,-1.565400004E0,1.253799915E0
4.802598750E1,-6.236999631E-1,-2.502799988E0,2.697700024E0
4.805598594E1,-1.926999986E-1,-2.262399912E0,3.471299887E0
4.807598750E1,-1.352999955E-1,-1.108899951E0,1.133800030E0
4.809598750E1,7.411999702E-1,3.326999843E-1,-9.739999771E-1
4.811598750E1,-6.706999540E-1,9.749999642E-2,-2.653899908E0
4.814598750E1,-4.824999869E-1,-1.059999987E-1,-1.631899953E0
4.816598750E1,-2.006999999E-1,-5.526999831E-1,-1.483999938E-1
4.818598750E1,1.096000001E-1,-9.333999753E-1,6.732999682E-1
4.821598594E1,4.171999991E-1,-1.042400002E0,4.703999758E-1
4.823598750E1,6.186000109E-1,-1.103500009E0,2.436999977E-1
4.825599375E1,3.743999898E-1,-8.775999546E-1,6.707999706E-1
4.828598750E1,3.700000001E-3,-1.114000008E-1,7.875999808E-1
4.831598750E1,3.543999791E-1,1.070999950E-1,-6.187999845E-1
4.834598594E1,4.646999836E-1,3.032999933E-1,-5.153999925E-1
