"Time (s)","Acceleration x (m/s^2)","Acceleration y (m/s^2)","Acceleration z (m/s^2)"
0.000000000E0,-4.394796848E0,5.077718735E0,6.441724300E0
2.000000000E-2,-4.526630878E0,4.766300201E0,8.041778564E0
4.000000000E-2,-2.858945131E0,2.933203697E0,8.405850410E0
6.000625000E-2,-1.120898247E0,2.766413927E0,8.856439590E0
8.200000000E-2,-2.218850374E0,3.376657486E0,1.080108738E1
1.020078130E-1,-3.395524025E0,3.144592285E0,1.096803951E1
1.240000000E-1,-1.911741376E0,2.424808979E0,9.441658974E0
1.440062500E-1,-7.224647403E-1,2.875283003E0,8.618187904E0
1.660000000E-1,-2.024441242E0,3.409180403E0,7.950675011E0
1.860015630E-1,-2.981394053E0,3.841487169E0,7.145676613E0
2.080000000E-1,-3.184585094E0,3.287104845E0,6.361566544E0
2.280000000E-1,-4.896630764E0,2.912450790E0,8.995954514E0
2.480421880E-1,-4.531572819E0,3.426093102E0,1.365637302E1
2.700000000E-1,-3.528114796E0,2.004875660E0,1.012214851E1
2.900000000E-1,-1.519925356E0,2.677320719E0,8.573501587E0
3.100031250E-1,-2.854941845E0,3.670014381E0,1.128330803E1
3.320000000E-1,-4.053642273E0,3.854588032E0,1.049756908E1
3.540000000E-1,-3.324215174E0,2.480661154E0,1.102938747E1
3.740000000E-1,-3.591034412E0,2.578172207E0,1.478626347E1
3.959984380E-1,-2.314043999E0,1.626745105E0,8.795300484E0
4.160062500E-1,-1.183156967E0,4.217252254E0,7.041691780E0
4.380125000E-1,-2.129086971E0,4.077478886E0,6.234089375E0
4.599984380E-1,-2.054215670E0,2.821135759E0,9.601467133E0
4.799984380E-1,-1.022391200E0,3.166379631E-1,8.727458954E0
5.000046880E-1,-3.398492575E0,8.734909892E-1,8.756008148E0
5.219984380E-1,-5.210941792E0,1.674217463E0,6.644886494E0
5.420031250E-1,-3.639693975E0,1.830903411E0,6.594914436E0
5.639984380E-1,-4.521057129E0,3.119855404E0,7.178832054E0
5.839984380E-1,-6.076129436E0,2.957088232E0,5.360866547E0
6.039984380E-1,-4.335669518E0,2.104053259E0,6.601225853E0
6.239984380E-1,-3.623212337E0,3.368459702E0,4.066321850E0
6.439984380E-1,-3.824909687E0,3.132582903E0,5.273803711E0
6.639984380E-1,-2.821097374E0,1.753321767E0,6.522063732E0
6.840000000E-1,-3.292659521E0,3.934784412E0,-1.940988898E0
7.059984380E-1,-2.806128979E0,2.280841112E0,9.294798851E0
7.259984380E-1,-5.280373573E0,3.891152382E0,6.899610519E0
7.459984380E-1,-5.532320499E0,3.051323891E0,7.476201057E0
7.659984380E-1,-4.759960651E0,3.700957060E0,9.827710152E0
7.859984380E-1,-4.269675732E0,2.117221117E0,8.959935188E0
8.060000000E-1,-4.803573132E0,1.874755740E0,7.733549118E0
8.260000000E-1,-3.292094469E0,-2.908284664E-1,8.087210655E0
8.480000000E-1,-4.163736820E0,3.206295729E0,8.883618355E0
8.680000000E-1,-4.195981979E0,2.429281473E0,9.670104027E0
8.880000000E-1,-4.841832638E0,1.048823118E0,8.344472885E0
9.080000000E-1,-1.449966788E0,-2.443282604E0,7.863966465E0
9.280000000E-1,-4.318383217E0,2.037427425E0,1.042852020E1
9.480000000E-1,-6.555515766E0,2.911646128E0,1.012415886E1
9.680000000E-1,-5.700546265E0,7.620360851E-1,1.057883835E1
9.880000000E-1,-1.927820802E0,4.142447710E-1,9.536536217E0
1.008000000E0,-5.721299171E0,1.143643022E0,9.691766739E0
1.028010938E0,-5.950098515E0,-8.938416839E-1,8.755327225E0
1.050000000E0,-6.841478825E0,2.508022070E0,1.085488033E1
1.070000000E0,-5.741506577E0,2.257617235E0,9.933513641E0
1.090000000E0,-5.942820549E0,2.151113510E0,9.648642540E0
1.110000000E0,-6.966446877E0,2.326215982E0,6.957818508E0
1.131998438E0,-5.712517738E0,9.911324382E-1,6.525655270E0
1.152000000E0,-3.351585388E0,9.131293893E-1,6.540805817E0
1.172000000E0,-4.757221222E0,5.823369026E-1,5.981788635E0
1.192000000E0,-5.021512508E0,-8.057254553E-1,5.687005043E0
1.212000000E0,-7.105081081E0,-1.018953085E0,5.696093082E0
1.232000000E0,-7.277913570E0,-3.809854746E0,6.110127449E0
1.252000000E0,-1.315475941E1,1.649605036E0,8.138877869E0
1.272000000E0,-1.187587166E1,-1.291307807E0,9.143561363E0
1.292000000E0,-1.028130531E1,9.813928604E-1,9.669989586E0
1.312000000E0,-9.797455788E0,1.630930156E-1,9.736480713E0
1.333998438E0,-1.189627171E1,-2.811875105E0,8.464547157E0
1.354000000E0,-1.079129887E1,-3.941162348E0,8.383431435E0
1.374000000E0,-1.012216759E1,-2.295273304E0,9.248150826E0
1.394000000E0,-1.448165417E1,-4.039209843E0,5.960776806E0
1.415998438E0,-1.785417557E1,-6.272013664E0,2.026538372E0
1.436000000E0,-1.606950951E1,-6.780743122E0,2.808015347E-1
1.456000000E0,-1.563128281E1,-6.704100132E0,5.574084520E-1
1.477998438E0,-3.117691278E0,-4.165662289E0,1.186271381E1
1.498000000E0,-5.582397461E0,5.286110044E-1,1.385067654E1
1.520000000E0,1.145778656E0,-7.789487362E0,6.698708057E0
1.541998438E0,-1.053589535E1,-5.233859062E0,-4.906294048E-1
1.562000000E0,-2.018816757E1,-2.636763096E0,-4.010201454E0
1.582000000E0,-6.953116417E0,-5.339136600E0,1.326579213E0
1.603998438E0,-1.346001053E1,-4.074835300E0,-2.925417423E0
1.623998438E0,-5.999763966E0,-5.004561424E0,8.104563951E-1
1.644000000E0,-7.101441860E0,-8.801372647E-1,4.401931286E0
1.665998438E0,-4.875543118E0,-1.909596086E0,5.195427418E0
1.686000000E0,-7.141827106E0,-1.675012231E0,2.462647200E0
1.706000000E0,-1.070944595E1,-3.491799533E-1,2.967919350E0
1.726000000E0,-2.155942154E1,6.134260654E0,2.807249427E-1
1.746000000E0,-9.220645428E-1,-5.107569695E0,-5.076761246E-1
1.766000000E0,-2.068548012E1,6.178084373E0,-2.190320969E0
1.786000000E0,5.630673885E0,-2.526859522E0,4.789332390E0
1.806001563E0,1.559879899E0,-1.014030695E0,4.484847069E0
1.828000000E0,3.984995604E0,-4.041623116E0,3.204571962E0
1.848001563E0,2.334796906E0,-3.359495878E0,1.076423407E0
1.870000000E0,1.434624791E0,-1.161417723E0,1.814268589E0
1.890000000E0,-7.701668143E-2,9.749380946E-1,1.345043302E0
1.910001563E0,-5.260004044E0,-1.462043166E0,1.038240671E0
1.932000000E0,-9.313923836E0,-4.677580357E0,-2.135244846E0
1.952000000E0,-9.066650391E0,-3.444834948E0,-2.004713058E0
1.973998438E0,-8.568474770E0,-1.573680043E0,-8.996643424E-1
1.994000000E0,-1.201973534E1,-5.260875225E0,-1.275908470E0
2.014000000E0,-1.593782711E1,-8.912003517E0,-3.711137295E0
2.034000000E0,-1.454686356E1,-7.605803967E0,-5.884277225E-1
2.054000000E0,-1.298382282E1,-5.521929264E0,6.097648740E-1
2.074000000E0,-1.072066021E1,-3.505360365E0,4.912557125E0
2.094000000E0,-1.426426029E1,-4.303750038E0,7.253866196E0
2.114000000E0,-1.538826180E1,-6.468778610E0,7.246951580E0
2.134001563E0,-7.834459782E0,-5.058948040E0,6.926578522E0
2.156000000E0,-1.326660633E1,-3.212568521E0,3.979220629E0
2.176000000E0,-1.662032890E1,-6.687829018E0,4.912490368E0
2.196000000E0,-1.305098534E1,-8.427206993E0,2.567139626E0
2.216000000E0,-8.236283302E0,-5.819298744E0,2.523316145E0
2.236000000E0,-6.149315357E0,-4.882457256E0,2.906100988E0
2.256000000E0,-7.112320900E0,-4.328716755E0,1.769726753E0
2.276000000E0,-5.577359676E0,-5.284328461E0,1.603310704E0
2.296000000E0,-3.793890476E0,-5.599290848E0,1.459821463E0
2.316000000E0,-3.823463440E0,-6.067922592E0,1.809614301E0
2.336000000E0,-2.882130384E0,-5.508550644E0,5.083101273E0
2.356000000E0,-3.799167156E0,-4.253452778E0,2.394776344E0
2.376000000E0,-4.538927555E0,-4.267271996E0,2.551261187E0
2.396000000E0,-7.213519096E0,-6.620092392E0,2.797729969E0
2.416000000E0,-1.498916817E1,-2.874076366E0,1.216867447E0
2.436000000E0,-1.529112530E1,-1.087082505E0,1.357129216E0
2.456000000E0,-1.178740215E1,-3.213363409E0,1.716288328E0
2.476000000E0,-1.435622787E1,-4.873004913E0,-4.305348992E-1
2.496000000E0,-1.329418850E1,-8.089241028E0,-2.464897633E0
2.516000000E0,-8.472131729E0,-7.080324650E0,-1.615588188E0
2.536000000E0,-5.844189167E0,-3.987878084E0,1.178492165E1
2.556000000E0,-4.323190689E0,-5.560073853E0,1.034418678E1
2.576000000E0,-5.363481045E0,-1.252277660E1,-1.070725322E0
2.596000000E0,-6.551647186E0,-1.070810509E1,-1.808943868E0
2.616000000E0,-1.009721088E1,-8.537263870E0,-9.938043952E-1
2.636000000E0,-1.090776253E1,-6.490996838E0,-5.436848998E-1
2.656000000E0,-1.187007809E1,-4.495678902E0,7.149660587E-1
2.676000000E0,-1.086294365E1,-2.881651640E0,3.638372660E0
2.696000000E0,-9.608352661E0,-1.043508053E0,4.852424145E0
2.716000000E0,-9.095984459E0,-8.383249640E-1,6.947599411E0
2.736000000E0,-1.011326027E1,1.579330325E0,6.538995743E0
2.756000000E0,-9.912378311E0,1.187533617E0,5.600497723E0
2.776000000E0,-1.353457546E1,3.033070266E-1,5.458473682E0
2.796000000E0,-1.255464745E1,-2.415663242E0,5.890301228E0
2.816000000E0,-1.155415916E1,-1.429319263E0,4.263958454E0
2.836000000E0,-1.264214134E1,-1.561019540E0,5.586927414E0
2.856000000E0,-1.409529781E1,-2.413882017E0,4.067758083E0
2.876000000E0,-1.258995819E1,-4.819077969E0,3.974786520E0
2.896000000E0,-1.411778450E1,-4.145704269E0,1.255720496E0
2.916000000E0,-1.156403255E1,-5.069224358E0,3.030034781E0
2.936000000E0,-1.148897934E1,-3.121962309E0,4.786536217E0
2.956000000E0,-9.699303627E0,-2.242897749E0,5.744283676E0
2.976000000E0,-7.452508450E0,-2.877792120E0,1.206131816E0
2.996000000E0,-5.536371231E0,-7.032574654E0,5.441015244E0
3.016000000E0,-5.270298958E0,-4.205156803E0,3.569955826E0
3.036000000E0,-5.836805344E0,-4.200511932E0,3.214541435E0
3.056000000E0,-3.594721317E0,-2.589683533E0,2.154848576E0
3.076000000E0,-4.353482246E0,-2.145156622E0,2.358786583E0
3.096000000E0,-7.222003937E0,-2.246316671E0,4.051889420E0
3.116000000E0,-8.536707878E0,-2.757794619E0,2.379443884E0
3.136000000E0,-8.430204391E0,-2.531198025E0,2.377336979E0
3.156000000E0,-7.540624619E0,-1.506010413E0,2.136010885E0
3.176000000E0,-6.270835400E0,-1.140770078E0,2.402131319E0
3.196000000E0,-7.815708637E0,-1.529760838E0,2.682568789E0
3.216000000E0,-6.921263695E0,-2.020371199E0,3.350694895E0
3.236000000E0,-7.956142902E0,-1.808005422E-1,3.561691046E0
3.256000000E0,-6.301960468E0,-2.912211418E-1,4.983549595E0
3.276000000E0,-6.321084976E0,-3.681037426E-1,4.542988300E0
3.296000000E0,-8.146836281E0,1.510291100E0,4.526525497E0
3.316000000E0,-7.954131603E0,7.173890471E-1,5.382874012E0
3.336000000E0,-6.499999046E0,2.396883219E-1,6.221266270E0
3.356000000E0,-5.044420242E0,6.777793765E-1,6.440441132E0
3.376000000E0,-5.636678696E0,2.652009130E-1,6.282250881E0
3.396000000E0,-6.831538677E0,-8.316498995E-2,7.345487118E0
3.416000000E0,-6.394883633E0,2.286366820E-1,7.438564301E0
3.436000000E0,-6.285756111E0,2.279184312E-1,8.428920746E0
3.456000000E0,-6.764414787E0,1.038863301E0,7.266230106E0
3.476000000E0,-6.377684116E0,1.339785695E0,7.154880524E0
3.496000000E0,-5.720303059E0,1.500293016E0,6.962051392E0
3.516000000E0,-5.897963047E0,1.683267474E0,7.250753403E0
3.536000000E0,-6.655995369E0,1.418305874E0,7.709549904E0
3.556000000E0,-6.497192860E0,1.075044394E0,8.000397682E0
3.577998438E0,-6.108728886E0,1.128272295E0,8.308349609E0
3.598000000E0,-6.012080193E0,5.162186027E-1,8.893022537E0
3.618000000E0,-6.486505508E0,7.826166600E-2,9.144059181E0
3.638000000E0,-7.229196072E0,2.765494287E-1,8.737686157E0
3.658000000E0,-7.285623074E0,3.686783314E-1,8.848442078E0
3.678006250E0,-7.084414005E0,1.934610754E-1,8.134328842E0
3.700000000E0,-5.642395973E0,-1.581992656E-1,7.699512959E0
3.720000000E0,-4.829209805E0,-2.483649105E-1,8.423146248E0
3.742004688E0,-6.500908852E0,4.011054039E-1,8.475857735E0
3.763998438E0,-5.279473305E0,-8.474899530E-1,8.183074951E0
3.784004688E0,-5.098490715E0,-1.371686161E-1,8.193005562E0
3.804004688E0,-8.115079880E0,1.222958192E-1,7.950109482E0
3.825998438E0,-6.045521736E0,-3.609881699E-1,7.012558937E0
3.845998438E0,-4.600774288E0,1.736274958E-1,7.059533596E0
3.865998438E0,-4.701024532E0,2.971778810E-1,7.406252384E0
3.885998438E0,-4.971483231E0,1.326770782E-1,7.757299900E0
3.905998438E0,-4.777083397E0,2.074336410E-1,8.045992851E0
3.926000000E0,-4.871223450E0,7.454107404E-1,8.020700455E0
3.947998438E0,-4.274531364E0,8.229445815E-1,7.535740376E0
3.967998438E0,-3.834630013E0,9.266231060E-1,6.996125698E0
3.988000000E0,-4.412944794E0,1.379759312E0,7.137431145E0
4.008001563E0,-4.474025249E0,1.298260570E0,7.597500801E0
4.028015625E0,-3.927553654E0,1.297848821E0,7.564001560E0
4.050003125E0,-4.367081642E0,1.262261510E0,8.568302155E0
4.071998438E0,-4.556740284E0,1.404170513E0,8.790464401E0
4.091998438E0,-4.680357933E0,1.141325593E0,8.765469551E0
4.112000000E0,-4.993079185E0,1.223245502E0,8.511846542E0
4.132017188E0,-4.867497921E0,1.075283766E0,8.593277931E0
4.154000000E0,-4.804234028E0,1.006723523E0,8.841183662E0
4.174001563E0,-4.946420670E0,1.359810829E0,9.243859291E0
4.196000000E0,-4.594645500E0,8.430079818E-1,9.609013557E0
4.216001563E0,-5.837647915E0,1.576763749E0,1.095769596E1
4.238006250E0,-4.793680191E0,1.275381684E0,1.122747421E1
4.260000000E0,-4.064167023E0,9.667882323E-1,1.200345516E1
4.282004688E0,-3.663195610E0,8.390240669E-1,1.183753586E1
4.304006250E0,-5.746907711E0,7.134912610E-1,9.947582245E0
4.324006250E0,-6.432702541E0,7.938502431E-1,9.030584335E0
4.345998438E0,-4.010728359E0,1.145491481E0,9.112944603E0
4.365998438E0,-3.510148764E0,1.670089722E0,9.230816841E0
4.385998438E0,-3.736218691E0,1.583180308E0,9.449023247E0
4.406003125E0,-3.916760683E0,1.241949081E0,9.192680359E0
4.428018750E0,-4.155309677E0,1.266915798E0,8.373011589E0
4.449998438E0,-3.669842005E0,1.090041757E0,7.485758781E0
4.469998438E0,-2.748993635E0,1.805783510E0,7.720879078E0
4.490007813E0,-1.441433907E0,2.129039049E0,8.333468437E0
4.511998438E0,-2.366744757E0,1.233042598E0,9.203033447E0
4.532039063E0,-3.074739218E0,1.045643687E0,9.209095955E0
4.553998438E0,-3.281349182E0,1.142704606E0,8.834278107E0
4.573998438E0,-3.839006662E0,1.204542041E0,7.565533638E0
4.593998438E0,-2.613769054E0,1.577261686E0,8.075221062E0
4.614000000E0,-2.150309086E0,1.666689992E0,1.005877876E1
4.635998438E0,-2.372845411E0,1.979650497E0,9.535338402E0
4.656000000E0,-4.610993385E0,2.161169291E0,7.712757587E0
4.678000000E0,-6.338036060E0,2.563931465E0,6.905308723E0
4.698006250E0,-5.122844696E0,2.563481331E0,7.743336678E0
4.718006250E0,-4.337498665E0,2.510109901E0,9.149920464E0
4.738029688E0,-3.553282738E0,2.172402859E0,9.783369064E0
4.760000000E0,-3.345753193E0,1.722130179E0,9.470744133E0
4.780003125E0,-3.970515490E0,2.065334320E0,8.866992950E0
4.802000000E0,-3.818119526E0,2.750755787E0,8.807185173E0
4.822004688E0,-2.734532833E0,2.950815201E0,9.015998840E0
4.844000000E0,-2.444115877E0,2.689560175E0,9.611896515E0
4.864000000E0,-3.429119349E0,2.796667099E0,9.390375137E0
4.884000000E0,-3.396424055E0,2.598647356E0,9.194461823E0
4.904004688E0,-3.875810385E0,3.053200960E0,8.500459671E0
4.926000000E0,-3.781574488E0,2.937905788E0,7.860508919E0
4.948000000E0,-4.100568295E0,3.093672514E0,7.893654346E0
4.968000000E0,-4.551702976E0,2.956082582E0,8.321133614E0
4.988009375E0,-5.058315754E0,2.856751919E0,8.665122986E0
5.010000000E0,-5.218727589E0,2.218649149E0,7.646620750E0
5.030001563E0,-5.802539349E0,2.365413904E0,9.401330948E0
5.052000000E0,-4.908506393E0,1.902384758E0,1.018282700E1
5.074000000E0,-4.302619934E0,1.876575351E0,9.160512924E0
5.094009375E0,-4.065287590E0,1.515893579E0,7.091127396E0
5.116000000E0,-4.345542908E0,1.581054211E0,6.277807713E0
5.136003125E0,-4.688000202E0,1.757698417E0,7.465925217E0
5.158006250E0,-5.187047482E0,1.831545115E0,8.881626129E0
5.178023438E0,-4.931931019E0,1.451058626E0,9.663841248E0
5.200000000E0,-4.509488106E0,9.334226251E-1,9.549579620E0
5.220000000E0,-4.952645302E0,1.383609176E0,8.858948708E0
5.240000000E0,-4.999945164E0,1.490352273E0,8.248991966E0
5.260006250E0,-5.006352425E0,1.663759470E0,8.059486389E0
5.282000000E0,-4.463950634E0,1.656490684E0,8.219936371E0
5.302006250E0,-4.109005451E0,1.737884045E0,8.117253304E0
5.323998438E0,-4.292401314E0,2.016071081E0,7.873858929E0
5.344007813E0,-5.045138836E0,2.157980204E0,7.703660011E0
5.366000000E0,-4.906877995E0,2.408040285E0,7.556148529E0
5.386000000E0,-4.597126007E0,2.428649426E0,7.525722980E0
5.408010938E0,-4.833806992E0,2.668395281E0,7.459623814E0
5.429998438E0,-4.770523548E0,2.503319740E0,7.852540970E0
5.450000000E0,-4.621306896E0,2.520768881E0,8.367208481E0
5.470000000E0,-4.565579891E0,2.483936310E0,8.697933197E0
5.492003125E0,-5.124702454E0,2.790307999E0,8.430654526E0
5.513998438E0,-4.797827244E0,2.529368639E0,8.336782455E0
5.533998438E0,-4.760869980E0,2.702546120E0,8.416384697E0
5.553998438E0,-4.753639698E0,2.805353165E0,8.339426041E0
5.573998438E0,-4.631084919E0,2.839188099E0,8.368597031E0
5.594000000E0,-4.545631409E0,2.913264751E0,8.068124771E0
5.614000000E0,-4.633737564E0,2.936689377E0,8.101987839E0
5.634004688E0,-4.622724533E0,2.937963247E0,8.132059097E0
5.656035938E0,-4.761856556E0,3.019557714E0,8.620955467E0
5.678000000E0,-4.504613876E0,2.899234533E0,8.541477203E0
5.698000000E0,-4.510446072E0,3.099504948E0,8.271296501E0
5.718017188E0,-4.507774353E0,3.067288399E0,7.947830200E0
5.740000000E0,-4.413624287E0,2.955076933E0,7.929720879E0
5.762000000E0,-4.647442341E0,3.230544090E0,8.197238922E0
5.783998438E0,-5.196739197E0,3.134527206E0,8.392519951E0
5.804004688E0,-4.778683186E0,3.085312128E0,7.790425777E0
5.824004688E0,-4.518806458E0,3.138204575E0,7.660832405E0
5.846000000E0,-4.367397308E0,3.168515444E0,7.446063042E0
5.866006250E0,-4.094659328E0,2.966492414E0,7.373557091E0
5.887998438E0,-3.996238708E0,2.968254566E0,7.730427265E0
5.908000000E0,-3.858294487E0,2.932379961E0,8.693460464E0
5.929998438E0,-3.879995346E0,2.603062153E0,9.188458443E0
5.950001563E0,-2.973062277E0,1.760092616E0,8.471136093E0
5.972000000E0,-4.343694687E0,2.291863918E0,8.526288033E0
5.993998438E0,-4.591638088E0,2.528334379E0,8.750931740E0
6.013998438E0,-3.255108595E0,-8.761724830E-1,9.580292702E0
6.033998438E0,-5.605420113E0,-6.700029969E-1,1.022981071E1
6.053998438E0,-6.045407295E0,-9.771503210E-1,9.500134468E0
6.074003125E0,-5.751590729E0,-6.765630841E-1,8.932632446E0
6.095998438E0,-5.297842026E0,-1.759671211E0,8.163164139E0
6.115998438E0,-6.160520554E0,-1.639013052E0,7.890666485E0
6.135998438E0,-6.107944012E0,-1.478821754E0,8.405908585E0
6.156006250E0,-5.270183563E0,-2.161063910E0,8.188207626E0
6.178001563E0,-6.634121895E0,-1.307435155E0,7.998558521E0
6.199998438E0,-5.520665169E0,-1.418832660E0,8.085908890E0
6.219998438E0,-5.992629528E0,-5.391550660E-1,8.401827812E0
6.240003125E0,-6.160501480E0,-2.466315031E-1,8.740713120E0
6.261998438E0,-5.516728878E0,9.403562546E-1,6.839841843E0
6.281998438E0,-4.612726688E0,1.336213470E0,7.251826286E0
6.301998438E0,-5.232594490E0,8.699571490E-1,6.827085495E0
6.322006250E0,-6.296865463E0,1.301076293E0,8.411979675E0
6.344000000E0,-4.894849777E0,1.472989559E0,1.046236420E1
6.364004688E0,-4.643650055E0,1.387439966E0,9.783866882E0
6.385998438E0,-4.987543583E0,2.009961128E0,9.204489708E0
6.405998438E0,-5.706024647E0,1.757123828E0,8.417113304E0
6.425998438E0,-4.548389435E0,1.487076998E0,7.875573158E0
6.445998438E0,-2.780673742E0,1.038441896E0,8.203051567E0
6.466000000E0,-2.589530230E0,2.180926204E-1,7.455659389E0
6.487998438E0,-2.672264338E0,-3.983568549E-1,6.563665390E0
6.507998438E0,-3.746236086E0,-1.016999483E0,5.231924534E0
6.528006250E0,-3.076395988E0,-1.345359325E0,6.995321274E0
6.549998438E0,-1.736016512E0,-5.091988444E-1,8.967923164E0
6.569998438E0,-2.939610243E0,-1.338358819E-1,8.667097092E0
6.590000000E0,-4.890272141E0,-5.975736380E-1,7.458187580E0
6.611998438E0,-4.992168903E0,-1.781630874E0,5.523729801E0
6.631998438E0,-3.512092829E0,-1.814843178E0,5.022996902E0
6.651998438E0,-3.316036463E0,-2.273074150E0,7.259525776E0
6.671998438E0,-5.052129269E0,-1.479156971E0,8.294750214E0
6.691998438E0,-5.128705502E0,-2.582386017E0,7.774567127E0
6.712000000E0,-6.052436352E0,-3.530623913E0,6.651494503E0
6.733998438E0,-4.846841335E0,-4.249382496E0,7.127040386E0
6.754000000E0,-3.997244120E0,-4.120995522E0,6.505764008E0
6.775998438E0,-1.124057579E1,-2.617245615E-1,9.778695107E0
6.795998438E0,-4.796553135E0,-4.653983593E0,5.083703995E0
6.815998438E0,-3.847166061E0,-1.072928905E1,4.618386269E0
6.836000000E0,-8.459854126E0,-8.208213806E0,1.687126994E0
6.858003125E0,-1.058764839E1,-7.292996883E0,1.797729492E0
6.880000000E0,-8.028409958E0,-6.522082806E0,1.540151596E0
6.901998438E0,-7.913813591E0,-6.548869610E0,1.315575600E0
6.921998438E0,-9.418703079E0,-7.194576263E0,2.016482830E0
6.941998438E0,-1.196242809E1,-7.145667553E0,1.854395390E0
6.962000000E0,-1.140215492E1,-9.132700920E0,1.781841516E0
6.982000000E0,-7.679947853E0,-1.100127029E1,3.034535646E0
7.004006250E0,-1.125996876E1,-4.521737099E0,2.838958263E0
7.025998438E0,-1.083998775E1,-6.643890858E0,1.267135978E0
7.045998438E0,-1.096111488E1,-6.904494762E0,2.252398014E0
7.065998438E0,-9.013719559E0,-6.176245689E0,1.790719271E0
7.086000000E0,-8.265617371E0,-5.269455910E0,1.375660419E0
7.107998438E0,-9.465294838E0,-5.261411667E0,-4.856398702E-2
7.128000000E0,-9.494532585E0,-6.660037041E0,-3.874776065E-1
7.148000000E0,-9.083093643E0,-7.502259731E0,1.301018834E0
7.169998438E0,-8.075029373E0,-6.888970852E0,1.146535352E-1
7.189998438E0,-8.041625023E0,-5.418787003E0,3.240121007E-1
7.210000000E0,-8.505535126E0,-6.832285881E0,1.033011794E0
7.230000000E0,-7.574641228E0,-8.571204185E0,1.814460039E0
7.252000000E0,-3.206295729E0,-7.382703304E0,3.324665070E0
7.273998438E0,-4.958573818E0,-7.681786537E0,3.512006521E0
7.293998438E0,-5.443265438E0,-8.638566971E0,1.791399121E0
7.313998438E0,-6.548917294E0,-8.712001801E0,1.021979332E0
7.334000000E0,-8.275941849E0,-7.115299225E0,-1.497333646E-1
7.355998438E0,-1.086337376E1,-7.337605953E0,-5.782380104E-1
7.375998438E0,-1.063958263E1,-7.436342716E0,4.852280617E-1
7.395998438E0,-7.900195122E0,-8.031751633E0,2.705409765E0
7.415998438E0,-9.586297989E0,-6.610228062E0,1.958552718E0
7.435998438E0,-9.395451546E0,-6.647146702E0,2.690306902E0
7.456000000E0,-8.428719521E0,-6.505285740E0,2.914394855E0
7.478003125E0,-1.154147911E1,-6.007731915E0,5.629438758E-1
7.499998438E0,-1.277945423E1,-7.717833519E0,6.975650191E-1
7.520000000E0,-1.158824348E1,-8.304279327E0,7.032249123E-2
7.541998438E0,-6.819950581E0,-8.528126717E0,3.139851987E-1
7.561998438E0,-1.199610901E1,-5.430250645E0,1.020964265E0
7.582000000E0,-1.056741238E1,-4.427607059E0,3.085551262E0
7.603998438E0,-2.942962408E0,-5.700776577E0,4.139910221E0
7.623998438E0,-1.505109215E1,-4.411718845E0,3.340409517E0
7.643998438E0,-9.899114609E0,-7.708122730E0,5.226350427E-1
7.663998438E0,-9.983006477E0,-3.566622972E0,3.603273630E-1
7.683998438E0,-1.103879261E1,-6.572725296E0,-2.390993357E0
7.704000000E0,2.566459656E0,-6.360139370E0,2.171445131E0
7.725998438E0,-2.172345400E0,-2.848793507E0,2.148326635E0
7.745998438E0,-1.764440417E0,-2.905162573E0,1.502955317E0
7.765998438E0,2.100912094E0,-2.987044334E0,2.819928885E0
7.785998438E0,1.303211927E0,-2.800057173E0,2.792031765E0
7.805998438E0,-4.905240610E-2,-4.692022324E0,1.863924265E0
7.826000000E0,-1.270823121E0,-2.756607294E0,8.073152304E-1
7.848000000E0,-1.940921903E0,-1.593628526E0,1.890528679E0
7.869998438E0,-4.660140991E0,1.849855930E-1,3.136883020E0
7.890000000E0,-5.919845581E0,2.378878742E-2,5.178897381E0
7.910000000E0,-4.258001328E0,-1.082265377E0,1.074632645E0
7.930000000E0,-5.801898003E0,-4.283581257E0,3.582980156E0
7.950001563E0,-8.570342064E0,-4.711712360E0,3.098317385E0
7.972001563E0,-1.022864246E1,-5.167357445E0,2.344153404E0
7.994000000E0,-1.051739216E1,-6.906400204E0,2.812449455E0
8.014000000E0,-1.245356464E1,-6.685195446E0,3.729984283E0
8.034000000E0,-1.451882267E1,-7.100149155E0,4.008132935E0
8.054000000E0,-1.598602772E1,-7.788146496E0,3.174998760E0
8.074000000E0,-1.375479412E1,-8.306280136E0,4.207589149E0
8.094000000E0,-1.020236397E1,-7.865383148E0,7.134108067E0
8.114000000E0,-9.199892998E0,-5.535787106E0,9.085526466E0
8.134000000E0,-9.779231071E0,-5.879537106E0,8.444531441E0
8.154000000E0,-1.227627850E1,-5.591887474E0,6.823905945E0
8.174000000E0,-1.115074539E1,-6.249479294E0,6.015719414E0
8.194000000E0,-1.201606750E1,-7.349988937E0,5.103336811E0
8.214000000E0,-9.955128670E0,-8.949650764E0,3.379042149E0
8.234000000E0,-7.883828640E0,-6.080343246E0,3.742032051E0
8.254000000E0,-7.132221699E0,-6.003441334E0,6.535883427E0
8.274000000E0,-1.690670395E1,-9.696564674E0,1.844244003E0
8.294001563E0,-1.125421333E1,-6.784641266E0,2.447544336E0
8.316000000E0,-6.755000591E0,-8.067588806E0,5.800480247E-1
8.336000000E0,-1.060669613E1,-4.769105911E0,-3.524935246E-1
8.356000000E0,-4.634015560E0,-5.761684418E0,2.819775820E0
8.376000000E0,-3.241059542E0,-4.210338116E0,4.084105968E0
8.396000000E0,-7.500468731E0,-1.912076592E0,1.696042895E0
8.416000000E0,-1.109881020E1,-4.110470772E0,1.697115421E0
8.436000000E0,-9.467842102E0,-6.605277061E0,2.185408115E0
8.456001563E0,-9.622468948E0,-6.007655144E0,1.138720632E0
8.478018750E0,-1.085075188E1,-3.851542711E0,1.391739845E0
8.500000000E0,-7.243331432E0,-5.145244598E0,2.010210037E0
8.520000000E0,-1.048190117E1,-3.598580837E0,-6.813035607E-1
8.540000000E0,-4.405915737E0,-5.017442226E0,9.965433478E-1
8.560000000E0,-5.015642166E0,-1.458356023E0,9.151213169E-1
8.580000000E0,-6.551780701E0,-5.120431781E-1,-3.734667301E-1
8.600000000E0,-1.271225333E0,1.131767869E0,1.779485583E0
8.620000000E0,-1.696971774E0,2.414973974E0,1.403720498E0
8.640000000E0,-3.543533564E0,1.010707498E0,2.430440426E0
8.660000000E0,-3.883031368E0,-4.222969532E0,4.782102108E0
8.680000000E0,-6.919156551E0,-4.403712749E0,1.716173291E0
8.700000000E0,-9.324333191E0,-3.916051984E-1,1.424291372E0
8.720000000E0,-7.302411079E0,1.210326433E0,3.751254320E0
8.740000000E0,-9.765499115E0,9.150255919E-1,5.848795414E0
8.760000000E0,-1.149903488E1,1.391701579E0,7.315062046E0
8.780000000E0,-8.495423317E0,1.077342868E0,6.755709648E0
8.800000000E0,-1.106002426E1,-8.660976291E-1,8.887209892E0
8.820000000E0,-8.659004211E0,-2.295273244E-1,7.744591236E0
8.840001563E0,-1.170098019E1,1.496816635E0,7.738931179E0
8.862000000E0,-1.246990204E1,1.093671441E0,7.823810577E0
8.882000000E0,-1.380785942E1,2.663578033E0,8.631163597E0
8.902000000E0,-1.586503410E1,4.486829937E-1,8.081484795E0
8.922000000E0,-1.247314930E1,-2.076682568E0,7.539762497E0
8.942000000E0,-1.007927322E1,7.097850442E-1,7.783195496E0
8.962000000E0,-9.954036713E0,2.538524270E-1,6.236512184E0
8.982000000E0,-9.986445427E0,-2.418335229E-1,6.054428577E0
9.002000000E0,-7.052504539E0,9.222081900E-1,6.669163704E0
9.022000000E0,-6.115873337E0,2.292218208E0,7.814789295E0
9.042000000E0,-6.312035084E0,-1.456479073E0,8.814827919E0
9.063998438E0,-8.348638535E0,-4.004541636E-1,7.775543690E0
9.083998438E0,-8.169322968E0,-1.360902548E0,5.566241264E0
9.104000000E0,-1.033121014E1,-2.173647881E0,2.846667528E0
9.124000000E0,-8.394195557E0,-1.789569974E0,2.218017101E0
9.144000000E0,-1.068938255E1,1.549268842E0,4.940933228E0
9.164000000E0,-1.556745434E1,1.318448663E0,1.698264718E0
9.184000000E0,-1.341001987E0,-7.870535851E0,5.757097006E-1
9.204000000E0,-3.958735943E0,-2.620444059E0,1.267634034E0
9.224000000E0,1.747891665E0,-6.145465851E0,4.925418854E0
9.244000000E0,2.779572308E-1,-6.212302208E0,6.220174313E0
9.264000000E0,-1.829782963E0,-2.588007450E0,8.511453629E0
9.284000000E0,-5.370328426E0,-1.191872001E0,5.045062065E0
9.304000000E0,-9.461789131E0,-2.019260168E0,4.358376026E0
9.326000000E0,-1.315447140E1,-3.354822397E0,2.486024141E0
9.346000000E0,-1.661341476E1,-1.344698668E0,2.061455488E0
9.366000000E0,-1.692145157E1,-4.286578596E-1,1.916855335E0
9.386000000E0,-1.289872360E1,-8.940523863E-1,3.064932585E0
9.406000000E0,-9.020796776E0,-2.047262669E0,4.141633987E0
9.426000000E0,-7.136415958E0,-1.115075469E0,4.082372665E0
9.446000000E0,-7.749331951E0,-9.761160016E-1,4.370461941E0
9.466000000E0,-7.372264385E0,-2.781708002E0,3.551443815E0
9.488000000E0,-6.543621540E0,-3.988682508E0,3.479215622E0
9.508000000E0,-8.339914322E0,-3.518317699E0,3.564286470E0
9.528000000E0,-9.757406235E0,-3.531447411E0,3.727475166E0
9.548000000E0,-8.166899681E0,-5.455600739E0,3.960411787E0
9.568000000E0,-7.590634823E0,-5.196509361E0,3.755793810E0
9.588000000E0,-7.304336071E0,-1.879984617E0,4.992599964E0
9.608000000E0,-8.106086731E0,-6.096786261E-1,6.175680637E0
9.628001563E0,-7.323633194E0,-5.343858242E0,5.004972935E0
9.650003125E0,-9.325635910E0,-5.757988453E0,3.652057886E0
9.672000000E0,-8.520800591E0,-6.049362183E0,4.128494263E0
9.692000000E0,-9.278882027E0,-3.718501806E0,4.947052956E0
9.713998438E0,-1.314085388E1,-4.573978484E-1,5.398216248E0
9.733998438E0,-1.027399826E1,-2.803418636E0,4.172643661E0
9.754000000E0,-9.519422531E0,-3.891152442E-1,4.225469112E0
9.774000000E0,-9.722451210E0,-9.543862343E-1,1.706069827E0
9.794000000E0,-1.046376228E1,-1.410338044E0,7.592300773E-1
9.814000000E0,-9.574508667E0,-2.412139177E0,2.335476875E0
9.834000000E0,-9.505287170E0,-2.303116798E0,1.186403513E0
9.854000000E0,-9.418339729E0,-8.558600545E-1,1.043651700E0
9.874000000E0,-1.033876705E1,-9.209344387E-1,7.793701291E-1
9.894000000E0,-9.439226151E0,-3.390840769E0,-8.882105350E-1
9.914000000E0,-1.063211346E1,-1.906234622E0,4.309946001E-1
9.934000000E0,-8.837744713E0,-3.322146416E0,2.571018219E0
9.954000000E0,-4.275249481E0,-8.914119720E0,2.395197868E0
9.974000000E0,-2.671277761E0,-5.853315353E0,3.335123062E0
9.996000000E0,-8.903394699E0,5.022939444E-1,3.618721008E0
1.001600000E1,-9.127243042E0,-1.251267195E0,4.400753498E0
1.003600000E1,-8.106747627E0,-5.150578976E0,2.523612976E0
1.005600000E1,-1.145225239E1,-5.359583378E0,3.799042702E0
1.007600000E1,-1.133537674E1,1.006330848E-1,5.738585472E0
1.009600000E1,-1.165573978E1,1.930349112E0,5.137612343E0
1.011600000E1,-9.393909454E0,-1.740077019E0,4.576056480E0
1.013600000E1,-9.690503120E0,-2.099609613E0,4.177422523E0
1.015600000E1,-8.458810806E0,-2.613347769E0,5.752586842E0
1.017600000E1,-9.125557899E0,-4.361756802E0,6.318078041E0
1.019600000E1,-1.270051193E1,-3.398262978E0,8.002800941E0
1.021600000E1,-1.127894020E1,-4.298501968E0,6.159677505E0
1.023600000E1,-8.812050819E0,-4.426658630E0,2.751540899E0
1.025600000E1,-8.228430748E0,-4.856848717E0,1.012431264E0
1.027600000E1,-6.263480663E0,-7.172328949E0,-1.372634172E0
1.029600000E1,-3.443790913E0,-7.964560986E0,-1.972458243E0
1.031600000E1,-3.254045725E0,-3.474637985E0,1.513796210E0
1.033600000E1,-8.960395813E0,-6.610065460E0,-7.809694409E-1
1.035600000E1,-1.295204735E1,-7.874682426E0,1.833211541E0
1.037600000E1,-1.120555401E1,-4.634877205E0,4.850375175E0
1.039600000E1,-7.483240128E0,-5.219694614E0,5.486169338E0
1.041600000E1,-5.101201057E0,-6.893251419E0,3.996842146E0
1.043600000E1,-4.342287064E0,-6.507804394E0,3.885320187E0
1.045600156E1,-3.538122654E0,-8.259248734E0,2.240561008E0
1.047800156E1,-2.335687399E0,-8.474803925E0,-1.530124784E0
1.050000000E1,2.384146154E-1,-9.503965378E0,-1.948171496E0
1.052000156E1,-2.795326233E0,-7.355571747E0,2.605609655E0
1.054200156E1,-1.145388031E1,-2.053516388E0,4.798583508E0
1.056400000E1,-1.114588928E1,-4.899666309E0,-5.289040565E0
1.058400000E1,-1.033459091E1,-1.248274517E1,5.683959484E0
1.060400000E1,-1.173037243E1,-2.975035012E-1,9.978506088E0
1.062400000E1,-9.374889374E0,-2.444872618E0,6.001076221E0
1.064400781E1,-5.505275249E0,-7.404020786E0,3.183512449E0
1.066600000E1,-7.041548252E0,-5.126560688E0,3.271973372E0
1.068600000E1,-7.999411106E0,-1.863005042E0,4.302390099E0
1.070600000E1,-8.099738121E0,-4.051774502E0,3.251527071E0
1.072600000E1,-6.591563225E0,-4.775302410E0,2.460731745E0
1.074600000E1,-4.982141972E0,-4.334166050E0,5.318153858E0
1.076600000E1,-5.552556038E0,-4.540028572E0,3.656223536E0
1.078600000E1,-4.096200943E0,-7.208605766E0,4.169942856E0
1.080600000E1,-3.632664680E0,-7.472217083E0,5.542155743E0
1.082600000E1,-4.611107826E0,-5.208327293E0,6.953901291E0
1.084600156E1,-7.841814995E0,-5.190475941E0,4.161869526E0
1.086800000E1,-8.576845169E0,-3.662630558E0,6.534293652E0
1.088800156E1,-8.025631905E0,-4.604222298E0,6.452948093E0
1.091000000E1,-8.398169518E0,-1.111943841E0,5.672984600E0
1.093000000E1,-6.078600407E0,-8.389282972E-2,7.175096512E0
1.095000000E1,-5.305704117E0,-3.873013973E0,5.693048000E0
1.097200000E1,-7.401617050E0,-5.792052746E0,3.369541883E0
1.099200000E1,-9.061019897E0,-4.035388470E0,3.618079424E0
1.101200000E1,-9.608649254E0,-3.480843782E0,3.023647070E0
1.103200000E1,-7.946403503E0,-6.857491493E0,2.752326488E0
1.105200000E1,-6.014675140E0,-6.480902672E0,3.760898113E0
1.107200000E1,-4.259686947E0,-6.415847778E0,3.275344372E0
1.109200000E1,-5.148185253E0,-1.240097809E1,3.646464944E-1
1.111200000E1,-9.439111710E0,-1.117326069E1,7.834306359E-1
1.113200000E1,-1.157558250E1,-6.899811745E0,1.532097608E-1
1.115200000E1,-1.191595078E1,-8.339760780E0,-1.171808481E0
1.117200000E1,-9.613409042E0,-6.299164295E0,1.692422867E0
1.119200000E1,-8.720908165E0,-5.735693455E0,3.669736624E0
1.121200000E1,-8.288764954E0,-4.203136444E0,7.916111946E0
1.123200000E1,-6.194527626E0,-1.640219688E0,1.435046196E0
1.125200000E1,-4.222385406E0,-2.989946127E0,1.663117766E0
1.127200000E1,-6.125545979E0,-6.568195343E0,2.415730476E0
1.129200000E1,-5.216448307E0,-6.781250477E0,2.456297636E0
1.131200000E1,-6.551407337E0,-4.637415409E0,2.797414064E0
1.133200000E1,-7.850749969E0,-5.302735329E0,2.302101612E0
1.135200000E1,-1.067984486E1,-5.488391399E0,2.972727060E0
1.137200000E1,-8.774873734E0,-4.545114040E0,3.921577930E0
1.139200000E1,-8.618446350E0,-4.403051853E0,1.688486814E0
1.141200000E1,-6.531363487E0,-5.159600735E0,3.026701927E0
1.143400000E1,-6.809425831E0,-3.534531355E0,4.019912720E0
1.145400000E1,-8.483882904E0,-4.279252529E0,4.003383160E0
1.147400000E1,-7.782343388E0,-8.080765724E0,1.493368864E0
1.149599844E1,-4.813102245E0,-9.904026985E0,1.701999664E0
1.151600000E1,-7.448687077E0,-7.257582188E0,1.227181673E0
1.153600000E1,-7.429188251E0,-6.537454128E0,-1.251181006E0
1.155600000E1,-7.696650028E0,-4.921492100E0,2.673270106E-1
1.157600000E1,-5.891009808E0,-6.965364933E0,5.163814127E-2
1.159600000E1,-5.653102875E0,-7.387567997E0,2.470040560E0
1.161600000E1,-7.697588444E0,-8.076427460E0,1.261744261E0
1.163600000E1,-7.322867393E0,-5.348139286E0,6.151087284E-1
1.165600000E1,-8.002954483E0,-3.304687977E0,1.791169286E0
1.167600000E1,-8.021323204E0,-6.104045868E0,1.100116611E0
1.169600000E1,-8.728281975E0,-8.079855919E0,-9.251195192E-2
1.171600000E1,-8.487195969E0,-5.273008823E0,-2.292486429E0
1.173799844E1,-9.678320885E0,-6.023983955E0,-3.410904408E0
1.175800469E1,-1.167198277E1,-1.175077057E1,-4.328457832E0
1.177800625E1,-8.982958794E0,-6.676393986E0,1.672493577E0
1.180000000E1,-5.776863575E0,-8.954831123E0,-9.966104031E-1
1.182000000E1,-3.587021828E0,-9.192317009E0,-5.368307590E0
1.184000000E1,-3.324712992E0,-7.952264309E0,-4.949332237E0
1.186000000E1,-4.754319191E0,-5.109772682E0,-4.212933183E-1
1.188000156E1,-7.892006874E0,-5.310952187E0,3.334778309E0
1.190200156E1,-7.953930855E0,-6.904983044E0,1.776583910E0
1.192400000E1,-6.002129555E0,-6.137488365E0,-1.284460425E0
1.194400000E1,-4.972804546E0,-6.465436459E0,-3.444710493E0
1.196400000E1,-3.365414381E0,-7.027958870E0,-4.734725475E0
1.198400000E1,-3.206784248E0,-8.480922699E0,-3.958362341E0
1.200400156E1,-4.246815681E0,-6.841326237E0,-4.776911438E-1
1.202600000E1,-4.099007130E0,-8.214601517E0,-6.959848404E-1
1.204600000E1,-4.188512325E0,-7.659884453E0,4.227327347E0
1.206600000E1,-3.484616995E0,-7.400851250E0,2.594739914E0
1.208600000E1,-9.480272532E-1,-9.399386406E0,1.103669524E0
1.210600000E1,-4.020333767E0,-1.205849266E1,-8.043560386E-1
1.212600000E1,-8.242355347E0,-1.198937702E1,-2.571362972E0
1.214600000E1,-6.049448967E0,-9.386640549E0,-3.812459707E0
1.216600000E1,-2.334653139E0,-9.757713318E0,9.807244301E0
1.218600000E1,-1.366581559E0,-6.285248756E0,5.257369995E0
1.220600156E1,-1.449890256E0,-8.140984535E0,2.678910732E0
1.222800000E1,-4.392105579E0,-9.549655914E0,8.857684135E-1
1.224800000E1,-6.089211464E0,-8.801190376E0,5.188618302E-1
1.226800938E1,-4.711195469E0,-8.823370934E0,1.969565988E0
1.229000000E1,-3.981394529E0,-8.846987724E0,8.768332601E-1
1.231000156E1,-2.709757566E0,-8.363731384E0,2.257578850E0
1.233200000E1,-1.847164869E0,-7.165884018E0,3.577732086E0
1.235200000E1,-3.395734549E0,-6.810277939E0,2.815016031E0
1.237200000E1,-3.834457874E0,-1.103919411E1,3.328620434E0
1.239200000E1,-4.564383030E0,-1.062910652E1,3.252503872E0
1.241200156E1,-4.012921333E0,-6.712987423E0,2.863579988E0
1.243400000E1,-6.586113930E0,-7.840359211E0,6.090666771E0
1.245400000E1,-6.413913250E0,-1.192745304E1,2.963054419E0
1.247400000E1,-4.269809723E0,-1.188263416E1,-2.720531464E0
1.249400000E1,-2.857374191E0,-9.191253662E0,-4.645173073E0
1.251400000E1,-7.598717809E-1,-9.169840813E0,-4.113305569E0
1.253400000E1,-1.217250466E0,-1.076471424E1,-2.822543383E0
1.255400000E1,-3.365797281E0,-1.070179367E1,4.804109633E-1
1.257400000E1,-5.760027885E0,-7.282443523E0,4.478785098E-1
1.259400000E1,-5.857040882E0,-6.230823517E0,1.957403570E-1
1.261400000E1,-4.030179024E0,-7.851737022E0,-2.640708685E-1
1.263400000E1,-4.128513813E0,-7.379523277E0,8.376066685E-1
1.265400000E1,-3.602545738E0,-7.054754734E0,1.580268979E0
1.267400000E1,-4.101842403E0,-7.560831547E0,-6.256240606E-1
1.269400000E1,-4.982640266E0,-7.551704407E0,-7.158088088E-1
1.271400000E1,-5.355494022E0,-7.249997139E0,1.045892715E0
1.273400000E1,-5.574726105E0,-6.582196712E0,1.598953247E0
1.275400000E1,-5.203471661E0,-6.079319000E0,3.194727004E-1
1.277400000E1,-4.357322693E0,-6.740856171E0,-2.289881706E0
1.279400156E1,-3.821835518E0,-8.027337074E0,-2.833796501E0
1.281600000E1,-4.120918751E0,-7.458446026E0,8.250419497E-1
1.283600000E1,-3.832791328E0,-7.101068497E0,1.225103378E0
1.285600000E1,-4.149209023E0,-8.248436928E0,-6.756436825E-2
1.287600000E1,-3.498110533E0,-9.334332466E0,-1.481148958E0
1.289600000E1,-3.296672106E0,-1.143615341E1,3.518624306E0
1.291600000E1,-5.513913631E0,-1.479487419E1,2.706338644E0
1.293600000E1,-7.150896549E0,-1.331965256E1,1.717696041E-1
1.295600000E1,-4.780349255E0,-1.163086891E1,1.925225556E-1
1.297600000E1,-6.328852177E0,-1.139172649E1,1.215813994E0
1.299600000E1,-8.165395737E0,-1.067256546E1,1.954434633E0
1.301600000E1,-7.740147591E0,-1.129094982E1,1.104052663E0
1.303600000E1,-5.225565434E0,-1.148936272E1,-4.897866249E-1
1.305600000E1,-1.188452959E0,-1.396847153E1,2.689387798E0
1.307600000E1,-3.380708456E0,-1.174121284E1,1.369674802E-1
1.309600000E1,-2.728384256E0,-1.184666348E1,-1.063820481E0
1.311600000E1,-3.480633020E0,-9.212217331E0,-1.961550236E0
1.313600000E1,-2.327911139E0,-1.075330734E1,4.559613466E-1
1.315600000E1,-9.424918890E-1,-9.889335632E0,1.300003648E0
1.317600000E1,1.688601732E0,-1.409667683E1,-1.161791086E0
1.319600000E1,1.714315414E0,-1.690597534E1,-1.239324927E0
1.321600000E1,-1.710599661E0,-4.135313034E0,1.540869832E0
1.323600000E1,1.303997159E0,-4.802519321E0,9.452499747E-1
1.325600000E1,3.952137470E0,-7.455419540E0,-1.551040530E0
1.327600000E1,3.741811514E0,-9.669327736E0,-1.533773422E0
1.329600000E1,7.231733799E-1,-9.495135307E0,-2.589856088E-1
1.331600000E1,-1.062192440E0,-1.017083645E1,-4.985207021E-1
1.333600000E1,-6.404201984E-1,-8.419717789E0,2.844981849E-1
1.335600000E1,-2.035933435E-1,-7.701601028E0,4.826710559E-3
1.337600000E1,1.242274642E0,-6.229607582E0,-5.061534047E-1
1.339600156E1,2.793171406E0,-4.005882740E0,1.498980999E0
1.341803125E1,2.430162668E0,-5.601321220E0,4.259552956E0
1.344000938E1,-3.724037111E-1,-5.542806625E0,5.160845280E0
1.346200000E1,-1.066501975E0,-8.189740181E0,5.828770161E0
1.348200000E1,4.013754845E0,-1.425907993E1,1.266787434E1
1.350200000E1,4.150856495E0,-1.543673992E1,1.718779373E1
1.352200000E1,-5.152322054E-1,-8.888234138E0,1.068927765E1
1.354200156E1,-1.167020082E0,-6.312523365E0,6.350763440E-1
1.356400000E1,1.349621058E0,-9.739325523E0,-3.667849779E0
1.358400000E1,4.916387558E0,-1.565779209E1,-1.063009262E1
1.360400469E1,4.095454216E0,-1.699970245E1,-6.035504818E0
1.362600000E1,9.687514901E-1,-1.012110424E1,4.580816269E0
1.364600156E1,-1.633899063E-1,-5.104371071E0,4.772113323E0
1.366800156E1,-1.023913860E0,-2.654710054E0,-7.871665955E0
1.369000000E1,-4.829009175E-1,-8.515398979E0,-8.159497261E0
1.371000000E1,-3.102234125E0,-1.291771412E1,-1.659622312E0
1.373000156E1,-3.715695858E0,-1.216871166E1,-2.001274824E0
1.375001094E1,-6.385814399E-2,-1.076603508E1,1.060123801E0
1.377200000E1,5.471996307E0,-1.014280605E1,6.244901657E0
1.379200000E1,7.407066345E0,-8.469928741E0,2.823606491E0
1.381200000E1,3.803792715E0,-5.956314087E0,-4.176253796E0
1.383200000E1,6.866666079E-1,-6.835321426E0,-4.191423416E0
1.385200000E1,-2.102291107E0,-7.469459057E0,-2.391654253E0
1.387200000E1,-2.928635597E0,-8.022356987E0,2.349573821E-1
1.389200000E1,-2.266964436E0,-8.429581642E0,1.150605440E0
1.391200156E1,-1.443397164E0,-8.404203415E0,1.112777114E0
1.393400000E1,-1.848180056E0,-1.153603935E1,1.524072170E0
1.395400000E1,-3.058209658E0,-1.169017792E1,3.654404163E0
1.397400000E1,-2.448952436E0,-1.135667610E1,1.342725873E0
1.399400000E1,-7.520762086E-1,-1.097658157E1,3.270412683E0
1.401400000E1,-4.035283327E-1,-1.207243633E1,4.316534996E0
1.403400000E1,-5.483966470E-1,-1.354203606E1,3.493648052E0
1.405400000E1,9.462938905E-1,-1.411654854E1,5.369715691E-1
1.407400000E1,1.799568295E0,-1.546742344E1,3.295733690E0
1.409400000E1,1.599604487E0,-1.271189976E1,3.273678303E0
1.411400000E1,2.198145151E0,-1.011192989E1,-6.056181192E-1
1.413400000E1,6.273574829E0,-1.441248131E1,-5.867517591E-1
1.415400000E1,4.696016312E0,-1.570535946E1,-2.648149967E0
1.417400000E1,3.883797407E0,-1.599993229E1,-3.724228442E-1
1.419400000E1,3.857834816E0,-1.322728443E1,1.757200480E0
1.421400156E1,4.639474392E0,-1.100495815E1,3.989419937E0
1.423600000E1,3.503962040E0,-8.282195091E0,5.024088621E-1
1.425600000E1,4.141595364E0,-8.840446472E0,1.173177958E0
1.427600000E1,1.561498284E0,-7.352459431E0,8.103893697E-2
1.429600000E1,-1.143815517E0,-5.848163128E0,4.643410742E-1
1.431600000E1,-7.182700634E-1,-5.769250393E0,1.628679633E0
1.433600000E1,-2.880224586E-1,-5.572255135E0,-3.598006368E-1
1.435600000E1,-6.156929135E-1,-5.339586735E0,-1.402044535E0
1.437600000E1,2.849100158E-2,-5.522264481E0,-7.246865034E-1
1.439600000E1,-6.005806923E-1,-4.104495049E0,-2.047042400E-1
1.441600000E1,1.687749386E0,-5.070880890E0,-2.354429245E0
1.443600000E1,1.923913479E0,-4.422406673E0,-9.574221373E-1
1.445600156E1,1.241211653E0,-3.597019911E0,1.550915956E0
1.447800000E1,7.392432690E-1,-4.433170795E0,4.758830070E0
1.449801406E1,9.248035550E-1,-8.214371681E0,9.180490494E0
1.452000000E1,3.225880384E0,-1.560546398E1,1.461173630E1
1.454000000E1,4.915947437E0,-2.128468323E1,1.728289795E1
1.456000000E1,9.139050841E-1,-1.407725525E1,1.056713486E1
1.458000000E1,7.145734429E-1,-8.988704681E0,4.506778240E0
1.460000156E1,3.926155567E0,-1.360807705E1,3.386358976E0
1.462200000E1,6.130918503E0,-1.642050743E1,-1.197848797E1
1.464200000E1,5.852961540E0,-9.114715576E0,-9.998358727E0
1.466200156E1,4.536045074E0,-4.403387070E0,-2.004128695E0
1.468400000E1,4.093903065E0,-5.779363155E0,-9.142019749E-1
1.470400000E1,3.114540339E0,-9.317208290E0,5.837369919E0
1.472400000E1,1.737328529E0,-1.345931149E1,-9.324860573E0
1.474400000E1,-1.515462637E0,-1.244066525E1,-6.118296623E0
1.476400000E1,-3.257550716E0,-9.535089493E0,-1.866605878E0
1.478400000E1,-3.228092432E0,-7.878005981E0,-3.309839964E-1
1.480400156E1,-2.875886202E0,-7.293379784E0,6.922451019E0
1.482600000E1,-1.222134590E0,-8.343218803E0,3.754261494E0
1.484600000E1,-1.534463048E0,-7.545221329E0,-1.785212517E0
1.486600000E1,3.648188710E-1,-9.039902687E0,-2.581658125E0
1.488600000E1,1.203182101E0,-9.495471001E0,3.991900384E-1
1.490600000E1,1.239985824E0,-8.865536690E0,3.782915354E0
1.492600000E1,-1.063025594E-1,-8.344213486E0,4.724832535E0
1.494600000E1,-1.832225084E0,-8.865000725E0,1.871719837E0
1.496600000E1,-3.493925571E0,-9.029750824E0,5.978800729E-2
1.498600000E1,-3.857298374E0,-9.303589821E0,1.800726950E-1
1.500600000E1,-2.953918219E0,-1.001706219E1,1.551567316E0
1.502600156E1,-2.025849104E0,-1.050046062E1,4.294489384E0
1.504800156E1,-1.005909443E0,-1.212815475E1,3.366190195E0
1.507000000E1,-1.506585002E0,-1.242262173E1,4.999093115E-1
1.509000156E1,-1.014576435E0,-1.240929127E1,1.681601048E0
1.511200000E1,-1.687644005E0,-1.479567814E1,3.463471413E0
1.513200000E1,-2.796705246E0,-1.370978355E1,3.872295618E0
1.515200000E1,-3.404382229E0,-1.238403702E1,3.496224165E0
1.517200000E1,-2.551203966E0,-1.277505779E1,4.198567867E-1
1.519200000E1,-1.079785004E-1,-1.467618847E1,-4.469830990E0
1.521200000E1,2.842453718E0,-1.585967064E1,-4.830158234E0
1.523200000E1,4.356863022E0,-1.621503639E1,-8.978256583E-2
1.525200000E1,3.696733713E0,-1.237964153E1,3.615953445E0
1.527200000E1,1.920207262E0,-8.624738693E0,2.961493492E0
1.529200000E1,6.265817285E-1,-9.326651573E0,4.159398675E-1
1.531200000E1,-8.256931305E-1,-9.509520531E0,-4.088721871E-1
1.533200000E1,-9.572592974E-1,-8.894372940E0,5.127326846E-1
1.535200000E1,-6.924318671E-1,-7.580837250E0,1.607275605E-1
1.537200000E1,5.709308982E-1,-6.246807575E0,-3.045807481E-1
1.539200000E1,5.488659739E-1,-5.499193668E0,-9.122195840E-1
1.541200000E1,5.552728176E-1,-5.336512566E0,-1.327690244E0
1.543200000E1,1.145472288E0,-5.130620956E0,-1.845862389E0
1.545200000E1,1.707410574E0,-4.562592030E0,-2.057327986E0
1.547200156E1,2.006302834E0,-3.838326693E0,-1.504123688E0
1.549400000E1,1.738966227E0,-2.900441170E0,9.218538404E-1
1.551400000E1,1.014404058E0,-4.001573086E0,3.869049072E0
1.553400000E1,1.793161333E-1,-8.160521507E0,5.126426220E0
1.555400000E1,1.909854770E0,-1.410595608E1,9.987585068E0
1.557400000E1,2.985933304E0,-2.179928398E1,2.026040459E1
1.559400000E1,-1.217767596E0,-1.494829369E1,2.019171143E1
1.561400000E1,-4.314993382E0,-5.056295395E0,4.068782806E0
1.563400000E1,-2.065563917E0,-6.611607075E0,-8.493574262E-1
1.565400000E1,1.726928115E0,-1.274767780E1,-9.473990440E0
1.567400000E1,7.173775196E0,-1.703298187E1,-1.148065758E1
1.569400000E1,6.953297615E0,-1.444676685E1,-2.961024284E0
1.571400000E1,6.821061611E0,-9.943465233E0,2.534380341E1
1.573400000E1,3.963744640E0,-7.143780708E0,3.712248087E0
1.575400000E1,-9.258952737E-1,-7.986290455E0,-1.362945271E1
1.577400000E1,-3.072450161E0,-1.137219906E1,-9.703738213E0
1.579400156E1,-3.549624205E0,-1.162317848E1,-7.315530777E-1
1.581600000E1,-2.995692253E0,-9.288439751E0,1.669170380E0
1.583600000E1,-1.626314163E0,-7.390795231E0,8.595336914E0
1.585600000E1,-6.980438828E-1,-7.210109711E0,4.301451683E0
1.587600000E1,-5.829784870E-1,-7.300936222E0,5.508962274E-1
1.589600000E1,1.628804207E0,-8.336668015E0,-1.399324656E0
1.591600000E1,1.575566649E0,-8.388305664E0,7.009264827E-2
1.593600000E1,1.190818429E0,-8.867481232E0,1.019144654E0
1.595600000E1,7.057531476E-1,-8.280538559E0,6.769748926E-1
1.597600000E1,5.150789618E-1,-7.153865337E0,1.941879511E0
1.599600000E1,-6.289376020E-1,-8.053529739E0,2.855353832E0
1.601600000E1,-3.523029566E0,-9.772173882E0,1.524876595E0
1.603600000E1,-5.641677856E0,-1.113100815E1,1.019738391E-1
1.605600000E1,-5.762163639E0,-1.114869595E1,-8.664041162E-1
1.607600000E1,-4.096134186E0,-1.147546577E1,1.698628664E0
1.609600000E1,-1.617666245E0,-1.216483307E1,3.221771955E0
1.611600000E1,7.647941709E-1,-1.236721992E1,3.118907452E0
1.613600000E1,-2.802652717E-1,-1.515890694E1,2.907777071E0
1.615600000E1,-2.270814180E0,-1.464239120E1,3.638276815E0
1.617600000E1,-3.539865494E0,-1.188892555E1,5.013736248E0
1.619600000E1,-3.274291039E0,-1.154786682E1,1.909289718E0
1.621604062E1,-2.111283779E0,-1.494610023E1,-2.244324684E-1
1.623800000E1,8.627266288E-1,-1.655344391E1,-3.944619656E0
1.625801875E1,1.268879056E0,-1.591162491E1,-3.118964911E0
1.628000000E1,7.352880836E-1,-1.273024845E1,1.648331285E0
1.630000156E1,-2.653158605E-1,-1.013558483E1,1.127601981E0
1.632000156E1,-3.062662855E-2,-9.702866554E0,4.009042978E-1
1.634200156E1,1.012105703E0,-9.341811180E0,6.639600545E-2
1.636400000E1,1.617972732E0,-8.366508484E0,2.654212117E-1
1.638400000E1,1.782511830E0,-6.845338821E0,5.508579016E-1
1.640400313E1,7.025066614E-1,-5.205262661E0,3.434913456E-1
1.642599844E1,-6.670150161E-1,-4.985475063E0,-3.772495687E-1
1.644600000E1,-1.041621327E0,-5.280344963E0,-1.645716786E0
1.646600000E1,4.157674909E-1,-5.464488029E0,-2.773912668E0
1.648600000E1,1.596530318E0,-4.516757488E0,-2.817362547E0
1.650600000E1,2.316495657E0,-3.638353586E0,-8.035132289E-1
1.652600000E1,1.728862643E0,-2.326378584E0,2.391146660E0
1.654600000E1,7.166707516E-1,-3.739408016E0,4.272002697E0
1.656600000E1,2.384912223E-1,-9.466510773E0,7.136167049E0
1.658600000E1,4.156018257E0,-1.714802933E1,1.201571274E1
1.660600000E1,5.849274635E0,-2.346492004E1,2.121549988E1
1.662600000E1,-1.530277967E0,-1.215719128E1,1.216661549E1
1.664600000E1,-3.440803051E0,-4.563453674E0,1.323668003E0
1.666600000E1,1.761557758E-1,-9.331123352E0,7.873505116E0
1.668600000E1,-2.595314570E-2,-1.345245457E1,-6.461308479E0
1.670600000E1,3.197944880E0,-1.487129688E1,-1.187695503E1
1.672600000E1,5.436983109E0,-1.116521549E1,-3.941028357E0
1.674600000E1,8.073257446E0,-1.006084728E1,2.722688103E1
1.676600000E1,3.572522402E0,-7.255264282E0,7.419822216E-1
1.678600000E1,-1.971242070E0,-8.902657509E0,-1.054788589E1
1.680600000E1,-5.566519260E0,-1.233099079E1,-1.033911133E1
1.682600000E1,-5.287919998E0,-1.007149696E1,-3.227058411E0
1.684600000E1,-3.434195042E0,-8.529573441E0,2.987772226E-1
1.686600000E1,2.164262533E-1,-7.032086372E0,9.602050781E0
1.688600156E1,6.244460940E-1,-7.064082623E0,6.950310230E0
1.690800000E1,2.791638970E-1,-7.810307026E0,-3.985330582E0
1.692800156E1,1.679053664E0,-9.046338081E0,-4.255511761E0
1.695000156E1,1.529473543E0,-8.449444771E0,3.846045583E-2
1.697200156E1,1.379155815E-1,-8.768734932E0,3.424522400E0
1.699400000E1,-7.330279350E-1,-8.556771278E0,2.750123739E0
1.701400000E1,-1.529454350E0,-8.665822029E0,9.173623323E-1
1.703400000E1,-1.750975490E0,-9.114073753E0,-1.028386235E0
1.705400000E1,-1.221109867E0,-9.454702377E0,-9.096242785E-1
1.707400000E1,-7.007924318E-1,-9.776157379E0,1.082284570E0
1.709400000E1,-1.817141652E0,-1.025492096E1,3.298788548E0
1.711400000E1,-2.746925116E0,-1.190087795E1,2.381186724E0
1.713400000E1,-3.566967726E0,-1.250423527E1,1.137332082E0
1.715400000E1,-3.056457043E0,-1.181252193E1,1.667733908E0
1.717400000E1,-1.808330894E0,-1.353277493E1,4.763015270E0
1.719400000E1,-1.801521897E0,-1.516590786E1,3.628364801E0
1.721404063E1,-2.413728714E0,-1.311889458E1,6.561165810E0
1.723600000E1,-3.222576380E0,-1.184105110E1,1.216311932E0
1.725600000E1,-2.386166811E0,-1.390432644E1,-2.073598862E0
1.727600000E1,7.703679204E-1,-1.539039707E1,-3.191614389E0
1.729600000E1,2.452275276E0,-1.686376190E1,-2.237831593E0
1.731600000E1,2.306018591E0,-1.562516403E1,1.539586663E0
1.733600000E1,1.161762476E0,-1.095503426E1,4.993021488E0
1.735600000E1,3.459334075E-1,-9.066286087E0,3.143577099E0
1.737600000E1,-1.264818430E0,-8.998559952E0,7.700231075E-1
1.739600000E1,2.677004635E-1,-9.629593849E0,-6.122452617E-1
1.741600000E1,1.034534574E0,-8.244663239E0,-1.127793431E0
1.743600000E1,1.576591372E0,-6.479926109E0,-8.035515547E-1
1.745600156E1,1.105029464E0,-5.198750496E0,-7.903355956E-1
1.747800625E1,7.360829711E-1,-4.189134598E0,-5.177317262E-1
1.749999844E1,8.841307759E-1,-4.157559872E0,-1.277172446E0
1.752000000E1,1.140511513E0,-3.975198507E0,-2.120113611E0
1.754000000E1,1.176271200E0,-3.530614376E0,-1.720253110E0
1.756000156E1,1.213927269E0,-3.218075275E0,6.651858687E-1
1.758000156E1,3.463643789E-1,-3.205347538E0,3.482711077E0
1.760000156E1,-3.542844057E-1,-6.275623798E0,5.121197224E0
1.762200000E1,1.387832522E0,-1.293290329E1,1.169072342E1
1.764200000E1,4.647566795E0,-2.129503441E1,1.691040993E1
1.766200000E1,-1.701702774E-1,-1.687462997E1,1.906855202E1
1.768200000E1,-3.830090523E0,-7.250303745E0,6.807960272E-1
1.770200000E1,3.722791970E-1,-8.469191551E0,5.835665703E0
1.772200000E1,1.087628365E0,-1.362834167E1,-9.882019758E-1
1.774200000E1,3.426667690E0,-1.680608940E1,-9.494196892E0
1.776200000E1,5.837733746E0,-1.158480453E1,-6.091681957E0
1.778200000E1,4.110652924E0,-7.510447979E0,2.102482557E0
1.780200000E1,3.958477259E0,-4.797041416E0,1.005064869E1
1.782200000E1,-1.672369003E0,-7.733759880E0,-9.082930565E0
1.784200000E1,-4.666213036E0,-1.404165840E1,-1.049481010E1
1.786200000E1,-4.711922646E0,-1.300344563E1,-3.204734802E0
1.788200000E1,-3.105883121E0,-9.921102524E0,2.729772925E-1
1.790200000E1,-1.038365245E0,-6.898844242E0,7.651226997E0
1.792200000E1,-5.564316511E-1,-6.818485260E0,7.650001049E0
1.794200000E1,-9.384695888E-1,-8.067435265E0,1.370824099E0
1.796200000E1,-4.835521281E-1,-8.004189491E0,-2.771106482E0
1.798200000E1,1.087120891E0,-8.060932159E0,-2.542421818E0
1.800200000E1,1.831458926E0,-8.058318138E0,-6.131550074E-1
1.802200156E1,1.935127974E0,-7.533508778E0,2.292122602E0
1.804200156E1,4.797980487E-1,-8.001134872E0,3.459947109E0
1.806400000E1,-1.071903229E0,-8.639103889E0,3.380536079E0
1.808400000E1,-1.635354757E0,-9.826522827E0,1.128818274E0
1.810400000E1,-1.945049405E0,-1.084641361E1,2.297571748E-1
1.812400000E1,-2.769928455E0,-1.072983456E1,7.832870483E-1
1.814400000E1,-2.849588394E0,-1.174343491E1,3.613817692E0
1.816400000E1,-2.512207031E0,-1.238717747E1,4.221801281E0
1.818400000E1,-2.249007702E0,-1.192560482E1,1.088404059E0
1.820400156E1,-1.360270500E0,-1.299337101E1,1.430219531E0
1.822600000E1,-1.531063199E0,-1.445946503E1,2.054253817E0
1.824600000E1,-1.908159494E0,-1.302975273E1,8.053070068E0
1.826600000E1,-1.294535279E0,-1.366424465E1,1.845354915E0
1.828600000E1,-5.442882180E-1,-1.638897133E1,-4.193540096E0
1.830600000E1,2.128311396E0,-1.605274963E1,-4.979623318E0
1.832600000E1,4.390735626E0,-1.591057110E1,-2.445073843E0
1.834600000E1,3.967345476E0,-1.399945354E1,4.236587882E-1
1.836600000E1,2.811118364E0,-1.042410564E1,4.443782330E0
1.838600156E1,1.923137665E0,-9.979674339E0,5.162004471E0
1.840800000E1,5.990292877E-2,-8.638384819E0,3.597719073E-1
1.842800156E1,-1.429041505E0,-7.986348152E0,3.508750498E-1
1.845000156E1,-1.605465412E0,-6.750374794E0,1.975235581E0
1.847200156E1,-7.856045961E-1,-5.658159256E0,5.422292352E-1
1.849400000E1,-7.261134386E-1,-4.097053528E0,-4.692730904E-1
1.851400000E1,-3.300933838E-1,-2.835184813E0,-6.968372464E-1
1.853400000E1,5.005221963E-1,-2.205950499E0,-1.242188454E0
1.855400000E1,1.208209991E0,-1.993824124E0,-2.304831028E0
1.857400000E1,1.317529202E0,-1.896533370E0,-1.664745808E0
1.859400000E1,1.043172836E0,-1.384260416E0,7.901918888E-1
1.861400000E1,-2.961435914E-1,-5.345849991E0,4.388887882E0
1.863400000E1,-1.119040251E0,-1.374233532E1,9.607873917E0
1.865400000E1,3.394844055E0,-2.441335869E1,2.012987328E1
1.867400000E1,7.090936184E0,-2.314874268E1,2.562387657E1
1.869400000E1,2.552841663E0,-1.016497517E1,7.558916092E0
1.871400000E1,4.189259052E0,-8.012310982E0,-1.069234180E1
1.873400000E1,5.185610771E0,-1.507244778E1,-8.028811455E0
1.875400000E1,2.633794308E0,-1.123817158E1,-1.236309242E1
1.877400000E1,3.793583870E0,-7.339913368E0,-2.994207859E0
1.879400000E1,2.218658924E0,-7.874041080E0,9.443747520E0
1.881400000E1,5.726930685E-3,-1.124145699E1,-3.757920027E0
1.883400000E1,-1.979353666E0,-1.492929363E1,-9.490999222E0
1.885400000E1,-1.979583383E0,-1.295105076E1,-3.351355791E0
1.887400000E1,-1.951446772E0,-9.718897820E0,9.558610618E-2
1.889400000E1,-1.507686257E0,-7.195188999E0,6.802492142E0
1.891400000E1,-1.756472588E0,-6.015584946E0,6.090054035E0
1.893400000E1,-2.075399399E0,-7.118153095E0,2.010947466E0
1.895400000E1,-1.842385978E-1,-8.672775269E0,-5.813313127E-1
1.897400000E1,6.948547959E-1,-8.587839127E0,-1.790489435E0
1.899599844E1,6.262657046E-1,-8.483097076E0,-3.865965307E-1
1.901600000E1,-7.286992669E-2,-8.734420776E0,1.346614003E0
1.903600000E1,-1.342294812E0,-8.653832436E0,3.050366163E0
1.905600000E1,-1.729638338E0,-8.185373306E0,2.573680639E0
1.907600000E1,-1.962689996E0,-8.656590462E0,1.056273937E0
1.909600000E1,-1.350751042E0,-8.097573280E0,1.577539563E0
1.911600000E1,-1.160536647E0,-9.164257050E0,2.648667097E0
1.913600000E1,-1.984448433E0,-1.071670532E1,2.021893740E0
1.915600000E1,-2.882791281E0,-1.168110943E1,1.387717605E0
1.917600000E1,-2.140703678E0,-1.233383465E1,2.522052050E0
1.919600000E1,-1.481397986E0,-1.137971783E1,2.623327017E0
1.921600000E1,-1.534855723E0,-1.163217163E1,3.317683697E0
1.923600000E1,-3.024403572E0,-1.456816196E1,2.987255096E0
1.925600000E1,-3.338015079E0,-1.272070980E1,7.596868992E0
1.927600000E1,-1.543484330E0,-1.251801682E1,5.520071507E0
1.929600000E1,-1.333493829E0,-1.494093990E1,-2.338292122E0
1.931600000E1,5.365405679E-1,-1.549245834E1,-4.911561012E0
1.933600000E1,2.566910028E0,-1.642871475E1,-2.051840305E0
1.935800312E1,2.014098167E0,-1.636889839E1,4.215404034E0
1.938000156E1,-4.468250871E-1,-1.276171780E1,3.305664778E0
1.940200000E1,-1.464006454E-1,-1.208570957E1,1.385285139E0
1.942200000E1,-3.053756356E-1,-1.078752518E1,8.407670259E-1
1.944200000E1,1.253498673E0,-8.713314056E0,-6.439923644E-1
1.946200000E1,4.629907310E-1,-5.672275543E0,-4.672906995E-1
1.948200156E1,-4.895280600E-1,-4.434511662E0,-5.731240511E-1
1.950399844E1,-1.550791502E0,-4.293186665E0,-9.808661342E-1
1.952400000E1,-1.286825895E0,-5.179070473E0,-1.708665133E0
1.954400000E1,1.049723387E0,-5.719269276E0,-3.214905262E0
1.956400000E1,2.547028303E0,-4.980964184E0,-3.950921059E0
1.958400000E1,3.515454292E0,-3.164445162E0,-2.177325487E0
1.960400000E1,2.018838644E0,-9.835093617E-1,1.174595356E-1
1.962400000E1,-2.858485281E-1,-4.286205292E0,2.238252878E0
1.964400000E1,1.557974100E0,-9.609358788E0,7.427809715E0
1.966400000E1,2.513777494E0,-1.609392929E1,1.478133202E1
1.968400000E1,-1.892855883E0,-2.004812431E1,2.697715569E1
1.970400000E1,-8.234684944E0,-1.083799648E1,5.599185467E0
1.972400000E1,-5.970726967E0,-9.071161270E0,1.315661818E-1
1.974400000E1,-2.461459637E0,-1.450300121E1,-3.494643688E0
1.976400000E1,4.804607391E0,-1.806365776E1,-8.958040237E0
1.978400000E1,7.113317013E0,-1.189798546E1,-4.124740124E0
1.980400000E1,6.345266819E0,-7.068315506E0,6.643718243E0
1.982400000E1,9.155628204E0,-6.984786510E0,8.128649712E0
1.984400000E1,5.696773052E0,-7.612364292E0,-1.263784218E1
1.986400000E1,-7.963114977E-2,-1.270035934E1,-1.218202305E1
1.988400000E1,-2.983261585E0,-1.192596912E1,-4.074404716E0
1.990400000E1,-3.142045021E0,-1.081239605E1,3.534990847E-1
1.992400000E1,-2.354659081E0,-9.062857628E0,2.911263227E0
1.994400000E1,-2.091823578E0,-7.365119934E0,5.599252224E0
1.996400000E1,-2.235064030E0,-6.696112633E0,2.889801502E0
1.998400000E1,-7.965125442E-1,-8.682667732E0,-1.633755326E0
2.000400000E1,6.467888355E-1,-9.160062790E0,-2.118619680E0
2.002400000E1,1.175007224E0,-8.403504372E0,4.698190093E-1
2.004400000E1,1.045911789E0,-7.716215134E0,1.863502979E0
2.006400000E1,7.615860105E-1,-7.736029625E0,3.331876516E0
2.008400000E1,-1.089361787E0,-8.458274841E0,2.649030924E0
2.010400000E1,-2.495016813E0,-9.618657112E0,1.662725210E0
2.012400000E1,-2.342716694E0,-1.055583382E1,1.381128788E0
2.014400000E1,-2.333609104E0,-1.005944920E1,2.359198570E0
2.016400000E1,-2.406939030E0,-1.103889751E1,3.768033028E0
2.018400000E1,-1.964365840E0,-1.219046116E1,2.135541677E0
2.020400312E1,-3.170890331E0,-1.206217003E1,-2.431072444E-1
2.022600000E1,-2.916089773E0,-1.186796188E1,2.029009342E0
2.024600000E1,-3.374914646E0,-1.437526608E1,2.610321522E0
2.026600000E1,-3.414734840E0,-1.325145626E1,3.597632885E0
2.028600000E1,-1.227229476E0,-1.256521130E1,1.950987101E0
2.030600000E1,1.916548848E0,-1.373718262E1,1.263199925E0
2.032600000E1,4.308662415E0,-1.557824707E1,-2.609689474E0
2.034600000E1,5.277289867E0,-1.688714600E1,-2.680576801E0
2.036600000E1,5.616097927E0,-1.663432121E1,1.158065796E0
2.038600000E1,3.567513704E0,-1.251036453E1,4.101573944E0
2.040600000E1,1.437852144E0,-1.039266396E1,2.515769720E0
2.042600000E1,-2.256487310E-1,-9.280395508E0,-5.999773741E-1
2.044600000E1,-1.347820640E0,-7.990628719E0,-7.754532099E-1
2.046600000E1,-7.494139075E-1,-7.021628380E0,8.354901671E-1
2.048600000E1,9.850416183E-1,-6.471900940E0,8.648526669E-1
2.050600000E1,5.953708887E-1,-5.223008156E0,-1.964203082E-2
2.052600000E1,-9.669702500E-2,-4.535460949E0,-3.747979105E-1
2.054600000E1,-3.084593713E-1,-4.788824558E0,-1.250367045E0
2.056600000E1,5.773473382E-1,-4.932151318E0,-2.229356289E0
2.058600000E1,1.945317626E0,-4.366286755E0,-2.764910460E0
2.060600000E1,2.456671238E0,-3.361124039E0,-1.886027575E0
2.062600000E1,2.175697327E0,-2.496558666E0,1.588696390E-1
2.064600000E1,1.253651857E0,-3.885320187E0,2.454094887E0
2.066600000E1,-3.655467182E-2,-8.443946838E0,5.429512978E0
2.068600000E1,7.730398774E-1,-1.477564335E1,1.146007633E1
2.070600000E1,1.512924790E0,-2.382890701E1,2.500968742E1
2.072600000E1,-3.256755829E0,-1.661018562E1,1.847688866E1
2.074600000E1,-3.013811588E0,-5.817354679E0,8.417534232E-1
2.076600000E1,-2.135053277E-1,-5.607488632E0,-3.674333394E-1
2.078600000E1,2.969748497E0,-1.206799316E1,-6.851822376E0
2.080600000E1,6.039019585E0,-1.580128098E1,-1.409285545E1
2.082600156E1,7.939488888E0,-1.591253471E1,-4.991996765E0
2.084800156E1,5.862834930E0,-1.049883270E1,1.898114395E1
2.086800156E1,4.076750755E0,-8.173239708E0,1.098852396E0
2.088800156E1,-6.585969925E-1,-8.461711884E0,-1.166668606E1
2.091000000E1,-1.938307405E0,-1.198003006E1,-6.518999577E0
2.093000000E1,-1.968426347E0,-1.186935043E1,-1.184871197E0
2.095000156E1,-1.659794688E0,-9.638989449E0,4.281502962E-1
2.097200156E1,-1.306841373E0,-6.175728321E0,7.634199142E0
2.099400000E1,-5.951219201E-1,-6.071398258E0,2.147665977E0
2.101400000E1,1.225927025E-1,-7.181599617E0,-1.432996750E0
2.103400000E1,2.123072863E0,-8.720334053E0,-3.868062735E0
2.105400000E1,1.648637652E0,-8.768945694E0,-1.237677693E0
2.107600000E1,8.683481812E-1,-8.267503738E0,2.624150276E0
2.109600000E1,-1.028644815E-1,-8.215444565E0,4.121819496E0
2.111600000E1,-1.596980453E0,-8.991281509E0,3.025380373E0
2.113600000E1,-3.549030542E0,-1.040972042E1,1.435343027E0
2.115600000E1,-4.272405148E0,-1.084260273E1,6.802788973E-1
2.117600000E1,-4.131233215E0,-1.044924450E1,2.207109213E0
2.119600000E1,-3.395772934E0,-1.135305595E1,4.006821156E0
2.121600000E1,-2.594318628E0,-1.273237419E1,2.715723991E0
2.123600000E1,-2.239890575E0,-1.232092571E1,1.022534847E0
2.125600000E1,-1.396489978E0,-1.182433987E1,3.387077093E0
2.127600000E1,-1.475814700E0,-1.369938278E1,3.049015760E0
2.129600000E1,-1.324797988E0,-1.295536995E1,5.618502140E0
2.131600000E1,6.301442981E-1,-1.294661713E1,3.421323776E0
2.133600000E1,2.862890661E-1,-1.450464821E1,-2.960602760E0
2.135600000E1,9.137231112E-2,-1.633016968E1,-5.263116360E0
2.137600000E1,3.536072969E0,-1.771560669E1,-2.319904804E0
2.139600000E1,4.165077686E0,-1.546100807E1,1.950872183E0
2.141600000E1,4.033827782E0,-1.141154099E1,4.111437798E0
2.143600000E1,2.492555380E0,-9.012713432E0,2.373812675E0
2.145600000E1,5.485020280E-1,-8.466815948E0,-6.319735199E-2
2.147600000E1,-2.471486479E-1,-7.558648109E0,-4.070430398E-1
2.149600000E1,-4.026951492E-1,-7.015010834E0,4.478881061E-1
2.151600000E1,-2.853888553E-3,-6.169551373E0,6.592960954E-1
2.153600000E1,-1.392946690E-1,-5.466699600E0,-2.404161543E-1
2.155600000E1,-2.620214224E-2,-4.628834248E0,-1.692145109E0
2.157600000E1,8.330194354E-1,-3.919116735E0,-2.227814198E0
2.159600000E1,1.551844954E0,-3.086422920E0,-2.277278662E0
2.161600000E1,2.180533409E0,-2.610867500E0,-2.239766121E0
2.163600000E1,1.855008245E0,-2.054751635E0,-6.215826273E-1
2.165600000E1,8.581106067E-1,-2.266255617E0,1.828193188E0
2.167600000E1,-8.435825706E-1,-7.027029991E0,5.022173405E0
2.169600000E1,-7.694485188E-1,-1.468188667E1,9.969244957E0
2.171600000E1,5.474370956E0,-2.518916512E1,2.384206390E1
2.173600000E1,5.932803154E0,-2.092795753E1,2.499842644E1
2.175600000E1,7.279139161E-1,-7.637982368E0,-1.130130291E0
2.177600000E1,3.832829595E-1,-6.525138378E0,-3.071961880E0
2.179600000E1,2.344622612E0,-1.236598396E1,-5.125823021E0
2.181600156E1,2.141096115E0,-1.341082382E1,-1.276995277E1
2.183800625E1,3.783365488E0,-1.236087990E1,8.829624653E-1
2.186000000E1,5.943557620E-1,-1.073122406E1,5.264284611E0
2.188000156E1,-7.844745517E-1,-9.883685112E0,-6.039958000E0
2.190200000E1,-8.933532834E-1,-1.060599709E1,-5.874978542E0
2.192200000E1,-8.653985858E-1,-1.104085159E1,-4.080849648E0
2.194200000E1,-1.017526150E0,-9.714578629E0,-2.677579224E-1
2.196200000E1,4.412034899E-2,-7.144814968E0,4.232479572E0
2.198200156E1,3.618673086E0,-6.686689377E0,6.388879299E0
2.200400469E1,2.624370575E0,-6.199670315E0,4.112759829E-1
2.202600000E1,5.254985094E-1,-8.408608437E0,-2.413288355E0
2.204600000E1,-1.142340660E0,-8.750654221E0,-1.181892872E0
2.206600000E1,-1.422759175E0,-8.672632217E0,1.010065794E0
2.208600000E1,-6.738719940E-1,-8.105349541E0,3.200942278E0
2.210800000E1,-1.221914291E0,-8.236896515E0,2.388934612E0
2.212800000E1,-1.416917205E0,-8.748480797E0,1.462857127E0
2.214800000E1,-9.998281598E-1,-9.840600014E0,3.736352682E0
2.216800000E1,-1.024488568E0,-1.127514839E1,2.805381775E0
2.218800000E1,-2.053056717E0,-1.208943558E1,1.468421340E0
2.220800781E1,-3.006628990E0,-1.190262985E1,3.129595280E0
2.223000000E1,-3.061111212E0,-1.189441299E1,3.527271986E0
2.225000000E1,-2.569983959E0,-1.235946274E1,1.692346334E0
2.227000000E1,-2.054665565E0,-1.519085503E1,2.922841549E0
2.229000000E1,-1.687155604E0,-1.528865337E1,5.438170433E0
2.231000000E1,-1.012948394E0,-1.306324291E1,3.797807217E0
2.233000000E1,-1.032255292E0,-1.401266861E1,-3.637836218E0
2.235000000E1,-6.496714354E-1,-1.666962814E1,-6.031281471E0
2.237000000E1,2.045730352E0,-1.693995285E1,-3.485938549E0
2.239000000E1,3.173169613E0,-1.533980370E1,1.643064022E0
2.241000000E1,4.010517597E0,-1.195651817E1,3.041009665E0
2.243000625E1,3.308901548E0,-8.570082664E0,1.852432132E0
2.245200000E1,8.971935511E-1,-7.417523861E0,2.605178952E-1
2.247200000E1,-4.186596870E-1,-7.690750599E0,3.429167271E-1
2.249399844E1,-1.178598523E0,-7.419190407E0,7.340909243E-1
2.251400000E1,-2.422184944E0,-6.900251865E0,9.198618531E-1
2.253400000E1,-2.065985441E0,-6.248406887E0,-7.214016914E-1
2.255400000E1,-1.039686918E0,-5.469352722E0,-1.204398394E0
2.257400000E1,8.802138567E-1,-4.845433235E0,-2.433734894E0
2.259400000E1,2.411621809E0,-3.741074324E0,-4.005825043E0
2.261400000E1,3.245158434E0,-2.821978569E0,-2.761816978E0
2.263400000E1,3.063524723E0,-1.191517591E0,-5.515283346E-2
2.265400000E1,1.776650906E0,-1.712869406E0,3.034056902E0
2.267400000E1,6.783826947E-1,-6.608245373E0,5.980830669E0
2.269400000E1,1.503721476E0,-1.365251350E1,1.190710258E1
2.271400000E1,3.638228893E0,-2.508302689E1,2.465199471E1
2.273400000E1,-1.698753119E0,-1.938231659E1,2.077381897E1
2.275400000E1,-4.502008915E0,-6.788615227E0,-2.311745435E-1
2.277400000E1,-3.137486219E0,-6.643249035E0,-4.019404888E0
2.279400156E1,6.694474816E-1,-1.336892605E1,-1.416281319E1
2.281600000E1,6.182968140E0,-1.494970226E1,-7.752999306E0
2.283600000E1,5.195235729E0,-1.137444973E1,-5.041997433E-1
2.285600000E1,6.208050251E0,-9.978515625E0,2.298466301E1
2.287600000E1,3.229730129E0,-9.541660309E0,-3.081529140E-1
2.289600000E1,1.029793993E-1,-1.038550091E1,-1.485933495E1
2.291600000E1,-2.332105637E0,-1.129711723E1,-5.570531845E0
2.293600000E1,-2.866980076E0,-9.887536049E0,-3.797970116E-1
2.295600000E1,-2.009386539E0,-8.104937553E0,-5.244642496E-1
2.297600000E1,-5.422388315E-1,-5.920209408E0,5.827324390E0
2.299600000E1,1.177947223E-2,-6.099727154E0,5.872727394E0
2.301600000E1,6.656360030E-1,-7.234329700E0,6.176944375E-1
2.303600000E1,7.769567966E-1,-8.135707855E0,-2.085426331E0
2.305600000E1,1.189123392E0,-8.684506416E0,-1.277421474E0
2.307600000E1,9.934883714E-1,-8.667144775E0,1.049378633E0
2.309600000E1,5.664010644E-1,-9.368577957E0,3.587107897E0
2.311600000E1,-5.559336543E-1,-1.005011177E1,2.387900114E0
2.313600000E1,-1.551279902E0,-1.022905445E1,7.836605310E-1
2.315600000E1,-1.991678953E0,-1.023811436E1,1.106140375E0
2.317600000E1,-2.465635061E0,-1.087831402E1,3.400427341E0
2.319600000E1,-4.561988831E0,-1.142903805E1,4.930331707E0
2.321600000E1,-6.203845501E0,-1.221668243E1,3.719449759E0
2.323600000E1,-5.728137016E0,-1.178007603E1,3.052568913E0
2.325600000E1,-4.521229267E0,-1.225618649E1,4.261123657E0
2.327600000E1,-2.151841640E0,-1.411761093E1,3.155203581E0
2.329600000E1,1.864949107E0,-1.449404716E1,3.453329563E0
2.331600156E1,2.033251762E0,-1.427030373E1,-2.094639063E0
2.333800000E1,5.120335817E-1,-1.698789406E1,-5.473451614E0
2.335800156E1,5.426448822E0,-2.057912064E1,-1.769592762E0
2.338000156E1,8.063680649E0,-1.897623253E1,4.576707840E0
2.340200000E1,5.397018909E0,-1.122738838E1,5.398953438E0
2.342200000E1,1.495954752E0,-7.110032082E0,6.911293864E-1
2.344200000E1,-2.044562101E0,-6.229080677E0,7.770621181E-1
2.346200000E1,-4.988750219E-1,-7.101336479E0,8.075737953E-1
2.348200156E1,1.534884453E0,-6.766808987E0,-4.605486244E-2
2.350400000E1,1.960621357E0,-4.803525448E0,1.047635674E0
2.352400000E1,1.035760403E0,-3.402333021E0,3.555006385E-1
2.354400000E1,4.945941865E-1,-3.383725405E0,-1.582701445E0
2.356400000E1,1.073799491E0,-3.621785641E0,-2.919901371E0
2.358400000E1,1.836228132E0,-3.490918398E0,-3.724908590E0
2.360400000E1,2.139132977E0,-2.744559526E0,-2.204015970E0
2.362400000E1,1.011205435E0,-1.028185129E0,3.885501921E-1
2.364400000E1,-1.086699486E0,-2.121052027E0,3.344987154E0
2.366400000E1,-1.903984189E0,-9.666187286E0,9.627764702E0
2.368400000E1,6.886681914E-2,-2.153677368E1,1.710897446E1
2.370400000E1,3.580547810E0,-2.886425591E1,3.201091003E1
2.372400000E1,-1.237572432E0,-1.224080658E1,7.379274368E0
2.374400000E1,4.132516384E0,-8.607088089E0,-7.539474964E0
2.376400000E1,5.168392181E0,-1.262877274E1,-5.258260727E0
2.378400000E1,2.456441402E0,-1.476110554E1,-1.186627674E1
2.380400312E1,2.381129503E0,-1.004064083E1,-5.920084953E0
2.382600000E1,2.673470974E0,-9.277435303E0,1.053478432E1
2.384600000E1,1.082830429E0,-6.234549522E0,-2.501500130E0
2.386600000E1,-1.301823258E0,-8.446121216E0,-8.792304039E0
2.388600000E1,-2.330037206E-2,-1.305030441E1,-4.994390965E0
2.390600000E1,-6.496523023E-1,-1.235998058E1,-2.023493052E0
2.392600000E1,-1.979870677E0,-8.568685532E0,-2.278801203E0
2.394600000E1,-2.205212831E0,-5.973638535E0,-2.027496099E0
2.396600156E1,-2.029038072E-1,-5.828549862E0,3.299535751E0
2.398800156E1,6.632513404E-1,-8.409250259E0,1.243931428E-1
2.400800156E1,9.212504625E-1,-8.626682281E0,-2.775684357E0
2.403000000E1,1.772341251E0,-9.211662292E0,-1.546472311E0
2.405000156E1,1.882321358E0,-1.041530418E1,2.687989473E0
2.407200000E1,3.618883789E-1,-9.611560822E0,3.968494654E0
2.409200000E1,-1.619782805E0,-8.817030907E0,2.510310888E0
2.411200000E1,-3.100404978E0,-8.901230812E0,9.968115091E-1
2.413200000E1,-2.552103996E0,-9.563610077E0,1.387956977E0
2.415200000E1,-2.679456472E0,-1.012387180E1,4.209303856E0
2.417200000E1,-2.789484262E0,-1.139761639E1,4.326983452E0
2.419200000E1,-2.409198999E0,-1.281017590E1,1.942530751E0
2.421399844E1,-2.922314644E0,-1.165835476E1,1.635440946E0
2.423400000E1,-2.720272779E0,-1.003128433E1,4.908946991E0
2.425400000E1,-2.621267796E0,-1.204063225E1,3.166015625E0
2.427400000E1,-2.246038914E0,-1.210039997E1,1.800794125E0
2.429400000E1,-2.244324684E-1,-1.374701786E1,1.905277014E0
2.431400000E1,1.198221326E0,-1.803577042E1,-3.442632198E0
2.433600000E1,2.350148439E0,-1.923895264E1,-5.669594288E0
2.435600000E1,6.400247097E0,-2.158974266E1,-1.299572736E-1
2.437600000E1,4.920678139E0,-1.631213760E1,4.351950169E0
2.439800000E1,1.876077294E0,-9.670477867E0,4.547297955E0
2.441800000E1,2.187342644E-1,-8.387558937E0,7.589332461E-1
2.444000000E1,-3.482222557E-1,-8.331266403E0,-1.023530841E0
2.446000000E1,4.257752597E-1,-6.868533611E0,-1.023301005E0
2.448200000E1,7.810747623E-1,-5.555333138E0,-8.806160688E-1
2.450200000E1,6.069014072E-1,-4.566892147E0,2.236759067E-1
2.452200000E1,-5.100128651E-1,-3.647662163E0,-2.046371996E-1
2.454399844E1,-1.033768415E0,-3.986872673E0,-2.128215551E0
2.456400000E1,6.330077648E-1,-4.542289257E0,-4.107655048E0
2.458400000E1,2.171981335E0,-4.077526569E0,-4.496588230E0
2.460599844E1,3.417856932E0,-3.205481768E0,-2.503358126E0
2.462600000E1,1.562264562E0,-1.659976721E0,6.262082458E-1
2.464799844E1,-1.257339001E0,-5.237105370E0,3.670253754E0
2.466799844E1,-6.934469938E-1,-1.209905052E1,9.411069870E0
2.468799844E1,3.280133009E0,-2.285622597E1,2.096869469E1
2.470800000E1,5.320394993E0,-2.447937202E1,2.756419563E1
2.472800156E1,7.263529301E-1,-9.756017685E0,3.570425034E0
2.475000000E1,1.187160134E0,-5.047819614E0,-3.870380402E0
2.477000000E1,2.058515310E0,-1.184947014E1,-5.389568329E0
2.479000000E1,3.041450262E0,-1.530744362E1,-1.261905193E1
2.481000156E1,5.402985573E0,-1.175986862E1,-4.881336689E0
2.483200000E1,3.444758415E0,-1.036694145E1,1.318765545E1
2.485200000E1,3.599136591E0,-8.863257408E0,3.633488178E0
2.487200000E1,-1.043441057E0,-9.382761955E0,-9.638969421E0
2.489200000E1,-1.564084053E0,-1.257931709E1,-6.567477226E0
2.491200000E1,-1.954722047E0,-1.208858299E1,-1.598292470E0
2.493200000E1,-2.174452305E0,-9.299682617E0,3.108344078E-1
2.495200000E1,-1.659392476E0,-6.688882351E0,4.411680698E0
2.497200000E1,-5.940588713E-1,-6.431007862E0,4.078091621E0
2.499200000E1,5.014416203E-2,-6.909800529E0,3.096373379E-1
2.501200000E1,9.148052931E-1,-7.730254650E0,-1.035683751E0
2.503200000E1,1.138950467E0,-8.632524490E0,-8.072769046E-1
2.505200000E1,6.674076319E-1,-8.528979301E0,3.741562366E-1
2.507200000E1,-3.607008457E-1,-7.958652020E0,4.409104347E0
2.509200000E1,-1.744942188E0,-7.455783844E0,6.032918930E0
2.511200000E1,-2.421342373E0,-8.790244102E0,1.821623564E0
2.513200000E1,-2.285169601E0,-1.081368923E1,5.662670135E-1
2.515200000E1,-2.182008266E0,-1.091204357E1,2.169615984E0
2.517200000E1,-2.771364927E0,-1.078744888E1,2.553521395E0
2.519200000E1,-3.057175398E0,-1.158813763E1,1.808522463E0
2.521200000E1,-4.711521149E0,-1.261521149E1,1.544968724E0
2.523200000E1,-5.565015793E0,-1.257066059E1,2.358499289E0
2.525200000E1,-4.696006298E0,-1.321612835E1,5.092955589E0
2.527200000E1,-3.215364933E0,-1.449631596E1,3.191078186E0
2.529200000E1,-1.249706268E0,-1.179612637E1,6.151288509E0
2.531200000E1,3.752767742E-1,-1.223105621E1,1.724294424E0
2.533200000E1,3.714077175E-1,-1.626287460E1,-5.450639725E0
2.535400000E1,1.605159044E0,-1.850491905E1,-5.962194443E0
2.537400000E1,3.982543945E0,-2.013015938E1,-6.813898087E-1
2.539400625E1,3.704098225E0,-1.600239372E1,3.762918949E0
2.541600000E1,2.847989082E0,-1.047605991E1,4.103661537E0
2.543600000E1,1.473602414E0,-8.190382004E0,8.533892632E-1
2.545600000E1,-8.996452391E-2,-6.957866192E0,-1.132821321E0
2.547600000E1,-4.254017770E-2,-6.034077644E0,-1.985406160E0
2.549600000E1,-6.396253705E-1,-5.247333527E0,-1.590994895E-1
2.551600000E1,-6.139786243E-1,-5.014789581E0,1.512177754E-2
2.553600000E1,-1.714535654E-1,-4.890779495E0,-1.001303077E0
2.555600000E1,-2.817879617E-1,-3.936134577E0,-2.051208258E0
2.557600000E1,1.319406271E0,-3.561786890E0,-3.181195021E0
2.559600000E1,3.196201801E0,-3.473536730E0,-4.274818420E0
2.561600000E1,3.655304432E0,-2.631514788E0,-2.191460609E0
2.563600000E1,2.396787405E0,-1.958552718E0,7.111832500E-1
2.565600156E1,1.146784306E0,-5.068994045E0,2.964606047E0
2.567800312E1,2.286510468E0,-1.247686481E1,1.017755032E1
2.570000000E1,6.807806969E0,-2.332215881E1,1.813037872E1
2.572199844E1,2.183962107E0,-2.166259384E1,2.579785919E1
2.574200000E1,-1.941879511E0,-8.482992172E0,4.856283665E0
2.576200000E1,-2.228197336E0,-6.802243233E0,6.060586572E-1
2.578399844E1,-6.028216481E-1,-1.485852146E1,-6.088062286E0
2.580400312E1,2.470136166E0,-1.634713936E1,-1.516815853E1
2.582600000E1,6.284338951E0,-8.879194260E0,-3.847051382E0
2.584600000E1,4.085063457E0,-5.918658257E0,1.151341915E1
2.586799844E1,3.625405550E0,-6.380557060E0,3.964415073E0
2.588799844E1,-5.996517539E-1,-1.236132145E1,-1.325085258E1
2.590800000E1,-2.249515295E0,-1.463451004E1,-6.451109409E0
2.592800000E1,-2.325133801E0,-1.128896809E1,-1.131183743E0
2.594800313E1,-2.058017492E0,-7.470627308E0,-2.150759250E-1
2.596999844E1,2.659479342E-2,-6.149707794E0,7.191817760E0
2.599000000E1,1.588849783E0,-7.022327423E0,3.659805536E0
2.601000000E1,1.132964969E0,-7.373796463E0,5.654242635E-1
2.603000000E1,1.283991218E0,-8.274456978E0,-2.507361412E0
2.605000000E1,7.823581100E-1,-9.147009850E0,-2.348836422E0
2.607199844E1,9.048262835E-1,-8.728368759E0,1.037589550E0
2.609199844E1,-4.118026700E-3,-8.190209389E0,4.057807922E0
2.611199844E1,-1.902547598E0,-8.448457718E0,3.268037319E0
2.613199844E1,-3.215374470E0,-9.560536385E0,2.256716967E0
2.615200000E1,-3.424896002E0,-1.062520885E1,2.444192648E0
2.617200000E1,-3.667572260E0,-1.138288784E1,3.266016960E0
2.619200000E1,-4.177527905E0,-1.205210495E1,3.883510113E0
2.621200000E1,-3.988337994E0,-1.220414639E1,3.441310644E0
2.623200000E1,-2.733211279E0,-1.181441784E1,1.743419290E0
2.625200000E1,-2.111235857E0,-1.320119762E1,2.322308540E0
2.627200000E1,-2.464859486E0,-1.311998653E1,3.547756910E0
2.629200000E1,-1.971912384E0,-1.301361656E1,3.393685102E0
2.631200000E1,3.383485675E-1,-1.585039997E1,-1.846293449E0
2.633399844E1,3.088884115E0,-1.928820419E1,-4.561605453E0
2.635399844E1,6.391455650E0,-2.006458855E1,-7.149852514E-1
2.637400000E1,6.736574650E0,-1.687998390E1,2.967996120E0
2.639400000E1,4.356623650E0,-1.114872456E1,4.390860558E0
2.641400000E1,1.388703942E0,-9.499693871E0,1.665512085E0
2.643400000E1,-3.682856858E-1,-9.119811058E0,-1.252952814E0
2.645400000E1,-1.294880033E0,-7.720802307E0,-1.379146338E0
2.647400000E1,-7.027173638E-1,-6.970210552E0,1.131116673E-1
2.649400000E1,6.053308249E-1,-5.511404514E0,7.647271752E-1
2.651400000E1,9.624211788E-1,-4.189403057E0,-3.710055053E-1
2.653400000E1,7.085592151E-1,-3.006121397E0,-1.376876712E0
2.655400000E1,7.267838717E-1,-3.141451120E0,-2.204820395E0
2.657400000E1,1.454065681E0,-3.064913273E0,-3.640345573E0
2.659400000E1,2.243549109E0,-2.936766148E0,-4.003028393E0
2.661400000E1,2.150653839E0,-2.922841549E0,-1.193701029E0
2.663400000E1,2.972353399E-1,-2.735231638E0,1.180303097E0
2.665400000E1,-1.159713030E0,-6.849543095E0,4.328227997E0
2.667400000E1,-1.287314296E-1,-1.436452007E1,1.071615887E1
2.669400000E1,4.917057991E0,-2.578266907E1,2.608123589E1
2.671400000E1,3.462159395E0,-2.060903931E1,2.349568939E1
2.673600000E1,-3.991996050E-1,-6.498045444E0,-3.863245487E0
2.675600000E1,2.418239594E0,-1.081508827E1,-3.276426792E0
2.677600000E1,3.511968374E0,-1.580290890E1,-9.288114548E0
2.679600000E1,3.796236515E0,-9.567584038E0,-1.096275330E1
2.681600000E1,3.864682198E0,-6.576565266E0,3.858323097E0
2.683600000E1,3.584005117E0,-6.962951660E0,1.403556728E1
2.685600000E1,-3.470347524E-1,-1.165535736E1,-8.629508018E0
2.687600000E1,-1.534127831E0,-1.690353394E1,-1.027001476E1
2.689600000E1,-1.569609880E0,-1.403921604E1,-3.237755537E0
2.691801406E1,-1.626285434E0,-9.597799301E0,-2.575203180E-1
2.693802500E1,-1.261361241E0,-5.347066402E0,4.409755230E0
2.696000000E1,2.257004499E0,-5.240007401E0,3.950854301E0
2.698000000E1,2.137753963E0,-6.276524544E0,6.104352474E-1
2.700000000E1,2.532519579E0,-6.262005806E0,-1.627080321E0
2.702000000E1,2.798812151E0,-8.175662994E0,-2.320747524E-1
2.704001406E1,1.558491230E0,-9.269966125E0,-5.164101720E-1
2.706200000E1,6.647740602E-1,-8.587254524E0,2.712946415E0
2.708399844E1,-1.329145908E0,-8.775610924E0,5.969013214E0
2.710399844E1,-2.441530228E0,-9.842888832E0,2.172067642E0
2.712399844E1,-3.108392000E0,-1.041045761E1,4.833893180E-1
2.714399844E1,-3.470050573E0,-1.051490307E1,1.838028669E0
2.716399844E1,-3.608952522E0,-1.050833321E1,3.025696278E0
2.718399844E1,-4.110231400E0,-1.254676628E1,3.269100428E0
2.720399844E1,-4.508923531E0,-1.401788807E1,7.523922920E-1
2.722400000E1,-3.380919218E0,-1.201966763E1,1.050269246E0
2.724600000E1,-1.290733218E0,-1.487005138E1,3.874239683E0
2.726600000E1,-9.840647578E-1,-1.467548943E1,4.656827450E0
2.728800000E1,-1.635105729E0,-1.276160240E1,1.645544410E0
2.730999844E1,-4.576947689E-1,-1.426954746E1,-1.125140786E0
2.732999844E1,1.142484426E0,-1.573648453E1,-4.772496223E0
2.735000000E1,4.309821606E0,-1.624423790E1,-1.866749525E0
2.737199844E1,5.929824829E0,-1.485768795E1,9.505938888E-1
2.739199844E1,5.097437382E0,-1.233499432E1,1.949014306E0
2.741199844E1,3.598743677E0,-1.101214981E1,1.171664834E0
2.743199844E1,1.882761955E0,-1.029835224E1,5.430145264E-1
2.745199844E1,-8.997409791E-2,-8.430683136E0,6.362255812E-1
2.747199844E1,-9.022213817E-1,-6.685626507E0,-2.077017874E-1
2.749200000E1,-8.045283556E-1,-5.369629383E0,-5.272989720E-2
2.751200000E1,-8.564251065E-1,-4.868254662E0,-7.701955438E-1
2.753200000E1,-1.003237605E0,-4.275699615E0,-1.566210032E0
2.755399844E1,6.861878037E-1,-4.043366432E0,-3.283360243E0
2.757400000E1,2.441999435E0,-3.418115377E0,-4.418681145E0
2.759400000E1,3.162079573E0,-2.588850260E0,-3.161179543E0
2.761400000E1,2.789321423E0,-1.659631848E0,-7.031866312E-1
2.763400000E1,5.911284089E-1,-2.513729811E0,2.465050936E0
2.765400000E1,-6.972777247E-1,-8.573924065E0,6.338840485E0
2.767400000E1,1.480315804E0,-1.790452957E1,1.639892197E1
2.769599844E1,8.289693832E0,-2.840802765E1,2.734199333E1
2.771600000E1,1.694807529E0,-1.402626801E1,1.508924484E1
2.773799844E1,-1.074488997E0,-3.105404139E0,-5.843633175E0
2.775799844E1,7.389751673E-1,-9.112302780E0,-3.149131775E0
2.777800000E1,2.767390728E0,-1.608153725E1,-1.415834141E1
2.779802500E1,5.471114635E0,-1.322889328E1,-9.471768379E0
2.782000000E1,4.744809628E0,-1.160654354E1,1.707934380E1
2.784000469E1,5.342144012E0,-8.950915337E0,7.314956665E0
2.786199844E1,-4.750383496E-1,-9.141838074E0,-9.905789375E0
2.788200000E1,-2.346499443E0,-1.122153664E1,-9.025967598E0
2.790200000E1,-2.378811836E0,-1.192392826E1,-2.564515591E0
2.792200000E1,-2.734398603E0,-9.272762299E0,5.534915924E-1
2.794399844E1,-1.971653819E0,-7.248062611E0,7.242239952E0
2.796399844E1,-7.510323524E-1,-6.325366020E0,5.187507153E0
2.798399844E1,-2.266447097E-1,-6.700767040E0,6.296558976E-1
2.800400625E1,7.955836058E-1,-7.483661652E0,-3.211821556E0
2.802600000E1,9.252631664E-1,-8.573225021E0,-2.176549673E0
2.804799844E1,1.269530296E0,-8.861113548E0,4.355819225E-1
2.806800000E1,1.503204346E0,-8.182740211E0,4.801964283E0
2.808800625E1,4.427166283E-1,-9.026331902E0,6.353177071E0
2.810999844E1,-1.169443011E0,-1.040780544E1,1.817409754E0
2.812999844E1,-3.192217827E0,-1.076299953E1,4.585183263E-1
2.815000000E1,-5.221418858E0,-1.061405182E1,1.935894012E0
2.817000000E1,-6.644934654E0,-1.173329258E1,3.776719093E0
2.819204062E1,-4.752356529E0,-1.305881882E1,3.164818525E0
2.821399844E1,-1.669065118E0,-1.192904282E1,1.424645782E0
2.823399844E1,-4.937418401E-1,-1.200499725E1,5.190552711E0
2.825399844E1,-1.035233617E0,-1.340810490E1,4.590211391E0
2.827399844E1,-2.830042243E-1,-1.082654190E1,5.973427773E0
2.829399844E1,-4.103661701E-2,-1.277624512E1,-2.477998883E-1
2.831399844E1,-1.100240946E0,-1.726888847E1,-5.644579411E0
2.833399844E1,2.519897223E0,-1.963168716E1,-3.992034435E0
2.835399844E1,3.919959545E0,-1.978813553E1,2.338330507E0
2.837399844E1,2.876231194E0,-1.502330017E1,5.800164700E0
2.839399844E1,1.391873956E0,-1.187314320E1,2.909232855E0
2.841399844E1,2.506250329E-2,-1.064514732E1,-8.132815957E-1
2.843399844E1,-3.679313362E-1,-8.693950653E0,-6.299815178E-1
2.845400000E1,6.788136363E-1,-7.294806957E0,-1.762132533E-2
2.847600000E1,1.097827673E0,-5.240639210E0,-3.332537115E-1
2.849800000E1,8.301463723E-1,-3.537384987E0,-6.348944306E-1
2.851800469E1,2.533065341E-2,-2.680500269E0,-1.502371073E0
2.853999844E1,3.231118917E-1,-2.834926367E0,-2.259867907E0
2.855999844E1,1.614965677E0,-3.345772505E0,-3.480288029E0
2.857999844E1,2.292132139E0,-3.311650038E0,-3.351652622E0
2.860000000E1,2.598226070E0,-2.579790592E0,-9.447041154E-1
2.862200000E1,1.325650215E0,-2.751943350E0,1.512407541E0
2.864200000E1,2.198834866E-1,-7.200896740E0,4.061868191E0
2.866399844E1,2.974163532E0,-1.622239304E1,1.208338261E1
2.868399844E1,6.645738602E0,-2.653508186E1,2.450667572E1
2.870399844E1,-5.552632362E-2,-1.773539543E1,2.131083870E1
2.872399844E1,-3.286817551E0,-5.692635536E0,2.503367662E0
2.874400000E1,-2.314177990E0,-5.992687225E0,1.661518574E0
2.876599844E1,-5.366746783E-1,-1.358855915E1,-1.231418324E1
2.878599844E1,5.594311237E0,-1.285995579E1,-1.361006927E1
2.880599844E1,7.124512196E0,-1.033983898E1,-2.361899137E0
2.882599844E1,9.422370911E0,-1.000336742E1,2.502453041E1
2.884599844E1,4.995626450E0,-8.925918579E0,-9.607356787E-1
2.886600000E1,-2.540286303E0,-1.075219727E1,-1.535749245E1
2.888800469E1,-4.084939003E0,-1.348221874E1,-6.573405266E0
2.890999844E1,-2.915256500E0,-1.149417019E1,-2.881948650E-1
2.892999844E1,-2.369359493E0,-8.985583305E0,1.112173676E0
2.894999844E1,-1.089265943E-1,-6.451722145E0,8.035774231E0
2.896999844E1,3.645890057E-1,-6.493688107E0,4.672236919E0
2.899000000E1,7.521719933E-1,-7.073745728E0,-2.462388575E-1
2.901200000E1,1.107643962E0,-8.644122124E0,-2.216427565E0
2.903399844E1,1.408192873E0,-9.146769524E0,-9.237117171E-1
2.905399844E1,9.290556312E-1,-7.930294991E0,3.065851688E0
2.907399844E1,-6.935236454E-1,-8.087909698E0,3.976826429E0
2.909400000E1,-2.514400244E0,-8.728465080E0,3.283456087E0
2.911599844E1,-3.617370605E0,-9.460151672E0,2.504516840E0
2.913599844E1,-3.538716316E0,-1.066302776E1,1.817926884E0
2.915599844E1,-2.938049316E0,-1.137453651E1,1.471993566E0
2.917599844E1,-2.508213520E0,-1.131017971E1,2.717572212E0
2.919599844E1,-2.488389730E0,-1.130773830E1,2.883873224E0
2.921599844E1,-2.434740305E0,-1.139204311E1,2.093949795E0
2.923599844E1,-3.336454153E0,-1.407544422E1,2.888268948E0
2.925599844E1,-3.881747961E0,-1.435034657E1,5.751676559E0
2.927599844E1,-1.850746751E0,-1.411160660E1,4.061169624E0
2.929599844E1,1.208094954E0,-1.648239326E1,-2.415232420E0
2.931599844E1,3.015382051E0,-1.805870628E1,-4.767095089E0
2.933599844E1,7.480807781E0,-1.882814598E1,-6.443179846E-1
2.935599844E1,7.077451706E0,-1.579848480E1,3.583276987E0
2.937599844E1,4.410215378E0,-1.206529236E1,4.499720097E0
2.939599844E1,1.655475616E0,-1.121043777E1,5.252016783E-1
2.941599844E1,2.233311236E-1,-9.396629333E0,-1.684972167E0
2.943599844E1,-6.420770288E-1,-7.828435898E0,-8.927115798E-1
2.945599844E1,-9.357880950E-1,-6.147994041E0,1.787443995E0
2.947599844E1,-1.324951202E-1,-5.108125210E0,6.762662530E-1
2.949600000E1,7.353072613E-2,-3.882686615E0,-9.393315315E-1
2.951600000E1,1.816624403E-1,-2.851541996E0,-1.787424803E0
2.953800000E1,5.805556178E-1,-2.514304399E0,-2.258527040E0
2.955999844E1,1.652286530E0,-2.344373465E0,-3.564238548E0
2.958000000E1,2.344038248E0,-2.359428167E0,-2.840164900E0
2.960000000E1,2.096295834E0,-1.963523030E0,-5.627139807E-1
2.962199844E1,1.370632648E-1,-3.281176805E0,1.734139442E0
2.964199844E1,-6.426420212E-1,-8.474430084E0,5.784668922E0
2.966200000E1,2.263631582E0,-1.762763405E1,1.341021061E1
2.968399844E1,8.515974998E0,-3.007436371E1,3.007141304E1
2.970399844E1,2.138529778E0,-1.530309582E1,1.540310669E1
2.972399844E1,4.732953906E-1,-5.682254791E0,-2.469532967E0
2.974399844E1,2.151439190E0,-1.159176636E1,-1.683918715E0
2.976400000E1,9.768247008E-1,-1.690088081E1,-9.398151398E0
2.978599844E1,3.448981762E0,-8.642580032E0,-1.130873394E1
2.980599844E1,5.589034081E0,-6.152389526E0,4.416478634E0
2.982599844E1,8.036377907E0,-5.079452038E0,1.326620388E1
2.984599844E1,2.744665146E0,-9.672947884E0,-6.749867439E0
2.986599844E1,-2.362454653E0,-1.526726818E1,-1.206251431E1
2.988599844E1,-2.206544161E0,-1.522418308E1,-4.806695461E0
2.990600000E1,-2.701492786E0,-1.059245586E1,7.408617437E-2
2.992800000E1,-2.511661053E0,-6.359354019E0,1.078312016E1
2.995000000E1,-9.895523190E-1,-6.435604572E0,5.647931099E0
2.997200000E1,-2.828030884E-1,-7.143321037E0,-4.786200821E-1
2.999200000E1,1.303001165E0,-7.759492874E0,-4.393992424E0
3.001200000E1,1.019997001E0,-8.434983253E0,-2.671737432E0
3.003399844E1,1.016329050E0,-8.375252724E0,1.291796207E0
3.005399844E1,5.772133470E-1,-8.045092583E0,5.445918560E0
3.007399844E1,-1.566382498E-1,-8.438297272E0,3.679275036E0
3.009399844E1,-1.536598682E0,-9.055771828E0,1.049771190E0
3.011399844E1,-2.912919998E0,-1.006899738E1,4.027430415E-1
3.013399844E1,-3.534071445E0,-1.068074417E1,2.227575064E0
3.015399844E1,-3.546454430E0,-1.094932652E1,3.870246172E0
3.017399844E1,-3.172930241E0,-1.140674305E1,3.426322937E0
3.019399844E1,-2.572052479E0,-1.203060436E1,1.959883928E0
3.021399844E1,-1.945518732E0,-1.203783607E1,2.469714880E0
3.023400000E1,-2.243568182E0,-1.383037376E1,3.833681822E0
3.025599844E1,-1.487871885E0,-1.269674778E1,5.250886917E0
3.027599844E1,1.610665679E0,-1.343251610E1,3.119424582E0
3.029599844E1,6.513761282E-1,-1.665152931E1,-3.924230814E0
3.031599844E1,7.753382325E-1,-1.756151772E1,-6.014100552E0
3.033599844E1,3.328390360E0,-1.839238358E1,1.086488739E-1
3.035600000E1,2.661538363E0,-1.645133591E1,6.300485134E0
3.037800469E1,1.777934194E0,-1.457858086E1,2.790432692E0
3.039999844E1,1.037168264E0,-1.183467293E1,-4.280162454E-1
3.041999844E1,4.508185983E-1,-8.475608826E0,-2.072488070E0
3.044000938E1,3.043126166E-1,-6.463406086E0,-1.491807938E0
3.046199844E1,1.495820522E0,-4.903430462E0,-2.613319159E-1
3.048200000E1,1.109607220E0,-3.663176537E0,-7.194193006E-1
3.050399844E1,9.328288436E-1,-2.400713921E0,-1.638495922E-1
3.052399844E1,5.853918791E-1,-3.169425011E0,-1.092838168E0
3.054399844E1,1.217863441E0,-3.804329157E0,-3.613358021E0
3.056399844E1,2.169759750E0,-3.795489788E0,-3.678968668E0
3.058399844E1,3.005269051E0,-3.279567957E0,-1.614439011E0
3.060400469E1,2.174892902E0,-2.993393898E0,5.904484391E-1
3.062599844E1,8.665861487E-1,-6.420836926E0,3.608608007E0
3.064599844E1,2.519686460E0,-1.315362930E1,8.677496910E0
3.066599844E1,7.327377796E0,-2.143523979E1,1.591014099E1
3.068599844E1,6.514775753E0,-2.084547043E1,2.574652672E1
3.070599844E1,-2.288119316E0,-8.062829018E0,8.154258728E0
3.072599844E1,-5.953010082E0,-4.105749607E0,-9.144222140E-1
3.074599844E1,-1.439470649E0,-1.341633129E1,-5.609786987E0
3.076599844E1,4.378027916E0,-1.823272705E1,-1.700971985E1
3.078599844E1,7.088091850E0,-1.267235661E1,-7.481056690E0
3.080599844E1,6.669441223E0,-8.313875198E0,3.002456284E1
3.082599844E1,5.639954090E0,-7.674996376E0,4.324474335E0
3.084599844E1,-2.508261502E-1,-9.109909058E0,-1.294277668E1
3.086599844E1,-2.133128405E0,-1.277956867E1,-8.326899529E0
3.088599844E1,-2.053918600E0,-1.315884876E1,-1.520873547E0
3.090600000E1,-2.517206192E0,-9.426488876E0,1.511153102E0
3.092801250E1,-2.142015696E0,-6.271860123E0,8.434312820E0
3.095000781E1,-3.213018775E-1,-6.012979984E0,3.803017139E0
3.097199844E1,-1.001638249E-1,-6.781863689E0,-3.985866904E-2
3.099200000E1,1.681648970E0,-8.044785500E0,-4.742990017E0
3.101400000E1,1.834791660E0,-8.766054153E0,-2.456613779E0
3.103599844E1,2.609009504E0,-8.462833405E0,3.618050575E0
3.105599844E1,1.398529768E0,-8.282845497E0,5.793527126E0
3.107599844E1,-1.330965400E0,-9.201797485E0,3.110795975E0
3.109599844E1,-3.478286505E0,-1.005750465E1,6.951228976E-1
3.111600000E1,-4.639206409E0,-1.034042263E1,1.450369120E0
3.113800000E1,-4.681890011E0,-1.076865959E1,2.464131594E0
3.115802031E1,-3.497421026E0,-1.270605755E1,4.127957821E0
3.118000000E1,-2.557697058E0,-1.288345814E1,2.173485041E0
3.120199844E1,-1.334240675E0,-1.175087643E1,3.920706272E0
3.122199844E1,-1.959098577E0,-1.348789883E1,4.110786438E0
3.124200000E1,-2.008840561E0,-1.200269794E1,5.171763420E0
3.126399844E1,-5.582032800E-1,-1.275848007E1,1.701549530E0
3.128399844E1,-4.217721522E-1,-1.714356613E1,-5.385172367E0
3.130399844E1,1.837741375E0,-1.944267082E1,-5.751092911E0
3.132399844E1,4.999514580E0,-2.025209236E1,8.848873973E-1
3.134399844E1,5.537290573E0,-1.564720058E1,4.763599396E0
3.136399844E1,4.313978195E0,-1.165871906E1,3.721010685E0
3.138400000E1,2.266667366E0,-9.910951614E0,9.868899733E-2
3.140400313E1,2.301689684E-1,-8.077289581E0,-4.786009192E-1
3.142599844E1,-7.736144662E-1,-6.299594879E0,5.205856562E-1
3.144599844E1,1.072602421E-1,-5.363663197E0,2.602880299E-1
3.146599844E1,5.643325448E-1,-4.713244438E0,-7.403925061E-1
3.148599844E1,3.212060928E-1,-3.558243513E0,-1.602860570E0
3.150600000E1,3.090148270E-1,-3.082534552E0,-2.683182001E0
3.152600000E1,1.249830723E0,-2.966578722E0,-2.535814047E0
3.154799844E1,2.641388655E0,-3.168093920E0,-3.860324621E0
3.156800000E1,3.189660788E0,-2.695794344E0,-2.234661579E0
3.158999844E1,2.025896788E0,-2.156974554E0,8.608592153E-1
3.161000000E1,-3.654126227E-1,-5.409861565E0,4.090148926E0
3.163199844E1,2.684570551E-1,-1.413078880E1,1.166399479E1
3.165199844E1,5.086433411E0,-2.610867310E1,2.101608276E1
3.167199844E1,3.091996670E0,-2.238486671E1,2.584263992E1
3.169199844E1,-1.268946052E0,-8.419123650E0,3.753121853E0
3.171199844E1,-2.637739778E-1,-4.954982281E0,-1.563806415E0
3.173199844E1,1.397265792E0,-1.216667175E1,-5.768742561E0
3.175199844E1,4.453713417E0,-1.749685478E1,-1.662721252E1
3.177199844E1,7.462056160E0,-1.218866062E1,-7.290410995E0
3.179199844E1,8.026877403E0,-8.710201263E0,2.273924637E1
3.181199844E1,6.207934856E0,-7.247315407E0,3.530767679E0
3.183199844E1,-1.099340796E0,-8.800376892E0,-1.284061146E1
3.185199844E1,-2.325267792E0,-1.365133572E1,-9.869704247E0
3.187199844E1,-2.148269176E0,-1.304728794E1,-2.602449417E0
3.189199844E1,-1.991611958E0,-1.007374668E1,7.381707430E-1
3.191199844E1,-1.820273161E0,-7.134912491E0,1.623000622E0
3.193199844E1,-7.811418176E-1,-5.454010963E0,7.164150238E0
3.195200312E1,-9.167781472E-1,-6.434790611E0,2.306028128E0
3.197400000E1,-9.464566708E-1,-7.622908115E0,-2.141680479E0
3.199400000E1,-3.122996725E-2,-9.400928497E0,-1.682491660E0
3.201400000E1,1.623939127E-1,-9.700568199E0,7.883148789E-1
3.203400000E1,-1.033040524E0,-8.484149933E0,5.829565048E0
3.205400000E1,-2.289986849E0,-8.216641426E0,6.844151497E0
3.207599844E1,-2.573354959E0,-9.287013054E0,3.356967688E0
3.209599844E1,-2.290456057E0,-9.900234222E0,1.055862069E0
3.211599844E1,-1.620319128E0,-9.239330292E0,7.741411924E-1
3.213599844E1,-1.707334042E0,-9.880343437E0,1.172114968E0
3.215599844E1,-3.088625431E0,-1.179122257E1,2.342438936E0
3.217599844E1,-3.804712057E0,-1.254998398E1,1.695592761E0
3.219599844E1,-2.441137791E0,-1.265462017E1,2.017565012E0
3.221599844E1,-1.840518594E0,-1.395237350E1,5.828827858E0
3.223599844E1,-1.762936831E0,-1.426371479E1,7.162877083E0
3.225599844E1,-2.221120119E0,-1.396123123E1,2.325909376E0
3.227599844E1,-4.290888309E-1,-1.628452682E1,-3.256296396E0
3.229599844E1,2.042005062E0,-1.853271103E1,-5.189154148E0
3.231599844E1,6.176102161E0,-1.980272102E1,-8.051604629E-1
3.233599844E1,6.074683666E0,-1.639260101E1,4.354478359E0
3.235599844E1,5.204965591E0,-1.182430172E1,4.307503700E0
3.237599844E1,1.878165007E0,-8.826099396E0,2.581332326E-1
3.239600000E1,-7.636545599E-2,-8.175346375E0,-5.133551359E-1
3.241800000E1,-1.292284846E0,-6.272501945E0,2.782253921E-1
3.243999844E1,-3.055001199E-1,-5.334012985E0,1.195884585E0
3.246000000E1,-3.964798152E-2,-5.062290668E0,-7.345410995E-3
3.248200000E1,-1.406526446E0,-3.627148390E0,-1.574551463E0
3.250200000E1,-6.837648153E-1,-3.882092714E0,-2.954808950E0
3.252399844E1,1.394746900E0,-4.469227314E0,-3.872592449E0
3.254399844E1,2.967258453E0,-4.280564308E0,-5.056486607E0
3.256399844E1,3.728068829E0,-3.231243372E0,-2.875848055E0
3.258399844E1,3.449786186E0,-2.495983839E0,7.225700468E-2
3.260400000E1,8.955367804E-1,-3.945874214E0,2.561671495E0
3.262400000E1,-1.019163728E-1,-8.777297020E0,8.428154945E0
3.264599844E1,4.214513302E0,-1.713413239E1,1.546600723E1
3.266599844E1,4.645498276E0,-2.840842056E1,2.945540428E1
3.268599844E1,-1.620386124E0,-1.569713402E1,1.716356277E1
3.270599844E1,-1.804596066E0,-5.369610310E0,1.245243430E0
3.272599844E1,5.721663237E-1,-9.789306641E0,-4.128906250E0
3.274599844E1,3.677628040E0,-1.528398991E1,-1.473780537E1
3.276599844E1,6.359842300E0,-1.119257736E1,-8.937909126E0
3.278599844E1,5.876788616E0,-9.486784935E0,4.026951313E0
3.280599844E1,8.616042137E0,-8.303580284E0,1.430638981E1
3.282599844E1,3.530078173E0,-9.490462303E0,-8.339302063E0
3.284599844E1,-1.919163346E0,-1.241147423E1,-1.165738773E1
3.286599844E1,-2.544452190E0,-1.327809906E1,-5.680119038E0
3.288599844E1,-2.335180044E0,-1.087684822E1,-3.940856084E-2
3.290600000E1,-3.038012266E0,-7.692512512E0,6.942639351E0
3.292799844E1,-2.249161005E0,-5.788432598E0,7.145265102E0
3.294799844E1,-1.551088333E0,-5.806465626E0,1.459409595E0
3.296800000E1,1.066214561E0,-7.011754990E0,-1.311629891E0
3.298800156E1,1.913934469E0,-8.845090866E0,-1.904137373E0
3.300999844E1,6.510026455E-1,-9.355160713E0,1.320478916E0
3.302999844E1,-1.079957366E0,-8.831702232E0,5.343225956E0
3.304999844E1,-2.653982162E0,-7.943559170E0,4.441081524E0
3.306999844E1,-3.948364258E0,-8.604051590E0,1.591962099E0
3.308999844E1,-2.800564766E0,-9.450900078E0,2.331282049E-1
3.311000000E1,-1.497908354E0,-1.068342590E1,1.589165807E0
3.313000000E1,-9.098445177E-1,-1.165110493E1,2.751943350E0
3.315000000E1,-1.512311935E0,-1.270239830E1,1.805706859E0
3.317000000E1,-3.038653851E0,-1.258294773E1,9.334513545E-1
3.319200000E1,-3.274798632E0,-1.239818192E1,3.746877670E0
3.321399844E1,-3.082199574E0,-1.400159740E1,5.535384655E0
3.323399844E1,-3.025246382E0,-1.349933338E1,5.563626766E0
3.325399844E1,-1.197455168E0,-1.240497208E1,1.225706816E0
3.327399844E1,1.377910972E-1,-1.555329895E1,-4.059780598E0
3.329399844E1,2.092379093E0,-1.756977272E1,-6.164236546E0
3.331400000E1,7.069560528E0,-2.025810814E1,2.149313211E0
3.333599844E1,6.067835808E0,-1.619089508E1,7.130076408E0
3.335599844E1,3.383801699E0,-1.061760426E1,4.425279617E0
3.337599844E1,6.248866320E-1,-9.050571442E0,1.765963249E-2
3.339599844E1,-1.749682665E0,-8.063613892E0,-7.258453369E-1
3.341599844E1,-8.077749014E-1,-7.223852634E0,-1.054799080E0
3.343599844E1,5.374886990E-1,-6.586534977E0,2.346413434E-1
3.345599844E1,1.208918571E0,-5.449614525E0,8.402690291E-1
3.347599844E1,3.770388663E-1,-3.787397146E0,5.433305502E-1
3.349600000E1,-7.510898113E-1,-3.119443655E0,-1.593561530E0
3.351600000E1,2.019940019E-1,-3.524552345E0,-3.634091854E0
3.353600000E1,2.191288233E0,-3.752939939E0,-4.698199272E0
3.355600000E1,3.050337315E0,-3.516114950E0,-2.649308681E0
3.357600000E1,2.384107590E0,-3.116963387E0,-6.047849059E-1
3.359600000E1,7.572572827E-1,-3.728030443E0,6.237374246E-2
3.361600000E1,-6.397498846E-1,-7.981492519E0,5.795979023E0
3.363600000E1,7.115375996E-1,-1.648991013E1,1.209382153E1
3.365600000E1,4.829957008E0,-2.754993629E1,2.681573868E1
3.367600000E1,4.235323906E0,-1.522103214E1,1.341948128E1
3.369600000E1,5.134662628E0,-4.834783554E0,2.749989748E0
3.371800781E1,5.691649437E0,-7.842265129E0,-3.584924221E0
3.374000000E1,4.097475052E0,-1.727826309E1,-9.679986954E0
3.376000000E1,3.272672653E0,-1.371583557E1,-1.129444504E1
3.378000000E1,1.727473974E0,-1.114126492E1,8.635550499E0
3.380199844E1,1.369780302E0,-8.947399139E0,-1.119634032E0
3.382199844E1,6.331897378E-1,-9.202526093E0,-4.190149784E0
3.384200000E1,-8.014925718E-1,-1.121805096E1,-4.286617279E0
3.386400000E1,-3.497354090E-1,-1.247500706E1,-2.264033794E0
3.388599844E1,-1.216934443E0,-9.751219749E0,3.207080960E-1
3.390599844E1,-1.872371078E0,-6.021349907E0,7.352354050E0
3.392599844E1,-1.591579080E0,-5.793278694E0,2.996688128E0
3.394600000E1,-8.101020753E-2,-7.468520641E0,-9.985736609E-1
3.396600000E1,8.430367708E-1,-8.243840218E0,-8.882966638E-1
3.398800938E1,1.393597722E0,-9.017866135E0,-1.206457376E0
3.400999844E1,9.597876072E-1,-8.538422585E0,-1.998009235E-1
3.403000000E1,4.648773372E-1,-8.795186996E0,2.428381443E0
3.405199844E1,-3.975906968E-1,-9.213568687E0,4.604691505E0
3.407199844E1,-1.966874957E0,-9.419766426E0,4.027851582E0
3.409199844E1,-3.813225746E0,-9.790283203E0,3.015506506E0
3.411199844E1,-5.527081490E0,-1.049716663E1,1.522118568E0
3.413199844E1,-6.398647308E0,-1.144388199E1,8.896661997E-1
3.415199844E1,-4.529331684E0,-1.156838989E1,3.012154818E0
3.417199844E1,-8.179263473E-1,-1.140291214E1,4.245944500E0
3.419199844E1,7.648324966E-1,-1.195966053E1,3.229912043E0
3.421199844E1,-6.189490557E-1,-1.544388390E1,1.240005016E0
3.423199844E1,-1.603483081E0,-1.342222977E1,4.063333511E0
3.425199844E1,-1.689348817E-1,-1.277801800E1,3.522943258E0
3.427199844E1,1.116033196E0,-1.474674034E1,-1.816164851E0
3.429200000E1,3.896946192E0,-1.756603622E1,-4.347324371E0
3.431400000E1,6.183025837E0,-1.854750824E1,-1.120869517E0
3.433599844E1,4.721604824E0,-1.524188042E1,3.097847939E0
3.435599844E1,2.130686283E0,-1.270227432E1,3.376523495E0
3.437599844E1,2.216073126E-2,-1.079671001E1,1.227660418E0
3.439600000E1,-1.887358785E0,-9.500920296E0,1.557093114E-1
3.441800156E1,-1.722570658E0,-8.100522995E0,2.413738370E-1
3.443999844E1,-3.598772585E-1,-6.179540157E0,4.648773372E-1
3.446000000E1,-6.661626697E-1,-4.503168106E0,-3.878606716E-3
3.448200000E1,-5.797607303E-1,-3.355301380E0,-1.196823120E0
3.450399844E1,7.503141165E-1,-2.928597212E0,-3.010258436E0
3.452400000E1,2.009089708E0,-2.509697914E0,-3.749769926E0
3.454599844E1,2.989946127E0,-1.933164716E0,-4.049150467E0
3.456599844E1,3.077899456E0,-1.830233097E0,-1.234852672E0
3.458600000E1,1.349946618E0,-2.142781734E0,1.640880466E0
3.460799844E1,-8.280202746E-1,-5.306269169E0,4.773884773E0
3.462799844E1,2.193232536E0,-1.262905025E1,9.683703423E0
3.464800000E1,6.915517807E0,-2.339969063E1,1.749014091E1
3.467000000E1,5.485920429E0,-2.305604744E1,2.608440590E1
3.469000000E1,4.930906296E-1,-8.481163025E0,4.597202778E0
3.471200000E1,6.691985726E-1,-7.022701263E0,-1.713578105E-1
3.473399844E1,2.211179495E0,-1.551495457E1,-6.208117008E0
3.475399844E1,1.824372053E0,-1.511434650E1,-1.312672710E1
3.477399844E1,4.860439777E0,-7.542243004E0,-1.823701739E0
3.479400000E1,2.850249290E0,-5.769518375E0,6.253693581E0
3.481599844E1,4.580586910E0,-8.178343773E0,6.994842052E0
3.483599844E1,-2.057078838E0,-1.224159145E1,-1.019705868E1
3.485599844E1,-2.444757462E0,-1.522084999E1,-7.493133068E0
3.487599844E1,-1.162911654E0,-1.215555382E1,-1.914231300E0
3.489600000E1,-1.678546071E0,-8.299012184E0,1.214319944E0
3.491800469E1,-8.027279377E-1,-5.595009804E0,9.499636650E0
3.493999844E1,-3.214551210E-1,-6.609538555E0,2.198987961E0
3.496000000E1,3.151152730E-1,-7.478059292E0,-1.758474112E0
3.498200000E1,1.753312230E0,-8.692637444E0,-4.138588428E0
3.500399844E1,1.155365109E0,-8.817605019E0,-1.684368730E0
3.502399844E1,9.195075035E-1,-7.867786884E0,2.360318899E0
3.504399844E1,-5.084326491E-2,-7.891327381E0,6.290602207E0
3.506400000E1,-1.348404765E0,-8.643566132E0,3.379454136E0
3.508400000E1,-2.466573715E0,-9.653325081E0,8.160684109E-1
3.510400000E1,-2.509171486E0,-1.052053452E1,1.228129715E-1
3.512400000E1,-3.106754303E0,-1.101571274E1,2.245569468E0
3.514599844E1,-2.858513832E0,-1.197475338E1,3.734217167E0
3.516599844E1,-2.467770815E0,-1.187751007E1,2.513088226E0
3.518599844E1,-2.217222452E0,-1.160092258E1,5.973341465E-1
3.520599844E1,-2.246690273E0,-1.285927677E1,3.400149345E0
3.522599844E1,-2.931594610E0,-1.427779293E1,4.927267075E0
3.524599844E1,-2.864691257E0,-1.314180183E1,5.781891823E0
3.526599844E1,-1.030502677E0,-1.373753738E1,1.273906827E0
3.528599844E1,7.351444364E-1,-1.661719704E1,-2.932446957E0
3.530600000E1,2.517646790E0,-1.789975929E1,-5.087419987E0
3.532800000E1,5.729410648E0,-1.797141457E1,3.003191054E-1
3.534999844E1,4.761090279E0,-1.354628849E1,4.766376972E0
3.536999844E1,3.255146980E0,-1.031008434E1,2.876058817E0
3.539000000E1,1.644605875E0,-9.634593010E0,-2.335783243E-1
3.541199844E1,-5.319054723E-1,-8.476785660E0,-1.227200747E0
3.543199844E1,-3.046860993E-1,-7.418462753E0,1.939303428E-2
3.545200156E1,1.339220703E-1,-6.645681858E0,1.073176980E0
3.547399844E1,1.175744534E-1,-5.138914585E0,-3.724420071E-2
3.549399844E1,-3.218956292E-1,-4.172595501E0,-1.017353773E0
3.551400000E1,1.860198975E-1,-4.377520084E0,-1.937378407E0
3.553600000E1,1.494029760E0,-4.486178875E0,-3.533353329E0
3.555800469E1,2.793497086E0,-3.684206963E0,-4.038616180E0
3.557999844E1,3.366036892E0,-2.202129126E0,-1.670367479E0
3.560000000E1,1.817256570E0,-1.229345918E0,8.331630230E-1
3.562199844E1,-6.772238612E-1,-4.467178345E0,4.054159164E0
3.564199844E1,5.016714334E-1,-1.138097191E1,9.228585243E0
3.566199844E1,4.783298969E0,-2.224103355E1,1.901037216E1
3.568199844E1,4.850413322E0,-2.590361595E1,2.892560577E1
3.570199844E1,-2.143519402E0,-1.053910351E1,7.223450184E0
3.572200000E1,-1.978146791E0,-5.106075764E0,3.249219060E-1
3.574200000E1,-1.857038587E-1,-1.044720364E1,-6.120029926E0
3.576399844E1,3.469571829E0,-1.582894802E1,-1.508511829E1
3.578399844E1,6.556895256E0,-9.736605644E0,-7.033676147E0
3.580400625E1,8.059763908E0,-9.062849045E0,2.705967903E1
3.582599844E1,7.679162502E0,-8.166478157E0,4.024825573E0
3.584599844E1,-9.576806915E-4,-8.452576637E0,-1.257283401E1
3.586599844E1,-2.472233534E0,-1.389786243E1,-9.433576584E0
3.588599844E1,-2.420001745E0,-1.362174320E1,-2.521908522E0
3.590599844E1,-2.336558819E0,-1.077031612E1,1.405817747E0
3.592599844E1,-2.927351952E0,-7.320127964E0,8.536305428E0
3.594604219E1,-1.312348127E0,-7.220002651E0,7.158164978E0
3.596800000E1,-1.178847432E0,-7.681757927E0,9.953175187E-1
3.598800469E1,4.608359337E-1,-7.565878391E0,-1.468354344E0
3.601000000E1,2.144227743E0,-7.586851597E0,-2.691446543E0
3.603000000E1,2.055364847E0,-8.002120972E0,-1.762381434E0
3.605001562E1,1.996036410E0,-8.461558342E0,1.857038617E0
3.607200000E1,4.577043056E-1,-8.239884377E0,5.277625084E0
3.609400000E1,-2.128742218E0,-8.287126541E0,3.626401663E0
3.611600000E1,-3.370174170E0,-1.011788654E1,1.278427124E0
3.613600000E1,-3.572149038E0,-1.095749474E1,1.422261119E0
3.615600000E1,-3.178063154E0,-1.103030777E1,2.725511312E0
3.617600000E1,-1.742270112E0,-1.253423882E1,3.837809563E0
3.619600000E1,-1.676266789E0,-1.221818542E1,2.879142523E0
3.621800000E1,-1.950785995E0,-1.279937363E1,2.008151054E0
3.623800469E1,-3.386387587E0,-1.427894211E1,2.103497744E0
3.625999844E1,-3.712363005E0,-1.306675816E1,5.251939774E0
3.627999844E1,-1.149437189E0,-1.299797726E1,2.282564878E0
3.629999844E1,5.151268244E-1,-1.554597282E1,-1.890346646E0
3.632000000E1,3.035962582E0,-1.724313736E1,-3.933826685E0
3.634000000E1,5.672859669E0,-1.838903999E1,-1.269932508E0
3.636199844E1,5.000108242E0,-1.517811775E1,2.255730629E0
3.638199844E1,2.581945419E0,-1.076566219E1,3.871165514E0
3.640199844E1,9.833369851E-1,-9.746661186E0,8.928265572E-1
3.642199844E1,-1.470423043E-1,-8.852407455E0,-1.590027690E0
3.644199844E1,-1.518575072E0,-7.786182880E0,-1.714066386E0
3.646199844E1,-5.319149494E-1,-7.497461796E0,2.211476266E-1
3.648200000E1,8.711829782E-1,-6.446282864E0,1.091325045E0
3.650399844E1,7.004476190E-1,-5.175536156E0,2.689071596E-1
3.652400000E1,3.327940404E-1,-4.197792053E0,-9.411702752E-1
3.654600000E1,1.318496466E0,-4.110499382E0,-2.920916557E0
3.656600000E1,2.530307293E0,-3.569572687E0,-4.086356640E0
3.658600000E1,3.607151985E0,-3.168170452E0,-2.383064032E0
3.660800000E1,3.384041309E0,-2.536848068E0,6.102820635E-1
3.662801094E1,5.339739919E-1,-3.497038126E0,2.548158407E0
3.665000000E1,-6.253655069E-3,-8.725677490E0,5.528374672E0
3.667199844E1,1.681428671E0,-1.483064270E1,1.179084969E1
3.669200000E1,2.207444429E0,-2.522876549E1,3.197993469E1
3.671200000E1,-3.764307499E0,-1.471611404E1,1.186293411E1
3.673400000E1,-2.009166241E0,-6.784870625E0,1.457264423E0
3.675600000E1,2.286012411E0,-1.365721607E1,-4.724784851E0
3.677600000E1,5.633259773E0,-1.716179085E1,-1.455304050E1
3.679600000E1,7.112972260E0,-1.068524551E1,-8.008825302E0
3.681800000E1,6.456606388E0,-5.632464886E0,1.505524826E1
3.683800000E1,9.328307152E0,-7.435020924E0,8.212964058E0
3.686000000E1,2.800200939E0,-1.059223557E1,-1.302982044E1
3.688000000E1,-2.664746523E0,-1.423845100E1,-1.120850277E1
3.690199844E1,-2.160527706E0,-1.341493225E1,-1.986086011E0
3.692199844E1,-1.248489976E0,-1.040591908E1,9.472419620E-1
3.694199844E1,-2.489136457E0,-6.061007977E0,7.749121189E0
3.696199844E1,-2.090339184E0,-5.710401058E0,4.764212608E0
3.698200000E1,-1.157232523E0,-7.268882275E0,1.011128902E0
3.700399844E1,9.615880251E-1,-8.704580307E0,-2.451404095E0
3.702399844E1,1.007872701E0,-8.924041748E0,-2.858475924E0
3.704399844E1,2.881469727E-1,-8.092516899E0,2.191939503E-1
3.706399844E1,-7.393677831E-1,-7.472514153E0,4.186529636E0
3.708399844E1,-1.422893167E0,-7.897255421E0,4.808821201E0
3.710399844E1,-2.935176373E0,-8.983331680E0,3.095769882E0
3.712399844E1,-3.870839834E0,-1.059991646E1,1.000958204E0
3.714399844E1,-3.831785679E0,-1.083839703E1,8.744773269E-1
3.716399844E1,-3.216523647E0,-1.176416874E1,3.277930260E0
3.718399844E1,-1.782167077E0,-1.270310783E1,3.969500303E0
3.720399844E1,-1.294276714E0,-1.236261368E1,1.865025640E0
3.722400000E1,-1.044657230E0,-1.210669231E1,1.482460976E0
3.724599844E1,-1.610512495E0,-1.416104221E1,3.479636908E0
3.726599844E1,-2.241729259E0,-1.318930244E1,5.745097637E0
3.728599844E1,-9.846585989E-1,-1.216772556E1,4.614498138E0
3.730599844E1,4.374685138E-2,-1.397209167E1,-2.216321945E0
3.732599844E1,1.711662769E0,-1.713229561E1,-4.171915531E0
3.734599844E1,4.380546570E0,-1.782967758E1,-3.205376387E0
3.736599844E1,6.305244923E0,-1.781874084E1,1.743160725E0
3.738599844E1,4.763752937E0,-1.284464359E1,3.996420622E0
3.740599844E1,2.529895544E0,-1.012695599E1,2.350129128E0
3.742599844E1,1.268630028E0,-9.428615570E0,1.767495424E-1
3.744599844E1,-7.355179191E-1,-7.794716358E0,-2.840289176E-1
3.746600000E1,-1.360509872E0,-6.362514019E0,3.232555091E-1
3.748600000E1,-6.329311728E-1,-5.209591389E0,6.319543719E-1
3.750800000E1,-6.969808340E-1,-4.627378941E0,-4.278630018E-1
3.753000000E1,-8.722555637E-1,-3.847635269E0,-9.060713053E-1
3.755199844E1,4.083742201E-1,-3.878712177E0,-2.872352600E0
3.757199844E1,1.854175210E0,-3.676564932E0,-3.949609041E0
3.759199844E1,2.867765188E0,-2.958246708E0,-3.379683733E0
3.761199844E1,3.158995867E0,-2.329577446E0,-1.052749634E0
3.763199844E1,2.181874275E0,-2.276771069E0,1.419110298E0
3.765199844E1,1.074469805E0,-6.351510525E0,4.489128590E0
3.767199844E1,2.924689770E0,-1.375003433E1,9.628157616E0
3.769200000E1,6.220336914E0,-2.393469048E1,1.863249207E1
3.771200000E1,3.368009806E0,-2.131947517E1,2.528310585E1
3.773400000E1,-4.482424259E-1,-7.581957817E0,2.642355919E0
3.775599844E1,1.456498265E0,-8.642129898E0,-6.522667408E-1
3.777599844E1,2.446481466E0,-1.581913185E1,-6.294605255E0
3.779599844E1,3.844877243E0,-1.594100666E1,-1.532615662E1
3.781599844E1,5.855652332E0,-1.013554668E1,-2.088471651E0
3.783599844E1,3.859060526E0,-6.559566975E0,9.309805870E0
3.785599844E1,2.694070578E0,-7.773226261E0,-1.185714006E0
3.787600781E1,-5.923063159E-1,-1.082152367E1,-9.678349495E0
3.789800000E1,-5.895099640E-1,-1.330878353E1,-5.272655010E0
3.791999844E1,-7.373757958E-1,-1.074566555E1,-1.003572702E0
3.794000000E1,-1.553434730E0,-7.316316605E0,9.515706897E-1
3.796000000E1,5.804502591E-2,-5.600306034E0,6.819835663E0
3.798200000E1,1.210929751E0,-6.713696003E0,1.626093864E0
3.800400000E1,8.837189674E-1,-8.164812088E0,-1.443100333E0
3.802599844E1,4.041699767E-1,-9.249921799E0,-2.057960033E0
3.804599844E1,-7.242460251E-1,-9.514164925E0,7.033590078E-1
3.806599844E1,-9.675160646E-1,-9.300736427E0,4.016024590E0
3.808599844E1,-2.105345964E0,-8.622592926E0,6.237134933E0
3.810599844E1,-2.715484381E0,-8.599273682E0,3.619008303E0
3.812600000E1,-2.360979795E0,-9.651706696E0,3.035081625E-1
3.814800000E1,-1.070150733E0,-1.005738068E1,1.502974510E0
3.816800000E1,-1.261275053E0,-1.124485683E1,4.368680477E0
3.818800469E1,-1.854864597E0,-1.226976681E1,3.220737457E0
3.821000000E1,-2.981010914E0,-1.220053577E1,5.479274392E-1
3.823000000E1,-3.065823317E0,-1.180026340E1,3.783892095E-1
3.825000000E1,-2.687424421E0,-1.290518761E1,4.930264473E0
3.827000000E1,-1.524752140E0,-1.344345188E1,6.021407604E0
3.829199844E1,-1.329251170E0,-1.231329250E1,5.148970127E0
3.831199844E1,-5.921148062E-1,-1.430500126E1,-1.743323565E0
3.833199844E1,8.890916109E-1,-1.760655594E1,-4.721604824E0
3.835200000E1,3.946305275E0,-1.939670181E1,-3.040540218E0
3.837200312E1,5.297103882E0,-1.855245972E1,2.595190287E0
3.839399844E1,3.933376551E0,-1.308526993E1,4.711319923E0
3.841399844E1,2.699414492E0,-9.452920914E0,1.519992471E0
3.843399844E1,1.572971344E0,-8.312323570E0,2.290389091E-1
3.845399844E1,-2.258498371E-1,-6.929173946E0,2.528277040E-1
3.847399844E1,-3.128263950E-1,-5.802903175E0,3.372759819E-1
3.849399844E1,3.257263601E-1,-5.330134869E0,1.041669324E-1
3.851400000E1,-4.053479433E-1,-4.872430325E0,-2.923703194E-1
3.853599844E1,-7.422408462E-1,-4.242228508E0,-1.528218985E0
3.855600000E1,5.913007855E-1,-4.180046558E0,-1.739703655E0
3.857800000E1,2.335333109E0,-3.906982899E0,-3.473402500E0
3.859800469E1,3.127851963E0,-3.154839516E0,-4.345322609E0
3.861999844E1,3.345992565E0,-2.609383106E0,-1.124652386E0
3.863999844E1,2.056485176E0,-2.684512854E0,1.936123848E0
3.865999844E1,1.042684436E0,-6.856744766E0,4.137534618E0
3.868000000E1,2.047435045E0,-1.421407795E1,9.875354767E0
3.870000000E1,6.133465767E0,-2.390687943E1,1.916670418E1
3.872199844E1,2.914097786E0,-2.080459785E1,2.563367462E1
3.874199844E1,-7.690750957E-1,-8.552845001E0,3.616441727E0
3.876199844E1,5.942695737E-1,-6.746113300E0,-2.199476480E0
3.878200000E1,2.537537813E0,-1.313353729E1,-5.708015919E0
3.880200000E1,4.392373562E0,-1.458976746E1,-1.414772034E1
3.882200000E1,6.486266136E0,-9.835476875E0,-3.807374477E0
3.884200000E1,3.009137869E0,-8.571002960E0,9.561771393E0
3.886200000E1,2.535737276E0,-8.103157043E0,2.943910360E0
3.888200000E1,-2.971616268E0,-9.918373108E0,-9.476020813E0
3.890200000E1,-2.403711319E0,-1.359051323E1,-7.499913692E0
3.892200000E1,-1.105680704E0,-1.198557472E1,-2.106648445E0
3.894400000E1,-1.289009571E0,-8.598048210E0,3.785807490E-1
3.896400000E1,-4.725866616E-1,-5.625176907E0,1.150706959E1
3.898599844E1,-5.647347569E-1,-5.933607578E0,3.296576500E0
3.900599844E1,4.006936029E-2,-7.344836235E0,-2.671833336E-1
3.902599844E1,8.279532194E-1,-9.153282166E0,-1.643973708E0
3.904600000E1,9.418790042E-2,-9.840437889E0,-8.564538360E-1
3.906800000E1,-6.012223363E-1,-8.936683655E0,1.699471474E0
3.908800000E1,-9.247556329E-1,-7.795223713E0,4.839898109E0
3.911000000E1,-1.573134184E0,-8.223507881E0,4.295571327E0
3.913000000E1,-2.486723185E0,-9.715392113E0,1.835136533E0
3.915000000E1,-1.544106841E0,-1.021790695E1,1.602439165E0
3.917000000E1,-6.550536156E-1,-1.069373035E1,2.565138102E0
3.919000000E1,-1.039638996E0,-1.163033295E1,3.053191423E0
3.921200000E1,-2.268745661E0,-1.215669346E1,1.767217755E0
3.923399844E1,-2.786381483E0,-1.206409454E1,2.284566402E0
3.925400000E1,-3.485229731E0,-1.369713211E1,4.393159389E0
3.927599844E1,-3.394250154E0,-1.292041492E1,6.480385780E0
3.929599844E1,-1.208296180E0,-1.326783276E1,2.712170839E0
3.931599844E1,4.578001201E-1,-1.696396255E1,-4.206344128E0
3.933599844E1,1.097377539E0,-1.870327377E1,-5.581410408E0
3.935599844E1,6.549674034E0,-2.029964066E1,-1.534319282E0
3.937599844E1,6.944190502E0,-1.683791161E1,4.349679947E0
3.939600000E1,5.090235710E0,-1.145852470E1,4.540728092E0
3.941600000E1,2.668797255E0,-9.408858299E0,1.036440253E0
3.943800781E1,2.706405520E-1,-9.206740379E0,1.116847247E-1
3.946000156E1,-1.122641206E0,-7.651629448E0,5.006563067E-1
3.948200156E1,-4.473518133E-1,-6.723493099E0,-2.995337844E-1
3.950400000E1,4.279683530E-1,-4.507994652E0,-8.066065907E-1
3.952400000E1,-4.292803705E-1,-2.606241703E0,-1.786265969E0
3.954600000E1,-2.168188989E-2,-1.492449641E0,-1.622943163E0
3.956600000E1,1.717686534E0,-2.382173300E0,-3.755075455E0
3.958800000E1,2.417990446E0,-2.537528038E0,-4.224607468E0
3.961000000E1,2.740163803E0,-2.263545513E0,-1.745325208E0
3.963000000E1,1.764785290E0,-2.198921204E0,8.174570799E-1
3.965000000E1,-2.915467322E-1,-6.401597023E0,3.747682095E0
3.967000000E1,1.473880172E0,-1.513588524E1,1.022617149E1
3.969000000E1,8.144863129E0,-2.785458374E1,2.207014465E1
3.971200000E1,4.193032742E0,-2.070936584E1,2.555234718E1
3.973400000E1,-4.878712893E-1,-5.459000111E0,1.167221218E-1
3.975599844E1,-2.767792940E-1,-6.618406773E0,-1.037283063E0
3.977599844E1,2.021721363E0,-1.548544693E1,-6.872824192E0
3.979599844E1,3.198442936E0,-1.421343613E1,-1.508300114E1
3.981599844E1,5.697357655E0,-7.652338028E0,-3.125161171E0
3.983599844E1,4.040330410E0,-5.785722733E0,8.026532173E0
3.985599844E1,5.515646935E0,-7.918850899E0,6.323105812E0
3.987599844E1,-6.034250259E-1,-1.251432037E1,-1.106401730E1
3.989600000E1,-3.340725422E0,-1.426818752E1,-9.411492348E0
3.991801406E1,-2.492584229E0,-1.146692371E1,-1.345062494E0
3.993804219E1,-2.922036886E0,-8.264620781E0,5.024615288E0
3.996000000E1,-2.232171535E0,-6.065624237E0,9.758067131E0
3.998200000E1,-1.128291488E0,-7.320013046E0,2.845384359E0
4.000400469E1,1.144744515E0,-7.489646912E0,-1.256812215E0
4.002599844E1,1.205394387E0,-8.670352936E0,-3.120430231E0
4.004600000E1,8.993387222E-1,-8.705010414E0,-8.926062584E-1
4.006800000E1,3.214263618E-1,-7.528241634E0,3.862192154E0
4.008800000E1,-1.291135550E0,-7.690395832E0,6.618473530E0
4.010999844E1,-3.000087976E0,-9.408428192E0,1.699931026E0
4.012999844E1,-3.274252653E0,-1.104958630E1,-5.486840010E-1
4.014999844E1,-1.809413075E0,-1.051842690E1,1.699978948E0
4.017000000E1,-1.319118857E0,-1.092001152E1,3.390898228E0
4.019000000E1,-5.333132148E-1,-1.246942425E1,3.272050142E0
4.021200000E1,-1.376139283E0,-1.227095413E1,1.674389720E0
4.023200000E1,-2.609890699E0,-1.136509418E1,2.695401907E0
4.025399844E1,-3.808791637E0,-1.243498516E1,3.869355440E0
4.027399844E1,-3.378093958E0,-1.151345730E1,5.920027733E0
4.029399844E1,-1.015103221E0,-1.310724926E1,3.087610245E0
4.031400000E1,1.262797713E0,-1.814329910E1,-3.711510658E0
4.033599844E1,3.512906790E0,-1.931768417E1,-4.969625473E0
4.035599844E1,7.271008968E0,-2.039568710E1,7.563378811E-1
4.037600000E1,5.355598927E0,-1.546749115E1,5.938750267E0
4.039600000E1,3.042235613E0,-1.200293732E1,3.923770905E0
4.041600000E1,1.091286778E0,-1.128964710E1,-6.067864895E-1
4.043800000E1,5.207962990E-1,-9.209709167E0,-1.629072309E0
4.046000000E1,1.862210035E-1,-6.893596172E0,1.918042898E-1
4.048200000E1,9.391878843E-1,-5.108871937E0,6.723971367E-1
4.050399844E1,4.630002975E-1,-3.589262724E0,-4.453406632E-1
4.052399844E1,-6.783443689E-1,-2.421399832E0,-1.294123530E0
4.054399844E1,-4.216668010E-2,-2.392027855E0,-2.549786568E0
4.056400000E1,1.141105175E0,-2.753638506E0,-3.895768404E0
4.058600000E1,1.903850079E0,-2.508290291E0,-4.337948799E0
4.060799844E1,2.160240173E0,-1.781831861E0,-1.748207808E0
4.062799844E1,4.507324100E-1,-1.651060700E0,9.757999778E-1
4.064800000E1,-1.481215954E0,-5.738068581E0,5.325528145E0
4.067000000E1,2.815495014E0,-1.476087570E1,1.506906700E1
4.069000000E1,9.277138710E0,-2.772410011E1,2.301317215E1
4.071200000E1,4.327883244E0,-1.894455338E1,2.010742569E1
4.073399844E1,1.596453600E-2,-4.182182312E0,-1.555493593E0
4.075399844E1,2.090080500E0,-6.536668301E0,8.641918898E-1
4.077400000E1,3.808973789E0,-1.715124702E1,-7.113431454E0
4.079400000E1,3.649251699E0,-1.768289375E1,-1.572302914E1
4.081400000E1,4.737646580E0,-1.171802711E1,8.773226738E0
4.083600000E1,5.847377777E0,-6.979940891E0,3.463155270E0
4.085800000E1,2.844532013E0,-7.382587910E0,-4.983473301E0
4.087800625E1,-3.320661783E-1,-1.088459682E1,-8.606991768E0
4.089800625E1,-4.397861362E-1,-1.309576702E1,-5.833644867E0
4.091999844E1,-1.202693701E0,-1.142369461E1,-8.900588155E-1
4.093999844E1,-2.459726334E0,-8.281007767E0,4.937255859E0
4.096000000E1,-2.142264605E0,-6.377339363E0,7.139126301E0
4.098200000E1,-1.384490252E0,-6.527062893E0,9.927318096E-1
4.100200000E1,1.422155835E-2,-7.278881073E0,-1.609181285E0
4.102399844E1,1.007575870E0,-8.935342789E0,-2.289814472E0
4.104399844E1,4.890683591E-1,-8.749131203E0,-6.968563199E-1
4.106399844E1,-7.034164667E-2,-8.943415642E0,3.804712057E0
4.108399844E1,-1.241556406E0,-8.910836220E0,6.850117683E0
4.110399844E1,-2.550399303E0,-8.661225319E0,4.176244259E0
4.112399844E1,-3.308882475E0,-9.463675499E0,1.138586521E0
4.114399844E1,-3.219559669E0,-9.899631500E0,1.281376719E0
4.116399844E1,-3.273323774E0,-1.078736305E1,1.996448278E0
4.118399844E1,-2.411363363E0,-1.173317814E1,2.736314058E0
4.120399844E1,-1.435544133E0,-1.258805180E1,1.367405176E0
4.122399844E1,-1.496414423E0,-1.239168835E1,7.182988524E-1
4.124400000E1,-7.453916073E-1,-1.196893978E1,3.700162172E0
4.126599844E1,-1.682539582E0,-1.411967087E1,4.187391758E0
4.128599844E1,-2.908255816E0,-1.183590794E1,5.662947655E0
4.130599844E1,-1.464274645E0,-1.134268379E1,4.099620342E0
4.132599844E1,2.963542640E-1,-1.544979286E1,-2.275487661E0
4.134599844E1,1.817208648E0,-1.795981598E1,-6.201910973E0
4.136599844E1,5.374599457E0,-1.959532356E1,-2.367769718E0
4.138599844E1,4.840931892E0,-1.782852745E1,4.549605846E0
4.140599844E1,2.546923161E0,-1.334702301E1,5.138109684E0
4.142599844E1,1.857488751E0,-1.142911434E1,2.123178095E-1
4.144600000E1,1.844454765E0,-1.002936840E1,-1.677483082E0
4.146600000E1,1.283100605E0,-7.926780224E0,-9.332693815E-1
4.148600000E1,9.622775316E-1,-6.065355301E0,1.013475180E0
4.150600000E1,1.102558613E0,-4.814806461E0,5.877286196E-1
4.152600000E1,2.222776860E-1,-3.894580841E0,-4.104332030E-1
4.154800000E1,-3.911742568E-1,-3.270948648E0,-1.824630737E0
4.156800000E1,2.206783593E-1,-3.499566317E0,-3.526065350E0
4.158800000E1,1.282880306E0,-2.633755922E0,-5.103422642E0
4.160800312E1,2.417339325E0,-1.748341799E0,-3.112443209E0
4.163000000E1,2.561115980E0,-7.906994820E-1,-1.159550190E0
4.165000000E1,-7.660488039E-2,-1.873549104E0,2.497123480E0
4.167000000E1,-3.653743267E-1,-8.215157509E0,6.830982685E0
4.169000000E1,3.573422670E0,-1.723361778E1,1.444237995E1
4.171000000E1,1.104634857E1,-2.800604057E1,2.753616333E1
4.173000000E1,5.603456497E0,-1.626542091E1,1.775240326E1
4.175199844E1,5.113918781E-1,-2.430516958E0,-2.644472361E0
4.177200000E1,3.577358723E0,-8.619528770E0,-5.835234165E0
4.179399844E1,5.213278294E0,-1.855668259E1,-1.340454197E1
4.181400000E1,3.410875559E0,-1.433405685E1,-3.374167681E0
4.183599844E1,2.099762678E0,-1.030386829E1,3.630730152E0
4.185599844E1,1.158870220E0,-7.249633312E0,-1.667025089E0
4.187599844E1,-3.609115183E-1,-7.776654243E0,-5.923800945E0
4.189600000E1,-1.302733064E0,-1.058627892E1,-4.804894447E0
4.191800469E1,-6.384665370E-1,-1.227566624E1,-1.967535734E0
4.193999844E1,-1.227535844E0,-1.103957844E1,3.747452497E0
4.196000000E1,-2.055700064E0,-7.857693195E0,7.958671570E0
