"Time (s)","Gyroscope x (rad/s)","Gyroscope y (rad/s)","Gyroscope z (rad/s)"
1.488510000E-1,7.131589651E-1,-8.481951356E-1,-8.479856849E-1
1.688588130E-1,3.353999257E-1,-3.687008023E-1,-9.273632169E-1
1.908510000E-1,-1.230108067E-1,2.077465355E-1,-8.359429240E-1
2.108541250E-1,-3.344574571E-1,1.188045621E0,-7.591658831E-1
2.328510000E-1,-8.606218547E-2,2.210913181E0,-4.669802785E-1
2.528525630E-1,2.614154220E-1,2.022836655E-1,-1.326973885E-1
2.748494380E-1,6.713234186E-1,-8.355240226E-1,-1.987580955E-1
2.948510000E-1,1.201379895E0,2.623404264E-1,-5.261469483E-1
3.148510000E-1,1.279099464E0,7.648032904E-2,-5.862910151E-1
3.348541250E-1,1.074180365E0,4.890412465E-2,-3.445803523E-1
3.568510000E-1,1.036725521E0,1.320952415E0,1.403244678E-2
3.768525630E-1,1.110744953E0,3.785793781E-1,2.565808594E-1
3.988541250E-1,6.526309848E-1,1.937664598E-1,1.364672929E-1
4.208494380E-1,2.542944849E-1,3.437949419E-1,1.031664088E-1
4.408510000E-1,-6.937684119E-2,3.255737126E-1,-1.464156657E-1
4.628494380E-1,-3.173532188E-1,-8.581783772E-1,-5.842489600E-1
4.828510000E-1,-1.898743659E-1,-1.319818050E-1,-9.500524998E-1
5.048494380E-1,-2.640683204E-2,1.921206117E0,-8.025721908E-1
5.248525630E-1,-7.476990670E-2,3.081186771E0,-6.748664379E-1
5.468494380E-1,-2.710496187E-1,2.937127352E0,-4.606622159E-1
5.668494380E-1,-2.394068092E-1,2.070920467E0,1.372526884E-1
5.868494380E-1,2.530727349E-2,1.777687669E0,8.419119120E-1
6.068494380E-1,2.317448109E-1,1.133643746E0,1.348877668E0
6.268494380E-1,-2.286381274E-2,1.730633616E0,1.607360959E0
6.468494380E-1,-2.557430863E-1,1.664293647E0,1.701765776E0
6.668494380E-1,-3.676361442E-1,1.282380700E0,1.585474491E0
6.868510000E-1,-1.162651062E0,-1.063481450E0,8.808676600E-1
7.088510000E-1,-1.480388284E0,-9.902125597E-1,4.026125371E-1
7.308510000E-1,-1.617501378E0,-5.945638418E-1,7.933743000E-1
7.508588130E-1,-1.149822950E0,-3.787539005E-1,1.292870045E0
7.728494380E-1,-9.968622327E-1,-1.041490316E0,1.510338068E0
7.928494380E-1,-7.214841843E-1,-9.695827365E-1,1.194782615E0
8.128510000E-1,-4.279721975E-1,-2.567728460E-1,8.891230822E-1
8.328510000E-1,-5.557128191E-1,-2.625149786E-1,6.332578063E-1
8.528510000E-1,-8.198160529E-1,-2.544864714E-1,9.001710415E-1
8.728510000E-1,-6.403089166E-1,-7.328637242E-1,1.167346001E0
8.928510000E-1,-6.481803656E-1,-8.272511363E-1,1.646351576E0
9.128510000E-1,-1.644309640E0,-7.670198679E-1,1.359943151E0
9.328510000E-1,-2.919464588E0,-9.371370673E-1,1.130414844E0
9.528510000E-1,-2.701769590E0,-4.029965103E-1,1.494001865E0
9.748494380E-1,-1.850607514E0,5.640380383E-1,1.069869399E0
9.948494380E-1,-1.926442027E0,9.738413692E-1,-4.455127418E-1
1.014851000E0,-1.570482135E0,1.770235062E0,-9.257575274E-1
1.034851000E0,-1.280390978E0,2.532437801E0,-8.352447748E-1
1.056851000E0,-4.572064579E-1,2.585775137E0,-5.995031595E-1
1.076852563E0,1.386315078E-1,2.280970812E0,-6.436425447E-1
1.098851000E0,5.520302057E-1,1.783394933E0,-3.080855310E-1
1.118851000E0,5.248204991E-2,1.468589783E0,9.334021062E-2
1.140849438E0,-9.800372720E-1,9.510124326E-1,1.004262418E-1
1.160851000E0,-1.474331975E0,7.871260643E-1,-1.044579521E-1
1.180851000E0,-1.669616818E0,8.492771983E-1,-1.081056967E-1
1.200851000E0,-1.987842798E0,1.051037312E0,-7.231073380E-1
1.220851000E0,-2.106036425E0,1.848809838E0,-2.081846237E0
1.240851000E0,-1.860276580E0,1.988680482E0,-3.469836712E0
1.262851000E0,-1.260965466E0,2.578793764E0,-2.890474558E0
1.282851000E0,-1.203997970E0,2.891033173E0,-2.143508673E0
1.302851000E0,-1.179807663E0,1.908465147E0,-1.139455676E0
1.322851000E0,-9.731781483E-1,1.556624293E0,-3.197443113E-2
1.344849438E0,-1.586015582E0,1.577777624E0,6.219480634E-1
1.364851000E0,-1.920071602E0,1.491680503E0,3.654893935E-1
1.386849438E0,-1.636734843E0,1.122141957E0,5.108404160E-1
1.406849438E0,-2.125950575E0,1.084774494E0,1.198831797E0
1.426849438E0,-3.226782084E0,1.274107814E0,1.936442852E0
1.446849438E0,-3.941110611E0,1.346800804E0,1.965537429E0
1.466849438E0,-3.559215069E0,1.522293568E0,1.858112454E0
1.486849438E0,-5.074719191E-1,2.221332788E0,-4.139397442E-1
1.506849438E0,-1.969080418E-1,1.444469333E0,4.173082113E-2
1.526849438E0,-1.145529389E0,-4.125958383E-1,-1.758768260E-1
1.546849438E0,-1.389351845E0,-8.435001969E-1,9.166992903E-1
1.566851000E0,-2.014162302E0,-3.139847219E-1,2.868396282E0
1.588849438E0,-2.042209864E0,-7.022681236E-1,7.227059603E-1
1.608849438E0,-1.773237109E0,-4.930729568E-1,1.022832751E0
1.628857250E0,-2.044007540E0,-3.250675797E-1,7.457792014E-2
1.650852563E0,-1.863086581E0,-3.398854136E-1,9.662142992E-1
1.672849438E0,-1.366697550E0,-5.612280965E-1,1.309485674E0
1.692851000E0,-1.047075391E0,-2.353227437E-1,1.459095240E0
1.714849438E0,-3.717551231E-1,2.963569164E-1,2.021388054E0
1.734851000E0,-9.206088185E-1,1.391428828E0,4.295953274E0
1.754851000E0,-1.054615140E0,8.225213289E-1,7.825357914E-1
1.774851000E0,-1.421797514E0,1.308892250E0,2.182691336E0
1.794852563E0,-1.488853097E0,4.187044799E-1,-4.815537930E-1
1.816851000E0,-1.525243282E0,1.767669469E-1,-2.994984947E-2
1.836851000E0,-1.063306928E0,4.600513279E-1,-3.692069352E-1
1.856851000E0,-1.638340503E-1,1.312295556E0,-1.066064596E0
1.876851000E0,1.334635854E0,1.515382171E0,-2.030620813E0
1.896851000E0,2.212693453E0,1.187138081E0,-3.313280582E0
1.916851000E0,2.615044355E0,6.154379845E-1,-3.736121655E0
1.936851000E0,1.985224724E0,2.524618804E-1,-3.240936756E0
1.956851000E0,1.366557837E0,-4.165751934E-1,-2.571411133E0
1.978852563E0,1.683492184E0,-1.121635795E0,-2.054182768E0
1.998852563E0,2.171416521E0,-1.429546833E0,-1.852736831E0
2.020851000E0,1.210455656E0,-1.616331935E0,-1.756726265E0
2.040852563E0,7.323401570E-1,-9.102590084E-1,-1.257457376E0
2.062851000E0,6.196616888E-1,-1.021942616E0,-7.973012924E-1
2.082851000E0,1.229549527E0,-9.759532213E-1,-4.973664880E-1
2.102851000E0,1.806171417E0,-4.218286276E-1,-1.013687253E-1
2.122851000E0,1.820954323E0,6.294006109E-1,-4.304156601E-1
2.142851000E0,2.497985125E0,6.995454431E-1,-1.653053641E0
2.162851000E0,3.597908974E0,1.646578550E0,-8.704829812E-1
2.182852563E0,2.780187368E0,2.023517370E0,-1.851270795E-1
2.204851000E0,1.872040153E0,2.813348532E0,-3.490658402E-1
2.224851000E0,1.737370491E0,2.645779610E0,-6.402216554E-1
2.244893188E0,1.656230211E0,2.156232119E0,-3.034429550E-1
2.266851000E0,1.004175186E0,1.710440159E0,8.222769499E-1
2.286851000E0,4.187917411E-1,1.581565022E0,1.102541924E0
2.306851000E0,-3.186971247E-1,8.696975708E-1,7.813839316E-1
2.326851000E0,-7.683288455E-1,4.889889061E-1,5.716651678E-1
2.346851000E0,-1.070637345E0,-4.552167654E-1,3.072652221E-1
2.366851000E0,-1.706198931E0,-1.205516338E0,1.856855750E-1
2.386851000E0,-2.060134172E0,-1.914189816E0,-3.200584650E-1
2.406851000E0,-2.018630266E0,-1.909756660E0,-7.788881063E-1
2.426851000E0,-1.506707788E0,-7.021110654E-1,-1.477421224E-1
2.446851000E0,-5.480682850E-1,1.847780049E-1,1.076519042E-1
2.466852563E0,-1.155058891E-1,4.184601307E-1,-1.070584953E-1
2.488852563E0,-4.926889837E-1,8.346862793E-1,5.296376348E-1
2.510852563E0,-1.216389775E0,1.552505255E0,5.436875224E-1
2.532851000E0,-9.979618192E-1,1.605283976E0,-3.409151733E-1
2.552851000E0,1.284108520E0,4.940328896E-1,-4.930031598E-1
2.572851000E0,-2.817834020E-1,-1.028697044E-1,-2.721317410E-1
2.592852563E0,-1.713284969E0,-7.755894065E-1,-6.158394217E-1
2.612852563E0,-1.476792932E0,-1.227437735E0,-7.631626725E-1
2.634852563E0,-1.178498626E0,-1.293149352E0,-3.768165708E-1
2.656851000E0,-1.142021298E0,-1.190209866E0,7.126179338E-2
2.676851000E0,-8.142309785E-1,-1.520513415E0,2.480636388E-1
2.696851000E0,-3.961548209E-1,-1.818109512E0,2.927615345E-1
2.716851000E0,-1.605702937E-2,-2.738020182E0,3.297625184E-1
2.736851000E0,6.541842818E-1,-3.821119070E0,7.744898796E-1
2.756851000E0,1.472621560E0,-4.239125252E0,1.805630326E0
2.776851000E0,2.124048233E0,-3.313158512E0,2.339195013E0
2.796851000E0,2.651608944E0,-2.943794489E0,2.087029696E0
2.816851000E0,2.990743876E0,-2.837102413E0,1.356347680E0
2.836851000E0,3.275232553E0,-3.433586121E0,7.061427832E-1
2.856851000E0,3.816755772E0,-2.094621897E0,4.303807318E-1
2.876851000E0,4.295866013E0,3.717900217E-1,7.456046343E-2
2.896851000E0,2.607015848E0,2.588916779E0,-2.865307033E-1
2.916851000E0,9.730384946E-1,3.616199970E0,-7.916464210E-1
2.936851000E0,4.275183976E-1,3.796736956E0,-1.022221923E0
2.956851000E0,6.501700282E-1,3.781814337E0,-5.796412826E-1
2.976851000E0,9.129118919E-1,4.033717632E0,8.136724681E-2
2.996851000E0,1.663089275E0,3.902241945E0,-8.761553094E-3
3.016851000E0,2.385062218E0,3.031514645E0,-3.679154068E-2
3.036851000E0,2.254878044E0,2.265856266E0,4.214970171E-1
3.056851000E0,1.399108291E0,1.107149601E0,3.006329536E-1
3.076851000E0,6.856874824E-1,-4.886921961E-3,-3.673219979E-1
3.096851000E0,9.577319622E-1,-6.285977960E-1,-8.854578733E-1
3.116851000E0,1.543481946E0,-4.642575681E-1,-9.606815577E-1
3.136851000E0,1.538455367E0,-8.376358747E-1,-8.558222055E-1
3.156851000E0,1.129245520E0,-1.672741055E0,-3.675663471E-1
3.176851000E0,7.982612252E-1,-2.130645514E0,-5.078908056E-3
3.196851000E0,5.059709549E-1,-2.374380827E0,1.815665960E-1
3.216851000E0,1.350535750E-1,-2.418991327E0,6.812020391E-2
3.236851000E0,3.202679008E-2,-1.554599643E0,-2.680825815E-2
3.256851000E0,2.976484597E-1,-8.610058427E-1,-5.794493109E-2
3.276851000E0,4.056494236E-1,-1.033304691E0,-3.305478990E-1
3.296851000E0,2.534916103E-1,-2.269416809E0,-1.331337094E-1
3.316851000E0,1.449321359E-1,-3.614960909E0,1.114567220E-1
3.336851000E0,1.267458051E-1,-4.012389660E0,8.264134079E-2
3.356851000E0,1.336573064E-1,-3.689294338E0,-6.754423957E-3
3.376851000E0,4.173605740E-1,-2.898433447E0,-6.649704650E-3
3.396851000E0,8.234463334E-1,-1.984404445E0,4.743804932E-1
3.416851000E0,1.252291203E0,-6.762278080E-1,9.842435122E-1
3.436851000E0,1.328579545E0,-2.018647790E-1,1.072941184E0
3.456851000E0,1.040582776E0,-4.214446545E-1,1.131025672E0
3.476851000E0,7.979994416E-1,-5.208237171E-1,1.196719885E0
3.496851000E0,5.783846378E-1,-2.846283019E-1,9.729686975E-1
3.516851000E0,3.569372892E-1,-3.172659576E-1,6.518281102E-1
3.536851000E0,1.755975783E-1,-6.249325871E-1,5.016774535E-1
3.556851000E0,1.274963021E-1,-7.518703938E-1,3.339687586E-1
3.578849438E0,1.078613475E-1,-1.762259007E-1,1.359611470E-2
3.598851000E0,2.684141994E-1,3.700621724E-1,-1.794722080E-1
3.618851000E0,4.237833917E-1,6.639930606E-1,-2.262819409E-1
3.638851000E0,2.393369973E-1,6.386159658E-1,-9.676105529E-2
3.658851000E0,1.000597253E-1,5.688551664E-1,1.427155733E-1
3.678857250E0,-9.902998060E-2,3.559773564E-1,4.212352037E-1
3.700851000E0,-3.227986395E-1,-1.222603172E-1,5.624846816E-1
3.720851000E0,-3.276506662E-1,-4.695633948E-1,2.294933498E-1
3.742855688E0,-1.044055969E-1,-6.214942932E-1,-3.166027367E-1
3.764849438E0,-4.963716492E-2,-1.134568691E0,-6.552314758E-1
3.784855688E0,1.544616371E-1,-8.989318013E-1,-8.526107669E-1
3.804855688E0,4.316199124E-1,-5.719967484E-1,-7.152359486E-1
3.826849438E0,3.850021660E-1,-7.345916033E-1,-4.844510257E-1
3.846849438E0,9.937904775E-2,-8.798902631E-1,-2.911383808E-1
3.866849438E0,-5.274384841E-2,-1.032763720E0,-1.499586850E-1
3.886849438E0,9.004153311E-2,-1.006129980E0,4.197516665E-2
3.906849438E0,3.525914252E-1,-1.034212351E0,1.004786044E-1
3.926851000E0,5.167222023E-1,-9.323025346E-1,8.929104358E-2
3.948849438E0,4.269599020E-1,-6.214942932E-1,2.734931000E-2
3.968849438E0,1.317199916E-1,-3.890164495E-1,3.054326214E-2
3.988851000E0,-1.699427068E-1,-2.796191871E-1,7.730063051E-2
4.008852563E0,-2.793399394E-1,-4.168195426E-1,2.584832534E-2
4.028866625E0,-2.424611449E-1,-3.448944986E-1,-1.544965506E-1
4.050854125E0,-8.068656921E-2,-2.998126447E-1,-2.045176774E-1
4.072849438E0,2.679952979E-1,6.729989499E-2,-1.037074625E-1
4.092849438E0,5.193750858E-1,4.349535108E-1,-1.082976833E-1
4.112851000E0,5.311909318E-1,4.552167654E-1,-7.934267074E-2
4.132868188E0,4.612905085E-1,1.687733382E-1,5.794493109E-2
4.154851000E0,4.422838986E-1,1.869247667E-2,2.160368562E-1
4.174852563E0,4.956386089E-1,2.291966379E-1,4.157025218E-1
4.196851000E0,5.392369032E-1,2.103645355E-1,4.944517612E-1
4.216852563E0,-1.545838118E-1,-6.384065151E-1,4.192280769E-1
4.238857250E0,-4.151440263E-1,-1.343536973E0,-7.808603346E-2
4.260851000E0,1.404990070E-2,-9.780476093E-1,-6.869092584E-1
4.282855688E0,2.952922583E-1,-2.786767185E-1,-9.889559150E-1
4.304857250E0,6.998769939E-2,-3.102671802E-1,-9.097005129E-1
4.324857250E0,-2.218662500E-1,-4.385488927E-1,-5.835334063E-1
4.346849438E0,-4.453556538E-1,-3.150842786E-1,-3.470936418E-1
4.366849438E0,-5.059360266E-1,-2.261423171E-1,-1.369036287E-1
4.386849438E0,-2.392497361E-1,-4.276231229E-1,4.188789986E-3
4.406854125E0,2.461263239E-1,-5.860466361E-1,1.134987622E-1
4.428869750E0,5.238605738E-1,-3.968355060E-1,2.218313515E-1
4.450849438E0,2.972470224E-1,-3.006678820E-1,3.145257831E-1
4.470849438E0,-1.168847010E-1,-2.377662063E-1,3.624176085E-1
4.490858813E0,-3.860144615E-1,3.895574808E-2,3.284884095E-1
4.512849438E0,-1.162389293E-1,4.243593514E-1,1.964717060E-1
4.532890063E0,4.859694839E-1,7.296523452E-1,1.940107942E-1
4.554849438E0,8.330281973E-1,1.048681021E0,4.634198248E-1
4.574849438E0,-1.606051922E-1,4.156676233E-1,6.858446002E-1
4.594849438E0,-8.081398010E-1,-2.912256420E-1,6.356489062E-1
4.614851000E0,-1.419476271E-1,1.695238352E-1,2.168571651E-1
4.636849438E0,7.872307301E-1,7.827452421E-1,-3.921929300E-1
4.656851000E0,7.241021991E-1,3.809006512E-1,-6.029589176E-1
4.678851000E0,2.054601610E-1,-3.285931349E-1,-2.520779073E-1
4.698857250E0,-2.539105117E-1,-7.098079324E-1,1.153313592E-1
4.718857250E0,-4.343949854E-1,-6.947108507E-1,4.817981422E-1
4.738880688E0,-2.066469789E-1,-3.488738537E-1,6.505191326E-1
4.760851000E0,2.022138536E-1,1.646019965E-1,6.335370541E-1
4.780854125E0,2.464055866E-1,3.235665858E-1,6.727197170E-1
4.802851000E0,-2.099631168E-2,2.101027369E-1,8.342673779E-1
4.822855688E0,-1.882337630E-1,2.979102433E-1,8.701164126E-1
4.844851000E0,-6.220353395E-2,4.334350526E-1,7.178539038E-1
4.864851000E0,2.903529704E-1,4.884653091E-1,5.964837074E-1
4.884851000E0,6.163281202E-1,6.391744614E-1,5.599714518E-1
4.904855688E0,6.024352908E-1,8.116653562E-1,6.288421154E-1
4.926851000E0,4.043753445E-1,8.955284357E-1,7.012558579E-1
4.948851000E0,2.035228461E-1,7.325321436E-1,6.237283349E-1
4.968851000E0,6.316346675E-2,6.221575141E-1,4.444655478E-1
4.988860375E0,-3.104940802E-2,4.278500080E-1,3.366914690E-1
5.010851000E0,-4.450589418E-2,2.675065994E-1,2.203303576E-1
5.030852563E0,-3.427477479E-1,-3.639011383E-1,3.494847417E-1
5.052851000E0,-3.834488243E-2,-5.227261037E-2,4.232597947E-1
5.074851000E0,3.995058537E-1,6.052627563E-1,3.270921409E-1
5.094860375E0,2.436479628E-1,8.934863806E-1,1.920734793E-1
5.116851000E0,-5.457644463E-1,5.057265759E-1,-4.651302472E-2
5.136854125E0,-9.720087647E-1,9.759881347E-2,-1.805892140E-1
5.158857250E0,-8.000763655E-1,-2.510830760E-1,-1.959830225E-1
5.178874438E0,-1.526639462E-1,-9.372418374E-2,-6.476917118E-2
5.200851000E0,4.439594150E-1,1.551423222E-1,1.593136489E-1
5.220851000E0,4.527558684E-1,-9.194394201E-2,3.587349653E-1
5.240851000E0,2.438225001E-1,-2.748020887E-1,4.102919996E-1
5.260857250E0,4.981169850E-2,-3.610388041E-1,3.432539105E-1
5.282851000E0,-2.612757869E-2,-7.766715437E-2,2.236639410E-1
5.302857250E0,-7.792895287E-2,2.434908897E-1,8.286823332E-2
5.324849438E0,-1.346347034E-1,4.558974504E-1,2.832669392E-2
5.344858813E0,-1.121548563E-1,4.137128592E-1,7.229153812E-2
5.366851000E0,1.204277202E-2,2.967234254E-1,1.806241274E-1
5.386851000E0,2.548180707E-2,7.661995292E-2,2.007303238E-1
5.408861938E0,-6.581636518E-2,-2.748893499E-1,1.849176288E-1
5.430849438E0,-1.915498823E-1,-5.269846916E-1,1.621236354E-1
5.450851000E0,-2.417106479E-1,-5.272290707E-1,5.909684673E-2
5.470851000E0,-2.186024934E-1,-2.757271230E-1,-4.557054490E-2
5.492854125E0,-2.057743222E-1,-9.023352526E-3,-6.005677953E-2
5.514849438E0,-3.089581728E-1,-7.201228291E-2,-4.673991725E-2
5.534849438E0,-3.361678720E-1,-5.386086181E-2,-1.178097259E-2
5.554849438E0,-3.266034722E-1,-9.566149861E-2,5.619960371E-3
5.574849438E0,-3.113492727E-1,-1.716705859E-1,3.543018363E-3
5.594851000E0,-3.269176185E-1,-1.490336657E-1,-2.565634064E-2
5.614851000E0,-3.331309855E-1,-1.342507303E-1,-6.401867419E-2
5.634855688E0,-3.072826564E-1,-1.332733482E-1,-3.935717419E-2
5.656886938E0,-2.066818923E-1,-1.595230997E-1,4.581489414E-2
5.678851000E0,-1.930334233E-2,-3.680899367E-2,7.874925435E-2
5.698851000E0,9.677850455E-2,3.717551241E-3,7.428121567E-2
5.718868188E0,6.630505621E-2,-2.007128671E-3,4.483750835E-2
5.740851000E0,-5.904448777E-2,-6.892304868E-2,-1.900663599E-2
5.762851000E0,-1.160643995E-2,3.466223925E-2,4.052654654E-2
5.784849438E0,2.360383272E-1,3.079109788E-1,1.918116808E-1
5.804855688E0,2.319193482E-1,2.313259393E-1,2.330014557E-1
5.824855688E0,3.420845373E-3,-5.747369304E-2,2.011142820E-1
5.846851000E0,5.599016324E-2,-4.639085010E-2,6.789331138E-2
5.866857250E0,-1.248783097E-1,-2.642777562E-1,-1.418254524E-1
5.888849438E0,-5.127253532E-1,-3.618765771E-1,-4.417777359E-1
5.908851000E0,-7.714704275E-1,-2.862339914E-1,-6.363645196E-1
5.930849438E0,-7.926936150E-1,2.427753061E-2,-7.679099441E-1
5.950852563E0,-8.183848858E-1,1.848478168E-1,-9.136100411E-1
5.972851000E0,-1.022152066E0,4.664916098E-1,-9.701238275E-1
5.994849438E0,-1.782661796E0,4.264188409E-1,-6.790203452E-1
6.014849438E0,-1.764423132E0,3.817907870E-1,-7.721161842E-1
6.034849438E0,-1.167922020E0,1.385616958E-1,-8.628733158E-1
6.054849438E0,-5.136154890E-1,1.937315450E-3,-5.448045135E-1
6.074854125E0,-3.011391163E-1,3.373023272E-1,-2.433163524E-1
6.096849438E0,-4.609938264E-1,6.073745489E-1,1.766273193E-2
6.116849438E0,-7.067361474E-1,6.484421492E-1,3.101450205E-1
6.136849438E0,-8.333947062E-1,6.825459003E-1,5.174552202E-1
6.156857250E0,-6.907663941E-1,1.079555988E0,4.633499980E-1
6.178852563E0,-4.411843121E-1,1.275224805E0,2.923600972E-1
6.200849438E0,-4.242197275E-1,1.212864161E0,2.913129032E-1
6.220849438E0,-2.761459947E-1,1.320795417E0,4.624075294E-1
6.240854125E0,1.223999411E-1,1.678465724E0,6.633123755E-1
6.262849438E0,-1.093623340E-1,4.790754318E-1,7.110471129E-1
6.282849438E0,-6.801198721E-1,-1.437278688E-1,5.627465248E-1
6.302849438E0,-1.228362679E0,-2.362128645E-1,4.549026191E-1
6.322857250E0,-1.730546355E0,-3.926641643E-1,6.669775844E-1
6.344851000E0,-1.347079992E0,-8.639379404E-3,4.908214808E-1
6.364855688E0,-8.330456614E-1,7.768285871E-1,4.845383167E-1
6.386849438E0,-8.263784647E-1,2.616597712E-1,4.902978837E-1
6.406849438E0,-9.231744409E-1,-5.380326509E-1,1.274631381E0
6.426849438E0,-1.159771323E0,-1.050810337E0,1.877625227E0
6.446849438E0,-1.154797077E0,-9.167865515E-1,1.710474968E0
6.466851000E0,-9.482722878E-1,-4.617617726E-1,1.172215462E0
6.488849438E0,-1.157642007E0,-1.949881762E-1,8.457341790E-1
6.508849438E0,-1.948485613E0,-3.887895346E-1,1.144796371E0
6.528857250E0,-2.610942841E0,-5.427799225E-1,1.477822661E0
6.550849438E0,-2.036572218E0,-6.273934841E-1,9.018465281E-1
6.570849438E0,-8.812341690E-1,-6.343922615E-1,3.927339911E-1
6.590851000E0,-1.357342601E-1,-4.900709987E-1,5.724854469E-1
6.612849438E0,-3.528532088E-1,-2.981371284E-1,1.135930061E0
6.632849438E0,-1.673962712E0,-3.194650710E-1,9.630726576E-1
6.652849438E0,-2.462153435E0,-2.288999259E-1,-1.729621291E-1
6.672849438E0,-2.202134371E0,4.646764696E-1,-9.373814464E-1
6.692849438E0,-1.922724485E0,1.082819700E0,-1.080795169E0
6.712851000E0,-2.106769562E0,1.397362947E0,-6.952693462E-1
6.734849438E0,-1.625093460E0,1.803413749E0,-3.452959359E-1
6.754851000E0,-4.324402213E-1,2.804517269E0,-4.996004999E-1
6.776849438E0,1.457646608E0,2.308669090E0,8.398000598E-1
6.796849438E0,7.576474547E-1,8.440586925E-1,1.066326380E0
6.816849438E0,-8.177739978E-1,1.026532888E0,-4.879766107E-1
6.836851000E0,-2.671488285E0,1.319730759E0,-1.806712508E0
6.858854125E0,-3.825168371E0,2.483498812E0,-1.940753818E0
6.880851000E0,-3.729349613E0,2.667997599E0,-2.066103220E0
6.902849438E0,-2.842722416E0,2.432936668E0,-2.166232824E0
6.922849438E0,-2.120138645E0,1.702254534E0,-1.860765338E0
6.942849438E0,-1.370013595E0,1.267074108E0,-7.874751091E-1
6.962851000E0,-9.186191559E-1,1.030337691E0,-5.841616914E-2
6.982851000E0,-4.562115967E-1,1.284684539E0,-8.066737056E-1
7.004857250E0,8.620180935E-2,1.329434752E0,-8.536405563E-1
7.026849438E0,3.245090544E-1,1.554268003E0,-6.261543036E-1
7.046849438E0,4.588819742E-1,1.775488496E0,-3.757693768E-1
7.066849438E0,5.942147970E-1,1.909826517E0,-4.272042513E-1
7.086851000E0,7.474547029E-1,1.775261641E0,-4.904724360E-1
7.108849438E0,4.291415513E-1,1.551632643E0,-2.782927454E-1
7.128851000E0,2.020393163E-1,1.822717190E0,7.499679923E-2
7.148851000E0,3.149970174E-1,1.805159092E0,-4.516912252E-2
7.170849438E0,5.214520097E-1,2.001648188E0,-4.119151533E-1
7.190849438E0,3.533419073E-1,1.999937892E0,-3.825063705E-1
7.210851000E0,5.024628639E-1,1.515783548E0,-3.935543001E-1
7.230851000E0,9.713106155E-1,1.919024467E0,-3.758043051E-1
7.252851000E0,9.372069240E-1,1.408829808E0,-9.507681131E-1
7.274849438E0,8.658753037E-1,-5.050982907E-2,-1.139525414E0
7.294849438E0,9.606466889E-1,-3.923674822E-1,-7.378903031E-1
7.314849438E0,8.909556866E-1,-2.627243996E-1,-7.266503572E-1
7.334851000E0,3.900287151E-1,-3.235665858E-1,-4.357388914E-1
7.356849438E0,-1.388060302E-1,-4.340284765E-1,2.639985085E-1
7.376849438E0,-2.677160501E-1,3.839724232E-3,8.758586049E-1
7.396849438E0,-2.843490541E-1,-6.431712508E-1,6.943966746E-1
7.416849438E0,-2.768092155E-1,-9.367530942E-1,7.418696284E-1
7.436849438E0,-5.323952436E-1,-1.319730759E0,1.318962812E0
7.456851000E0,-6.375338435E-1,-1.762416005E0,1.412460089E0
7.478854125E0,-9.819222093E-1,-1.888289213E0,1.695831656E0
7.500849438E0,-1.259656429E0,-1.620660424E0,2.079001188E0
7.520851000E0,-1.280094266E0,-1.621986866E0,1.814461708E0
7.542849438E0,-1.217402101E0,-1.280809879E0,8.048760295E-1
7.562849438E0,-7.879986763E-1,-8.347910047E-1,3.819478452E-1
7.582851000E0,-1.138216496E0,-9.365436435E-1,1.382841825E0
7.604849438E0,-6.836803555E-1,-1.561406493E0,-5.727646947E-1
7.624849438E0,2.327920198E-1,-1.642005742E-1,7.475419641E-1
7.644849438E0,-7.927110791E-1,-3.127979040E-1,2.677108288E0
7.664849438E0,-9.546776414E-1,-3.065845370E-1,1.897225261E0
7.684849438E0,-1.026986599E0,8.629082441E-1,3.711913824E0
7.704851000E0,-1.917942315E-1,7.525859773E-2,8.928580880E-1
7.726849438E0,5.089729428E-1,-6.945886612E-1,-7.016921639E-1
7.746849438E0,3.211231232E-1,-4.538379610E-1,8.013504744E-1
7.766849438E0,6.003932562E-3,-3.542843759E-1,1.890575528E0
7.786849438E0,1.208989546E-1,-5.797460079E-1,2.240915537E0
7.806849438E0,4.104141593E-1,-1.141235828E0,2.078879118E0
7.826851000E0,5.826956034E-1,-1.583833933E0,1.063219666E0
7.848851000E0,1.039203882E0,-1.742135286E0,-1.560673416E-1
7.870849438E0,1.951400280E0,-1.814601421E0,-5.809503198E-1
7.890851000E0,2.710164785E0,-1.406525970E0,-7.599686980E-1
7.910851000E0,3.174998283E0,-8.632398248E-1,-1.554128408E0
7.930851000E0,3.002454996E0,-4.928635359E-1,-2.541687965E0
7.950852563E0,2.605968475E0,-3.626793995E-2,-3.017918587E0
7.972852563E0,2.505612135E0,3.382447958E-1,-2.630647421E0
7.994851000E0,2.477006197E0,4.773126543E-1,-2.539576292E0
8.014851000E0,1.981646776E0,6.733480096E-1,-1.919478178E0
8.034851000E0,1.241592288E0,3.726801574E-1,-1.044823885E0
8.054851000E0,8.751080930E-2,3.079982400E-1,-3.453482985E-1
8.074851000E0,-9.443103671E-1,9.500699639E-1,1.006705910E-1
8.094851000E0,-1.153208852E0,1.511385322E0,-3.339338303E-1
8.114851000E0,-1.095054507E0,1.373800993E0,-6.533290744E-1
8.134851000E0,-1.200350165E0,1.000981212E0,-3.968878686E-1
8.154851000E0,-1.490825295E0,1.116015911E0,-1.013338193E-1
8.174851000E0,-1.423612714E0,1.037493467E0,1.758244634E-1
8.194851000E0,-1.470213056E0,5.857848525E-1,4.732809365E-1
8.214851000E0,-1.917366385E0,-1.402197480E-1,1.040059209E0
8.234851000E0,-2.726413727E0,1.327846497E-1,1.131671429E0
8.254851000E0,-2.042454004E0,-5.960997343E-1,8.510923386E-1
8.274851000E0,-1.578755021E0,-2.126317263E0,1.246618867E0
8.294852563E0,-1.273270011E0,-1.183333278E0,9.381493926E-1
8.316851000E0,-1.510285735E0,-7.394436598E-1,6.642723083E-1
8.336851000E0,-1.870958090E0,-7.966904640E-1,9.749758244E-1
8.356851000E0,-1.670105577E0,-4.349884093E-1,1.319032550E0
8.376851000E0,-1.321772695E0,-8.012632132E-1,4.172209501E-1
8.396851000E0,-1.573693514E0,-7.586946487E-1,3.982317746E-1
8.416851000E0,-1.782277822E0,-7.777710557E-1,9.342398643E-1
8.436851000E0,-1.567078829E0,-7.056191564E-1,8.661720157E-1
8.456852563E0,-1.284667015E0,-5.792224407E-1,-9.967575222E-2
8.478869750E0,-1.359786034E0,1.148077548E-1,3.520328924E-2
8.500851000E0,-1.123433471E0,2.689028680E-1,-3.568325639E-1
8.520851000E0,-6.836978197E-1,7.315722108E-1,-5.372297764E-1
8.540851000E0,-6.745348573E-1,9.219701886E-1,-2.750464380E-1
8.560851000E0,7.890633494E-2,9.317789078E-1,-6.180734634E-1
8.580851000E0,1.270076036E-1,1.073237896E0,2.387610450E-2
8.600851000E0,9.062796831E-1,5.703386664E-1,-1.788962446E-2
8.620851000E0,1.600693822E0,8.154178411E-2,7.867944241E-2
8.640851000E0,1.390608549E0,-2.826386094E-1,1.304947734E0
8.660851000E0,1.566659927E0,-1.506969571E0,1.861795068E0
8.680851000E0,1.416160107E0,-2.496484041E0,1.609036446E0
8.700851000E0,8.200429678E-1,-2.377801657E0,1.922602296E0
8.720851000E0,9.098401070E-1,-2.528004646E0,2.098444223E0
8.740851000E0,7.560417056E-1,-3.209136963E0,2.069244862E0
8.760851000E0,5.498310924E-1,-3.633758068E0,2.644016743E0
8.780851000E0,3.079982400E-1,-3.772145271E0,2.815268517E0
8.800851000E0,1.129402518E-1,-3.253607988E0,2.895466328E0
8.820851000E0,-3.056071512E-2,-3.483869076E0,2.028613567E0
8.840852563E0,1.677086800E-1,-3.550872326E0,1.894136071E0
8.862851000E0,-2.008175850E-1,-3.165433884E0,2.101952314E0
8.882851000E0,-3.530626595E-1,-2.433669567E0,2.234492779E0
8.902851000E0,-2.903529704E-1,-8.212996125E-1,1.482168555E0
8.922851000E0,-4.371176958E-1,1.010336161E0,-6.041282415E-1
8.942851000E0,9.517280012E-2,2.573348284E0,-2.526940107E0
8.962851000E0,4.490208626E-1,3.531481743E0,-2.889357567E0
8.982851000E0,5.539675057E-2,3.978076696E0,-1.834445715E0
9.002851000E0,-1.448972374E-1,3.288357496E0,-2.394766212E-1
9.022851000E0,-5.792747810E-2,2.021667242E0,1.236269116E0
9.042851000E0,-5.130569935E-1,6.175673008E-1,1.917069674E0
9.064849438E0,-1.248102427E0,2.198940367E-1,1.750041604E0
9.084849438E0,-1.218379498E0,1.816364080E-1,1.289222360E0
9.104851000E0,-1.252570391E0,4.005705118E-1,1.027719617E0
9.124851000E0,-1.479812264E0,5.260422230E-1,9.548521638E-1
9.144851000E0,-1.265398622E0,4.674689770E-1,1.301334977E0
9.164851000E0,-8.647582531E-1,1.461905241E0,1.313360214E0
9.184851000E0,-3.081727922E-1,2.840889931E0,-4.522148073E-1
9.204851000E0,1.502728462E-1,3.017726660E0,-1.113991261E0
9.224851000E0,-7.998844236E-2,2.280482054E0,-1.004332304E0
9.244851000E0,-6.514266729E-1,1.183246017E0,-1.364969611E0
9.264851000E0,-6.278647184E-1,-4.613603354E-1,-1.421989560E0
9.284851000E0,-6.920405030E-1,-1.158444881E0,-1.475728273E0
9.304851000E0,-7.121641636E-1,-1.424642444E0,-1.462969899E0
9.326851000E0,-9.326515794E-1,-7.943167686E-1,-1.240737081E0
9.346851000E0,-7.487811446E-1,-1.181936935E-1,-1.338859558E0
9.366851000E0,-2.590766847E-1,4.666835964E-1,-1.536954403E0
9.386851000E0,2.922379375E-1,8.993157744E-1,-1.857850671E0
9.406851000E0,5.284507871E-1,8.348956704E-1,-2.218208790E0
9.426851000E0,5.496216416E-1,5.627465248E-1,-1.897050738E0
9.446851000E0,5.885424614E-1,2.420597076E-1,-1.167433262E0
9.466851000E0,5.331980586E-1,3.528881073E-1,-8.306545615E-1
9.488851000E0,2.624975145E-1,4.667708576E-1,-8.214042783E-1
9.508851000E0,2.563714087E-1,1.104618907E-1,-5.796412826E-1
9.528851000E0,2.299645841E-1,-1.516691130E-2,-2.273989469E-1
9.548851000E0,-2.747148275E-2,3.189589083E-1,-4.274485707E-1
9.568851000E0,-5.458342433E-1,3.485248089E-1,-7.474547029E-1
9.588851000E0,-9.228951931E-1,1.692969352E-3,-4.008672237E-1
9.608851000E0,-1.272659183E0,-1.888620704E-1,7.015351057E-1
9.628852563E0,-1.570604324E0,-5.279446244E-1,1.035887837E0
9.650854125E0,-2.654576063E0,-1.234890223E0,1.730598688E0
9.672851000E0,-3.042039156E0,-1.211031556E0,1.886997581E0
9.692851000E0,-2.580661297E0,-1.544616342E0,1.134429097E0
9.714849438E0,-1.676476002E0,-1.648515821E0,1.538717151E0
9.734849438E0,-1.419266820E0,-2.275368214E0,1.212689638E0
9.754851000E0,-1.116120577E0,-2.003149271E0,1.041821957E0
9.774851000E0,-2.982418537E-1,-1.052730203E0,6.825633645E-1
9.794851000E0,-2.431243658E-2,-3.394665420E-1,4.335397780E-1
9.814851000E0,3.348588645E-1,2.036624700E-1,5.165476203E-1
9.834851000E0,4.789183438E-1,5.968502164E-1,5.340881944E-1
9.854851000E0,2.195100635E-1,8.411439657E-1,2.489363104E-1
9.874851000E0,7.864453644E-2,7.740185857E-1,3.316125646E-2
9.894851000E0,-1.370083448E-2,2.445904464E-1,-4.500156939E-1
9.914851000E0,-8.621926419E-3,6.914994121E-2,-3.329041004E-1
9.934851000E0,2.945068479E-1,3.349461257E-1,-1.470265388E-1
9.954851000E0,-1.044405028E-1,8.029910922E-1,-9.282184243E-1
9.974851000E0,-1.070340633E0,1.441816539E-1,-1.393819928E0
9.996851000E0,-1.401447058E0,-4.343775511E-1,-5.064945221E-1
1.001685100E1,-5.829923153E-1,-3.165503740E-1,-3.014183603E-2
1.003685100E1,-7.650650740E-1,-4.853935242E-1,-7.572110891E-1
1.005685100E1,-1.255659699E0,-8.375835419E-2,-9.586046338E-1
1.007685100E1,-1.147588849E0,-2.321636975E-1,-7.667056918E-1
1.009685100E1,-7.347137928E-1,-4.183030725E-1,-6.361725330E-1
1.011685100E1,-6.298892945E-2,-1.233249679E-1,-9.046913981E-1
1.013685100E1,2.725680768E-1,6.977826357E-2,-1.325420499E0
1.015685100E1,6.794566512E-1,-3.680899441E-1,-7.070503235E-1
1.017685100E1,9.452005029E-1,-5.866749883E-1,-6.889512539E-1
1.019685100E1,1.222969651E0,4.574507847E-2,-7.909832001E-1
1.021685100E1,1.328370094E0,1.213387847E0,-1.343345046E0
1.023685100E1,7.551516294E-1,2.188520670E0,-1.767931223E0
1.025685100E1,-8.647757173E-1,2.428817749E0,-1.879841805E0
1.027685100E1,-2.824396610E0,9.952565432E-1,-1.285417557E0
1.029685100E1,-3.597053766E0,1.808859259E-1,-4.113740921E-1
1.031685100E1,-2.432011604E0,-9.117425680E-1,6.052103639E-1
1.033685100E1,-1.253268600E0,-1.255310655E0,1.314302683E0
1.035685100E1,-5.016774535E-1,-8.240222931E-1,9.198234081E-1
1.037685100E1,4.000120163E-1,-2.452187538E-1,2.015331686E-1
1.039685100E1,9.817651510E-1,-6.932447851E-2,3.421194255E-1
1.041685100E1,1.145162821E0,-2.404191047E-1,1.986359209E-1
1.043685100E1,7.637211680E-1,-5.572836399E-1,3.255388141E-1
1.045685256E1,2.872462869E-1,-8.836776614E-1,2.415535748E-1
1.047885256E1,1.736079007E-1,-1.175374508E0,-2.757620253E-2
1.050085100E1,4.483750761E-1,-1.044754028E0,-6.921452284E-1
1.052085256E1,1.223179102E0,-1.868409872E0,-1.246863246E0
1.054285256E1,2.192430258E0,-3.064833164E0,-8.922123164E-2
1.056485100E1,2.002660513E0,-1.570482135E0,3.529055715E-1
1.058485100E1,-9.322327375E-1,-8.725249767E-1,-5.186246037E-1
1.060485100E1,-9.286023974E-1,-1.013058901E0,-6.728244424E-1
1.062485100E1,5.501976013E-1,-6.992487311E-1,-9.049531817E-2
1.064485881E1,7.483971715E-1,-3.085393012E-1,-6.705031395E-1
1.066685100E1,4.417079389E-1,-2.594606578E-1,-7.873005867E-1
1.068685100E1,7.008892894E-1,-3.413514793E-1,-1.254368126E-1
1.070685100E1,9.771051407E-1,1.919862116E-3,1.413891166E-1
1.072685100E1,8.532914519E-1,6.784269214E-1,2.361081392E-1
1.074685100E1,8.267624378E-1,9.951343536E-1,5.840744376E-1
1.076685100E1,9.128595591E-1,1.345369577E0,5.673542023E-1
1.078685100E1,4.566653967E-1,1.449722886E0,2.229658067E-1
1.080685100E1,-5.845107511E-2,8.675159216E-1,9.334021062E-2
1.082685100E1,5.862560868E-2,3.923151195E-1,2.461786866E-1
1.084685256E1,3.653846681E-1,6.672742963E-1,-2.032435834E-1
1.086885100E1,4.118976891E-1,8.892103434E-1,-2.355496287E-1
1.088885256E1,1.454382837E-1,6.386334300E-1,-3.108606040E-1
1.091085100E1,-6.975906491E-1,4.474151433E-1,-2.897246508E-3
1.093085100E1,-8.621577621E-1,-1.232376993E-1,6.002361774E-1
1.095085100E1,-6.884625554E-1,-1.630835682E-1,5.486617088E-1
1.097285100E1,-7.866547704E-1,8.277223706E-1,2.400351316E-1
1.099285100E1,-8.010886908E-1,6.785141826E-1,1.763655245E-1
1.101285100E1,-7.045719624E-1,5.038067698E-1,6.473426223E-1
1.103285100E1,-1.026463032E0,-1.761386245E-1,6.173403859E-1
1.105285100E1,-1.276027679E0,-6.066589952E-1,3.472507000E-1
1.107285100E1,-1.173541903E0,-3.300941288E-1,-6.184050441E-1
1.109285100E1,-1.286970854E0,6.173229590E-2,-1.967108250E0
1.111285100E1,-1.570953369E0,-2.276781946E-1,-1.312260747E0
1.113285100E1,-9.650274515E-1,-4.754451513E-1,-6.641501188E-1
1.115285100E1,8.923868090E-2,8.238826990E-1,-7.992909551E-1
1.117285100E1,1.396629930E0,1.396106362E0,-9.484817386E-1
1.119285100E1,2.250637054E0,1.670786262E0,-6.388952136E-1
1.121285100E1,3.016661882E0,7.295825481E-1,-3.283836842E-1
1.123285100E1,2.728700161E0,1.919862116E-3,-3.503923118E-1
1.125285100E1,1.789171934E0,-3.111922145E-1,-2.831273079E-1
1.127285100E1,1.062486649E0,-2.279400080E-2,8.604473434E-3
1.129285100E1,4.931253195E-1,3.371975943E-2,3.961897455E-3
1.131285100E1,2.796541154E-1,5.632526278E-1,-2.170666009E-1
1.133285100E1,-3.793822229E-1,8.370947838E-1,-4.295604229E-1
1.135285100E1,-6.043028235E-1,1.280583024E0,-2.955191433E-1
1.137285100E1,-3.887197375E-1,1.309974313E0,-5.186246037E-1
1.139285100E1,-6.425080299E-1,1.253390789E0,-9.987297654E-1
1.141285100E1,-1.462271690E0,7.147821188E-1,-1.493582964E0
1.143485100E1,-2.133665085E0,1.935046464E-1,-1.318072677E0
1.145485100E1,-2.234370470E0,1.524370611E-1,-1.923178285E-1
1.147485100E1,-2.605514765E0,5.092870593E-1,4.416555762E-1
1.149684944E1,-3.212662458E0,3.926292658E-1,-1.758593768E-1
1.151685100E1,-3.154577971E0,3.548603356E-1,-4.252494574E-1
1.153685100E1,-2.232904434E0,1.607081771E0,-3.151890039E-1
1.155685100E1,-2.446253449E-1,1.857484102E0,-9.862855822E-2
1.157685100E1,3.066717982E-1,1.346434236E0,-3.933972120E-2
1.159685100E1,4.626693428E-1,1.668656945E0,-3.484898806E-1
1.161685100E1,5.034576654E-1,1.869334936E0,-5.135282278E-1
1.163685100E1,2.731265724E-1,1.334007502E0,-4.635943472E-1
1.165685100E1,-7.475244999E-2,3.807086647E-1,7.545058429E-2
1.167685100E1,-3.182258904E-1,1.220857799E-1,4.228060246E-1
1.169685100E1,-9.256353378E-1,-3.800978065E-1,4.268377125E-1
1.171685100E1,-1.774860263E0,-9.505935907E-1,5.381373763E-1
1.173884944E1,-2.345251322E0,-1.811826229E-1,1.338876963E0
1.175885569E1,-1.832525849E0,1.086205602E0,5.467069149E-1
1.177885725E1,-6.676582694E-1,-3.005456924E-2,-1.075541735E0
1.180085100E1,3.722787276E-2,-7.645938396E-1,-1.006496429E0
1.182085100E1,9.249547124E-1,1.223877192E0,-1.002325177E0
1.184085100E1,1.097916842E0,2.607329845E0,-1.019795895E0
1.186085100E1,1.390241981E0,2.995246887E0,-8.854230046E-1
1.188085256E1,1.892460465E0,1.636909366E0,-4.183030725E-1
1.190285256E1,2.215101957E0,2.003986984E-1,-1.845685691E-1
1.192485100E1,1.808178544E0,-9.402088523E-1,-1.877974272E-1
1.194485100E1,8.861909509E-1,-1.328666806E0,1.961924583E-1
1.196485100E1,-1.162563786E-1,-8.414756060E-1,6.894748807E-1
1.198485100E1,5.813516974E-1,8.918981552E-1,-6.077934504E-1
1.200485256E1,1.224243760E0,-1.494176388E-1,-1.915237069E0
1.202685100E1,1.095822453E0,1.195026934E-1,-1.770078063E0
1.204685100E1,1.003093123E0,-1.667312980E-1,-1.884466887E0
1.206685100E1,1.197365642E0,-7.138047814E-1,-1.980268002E0
1.208685100E1,1.247997642E0,-3.122219443E-1,-2.026065350E0
1.210685100E1,8.541466594E-1,-2.974041104E-1,-1.581669688E0
1.212685100E1,2.062979192E-1,-1.155250907E0,-8.249124289E-1
1.214685100E1,-1.207855105E0,-6.802420616E-1,1.209513191E-2
1.216685100E1,-9.186540246E-1,-1.562942386E0,4.348662496E-1
1.218685100E1,-2.084795833E-1,-2.464422464E0,2.902657092E-1
1.220685256E1,2.306627184E-1,-3.135396719E0,1.315978318E-1
1.222885100E1,1.230282560E-1,-2.978962898E0,-2.839301527E-1
1.224885100E1,1.928937882E-1,-2.110958338E0,-1.585282534E-1
1.226886038E1,2.848377228E-1,-1.546920180E0,-1.253495514E-1
1.229085100E1,4.422489703E-1,-5.160415173E-1,-2.904227935E-2
1.231085256E1,3.739717007E-1,4.201356471E-1,2.981196940E-1
1.233285100E1,5.063549280E-1,6.357885599E-1,4.798259139E-1
1.235285100E1,4.646241069E-1,5.471956134E-1,6.097482443E-1
1.237285100E1,1.207942367E-1,-1.481609941E-1,-6.688450575E-1
1.239285100E1,-4.407829046E-1,-1.230439663E0,-1.356382608E0
1.241285256E1,-5.150641203E-1,-1.199320436E0,-8.207061887E-1
1.243485100E1,-2.133315951E-1,-1.765400469E-1,9.581857361E-3
1.245485100E1,7.494269013E-1,-2.782927454E-1,7.553784847E-1
1.247485100E1,6.525262594E-1,9.560913593E-2,1.138268828E0
1.249485100E1,-1.619665511E-2,1.166752577E-1,1.267824650E0
1.251485100E1,-7.751531005E-1,3.632379174E-1,8.111068606E-1
1.253485100E1,-1.138286233E0,1.003634095E0,3.522074521E-1
1.255485100E1,-1.248765588E0,8.854055405E-1,-5.283111706E-2
1.257485100E1,-5.711764693E-1,1.100866437E0,2.698802650E-1
1.259485100E1,1.942027807E-1,1.423316002E0,5.420469046E-1
1.261485100E1,1.004087925E-1,1.413821459E0,1.969778538E-1
1.263485100E1,-1.783202887E-1,1.719027162E0,1.311963946E-1
1.265485100E1,-2.770535648E-1,1.278890014E0,2.134537697E-2
1.267485100E1,-2.509957850E-1,1.308560610E0,-7.234739065E-1
1.269485100E1,-3.881786764E-1,1.937245607E0,-9.246754050E-1
1.271485100E1,-4.590390325E-1,1.778211236E0,-9.876120090E-1
1.273485100E1,-5.440016985E-1,1.199477553E0,-9.909805059E-1
1.275485100E1,-9.168738127E-1,4.290368259E-1,-8.706051111E-1
1.277485100E1,-9.296321869E-1,6.473076940E-1,-7.272437811E-1
1.279485256E1,-7.414333224E-1,1.448745489E0,-6.391221285E-1
1.281685100E1,-9.986948371E-1,1.193927407E0,-6.396806240E-1
1.283685100E1,-1.113502622E0,3.053627908E-1,-6.630680561E-1
1.285685100E1,-1.579680085E0,-5.396034718E-1,-6.898413897E-1
1.287685100E1,-1.378426075E0,2.808932960E-1,-7.372619510E-1
1.289685100E1,-2.690075934E-1,2.963394523E-1,-1.025537968E0
1.291685100E1,1.451415867E-1,-1.589994878E-1,-1.226983905E0
1.293685100E1,9.471901506E-2,-3.596425354E-1,-7.706152201E-1
1.295685100E1,9.827949107E-2,-6.931749582E-1,-5.523443222E-1
1.297685100E1,3.372150660E-1,-1.069398165E0,-6.806434989E-1
1.299685100E1,7.670024037E-1,-1.315821171E0,-5.109451413E-1
1.301685100E1,1.700107813E0,-1.792488098E0,-1.719149351E-1
1.303685100E1,2.362285614E0,-1.909442544E0,1.687733456E-2
1.305685100E1,2.929796934E0,-2.142531157E0,-6.495591998E-1
1.307685100E1,2.971073866E0,-2.355356693E0,-9.506110549E-1
1.309685100E1,2.585967064E0,-2.381711245E0,-8.860687613E-1
1.311685100E1,2.270219564E0,-1.212323189E0,-5.127253532E-1
1.313685100E1,1.735764861E0,-9.828298092E-1,-1.095892265E-1
1.315685100E1,1.154395700E0,-1.655793905E0,-1.790009737E-1
1.317685100E1,-3.392221928E-1,-2.428555727E0,-1.144726515E0
1.319685100E1,-4.271518886E-1,-1.057529926E0,-2.106333256E0
1.321685100E1,1.345037937E0,1.406037211E0,-2.114920139E0
1.323685100E1,1.883437157E0,1.288977981E0,-1.367378235E0
1.325685100E1,1.677819967E0,-4.068537056E-1,-1.026061654E0
1.327685100E1,1.345945597E0,-1.977213740E0,-1.110134125E0
1.329685100E1,1.143731713E0,-2.525979996E0,-8.806233406E-1
1.331685100E1,7.484146357E-1,-1.788072348E0,-5.036321878E-1
1.333685100E1,2.778913081E-1,-1.069625020E0,-3.565009534E-1
1.335685100E1,4.307472706E-2,-7.627437711E-1,-1.436056942E-1
1.337685100E1,1.471661627E-1,-7.488160729E-1,5.371250510E-1
1.339685256E1,-2.918190509E-2,-1.784791112E0,7.277150154E-1
1.341888225E1,-7.902152538E-1,-4.284678459E0,5.143311024E-1
1.344086038E1,-1.044143200E0,-3.862675428E0,5.333726406E-1
1.346285100E1,-1.617955089E0,-4.356341660E-1,8.758586049E-1
1.348285100E1,-8.646709919E-1,1.803850174E0,7.870038748E-1
1.350285100E1,1.174536824E0,6.695082784E-1,-7.623597980E-2
1.352285100E1,1.956688643E0,-1.305331707E0,-8.901178953E-4
1.354285256E1,6.163804531E-1,-2.316261292E0,3.906570375E-1
1.356485100E1,-1.450281382E0,-1.867205620E0,1.881290376E-1
1.358485100E1,-2.890527010E0,2.261772156E-1,-5.507386327E-1
1.360485569E1,-3.024254084E0,2.385271549E0,-1.434433699E0
1.362685100E1,-1.481418014E0,2.110452056E-1,-1.562610745E0
1.364685256E1,6.658082008E-1,-3.248878002E0,-1.325437903E0
1.366885256E1,5.365665555E-1,-2.879269600E0,-5.354844928E-1
1.369085100E1,-1.040425658E0,-1.147885561E0,7.695505619E-1
1.371085100E1,-1.011365891E0,1.146419525E0,1.304389238E0
1.373085256E1,-8.421388268E-1,3.407755375E0,1.957090020E0
1.375086194E1,-1.986359239E0,2.581097603E0,2.059034824E0
1.377285100E1,-2.227406740E0,-4.153883457E-2,1.511577249E0
1.379285100E1,-9.989392161E-1,-8.023453355E-1,8.301134706E-1
1.381285100E1,-5.040336251E-1,1.343746424E0,6.525087953E-1
1.383285100E1,-1.400853634E0,3.113754749E0,5.396558046E-1
1.385285100E1,-2.073974848E0,3.577942371E0,2.062979192E-1
1.387285100E1,-2.004109144E0,2.465783596E0,3.194999695E-1
1.389285100E1,-1.596417785E0,7.597767115E-1,3.700970709E-1
1.391285256E1,-1.156001329E0,-2.831622064E-1,2.978055179E-1
1.393485100E1,-6.835232973E-1,4.275707603E-1,-1.663996875E-1
1.395485100E1,-1.205097437E0,1.609437943E0,-2.819753885E-1
1.397485100E1,-4.295429885E-1,2.499957323E0,-2.686759830E-1
1.399485100E1,4.174827412E-2,2.019659996E0,-3.613006175E-1
1.401485100E1,2.106263340E-1,5.453106761E-1,-6.285628676E-1
1.403485100E1,3.362725973E-1,-7.520449162E-1,-8.929104209E-1
1.405485100E1,6.165899038E-1,-8.448964357E-1,-8.820195794E-1
1.407485100E1,1.300060868E0,-1.260110259E0,-9.576272368E-1
1.409485100E1,2.175430775E0,-1.832002282E0,-7.710689902E-1
1.411485100E1,3.243991137E0,-8.155050874E-1,-6.606769562E-1
1.413485100E1,4.115818024E0,2.859198451E-1,-1.034002900E0
1.415485100E1,4.104508400E0,1.858374238E0,-1.010283828E0
1.417485100E1,3.246818542E0,2.038736582E0,-6.610609293E-1
1.419485100E1,2.597660780E0,1.301614165E0,-2.462136000E-1
1.421485256E1,2.177036524E0,1.625076085E-1,-1.424014121E-1
1.423685100E1,2.394539356E0,1.118040442E0,3.150842786E-1
1.425685100E1,2.157436371E0,2.291163445E0,4.956735075E-1
1.427685100E1,1.525854111E0,2.150001287E0,4.254065454E-1
1.429685100E1,9.980316162E-1,8.423831463E-1,8.116828203E-1
1.431685100E1,8.447917104E-1,-5.723109245E-1,9.783791900E-1
1.433685100E1,1.055086493E0,-7.782946825E-1,6.299765706E-1
1.435685100E1,1.187364936E0,-3.830474019E-1,2.315702885E-1
1.437685100E1,9.898460507E-1,-8.942194581E-1,-2.240304649E-1
1.439685100E1,6.392966509E-1,-2.114047527E0,-3.048042953E-1
1.441685100E1,3.230604529E-2,-1.806276202E0,-3.131120801E-1
1.443685100E1,-6.005328894E-1,-1.195742488E0,-2.190737277E-1
1.445685256E1,-1.237735152E0,-9.742078781E-1,2.571218908E-1
1.447885100E1,-2.116613150E0,-8.570264578E-1,9.415702224E-1
1.449886506E1,-3.081413746E0,-2.082352340E-1,1.176107526E0
1.452085100E1,-2.167157888E0,-2.634923458E-1,8.699070215E-1
1.454085100E1,2.602460384E-1,-1.295488119E0,9.482374042E-2
1.456085100E1,2.371413708E0,-1.326712012E0,-1.368163526E-1
1.458085100E1,1.458885789E0,-5.861164927E-1,3.811450005E-1
1.460085256E1,-6.028367206E-2,-1.101494789E0,2.107659578E-1
1.462285100E1,-1.362578511E0,8.810421824E-1,-2.641555667E-1
1.464285100E1,-1.093012452E0,3.570996046E0,-4.263141155E-1
1.466285256E1,2.302089334E-2,3.907617569E0,-5.410520826E-3
1.468485100E1,4.016351700E-1,3.017115831E0,9.351474047E-2
1.470485100E1,-7.214493155E-1,-1.735398293E0,-2.103645355E-1
1.472485100E1,-2.433913946E0,-5.269498229E-1,-2.980498672E-1
1.474485100E1,-2.736361980E0,2.544306040E0,3.307398856E-1
1.476485100E1,-2.248315573E0,3.362446547E0,1.136314034E0
1.478485100E1,-2.109474659E0,2.714981794E0,1.562994719E0
1.480485256E1,-2.633440018E0,1.053655267E0,1.125109076E0
1.482685100E1,-1.998995423E0,1.271646917E-1,-1.476548519E-2
1.484685100E1,-1.200751662E0,5.395685434E-1,-2.775073517E-3
1.486685100E1,-1.334932566E0,1.137308955E0,2.169095129E-1
1.488685100E1,-1.662408710E0,1.097864509E0,6.007423252E-2
1.490685100E1,-1.453300714E0,9.791471362E-1,-1.404117346E-1
1.492685100E1,-9.915913343E-1,8.888612986E-1,-3.398505151E-1
1.494685100E1,-9.686402678E-1,9.199281335E-1,-5.614200830E-1
1.496685100E1,-1.200140715E0,1.220229506E0,-5.562539101E-1
1.498685100E1,-1.370118380E0,1.105648637E0,-4.632802010E-1
1.500685100E1,-1.424834490E0,6.616194248E-1,-3.587000668E-1
1.502685256E1,-1.046220183E0,2.568077445E-1,-1.758942753E-1
1.504885256E1,-3.671300113E-1,-5.330235511E-2,-1.271821409E-1
1.507085100E1,1.385791413E-2,-6.991788745E-2,-1.522276103E-1
1.509085256E1,1.559975296E-1,-6.215117499E-2,-6.782349199E-2
1.511285100E1,9.757786989E-1,-5.500579476E-1,1.083325893E-1
1.513285100E1,1.576049805E0,-1.155547619E0,2.968805134E-1
1.515285100E1,2.835025549E0,-2.034861803E0,3.541796505E-1
1.517285100E1,3.565812349E0,-2.622304916E0,4.023507535E-1
1.519285100E1,3.173183203E0,-2.233968973E0,5.273861289E-1
1.521285100E1,2.465399742E0,-5.978101492E-1,3.626619577E-1
1.523285100E1,2.522664070E0,1.006723404E0,-1.767494977E-1
1.525285100E1,3.080139637E0,1.831635833E0,-3.294832408E-1
1.527285100E1,2.856946945E0,1.306797862E0,-1.625425071E-1
1.529285100E1,1.981489778E0,6.757042408E-1,-8.316493779E-2
1.531285100E1,1.330063105E0,3.534989953E-1,-2.864085324E-2
1.533285100E1,1.293079495E0,1.112123802E-1,1.387536824E-1
1.535285100E1,1.604236841E0,-9.997245669E-2,2.658660114E-1
1.537285100E1,1.843224764E0,-7.054446340E-1,2.331934422E-1
1.539285100E1,1.787845492E0,-1.520426154E0,1.651605070E-1
1.541285100E1,1.542958379E0,-2.298424006E0,1.968731433E-1
1.543285100E1,1.189476728E0,-2.314899921E0,8.761552721E-2
1.545285100E1,5.071228743E-1,-2.172882557E0,-2.469640970E-2
1.547285256E1,-3.738669753E-1,-1.819575548E0,3.403392062E-2
1.549485100E1,-1.342228055E0,-1.337201476E0,3.266558349E-1
1.551485100E1,-2.238698959E0,-8.924566507E-1,5.144532323E-1
1.553485100E1,-3.064204693E0,2.243969738E-1,5.234242678E-1
1.555485100E1,-2.748736382E0,8.922995925E-1,3.604279459E-1
1.557485100E1,-2.205398083E-1,4.370653629E-1,-2.253220044E-2
1.559485100E1,2.622426987E0,-1.928972840E0,2.052507252E-1
1.561485100E1,1.813048005E0,-8.609011173E-1,9.861459136E-1
1.563485100E1,-8.363617957E-2,1.067216516E0,8.005825281E-1
1.565485100E1,-1.487771034E0,1.923981190E0,6.981316837E-4
1.567485100E1,-1.658167481E0,2.707686424E0,-1.166508198E0
1.569485100E1,-2.637890577E-1,3.237795115E0,-1.719114423E0
1.571485100E1,1.301422238E0,2.409252524E-1,-1.327235579E0
1.573485100E1,5.227261186E-1,-5.518207550E0,-8.108625412E-1
1.575485100E1,-2.268404484E0,-2.690390110E0,3.216990829E-1
1.577485100E1,-3.279717922E0,2.813121796E0,1.267999172E0
1.579485256E1,-2.263744354E0,4.239788532E0,1.753183246E0
1.581685100E1,-1.292590857E0,3.255004168E0,1.790009618E0
1.583685100E1,-1.502676129E0,1.700613856E0,9.184097052E-1
1.585685100E1,-1.996237755E0,-4.468042869E-3,-1.511978656E-1
1.587685100E1,-1.551737309E0,-5.478762984E-1,4.256857932E-2
1.589685100E1,-1.311213493E0,-2.093522400E-1,1.505520940E-1
1.591685100E1,-1.657766104E0,3.948458433E-1,3.141592722E-3
1.593685100E1,-1.839961052E0,9.527927041E-1,-1.089085415E-1
1.595685100E1,-1.707891941E0,1.307792664E0,-3.173008561E-1
1.597685100E1,-1.411430359E0,1.157711744E0,-6.481803656E-1
1.599685100E1,-1.298367858E0,7.226884961E-1,-9.002931714E-1
1.601685100E1,-1.341041207E0,2.443809956E-1,-9.133307934E-1
1.603685100E1,-1.166036963E0,3.888767958E-1,-6.388254166E-1
1.605685100E1,-9.472600222E-1,6.343399286E-1,-2.472258806E-1
1.607685100E1,-7.941073775E-1,3.607246578E-1,1.432915311E-2
1.609685100E1,-2.331061810E-1,-7.148868591E-2,1.603084952E-1
1.611685100E1,1.377588362E-1,-2.028247118E-1,1.357691586E-1
1.613685100E1,9.970018864E-1,-4.187393785E-1,2.781705856E-1
1.615685100E1,1.499342561E0,-6.004805565E-1,3.126757443E-1
1.617685100E1,2.840662956E0,-1.418027639E0,2.944195867E-1
1.619685100E1,3.778218985E0,-2.391153336E0,3.688753247E-1
1.621689163E1,3.816040277E0,-2.167419672E0,5.850867033E-1
1.623885100E1,2.731929064E0,-6.510776281E-1,5.966233611E-1
1.625886975E1,1.852597237E0,3.246312495E-3,3.049439192E-1
1.628085100E1,2.232153893E0,5.422912240E-1,1.056447774E-1
1.630085256E1,2.539611101E0,4.673642516E-1,1.337096691E-1
1.632085256E1,2.305143595E0,2.900213599E-1,1.736253500E-1
1.634285256E1,2.117049456E0,6.992487311E-1,1.193805188E-1
1.636485100E1,1.674032569E0,4.316373765E-1,-6.014404446E-2
1.638485100E1,1.369524956E0,-3.686309755E-1,-1.139350906E-1
1.640485412E1,1.373312354E0,-1.125981688E0,9.283406287E-2
1.642684944E1,1.330045581E0,-1.910315275E0,4.443957210E-1
1.644685100E1,1.187015891E0,-2.579090595E0,6.445850134E-1
1.646685100E1,8.367806673E-1,-2.684141874E0,4.169591665E-1
1.648685100E1,2.273116857E-1,-2.426775694E0,1.703441329E-2
1.650685100E1,-4.641703069E-1,-2.083975554E0,-2.262295783E-1
1.652685100E1,-1.324809670E0,-1.929042578E0,-1.857379377E-1
1.654685100E1,-2.460093975E0,-1.303342104E0,4.049163684E-2
1.656685100E1,-3.038775206E0,1.261000335E-1,3.854734302E-1
1.658685100E1,-2.218732357E0,1.484577060E-1,3.372674286E-1
1.660685100E1,7.858519554E-1,-1.213684559E0,-2.594082952E-1
1.662685100E1,2.759993792E0,-1.554564714E0,9.796532989E-2
1.664685100E1,1.276306868E0,1.086973548E0,8.562236428E-1
1.666685100E1,-3.070383072E-1,2.183930427E-1,4.334176183E-1
1.668685100E1,-1.555978417E0,4.414286613E-1,2.379407287E-1
1.670685100E1,-1.673072577E0,1.948119044E0,-8.244935423E-2
1.672685100E1,-3.168470860E-1,2.960095882E0,-5.960474014E-1
1.674685100E1,7.492698431E-1,-4.194200635E-1,-1.106084943E0
1.676685100E1,-5.229529738E-1,-3.856148005E0,-1.082435727E0
1.678685100E1,-2.291111231E0,-1.111722350E0,-2.349213138E-2
1.680685100E1,-2.392165661E0,2.571149349E0,8.812690973E-1
1.682685100E1,-1.979674578E0,3.055303574E0,1.596731901E0
1.684685100E1,-1.583135843E0,1.943930268E0,1.535278916E0
1.686685100E1,-2.701507807E0,9.974556565E-1,6.542541385E-1
1.688685256E1,-2.162689924E0,5.547180176E-1,1.475326866E-1
1.690885100E1,-8.659800291E-1,8.820370436E-1,3.333055377E-1
1.692885256E1,-1.195899606E0,1.272955894E0,2.876302600E-1
1.695085256E1,-1.886788130E0,8.611629009E-1,1.423490494E-1
1.697285256E1,-1.660349131E0,7.858868241E-1,-1.395216137E-1
1.699485100E1,-1.131671429E0,8.399397135E-1,-3.310540617E-1
1.701485100E1,-1.015886307E0,7.002959251E-1,-4.136430323E-1
1.703485100E1,-1.099696994E0,1.023496032E0,-4.181808829E-1
1.705485100E1,-1.296692371E0,1.244053245E0,-4.085815847E-1
1.707485100E1,-1.384656906E0,1.070881724E0,-4.375540316E-1
1.709485100E1,-9.825854301E-1,7.142760158E-1,-3.673568964E-1
1.711485100E1,-5.896943808E-1,8.362570405E-1,-2.376963943E-1
1.713485100E1,-1.605528444E-1,9.775065780E-1,-1.739744246E-1
1.715485100E1,2.153736353E-2,5.538278818E-1,-6.129596382E-2
1.717485100E1,6.793868542E-1,-2.402794808E-1,1.553343050E-2
1.719485100E1,1.362334251E0,-9.305746555E-1,1.611113399E-1
1.721489162E1,2.685555458E0,-1.477944851E0,1.602212191E-1
1.723685100E1,3.928195000E0,-2.217894554E0,2.547657192E-1
1.725685100E1,3.704478741E0,-2.212327003E0,5.721014738E-1
1.727685100E1,3.214652061E0,-9.311156869E-1,6.492973566E-1
1.729685100E1,2.533694506E0,4.870166779E-1,4.118802547E-1
1.731685100E1,2.424436808E0,1.905026913E0,2.388483137E-1
1.733685100E1,2.663564444E0,2.249066114E0,1.401848495E-1
1.735685100E1,2.214979887E0,6.201329231E-1,1.622108966E-1
1.737685100E1,1.369961262E0,-1.066291451E0,2.701071501E-1
1.739685100E1,1.229689121E0,-9.584824443E-1,1.935046464E-1
1.741685100E1,1.542207837E0,-1.644798219E-1,5.770058557E-2
1.743685100E1,1.914312005E0,-3.762929887E-2,-3.035127558E-2
1.745685256E1,1.808719635E0,-7.933394313E-1,5.866051465E-2
1.747885725E1,1.388182521E0,-1.738888979E0,2.655169368E-1
1.750084944E1,9.595645666E-1,-2.235522509E0,2.393369973E-1
1.752085100E1,3.914249837E-1,-2.243638277E0,-8.456119895E-2
1.754085100E1,-2.878571451E-1,-2.072473764E0,-2.558303475E-1
1.756085256E1,-1.002761483E0,-2.082875967E0,-2.594082952E-1
1.758085256E1,-1.874658108E0,-2.112075329E0,-4.928809777E-2
1.760085256E1,-3.128066301E0,-6.905569434E-1,3.442138433E-1
1.762285100E1,-3.009174585E0,7.419918180E-1,6.529974937E-1
1.764285100E1,-1.123363733E0,-3.232000768E-1,1.460840553E-1
1.766285100E1,2.183633804E0,-2.254302263E0,1.495572627E-1
1.768285100E1,1.824637055E0,1.642529368E-1,8.860687613E-1
1.770285100E1,1.168847010E-1,1.117813587E0,7.555181384E-1
1.772285100E1,-7.768983841E-1,1.021750689E0,1.938188076E-1
1.774285100E1,-1.486252546E0,1.535627961E0,-2.377487570E-1
1.776285100E1,-2.917841375E-1,2.424000502E0,-7.354992032E-1
1.778285100E1,7.492523789E-1,1.835440636E0,-6.569593549E-1
1.780285100E1,7.884873748E-1,-3.536054611E0,-7.385360599E-1
1.782285100E1,-1.281909466E0,-2.224736214E0,-1.422268748E-1
1.784285100E1,-2.568007708E0,1.342961073E0,7.460933328E-1
1.786285100E1,-1.890558124E0,2.309070587E0,1.318125010E0
1.788285100E1,-1.340674639E0,1.634448528E0,1.360606313E0
1.790285100E1,-2.142967701E0,6.967179775E-1,7.513118982E-1
1.792285100E1,-2.852531195E0,1.899616420E-1,1.851794310E-2
1.794285100E1,-1.919914484E0,1.565560400E-1,8.522442728E-2
1.796285100E1,-1.106381655E0,2.164208293E-1,2.074323744E-1
1.798285100E1,-1.757965446E0,6.665412337E-2,7.834783196E-2
1.800285100E1,-2.395796061E0,4.358261526E-1,6.902777404E-2
1.802285256E1,-2.221542358E0,8.946906924E-1,-1.668185741E-1
1.804285256E1,-1.556676626E0,7.811570168E-1,-4.151440263E-1
1.806485100E1,-1.094565749E0,3.643549383E-1,-5.419945717E-1
1.808485100E1,-1.366976738E0,2.959031165E-1,-4.250574708E-1
1.810485100E1,-1.443247676E0,1.025590420E0,-2.612059712E-1
1.812485100E1,-1.167887092E0,1.402389526E0,-1.049117446E-1
1.814485100E1,-9.020385146E-1,1.023635626E0,1.982693933E-2
1.816485100E1,-1.145808622E-1,4.305029213E-1,4.323180392E-2
1.818485100E1,2.546260953E-1,-4.026474431E-2,6.874851882E-2
1.820485256E1,7.713482380E-1,-2.650806010E-1,2.738421559E-1
1.822685100E1,1.499010921E0,-3.848451078E-1,5.050808191E-1
1.824685100E1,2.888746738E0,-6.112142801E-1,5.595700145E-1
1.826685100E1,4.195684433E0,-1.959114671E0,3.442662060E-1
1.828685100E1,3.730292082E0,-2.421155691E0,2.646093667E-1
1.830685100E1,2.993222237E0,-1.217454433E0,7.426375896E-2
1.832685100E1,2.675711870E0,9.079900980E-1,-3.790331483E-1
1.834685100E1,3.168645144E0,3.675558567E0,-5.278573632E-1
1.836685100E1,3.341729641E0,4.446732521E0,-3.820002079E-1
1.838685256E1,2.562474966E0,2.543241501E0,-3.098133802E-1
1.840885100E1,1.530322194E0,9.607862830E-1,-4.812570810E-1
1.842885256E1,9.597390890E-1,3.048566580E-1,-2.525491416E-1
1.845085256E1,1.398200750E0,-1.233598739E-1,1.076519042E-1
1.847285256E1,1.906108975E0,-9.239075184E-1,2.289348394E-1
1.849485100E1,1.733984590E0,-1.658481717E0,1.539554894E-1
1.851485100E1,1.159055710E0,-1.921677351E0,-6.702064537E-3
1.853485100E1,2.482381761E-1,-2.240880489E0,-1.239183769E-1
1.855485100E1,-6.864728928E-1,-2.267409563E0,-1.277406514E-1
1.857485100E1,-1.509605050E0,-2.105792046E0,-8.117526025E-2
1.859485100E1,-2.304584980E0,-2.089752436E0,6.832963973E-2
1.861485100E1,-3.135134935E0,-1.783604264E0,3.579321206E-1
1.863485100E1,-3.397387981E0,3.879168928E-1,5.996252894E-1
1.865485100E1,-9.861983061E-1,2.278265476E0,7.313802242E-1
1.867485100E1,2.540536165E0,-1.496445298E0,4.712388909E-4
1.869485100E1,3.025982141E0,-3.715160131E0,1.236740276E-1
1.871485100E1,2.748544514E-1,1.972396523E-1,3.702017963E-1
1.873485100E1,-1.117708802E0,2.533991098E0,-8.695753813E-1
1.875485100E1,-7.881383300E-1,3.644352198E0,-1.339034081E0
1.877485100E1,-2.350260317E-1,3.337889910E0,-9.002059102E-1
1.879485100E1,-4.944692254E-1,7.044149190E-2,-7.686080933E-1
1.881485100E1,-1.171709299E0,-9.691813588E-2,-5.855579376E-1
1.883485100E1,-2.400909901E0,1.956304669E0,2.414662987E-1
1.885485100E1,-2.451018333E0,2.406616926E0,7.937408090E-1
1.887485100E1,-1.985154986E0,2.313032389E0,9.075711966E-1
1.889485100E1,-1.897783756E0,1.991350889E0,4.480783641E-1
1.891485100E1,-1.578440905E0,1.619229198E0,-1.796816438E-1
1.893485100E1,-1.448099732E0,1.027719617E0,9.306095541E-2
1.895485100E1,-1.211031556E0,4.557927251E-1,2.032261342E-1
1.897485100E1,-1.347429037E0,1.358040720E-1,8.237954229E-3
1.899684944E1,-1.676074624E0,3.262020350E-1,-1.240580007E-1
1.901685100E1,-1.789870024E0,1.080864906E0,-2.077988982E-1
1.903685100E1,-1.568719387E0,1.638061285E0,-3.485771716E-1
1.905685100E1,-1.314023495E0,1.269290686E0,-4.896521270E-1
1.907685100E1,-1.455936193E0,6.351253390E-1,-5.917189717E-1
1.909685100E1,-1.549171686E0,3.346843421E-1,-6.095911264E-1
1.911685100E1,-1.284527421E0,9.789551795E-2,-6.028890610E-1
1.913685100E1,-6.949900985E-1,-3.735004691E-3,-6.219655275E-1
1.915685100E1,-4.053178132E-1,3.140196502E-1,-3.434807956E-1
1.917685100E1,-1.683370024E-1,7.513467669E-1,-2.340486459E-2
1.919685100E1,1.731715649E-1,2.324254960E-1,-2.668608353E-2
1.921685100E1,6.887941957E-1,-6.093468070E-1,-4.789183289E-2
1.923685100E1,1.507580519E0,-9.133133292E-1,2.630211227E-2
1.925685100E1,2.699989319E0,-9.984679818E-1,2.133839577E-1
1.927685100E1,4.187306881E0,-1.904398561E0,3.091676235E-1
1.929685100E1,3.888384104E0,-2.098461628E0,7.003831863E-1
1.931685100E1,2.688156128E0,-7.002260685E-1,1.197644949E0
1.933685100E1,2.030027390E0,3.728197813E-1,9.759706855E-1
1.935885412E1,2.717547417E0,9.305571914E-1,4.505043924E-1
1.938085256E1,2.940914631E0,8.946906924E-1,3.759264648E-1
1.940285100E1,1.840065718E0,-1.567480266E-1,2.854486108E-1
1.942285100E1,1.393977046E0,-6.351253390E-1,3.496941626E-1
1.944285100E1,1.554529905E0,9.341002256E-2,3.418751061E-1
1.946285100E1,1.591967106E0,-2.656391077E-2,3.499908745E-1
1.948285256E1,1.470527172E0,-7.970569730E-1,5.138424039E-1
1.950484944E1,1.234104872E0,-1.839489818E0,7.698647380E-1
1.952485100E1,1.000736833E0,-2.648851395E0,8.239699602E-1
1.954485100E1,6.161710620E-1,-3.065025091E0,4.331034422E-1
1.956485100E1,-6.274458766E-2,-2.981877565E0,-1.081056967E-1
1.958485100E1,-8.719664812E-1,-2.226254702E0,-3.031113446E-1
1.960485100E1,-1.893682241E0,-1.541806459E0,-9.110618383E-3
1.962485100E1,-2.761582136E0,-5.509131551E-1,3.750712574E-1
1.964485100E1,-2.912622929E0,2.515543103E-1,1.619141996E-1
1.966485100E1,-1.760705590E0,5.882283449E-1,-2.651853263E-1
1.968485100E1,9.839642644E-1,-1.495921731E0,-2.008524835E-1
1.970485100E1,1.784424663E0,-1.558578968E0,9.533686638E-1
1.972485100E1,1.070759520E-1,1.094548345E0,1.073202968E0
1.974485100E1,-7.167543769E-1,1.565699935E0,4.157897830E-1
1.976485100E1,-1.276184797E0,2.101812840E0,-4.307647049E-1
1.978485100E1,-3.946887553E-1,2.078564882E0,-1.039779902E0
1.980485100E1,4.862661958E-1,7.560417056E-1,-7.856948376E-1
1.982485100E1,4.064348340E-1,-5.717157364E0,-1.202863455E0
1.984485100E1,-1.314058423E0,-2.868064642E0,-1.080411196E0
1.986485100E1,-2.436584234E0,3.233746052E0,-2.600540519E-1
1.988485100E1,-1.934592724E0,4.974659443E0,7.045196295E-1
1.990485100E1,-1.713075519E0,3.526612282E0,1.368547559E0
1.992485100E1,-2.142251968E0,9.719913006E-1,1.140956640E0
1.994485100E1,-2.801881790E0,-5.005255342E-1,2.384119667E-2
1.996485100E1,-1.524719596E0,1.940806210E-2,-3.304606378E-1
1.998485100E1,-6.504144073E-1,6.067637205E-1,5.719443783E-2
2.000485100E1,-1.129961014E0,8.745844960E-1,5.522221699E-2
2.002485100E1,-1.674905181E0,9.053197503E-1,-7.538077235E-2
2.004485100E1,-1.764126420E0,8.646011949E-1,-2.943846881E-1
2.006485100E1,-1.500878453E0,9.573131204E-1,-6.168691516E-1
2.008485100E1,-1.301526904E0,9.325992465E-1,-8.138644695E-1
2.010485100E1,-1.348999858E0,6.647610068E-1,-7.774569392E-1
2.012485100E1,-1.335491061E0,4.787438214E-1,-7.040483356E-1
2.014485100E1,-1.124271274E0,4.670326412E-1,-6.570990086E-1
2.016485100E1,-7.424281836E-1,1.851794273E-1,-4.792324901E-1
2.018485100E1,-2.024058253E-1,-3.186971322E-2,-4.284957945E-1
2.020485412E1,1.984439418E-2,-1.503077596E-1,-3.340385556E-1
2.022685100E1,2.832494974E-1,-4.671199322E-1,-1.067966968E-1
2.024685100E1,1.025014400E0,-7.258126140E-1,3.007376790E-1
2.026685100E1,1.764842033E0,-1.122246742E0,6.396108270E-1
2.028685100E1,2.853491068E0,-1.927349687E0,8.409694433E-1
2.030685100E1,3.784065723E0,-1.557880878E0,8.273558617E-1
2.032685100E1,3.558743715E0,-5.344372392E-1,7.198610306E-1
2.034685100E1,2.514443398E0,2.075370997E-1,5.405808091E-1
2.036685100E1,2.285805464E0,8.672890067E-1,1.688082516E-1
2.038685100E1,2.537185192E0,9.824981689E-1,-4.747295752E-3
2.040685100E1,2.505193233E0,8.820021152E-1,-4.703662172E-2
2.042685100E1,2.078268290E0,1.050496221E0,-6.178465672E-3
2.044685100E1,1.438605070E0,5.925392509E-1,1.572192609E-1
2.046685100E1,1.521438360E0,1.390154809E-1,4.399276972E-1
2.048685100E1,1.896666765E0,-2.870194018E-1,3.699574471E-1
2.050685100E1,1.895724297E0,-9.089500308E-1,2.907893062E-1
2.052685100E1,1.509500384E0,-1.988244176E0,4.785343707E-1
2.054685100E1,1.218641281E0,-2.468384266E0,6.135530472E-1
2.056685100E1,7.527256012E-1,-2.412411451E0,5.218011141E-1
2.058685100E1,4.708898440E-2,-2.049051523E0,2.890265286E-1
2.060685100E1,-7.377506495E-1,-1.545558810E0,2.210983038E-1
2.062685100E1,-1.595929027E0,-1.149177194E0,3.049090207E-1
2.064685100E1,-2.496623755E0,-7.017096281E-1,3.722438216E-1
2.066685100E1,-3.190304756E0,1.963844448E-1,4.044626057E-1
2.068685100E1,-2.968037128E0,8.933642507E-1,3.587000668E-1
2.070685100E1,-7.382743061E-2,1.790707856E-1,2.433861643E-1
2.072685100E1,3.007446527E0,-2.393736601E0,5.641427636E-1
2.074685100E1,2.094342709E0,-2.419026345E-1,1.188097954E0
2.076685100E1,-4.431391135E-2,9.777508974E-1,4.445702732E-1
2.078685100E1,-1.269133568E0,1.169388056E0,-5.644220114E-1
2.080685100E1,-1.570534468E0,1.668848872E0,-1.174222589E0
2.082685256E1,-7.399846911E-1,2.170037746E0,-1.539851665E0
2.084885256E1,6.551268101E-1,-9.791122675E-1,-1.202409625E0
2.086885256E1,3.249803185E-1,-2.444543123E0,-6.938033104E-1
2.088885256E1,-2.084621191E0,1.926319897E-1,4.041833580E-1
2.091085100E1,-2.843228579E0,3.134070158E0,1.095071912E0
2.093085100E1,-2.009764194E0,3.749962091E0,1.187207818E0
2.095085256E1,-1.463510990E0,2.860018730E0,9.065240026E-1
2.097285256E1,-2.160508156E0,3.596425354E-1,2.399827726E-2
2.099485100E1,-2.005348444E0,-4.835958183E-1,-2.853962481E-1
2.101485100E1,-1.206895232E0,3.703588620E-2,5.735151842E-2
2.103485100E1,-1.190244675E0,1.079782844E0,-3.717551241E-3
2.105485100E1,-1.824689388E0,1.535418510E0,-1.512676924E-1
2.107685100E1,-1.822734594E0,1.454138517E0,-3.267081678E-1
2.109685100E1,-1.242465019E0,1.164815307E0,-5.345419645E-1
2.111685100E1,-1.179161906E0,1.115038514E0,-8.710240126E-1
2.113685100E1,-1.398008704E0,9.509950280E-1,-9.071872234E-1
2.115685100E1,-1.352193832E0,6.096958518E-1,-7.790800929E-1
2.117685100E1,-1.221119642E0,3.574434221E-1,-5.433733463E-1
2.119685100E1,-8.114385009E-1,2.037497312E-1,-2.962870896E-1
2.121685100E1,-1.526988596E-1,-3.570943698E-2,-1.909913868E-1
2.123685100E1,7.646287233E-2,-2.351307571E-1,-9.121090919E-2
2.125685100E1,6.253340244E-1,-5.101073980E-1,3.138101846E-2
2.127685100E1,1.371252775E0,-6.323851347E-1,2.789036036E-1
2.129685100E1,2.411695957E0,-1.007700801E0,3.903254271E-1
2.131685100E1,3.826372623E0,-1.798875928E0,2.860245705E-1
2.133685100E1,3.864822149E0,-1.978400469E0,3.180164397E-1
2.135685100E1,2.963761091E0,-1.284317970E0,6.193999052E-1
2.137685100E1,2.557605505E0,2.998650074E-1,4.353200197E-1
2.139685100E1,2.849127769E0,1.821285963E0,1.260127723E-1
2.141685100E1,2.898328543E0,2.005505562E0,1.404990070E-2
2.143685100E1,2.341760635E0,1.029046178E0,-3.604104742E-2
2.145685100E1,1.738749385E0,5.159018636E-1,-1.429773718E-1
2.147685100E1,1.469637036E0,3.843738735E-1,1.954768784E-3
2.149685100E1,1.511123538E0,-4.712388909E-4,1.562244147E-1
2.151685100E1,1.793936610E0,-7.562336922E-1,1.807288378E-1
2.153685100E1,1.875164270E0,-1.732640743E0,3.016627133E-1
2.155685100E1,1.597936153E0,-2.127556324E0,4.474326074E-1
2.157685100E1,9.683959484E-1,-2.062473059E0,4.483925402E-1
2.159685100E1,7.841764390E-2,-2.039085627E0,3.118379712E-1
2.161685100E1,-8.410741687E-1,-1.834725022E0,2.238908410E-1
2.163685100E1,-1.619281530E0,-1.696966171E0,1.664171368E-1
2.165685100E1,-2.468174696E0,-1.773568630E0,2.270324230E-1
2.167685100E1,-3.235578537E0,-1.299607038E0,3.018023372E-1
2.169685100E1,-3.238790035E0,6.636788845E-1,5.689598918E-1
2.171685100E1,-3.327993751E-1,1.139019370E0,4.157199860E-1
2.173685100E1,3.307887554E0,-3.054395914E0,-2.874033749E-1
2.175685100E1,2.860856533E0,-1.742920637E0,-3.363249451E-2
2.177685100E1,2.879793346E-1,1.072592139E0,1.676737815E-1
2.179685100E1,-9.719389677E-1,7.554134130E-1,-4.043229818E-1
2.181685256E1,-7.054446340E-1,2.630019188E0,-4.875751734E-1
2.183885725E1,-4.322308004E-1,1.689024925E0,-5.572836399E-1
2.186085100E1,-4.710818231E-1,-9.752027392E-1,-5.124984980E-1
2.188085256E1,-1.154936671E0,3.242821619E-2,7.625343651E-2
2.190285100E1,-2.435816288E0,1.625809073E0,7.281513810E-1
2.192285100E1,-2.804307699E0,2.249572277E0,6.659303904E-1
2.194285100E1,-2.427718163E0,1.863540411E0,4.962494671E-1
2.196285100E1,-2.363315344E0,-2.314306609E-2,2.964965403E-1
2.198285256E1,-2.446043968E0,-2.763781309E0,-7.853982039E-3
2.200485569E1,-1.911798716E0,-1.606226563E0,-4.934045672E-2
2.202685100E1,-1.118389487E0,1.911310077E0,3.040363453E-2
2.204685100E1,-1.134586215E0,3.185278177E0,5.251695588E-2
2.206685100E1,-1.568754315E0,2.219849348E0,4.790928960E-2
2.208685100E1,-1.609437943E0,5.972691178E-1,-1.864360720E-1
2.210885100E1,-1.329312563E0,6.084217876E-2,-4.019318819E-1
2.212885100E1,-1.429075599E0,5.759237409E-1,-4.645019174E-1
2.214885100E1,-1.376034975E0,6.002536416E-1,-4.712563455E-1
2.216885100E1,-1.284213305E0,3.265161812E-1,-4.925493598E-1
2.218885100E1,-1.139071703E0,4.753404260E-1,-3.949854672E-1
2.220885881E1,-5.635493398E-1,6.619859338E-1,-1.813571602E-1
2.223085100E1,1.963146329E-1,3.079458773E-1,4.813618213E-2
2.225085100E1,4.373096824E-1,-2.291442752E-1,8.751080930E-2
2.227085100E1,1.093658209E0,-9.253560901E-1,1.031489596E-1
2.229085100E1,1.847378612E0,-1.382859230E0,2.193180770E-1
2.231085100E1,3.547626019E0,-1.917697906E0,2.153038085E-1
2.233085100E1,4.013925552E0,-2.062246084E0,2.922030091E-1
2.235085100E1,3.185941458E0,-1.712063313E0,5.320461392E-1
2.237085100E1,2.647490025E0,-5.486791730E-1,4.178143740E-1
2.239085100E1,3.103596926E0,1.158881187E0,1.122944802E-1
2.241085100E1,3.480221510E0,2.206637144E0,-1.307426095E-1
2.243085725E1,2.886320829E0,2.200703144E0,-1.622807086E-1
2.245285100E1,1.896771431E0,1.444294810E0,1.035852879E-1
2.247285100E1,1.156210780E0,2.780309618E-1,3.795043826E-1
2.249484944E1,9.758310318E-1,-5.690471530E-1,6.738891006E-1
2.251485100E1,1.482988834E0,-1.121321678E0,9.764419198E-1
2.253485100E1,1.722605109E0,-1.752467632E0,1.081161618E0
2.255485100E1,1.754527092E0,-2.448853970E0,8.714777827E-1
2.257485100E1,1.396839380E0,-3.049456596E0,2.886425555E-1
2.259485100E1,5.067214370E-1,-2.894052505E0,-1.733286530E-1
2.261485100E1,-4.906993210E-1,-2.300780296E0,-3.508286178E-1
2.263485100E1,-1.453946471E0,-1.907173634E0,-2.242050022E-1
2.265485100E1,-2.636250019E0,-1.619805217E0,2.149372995E-1
2.267485100E1,-3.526647091E0,-1.891936958E-1,4.089131951E-1
2.269485100E1,-2.959764242E0,1.237263918E0,3.705508411E-1
2.271485100E1,3.467969224E-2,5.487315059E-1,-1.261873096E-1
2.273485100E1,3.056315899E0,-3.015946388E0,1.328370124E-1
2.275485100E1,2.031301498E0,-1.217192650E0,1.169702172E0
2.277485100E1,-3.422067165E-1,5.089729428E-1,1.070776939E0
2.279485256E1,-1.904922128E0,2.629303694E0,2.234545052E-1
2.281685100E1,-1.815875411E0,2.915572405E0,-1.071352959E0
2.283685100E1,-5.458168387E-1,2.599266529E0,-1.162511468E0
2.285685100E1,1.349436164E0,-1.031140566E0,-9.648529291E-1
2.287685100E1,-2.849773467E-1,-4.516301155E0,-8.197113276E-1
2.289685100E1,-2.744512796E0,-2.109753937E-1,-1.206022501E-2
2.291685100E1,-2.926707745E0,2.606003523E0,8.696626425E-1
2.293685100E1,-2.014720917E0,2.198085070E0,1.204835653E0
2.295685100E1,-1.566712260E0,1.041682363E0,9.641024470E-1
2.297685100E1,-1.960161805E0,1.791580468E-1,3.592236638E-1
2.299685100E1,-2.316540718E0,7.066838443E-2,-6.136577576E-2
2.301685100E1,-1.494892001E0,3.052406311E-1,-1.462585945E-2
2.303685100E1,-9.899158478E-1,8.719316125E-1,-1.014036313E-2
2.305685100E1,-1.378670454E0,6.900683045E-1,-9.274679422E-2
2.307685100E1,-1.855162859E0,4.577998519E-1,-1.410051435E-1
2.309685100E1,-1.619595766E0,8.766439557E-1,-3.789807856E-1
2.311685100E1,-1.384168267E0,1.288314819E0,-6.261543036E-1
2.313685100E1,-1.453824401E0,1.460404277E0,-7.197737694E-1
2.315685100E1,-1.499150515E0,1.267510414E0,-6.476567984E-1
2.317685100E1,-1.403052688E0,1.068804741E0,-5.524839759E-1
2.319685100E1,-6.265557408E-1,8.684758544E-1,-4.626344144E-1
2.321685100E1,5.475097895E-2,4.973315597E-1,-2.572440803E-1
2.323685100E1,4.473278821E-1,2.296155095E-1,1.567305624E-2
2.325685100E1,1.223161697E0,-4.789532423E-1,4.319340885E-1
2.327685100E1,2.101777792E0,-9.617287517E-1,9.602975845E-1
2.329685100E1,3.566475630E0,-1.474541426E0,1.003389835E0
2.331685256E1,4.218460560E0,-1.691782594E0,8.999266624E-1
2.333885100E1,3.422311306E0,-7.141538262E-1,1.659493923E0
2.335885256E1,2.757969379E0,7.300363183E-1,1.705012083E0
2.338085256E1,2.568252087E0,2.199656010E0,6.191381216E-1
2.340285100E1,2.756695271E0,2.585757732E0,-2.029119730E-1
2.342285100E1,1.997215152E0,1.903944731E0,-1.308996975E-2
2.344285100E1,8.041255474E-1,1.361705810E-1,8.358381987E-1
2.346285100E1,8.261166811E-1,-6.117378920E-2,1.283619881E0
2.348285256E1,1.376244426E0,5.054647923E-1,9.635962844E-1
2.350485100E1,1.778316021E0,-8.611279726E-1,2.716954052E-1
2.352485100E1,1.947665215E0,-2.747287750E0,-1.333606094E-1
2.354485100E1,1.900331974E0,-3.168418407E0,-2.286381274E-1
2.356485100E1,1.194224119E0,-2.792317390E0,-3.116285503E-1
2.358485100E1,3.665191471E-4,-2.268613815E0,-3.437426090E-1
2.360485100E1,-1.110046864E0,-1.647433758E0,-2.838603556E-1
2.362485100E1,-2.020236015E0,-1.163052559E0,-5.033529550E-2
2.364485100E1,-3.263207197E0,-5.774073005E-1,3.758741021E-1
2.366485100E1,-3.702681065E0,1.179144457E-1,3.917740583E-1
2.368485100E1,-2.126736164E0,2.275438070E0,1.796292812E-1
2.370485100E1,1.527058363E0,-1.248259425E0,-1.768018454E-1
2.372485100E1,2.328792810E0,-3.462733269E0,6.815510988E-1
2.374485100E1,3.272143304E-1,-1.500459611E-1,5.391845703E-1
2.376485100E1,-1.310881853E0,1.395722389E0,-1.031053305E0
2.378485100E1,-1.899511576E0,2.022382736E0,-1.321161866E0
2.380485413E1,-1.168567777E0,2.992698669E0,-4.149171114E-1
2.382685100E1,3.394316435E-1,1.115247965E0,-2.135584801E-1
2.384685100E1,-6.445675492E-1,1.244716406E0,-7.241021991E-1
2.386685100E1,-2.378133297E0,1.706652761E0,-4.029267132E-1
2.388685100E1,-2.780745745E0,1.700282335E0,-2.859023809E-1
2.390685100E1,-1.900960207E0,1.794791818E0,-2.639985085E-1
2.392685100E1,-1.137396216E0,2.253010511E0,4.939281940E-2
2.394685100E1,-1.297652245E0,1.907418013E0,3.130771518E-1
2.396685256E1,-2.577781439E0,-7.378205061E-1,1.204626262E-1
2.398885256E1,-2.205607414E0,-1.695831656E0,-1.562767774E-1
2.400885256E1,-1.150817752E0,-4.175001979E-1,-1.095194072E-1
2.403085100E1,-1.408184052E0,7.812966108E-1,-4.358087108E-2
2.405085256E1,-1.931102037E0,1.279343843E0,-3.752457909E-3
2.407285100E1,-1.712709069E0,1.861969590E0,-3.407406211E-1
2.409285100E1,-1.311213493E0,1.669355035E0,-6.273062229E-1
2.411285100E1,-1.311806917E0,7.387978435E-1,-6.181257963E-1
2.413285100E1,-1.531962752E0,2.186723053E-1,-5.957157612E-1
2.415285100E1,-1.038488388E0,4.816236198E-1,-4.293335378E-1
2.417285100E1,-3.649483323E-1,5.652772188E-1,-1.477421224E-1
2.419285100E1,-3.473205119E-2,5.840046406E-1,-7.796385884E-2
2.421484944E1,2.928487957E-1,3.434633315E-1,-1.310218722E-1
2.423485100E1,8.167791963E-1,-1.694714725E-1,7.497934252E-2
2.425485100E1,1.904695272E0,-1.100307941E0,3.096737564E-1
2.427485100E1,2.629129171E0,-2.021806955E0,6.427000165E-1
2.429485100E1,3.774344206E0,-2.498054743E0,7.409969568E-1
2.431485100E1,4.193048954E0,-1.794704556E0,1.018486857E0
2.433685100E1,3.107837915E0,-8.761553094E-3,1.298420191E0
2.435685100E1,2.508090496E0,1.070550084E0,5.903750658E-1
2.437685100E1,2.739538670E0,1.779677272E0,-8.449138701E-2
2.439885100E1,2.904891014E0,9.438391328E-1,-7.611380517E-2
2.441885100E1,2.328129530E0,-5.108578876E-2,1.021541208E-1
2.444085100E1,1.580064058E0,-5.299343467E-1,2.564412355E-1
2.446085100E1,1.632371545E0,-1.209862232E-1,2.521302700E-1
2.448285100E1,2.021492720E0,3.384542465E-1,9.471901506E-2
2.450285100E1,2.067202806E0,-6.222622395E-1,3.054326167E-3
2.452285100E1,1.782696724E0,-2.580713749E0,1.580744684E-1
2.454484944E1,1.580954194E0,-3.081396341E0,4.108679593E-1
2.456485100E1,8.842536211E-1,-2.679289818E0,3.140370846E-1
2.458485100E1,-1.113170981E-1,-2.293624401E0,1.000597253E-1
2.460684944E1,-9.950122237E-1,-1.677121758E0,-3.492403775E-2
2.462685100E1,-1.890942097E0,-1.326869130E0,1.500459611E-1
2.464884944E1,-3.372482300E0,-8.035845160E-1,7.208558917E-1
2.466884944E1,-3.601748705E0,9.162629247E-1,6.913248897E-1
2.468884944E1,-1.124358535E0,2.513274193E0,4.194898903E-1
2.470885100E1,2.445485592E0,-2.055072784E0,-2.086017579E-1
2.472885256E1,2.593349934E0,-2.554568529E0,2.763554454E-1
2.475085100E1,-1.745329238E-2,6.269397140E-1,2.533519864E-1
2.477085100E1,-1.224104166E0,1.748645425E0,-6.447770000E-1
2.479085100E1,-1.561982393E0,3.209660530E0,-9.507855773E-1
2.481085256E1,-9.760753512E-1,3.489558935E0,-9.761975408E-1
2.483285100E1,1.867502346E-3,9.583777189E-1,-7.809126377E-1
2.485285100E1,-1.165530905E-1,-1.053690195E0,-7.069455981E-1
2.487285100E1,-2.000321865E0,3.798185587E-1,-6.768386811E-2
2.489285100E1,-2.791060686E0,2.338078022E0,6.566277742E-1
2.491285100E1,-2.033535480E0,2.766695976E0,8.154352903E-1
2.493285100E1,-1.384744167E0,1.912130356E0,7.871260643E-1
2.495285100E1,-1.878393173E0,5.836032033E-1,5.155004263E-1
2.497285100E1,-2.679569006E0,-1.483006328E-1,-1.184729487E-1
2.499285100E1,-2.035315752E0,4.995306730E-1,-9.766862541E-2
2.501285100E1,-1.128180861E0,1.421553254E0,-6.469935179E-2
2.503285100E1,-1.424258471E0,1.467612505E0,-2.305579931E-1
2.505285100E1,-2.119213581E0,1.107254386E0,-3.590665758E-1
2.507285100E1,-2.014790535E0,8.581085801E-1,-6.092246175E-1
2.509285100E1,-1.114148378E0,6.467666626E-1,-8.496786356E-1
2.511285100E1,-1.118756056E0,7.678750753E-1,-8.449138999E-1
2.513285100E1,-1.413559556E0,7.113438249E-1,-6.794741154E-1
2.515285100E1,-1.063411713E0,4.897568524E-1,-5.940053463E-1
2.517285100E1,-6.147747636E-1,3.770434856E-1,-4.110774100E-1
2.519285100E1,-3.078237176E-1,2.795493901E-1,-2.750639021E-1
2.521285100E1,1.151917316E-2,-1.254193634E-1,-2.706482112E-1
2.523285100E1,-4.415683076E-2,-3.364645839E-1,-1.222428605E-1
2.525285100E1,7.973536849E-1,-9.860063195E-1,2.352703810E-1
2.527285100E1,1.561877728E0,-1.748610497E0,5.511226058E-1
2.529285100E1,2.830801964E0,-2.315720320E0,6.102020144E-1
2.531285100E1,4.188283920E0,-3.182834864E0,4.198389649E-1
2.533285100E1,3.837368250E0,-3.119392157E0,5.582435727E-1
2.535485100E1,2.874382734E0,-1.297512650E0,7.828674316E-1
2.537485100E1,2.856929541E0,6.664364934E-1,3.788062632E-1
2.539485725E1,3.229120970E0,1.772346973E0,3.036872856E-2
2.541685100E1,2.902499914E0,9.767037034E-1,-5.883504823E-2
2.543685100E1,2.386196613E0,1.844987571E-1,-6.386159360E-2
2.545685100E1,1.819086909E0,-3.957184851E-1,5.586798862E-2
2.547685100E1,1.474733353E0,-5.342627168E-1,2.279225439E-1
2.549685100E1,1.680786967E0,-5.160240531E-1,3.667635024E-1
2.551685100E1,1.817725539E0,-1.515731215E0,5.149244666E-1
2.553685100E1,1.742676377E0,-2.503308296E0,5.272290707E-1
2.555685100E1,1.515940666E0,-2.893179893E0,4.885176420E-1
2.557685100E1,9.114633203E-1,-2.999173880E0,3.192730844E-1
2.559685100E1,-1.037947312E-1,-2.602320910E0,6.398376822E-2
2.561685100E1,-1.280548096E0,-2.031929731E0,-3.839724511E-2
2.563685100E1,-2.458156586E0,-1.391289234E0,1.668360233E-1
2.565685256E1,-3.556666851E0,-5.860815570E-2,5.751557946E-1
2.567885412E1,-3.541360378E0,1.408445835E0,9.049881101E-1
2.570085100E1,-1.233912826E0,9.592503905E-1,1.599768847E-1
2.572284944E1,2.689779282E0,-1.960685372E0,-2.696184516E-1
2.574285100E1,2.655308962E0,-2.023726702E0,3.837455511E-1
2.576285100E1,2.871066518E-2,4.307298064E-1,1.669058353E-1
2.578484944E1,-1.048401833E0,1.891692519E0,-6.667855978E-1
2.580485413E1,-1.194136858E0,3.125622988E0,-7.176444530E-1
2.582685100E1,-2.986432910E-1,2.900841951E0,-6.585825086E-1
2.584685100E1,-5.146103501E-1,-3.354522958E-2,-5.859943032E-1
2.586884944E1,-8.481078148E-1,-3.239976883E0,-6.122440696E-1
2.588884944E1,-2.434123516E0,1.791231334E-1,-2.455154657E-1
2.590885100E1,-2.701228619E0,2.683426380E0,5.000019073E-1
2.592885100E1,-1.867415071E0,2.905379772E0,9.051975608E-1
2.594885412E1,-1.561633348E0,2.058109760E0,1.040565252E0
2.597084944E1,-2.688278198E0,-2.608568966E-1,5.331457257E-1
2.599085100E1,-2.658415794E0,-7.164227366E-1,-6.056292355E-2
2.601085100E1,-1.559538960E0,2.561270595E-1,-5.515240505E-2
2.603085100E1,-1.125021815E0,1.434730411E0,-7.579965144E-2
2.605085100E1,-1.589994907E0,1.995644331E0,-1.751088798E-1
2.607284944E1,-2.024075747E0,1.586591601E0,-3.137054741E-1
2.609284944E1,-1.729324579E0,1.020179868E0,-6.388777494E-1
2.611284944E1,-1.489795566E0,9.236631393E-1,-8.750906587E-1
2.613284944E1,-1.572279811E0,8.646011949E-1,-8.225038648E-1
2.615285100E1,-1.373277426E0,9.013403654E-1,-6.237981319E-1
2.617285100E1,-1.039203882E0,6.644642949E-1,-4.542742968E-1
2.619285100E1,-6.178814769E-1,1.830850393E-1,-3.051882684E-1
2.621285100E1,8.871508390E-2,-2.250776589E-1,-2.632130980E-1
2.623285100E1,4.387059510E-1,-4.718846679E-1,-4.207988828E-2
2.625285100E1,1.259499431E0,-9.795311093E-1,2.807885706E-1
2.627285100E1,1.972518802E0,-1.225064039E0,7.280291915E-1
2.629285100E1,3.385135889E0,-2.023360252E0,9.139416814E-1
2.631285100E1,4.056668758E0,-2.212449074E0,1.023461103E0
2.633484944E1,3.502875805E0,-1.229497194E0,9.166120291E-1
2.635484944E1,2.743064165E0,1.272170544E-1,5.593605638E-1
2.637485100E1,2.633387566E0,1.243826389E0,8.119271696E-2
2.639485100E1,2.731859207E0,1.508156419E0,-5.146975815E-2
2.641485100E1,2.579579115E0,8.591208458E-1,1.689653248E-1
2.643485100E1,1.971942782E0,8.495041132E-1,2.742435932E-1
2.645485100E1,1.327968717E0,5.091823339E-1,3.627492189E-1
2.647485100E1,1.424380660E0,1.900314540E-1,5.101946592E-1
2.649485100E1,1.886107445E0,-3.860144615E-1,4.614301324E-1
2.651485100E1,1.947106719E0,-1.368966460E0,3.883008361E-1
2.653485100E1,1.663927078E0,-2.333383083E0,4.060159326E-1
2.655485100E1,1.206825376E0,-2.791339874E0,4.250574708E-1
2.657485100E1,4.829151630E-1,-2.800485611E0,2.936691046E-1
2.659485100E1,-3.548603356E-1,-2.367207527E0,1.676388681E-1
2.661485100E1,-1.041176200E0,-2.103156567E0,6.504841894E-2
2.663485100E1,-2.020201206E0,-1.958800435E0,2.023185641E-1
2.665485100E1,-3.233641386E0,-1.166909695E0,4.850968122E-1
2.667485100E1,-3.259768963E0,1.049309373E0,5.278224945E-1
2.669485100E1,-2.833367586E-1,1.460770726E0,3.067416251E-1
2.671485100E1,3.073420048E0,-3.435837746E0,-9.182177484E-2
2.673685100E1,2.154940605E0,-1.499726534E0,4.894601405E-1
2.675685100E1,-1.029220670E-1,1.278279185E0,-2.691297606E-2
2.677685100E1,-7.928158045E-1,1.533393860E0,-8.490503430E-1
2.679685100E1,-6.076014638E-1,2.769383669E0,-9.079726338E-1
2.681685100E1,-4.830198586E-1,1.684539437E0,-8.600982428E-1
2.683685100E1,-9.766862541E-2,-1.432496428E0,-9.206611514E-1
2.685685100E1,-1.096380949E0,-7.929903269E-1,-5.585751534E-1
2.687685100E1,-3.159028530E0,1.472202659E0,4.000992775E-1
2.689685100E1,-3.009401321E0,2.057044983E0,8.678998947E-1
2.691886506E1,-2.249135971E0,1.717561007E0,8.566774130E-1
2.693887600E1,-2.197125196E0,3.838153481E-1,6.763325334E-1
2.696085100E1,-2.815634966E0,-1.339383125E0,1.242674422E-2
2.698085100E1,-2.246622801E0,-5.144357681E-1,-1.468694508E-1
2.700085100E1,-1.480597734E0,1.102489591E0,6.066764519E-2
2.702085100E1,-1.445935488E0,1.860468626E0,2.004336119E-1
2.704086506E1,-1.846244216E0,1.696739316E0,-6.202900037E-2
2.706285100E1,-1.992851853E0,1.411081195E0,-3.873234689E-1
2.708484944E1,-1.337323666E0,1.038331270E0,-6.277600527E-1
2.710484944E1,-1.036481261E0,1.229514599E0,-7.148519754E-1
2.712484944E1,-1.213998675E0,1.279692888E0,-6.964038014E-1
2.714484944E1,-1.272083163E0,9.048833847E-1,-5.492202044E-1
2.716484944E1,-1.023391247E0,4.315326512E-1,-3.900636435E-1
2.718484944E1,-3.750537932E-1,-1.104618907E-1,-2.351482064E-1
2.720484944E1,2.827433404E-3,-4.423362315E-1,-1.991420686E-1
2.722485100E1,1.240929123E-2,-4.154930711E-1,8.136724681E-2
2.724685100E1,9.168040156E-1,-7.604748607E-1,3.617020249E-1
2.726685100E1,1.718468666E0,-1.114270568E0,4.638212323E-1
2.728885100E1,3.152919769E0,-2.013045311E0,6.524913311E-1
2.731084944E1,3.917600870E0,-2.385166883E0,7.941597104E-1
2.733084944E1,3.222436190E0,-1.908918977E0,8.989143968E-1
2.735085100E1,2.582581043E0,-1.011557937E0,6.242693663E-1
2.737284944E1,2.835374594E0,3.432015479E-1,5.789257213E-2
2.739284944E1,3.126600266E0,1.235954881E0,-2.327571064E-1
2.741284944E1,2.798635483E0,1.498068452E0,-8.522442728E-2
2.743284944E1,2.122861385E0,1.235501170E0,1.000946313E-1
2.745284944E1,1.392999649E0,1.491907388E-1,3.090105355E-1
2.747284944E1,1.454766870E0,-3.186622262E-1,5.913524628E-1
2.749285100E1,1.939654231E0,-5.808106661E-1,6.888814569E-1
2.751285100E1,1.959638238E0,-1.732588291E0,6.250198483E-1
2.753285100E1,1.761316419E0,-2.954039574E0,5.747194886E-1
2.755484944E1,1.380049229E0,-3.089040756E0,4.166275561E-1
2.757485100E1,5.109451413E-1,-2.624870539E0,8.874998987E-2
2.759485100E1,-5.334947705E-1,-2.207544804E0,-5.391322076E-2
2.761485100E1,-1.479812264E0,-1.818057060E0,-2.415535599E-2
2.763485100E1,-2.593768597E0,-1.559346914E0,2.890788913E-1
2.765485100E1,-3.447112560E0,-2.328967303E-1,6.470459104E-1
2.767485100E1,-2.386947155E0,2.512192011E0,7.512944341E-1
2.769684944E1,1.375912905E0,-1.315978263E-2,-1.629439443E-1
2.771685100E1,3.350752831E0,-3.514552116E0,3.721041977E-2
2.773884944E1,1.196388245E0,-4.769286811E-1,5.095489025E-1
2.775884944E1,-6.361201406E-1,1.051683068E0,-1.869771183E-1
2.777885100E1,-1.485170484E0,2.452571630E0,-7.418696284E-1
2.779887600E1,-1.252622843E0,3.716765881E0,-1.024211526E0
2.782085100E1,-6.724928021E-1,1.705047011E0,-9.200153947E-1
2.784085569E1,-1.010371074E-1,-1.309136510E0,-7.218332887E-1
2.786284944E1,-1.817882538E0,-1.411273181E-1,3.321361542E-2
2.788285100E1,-3.144350290E0,2.314306498E0,8.779703975E-1
2.790285100E1,-2.539122343E0,3.130893707E0,9.449735880E-1
2.792285100E1,-1.791213989E0,2.221001387E0,8.116478920E-1
2.794484944E1,-1.932201624E0,1.343729049E-1,2.393020988E-1
2.796484944E1,-2.425658703E0,-8.178961873E-1,-2.231403440E-1
2.798484944E1,-1.841060519E0,-1.136034802E-1,1.094321441E-2
2.800485725E1,-1.384011149E0,1.121251822E0,1.717403978E-1
2.802685100E1,-1.655252814E0,1.702010155E0,2.975786291E-2
2.804884944E1,-2.158954859E0,1.592333674E0,-1.232202426E-1
2.806885100E1,-2.104832172E0,1.171709299E0,-4.268726408E-1
2.808885725E1,-1.304476500E0,8.592604995E-1,-8.385260105E-1
2.811084944E1,-1.248119831E0,9.330704808E-1,-9.947503805E-1
2.813084944E1,-1.288454413E0,1.175793409E0,-9.472600222E-1
2.815085100E1,-9.147444963E-1,8.983907700E-1,-6.844483018E-1
2.817085100E1,-6.756693125E-1,4.224918485E-1,-2.306627184E-1
2.819289162E1,1.481609941E-1,1.550375968E-1,6.852162629E-2
2.821484944E1,2.891137898E-1,-2.767917514E-1,1.620712727E-1
2.823484944E1,9.509775639E-1,-7.940201163E-1,1.775872558E-1
2.825484944E1,1.965624690E0,-1.285801530E0,3.734830022E-1
2.827484944E1,3.219888210E0,-1.841182709E0,5.108927488E-1
2.829484944E1,4.332692623E0,-2.231159210E0,4.638386965E-1
2.831484944E1,3.594610214E0,-2.032837391E0,8.873602748E-1
2.833484944E1,2.654191971E0,-5.408949852E-1,1.106468916E0
2.835484944E1,2.634592056E0,1.232673645E0,5.238431096E-1
2.837484944E1,2.787570000E0,1.565019250E0,8.393288404E-2
2.839484944E1,2.568304300E0,3.232524395E-1,1.206371561E-1
2.841484944E1,1.945885062E0,-2.234370559E-1,2.693217695E-1
2.843484944E1,1.460788250E0,-3.762057126E-1,4.420569837E-1
2.845485100E1,1.573937893E0,-1.831024885E-1,5.115908980E-1
2.847685100E1,1.831635833E0,-2.886949182E-1,5.647711158E-1
2.849885100E1,1.780340552E0,-1.226966500E0,5.711590052E-1
2.851885569E1,1.448134542E0,-2.271877527E0,6.422113776E-1
2.854084944E1,1.122072220E0,-2.576175690E0,4.950277209E-1
2.856084944E1,6.378305554E-1,-2.545527697E0,6.155776232E-2
2.858084944E1,-1.360658705E-1,-2.251858711E0,-1.745852828E-1
2.860085100E1,-9.640849829E-1,-2.224195242E0,-2.199638486E-1
2.862285100E1,-2.140192509E0,-1.860713005E0,-1.820378378E-2
2.864285100E1,-3.123353958E0,-3.950029016E-1,3.046123087E-1
2.866484944E1,-2.862601757E0,1.481208563E0,5.403888226E-1
2.868484944E1,1.683021039E-1,1.317898184E-1,-6.295402348E-2
2.870484944E1,3.201858759E0,-2.809718370E0,7.248352468E-2
2.872484944E1,2.033954382E0,-7.763050199E-1,8.914617896E-1
2.874485100E1,-9.632471949E-2,4.647811651E-1,5.563062429E-1
2.876684944E1,-1.598826289E0,2.522664070E0,-8.810421824E-2
2.878684944E1,-1.493478179E0,3.298881769E0,-6.744824648E-1
2.880684944E1,-5.008745790E-1,3.300941229E0,-9.930399656E-1
2.882684944E1,5.707226694E-2,-2.936917782E0,-1.432199717E0
2.884684944E1,-3.640407622E-1,-4.424008369E0,-1.494001865E0
2.886685100E1,-2.726884842E0,9.556201100E-1,-8.445648104E-2
2.888885569E1,-3.132115602E0,3.927654028E0,1.141218424E0
2.891084944E1,-2.343889952E0,3.270485163E0,1.365213990E0
2.893084944E1,-1.903787732E0,1.449460983E0,1.036254287E0
2.895084944E1,-2.429725170E0,5.262167752E-2,2.600540593E-2
2.897084944E1,-2.062124014E0,7.103490178E-3,-3.590491414E-1
2.899085100E1,-1.348179579E0,6.607642174E-1,-9.145525098E-2
2.901285100E1,-1.271908641E0,1.444643974E0,2.417281084E-2
2.903484944E1,-1.712028384E0,1.615581512E0,-1.546187252E-1
2.905484944E1,-1.837465167E0,1.322383642E0,-3.988251984E-1
2.907484944E1,-1.522485614E0,1.279954672E0,-7.551864982E-1
2.909485100E1,-1.433281779E0,1.183979034E0,-9.333148003E-1
2.911684944E1,-1.318316936E0,9.252339602E-1,-7.973710895E-1
2.913684944E1,-1.078264356E0,6.035522819E-1,-5.349085331E-1
2.915684944E1,-8.143357038E-1,5.071403384E-1,-3.517362177E-1
2.917684944E1,-3.604104817E-1,4.708898365E-1,-3.414736688E-1
2.919684944E1,1.158724055E-1,-1.225395650E-1,-2.470164448E-1
2.921684944E1,2.727774978E-1,-6.017720699E-1,-1.531700939E-1
2.923684944E1,1.065698028E0,-5.542816520E-1,2.889043391E-1
2.925684944E1,2.053275108E0,-9.491624236E-1,7.063871026E-1
2.927684944E1,3.454006672E0,-2.212117434E0,9.372069240E-1
2.929684944E1,3.810978651E0,-2.490445137E0,8.112290502E-1
2.931684944E1,3.186517477E0,-1.491820216E0,6.483200192E-1
2.933684944E1,2.761931181E0,3.346319795E-1,2.578898370E-1
2.935684944E1,2.943288326E0,1.628723741E0,-1.691049486E-1
2.937684944E1,2.875272751E0,9.697049260E-1,8.813912980E-3
2.939684944E1,2.340416670E0,5.297597647E-1,2.160194069E-1
2.941684944E1,1.908046246E0,1.458257437E0,2.410823256E-1
2.943684944E1,1.344496965E0,1.208884835E0,2.499311417E-1
2.945684944E1,1.395949244E0,-6.422811747E-2,5.266531110E-1
2.947684944E1,2.042872906E0,-9.161581993E-1,5.678254366E-1
2.949685100E1,2.163248301E0,-1.570168018E0,5.687853694E-1
2.951685100E1,1.865163565E0,-2.192709446E0,5.219407082E-1
2.953885100E1,1.186370134E0,-2.567745924E0,4.043578804E-1
2.956084944E1,3.455228209E-1,-2.580765963E0,2.836334705E-1
2.958085100E1,-4.856553078E-1,-2.262348175E0,2.307499796E-1
2.960085100E1,-1.406229258E0,-2.105949163E0,2.491632104E-1
2.962284944E1,-2.695695877E0,-1.654694319E0,3.956835866E-1
2.964284944E1,-3.352707624E0,-1.415112913E-1,6.263462901E-1
2.966285100E1,-2.611483812E0,2.019695044E0,7.138920426E-1
2.968484944E1,9.815382361E-1,-2.534043491E-1,-1.556833647E-2
2.970484944E1,3.087208271E0,-3.106249809E0,1.910786480E-1
2.972484944E1,1.412302971E0,-7.175397873E-1,5.892231464E-1
2.974484944E1,-6.868219376E-1,7.524463534E-1,-2.273989469E-1
2.976485100E1,-1.129524708E0,1.485187888E0,-6.748664379E-1
2.978684944E1,-6.539050341E-1,3.076038122E0,-1.826836169E-1
2.980684944E1,-6.568197608E-1,2.205066442E0,-4.786216319E-1
2.982684944E1,-4.486543238E-1,-1.000213265E0,-9.674360156E-1
2.984684944E1,-1.506009698E0,-1.322837353E0,-1.021820426E0
2.986684944E1,-3.309074402E0,1.686145186E0,2.015855350E-2
2.988684944E1,-3.094521046E0,3.032300234E0,6.081948876E-1
2.990685100E1,-2.302350998E0,2.839964867E0,8.324347734E-1
2.992885100E1,-2.260480642E0,1.228484869E0,5.368632674E-1
2.995085100E1,-2.133176327E0,1.373923123E-1,-2.848726511E-1
2.997285100E1,-1.387013197E0,5.305975676E-1,-8.988445252E-2
2.999285100E1,-1.277249336E0,1.043043613E0,6.101670861E-2
3.001285100E1,-1.581861734E0,1.443317533E0,-6.359979510E-2
3.003484944E1,-1.950614929E0,1.416579008E0,-2.032959461E-1
3.005484944E1,-1.699217677E0,1.117447019E0,-3.942175210E-1
3.007484944E1,-1.334234357E0,1.210490584E0,-7.507010102E-1
3.009484944E1,-1.287180305E0,1.113799334E0,-9.619905949E-1
3.011484944E1,-1.358965755E0,7.163354754E-1,-9.488307834E-1
3.013484944E1,-1.348720670E0,5.679475665E-1,-7.425503135E-1
3.015484944E1,-7.453952432E-1,4.383569062E-1,-5.045572519E-1
3.017484944E1,-1.632406414E-1,2.632305622E-1,-2.543642819E-1
3.019484944E1,2.386039644E-1,-1.162563786E-1,-7.161086053E-2
3.021484944E1,4.782725871E-1,-3.867824078E-1,5.764822662E-2
3.023485100E1,1.532154679E0,-8.870635629E-1,3.706904650E-1
3.025684944E1,2.815809488E0,-1.460927844E0,7.183426023E-1
3.027684944E1,4.185456753E0,-1.832979679E0,6.304304004E-1
3.029684944E1,4.005094051E0,-1.751891732E0,6.304478049E-1
3.031684944E1,2.724231958E0,-6.170611382E-1,8.374787569E-1
3.033684944E1,2.162271023E0,5.320985317E-1,7.466169596E-1
3.035685100E1,2.862025738E0,1.105509043E0,3.659082651E-1
3.037885569E1,2.663773775E0,-3.882659376E-1,3.068463206E-1
3.040084944E1,2.033640146E0,-6.591061354E-1,2.930582464E-1
3.042084944E1,1.601269722E0,3.457497060E-2,3.093770742E-1
3.044086038E1,1.250894904E0,2.901260853E-1,5.441063643E-1
3.046284944E1,1.503880382E0,-4.982915148E-2,7.344868779E-1
3.048285100E1,1.710335374E0,-7.206988335E-1,8.321555257E-1
3.050484944E1,1.525784254E0,-2.037584543E0,9.220749140E-1
3.052484944E1,1.159875989E0,-3.197198868E0,7.154104710E-1
3.054484944E1,6.339734197E-1,-3.266750097E0,2.753780484E-1
3.056484944E1,-1.133765876E-1,-2.842565298E0,1.127482671E-2
3.058484944E1,-7.646113038E-1,-2.491317987E0,-1.000946313E-1
3.060485569E1,-1.442933559E0,-2.018229008E0,-8.847074211E-2
3.062684944E1,-2.554411411E0,-8.229227662E-1,1.324530393E-1
3.064684944E1,-2.797570705E0,1.086781621E0,3.802548945E-1
3.066684944E1,-9.928305149E-1,1.581006527E0,1.269203424E-1
3.068684944E1,2.335320234E0,-8.675682545E-1,-2.671400905E-1
3.070684944E1,2.973761797E0,-1.817830205E0,4.939107299E-1
3.072684944E1,6.158917546E-1,5.769534707E-1,7.768460512E-1
3.074684944E1,-9.649576545E-1,1.678360939E0,-2.984687686E-1
3.076684944E1,-1.771474242E0,2.826944590E0,-1.008800268E0
3.078684944E1,-1.043270588E0,4.098992825E0,-1.374202490E0
3.080684944E1,-2.387784868E-1,-3.038618267E-1,-1.081528187E0
3.082684944E1,1.947612911E-1,-2.843141317E0,-8.104261756E-1
3.084684944E1,-1.912584186E0,9.805259854E-2,-8.538150787E-2
3.086684944E1,-3.413881540E0,2.720025778E0,7.705279589E-1
3.088684944E1,-2.738299370E0,2.967461109E0,8.695579171E-1
3.090685100E1,-2.008071184E0,1.670890927E0,8.155225515E-1
3.092886350E1,-2.329176903E0,-5.230576992E-1,2.427229434E-1
3.095085881E1,-2.352895737E0,-6.759136319E-1,-3.916169703E-1
3.097284944E1,-1.404693365E0,2.702816725E-1,-7.552039623E-2
3.099285100E1,-1.199023724E0,1.222795129E0,1.359611452E-1
3.101485100E1,-1.785646319E0,2.027863026E0,2.722713538E-2
3.103684944E1,-2.163632393E0,1.282537699E0,-2.916619778E-1
3.105684944E1,-1.681136012E0,6.530498266E-1,-7.429866791E-1
3.107684944E1,-1.247474074E0,8.445647955E-1,-1.010336161E0
3.109684944E1,-1.191518784E0,1.028487563E0,-9.901252985E-1
3.111685100E1,-1.150730491E0,7.024251819E-1,-7.438418865E-1
3.113885100E1,-9.562135339E-1,2.600889504E-1,-3.547207117E-1
3.115887131E1,-2.853787839E-1,2.119004279E-1,-1.989500821E-1
3.118085100E1,2.135933936E-1,-2.317622751E-1,-9.890780598E-2
3.120284944E1,5.275257826E-1,-4.338190258E-1,5.077162758E-2
3.122284944E1,1.525417805E0,-8.085412383E-1,3.602184951E-1
3.124285100E1,2.496257067E0,-1.590274215E0,6.179338098E-1
3.126484944E1,3.973643541E0,-2.317413330E0,7.368605733E-1
3.128484944E1,3.692191601E0,-2.254790783E0,1.045591831E0
3.130484944E1,2.843123913E0,-9.175021052E-1,1.246845722E0
3.132484944E1,2.856039286E0,7.664787769E-1,8.340055943E-1
3.134484944E1,3.157579899E0,1.541544557E0,2.681523860E-1
3.136484944E1,2.827014446E0,7.276626825E-1,1.320690662E-1
3.138485100E1,2.320729494E0,6.864205599E-1,2.824466228E-1
3.140485413E1,1.665305853E0,6.283534169E-1,4.157548845E-1
3.142684944E1,1.430786014E0,-2.760063708E-1,6.369055510E-1
3.144684944E1,2.024878740E0,-6.443930268E-1,6.799802780E-1
3.146684944E1,2.293641806E0,-1.189843297E0,5.224468708E-1
3.148684944E1,2.020794630E0,-2.184960127E0,4.396484494E-1
3.150685100E1,1.535226464E0,-2.501859665E0,4.163308442E-1
3.152685100E1,9.981538057E-1,-2.588602543E0,2.478891164E-1
3.154884944E1,-8.499753661E-3,-2.612862587E0,-8.726646192E-4
3.156885100E1,-1.035538793E0,-2.238559246E0,-1.252448261E-1
3.159084944E1,-2.345198870E0,-1.811354995E0,-2.345722541E-2
3.161085100E1,-3.532389402E0,-8.099549413E-1,4.109901190E-1
3.163284944E1,-3.493084431E0,1.164239287E0,9.215687513E-1
3.165284944E1,-8.146149516E-1,1.614045620E0,5.333377123E-1
3.167284944E1,3.112323523E0,-2.072403908E0,2.506292798E-2
3.169284944E1,3.064379215E0,-1.885932922E0,7.463551164E-1
3.171284944E1,8.281587064E-2,2.028247118E-1,3.823492825E-1
3.173284944E1,-1.163977504E0,1.462376475E0,-4.785518348E-1
3.175284944E1,-1.699077964E0,2.291948795E0,-1.027405500E0
3.177284944E1,-1.026236176E0,3.325131416E0,-1.270425200E0
3.179284944E1,7.204718888E-2,-8.714429289E-2,-1.329120636E0
3.181284944E1,4.037993848E-1,-1.461678386E0,-1.315315008E0
3.183284944E1,-2.209953308E0,1.090115190E0,-3.180164397E-1
3.185284944E1,-3.796335459E0,3.565358639E0,6.935763955E-1
3.187284944E1,-3.048863411E0,3.939365149E0,8.493295908E-1
3.189284944E1,-2.047760010E0,2.972644806E0,6.650751829E-1
3.191284944E1,-1.811616898E0,1.199913859E0,3.168470860E-1
3.193284944E1,-2.490864038E0,-4.934918582E-1,-3.216292858E-1
3.195285412E1,-1.627170444E0,2.378709167E-1,-2.828305960E-1
3.197485100E1,-9.957975745E-1,1.246915579E0,-4.206243530E-2
3.199485100E1,-1.347656012E0,1.482884049E0,-1.285609454E-1
3.201485100E1,-1.992118835E0,1.472167730E0,-2.635796368E-1
3.203485100E1,-2.005749941E0,1.366523027E0,-4.353025556E-1
3.205485100E1,-1.235762954E0,1.149299264E0,-6.657558680E-1
3.207684944E1,-8.765392303E-1,6.370975375E-1,-7.984881401E-1
3.209684944E1,-1.056971431E0,1.852667034E-1,-7.284131646E-1
3.211684944E1,-9.934064746E-1,7.295476273E-3,-5.798332691E-1
3.213684944E1,-7.390422225E-1,3.082251363E-2,-5.064945221E-1
3.215684944E1,-3.142988980E-1,1.341634542E-1,-4.192630053E-1
3.217684944E1,6.461209059E-2,-1.733286530E-1,-2.041337043E-1
3.219684944E1,8.426449448E-2,-4.880464077E-1,-8.203047328E-4
3.221684944E1,9.147444963E-1,-6.824935675E-1,3.296577930E-1
3.223684944E1,2.359056711E0,-1.610973835E0,4.687954485E-1
3.225684944E1,3.577244282E0,-3.039246559E0,4.507487416E-1
3.227684944E1,3.792914629E0,-2.436095715E0,7.564431429E-1
3.229684944E1,3.056211233E0,-1.119890451E0,9.310458899E-1
3.231684944E1,2.539471388E0,3.932924867E-1,6.702238917E-1
3.233684944E1,2.882358789E0,1.197697282E0,2.676287889E-1
3.235684944E1,2.947494507E0,6.014928222E-1,8.625417203E-2
3.237684944E1,2.496501446E0,4.072027802E-1,2.279923558E-1
3.239685100E1,1.909564734E0,5.417327285E-1,3.621558249E-1
3.241885100E1,1.684172869E0,1.912531853E-1,5.665163994E-1
3.244084944E1,2.182394505E0,-5.183802247E-1,4.750088155E-1
3.246085100E1,2.443146706E0,-1.582018733E0,1.764702350E-1
3.248285100E1,2.307150841E0,-2.761390209E0,1.545838118E-1
3.250285100E1,1.923876405E0,-3.380074501E0,3.650879860E-1
3.252484944E1,1.195777416E0,-3.163513899E0,2.681349218E-1
3.254484944E1,2.884505689E-1,-2.527341366E0,1.276708394E-1
3.256484944E1,-8.007745147E-1,-1.641255260E0,1.413018554E-1
3.258484944E1,-2.019223690E0,-1.054667592E0,3.025702834E-1
3.260485100E1,-3.285460234E0,-1.732239276E-1,6.322978735E-1
3.262485100E1,-3.649256468E0,8.191353679E-1,1.079486132E0
3.264684944E1,-2.550030708E0,1.452986598E0,8.133932352E-1
3.266684944E1,8.302007914E-1,-3.275284767E-1,1.986184716E-2
3.268684944E1,3.272893667E0,-2.815460443E0,2.872811854E-1
3.270684944E1,1.577219129E0,-7.740709782E-1,6.333799958E-1
3.272684944E1,-2.603158653E-1,1.698816180E0,-4.829325899E-2
3.274684944E1,-1.230125546E0,2.433844090E0,-4.298222363E-1
3.276684944E1,-7.090399861E-1,2.392078400E0,-7.728143334E-1
3.278684944E1,-5.724505186E-1,1.160940647E0,-1.083535314E0
3.280684944E1,7.525859773E-2,-1.962291121E0,-1.291194558E0
3.282684944E1,-1.398113489E0,-7.616093159E-1,-7.130193710E-1
3.284684944E1,-3.391384125E0,2.712957144E0,6.398202777E-1
3.286684944E1,-3.346005678E0,4.389537811E0,1.224069238E0
3.288684944E1,-2.613264084E0,3.914092779E0,1.228554726E0
3.290685100E1,-2.154120207E0,2.407402515E0,7.658504844E-1
3.292884944E1,-1.952290416E0,1.128285527E0,-5.314527750E-1
3.294884944E1,-1.321545839E0,3.185923994E-1,-4.593706429E-1
3.296885100E1,-1.218955398E0,-2.035228461E-1,-1.873785406E-1
3.298885256E1,-1.685097933E0,4.013384581E-1,-4.461236000E-1
3.301084944E1,-2.094726801E0,1.003861070E0,-6.559121609E-1
3.303084944E1,-1.759326816E0,1.279256582E0,-8.275478482E-1
3.305084944E1,-1.037877440E0,1.088631630E0,-9.974033237E-1
3.307084944E1,-1.180872321E0,2.120400518E-1,-9.411339164E-1
3.309084944E1,-1.492745161E0,-1.443736404E-1,-7.450810671E-1
3.311085100E1,-1.365545630E0,1.243896186E-1,-5.730439425E-1
3.313085100E1,-7.666882277E-1,-1.151917269E-3,-4.828453362E-1
3.315085100E1,-1.959306598E-1,-7.546803355E-2,-4.035899341E-1
3.317085100E1,1.253495514E-1,3.054326167E-3,-1.659110039E-1
3.319285100E1,4.268377125E-1,1.773254573E-2,6.780604273E-2
3.321484944E1,1.636036754E0,-6.057688594E-1,5.045746565E-1
3.323484944E1,2.784288883E0,-1.603660822E0,5.906368494E-1
3.325484944E1,4.000416756E0,-2.609057665E0,5.658706427E-1
3.327484944E1,4.174984455E0,-1.881447434E0,9.304699302E-1
3.329484944E1,3.083124161E0,-2.318320870E-1,1.243459821E0
3.331485100E1,2.525788069E0,1.199931264E0,9.251815677E-1
3.333684944E1,2.622200012E0,1.130100727E0,3.814766109E-1
3.335684944E1,2.615009308E0,2.361605018E-1,2.321462482E-1
3.337684944E1,2.170823097E0,-1.947263777E-1,3.169168830E-1
3.339684944E1,1.474907875E0,-4.214271903E-1,5.886646509E-1
3.341684944E1,1.394483209E0,7.099999487E-2,8.112290502E-1
3.343684944E1,1.537443042E0,1.503601074E-1,6.949726343E-1
3.345684944E1,1.750251055E0,-7.633721232E-1,4.396309853E-1
3.347684944E1,1.739517331E0,-2.393562078E0,3.931005001E-1
3.349685100E1,1.600920677E0,-3.552355766E0,5.642300248E-1
3.351685100E1,1.202933311E0,-3.503608942E0,5.729741454E-1
3.353685100E1,2.862165570E-1,-3.136862755E0,3.348414302E-1
3.355685100E1,-6.809751391E-1,-2.644505501E0,1.974665523E-1
3.357685100E1,-1.623260975E0,-2.168431997E0,2.129301727E-1
3.359685100E1,-2.768650770E0,-1.185287952E0,3.909362853E-1
3.361685100E1,-3.536595583E0,4.317944497E-2,7.552912235E-1
3.363685100E1,-2.841640472E0,1.653036237E0,1.056046367E0
3.365685100E1,1.225011706E0,-1.860869974E-1,9.216036797E-1
3.367685100E1,1.973984838E0,-1.169248462E0,1.126173735E0
3.369685100E1,1.327933788E0,-4.880638719E-1,6.019117236E-1
3.371885881E1,3.956835866E-1,1.017526984E-1,-9.850638509E-1
3.374085100E1,-6.010390520E-1,1.721470594E0,-1.669599414E0
3.376085100E1,-9.504190683E-1,2.694002867E0,-1.150922418E0
3.378085100E1,-7.153755426E-1,9.217083454E-1,-4.676958919E-1
3.380284944E1,-5.281191468E-1,2.209569454E0,-1.933650225E-1
3.382284944E1,-1.414013386E0,2.774270535E0,-1.354200989E-1
3.384285100E1,-2.931071043E0,1.958381534E0,1.415287554E-1
3.386485100E1,-2.984146595E0,1.589680791E0,2.278527319E-1
3.388684944E1,-2.022941351E0,1.517232180E0,1.657888293E-1
3.390684944E1,-1.825073361E0,5.336693525E-1,-7.660250366E-2
3.392684944E1,-1.953128099E0,2.358463407E-1,-2.035577446E-1
3.394685100E1,-1.651552677E0,1.068542957E0,-2.497566119E-2
3.396685100E1,-1.428220391E0,9.928131104E-1,3.914773464E-2
3.398886038E1,-1.639754295E0,9.808052182E-1,-1.484227926E-1
3.401084944E1,-1.990338564E0,1.438814521E0,-2.474353313E-1
3.403085100E1,-1.912165284E0,1.785925627E0,-4.034677744E-1
3.405284944E1,-1.711993456E0,1.545873046E0,-8.321031928E-1
3.407284944E1,-1.632755518E0,1.201903582E0,-1.109209061E0
3.409284944E1,-1.429878473E0,6.873106360E-1,-1.027108788E0
3.411284944E1,-9.901950955E-1,2.241526395E-1,-7.855727077E-1
3.413284944E1,-7.935139537E-1,2.186897583E-2,-3.912678957E-1
3.415284944E1,-4.723210037E-1,3.166725338E-1,1.348965019E-1
3.417284944E1,1.125562862E-1,-1.412494928E-1,3.337942064E-1
3.419284944E1,5.970422029E-1,-7.559719086E-1,3.033382297E-1
3.421284944E1,1.387030602E0,-1.054370880E0,5.093917847E-1
3.423284944E1,2.323242664E0,-1.062347054E0,8.027991056E-1
3.425284944E1,3.951041460E0,-1.651482940E0,7.663217187E-1
3.427284944E1,4.258254528E0,-1.894502521E0,5.997649431E-1
3.429285100E1,3.452749968E0,-8.714952469E-1,3.712315261E-1
3.431485100E1,2.908765793E0,1.198395371E0,8.396779001E-2
3.433684944E1,3.138311386E0,2.237163067E0,-5.880014226E-2
3.435684944E1,3.063750982E0,1.518069983E0,1.874658167E-1
3.437684944E1,2.396319628E0,8.195018768E-1,2.151990980E-1
3.439685100E1,1.833817482E0,2.914001644E-1,3.510380685E-1
3.441885256E1,1.765417933E0,-1.286307722E-1,4.579744041E-1
3.444084944E1,2.119440556E0,-8.072496653E-1,4.147251248E-1
3.446085100E1,2.205781937E0,-1.597953677E0,4.317072034E-1
3.448285100E1,1.940998077E0,-2.640438795E0,5.992937088E-1
3.450484944E1,1.421116829E0,-2.936080217E0,5.833762884E-1
3.452485100E1,7.153755426E-1,-2.806018114E0,3.523470759E-1
3.454684944E1,-3.400076032E-1,-2.182726145E0,1.871691048E-1
3.456684944E1,-1.409650087E0,-1.640714169E0,1.092052534E-1
3.458685100E1,-2.469937563E0,-1.375284553E0,2.417281084E-2
3.460884944E1,-3.679572821E0,-3.921231329E-1,4.045673311E-1
3.462884944E1,-3.628940821E0,1.064109802E0,6.475171447E-1
3.464885100E1,-1.437819719E0,1.803361416E0,2.948384583E-1
3.467085100E1,2.759016514E0,-1.784319878E0,-1.933301240E-1
3.469085100E1,2.715994120E0,-2.159600496E0,3.112445772E-1
3.471285100E1,9.464920312E-2,5.424308777E-1,1.373574138E-2
3.473484944E1,-1.333099961E0,1.949829459E0,-7.703185081E-1
3.475484944E1,-1.210350871E0,3.128834248E0,-5.798681974E-1
3.477484944E1,-6.594901085E-1,2.807117701E0,-3.127630055E-1
3.479485100E1,-8.212122917E-1,7.039087415E-1,-6.061353683E-1
3.481684944E1,-1.829279512E-1,-6.361725330E-1,-1.125911951E0
3.483684944E1,-2.244423628E0,5.412091613E-1,-4.039564431E-1
3.485684944E1,-3.265929937E0,2.094552279E0,6.807132959E-1
3.487684944E1,-2.422639132E0,2.699727535E0,8.185943365E-1
3.489685100E1,-1.803361416E0,1.926669002E0,7.258824110E-1
3.491885569E1,-2.252103090E0,1.357517093E-1,-2.490584925E-2
3.494084944E1,-1.764161348E0,6.230825558E-3,-1.685639024E-1
3.496085100E1,-1.102960825E0,6.183701754E-1,9.424778074E-2
3.498285100E1,-1.332523942E0,1.151219130E0,-6.068509817E-2
3.500484944E1,-1.955082893E0,1.207209349E0,-1.124341115E-1
3.502484944E1,-2.193058491E0,1.251435995E0,-3.605501056E-1
3.504484944E1,-1.574060082E0,1.029726744E0,-6.468539238E-1
3.506485100E1,-1.104723573E0,7.619583607E-1,-8.952841163E-1
3.508485100E1,-1.283445358E0,4.883605838E-1,-8.752651811E-1
3.510485100E1,-1.417556405E0,5.964139104E-1,-7.562511563E-1
3.512485100E1,-1.111163855E0,5.890136957E-1,-6.278821826E-1
3.514684944E1,-5.290267467E-1,1.886002719E-1,-3.533244431E-1
3.516684944E1,5.255186185E-2,2.420771681E-2,-2.178869098E-1
3.518684944E1,1.563465893E-1,-2.700198889E-1,-1.066570729E-1
3.520684944E1,6.551442146E-1,-4.525987804E-1,1.042659655E-1
3.522684944E1,1.378269076E0,-6.937159896E-1,4.416206479E-1
3.524684944E1,2.811742783E0,-1.681485057E0,5.400397778E-1
3.526684944E1,3.907582760E0,-2.394330025E0,6.533989310E-1
3.528684944E1,3.715055466E0,-1.962849617E0,8.516857624E-1
3.530685100E1,2.680529118E0,-8.024849296E-1,7.928507328E-1
3.532885100E1,2.457790136E0,7.724303603E-1,3.270048797E-1
3.535084944E1,2.954179287E0,1.399090886E0,7.063347101E-2
3.537084944E1,2.755613089E0,5.770581961E-1,1.592263877E-1
3.539085100E1,2.107415199E0,3.269350827E-1,1.511804163E-1
3.541284944E1,1.483111024E0,4.557927251E-1,2.317971736E-1
3.543284944E1,1.493635297E0,4.188441038E-1,3.559424579E-1
3.545285256E1,1.892251015E0,-2.875081003E-1,3.983713984E-1
3.547484944E1,2.158954859E0,-1.431065321E0,4.187917411E-1
3.549484944E1,1.961715221E0,-2.458662748E0,5.249950290E-1
3.551485100E1,1.616454124E0,-2.888258219E0,4.861789048E-1
3.553685100E1,9.348681569E-1,-2.806646585E0,2.518510222E-1
3.555885569E1,-4.818854108E-2,-2.233602524E0,1.139874533E-1
3.558084944E1,-1.016916037E0,-1.697856307E0,5.886995420E-2
3.560085100E1,-2.071723223E0,-1.356976032E0,1.635199040E-1
3.562284944E1,-3.264481306E0,-5.555557609E-1,4.744502902E-1
3.564284944E1,-3.522388458E0,8.149465919E-1,6.667332053E-1
3.566284944E1,-1.553988814E0,1.712621808E0,3.952647150E-1
3.568284944E1,2.536015749E0,-1.541666746E0,-6.700319052E-2
3.570284944E1,3.150336742E0,-1.814042807E0,6.445151567E-1
3.572285100E1,6.470633745E-1,-4.521449804E-1,6.372371316E-1
3.574285100E1,-8.464148641E-1,1.186387539E0,-2.743832171E-1
3.576484944E1,-1.507388473E0,2.320677042E0,-6.927211881E-1
3.578484944E1,-6.857573390E-1,2.803400278E0,-7.601083517E-1
3.580485725E1,2.330189049E-1,-2.028072625E-1,-1.134184718E0
3.582684944E1,7.187615037E-1,-2.347886801E0,-1.602927804E0
3.584684944E1,-2.202099323E0,5.540547967E-1,-4.159468710E-1
3.586684944E1,-3.774117470E0,2.956203699E0,8.604298830E-1
3.588684944E1,-3.149551392E0,3.209573269E0,1.183315754E0
3.590684944E1,-2.119370699E0,2.091253519E0,1.022431374E0
3.592684944E1,-1.713319898E0,5.248030424E-1,6.104463339E-1
3.594689319E1,-2.190196276E0,-2.564586699E-1,-4.376063943E-1
3.596885100E1,-1.692707539E0,2.335250564E-2,-2.931978703E-1
3.598885569E1,-1.081929564E0,4.467868209E-1,7.855726779E-2
3.601085100E1,-1.370484829E0,9.211673141E-1,-1.979203336E-2
3.603085100E1,-1.982205272E0,1.387519240E0,-1.635722518E-1
3.605086663E1,-2.121517420E0,1.216110468E0,-5.357462764E-1
3.607285100E1,-1.621288657E0,7.807730436E-1,-9.237678647E-1
3.609485100E1,-1.250214219E0,5.499358177E-1,-1.045172930E0
3.611685100E1,-1.276237130E0,2.745926380E-1,-8.532914519E-1
3.613685100E1,-1.213422656E0,4.093146026E-1,-6.031159759E-1
3.615685100E1,-7.915940881E-1,6.065717340E-1,-2.942276001E-1
3.617685100E1,-1.987580955E-1,2.697580755E-1,-2.416233867E-1
3.619685100E1,2.394068092E-1,-4.156850576E-1,-2.516590357E-1
3.621885100E1,5.956982970E-1,-8.963138461E-1,-1.164832711E-1
3.623885569E1,1.289903045E0,-7.401592135E-1,4.697379172E-1
3.626084944E1,2.476308107E0,-1.470544577E0,7.679972053E-1
3.628084944E1,3.820420980E0,-2.503954172E0,7.467565536E-1
3.630084944E1,3.931738138E0,-2.475103855E0,7.318514585E-1
3.632085100E1,3.159552097E0,-1.522153974E0,6.007946730E-1
3.634085100E1,2.507130623E0,7.534586638E-2,2.764427066E-1
3.636284944E1,2.588585138E0,1.262449026E0,-8.848818950E-3
3.638284944E1,2.680738449E0,8.821941018E-1,1.993340552E-1
3.640284944E1,2.368848085E0,4.416555762E-1,3.528357744E-1
3.642284944E1,1.747441053E0,6.444104910E-1,3.367787302E-1
3.644284944E1,1.018713832E0,1.815316975E-1,5.982988477E-1
3.646284944E1,1.265416026E0,2.236464918E-1,8.683362007E-1
3.648285100E1,1.722831964E0,-1.899790913E-1,8.150861859E-1
3.650484944E1,1.728155255E0,-1.519850135E0,7.631801367E-1
3.652485100E1,1.508732438E0,-2.686864614E0,8.664861321E-1
3.654685100E1,1.122525930E0,-3.018773794E0,6.855129600E-1
3.656685100E1,4.294207990E-1,-2.603158474E0,4.060508609E-1
3.658685100E1,-4.415682852E-1,-2.040429592E0,3.090105355E-1
3.660885100E1,-1.521054387E0,-1.470422387E0,3.168296218E-1
3.662886194E1,-2.452274799E0,-1.082069278E0,4.257905185E-1
3.665085100E1,-2.955994368E0,-3.636218905E-1,3.208264112E-1
3.667284944E1,-2.406529665E0,4.380776361E-2,9.388125688E-2
3.669285100E1,1.142405272E0,-1.324669957E0,-2.035577446E-1
3.671285100E1,2.995473623E0,-2.044077158E0,4.795466661E-1
3.673485100E1,1.290740848E0,2.548180819E-1,6.988472939E-1
3.675685100E1,-4.266457260E-1,1.295680046E0,-1.903630644E-1
3.677685100E1,-1.267859578E0,2.237651825E0,-4.530700147E-1
3.679685100E1,-8.845328689E-1,2.745839119E0,-5.222548842E-1
3.681885100E1,-8.000763655E-1,-4.496666193E-1,-5.718222260E-1
3.683885100E1,5.589940548E-1,-2.544759750E0,-1.404047608E0
3.686085100E1,-1.464331269E0,8.228529096E-1,-1.082680106E0
3.688085100E1,-3.509769917E0,4.147373676E0,2.103819847E-1
3.690284944E1,-3.045617104E0,4.307804108E0,9.369450808E-1
3.692284944E1,-2.216882229E0,3.266278982E0,8.386830688E-1
3.694284944E1,-2.452658892E0,1.101390004E0,3.737797141E-1
3.696284944E1,-2.224893332E0,-4.361577705E-2,-4.889714420E-1
3.698285100E1,-1.296936750E0,2.050761878E-2,-3.674965203E-1
3.700484944E1,-1.104287267E0,2.770535648E-1,-1.456302702E-1
3.702484944E1,-1.724088550E0,1.260598898E0,-2.427403927E-1
3.704484944E1,-2.087448597E0,2.012958050E0,-3.371627033E-1
3.706484944E1,-1.703546047E0,1.758192301E0,-5.449441671E-1
3.708484944E1,-1.280268788E0,1.109523296E0,-8.100247383E-1
3.710484944E1,-1.398165822E0,6.217735410E-1,-8.909731507E-1
3.712484944E1,-1.505067229E0,2.860594690E-1,-8.101294637E-1
3.714484944E1,-1.300130606E0,2.603158653E-1,-6.531545520E-1
3.716484944E1,-9.194045663E-1,2.580120265E-1,-3.850894570E-1
3.718484944E1,-3.777416050E-1,-6.977826357E-2,-1.631359309E-1
3.720484944E1,1.482657194E-1,-3.007376790E-1,-9.196139872E-2
3.722485100E1,2.818706632E-1,-3.613355160E-1,1.979203336E-2
3.724684944E1,1.191588640E0,-4.564908743E-1,3.482804596E-1
3.726684944E1,2.090590239E0,-1.064546108E0,5.464276671E-1
3.728684944E1,3.651961803E0,-2.053973198E0,5.576676130E-1
3.730684944E1,4.045568466E0,-2.404976368E0,6.149492860E-1
3.732684944E1,3.420740604E0,-1.573239803E0,6.788108945E-1
3.734684944E1,2.744809389E0,-1.798561811E-1,5.581388474E-1
3.736684944E1,2.857121468E0,1.298524976E0,2.289872058E-2
3.738684944E1,3.080348969E0,1.727491975E0,-9.082693607E-2
3.740684944E1,2.584954739E0,1.158148170E0,1.419127136E-1
3.742684944E1,2.006238461E0,1.083186269E0,1.071283072E-1
3.744684944E1,1.413105845E0,5.137551427E-1,1.773952693E-1
3.746685100E1,1.317514181E0,-1.191710830E-1,5.109276772E-1
3.748685100E1,1.869073033E0,-5.212600231E-1,6.593853831E-1
3.750885100E1,1.956304669E0,-1.587813258E0,7.089701891E-1
3.753085100E1,1.722273469E0,-2.962434530E0,6.597344279E-1
3.755284944E1,1.262658477E0,-3.368485451E0,4.347091615E-1
3.757284944E1,4.652698636E-1,-3.098168850E0,1.626646817E-1
3.759284944E1,-3.848800063E-1,-2.520586967E0,9.665632993E-2
3.761284944E1,-1.251593113E0,-2.002887487E0,1.691398621E-1
3.763284944E1,-2.512471199E0,-1.522450686E0,4.203276336E-1
3.765284944E1,-3.529247761E0,-2.609267235E-1,7.335968018E-1
3.767284944E1,-3.305845499E0,1.136261702E0,8.851436973E-1
3.769285100E1,-8.117875457E-1,1.125388265E0,3.122743070E-1
3.771285100E1,2.836962938E0,-1.816049933E0,-1.674468815E-1
3.773485100E1,2.547779322E0,-1.455273032E0,3.841993213E-1
3.775684944E1,-3.762929738E-1,1.017334938E0,-2.305579931E-2
3.777684944E1,-1.371898651E0,1.666806936E0,-8.002508879E-1
3.779684944E1,-1.146018147E0,3.140493155E0,-9.010611176E-1
3.781684944E1,-5.095837712E-1,2.980341673E0,-8.213519454E-1
3.783684944E1,-4.559323490E-1,-1.631010175E-1,-7.655712366E-1
3.785684944E1,-8.233940005E-1,-5.561665893E-1,-6.627713442E-1
3.787685881E1,-2.377801657E0,1.641307592E0,-1.832595654E-2
3.789885100E1,-2.835810900E0,2.503901720E0,5.943195224E-1
3.792084944E1,-2.125409603E0,2.609878063E0,4.844335914E-1
3.794085100E1,-1.908866644E0,1.658272266E0,4.940852523E-1
3.796085100E1,-2.600540638E0,-8.020660281E-1,1.293289009E-2
3.798285100E1,-1.759274483E0,-2.003986984E-1,-1.240056455E-1
3.800485100E1,-1.110360980E0,9.999514818E-1,-1.357866228E-1
3.802684944E1,-1.393121839E0,1.592839837E0,-2.285334170E-1
3.804684944E1,-1.819540620E0,1.626838803E0,-2.093173414E-1
3.806684944E1,-1.986446500E0,1.203753591E0,-3.835709989E-1
3.808684944E1,-1.482238293E0,9.798278213E-1,-6.523168087E-1
3.810684944E1,-1.117534280E0,7.822216749E-1,-6.694559455E-1
3.812685100E1,-1.257614493E0,7.132811546E-1,-5.971818566E-1
3.814885100E1,-1.306658149E0,4.892332554E-1,-4.880813360E-1
3.816885100E1,-8.396779299E-1,8.696975559E-2,-3.444407284E-1
3.818885569E1,-1.937489957E-1,1.202880889E-1,-1.981297731E-1
3.821085100E1,3.446676135E-1,2.956587672E-1,-1.652303189E-1
3.823085100E1,2.834414840E-1,-2.055823356E-1,-7.389724255E-2
3.825085100E1,9.318138361E-1,-5.465673208E-1,3.355919123E-1
3.827085100E1,1.934645057E0,-9.688147902E-1,5.988922715E-1
3.829284944E1,3.625834227E0,-2.237965822E0,4.784471095E-1
3.831284944E1,4.123357773E0,-2.401991844E0,5.991715193E-1
3.833284944E1,3.324084282E0,-1.570813775E0,8.963661790E-1
3.835285100E1,2.496711016E0,-2.221629620E-1,9.350950718E-1
3.837285412E1,2.740132093E0,1.039395928E0,5.030562282E-1
3.839484944E1,2.911488533E0,1.260267377E0,3.549301624E-1
3.841484944E1,2.405831575E0,8.848819137E-1,3.524343371E-1
3.843484944E1,1.763061762E0,5.795016885E-1,2.565459311E-1
3.845484944E1,1.462428808E0,-1.424712241E-1,3.823318183E-1
3.847484944E1,1.723826766E0,-6.675710082E-1,5.297423601E-1
3.849484944E1,2.250497341E0,-9.163327813E-1,3.868871331E-1
3.851485100E1,2.194297791E0,-2.039382219E0,2.760238349E-1
3.853684944E1,1.858409166E0,-2.870455742E0,4.539950490E-1
3.855685100E1,1.440088630E0,-2.812475920E0,4.976108074E-1
3.857885100E1,6.187366843E-1,-2.669830084E0,2.613455951E-1
3.859885569E1,-3.641629517E-1,-1.959952354E0,1.418778151E-1
3.862084944E1,-1.384848952E0,-1.504508734E0,1.174606606E-1
3.864084944E1,-2.492626905E0,-1.313395143E0,2.233497798E-1
3.866084944E1,-3.673132658E0,-2.826037109E-1,4.684987366E-1
3.868085100E1,-3.843651295E0,1.119750857E0,7.437720299E-1
3.870085100E1,-1.460543871E0,1.281822205E0,3.231128156E-1
3.872284944E1,3.013939142E0,-2.121447802E0,-1.686686128E-1
3.874284944E1,2.777551889E0,-1.696180820E0,3.976907134E-1
3.876284944E1,-4.799655452E-2,1.268313289E0,1.024333760E-1
3.878285100E1,-1.354218364E0,2.591168165E0,-5.779832602E-1
3.880285100E1,-1.216337442E0,3.290155172E0,-8.735198379E-1
3.882285100E1,-2.921332121E-1,3.086440325E0,-8.289266825E-1
3.884285100E1,-6.175498366E-1,-5.243667364E-1,-1.033025503E0
3.886285100E1,-2.365095615E-1,-5.917887688E-1,-1.102262735E0
3.888285100E1,-2.215625763E0,1.033234954E0,-1.388409436E-1
3.890285100E1,-3.324887037E0,2.099509001E0,9.370498061E-1
3.892285100E1,-2.606178045E0,2.534130812E0,8.654913306E-1
3.894485100E1,-1.916301727E0,1.848652720E0,5.793097019E-1
3.896485100E1,-2.261597633E0,4.577998444E-2,-5.815437064E-2
3.898684944E1,-1.829419255E0,-8.939576149E-2,-2.451664060E-1
3.900684944E1,-1.069275975E0,4.647113681E-1,-1.905899495E-2
3.902684944E1,-1.149089813E0,5.704783201E-1,-1.765225977E-1
3.904685100E1,-1.512310386E0,7.538425922E-1,-3.137403727E-1
3.906885100E1,-1.823066235E0,7.200181484E-1,-3.872012794E-1
3.908885100E1,-1.765819430E0,8.154527545E-1,-5.384166241E-1
3.911085100E1,-1.392493486E0,6.875375509E-1,-7.493920326E-1
3.913085100E1,-1.485379934E0,1.366418302E-1,-7.359879017E-1
3.915085100E1,-1.437802196E0,-1.829454154E-1,-5.483999252E-1
3.917085100E1,-1.000998735E0,-1.043706909E-1,-4.234692454E-1
3.919085100E1,-4.318991899E-1,-1.764527895E-2,-2.798461020E-1
3.921285100E1,1.937839091E-1,-7.560766488E-2,-1.933475733E-1
3.923484944E1,4.161039591E-1,-5.013807416E-1,-8.269369602E-2
3.925485100E1,1.159631610E0,-7.271739841E-1,2.478193045E-1
3.927684944E1,2.612618208E0,-1.473022938E0,6.180734634E-1
3.929684944E1,4.038744450E0,-2.424070358E0,7.672991157E-1
3.931684944E1,3.954287767E0,-2.045700312E0,9.920451641E-1
3.933684944E1,3.038059711E0,-8.233416080E-1,1.350692868E0
3.935684944E1,2.601727486E0,5.469163656E-1,8.430114985E-1
3.937684944E1,3.090314865E0,1.472132802E0,-5.784020945E-2
3.939685100E1,3.347838163E0,1.002150655E0,-2.376091182E-1
3.941685100E1,2.696533680E0,4.546931684E-1,4.152138159E-2
3.943885881E1,1.761176825E0,-2.077465355E-1,2.195973247E-1
3.946085256E1,1.622335911E0,-6.115633845E-1,3.987728357E-1
3.948285256E1,2.107205868E0,-4.051781893E-1,4.758116603E-1
3.950485100E1,2.255506516E0,-8.792095780E-1,2.473306060E-1
3.952485100E1,1.801389217E0,-1.978644848E0,2.656041980E-1
3.954685100E1,1.325682282E0,-2.722748518E0,4.121944010E-1
3.956685100E1,7.041705251E-1,-2.671680212E0,1.313534826E-1
3.958885100E1,-3.546159863E-1,-2.364746571E0,-3.576179594E-2
3.961085100E1,-1.403820634E0,-2.073328972E0,1.247910410E-2
3.963085100E1,-2.556697845E0,-1.717892647E0,2.247460485E-1
3.965085100E1,-3.613425016E0,-4.861789048E-1,7.160562277E-1
3.967085100E1,-3.657564402E0,1.597569704E0,1.000876546E0
3.969085100E1,-7.974932790E-1,1.856192589E0,3.985110223E-1
3.971285100E1,3.452383518E0,-2.325529099E0,-1.192583442E-1
3.973485100E1,2.354536533E0,-1.982920885E0,3.966958821E-1
3.975684944E1,-7.643843889E-1,1.058070898E0,-5.658357590E-2
3.977684944E1,-1.570796371E0,1.711138248E0,-6.251420379E-1
3.979684944E1,-1.036917567E0,3.410129070E0,-5.724505186E-1
3.981684944E1,-2.987130880E-1,3.875154495E0,-5.363047719E-1
3.983684944E1,-6.902428269E-1,1.154936671E0,-8.506560326E-1
3.985684944E1,-6.595599055E-1,-2.083486795E0,-1.199948788E0
3.987684944E1,-2.383194685E0,8.897688240E-2,-6.178290844E-1
3.989685100E1,-3.277012825E0,2.473149061E0,5.268799663E-1
3.991886506E1,-2.595828295E0,3.058811665E0,9.789202809E-1
3.993889319E1,-2.195484638E0,1.943808079E0,8.217359185E-1
3.996085100E1,-2.449517250E0,1.977283508E-1,-1.780235767E-1
3.998285100E1,-1.622807145E0,8.028514683E-2,-1.877799779E-1
4.000485569E1,-1.069171190E0,4.635594487E-1,3.953170776E-2
4.002684944E1,-1.479707599E0,8.983209729E-1,-1.457873583E-1
4.004685100E1,-2.035158634E0,1.070410371E0,-2.720619142E-1
4.006885100E1,-2.126858234E0,9.925163984E-1,-5.221850276E-1
4.008885100E1,-1.480789661E0,5.900434852E-1,-8.575151563E-1
4.011084944E1,-1.229532123E0,-1.101651788E-1,-9.537526369E-1
4.013084944E1,-1.401185274E0,4.166100919E-2,-6.833138466E-1
4.015084944E1,-1.168655038E0,2.949606478E-1,-4.298047721E-1
4.017085100E1,-6.928084493E-1,4.874704406E-2,-2.413615882E-1
4.019085100E1,-1.960179210E-1,-7.906341925E-3,-1.688431501E-1
4.021285100E1,3.238807619E-1,2.293362655E-2,-1.700474322E-1
4.023285100E1,6.588268876E-1,-4.109203219E-1,-5.907939374E-2
4.025484944E1,1.557304978E0,-9.360026121E-1,4.198563993E-1
4.027484944E1,2.679080486E0,-1.495241046E0,6.677629948E-1
4.029484944E1,4.158525944E0,-2.300082207E0,7.825183868E-1
4.031485100E1,4.135243416E0,-2.019852161E0,9.698445797E-1
4.033684944E1,2.806245089E0,-5.607568622E-1,1.097864509E0
4.035684944E1,2.382810831E0,6.884276867E-1,4.192630053E-1
4.037685100E1,2.875220537E0,1.071370363E0,-2.359685116E-2
4.039685100E1,3.018267632E0,1.510757059E-1,9.644689411E-2
4.041685100E1,2.419829130E0,2.783276439E-1,2.233846933E-1
4.043885100E1,1.673840523E0,1.003110528E0,1.916546077E-1
4.046085100E1,1.374568939E0,4.055970609E-1,3.158522248E-1
4.048285100E1,1.876927018E0,-4.420220852E-1,3.770085573E-1
4.050484944E1,2.139424562E0,-1.289379478E0,3.322757781E-1
4.052484944E1,1.875600576E0,-2.422883511E0,5.418898463E-1
4.054484944E1,1.452899337E0,-2.983361006E0,5.706179142E-1
4.056485100E1,8.027816415E-1,-3.127211094E0,3.155904412E-1
4.058685100E1,-1.533271670E-1,-2.761669397E0,1.469392627E-1
4.060884944E1,-1.104339600E0,-2.375777006E0,8.920377493E-2
4.062884944E1,-2.122303009E0,-2.129511118E0,2.616772056E-1
4.064885100E1,-3.244183064E0,-1.112472892E0,9.130515456E-1
4.067085100E1,-3.057590008E0,1.528751373E0,1.217489362E0
4.069085100E1,1.230282560E-1,4.138524830E-1,3.630808294E-1
4.071285100E1,3.716661215E0,-2.542386293E0,-1.862266287E-2
4.073484944E1,1.922218323E0,-1.194224119E0,5.739166141E-1
4.075484944E1,-7.190058231E-1,1.831024885E-1,1.138652787E-1
4.077485100E1,-1.591303945E0,1.036271811E0,-5.553288460E-1
4.079485100E1,-1.601618886E0,3.129846573E0,-5.471781492E-1
4.081485100E1,-1.170819163E0,2.621187925E0,-3.369707167E-1
4.083685100E1,-1.136558428E-1,1.384272933E0,-5.686457157E-1
4.085885100E1,-1.081947088E0,1.258993268E0,-6.911852956E-1
4.087885725E1,-2.969206572E0,1.941992998E0,-2.349387705E-1
4.089885725E1,-3.410914421E0,2.312438965E0,3.304257393E-1
4.092084944E1,-2.502156258E0,2.588742256E0,4.324751198E-1
4.094084944E1,-2.033814669E0,1.588738322E0,3.605850339E-1
4.096085100E1,-2.197020531E0,3.487691283E-1,-2.020916790E-1
4.098285100E1,-1.736061573E0,1.023408651E0,-1.055400595E-1
4.100285100E1,-1.350239038E0,1.398479939E0,7.112216949E-2
4.102484944E1,-1.475257039E0,1.243494749E0,-1.379857361E-1
4.104484944E1,-1.862842321E0,1.424572587E0,-2.157925069E-1
4.106484944E1,-2.215398788E0,1.388060331E0,-3.418751061E-1
4.108484944E1,-1.881848931E0,1.338301063E0,-6.191206574E-1
4.110484944E1,-1.219199777E0,1.209635377E0,-8.031306863E-1
4.112484944E1,-1.181832194E0,1.036289215E0,-8.244760633E-1
4.114484944E1,-1.385390043E0,5.038940310E-1,-7.151660919E-1
4.116484944E1,-1.074372292E0,-6.049311161E-2,-4.915894270E-1
4.118484944E1,-6.157696247E-1,-1.658062823E-2,-1.169719696E-1
4.120484944E1,4.380776547E-3,2.445380837E-1,4.059635848E-2
4.122484944E1,9.037315100E-2,-3.895574808E-2,1.049117446E-1
4.124485100E1,2.498264313E-1,-2.646791935E-1,1.566607505E-1
4.126684944E1,1.334182024E0,-8.886693120E-1,2.965139747E-1
4.128684944E1,2.206898928E0,-1.332262158E0,3.893654943E-1
4.130684944E1,3.735004663E0,-2.057446480E0,5.603204966E-1
4.132684944E1,3.976819992E0,-2.345024347E0,6.335021853E-1
4.134684944E1,2.981720448E0,-1.179947257E0,7.592531443E-1
4.136684944E1,2.332091570E0,3.945316672E-1,5.467593074E-1
4.138684944E1,2.801218510E0,1.170609832E0,5.096361414E-2
4.140684944E1,3.097017050E0,4.123863876E-1,-4.988151044E-2
4.142684944E1,2.609563828E0,-1.362404078E-1,1.216494516E-1
4.144685100E1,1.982083201E0,5.365840197E-1,8.714429289E-2
