"Time (s)","Linear Acceleration x (m/s^2)","Linear Acceleration y (m/s^2)","Linear Acceleration z (m/s^2)"
1.000312500E-2,-3.059999831E-2,2.370999902E-1,7.867999673E-1
4.000468700E-2,6.524999738E-1,3.819999993E-1,6.042000055E-1
7.000000000E-2,-4.089999944E-2,5.454999804E-1,-2.398999929E-1
9.000000000E-2,4.077000022E-1,5.496000051E-1,5.769999623E-1
1.100031250E-1,3.273999989E-1,4.487999976E-1,-6.319000125E-1
1.400000000E-1,3.562999964E-1,6.179000139E-1,-1.974900007E0
1.600031250E-1,3.775999844E-1,3.567999899E-1,-1.997399926E0
1.900000000E-1,-6.423999667E-1,1.934699893E0,-1.586099982E0
2.100000000E-1,-1.304299951E0,2.505499840E0,-9.546999931E-1
2.300000000E-1,-9.968999624E-1,2.024399996E0,1.532099962E0
2.500000000E-1,2.680999935E-1,3.271999955E-1,8.618999720E-1
2.700000000E-1,1.704399943E0,-1.375199914E0,-1.620999932E0
2.900000000E-1,1.556800008E0,-2.222100019E0,-3.429799795E0
3.100000000E-1,-2.574000061E-1,-1.328099966E0,-1.927099943E0
3.300000000E-1,-1.557399988E0,-1.360199928E0,-1.155399919E0
3.500031250E-1,-2.062099934E0,-1.431199908E0,-9.120999575E-1
3.700265620E-1,-2.998199940E0,-2.821999788E-1,-6.090999842E-1
3.999984370E-1,-9.502999783E-1,-2.266999930E-1,6.635000110E-1
4.200000000E-1,1.394199967E0,-1.613999903E-1,4.254099846E0
4.400000000E-1,-3.039000034E0,-9.699999355E-3,6.794299603E0
4.600000000E-1,-2.713099957E0,-9.864999652E-1,2.344699860E0
4.800000000E-1,-9.387999773E-1,-2.822099924E0,-9.077999592E-1
5.000000000E-1,1.576900005E0,-3.545399904E0,-2.305799961E0
5.200000000E-1,2.944099903E0,-1.358899951E0,-2.408599854E0
5.400031250E-1,3.753999949E0,-7.022999525E-1,-3.868599892E0
5.700000000E-1,9.750999808E-1,-4.226999879E-1,-2.624799967E0
5.900000000E-1,-1.597999930E-1,-2.620000020E-2,-3.788399935E0
6.100000000E-1,-1.546599984E0,7.000000030E-2,-6.222399712E0
6.300000000E-1,-1.320400000E0,7.145000100E-1,-4.798500061E0
6.500000000E-1,-6.044999957E-1,1.301999986E-1,-6.229300022E0
6.700093750E-1,8.262000084E-1,-9.907999635E-1,-6.959199905E0
7.000000000E-1,2.013599873E0,-1.738299966E0,-8.112500191E0
7.200000000E-1,2.604899883E0,-2.918200016E0,-7.579999924E0
7.400000000E-1,3.261699915E0,-3.869299889E0,-5.571399689E0
7.600000000E-1,4.529699802E0,-4.920700073E0,-4.001500130E0
7.800000000E-1,6.184599876E0,-6.824399948E0,-3.121399879E0
8.000000000E-1,7.325099945E0,-8.389599800E0,-1.613299966E0
8.200000000E-1,7.127199650E0,-8.764900208E0,3.251000047E-1
8.400000000E-1,6.719500065E0,-8.378600121E0,1.700399995E0
8.600000000E-1,6.209599972E0,-8.236800194E0,1.930799961E0
8.800000000E-1,4.530600071E0,-6.523999691E0,3.342899799E0
9.000000000E-1,3.323599815E0,-5.646499634E0,3.679999828E0
9.200000000E-1,3.410300016E0,-5.859999657E0,4.026999950E0
9.400015620E-1,4.481999874E0,-5.943899632E0,4.891099930E0
9.700000000E-1,7.117300034E0,-5.176399708E0,4.914199829E0
9.900000000E-1,6.348999977E0,-4.373799801E0,4.897999763E0
1.010000000E0,5.374799728E0,-3.329099894E0,5.027499676E0
1.030000000E0,1.886899948E0,4.274999797E-1,6.583099842E0
1.050000000E0,-5.393999815E-1,2.789799929E0,7.114999771E0
1.070000000E0,-1.942399979E0,3.690799952E0,6.544600010E0
1.090000000E0,-2.567499876E0,3.610199928E0,5.947399616E0
1.110000000E0,-3.225699902E0,3.398900032E0,6.188799858E0
1.130000000E0,-3.436299801E0,3.483899832E0,6.275699615E0
1.150000000E0,-2.856499910E0,3.250099897E0,5.995100021E0
1.170000000E0,-2.688099861E0,3.333999872E0,6.342700005E0
1.190000000E0,-1.994099975E0,3.745199919E0,7.220299721E0
1.210000000E0,-4.944999814E-1,3.559899807E0,6.893399715E0
1.230000000E0,1.076699972E0,3.212800026E0,6.383999825E0
1.250000000E0,3.071799994E0,2.136499882E0,5.073999882E0
1.270000000E0,4.316999912E0,1.044799924E0,3.777499914E0
1.290000000E0,4.148499966E0,2.806999981E-1,3.342399836E0
1.310000000E0,3.585299969E0,-3.471999764E-1,3.996199846E0
1.330000000E0,3.778599977E0,-1.197799921E0,4.211800098E0
1.350000000E0,5.157399654E0,-1.293200016E0,4.611000061E0
1.370000000E0,7.722599983E0,-2.421099901E0,3.981799841E0
1.390000000E0,9.381599426E0,-5.114699841E0,1.919299960E0
1.410000000E0,9.064599991E0,-7.106400013E0,8.919000030E-1
1.430000000E0,7.613899708E0,-7.510499954E0,8.760000020E-2
1.450000000E0,5.471899986E0,-6.441799641E0,-1.373600006E0
1.470000000E0,2.975899935E0,-5.069200039E0,-2.609799862E0
1.490000000E0,6.646999717E-1,-3.578399897E0,-2.622699976E0
1.510000000E0,-7.547000051E-1,-2.804499865E0,-2.010999918E0
1.530000000E0,-1.522399902E0,-2.568500042E0,-2.509799957E0
1.550000000E0,-1.385499954E0,-2.870599985E0,-3.825699806E0
1.570000000E0,-1.166000009E0,-3.750899792E0,-4.880300045E0
1.590000000E0,-6.086999774E-1,-5.409699917E0,-4.629099846E0
1.610000000E0,6.229999661E-2,-6.798299789E0,-4.173500061E0
1.630000000E0,7.994999886E-1,-8.449099541E0,-4.845299721E0
1.650000000E0,1.178699970E0,-9.372099876E0,-5.209899902E0
1.670010937E0,1.191200018E0,-9.412899971E0,-5.319900036E0
1.700000000E0,1.747299910E0,-9.597299576E0,-5.918600082E0
1.720001562E0,1.975299954E0,-9.755999565E0,-6.336400032E0
1.740001562E0,1.807599902E0,-9.563699722E0,-6.502599716E0
1.770000000E0,-5.909000039E-1,-7.540699959E0,-5.412399769E0
1.790000000E0,-2.082999945E-1,-7.465799809E0,-4.095900059E0
1.810000000E0,1.157099962E0,-9.078800201E0,-4.969999790E0
1.830000000E0,9.460999966E-1,-9.010199547E0,-5.453700066E0
1.850000000E0,6.811000109E-1,-9.078100204E0,-5.483999729E0
1.870000000E0,2.660999894E-1,-9.192899704E0,-6.000599861E0
1.890000000E0,2.071999907E-1,-8.820300102E0,-5.220099926E0
1.910000000E0,1.004099965E0,-8.244899750E0,-4.789499760E0
1.930000000E0,8.598999977E-1,-6.926899910E0,-4.514199734E0
1.950000000E0,-2.326999903E-1,-5.083699703E0,-3.866299868E0
1.970000000E0,-1.110299945E0,-3.456300020E0,-2.748399973E0
1.990000000E0,-1.558200002E0,-2.437199831E0,-1.673799992E0
2.010000000E0,-1.408900023E0,-2.003399849E0,-9.246999621E-1
2.030000000E0,-1.202199936E0,-1.721300006E0,4.475999773E-1
2.050000000E0,-1.061900020E0,-1.990499973E0,1.854599953E0
2.070000000E0,-4.093999863E-1,-2.222300053E0,3.589299917E0
2.090000000E0,2.915000021E-1,-1.993799925E0,4.974800110E0
2.110000000E0,1.661099911E0,-1.745299935E0,5.609600067E0
2.130000000E0,3.891199827E0,-1.745999932E0,5.644199848E0
2.150000000E0,6.212199688E0,-1.759199977E0,5.217000008E0
2.170000000E0,7.720299721E0,-1.565999985E0,4.983099937E0
2.190000000E0,7.815499783E0,-7.669000030E-1,4.747600079E0
2.210000000E0,7.127599716E0,5.119000077E-1,5.130099773E0
2.230000000E0,6.755099773E0,1.465799928E0,6.120699883E0
2.250000000E0,7.736699581E0,9.679999948E-1,6.246099949E0
2.270000000E0,8.876500130E0,1.330699921E0,6.830199718E0
2.290000000E0,9.785699844E0,2.355399847E0,8.236399651E0
2.310000000E0,1.085639954E1,2.328599930E0,8.320899963E0
2.330000000E0,1.155599976E1,9.126999974E-1,6.942299843E0
2.359998437E0,1.063490009E1,-1.501999944E-1,6.754799843E0
2.380000000E0,7.932499886E0,8.646000028E-1,6.492399693E0
2.400000000E0,4.481699944E0,2.318399906E0,5.624099731E0
2.420000000E0,1.786000013E0,3.483799934E0,5.047299862E0
2.440000000E0,2.542999983E-1,3.402699947E0,4.299200058E0
2.460000000E0,-2.131999880E-1,2.124300003E0,3.168599844E0
2.480000000E0,-3.220999837E-1,1.771000028E-1,1.006399989E0
2.500000000E0,-1.881999969E-1,-1.814399958E0,-4.008999765E-1
2.520000000E0,-3.969999775E-2,-3.345399857E0,-7.809000015E-1
2.540000000E0,-9.599999525E-3,-4.480700016E0,-9.985999465E-1
2.560000000E0,-4.339999706E-2,-4.994100094E0,-1.571099997E0
2.580000000E0,-4.419999942E-2,-5.558499813E0,-2.203599930E0
2.600000000E0,1.052000001E-1,-6.552700043E0,-2.643100023E0
2.620000000E0,4.736000001E-1,-7.552599907E0,-2.763499975E0
2.640000000E0,7.685999870E-1,-8.405499458E0,-3.086599827E0
2.660000000E0,6.060000062E-1,-8.404199600E0,-2.987299919E0
2.680000000E0,-1.758499980E0,-7.353099823E0,-4.119999886E0
2.700000000E0,-3.426199913E0,-6.522899628E0,-4.665499687E0
2.720001562E0,-2.923599958E0,-7.729899883E0,-5.128399849E0
2.740007812E0,-3.007599831E0,-7.898299694E0,-5.425199986E0
2.770000000E0,-2.078299999E0,-7.440099716E0,-4.585099697E0
2.790000000E0,4.641999900E-1,-9.408699989E0,-4.779099941E0
2.810000000E0,1.916499972E0,-1.072559929E1,-3.363399982E0
2.830000000E0,1.537199974E0,-9.773099899E0,-1.168299913E0
2.850000000E0,4.530999959E-1,-7.770499706E0,-5.572999716E-1
2.870000000E0,-2.062999904E-1,-5.543799877E0,-4.490000010E-1
2.890000000E0,-1.060699940E0,-3.342799902E0,-2.935000062E-1
2.910000000E0,-2.319599867E0,-1.405799985E0,-3.352999985E-1
2.930000000E0,-3.751599789E0,-2.859999985E-2,-9.739999473E-2
2.950000000E0,-4.654599667E0,8.364999890E-1,4.625999928E-1
2.970000000E0,-4.811899662E0,1.449399948E0,8.815999627E-1
2.990000000E0,-4.493999958E0,2.035500050E0,1.001899958E0
3.010000000E0,-3.857299805E0,2.548699856E0,9.946999550E-1
3.030000000E0,-2.447199821E0,3.063099861E0,1.275499940E0
3.050000000E0,-2.708999813E-1,2.913199902E0,1.149500012E0
3.070000000E0,2.168299913E0,2.540299892E0,5.354999900E-1
3.090000000E0,4.172399998E0,2.090499878E0,2.237999886E-1
3.110000000E0,6.137700081E0,2.087899923E0,4.883999825E-1
3.130000000E0,8.691999435E0,1.931899905E0,9.104999900E-1
3.150000000E0,1.092969990E1,2.339599848E0,1.456599951E0
3.170000000E0,1.150879955E1,2.987599850E0,2.441699982E0
3.190000000E0,1.043289948E1,2.849400043E0,3.708899975E0
3.210000000E0,7.642799854E0,3.451799870E0,6.369999886E0
3.230000000E0,6.304599762E0,3.958199978E0,8.607399940E0
3.250000000E0,9.092100143E0,2.165400028E0,7.890199661E0
3.270000000E0,1.260649967E1,-1.217000008E0,5.452600002E0
3.290000000E0,1.396029949E1,-4.539000034E0,2.911099911E0
3.310000000E0,1.127479935E1,-4.654900074E0,1.220199943E0
3.330000000E0,6.203499794E0,-2.847299814E0,7.759999633E-1
3.350000000E0,1.449499965E0,-1.072000027E0,3.542999923E-1
3.370000000E0,-1.508099914E0,1.358000040E-1,2.734999955E-1
3.390000000E0,-2.727599859E0,4.781999886E-1,-2.915999889E-1
3.410000000E0,-3.256199837E0,2.639999986E-2,-1.291100025E0
3.430000000E0,-3.980099916E0,-5.950999856E-1,-2.158200026E0
3.450000000E0,-4.700500011E0,-1.347000003E0,-2.568099976E0
3.470000000E0,-5.085799694E0,-2.717799902E0,-3.046200037E0
3.490004687E0,-4.919300079E0,-4.622999668E0,-3.067199945E0
3.520000000E0,-4.816599846E0,-7.982499599E0,-3.646499872E0
3.540006250E0,-5.405699730E0,-8.723999977E0,-4.010999680E0
3.570000000E0,-4.300600052E0,-9.257100105E0,-4.107399940E0
3.590000000E0,-3.203099966E0,-9.809399605E0,-3.938899994E0
3.610000000E0,-3.230899811E0,-9.643699646E0,-2.589599848E0
3.630000000E0,-4.352399826E0,-8.920899391E0,-1.036399961E0
3.650000000E0,-5.706099987E0,-7.374499798E0,4.424999952E-1
3.670009375E0,-3.971099854E0,-7.601799965E0,1.392799973E0
3.700000000E0,-5.047999620E-1,-7.105499744E0,4.403999746E-1
3.720000000E0,1.115299940E0,-6.355599880E0,7.757999897E-1
3.740006250E0,2.812599897E0,-6.296899796E0,6.252999902E-1
3.770001562E0,4.922599792E0,-6.918900013E0,6.699999571E-1
3.800000000E0,3.327600002E0,-5.082499981E0,9.028999805E-1
3.820001562E0,2.193300009E0,-3.256500006E0,1.408399940E0
3.850000000E0,8.378999829E-1,-6.812999845E-1,2.379099846E0
3.870000000E0,-2.474000007E-1,1.098299980E0,2.740999937E0
3.890000000E0,-1.252799988E0,3.096599817E0,2.992599964E0
3.910000000E0,-1.137399912E0,4.240099907E0,2.716599941E0
3.930000000E0,-5.638999939E-1,4.671700001E0,1.611199975E0
3.950000000E0,-1.595999897E-1,4.718299866E0,1.057399988E0
3.970000000E0,6.326000094E-1,4.533400059E0,4.194999933E-1
3.990000000E0,2.100600004E0,4.652800083E0,2.402999997E-1
4.010001562E0,3.383599997E0,5.202399731E0,5.234000087E-1
4.040000000E0,5.617599964E0,5.361799717E0,1.073499918E0
4.060000000E0,7.552099705E0,5.222599983E0,1.806299925E0
4.080001562E0,8.178099632E0,4.759299755E0,2.031100035E0
4.110000000E0,6.707299709E0,4.705899715E0,1.621899962E0
4.130000000E0,5.750699997E0,4.794600010E0,2.096099854E0
4.150001562E0,6.028399944E0,4.455499649E0,3.181499958E0
4.180000000E0,8.137499809E0,2.623999834E0,5.344599724E0
4.200000000E0,1.052509975E1,-7.519999892E-2,5.627599716E0
4.220001562E0,1.299699974E1,-3.091899872E0,4.545499802E0
4.250000000E0,1.352209949E1,-6.259399891E0,2.655900002E0
4.270001562E0,1.007819939E1,-5.850899696E0,1.703799963E0
4.300001562E0,3.218799829E0,-4.020400047E0,8.826999664E-1
4.330001562E0,-1.198799968E0,-2.494400024E0,2.653000057E-1
4.350001562E0,-2.895599842E0,-2.264799833E0,-3.470000029E-1
4.370001562E0,-4.177599907E0,-2.518399954E0,-1.166700006E0
4.390001562E0,-5.163399696E0,-3.066099882E0,-1.902499914E0
4.410001562E0,-5.434899807E0,-4.210599899E0,-2.171900034E0
4.440001562E0,-5.245599747E0,-6.548399925E0,-2.151599884E0
4.470000000E0,-5.187799931E0,-8.283699989E0,-2.054600000E0
4.490000000E0,-5.415899754E0,-8.540200233E0,-2.473999977E0
4.510000000E0,-4.901899815E0,-8.992599487E0,-2.832000017E0
4.530000000E0,-4.076099873E0,-9.887000084E0,-2.877300024E0
4.550000000E0,-3.872399807E0,-1.039939976E1,-2.541199923E0
4.570000000E0,-4.265100002E0,-9.920899391E0,-1.440500021E0
4.590000000E0,-5.010399818E0,-8.624799728E0,-1.641999930E-1
4.610000000E0,-2.916800022E0,-9.335700035E0,5.791000128E-1
4.630000000E0,-1.351699948E0,-9.364699364E0,5.974000096E-1
4.650000000E0,-8.050999641E-1,-7.464299679E0,1.180499911E0
4.670009375E0,1.278100014E0,-7.341899872E0,1.177999973E0
4.700000000E0,4.859099865E0,-8.023599625E0,1.507799983E0
4.720000000E0,5.526999950E0,-7.731099606E0,1.263999939E0
4.740000000E0,4.739900112E0,-6.571699619E0,1.024600029E0
4.760001562E0,3.644799948E0,-4.713799953E0,9.941999912E-1
4.790001562E0,8.762999773E-1,-1.111099958E0,1.203400016E0
4.820001562E0,-9.335999489E-1,2.397399902E0,1.390699983E0
4.840003125E0,-1.792499900E0,4.000400066E0,1.034600019E0
4.870001562E0,-2.071599960E0,5.143399715E0,6.322999597E-1
4.890001562E0,-1.824799895E0,5.148200035E0,3.037000000E-1
4.910001562E0,-1.425400019E0,4.999700069E0,3.938999772E-1
4.940006250E0,9.445999861E-1,4.571399689E0,6.258999705E-1
4.970000000E0,4.082099915E0,3.787699938E0,2.470999956E-1
4.990000000E0,5.963500023E0,3.768299818E0,5.163999796E-1
5.010000000E0,7.564799786E0,3.649199963E0,1.008399963E0
5.030000000E0,8.913700104E0,3.329499960E0,1.191999912E0
5.050000000E0,9.817299843E0,3.201999903E0,1.594799995E0
5.070000000E0,1.076789951E1,2.533399820E0,2.894999981E0
5.090000000E0,1.028209972E1,2.019399881E0,4.174900055E0
5.110000000E0,8.543499947E0,2.740399837E0,6.125000000E0
5.130000000E0,7.786399841E0,2.612399817E0,7.131999969E0
5.150000000E0,8.738599777E0,9.764999747E-1,6.384199619E0
5.170000000E0,9.692999840E0,-1.283499956E0,5.042500019E0
5.190000000E0,9.526499748E0,-3.381599903E0,4.051899910E0
5.210000000E0,7.175899982E0,-3.683499813E0,3.185999870E0
5.230000000E0,3.638599873E0,-2.484299898E0,2.326299906E0
5.250000000E0,8.521999717E-1,-1.490099907E0,1.518499970E0
5.270000000E0,-1.246799946E0,-6.714999676E-1,8.560000062E-1
5.290000000E0,-2.574300051E0,-2.107999921E-1,3.449999988E-1
5.310001562E0,-3.322099924E0,-2.815999985E-1,-2.331999987E-1
5.330001562E0,-4.043299675E0,-7.407000065E-1,-4.650999904E-1
5.360000000E0,-4.641999722E0,-1.493299961E0,-3.942999840E-1
5.380000000E0,-3.560400009E0,-3.218199968E0,-4.739999771E-1
5.400000000E0,-1.954999924E0,-5.850899696E0,-7.537999749E-1
5.420000000E0,-9.966999888E-1,-7.991399765E0,-9.598999619E-1
5.440006250E0,-1.278399944E0,-8.279899597E0,-8.539999723E-1
5.470000000E0,-1.296700001E0,-8.564099312E0,-6.861000061E-1
5.490000000E0,-8.366999626E-1,-8.807499886E0,-5.389999747E-1
5.510000000E0,1.427000016E-1,-8.380399704E0,-3.928999901E-1
5.530000000E0,-4.470999837E-1,-7.690599918E0,-4.038999975E-1
5.550000000E0,-2.575199842E0,-6.572299957E0,-1.241999939E-1
5.570000000E0,-3.318699837E0,-8.042300224E0,-8.111999631E-1
5.590000000E0,-5.853499889E0,-6.914999962E0,-1.060899973E0
5.610000000E0,-5.745699883E0,-5.870800018E0,2.820999920E-1
5.630000000E0,-2.273299932E0,-6.606899738E0,-5.579999834E-2
5.650000000E0,1.147199988E0,-7.546899796E0,-6.969999522E-2
5.670000000E0,2.455399990E0,-7.854199886E0,1.404999942E-1
5.690001562E0,2.031699896E0,-7.460799694E0,-3.097999990E-1
5.710001562E0,8.542999625E-1,-6.026099682E0,-3.579999804E-1
5.740001562E0,-5.119000077E-1,-2.075500011E0,-7.759999484E-2
5.770001562E0,2.301999927E-1,1.569700003E0,5.399999619E-1
5.790001562E0,2.223999947E-1,3.204200029E0,1.449499965E0
5.820000000E0,-4.117999971E-1,4.075799942E0,2.414599895E0
5.840000000E0,-1.192899942E0,4.500899792E0,2.824399948E0
5.860000000E0,-1.771699905E0,4.645999908E0,2.963599920E0
5.880000000E0,-1.764299989E0,4.764100075E0,3.039700031E0
5.900000000E0,-1.179099917E0,5.199899673E0,3.583299875E0
5.920000000E0,2.113999873E-1,5.427799702E0,4.198100090E0
5.940001562E0,1.897499919E0,5.403199673E0,4.178599834E0
5.970000000E0,4.120899677E0,4.702399731E0,3.868199825E0
5.990000000E0,5.641599655E0,4.077499866E0,3.704899788E0
6.010000000E0,6.995399952E0,3.842999935E0,3.416699886E0
6.030000000E0,7.492499828E0,4.233500004E0,2.436199903E0
6.050000000E0,6.375099659E0,4.810199738E0,1.591499925E0
6.070000000E0,4.810499668E0,5.042699814E0,1.894400001E0
6.090000000E0,4.845299721E0,3.745100021E0,3.439800024E0
6.110000000E0,6.891399860E0,1.227599978E0,3.187099934E0
6.130000000E0,9.873199463E0,-1.606699944E0,3.299999952E0
6.150000000E0,1.073269939E1,-3.389199972E0,3.032599926E0
6.170001562E0,8.417300224E0,-2.812000036E0,2.858399868E0
6.190001562E0,4.680599689E0,-2.009700060E0,2.516999960E0
6.220000000E0,2.119999938E-2,-1.132399917E0,1.300300002E0
6.240000000E0,-2.290499926E0,-4.398999810E-1,9.415999651E-1
6.260000000E0,-3.838999987E0,-3.820999861E-1,3.517999947E-1
6.280000000E0,-4.745500088E0,-6.547999978E-1,-2.010999918E-1
6.300000000E0,-5.222799778E0,-1.535699964E0,-8.072999716E-1
6.320000000E0,-5.482599735E0,-2.679299831E0,-1.625299931E0
6.340004687E0,-5.147599697E0,-4.807399750E0,-2.855499983E0
6.370001562E0,-5.057699680E0,-6.858799934E0,-3.207199812E0
6.400000000E0,-3.337899923E0,-8.531199455E0,-3.708199978E0
6.420000000E0,-2.825599909E0,-9.469599724E0,-4.031300068E0
6.440001562E0,-3.204799891E0,-1.043309975E1,-3.863999844E0
6.460014062E0,-4.274399757E0,-1.043270016E1,-2.943899870E0
6.490000000E0,-4.542399883E0,-9.018699646E0,-5.479999781E-1
6.510000000E0,-1.302299976E0,-1.014779949E1,3.886999786E-1
6.530000000E0,1.252399921E0,-1.009939957E1,1.723999977E-1
6.550000000E0,2.284399986E0,-8.154799461E0,7.066999674E-1
6.570000000E0,3.924399853E0,-7.585999966E0,7.708999515E-1
6.590000000E0,5.230099678E0,-6.967299938E0,9.679999948E-1
6.610000000E0,5.694999695E0,-6.060499668E0,2.017999887E0
6.630000000E0,5.161699772E0,-4.187900066E0,2.220200062E0
6.650004687E0,3.765399933E0,-2.030999899E0,1.795599937E0
6.680000000E0,5.724999905E-1,1.200299978E0,1.969699979E0
6.700000000E0,-1.009500027E0,2.682799816E0,2.365399837E0
6.720000000E0,-1.814999938E0,4.258699894E0,2.270299911E0
6.740006250E0,-1.096499920E0,4.812399864E0,1.277499914E0
6.770000000E0,-3.946999907E-1,5.197799683E0,-7.020999789E-1
6.790000000E0,-9.690000117E-2,5.178899765E0,-1.410300016E0
6.810000000E0,8.576999903E-1,4.901700020E0,-8.635999560E-1
6.830000000E0,1.823199987E0,5.459399700E0,-3.076999784E-1
6.850000000E0,3.036599874E0,6.178999901E0,4.570999742E-1
6.870001562E0,4.331099987E0,6.750499725E0,2.106199980E0
6.900000000E0,6.327399731E0,6.551300049E0,4.177199841E0
6.920000000E0,7.848999977E0,5.943899632E0,4.041299820E0
6.940000000E0,8.924499512E0,5.272900105E0,3.510599852E0
6.960000000E0,8.693399429E0,4.894599915E0,3.294299841E0
6.980000000E0,8.042799950E0,4.070499897E0,3.266099930E0
7.000000000E0,7.207399845E0,3.880899906E0,4.922100067E0
7.020000000E0,7.608299732E0,2.712299824E0,6.119299889E0
7.040000000E0,9.235699654E0,3.419999778E-2,5.843100071E0
7.060000000E0,1.022499943E1,-2.506199837E0,5.447400093E0
7.080001562E0,1.001599979E1,-4.193699837E0,4.611299992E0
7.109998437E0,6.833699703E0,-4.508100033E0,2.649699926E0
7.130000000E0,3.295199871E0,-4.334599972E0,8.597999811E-1
7.150000000E0,-1.131699920E0,-4.191899776E0,-7.562999725E-1
7.170000000E0,-6.252299786E0,-3.228199959E0,-1.814099908E0
7.190000000E0,-9.165200233E0,-2.314699888E0,-1.584599972E0
7.210000000E0,-9.313300133E0,-1.859699965E0,-1.095000029E0
7.230000000E0,-7.480799675E0,-2.656699896E0,-1.162999988E0
7.250000000E0,-5.698699951E0,-3.418099880E0,-7.935999632E-1
7.270001562E0,-4.164799690E0,-4.433799744E0,-6.383999586E-1
7.300000000E0,-2.037299871E0,-6.848499775E0,-1.544799924E0
7.320000000E0,-2.094899893E0,-8.150599480E0,-2.501600027E0
7.340003125E0,-2.687599897E0,-8.873600006E0,-2.455699921E0
7.370001562E0,-3.383199930E0,-1.038490009E1,-2.548899889E0
7.400000000E0,-5.758299828E0,-9.587800026E0,-1.734899998E0
7.420000000E0,-6.831899643E0,-7.943999767E0,-4.270000011E-2
7.440001562E0,-3.241600037E0,-1.021420002E1,-3.310999870E-1
7.470000000E0,-9.996999502E-1,-8.981200218E0,-2.960000038E-1
7.490000000E0,1.689999998E-1,-8.449199677E0,6.919999719E-1
7.510000000E0,1.628999949E0,-8.419899940E0,1.626199961E0
7.530000000E0,2.817499876E0,-7.955999851E0,2.221600056E0
7.550000000E0,4.144599915E0,-7.467599869E0,2.562099934E0
7.570000000E0,3.259699821E0,-5.573599815E0,2.451599836E0
7.590000000E0,1.261799932E0,-2.876899958E0,2.426199913E0
7.610000000E0,1.366000026E-1,-6.445999742E-1,2.277999878E0
7.630000000E0,-4.160000011E-2,1.386699915E0,1.534199953E0
7.650000000E0,5.633999705E-1,3.028100014E0,5.124999881E-1
7.670000000E0,1.309799910E0,4.653999805E0,-5.489000082E-1
7.690000000E0,2.441499949E0,6.085899830E0,-5.850999951E-1
7.710000000E0,4.721099854E0,6.328099728E0,5.432000160E-1
7.730000000E0,5.773099899E0,6.713299751E0,1.942199945E0
7.750000000E0,7.119699955E0,6.902400017E0,2.474200010E0
7.770000000E0,7.899099827E0,7.066199780E0,2.308399916E0
7.790000000E0,8.325599670E0,7.317100048E0,2.172699928E0
7.810000000E0,9.381699562E0,6.849299908E0,2.225899935E0
7.830000000E0,1.012759972E1,6.190599918E0,2.484799862E0
7.850000000E0,1.056139946E1,5.810400009E0,2.888099909E0
7.870001562E0,1.005340004E1,5.790699959E0,3.848099947E0
7.890001562E0,9.956199646E0,4.656399727E0,5.046700001E0
7.920000000E0,9.048500061E0,3.492899895E0,5.551199913E0
7.940001562E0,9.416199684E0,2.355299950E0,5.988100052E0
7.970000000E0,1.127839947E1,-1.160799980E0,4.653299809E0
7.990000000E0,1.299629974E1,-5.135999680E0,3.735899925E0
8.010000000E0,1.357059956E1,-8.663999557E0,2.956599951E0
8.030000000E0,1.031829929E1,-8.866399765E0,2.142600060E0
8.050000000E0,5.490399837E0,-7.550699711E0,1.808499932E0
8.070000000E0,9.702999592E-1,-6.061800003E0,1.422500014E0
8.090001562E0,-2.560499907E0,-4.789999962E0,1.274199963E0
8.120000000E0,-6.298699856E0,-4.818999767E0,-1.071999967E-1
8.140000000E0,-9.187899590E0,-5.419399738E0,-9.280999899E-1
8.160000000E0,-1.181999969E1,-4.752599716E0,-3.867999911E-1
8.180000000E0,-1.117659950E1,-5.628200054E0,-1.432999969E-1
8.200000000E0,-8.268400192E0,-7.632099628E0,-1.074100018E0
8.220000000E0,-5.594599724E0,-8.710499763E0,-2.107300043E0
8.240000000E0,-3.429199934E0,-9.652599335E0,-3.162699938E0
8.260000000E0,-1.628399968E0,-1.109899998E1,-3.395799875E0
8.280000000E0,-1.147300005E0,-1.223649979E1,-3.124099970E0
8.300000000E0,-3.177199841E0,-1.203039932E1,-2.303200006E0
8.320000000E0,-6.005899906E0,-1.165789986E1,-1.176199913E0
8.340000000E0,-8.661299706E0,-1.029339981E1,3.871999979E-1
8.360000000E0,-7.787699699E0,-1.075710011E1,9.760999680E-1
8.380000000E0,-4.184499741E0,-1.170769978E1,3.215000033E-1
8.400000000E0,-1.292699933E0,-1.103989983E1,8.621999621E-1
8.420000000E0,7.612999678E-1,-9.678799629E0,1.748600006E0
8.440001562E0,2.831599951E0,-9.218400002E0,2.331799984E0
8.470000000E0,5.561399937E0,-8.486499786E0,2.205899954E0
8.490000000E0,6.226899624E0,-7.196099758E0,1.436699986E0
8.510000000E0,5.172499657E0,-4.827899933E0,1.112499952E0
8.530000000E0,3.092700005E0,-2.757099867E0,1.768199921E0
8.550000000E0,6.391999722E-1,-8.317999840E-1,2.623899937E0
8.570000000E0,-1.217999935E0,8.227999806E-1,3.731599808E0
8.590000000E0,-1.759400010E0,2.021800041E0,4.390299797E0
8.610000000E0,-6.895999908E-1,2.571699858E0,4.406699657E0
8.630000000E0,1.464699984E0,2.723999977E0,3.929999828E0
8.650000000E0,2.989899874E0,2.915799856E0,2.977699995E0
8.670000000E0,3.557399988E0,3.137399912E0,2.120800018E0
8.690001562E0,4.470399857E0,3.217999935E0,1.774699926E0
8.710001562E0,6.318599701E0,3.507900000E0,1.583799958E0
8.740003125E0,9.507899284E0,4.449100018E0,1.162599921E0
8.770007812E0,1.149179935E1,5.666599751E0,2.043900013E0
8.800001562E0,1.210349941E1,6.639799595E0,3.445400000E0
8.820001562E0,1.158759975E1,6.670499802E0,3.776599884E0
8.840001562E0,1.069939995E1,6.634199619E0,4.645999908E0
8.860009375E0,1.001429939E1,4.824999809E0,5.065899849E0
8.890000000E0,7.976799965E0,4.478699684E0,6.815799713E0
8.910000000E0,9.581699371E0,1.724699974E0,6.560599804E0
8.930000000E0,1.234029961E1,-2.434700012E0,5.087199688E0
8.950001562E0,1.481629944E1,-7.253599644E0,3.714699984E0
8.980000000E0,1.381209946E1,-1.152479935E1,4.139599800E0
9.000000000E0,8.367699623E0,-1.091009998E1,4.716099739E0
9.020000000E0,1.762499928E0,-8.796799660E0,4.513999939E0
9.040000000E0,-4.410699844E0,-6.212199688E0,2.427899837E0
9.060000000E0,-8.209599495E0,-4.606699944E0,-5.783999562E-1
9.080000000E0,-1.039029980E1,-4.016900063E0,-2.639899969E0
9.100000000E0,-1.161530018E1,-2.507999897E0,-3.087999821E0
9.120000000E0,-9.735599518E0,-2.609099865E0,-2.466199875E0
9.140003125E0,-7.142199993E0,-3.233599901E0,-1.655099988E0
9.170000000E0,-2.869499922E0,-6.139199734E0,-2.719399929E0
9.190000000E0,-2.536900043E0,-7.058899879E0,-4.138999939E0
9.210000000E0,-3.616699934E0,-7.274299622E0,-4.566899776E0
9.230001562E0,-3.966599941E0,-8.383500099E0,-3.829799891E0
9.260000000E0,-3.540999889E0,-1.161579990E1,-2.452699900E0
9.280000000E0,-5.626299858E0,-1.160649967E1,-8.068999648E-1
9.300000000E0,-8.633399963E0,-1.006069946E1,1.719399929E0
9.320000000E0,-8.699500084E0,-9.936800003E0,4.274799824E0
9.340000000E0,-6.140599728E0,-1.152979946E1,4.213799953E0
9.360000000E0,-4.415499687E0,-1.008659935E1,4.022500038E0
9.380001562E0,-1.141399980E0,-9.529600143E0,3.680099964E0
9.410000000E0,4.107100010E0,-9.335599899E0,2.269999981E0
9.430000000E0,5.572999954E0,-8.356900215E0,1.679199934E0
9.450000000E0,4.851699829E0,-5.883399963E0,8.305000067E-1
9.470000000E0,3.663599968E0,-3.706499815E0,-4.844999909E-1
9.490000000E0,2.217200041E0,-1.189299941E0,-9.592999816E-1
9.510000000E0,6.214999557E-1,1.331300020E0,-6.699999571E-1
9.530000000E0,-1.206999943E-1,3.121199846E0,7.859999686E-2
9.550000000E0,-7.039999962E-2,4.039899826E0,-1.485999972E-1
9.570000000E0,9.510000050E-2,4.493499756E0,-5.242999792E-1
9.590000000E0,5.275999904E-1,5.061800003E0,-1.027799964E0
9.610000000E0,1.245399952E0,5.016099930E0,-1.620299935E0
9.630000000E0,2.132799864E0,4.733599663E0,-2.154799938E0
9.650000000E0,3.063599825E0,3.940399885E0,-2.231099844E0
9.670000000E0,4.022200108E0,3.407500029E0,-1.613999963E0
9.690000000E0,5.238999844E0,3.182600021E0,-6.446999907E-1
9.710000000E0,6.520799637E0,3.408599854E0,6.883999705E-1
9.730000000E0,8.022199631E0,3.900499821E0,1.926599979E0
9.750000000E0,1.007009983E1,3.896799803E0,3.079499960E0
9.770001562E0,1.152890015E1,3.726699829E0,2.960799932E0
9.800000000E0,1.174419975E1,3.769199848E0,2.598399878E0
9.820000000E0,1.128100014E1,2.570199966E0,2.621399879E0
9.840001562E0,9.495999336E0,3.404299974E0,4.771999836E0
9.870001562E0,1.055239964E1,2.387599945E0,5.785199642E0
9.900000000E0,1.373379993E1,-2.215999842E0,3.591699839E0
9.920000000E0,1.470160007E1,-5.897799969E0,2.450000048E0
9.940006250E0,1.298839951E1,-8.556599617E0,1.065400004E0
9.970000000E0,5.855400085E0,-8.016200066E0,1.853899956E0
9.990000000E0,1.284600019E0,-6.300099850E0,2.499399900E0
1.001000000E1,-2.328699827E0,-3.714900017E0,2.283599854E0
1.003000000E1,-3.598399878E0,-2.357499838E0,1.735399961E0
1.005000000E1,-3.919999838E0,-2.093499899E0,5.986999869E-1
1.007000000E1,-4.346199989E0,-2.690899849E0,-4.891999960E-1
1.009000000E1,-4.494400024E0,-3.411199808E0,-3.331999779E-1
1.011000000E1,-4.284899712E0,-5.092099667E0,1.350999922E-1
1.013000000E1,-4.036099911E0,-7.006499767E0,3.790000081E-2
1.016000000E1,-4.603399754E0,-8.659600258E0,7.050000131E-2
1.018000000E1,-5.134999752E0,-9.424599648E0,-1.640000008E-2
1.020000000E1,-5.120299816E0,-1.050990009E1,1.754999906E-1
1.022000000E1,-4.745800018E0,-1.089989948E1,3.019999862E-1
1.024000000E1,-3.623999834E0,-1.078549957E1,6.116999984E-1
1.026000000E1,-2.636499882E0,-1.038309956E1,3.695999980E-1
1.028000000E1,-2.695199966E0,-9.189599991E0,-4.867999852E-1
1.030000000E1,-1.813799977E0,-1.064529991E1,-1.088299990E0
1.032000000E1,-2.257999897E0,-1.078020000E1,-1.056200027E0
1.034000469E1,-3.173300028E0,-9.521299362E0,1.185999990E0
1.037000156E1,-1.626199961E0,-8.776800156E0,2.799299955E0
1.039000156E1,8.693000078E-1,-9.259799957E0,3.554099798E0
1.042000000E1,2.254600048E0,-9.189599991E0,3.968099833E0
1.044000156E1,2.008300066E0,-7.928099632E0,3.105599880E0
1.047000000E1,1.622399926E0,-5.221999645E0,1.827199936E0
1.049000000E1,8.084999919E-1,-3.474699974E0,9.809999466E-1
1.051000000E1,-4.490999877E-1,-2.111500025E0,3.170999885E-1
1.053000156E1,-9.982999563E-1,-1.067899942E0,7.030999660E-1
1.056000000E1,1.022699952E0,3.899999857E-1,1.019099951E0
1.058000000E1,4.223499775E0,8.267999887E-1,4.576999843E-1
1.060000000E1,6.934799671E0,1.308200002E0,1.319999993E-2
1.062000000E1,8.084499359E0,2.028199911E0,2.630000003E-2
1.064000000E1,9.222899437E0,2.948999882E0,1.039499998E0
1.066000156E1,1.040129948E1,4.023499966E0,1.764299989E0
1.069000000E1,1.245259953E1,5.530699730E0,1.863899946E0
1.071000000E1,1.279939938E1,6.779599667E0,2.001999855E0
1.073000000E1,1.197209930E1,8.222999573E0,2.125399828E0
1.075000000E1,1.121389961E1,8.954999924E0,2.367399931E0
1.077000156E1,1.080379963E1,8.833199501E0,2.579499960E0
1.080000000E1,1.064179993E1,7.434899807E0,2.960000038E0
1.082000000E1,9.513199806E0,7.837499619E0,3.737399817E0
1.084000625E1,9.590700150E0,6.839499950E0,3.486799955E0
1.087000156E1,1.245359993E1,2.825500011E0,2.554100037E0
1.090000000E1,1.508659935E1,-3.056399822E0,1.122699976E0
1.092000000E1,1.387119961E1,-6.379099846E0,1.837999970E-1
1.094000156E1,9.321100235E0,-6.923699856E0,3.874999881E-1
1.096000156E1,4.159599781E0,-5.387399673E0,1.784799933E0
1.099000000E1,-2.628000081E-1,-4.730999947E0,2.697599888E0
1.101000000E1,-2.148200035E0,-4.248099804E0,2.747499943E0
1.103000000E1,-3.164700031E0,-4.723599911E0,2.206699848E0
1.105000000E1,-3.543399811E0,-5.417299747E0,1.801699996E0
1.107000000E1,-3.459599972E0,-6.985199928E0,1.330999970E0
1.109000000E1,-3.835299969E0,-8.035399437E0,9.577999711E-1
1.111000000E1,-4.040499687E0,-9.073599815E0,1.143999934E0
1.113000000E1,-3.679699898E0,-1.028479958E1,7.673999667E-1
1.115000000E1,-3.366099834E0,-1.131289959E1,6.990999579E-1
1.117000156E1,-3.634599924E0,-1.263469982E1,7.094999552E-1
1.120000000E1,-5.938999653E0,-1.309229946E1,1.194100022E0
1.122000000E1,-7.808699608E0,-1.209229946E1,2.130100012E0
1.124000000E1,-7.495800018E0,-1.161569977E1,3.427199841E0
1.126004219E1,-4.307899952E0,-1.283269978E1,2.924000025E0
1.129000000E1,-1.345299959E0,-1.059229946E1,4.186500072E0
1.131000000E1,9.035999775E-1,-8.993800163E0,4.790800095E0
1.133000000E1,3.102599859E0,-8.029199600E0,4.860199928E0
1.135000000E1,4.970599651E0,-7.430299759E0,4.522799969E0
1.137000156E1,6.214699745E0,-6.810099602E0,3.497799873E0
1.140000000E1,5.402199745E0,-3.994499922E0,1.276899934E0
1.142000000E1,3.074499846E0,-1.898499966E0,-1.332999915E-1
1.144000156E1,8.069999814E-1,-3.518999815E-1,2.699999884E-2
1.147000000E1,-1.351799965E0,1.710299969E0,1.194999933E0
1.149000000E1,-1.500299931E0,2.896899939E0,1.527799964E0
1.151000000E1,1.295000017E-1,3.389099836E0,8.432999849E-1
1.153000000E1,1.185299993E0,4.052499771E0,-2.426999956E-1
1.155000000E1,2.164000034E0,4.768699646E0,-1.017899990E0
1.157000000E1,3.757599831E0,5.059299946E0,-1.493600011E0
1.159000000E1,4.474100113E0,5.546499729E0,-1.977499962E0
1.161000000E1,5.376199722E0,5.834699631E0,-1.444599986E0
1.163000000E1,7.177299976E0,6.286799908E0,-4.004999995E-1
1.165000000E1,8.680099487E0,6.541100025E0,-3.601000011E-1
1.167000000E1,9.961699486E0,6.629299641E0,-5.974000096E-1
1.169000000E1,1.047979927E1,6.712999821E0,-2.699999809E-1
1.171000000E1,9.845299721E0,6.957599640E0,1.073099971E0
1.173000000E1,9.260099411E0,6.191999912E0,2.784899950E0
1.175000000E1,8.681699753E0,5.273200035E0,4.690299988E0
1.177000000E1,8.052000046E0,5.175499916E0,7.077600002E0
1.179000000E1,8.940099716E0,3.889899969E0,7.512300014E0
1.181000000E1,1.128289986E1,1.440199971E0,6.278899670E0
1.183000000E1,1.315339947E1,-1.273699999E0,5.524899960E0
1.185000000E1,1.365939999E1,-3.835299969E0,4.717199802E0
1.187000000E1,1.129859924E1,-5.225999832E0,3.741400003E0
1.189000000E1,7.062500000E0,-5.269499779E0,2.890599966E0
1.191000000E1,2.783399820E0,-4.419399738E0,2.478199959E0
1.193000000E1,-4.211999774E-1,-3.230899811E0,2.705799818E0
1.195000000E1,-1.985899925E0,-2.975100040E0,2.777899981E0
1.197000000E1,-2.618599892E0,-3.519299984E0,2.756299973E0
1.199000000E1,-3.300999880E0,-4.086299896E0,2.177599907E0
1.201000156E1,-3.860299826E0,-4.787399769E0,1.467299938E0
1.204000000E1,-3.786799908E0,-6.109299660E0,1.108500004E0
1.206000000E1,-3.471899986E0,-7.131599903E0,1.243199944E0
1.208000000E1,-3.391999960E0,-8.183300018E0,1.423099995E0
1.210000000E1,-3.860899925E0,-8.644800186E0,1.422699928E0
1.212000000E1,-3.975799799E0,-9.496699333E0,1.325899959E0
1.214000000E1,-4.170799732E0,-1.015180016E1,1.969299912E0
1.216000156E1,-4.387599945E0,-1.040539932E1,2.679100037E0
1.219000000E1,-4.393000126E0,-9.887299538E0,3.217499971E0
1.221000000E1,-2.909600019E0,-1.111439991E1,2.439699888E0
1.223000000E1,-2.858599901E0,-1.109280014E1,2.216199875E0
1.225000000E1,-2.708999872E0,-1.021049976E1,3.475099802E0
1.227000000E1,-1.345499992E0,-9.301699638E0,4.443500042E0
1.229000000E1,1.051100016E0,-9.571000099E0,4.686399937E0
1.231000000E1,2.689800024E0,-9.368800163E0,4.576099873E0
1.233000156E1,3.646999836E0,-8.385199547E0,4.196300030E0
1.235000156E1,3.502199888E0,-6.352299690E0,2.550199986E0
1.237000156E1,2.559700012E0,-4.091899872E0,1.332799911E0
1.240000156E1,5.612999797E-1,-1.021199942E0,5.742999911E-1
1.243000000E1,4.149999842E-2,1.396299958E0,-3.404999971E-1
1.245000000E1,4.626999795E-1,2.324699879E0,-1.146999955E0
1.247000000E1,8.511999846E-1,3.250399828E0,-1.760299921E0
1.249000000E1,1.638099909E0,3.816299915E0,-2.150300026E0
1.251000156E1,2.809700012E0,4.184899807E0,-2.436800003E0
1.254000000E1,5.649299622E0,4.337899685E0,-8.061999679E-1
1.256000781E1,7.118999958E0,4.533499718E0,1.970000006E-2
1.259000000E1,8.392499924E0,5.413099766E0,1.171800017E0
1.261000000E1,9.059100151E0,5.958600044E0,1.412400007E0
1.263000000E1,9.616700172E0,6.473399639E0,1.770799994E0
1.265000000E1,9.658899307E0,6.777299881E0,2.012300014E0
1.267000156E1,9.932299614E0,6.538300037E0,2.908599854E0
1.270000000E1,1.116399956E1,3.791399956E0,4.308199883E0
1.272000000E1,1.057240009E1,3.775699854E0,5.389599800E0
1.274000156E1,1.046679974E1,3.228199959E0,6.066400051E0
1.276000156E1,1.075699997E1,1.141799927E0,5.037799835E0
1.279000000E1,1.198649979E1,-3.269999981E0,4.516099930E0
1.281000000E1,1.157139969E1,-5.250599861E0,3.696399927E0
1.283000000E1,8.874599457E0,-5.397199631E0,3.312700033E0
1.285000000E1,4.901799679E0,-5.165999889E0,2.922999859E0
1.287000000E1,6.832000017E-1,-4.184599876E0,3.322000027E0
1.289000000E1,-1.472199917E0,-3.704199791E0,3.872099876E0
1.291000000E1,-2.378000021E0,-3.815699816E0,3.879799843E0
1.293000000E1,-2.888499975E0,-4.433499813E0,3.733699799E0
1.295000000E1,-2.828699827E0,-5.655699730E0,2.801699877E0
1.297000000E1,-2.556699991E0,-6.795899868E0,1.866099954E0
1.299000000E1,-2.539899826E0,-7.661299706E0,1.778899908E0
1.301000000E1,-2.517299891E0,-8.564499855E0,2.343999863E0
1.303000000E1,-2.773299932E0,-9.655300140E0,2.549099922E0
1.305000000E1,-3.560599804E0,-1.008319950E1,2.828599930E0
1.307000000E1,-4.067800045E0,-1.042809963E1,3.233199835E0
1.309000000E1,-3.842799902E0,-1.096169949E1,3.069799900E0
1.311000000E1,-3.201599836E0,-1.153789997E1,3.524099827E0
1.313000000E1,-3.712899923E0,-1.092859936E1,4.016399860E0
1.315000000E1,-5.354300022E0,-9.557899475E0,3.366400003E0
1.317000000E1,-5.248399734E0,-9.477199554E0,3.003999949E0
1.319000000E1,-4.292599678E0,-9.550399780E0,2.087699890E0
1.321000000E1,-3.484299898E0,-8.455699921E0,2.678400040E0
1.323000000E1,-1.958599925E0,-8.014900208E0,2.555099964E0
1.325000000E1,-4.629999772E-2,-7.825199604E0,3.165099859E0
1.327000156E1,1.496699929E0,-7.678099632E0,3.420799971E0
1.330000000E1,2.597800016E0,-6.153999805E0,3.630999804E0
1.332000000E1,3.502399921E0,-4.866199970E0,2.601300001E0
1.334000000E1,3.960899830E0,-2.986599922E0,1.324699998E0
1.336000156E1,3.803399801E0,-8.404999971E-1,1.358999908E-1
1.339000000E1,3.093400002E0,2.208499908E0,-1.788800001E0
1.341000000E1,2.956499815E0,3.723399878E0,-2.615999937E0
1.343000000E1,3.844399929E0,4.479499817E0,-3.019299984E0
1.345000000E1,4.497600079E0,4.817399979E0,-3.059700012E0
1.347000000E1,4.781699657E0,5.022599697E0,-1.520200014E0
1.349000000E1,4.985599995E0,4.971999645E0,2.375999987E-1
1.351000000E1,5.426399708E0,5.208299637E0,1.708599925E0
1.353000000E1,6.327399731E0,5.509399891E0,2.885900021E0
1.356000313E1,8.202699661E0,5.133699894E0,2.755300045E0
1.359000000E1,8.293399811E0,4.650700092E0,2.284100056E0
1.361000000E1,7.256700039E0,4.880700111E0,2.370599985E0
1.363000000E1,6.173199654E0,4.685199738E0,3.152599812E0
1.365000000E1,5.108999729E0,3.842899799E0,3.928799868E0
1.367000156E1,4.812699795E0,3.212699890E0,5.742899895E0
1.370000000E1,9.103599548E0,5.654999614E-1,5.785599709E0
1.372000000E1,1.195319939E1,-2.280499935E0,3.592499971E0
1.374000313E1,1.121420002E1,-3.632900000E0,2.420300007E0
1.376000625E1,7.615399837E0,-4.351799965E0,2.577999830E0
1.379000156E1,1.633099914E0,-2.245899916E0,2.112699986E0
1.381000156E1,-1.072000027E0,-8.464999795E-1,2.449300051E0
1.384000000E1,-2.328999996E0,-1.413999945E-1,2.631999969E0
1.386000000E1,-2.582000017E0,-3.449999988E-1,2.454299927E0
1.388000000E1,-3.007200003E0,-6.193000078E-1,2.926100016E0
1.390000000E1,-3.201200008E0,-1.286700010E0,3.195400000E0
1.392000000E1,-2.769299984E0,-2.400799990E0,2.937700033E0
1.394000625E1,-1.997999907E0,-3.806499958E0,2.635200024E0
1.397000000E1,-1.001999974E-1,-6.475899696E0,2.168200016E0
1.399000000E1,1.150499940E0,-7.857999802E0,2.421900034E0
1.401000000E1,1.423499942E0,-8.017099380E0,3.183300018E0
1.403000000E1,1.850099921E0,-8.866199493E0,3.514899969E0
1.405000000E1,1.810599923E0,-1.009659958E1,3.893699884E0
1.407000000E1,7.853999734E-1,-1.060289955E1,4.634500027E0
1.409000156E1,-6.922000051E-1,-1.010239983E1,5.279699802E0
1.412000312E1,-1.648999929E0,-8.943799973E0,4.215399742E0
1.414000469E1,-2.831799984E0,-7.525099754E0,3.257900000E0
1.417000000E1,-4.165599823E0,-5.879699707E0,1.946799994E0
1.419000000E1,-3.199299812E0,-5.804299831E0,1.706599951E0
1.421000000E1,-1.105599999E0,-6.354599953E0,1.802500010E0
1.423000000E1,8.646999598E-1,-6.615900040E0,1.306599975E0
1.425000000E1,1.658100009E0,-6.322399616E0,5.015999675E-1
1.427000000E1,2.766000032E-1,-5.150899887E0,5.040000081E-1
1.429000000E1,-1.128199935E0,-3.951699972E0,1.032299995E0
1.431000000E1,-1.811100006E0,-2.912999868E0,1.016000032E0
1.433000000E1,-1.729099989E0,-1.634699941E0,1.316299915E0
1.435000000E1,-1.356599927E0,-1.831000000E-1,1.594099998E0
1.437000000E1,-1.644400001E0,1.429299951E0,1.490700006E0
1.439000000E1,-1.850099921E0,2.813999891E0,7.450999618E-1
1.441000000E1,-1.557399988E0,3.885299921E0,-5.309999585E-1
1.443000000E1,-8.187999725E-1,4.546099663E0,-2.110699892E0
1.445000000E1,-2.595999837E-1,4.896800041E0,-3.336299896E0
1.447000313E1,-5.590000004E-2,4.830999851E0,-3.469499826E0
1.450000000E1,6.351999640E-1,3.792699814E0,-2.206699848E0
1.452000000E1,1.775699973E0,2.908900023E0,-8.635999560E-1
1.454000000E1,2.914499998E0,2.240999937E0,2.969999984E-2
1.456000000E1,4.915699959E0,1.410399914E0,6.661999822E-1
1.458000156E1,6.762199879E0,7.639999986E-1,-9.839999676E-2
1.461000000E1,8.508799553E0,-1.851999909E-1,-1.968699932E0
1.463000000E1,8.826899529E0,-2.861999869E-1,-2.821399927E0
1.465000000E1,8.696000099E0,-3.357000053E-1,-2.877300024E0
1.467000000E1,7.456999779E0,5.364999771E-1,-1.494499922E0
1.469000000E1,5.910699844E0,2.029700041E0,6.751999855E-1
1.471000000E1,4.624399662E0,3.734999895E0,2.651700020E0
1.473000000E1,4.205399990E0,5.262099743E0,3.326299906E0
1.475000000E1,4.579799652E0,6.047999859E0,2.733999968E0
1.477000156E1,4.521299839E0,6.655299664E0,2.568500042E0
1.480000000E1,6.683899879E0,4.224400043E0,1.384400010E0
1.482000000E1,9.473499298E0,9.082999825E-1,2.606999874E-1
1.484000625E1,1.118190002E1,-1.531099916E0,-3.526999950E-1
1.487000156E1,1.028450012E1,-3.224999905E0,1.943599939E0
1.490000000E1,7.771299839E0,-4.994499683E0,2.543599844E0
1.492000000E1,4.140399933E0,-4.059400082E0,3.278899908E0
1.494000000E1,1.137499928E0,-3.326200008E0,4.475899696E0
1.496000000E1,-8.005999923E-1,-3.400799990E0,4.982500076E0
1.498000000E1,-1.910699964E0,-4.253299713E0,4.642399788E0
1.500000000E1,-3.467599869E0,-4.140299797E0,4.405900002E0
1.502000156E1,-4.547999859E0,-4.456999779E0,4.000999928E0
1.505000000E1,-5.401599884E0,-5.345399857E0,3.125499964E0
1.507000156E1,-5.593299866E0,-6.514499664E0,3.231499910E0
1.510000000E1,-6.903299809E0,-7.289799690E0,2.276900053E0
1.512000000E1,-7.496299744E0,-7.879599571E0,1.383999944E0
1.514000000E1,-7.426799774E0,-8.269000053E0,1.288999915E0
1.516000156E1,-6.472899914E0,-8.341599464E0,2.594199896E0
1.518000156E1,-5.217599869E0,-8.755199432E0,3.161799908E0
1.520000156E1,-4.713699818E0,-8.682799339E0,3.359099865E0
1.522000156E1,-4.086199760E0,-8.626799583E0,2.941999912E0
1.525000000E1,-3.123299837E0,-9.378899574E0,1.689299941E0
1.527000000E1,-5.030699730E0,-7.680799961E0,3.016799927E0
1.529000000E1,-4.878200054E0,-6.688699722E0,4.802899837E0
1.531000000E1,-1.958499908E0,-6.716300011E0,5.677199841E0
1.533000000E1,1.680499911E0,-7.654399872E0,4.906899929E0
1.535000000E1,2.068099976E0,-7.355000019E0,3.495999813E0
1.537000000E1,3.916999996E-1,-5.678799629E0,2.356600046E0
1.539000000E1,-3.775999844E-1,-4.170000076E0,1.186699986E0
1.542000000E1,5.523999929E-1,-2.020299911E0,1.406399965E0
1.544000000E1,1.102999926E0,-6.010000110E-1,1.707399964E0
1.546000000E1,7.307999730E-1,6.908000112E-1,2.092900038E0
1.548000000E1,3.712999821E-1,1.501500010E0,1.858199954E0
1.550000000E1,6.609999537E-1,1.913299918E0,1.103099942E0
1.552000000E1,1.281599998E0,1.978999972E0,4.681999981E-1
1.554000000E1,2.281100035E0,1.737199903E0,8.259999752E-2
1.556000000E1,3.453999996E0,1.323400021E0,1.643999964E-1
1.558000000E1,4.396100044E0,1.204199910E0,7.497999668E-1
1.560000000E1,5.863399982E0,1.403199911E0,1.514099956E0
1.562000000E1,9.111800194E0,7.663999796E-1,2.166199923E0
1.564000625E1,1.218550014E1,-1.840000041E-2,1.864699960E0
1.567000156E1,1.244859982E1,-2.266999930E-1,1.752200007E0
1.570000000E1,1.197519970E1,1.128999949E0,2.863699913E0
1.572000000E1,1.320919991E1,2.893299818E0,3.943799973E0
1.574000000E1,1.391199970E1,5.436699867E0,3.685999870E0
1.576000156E1,1.235260010E1,9.432499886E0,2.852699995E0
1.579000000E1,1.096490002E1,1.098309994E1,5.594999790E-1
1.581000000E1,1.020599937E1,8.563899994E0,-2.542399883E0
1.583000000E1,9.092599869E0,7.576200008E0,-2.879999876E0
1.585000000E1,1.178419971E1,5.471199989E0,-2.268599987E0
1.587000156E1,1.779839897E1,-5.978999734E-1,-3.412999868E0
1.589000156E1,2.119769859E1,-7.540199757E0,-3.557699919E0
1.592000000E1,1.950349998E1,-1.768019867E1,2.903399944E0
1.594000156E1,1.222229958E1,-1.796959877E1,5.567499638E0
1.596000469E1,5.749399662E0,-1.515520000E1,6.726199627E0
1.599000000E1,-1.154199958E0,-1.073719978E1,8.010799408E0
1.601000000E1,-3.801499844E0,-8.877099991E0,6.146699905E0
1.603000000E1,-5.388099670E0,-8.401599884E0,4.355299950E0
1.605000000E1,-6.711599827E0,-8.324799538E0,2.413499832E0
1.607000000E1,-8.219499588E0,-8.132900238E0,3.542999923E-1
1.609000000E1,-8.809599876E0,-8.134499550E0,-4.964999855E-1
1.611000000E1,-7.998399734E0,-8.937899590E0,7.816999555E-1
1.613000000E1,-7.640999794E0,-9.588600159E0,1.404899955E0
1.615000000E1,-7.358099937E0,-1.031890011E1,1.485399961E0
1.617000156E1,-7.175699711E0,-1.032419968E1,1.084900022E0
1.620000000E1,-5.688299656E0,-9.989799500E0,1.713699937E0
1.622000000E1,-4.387899876E0,-1.014039993E1,1.622399926E0
1.624000156E1,-3.857399940E0,-9.528100014E0,1.522799969E0
1.627000000E1,-4.674499989E0,-8.027999878E0,2.767799854E0
1.629000000E1,-5.043600082E0,-7.589399815E0,3.650799990E0
1.631000000E1,-4.206299782E0,-8.758699417E0,3.016399860E0
1.633000000E1,-4.695099831E0,-8.680600166E0,2.948499918E0
1.635000000E1,-4.444299698E0,-8.642999649E0,3.469899893E0
1.637000000E1,-2.060400009E0,-9.522999763E0,3.699199915E0
1.639000000E1,2.595999837E-1,-1.029220009E1,4.622999668E0
1.641000000E1,1.639299989E0,-1.089200020E1,5.416999817E0
1.643000000E1,2.005499840E0,-1.067939949E1,5.504499912E0
1.645000000E1,1.924699903E0,-9.814399719E0,4.200900078E0
1.647000000E1,1.866899967E0,-8.204899788E0,2.896100044E0
1.649000000E1,2.477900028E0,-6.629499912E0,2.176100016E0
1.651000000E1,2.950099945E0,-5.203799725E0,2.266700029E0
1.653000000E1,2.988499880E0,-3.664099932E0,3.083699942E0
1.655000000E1,4.063600063E0,-2.099099874E0,3.940299988E0
1.657000000E1,6.124899864E0,-7.777000070E-1,3.788499832E0
1.659000000E1,7.241299629E0,6.147999763E-1,2.841099977E0
1.661000000E1,7.554999828E0,1.740899920E0,2.005399942E0
1.663000000E1,8.102600098E0,2.255199909E0,1.945400000E0
1.665000000E1,9.352000237E0,2.128000021E0,1.841499925E0
1.667000000E1,1.016440010E1,2.189499855E0,1.619499922E0
1.669000000E1,9.778699875E0,2.930299997E0,2.117300034E0
1.671000000E1,9.769499779E0,3.324399948E0,2.563499928E0
1.673000000E1,1.003039932E1,3.751699924E0,3.052899837E0
1.675000000E1,1.036240005E1,4.382199764E0,3.452899933E0
1.677000000E1,1.115110016E1,4.513299942E0,4.216799736E0
1.679000000E1,1.113560009E1,5.200799942E0,5.247999668E0
1.681000000E1,9.862699509E0,8.164699554E0,6.970499992E0
1.683000000E1,1.056769943E1,8.873000145E0,7.107899666E0
1.685000000E1,1.205029964E1,7.440599918E0,5.809899807E0
1.687000000E1,1.361129951E1,3.707599878E0,4.908400059E0
1.689000000E1,1.555189991E1,-1.586199999E0,3.827999830E0
1.691000000E1,1.543089962E1,-5.189699650E0,2.455399990E0
1.693000000E1,1.272299957E1,-6.440299988E0,1.532699943E0
1.695000000E1,8.533299446E0,-6.404999733E0,1.307399988E0
1.697000000E1,4.163000107E0,-5.388499737E0,1.115800023E0
1.699000000E1,7.825999856E-1,-4.396899700E0,1.110399961E0
1.701000000E1,-1.471399903E0,-3.279699802E0,8.317999840E-1
1.703000000E1,-2.957000017E0,-3.115299940E0,2.448999882E-1
1.705000000E1,-4.275499821E0,-2.902699947E0,-8.157999516E-1
1.707000469E1,-4.819600105E0,-3.095899820E0,-1.034500003E0
1.710000000E1,-4.763499737E0,-4.856100082E0,-9.483000040E-1
1.712000000E1,-4.911600113E0,-6.438199997E0,-5.877999663E-1
1.714000000E1,-5.088799953E0,-7.875000000E0,-6.226999760E-1
1.716000156E1,-5.156199932E0,-9.014800072E0,-1.141299963E0
1.719000000E1,-5.234099865E0,-9.887700081E0,-1.604799986E0
1.721000000E1,-5.115499973E0,-1.040329933E1,-1.647899985E0
1.723000000E1,-5.466199875E0,-1.038059998E1,-9.605000019E-1
1.725000000E1,-6.078599930E0,-9.615399361E0,3.233999908E-1
1.727000469E1,-5.228199959E0,-9.497900009E0,1.323400021E0
1.730000000E1,-3.080399990E0,-9.584899902E0,8.715999722E-1
1.732000000E1,-2.492399931E0,-8.063799858E0,2.198799849E0
1.734000000E1,-8.628999591E-1,-7.913199902E0,2.395400047E0
1.736002188E1,8.062999845E-1,-8.297800064E0,2.406699896E0
1.739000000E1,2.348899841E0,-8.248299599E0,2.887199879E0
1.741000000E1,3.124500036E0,-7.551699638E0,2.641799927E0
1.743000000E1,3.279199839E0,-5.658999920E0,1.615199924E0
1.745000000E1,3.266799927E0,-3.303999901E0,9.459999800E-1
1.747000000E1,2.581799984E0,-1.029500008E0,5.126999617E-1
1.749000000E1,1.002099991E0,9.960999489E-1,3.482999802E-1
1.751000000E1,1.557999998E-1,2.399399996E0,6.096999645E-1
1.753000000E1,9.140999913E-1,3.131399870E0,8.042999506E-1
1.755000000E1,2.441400051E0,3.715299845E0,5.159000158E-1
1.757000000E1,3.321899891E0,4.300399780E0,-2.534999847E-1
1.759000156E1,4.243700027E0,4.433099747E0,-1.216799974E0
1.762000000E1,5.753999710E0,4.548099995E0,-1.536599994E0
1.764000156E1,7.038399696E0,4.297499657E0,-4.588999748E-1
1.766000156E1,8.415999413E0,4.104300022E0,4.820999801E-1
1.769000000E1,9.073499680E0,4.358299732E0,1.532999992E0
1.771000000E1,9.424699783E0,4.773600101E0,2.430799961E0
1.773000156E1,1.015479946E1,4.810599804E0,3.234299898E0
1.776000156E1,9.367599487E0,5.757999897E0,5.052000046E0
1.779000000E1,8.083700180E0,4.680099964E0,5.169899940E0
1.781000156E1,6.849999905E0,4.666899681E0,5.288499832E0
1.784000000E1,9.886499405E0,2.371399879E0,5.414599895E0
1.786000000E1,1.301109982E1,-4.179999828E-1,4.159199715E0
1.788000000E1,1.493019962E1,-3.247299910E0,2.894599915E0
1.790000000E1,1.484739971E1,-5.672599792E0,1.890699983E0
1.792000000E1,1.153539944E1,-6.840099812E0,1.499400020E0
1.794000000E1,6.240499973E0,-6.328899860E0,1.660300016E0
1.796000000E1,9.884999990E-1,-4.385499954E0,1.873899937E0
1.798000000E1,-1.770399928E0,-3.006999969E0,2.168699980E0
1.800000000E1,-2.834499836E0,-2.770400047E0,2.376499891E0
1.802000000E1,-3.703599930E0,-2.711199999E0,2.239799976E0
1.804000000E1,-4.605799675E0,-3.165799856E0,1.903999925E0
1.806000000E1,-5.050899982E0,-4.435899734E0,1.339200020E0
1.808000000E1,-4.869299889E0,-5.934999943E0,2.346999943E-1
1.810000000E1,-4.853600025E0,-7.403100014E0,-2.113000005E-1
1.813000000E1,-5.548199654E0,-8.786999702E0,-3.155999780E-1
1.815000000E1,-5.802199841E0,-9.177199364E0,-2.117999941E-1
1.817000156E1,-5.045300007E0,-9.717999458E0,3.199000061E-1
1.820000000E1,-3.069200039E0,-1.071290016E1,1.504099965E0
1.822000000E1,-2.836499929E0,-1.044110012E1,2.302299976E0
1.824000000E1,-4.030799866E0,-9.086599350E0,2.800099850E0
1.826000000E1,-3.474200010E0,-1.049889946E1,1.635299921E0
1.828000000E1,-4.243400097E0,-1.025640011E1,9.940999746E-1
1.830000000E1,-4.157899857E0,-8.972700119E0,2.961199999E0
1.832000000E1,-2.284199953E0,-8.838099480E0,3.500599861E0
1.834000156E1,2.292999923E-1,-9.419799805E0,3.881599903E0
1.837000000E1,2.407299995E0,-9.024999619E0,3.883799791E0
1.839000000E1,1.799299955E0,-7.487099648E0,2.935699940E0
1.841000000E1,8.865000010E-1,-5.455399990E0,1.769400001E0
1.843000000E1,2.577999830E-1,-3.201499939E0,1.099699974E0
1.845000000E1,9.809999913E-2,-1.321799994E0,1.124400020E0
1.847000000E1,-2.486999929E-1,3.340999782E-1,1.287999988E0
1.849000000E1,-5.528999567E-1,1.718899965E0,1.572499990E0
1.851000000E1,2.886999846E-1,2.616199970E0,7.602999806E-1
1.853000000E1,1.810199976E0,2.937399864E0,-6.437000036E-1
1.855000000E1,3.718299866E0,3.208299875E0,-2.052000046E0
1.857000000E1,5.644999981E0,3.191799879E0,-2.887399912E0
1.859000000E1,7.302000046E0,2.877699852E0,-3.327799797E0
1.861000000E1,8.621399879E0,2.541699886E0,-2.956499815E0
1.863000000E1,9.728300095E0,2.315299988E0,-1.497900009E0
1.865000000E1,1.030889988E1,2.547600031E0,7.773999572E-1
1.867000156E1,1.039999962E1,3.439999819E0,2.902899981E0
1.870000000E1,1.086800003E1,4.787300110E0,4.349699974E0
1.872000000E1,1.107679939E1,5.695899963E0,4.513599873E0
1.874000000E1,1.168219948E1,5.370899677E0,3.825299978E0
1.876000000E1,1.081239986E1,6.208799839E0,4.268000126E0
1.878000000E1,1.003409958E1,6.488599777E0,4.872799873E0
1.880000156E1,1.068279934E1,4.372699738E0,3.792199850E0
1.883000000E1,1.329369926E1,-8.745999932E-1,3.972599983E0
1.885000000E1,1.383759975E1,-4.263599873E0,3.732699871E0
1.887000156E1,1.158150005E1,-5.836299896E0,3.497599840E0
1.890000000E1,5.101599693E0,-5.631099701E0,3.581099987E0
1.892000000E1,9.417999983E-1,-4.171599865E0,3.621399879E0
1.894000469E1,-1.837499976E0,-2.737499952E0,3.242699862E0
1.897000000E1,-2.954799891E0,-1.823799968E0,2.284199953E0
1.899000000E1,-3.247599840E0,-2.247999907E0,1.286999941E0
1.901000000E1,-3.524799824E0,-3.283900023E0,5.303999782E-1
1.903000000E1,-3.473999977E0,-4.629300117E0,5.036999583E-1
1.905000000E1,-3.128700018E0,-6.185599804E0,3.127000034E-1
1.907000000E1,-1.842199922E0,-8.896100044E0,-4.073999822E-1
1.909000000E1,-2.519199848E0,-9.869999886E0,-6.603999734E-1
1.911000000E1,-4.143300056E0,-9.603699684E0,-1.409000009E-1
1.913000000E1,-4.581900120E0,-9.991499901E0,-1.018999964E-1
1.915000000E1,-5.248499870E0,-1.043130016E1,-1.992999911E-1
1.917000000E1,-6.377899647E0,-9.847199440E0,1.463599920E0
1.919000000E1,-7.092199802E0,-8.706500053E0,3.501499891E0
1.921000000E1,-5.206599712E0,-9.553199768E0,3.323299885E0
1.923000000E1,-4.246200085E0,-9.469200134E0,1.541299939E0
1.925000000E1,-4.312500000E0,-8.090799332E0,2.070499897E0
1.927000000E1,-3.084100008E0,-7.477999687E0,2.987200022E0
1.929000000E1,-1.066200018E0,-7.630399704E0,3.606400013E0
1.931000000E1,9.375000000E-1,-7.673499584E0,3.657599926E0
1.933000000E1,2.138000011E0,-7.169099808E0,2.698199987E0
1.935000000E1,2.140399933E0,-5.870899677E0,1.632200003E0
1.937000156E1,9.210000038E-1,-3.784499884E0,1.033900023E0
1.940000000E1,-7.270000130E-2,-9.822999835E-1,8.777999878E-1
1.942000000E1,1.288999915E-1,3.826999962E-1,1.032799959E0
1.944000000E1,-5.419999734E-2,1.882099986E0,1.263599992E0
1.946000625E1,-9.369999915E-2,3.019500017E0,1.494099975E0
1.949000000E1,6.861999631E-1,3.745999813E0,3.560999930E-1
1.952000000E1,1.140499949E0,3.893699884E0,-1.148299932E0
1.954000000E1,2.074100018E0,3.051499844E0,-1.675799966E0
1.956000000E1,3.575699806E0,2.023499966E0,-1.337700009E0
1.958000000E1,5.136399746E0,1.426299930E0,-4.050000012E-1
1.960000000E1,6.515599728E0,8.454999924E-1,4.347999990E-1
1.962000000E1,7.136499882E0,7.045999765E-1,1.495700002E0
1.964000000E1,7.757599831E0,1.276399970E0,3.311299801E0
1.966000000E1,9.038700104E0,2.158299923E0,3.820400000E0
1.968000000E1,1.053679943E1,2.760900021E0,2.937099934E0
1.970000000E1,1.046850014E1,2.911700010E0,1.457099915E0
1.972000000E1,8.539500237E0,4.022599697E0,6.645999551E-1
1.974000000E1,7.600599766E0,4.170899868E0,1.203599930E0
1.976000156E1,7.512099743E0,3.023999929E0,1.006600022E0
1.979000000E1,8.124099731E0,4.711000025E-1,6.086999774E-1
1.981000000E1,7.969599724E0,-1.100000024E0,-7.974999547E-1
1.983000000E1,5.452600002E0,-8.552999496E-1,-5.145999789E-1
1.985000000E1,2.259299994E0,-1.787000000E-1,5.834000111E-1
1.987000156E1,-7.400000095E-1,9.330999851E-1,1.712000012E0
1.990000000E1,-3.163399935E0,1.887099981E0,2.191900015E0
1.992000000E1,-3.970699787E0,1.868600011E0,1.608399987E0
1.994000000E1,-4.393099785E0,1.072199941E0,3.466999829E-1
1.996000156E1,-5.265699863E0,2.775000036E-1,-1.217599988E0
1.999000000E1,-5.609600067E0,-1.163699985E0,-1.784899950E0
2.001000156E1,-4.802199841E0,-2.714200020E0,-1.172199965E0
2.004000000E1,-4.786900043E0,-4.655099869E0,-9.079999477E-2
2.006000000E1,-4.951099873E0,-5.756899834E0,1.174799919E0
2.008000000E1,-4.341899872E0,-6.894000053E0,2.970899820E0
2.010000156E1,-3.624300003E0,-7.692999840E0,5.226500034E0
2.013000000E1,-3.736799955E0,-6.778199673E0,6.218599796E0
2.015000000E1,-4.408099651E0,-4.994699955E0,4.894499779E0
2.017000000E1,-2.943599939E0,-6.287399769E0,2.461400032E0
2.019000000E1,-3.223599911E0,-5.608500004E0,2.455499887E0
2.021000000E1,-3.408200026E0,-4.391099930E0,5.406399727E0
2.023000000E1,-1.814399958E0,-4.438199997E0,7.007899761E0
2.025000000E1,2.449999899E-1,-4.594999790E0,7.056599617E0
2.027000000E1,1.964100003E0,-4.642099857E0,4.300499916E0
2.029000000E1,3.231299877E0,-4.042099953E0,1.316699982E0
2.031000000E1,3.134299994E0,-2.229099989E0,-1.106599927E0
2.033000000E1,2.118900061E0,1.381999999E-1,-1.575599909E0
2.035000000E1,1.500199914E0,1.771699905E0,-1.042500019E0
2.037000000E1,9.281999469E-1,3.053900003E0,-5.852000117E-1
2.039000000E1,8.743999600E-1,3.950899839E0,-9.225999713E-1
2.041000000E1,1.168099999E0,4.592099667E0,-1.510199904E0
2.043000000E1,1.891999960E0,4.824500084E0,-2.122200012E0
2.045000000E1,2.631599903E0,4.797899723E0,-2.033499956E0
2.047000000E1,3.686499834E0,4.414899826E0,-1.910099983E0
2.049000000E1,4.831999779E0,3.700199842E0,-1.912899971E0
2.051000000E1,5.465300083E0,3.308099985E0,-1.778299928E0
2.053000000E1,6.248899937E0,2.897599936E0,-1.434700012E0
2.055000000E1,7.359499931E0,2.114399910E0,-1.411799908E0
2.057000000E1,8.150699615E0,1.584499955E0,-1.385399938E0
2.059000000E1,8.603099823E0,1.012099981E0,-1.159899950E0
2.061000000E1,8.652500153E0,7.666999698E-1,-5.232999921E-1
2.063000000E1,8.969599724E0,1.123099923E0,8.320000023E-2
2.065000000E1,9.766399384E0,4.700999856E-1,-3.122999966E-1
2.067000000E1,9.208399773E0,4.906999767E-1,-2.602999806E-1
2.069000000E1,9.133799553E0,4.672999978E-1,-4.609999955E-1
2.071000000E1,1.008139992E1,-1.739999950E-1,-9.736999869E-1
2.073000000E1,1.094939995E1,-1.711699963E0,-1.223299980E0
2.075000000E1,1.167809963E1,-4.782799721E0,-1.174000025E0
2.077000156E1,1.005789948E1,-7.132400036E0,-1.187199950E0
2.080000000E1,4.795000076E0,-6.976500034E0,1.456799984E0
2.082000000E1,1.746199965E0,-5.380399704E0,2.637500048E0
2.084000000E1,-7.752999663E-1,-3.356899977E0,3.690299988E0
2.086000000E1,-2.971799850E0,-1.524899960E0,3.450599909E0
2.088000000E1,-3.957000017E0,-8.086000085E-1,2.701499939E0
2.090000000E1,-4.924599648E0,-5.281000137E-1,2.353299856E0
2.092000000E1,-5.915400028E0,-4.927999973E-1,2.188999891E0
2.094000312E1,-6.323499680E0,-1.760999918E0,1.190899968E0
2.097000000E1,-6.578000069E0,-4.531899929E0,3.886999786E-1
2.099000000E1,-7.141599655E0,-6.500299931E0,8.677999973E-1
2.101000000E1,-7.282699585E0,-8.340999603E0,2.199100018E0
2.103000000E1,-7.710099697E0,-8.786799431E0,4.153500080E0
2.106000312E1,-8.633199692E0,-8.564499855E0,5.487699986E0
2.109000000E1,-9.347499847E0,-7.500999928E0,5.611199856E0
2.111000000E1,-7.123799801E0,-8.119699478E0,4.451900005E0
2.113000000E1,-5.438899994E0,-8.486100197E0,3.434499979E0
2.115000000E1,-5.702600002E0,-6.965099812E0,6.035099983E0
2.117000000E1,-4.249599934E0,-6.542799950E0,7.422599792E0
2.119000000E1,-1.101999998E0,-6.700399876E0,7.366399765E0
2.121000000E1,1.799099922E0,-7.224499702E0,5.390599728E0
2.123000000E1,3.080099821E0,-6.981099606E0,3.324599981E0
2.125000000E1,2.590899944E0,-5.502099991E0,2.144199848E0
2.127000000E1,1.641899943E0,-3.351799965E0,1.745099902E0
2.129000000E1,1.077099919E0,-1.192999959E0,1.741199970E0
2.131000000E1,1.369099975E0,6.523999572E-1,1.837599993E0
2.133000000E1,1.935799956E0,1.918099999E0,1.355700016E0
2.135000000E1,2.364899874E0,2.912400007E0,-1.469999924E-2
2.137000000E1,2.673499823E0,3.358399868E0,-1.629400015E0
2.139000156E1,3.423499823E0,3.408900023E0,-2.705799818E0
2.142000000E1,5.524699688E0,2.743399858E0,-2.754600048E0
2.144000469E1,6.424599648E0,2.019099951E0,-2.086299896E0
2.147000000E1,8.135600090E0,1.175899982E0,-1.303699970E0
2.149000000E1,9.649899483E0,9.870999455E-1,-1.245399952E0
2.151000000E1,1.108769989E1,1.294899940E0,-9.231999516E-1
2.153000000E1,1.255029964E1,1.706599951E0,-1.017400026E0
2.155000000E1,1.314429951E1,1.993199944E0,-1.663800001E0
2.157000000E1,1.246939945E1,2.824199915E0,-1.690699935E0
2.159000156E1,1.205410004E1,2.393499851E0,-1.606199980E0
2.162000000E1,1.051569939E1,2.517999887E0,5.219999701E-2
2.164000156E1,1.148029995E1,1.712399960E0,3.999999762E-1
2.166000156E1,1.270939922E1,-1.841000021E-1,7.224000096E-1
2.169000156E1,1.338980007E1,-4.788899899E0,2.531499863E0
2.172000000E1,1.083799934E1,-8.082799911E0,4.269899845E0
2.174000156E1,7.076499939E0,-7.514599800E0,4.979599953E0
2.177000000E1,2.396399975E0,-5.042500019E0,5.150799751E0
2.179000000E1,-2.919999957E-1,-4.029900074E0,4.961299896E0
2.181000000E1,-2.613999844E0,-2.600399971E0,5.113199711E0
2.183000000E1,-3.644399881E0,-2.219599962E0,4.168499947E0
2.185000000E1,-3.886799812E0,-2.717700005E0,2.981299877E0
2.187000000E1,-4.183300018E0,-4.118899822E0,1.854299903E0
2.189000156E1,-4.765599728E0,-5.683099747E0,1.016499996E0
2.192000000E1,-5.694399834E0,-7.907299995E0,1.159600019E0
2.194000000E1,-6.364299774E0,-9.528499603E0,1.215299964E0
2.196000156E1,-8.040800095E0,-9.502999306E0,1.485599995E0
2.199000000E1,-9.311100006E0,-9.544799805E0,2.091399908E0
2.201000000E1,-9.691199303E0,-1.002489948E1,2.986899853E0
2.203000000E1,-1.046500015E1,-1.042579937E1,3.668499947E0
2.205000000E1,-1.019429970E1,-1.049149990E1,4.220799923E0
2.207000000E1,-7.328499794E0,-1.225879955E1,2.437599897E0
2.209000156E1,-6.755399704E0,-1.050959969E1,3.729199886E0
2.212000000E1,-4.266799927E0,-9.024799347E0,6.634399891E0
2.214000000E1,-1.292299986E0,-8.902400017E0,6.764599800E0
2.216000313E1,1.186699986E0,-8.894700050E0,4.825399876E0
2.219000000E1,2.225199938E0,-7.310899734E0,2.152400017E0
2.221000000E1,2.229699850E0,-5.566299915E0,1.188099980E0
2.223000156E1,2.045199871E0,-3.314299822E0,1.125399947E0
2.226000000E1,1.974999905E0,-7.516999841E-1,1.797999978E0
2.228000000E1,1.583299994E0,5.295000076E-1,2.213599920E0
2.230000156E1,2.087399960E0,1.448799968E0,1.857699990E0
2.233000000E1,4.053100109E0,2.448999882E0,2.520999908E-1
2.235000000E1,5.592599869E0,3.116199970E0,-1.541599989E0
2.237000156E1,7.680500031E0,2.398900032E0,-2.953999996E0
2.239000156E1,9.668099403E0,1.371999979E0,-2.842900038E0
2.242000000E1,1.109980011E1,1.286999941E0,4.699999839E-2
2.244000312E1,1.141469955E1,2.326099873E0,1.133199930E0
2.247000000E1,1.199380016E1,3.548499823E0,1.864499927E0
2.249000000E1,1.235069942E1,4.088699818E0,2.360599995E0
2.251000000E1,1.266059971E1,4.451099873E0,2.351300001E0
2.253000000E1,1.242049980E1,4.978600025E0,2.211999893E0
2.255000000E1,1.288729954E1,3.667899847E0,2.041100025E0
2.257000000E1,1.166930008E1,2.685999870E0,2.121899843E0
2.259000000E1,9.427000046E0,2.981400013E0,3.223399878E0
2.261000000E1,9.531000137E0,1.731699944E0,2.938699961E0
2.263000000E1,1.046920013E1,-3.362999856E-1,2.302899837E0
2.265000000E1,1.155910015E1,-2.831300020E0,2.457299948E0
2.267000000E1,1.220809937E1,-5.374000072E0,2.786200047E0
2.269000000E1,1.110619926E1,-6.653199673E0,3.257400036E0
2.271000000E1,8.477499962E0,-7.094999790E0,4.310299873E0
2.273000000E1,4.717099667E0,-6.192499638E0,5.414400101E0
2.275000000E1,2.135200024E0,-5.974400043E0,5.875099659E0
2.277000000E1,2.109999955E-2,-5.432099819E0,6.022099972E0
2.279000000E1,-1.524299979E0,-4.816899776E0,4.788399696E0
2.281000000E1,-2.632200003E0,-4.795599937E0,3.971299887E0
2.283000000E1,-3.372099876E0,-5.467499733E0,3.098799944E0
2.285000000E1,-4.376800060E0,-6.244899750E0,2.823299885E0
2.287000000E1,-5.547499657E0,-6.988699913E0,3.182499886E0
2.289000156E1,-6.467999935E0,-7.750699997E0,3.437399864E0
2.292000000E1,-8.159199715E0,-7.738499641E0,2.895499945E0
2.294000000E1,-6.894499779E0,-8.632699966E0,2.865499973E0
2.296000000E1,-5.633599758E0,-9.674699783E0,2.629099846E0
2.298000000E1,-5.303400040E0,-1.026280022E1,2.591599941E0
2.300000000E1,-6.425600052E0,-9.758500099E0,3.993499994E0
2.302000000E1,-7.805899620E0,-8.461599350E0,5.905999660E0
2.304000000E1,-6.000799656E0,-1.006339931E1,5.814499855E0
2.306002813E1,-5.432600021E0,-1.110849953E1,3.998199940E0
2.309000000E1,-5.877599716E0,-9.033800125E0,5.546199799E0
2.311000000E1,-3.678999901E0,-9.698900223E0,6.108999729E0
2.313000000E1,-1.526700020E0,-1.037129974E1,6.613399982E0
2.315000000E1,-2.816999853E-1,-9.933899879E0,6.414299965E0
2.317000000E1,-7.519999892E-2,-8.873000145E0,5.372499943E0
2.319000000E1,2.319999970E-2,-7.465899944E0,4.027499676E0
2.321000000E1,1.304000020E-1,-6.112999916E0,3.571099997E0
2.323000000E1,-2.036999911E-1,-4.602799892E0,3.536299944E0
2.325000000E1,-2.269999869E-2,-3.407899857E0,3.347800016E0
2.327000000E1,9.466999769E-1,-2.447700024E0,3.027099848E0
2.329000000E1,2.878399849E0,-1.779799938E0,3.602099895E0
2.331000000E1,4.658199787E0,-5.447999835E-1,4.115600109E0
2.333000000E1,6.415099621E0,4.277999997E-1,3.817600012E0
2.335000000E1,8.539599419E0,1.207499981E0,2.591799974E0
2.337000000E1,1.002400017E1,1.869699955E0,1.399999976E0
2.339000000E1,1.142630005E1,2.521199942E0,5.828999877E-1
2.341000000E1,1.245389938E1,3.213999987E0,4.253999889E-1
2.343000000E1,1.318379974E1,3.564599991E0,1.750999987E-1
2.345000000E1,1.327239990E1,3.916699886E0,-2.329999954E-2
2.347000156E1,1.324199963E1,4.476200104E0,8.206999898E-1
2.350000000E1,1.277750015E1,5.684799671E0,2.916100025E0
2.352000000E1,1.366459942E1,4.138599873E0,3.764999866E0
2.354000000E1,1.221490002E1,4.532199860E0,5.003599644E0
2.356000000E1,1.075710011E1,5.864500046E0,6.210999966E0
2.358000000E1,1.169159985E1,3.971399784E0,4.546899796E0
2.360000000E1,1.266839981E1,8.455999494E-1,3.618199825E0
2.362000000E1,1.339639950E1,-3.259099960E0,3.180699825E0
2.364000625E1,1.254819965E1,-6.131700039E0,3.119199991E0
2.367000000E1,7.694999695E0,-6.573299885E0,3.819599867E0
2.369000000E1,4.113199711E0,-5.648399830E0,4.099599838E0
2.371000000E1,1.253700018E0,-4.776999950E0,4.173399925E0
2.373000156E1,-7.967000008E-1,-3.754999876E0,3.735599995E0
2.376000000E1,-2.762099981E0,-3.074399948E0,2.475100040E0
2.378000000E1,-3.398499966E0,-3.106999874E0,1.804199934E0
2.380000000E1,-4.197299957E0,-3.880299807E0,1.222599983E0
2.382000156E1,-5.265299797E0,-4.774699688E0,9.037999511E-1
2.385000000E1,-5.786200047E0,-7.665999889E0,9.039999545E-2
2.387000000E1,-6.811499596E0,-8.882399559E0,4.400999844E-1
2.389000000E1,-8.271599770E0,-9.574699402E0,1.150099993E0
2.391000000E1,-9.723199844E0,-9.860599518E0,1.911099911E0
2.393000000E1,-9.853099823E0,-1.039550018E1,2.283999920E0
2.395000000E1,-9.644100189E0,-1.065180016E1,3.072399855E0
2.397000000E1,-9.865499496E0,-1.034179974E1,3.700299978E0
2.399000000E1,-9.237199783E0,-1.035409927E1,3.464699984E0
2.401000000E1,-7.021899700E0,-1.230309963E1,1.782299995E0
2.403000000E1,-6.631700039E0,-1.185089970E1,2.771100044E0
2.405000000E1,-5.576999664E0,-1.094929981E1,5.681200027E0
2.407000000E1,-2.793900013E0,-1.042609978E1,7.634599686E0
2.409000000E1,8.757999539E-1,-1.046799946E1,6.987299919E0
2.411000000E1,3.682699919E0,-1.007779980E1,4.795499802E0
2.413000000E1,4.534199715E0,-8.800799370E0,2.554299831E0
2.415000000E1,4.308199883E0,-6.829499722E0,1.098199964E0
2.417000000E1,3.766799927E0,-4.590099812E0,1.006899953E0
2.419000000E1,3.605599880E0,-2.317399979E0,1.854799986E0
2.421000000E1,3.233700037E0,-6.020999551E-1,2.215699911E0
2.423000000E1,3.347599983E0,7.105000019E-1,1.796399951E0
2.425000000E1,3.840499878E0,1.514400005E0,1.123099923E0
2.427000000E1,4.477799892E0,2.122400045E0,2.248999923E-1
2.429000000E1,5.332299709E0,2.409899950E0,-9.527999759E-1
2.431000000E1,6.644700050E0,2.424900055E0,-1.630100012E0
2.433000000E1,8.448200226E0,2.289199829E0,-1.939899921E0
2.435000000E1,9.677599907E0,2.140399933E0,-2.022899866E0
2.437000000E1,1.034169960E1,2.520099878E0,-1.532299995E0
2.439000000E1,1.134649944E1,3.031599998E0,-8.456999660E-1
2.441000000E1,1.247249985E1,3.661499977E0,-4.287999868E-1
2.443000000E1,1.345609951E1,3.845299959E0,-8.280999660E-1
2.445000000E1,1.367490005E1,4.463200092E0,-1.046100020E0
2.447000000E1,1.317029953E1,5.391699791E0,-7.883999944E-1
2.449000000E1,1.320819950E1,5.114199638E0,7.628999949E-1
2.451000000E1,1.262849998E1,3.711299896E0,1.031899929E0
2.453000000E1,1.071609974E1,3.570899963E0,1.597499967E0
2.455000000E1,1.073979950E1,2.449699879E0,2.149999857E0
2.457000000E1,1.229199982E1,6.929999590E-2,2.151900053E0
2.459000000E1,1.405449963E1,-3.340899944E0,2.646100044E0
2.461000000E1,1.470879936E1,-6.944099903E0,2.890599966E0
2.464000000E1,1.113070011E1,-9.184299469E0,3.222699881E0
2.466000000E1,6.717799664E0,-8.739199638E0,4.023499966E0
2.468000000E1,2.726599932E0,-7.325399876E0,4.276000023E0
2.470000000E1,3.179999813E-2,-5.803199768E0,4.248899937E0
2.472000000E1,-1.507799983E0,-4.775599957E0,3.761600018E0
2.474000000E1,-2.400699854E0,-4.370500088E0,3.236099958E0
2.476000000E1,-2.752799988E0,-5.342099667E0,2.684099913E0
2.478000000E1,-3.526399851E0,-6.241299629E0,2.137799978E0
2.480000000E1,-4.716499805E0,-7.341899872E0,1.616199970E0
2.482000000E1,-5.485499859E0,-9.182799339E0,1.045799971E0
2.484000000E1,-7.699999809E0,-9.718799591E0,7.330999970E-1
2.486000000E1,-9.592100143E0,-1.014519978E1,9.775999784E-1
2.488000000E1,-9.527400017E0,-1.096889973E1,2.172299862E0
2.490000000E1,-8.837900162E0,-1.173609924E1,2.719099998E0
2.492000000E1,-8.565599442E0,-1.180139923E1,3.244899988E0
2.494000000E1,-8.822699547E0,-1.103590012E1,3.027099848E0
2.496000469E1,-8.476499557E0,-1.008049965E1,2.801399946E0
2.499000000E1,-5.400000095E0,-1.119929981E1,1.561100006E0
2.501000000E1,-4.915899754E0,-9.215999603E0,3.615000010E0
2.503000000E1,-2.984400034E0,-8.590000153E0,4.485399723E0
2.505000000E1,-5.259999633E-1,-8.604999542E0,4.506899834E0
2.507000000E1,1.250899911E0,-8.830800056E0,3.974799871E0
2.509000156E1,1.605899930E0,-8.382599831E0,3.223199844E0
2.512000000E1,1.470099926E0,-6.716599941E0,2.745199919E0
2.514000000E1,1.056699991E0,-5.103799820E0,2.605299950E0
2.516000000E1,1.103399992E0,-3.141499996E0,2.498600006E0
2.518000000E1,1.534799933E0,-1.520299911E0,2.328500032E0
2.520000000E1,2.029999971E0,-3.839999810E-2,2.115399837E0
2.522000000E1,2.973599911E0,1.014699936E0,1.783699989E0
2.524000312E1,3.899899960E0,2.039499998E0,1.297699928E0
2.526000781E1,4.984600067E0,2.600299835E0,3.046000004E-1
2.529000000E1,7.411399841E0,2.074899912E0,-1.431100011E0
2.531000000E1,9.321299553E0,1.858099937E0,-1.907699943E0
2.533000000E1,1.100859928E1,1.813599944E0,-2.132799864E0
2.535000000E1,1.208099937E1,2.239899874E0,-1.801699996E0
2.537000000E1,1.234289932E1,3.004699945E0,-4.915999770E-1
2.539000000E1,1.255259991E1,3.544799805E0,9.814999700E-1
2.541000000E1,1.306320000E1,3.906799793E0,1.903499961E0
2.543000000E1,1.382439995E1,4.190000057E0,2.706399918E0
2.545000156E1,1.516329956E1,2.682799816E0,2.351799965E0
2.548000000E1,1.189330006E1,4.335199833E0,3.263000011E0
2.550000000E1,1.109049988E1,3.887899876E0,2.897500038E0
2.552000156E1,1.106279945E1,2.063499928E0,2.507599831E0
2.554000313E1,1.132349968E1,-3.642999828E-1,2.521800041E0
2.557000000E1,1.210489941E1,-4.984299660E0,2.402600050E0
2.559000000E1,1.057069969E1,-6.458399773E0,2.693099976E0
2.561000000E1,7.466499805E0,-6.636499882E0,3.659499884E0
2.563000000E1,3.720099926E0,-5.522599697E0,4.731800079E0
2.565000000E1,8.478999734E-1,-4.543499947E0,5.077499866E0
2.567000000E1,-1.151799917E0,-3.748399973E0,5.100399971E0
2.569000000E1,-2.158200026E0,-3.588899851E0,4.524499893E0
2.571000000E1,-3.340099812E0,-3.611699820E0,3.744599819E0
2.573000156E1,-4.157199860E0,-4.352099895E0,3.137699842E0
2.576000000E1,-4.006400108E0,-5.847099781E0,2.740499973E0
2.578000000E1,-3.733599901E0,-6.998999596E0,2.480200052E0
2.580000000E1,-4.119999886E0,-8.210100174E0,1.892300010E0
2.582000000E1,-4.681200027E0,-8.455399513E0,2.072700024E0
2.584000000E1,-4.175300121E0,-9.283199310E0,2.681900024E0
2.586002344E1,-3.419199944E0,-1.042389965E1,2.984699965E0
2.589000000E1,-5.064799786E0,-9.475299835E0,4.071099758E0
2.591000000E1,-7.003399849E0,-7.899399757E0,5.255099773E0
2.593000000E1,-6.610099792E0,-9.284500122E0,4.897999763E0
2.595000156E1,-7.839900017E0,-8.577400208E0,5.131000042E0
2.598000000E1,-6.251699924E0,-8.580900192E0,6.810599804E0
2.600000000E1,-3.758199930E0,-9.142799377E0,6.011600018E0
2.602000000E1,-1.458599925E0,-9.618499756E0,4.756000042E0
2.604000000E1,-3.158999979E-1,-9.077499390E0,3.413100004E0
2.606001563E1,-3.515999913E-1,-7.547799587E0,2.502799988E0
2.609000000E1,-8.549999595E-1,-4.986199856E0,1.330799937E0
2.611000000E1,-5.600999594E-1,-3.400099993E0,1.368099928E0
2.613000000E1,-3.905999959E-1,-1.796399951E0,1.196699977E0
2.615000000E1,1.289999932E-1,-8.376999497E-1,1.031399965E0
2.617000000E1,4.080999792E-1,-2.714999914E-1,3.915999830E-1
2.619000000E1,8.743000031E-1,0.000000000E0,7.710000128E-2
2.621000000E1,2.125599861E0,-2.789999917E-2,-2.099999934E-1
2.623004375E1,3.700500011E0,-6.809999794E-2,-8.682999611E-1
2.626000000E1,6.477499962E0,-1.014999971E-1,-1.254299998E0
2.628000000E1,8.418999672E0,-7.986999750E-1,-1.739099979E0
2.630000000E1,9.947499275E0,-8.021000028E-1,-1.849299908E0
2.632000000E1,1.085669994E1,-3.650999963E-1,-1.728699923E0
2.634000000E1,1.142499924E1,7.191999555E-1,-9.765999913E-1
2.636000000E1,1.240839958E1,1.869799972E0,-4.511999786E-1
2.638000000E1,1.312430000E1,3.266499996E0,-5.059999824E-1
2.640000000E1,1.404819965E1,3.393899918E0,-1.311599970E0
2.642000000E1,1.349769974E1,3.431900024E0,-2.867599964E0
2.644000000E1,1.131389999E1,5.221699715E0,-9.531999826E-1
2.646000156E1,1.094099998E1,4.713299751E0,2.705999911E-1
2.649000000E1,1.137609959E1,1.882799983E0,5.681999922E-1
2.651000000E1,1.174240017E1,-2.377000004E-1,5.031999946E-1
2.653000000E1,1.218419933E1,-2.770599842E0,3.174999952E-1
2.655000000E1,1.087370014E1,-4.424399853E0,6.421999931E-1
2.657000000E1,7.794899940E0,-4.720200062E0,1.839199901E0
2.659000000E1,4.012300014E0,-4.060100079E0,3.497799873E0
2.661000000E1,5.212999582E-1,-2.533299923E0,4.625199795E0
2.663000000E1,-1.487599969E0,-1.730999947E0,4.883999825E0
2.665000000E1,-2.515499830E0,-1.434799910E0,3.924099922E0
2.667000000E1,-2.979899883E0,-1.896699905E0,3.005800009E0
2.669000000E1,-3.631799936E0,-2.700099945E0,2.592799902E0
2.671000000E1,-4.480299950E0,-3.984399796E0,1.402799964E0
2.673000000E1,-5.177700043E0,-5.623600006E0,6.870000064E-2
2.675000000E1,-6.042900085E0,-7.122900009E0,2.588000000E-1
2.677000156E1,-6.284899712E0,-7.845099926E0,1.668699980E0
2.680000000E1,-3.455899954E0,-1.007159996E1,4.701999664E0
2.682000000E1,-2.059799910E0,-1.151749992E1,5.876699924E0
2.684000000E1,-3.263000011E0,-1.152789974E1,5.922800064E0
2.686000000E1,-6.114799976E0,-1.060419941E1,5.354399681E0
2.688000000E1,-6.751699924E0,-1.112160015E1,4.804699898E0
2.690000000E1,-7.438899994E0,-1.045969963E1,4.545099735E0
2.692000000E1,-6.707099915E0,-9.084300041E0,6.282000065E0
2.694000000E1,-4.796299934E0,-8.697500229E0,7.165499687E0
2.696000000E1,-2.107800007E0,-8.803299904E0,7.219199657E0
2.698000000E1,1.306999922E-1,-8.745599747E0,5.741799831E0
2.700000000E1,1.555799961E0,-7.532899857E0,4.138400078E0
2.702000000E1,2.595099926E0,-5.645199776E0,2.056599855E0
2.704000000E1,2.509199858E0,-3.168599844E0,2.675999999E-1
2.706003438E1,2.271399975E0,-7.454999685E-1,-2.669000030E-1
2.709000000E1,1.553299904E0,1.576299906E0,-2.843999863E-1
2.711000000E1,5.085999966E-1,2.633100033E0,-3.296999931E-1
2.713000000E1,2.082999945E-1,3.546999931E0,-1.163999960E-1
2.715000000E1,1.584499955E0,3.595799923E0,-6.215999722E-1
2.717000000E1,3.420199871E0,3.467899799E0,-1.374300003E0
2.719000000E1,5.296400070E0,3.554099798E0,-1.829899907E0
2.721000000E1,7.094399929E0,3.657099962E0,-2.034499884E0
2.723000000E1,9.000199318E0,3.801299810E0,-2.488999844E0
2.725000000E1,1.089009953E1,3.756399870E0,-2.869999886E0
2.727000000E1,1.125629997E1,4.594599724E0,-3.102499962E0
2.729000000E1,1.082269955E1,5.937900066E0,-2.703699827E0
2.731000000E1,1.117649937E1,6.428799629E0,-2.218699932E0
2.734000000E1,1.082839966E1,7.015499592E0,-3.798999786E-1
2.736000000E1,1.178339958E1,5.140999794E0,-2.471999973E-1
2.738000000E1,1.092019939E1,3.084399939E0,8.229999989E-2
2.740000000E1,9.342199326E0,2.416199923E0,2.225999832E0
2.742000000E1,1.025559998E1,1.251500010E0,4.237999916E0
2.744000000E1,1.258619976E1,-7.490999699E-1,4.041800022E0
2.746000000E1,1.478819942E1,-3.906899929E0,2.154899836E0
2.748000000E1,1.485689926E1,-6.784800053E0,3.204999864E-1
2.750000000E1,1.139979935E1,-7.554499626E0,-3.274999857E-1
2.752000000E1,6.845799923E0,-7.384799957E0,3.407000005E-1
2.754000000E1,2.616299868E0,-5.988299847E0,1.529599905E0
2.756000000E1,-1.252999902E-1,-5.207900047E0,2.735599995E0
2.758000000E1,-2.387500048E0,-4.681200027E0,3.453099966E0
2.760000000E1,-3.626999855E0,-4.784699917E0,3.811999798E0
2.762000000E1,-4.872999668E0,-5.223599911E0,4.276299953E0
2.764000469E1,-5.734699726E0,-5.716599941E0,4.537799835E0
2.767000000E1,-6.505599976E0,-7.474099636E0,2.398200035E0
2.769000000E1,-6.986199856E0,-9.187500000E0,1.160200000E0
2.771000000E1,-8.008299828E0,-9.422800064E0,4.712999761E-1
2.773000000E1,-7.570600033E0,-9.943799973E0,5.009999871E-1
2.775000000E1,-6.327799797E0,-1.119549942E1,1.034999967E0
2.777000000E1,-5.784299850E0,-1.156369972E1,2.056200027E0
2.779000000E1,-5.919799805E0,-1.083419991E1,3.244499922E0
2.781000000E1,-6.892999649E0,-9.331500053E0,4.468299866E0
2.783000000E1,-4.777999878E0,-1.063089943E1,4.254799843E0
2.785000000E1,-3.668399811E0,-1.072439957E1,2.976899862E0
2.787000000E1,-2.032999992E0,-9.117300034E0,4.247399807E0
2.789000000E1,1.056900024E0,-8.985599518E0,3.696899891E0
2.791000000E1,3.919299841E0,-9.255000114E0,3.401799917E0
2.793000000E1,3.615000010E0,-8.706699371E0,3.045899868E0
2.795000000E1,2.777699947E0,-7.389400005E0,3.270200014E0
2.797000000E1,2.635099888E0,-6.075099945E0,2.459699869E0
2.799000000E1,2.783299923E0,-4.264400005E0,1.484899998E0
2.801000000E1,2.701599836E0,-2.085000038E0,9.090999961E-1
2.803000000E1,2.126600027E0,1.040000003E-2,5.694999695E-1
2.805000000E1,1.023100019E0,1.831399918E0,7.902999520E-1
2.807000000E1,1.065999985E0,3.109699965E0,9.682999849E-1
2.809000000E1,1.895399928E0,3.961399794E0,3.700999916E-1
2.811000000E1,3.009099960E0,4.322899818E0,-8.116999865E-1
2.814000313E1,4.427599907E0,3.911700010E0,-2.669199944E0
2.817000000E1,4.965799809E0,3.937899828E0,-2.869599819E0
2.819000000E1,6.113999844E0,4.249199867E0,-2.117599964E0
2.821000000E1,7.798099995E0,4.616399765E0,-1.817999959E0
2.823000000E1,9.074699402E0,5.197299957E0,-1.689399958E0
2.825000000E1,1.016440010E1,5.584300041E0,-1.914799929E0
2.827000000E1,1.171899986E1,5.549299717E0,-2.285699844E0
2.829000000E1,1.299269962E1,5.705899715E0,-2.451699972E0
2.831000000E1,1.281579971E1,5.141799927E0,-2.279500008E0
2.833000000E1,1.017389965E1,5.716199875E0,-1.299999952E-1
2.835000000E1,8.038399696E0,6.072299957E0,1.941699982E0
2.837000000E1,8.682700157E0,4.310400009E0,2.285500050E0
2.839000000E1,1.039509964E1,1.343599916E0,2.008599997E0
2.841000000E1,1.112379932E1,-1.201200008E0,2.012899876E0
2.843000000E1,1.098289967E1,-3.333099842E0,1.893199921E0
2.845000000E1,9.066199303E0,-4.104599953E0,1.687199950E0
2.847000000E1,5.888799667E0,-4.098700047E0,2.027499914E0
2.849000000E1,2.441599846E0,-3.208899975E0,2.852399826E0
2.851000000E1,5.499999970E-3,-2.449399948E0,3.647399902E0
2.853000000E1,-1.158900023E0,-2.081799984E0,3.950899839E0
2.855000000E1,-1.994599938E0,-2.328799963E0,3.990999937E0
2.857000000E1,-2.511399984E0,-3.195099831E0,3.876599789E0
2.859000000E1,-2.885200024E0,-4.783400059E0,3.892299891E0
2.861000000E1,-3.246099949E0,-5.961400032E0,3.233799934E0
2.863000000E1,-3.544099808E0,-7.600899696E0,2.204200029E0
2.865000000E1,-4.022399902E0,-8.816999435E0,1.579100013E0
2.867000000E1,-4.598599911E0,-9.271800041E0,1.703099966E0
2.869000000E1,-4.599899769E0,-9.790399551E0,1.607999921E0
2.871000000E1,-4.693699837E0,-1.056320000E1,1.439499974E0
2.873000000E1,-4.713099957E0,-1.060409927E1,2.120199919E0
2.875000000E1,-3.916899920E0,-9.642399788E0,2.931299925E0
2.877000156E1,-4.812200069E0,-8.734299660E0,3.013299942E0
2.880000000E1,-5.316400051E0,-9.451499939E0,2.643499851E0
2.882000000E1,-5.329499722E0,-8.110899925E0,3.332000017E0
2.884000000E1,-3.349399805E0,-7.485899925E0,4.267899990E0
2.886000000E1,-5.884999633E-1,-7.545300007E0,4.612499714E0
2.888000625E1,1.331099987E0,-7.981400013E0,4.571499825E0
2.891000000E1,1.855599999E0,-6.794999599E0,3.388700008E0
2.893000000E1,2.058799982E0,-5.420700073E0,1.909299970E0
2.895000000E1,1.865399957E0,-3.398900032E0,8.545999527E-1
2.897000000E1,1.350799918E0,-1.520599961E0,3.596999943E-1
2.899000000E1,3.651999831E-1,3.288999796E-1,2.755999863E-1
2.901000000E1,-6.069999933E-2,1.558300018E0,6.071999669E-1
2.903000312E1,-3.869999945E-2,2.612200022E0,8.986999989E-1
2.906000000E1,1.289999962E0,3.258399963E0,4.393000007E-1
2.908000000E1,1.938899994E0,3.376199961E0,-3.797000051E-1
2.910000000E1,2.704599857E0,3.255800009E0,-1.347100019E0
2.912000000E1,3.539899826E0,3.037199974E0,-1.643799901E0
2.914000000E1,4.778899670E0,2.880300045E0,-1.165699959E0
2.916000000E1,6.364399910E0,2.601999998E0,-8.842999935E-1
2.918000000E1,7.386699677E0,2.827100039E0,-1.823000014E-1
2.920000000E1,7.913699627E0,3.484899998E0,4.589999914E-1
2.922000000E1,8.769299507E0,3.933199883E0,8.756999969E-1
2.924000000E1,9.479999542E0,4.390599728E0,9.807999730E-1
2.926000000E1,1.024860001E1,4.804500103E0,7.421999574E-1
2.928000000E1,1.089789963E1,4.197599888E0,-2.171999961E-1
2.930000000E1,9.491099358E0,5.476799965E0,3.134000003E-1
2.932000000E1,9.388699532E0,5.305900097E0,8.064999580E-1
2.934000000E1,1.008790016E1,3.762099981E0,3.084000051E-1
2.936003125E1,1.102339935E1,1.172099948E0,1.856999993E-1
2.939000000E1,1.097480011E1,-2.621000051E0,1.036999971E-1
2.941000000E1,8.362099648E0,-3.249399900E0,4.235000014E-1
2.943000000E1,4.710199833E0,-2.654199839E0,1.291700006E0
2.945000000E1,1.446200013E0,-1.746099949E0,2.695799828E0
2.947000000E1,-8.603000045E-1,-1.045899987E0,3.916799784E0
2.949000000E1,-2.164799929E0,-6.233999729E-1,3.918999910E0
2.951000000E1,-3.010999918E0,-4.904999733E-1,3.220999956E0
2.953000000E1,-3.768199921E0,-1.157699943E0,2.599799871E0
2.955000000E1,-4.382199764E0,-2.151299953E0,2.034199953E0
2.957000000E1,-4.825500011E0,-3.590299845E0,8.799999952E-1
2.959000000E1,-5.275300026E0,-4.843800068E0,-1.133999974E-1
2.961000000E1,-5.466000080E0,-6.069099903E0,-8.665999770E-1
2.963000000E1,-5.926399708E0,-6.644399643E0,-5.978999734E-1
2.965000000E1,-5.526400089E0,-7.430399895E0,1.608999968E-1
2.967000000E1,-4.530900002E0,-8.682600021E0,1.217000008E0
2.969000000E1,-4.068399906E0,-9.309800148E0,2.378700018E0
2.971000000E1,-4.332900047E0,-8.684999466E0,3.894199848E0
2.973000000E1,-4.662399769E0,-7.779199600E0,4.921000004E0
2.975000000E1,-2.710500002E0,-9.313699722E0,4.336499691E0
2.977000000E1,-3.087800026E0,-8.766900063E0,3.682999849E0
2.979000000E1,-3.672099829E0,-7.058899879E0,5.437799931E0
2.981000000E1,-2.622400045E0,-6.116299629E0,6.226199627E0
2.983000000E1,-2.969000041E-1,-5.589399815E0,6.471600056E0
2.985000000E1,2.261100054E0,-5.751699924E0,5.403299809E0
2.987000000E1,2.365499973E0,-5.050799847E0,3.328999996E0
2.989000156E1,1.150699973E0,-3.975199938E0,1.271299958E0
2.992000000E1,-3.637000024E-1,-1.706299901E0,-5.787999630E-1
2.994000312E1,-7.919999957E-1,-2.255999893E-1,2.793999910E-1
2.996000625E1,-8.683999777E-1,1.002300024E0,1.216599941E0
2.999000000E1,-6.175000072E-1,2.063199997E0,1.793699980E0
3.001000000E1,-6.297000051E-1,2.330899954E0,1.442999959E0
3.003000000E1,-3.123999834E-1,2.500200033E0,8.420000076E-1
3.005000000E1,6.777999997E-1,2.119099855E0,-5.929999799E-2
3.007000000E1,1.474799991E0,1.770299911E0,-8.396999836E-1
3.009000000E1,2.345099926E0,1.350700021E0,-8.791999817E-1
3.011000000E1,3.595399857E0,1.339100003E0,-3.315999806E-1
3.013000000E1,5.566799641E0,3.856999874E-1,-2.518000007E-1
3.016000000E1,7.325899601E0,-3.893999755E-1,1.180899978E0
3.018000000E1,7.758800030E0,-3.226999938E-1,1.935699940E0
3.020000000E1,8.306499481E0,-9.389999509E-2,1.920699954E0
3.022000000E1,8.313599586E0,6.965000033E-1,1.557699919E0
3.024000000E1,8.728199959E0,3.935000002E-1,1.010399938E0
3.026000000E1,8.154099464E0,1.021499991E0,1.290399909E0
3.028000000E1,7.614299774E0,1.820499897E0,1.301599979E0
3.030000000E1,7.927499771E0,1.768199921E0,8.709999919E-2
3.032000000E1,8.165200233E0,9.634999633E-1,-1.914899945E0
3.034000000E1,7.503899574E0,-4.199999850E-3,-3.753099918E0
3.036000000E1,5.635499954E0,-6.981999874E-1,-4.661200047E0
3.038000000E1,3.068599939E0,-1.239099979E0,-3.637699842E0
3.040000000E1,-6.979999691E-2,-5.633999705E-1,-9.779999852E-1
3.042000000E1,-2.570499897E0,4.884999990E-1,7.892000079E-1
3.044000469E1,-4.544699669E0,1.564099908E0,1.125299931E0
3.047000156E1,-6.330199718E0,2.367100000E0,-1.500499964E0
3.050000000E1,-6.304599762E0,2.587499857E0,-2.245899916E0
3.052000000E1,-4.473999977E0,1.802799940E0,-1.793199897E0
3.054000000E1,-1.691100001E0,-1.406999975E-1,-1.271399975E0
3.056000000E1,-5.575000048E-1,-1.272099972E0,-1.067999959E0
3.058000000E1,-9.855999947E-1,-2.084300041E0,-9.404999614E-1
3.060000000E1,-1.768499970E0,-3.431699991E0,-4.123999774E-1
3.062000000E1,-2.526999950E0,-4.665400028E0,5.270000100E-1
3.064000000E1,-2.684599876E0,-5.466199875E0,2.349099874E0
3.066000000E1,-1.996599913E0,-5.779299736E0,4.164199829E0
3.068000000E1,-1.981399894E0,-4.498699665E0,5.325699806E0
3.070000000E1,-1.260999918E0,-3.217399836E0,5.285199642E0
3.072000000E1,8.205999732E-1,-3.991099834E0,2.886099815E0
3.074000000E1,-1.305999905E-1,-1.597499967E0,2.389799833E0
3.076000000E1,-1.059499979E0,9.885999560E-1,3.567499876E0
3.078000000E1,-1.376399994E0,2.820799828E0,3.994199991E0
3.080000000E1,1.276700020E0,1.174899936E0,2.267499924E0
3.082000000E1,3.269199848E0,-1.834399939E0,-1.198699951E0
3.084000625E1,1.747699976E0,-2.932699919E0,-3.404099941E0
3.087000000E1,-3.323099852E0,-1.601300001E0,5.429999828E-1
3.089000000E1,-4.450599670E0,-2.468999922E-1,4.162099838E0
3.091000000E1,-3.845799923E0,1.199800014E0,5.064099789E0
3.093000000E1,-2.697399855E0,2.641099930E0,2.909299850E0
3.095000781E1,-1.690400004E0,3.877599955E0,4.927999973E-1
3.098000000E1,7.839999795E-1,4.095900059E0,-2.036599874E0
3.100000000E1,2.768299818E0,3.596699953E0,-2.945199966E0
3.102000000E1,4.675600052E0,2.759299994E0,-3.312799931E0
3.104000000E1,5.812399864E0,2.334399939E0,-3.210299969E0
3.106000000E1,6.692100048E0,2.032799959E0,-3.205199957E0
3.108000000E1,7.437599659E0,1.563399911E0,-3.220000029E0
3.110000156E1,7.063299656E0,1.839800000E0,-2.071199894E0
3.113000000E1,7.036200047E0,1.851499915E0,-6.678999662E-1
3.115000000E1,7.852599621E0,1.143499970E0,-2.789999843E-1
3.117000156E1,8.138400078E0,1.593999982E0,-9.085999727E-1
3.120000000E1,8.970699310E0,2.885999978E-1,-2.269199848E0
3.122004375E1,7.460399628E0,6.114999652E-1,-1.235099912E0
3.125000000E1,7.593699932E0,-5.920000076E-1,-1.312000006E-1
3.127000000E1,8.601900101E0,-1.844599962E0,-2.113000005E-1
3.129000000E1,8.660900116E0,-3.166800022E0,3.641999960E-1
3.131000000E1,8.627099991E0,-5.364799976E0,6.683999896E-1
3.133000000E1,7.661399841E0,-6.602699757E0,9.025999904E-1
3.135000000E1,5.123300076E0,-6.333799839E0,1.951999903E0
3.137000000E1,3.029599905E0,-5.773299694E0,3.848199844E0
3.139000000E1,1.225799918E0,-5.180599689E0,5.713200092E0
3.141000000E1,-4.888999760E-1,-4.335899830E0,7.080199718E0
3.143000000E1,-2.661599874E0,-3.596999884E0,6.551399708E0
3.145000000E1,-4.464499950E0,-3.281999826E0,4.542799950E0
3.147000000E1,-5.875099659E0,-3.495299816E0,2.633899927E0
3.149000000E1,-7.993700027E0,-3.235999823E0,1.700899959E0
3.151000000E1,-9.012999535E0,-3.304499865E0,2.028599977E0
3.153000000E1,-7.833799839E0,-4.483699799E0,2.461799860E0
3.155000000E1,-6.074699879E0,-5.897999763E0,2.458699942E0
3.157000000E1,-5.023299694E0,-6.881099701E0,2.494899988E0
3.159000000E1,-4.705199718E0,-8.208799362E0,1.796599984E0
3.161000000E1,-5.979599953E0,-8.342299461E0,1.569599986E0
3.163000000E1,-7.877599716E0,-7.464799881E0,2.336199999E0
3.165000000E1,-9.157799721E0,-6.786999702E0,3.481099844E0
3.167000000E1,-7.829799652E0,-8.964300156E0,3.910499811E0
3.169000000E1,-8.242499352E0,-8.105699539E0,3.617199898E0
3.171000000E1,-7.008199692E0,-7.374599934E0,5.229499817E0
3.173000000E1,-3.682099819E0,-7.463699818E0,6.958499908E0
3.175000000E1,1.668999940E-1,-8.112799644E0,6.984999657E0
3.177000000E1,3.294600010E0,-9.080499649E0,5.014299870E0
3.179000000E1,3.490999937E0,-8.093599319E0,2.611699820E0
3.181000000E1,2.231400013E0,-5.679299831E0,1.217700005E0
3.183000000E1,1.353600025E0,-3.167099953E0,9.712999463E-1
3.185000000E1,8.646999598E-1,-1.011600018E0,2.412899971E0
3.187000156E1,9.770999551E-1,8.980000019E-1,3.319999933E0
3.190000000E1,1.453299999E0,2.559000015E0,2.685199976E0
3.192000000E1,2.015100002E0,2.972499847E0,1.719299912E0
3.194000000E1,2.938400030E0,3.078999996E0,6.320999861E-1
3.196000156E1,4.192999840E0,2.730099916E0,-6.492999792E-1
3.198000156E1,5.768300056E0,2.409499884E0,-1.797599912E0
3.200000156E1,7.625099659E0,2.278599977E0,-2.959199905E0
3.202000156E1,9.217899323E0,2.160599947E0,-4.040699959E0
3.204000313E1,1.016099930E1,2.121399879E0,-4.038000107E0
3.206000469E1,1.079010010E1,1.633700013E0,-2.618499994E0
3.209000156E1,1.145989990E1,1.047099948E0,-3.418999910E-1
3.212000000E1,1.146599960E1,1.658999920E0,1.286800027E0
3.214000000E1,1.144609928E1,1.957299948E0,1.989899993E0
3.216000000E1,1.151399994E1,9.082999825E-1,1.316799998E0
3.218000000E1,9.832699776E0,1.000000000E0,1.347800016E0
3.220000000E1,9.498099327E0,2.395999879E-1,7.684999704E-1
3.222000000E1,1.042010021E1,-1.071799994E0,-3.806999922E-1
3.224000000E1,1.162109947E1,-3.368799925E0,-2.698000073E-1
3.226000000E1,1.103199959E1,-5.205999851E0,9.814999700E-1
3.228000156E1,9.748299599E0,-7.400899887E0,2.510799885E0
3.231000000E1,4.815299988E0,-7.415799618E0,4.177400112E0
3.233000000E1,1.858699918E0,-6.471299648E0,4.347499847E0
3.235000000E1,-2.565000057E-1,-5.336699963E0,4.156599998E0
3.237000000E1,-2.596699953E0,-4.134099960E0,3.571099997E0
3.239000000E1,-4.959799767E0,-2.698699951E0,3.586299896E0
3.241000000E1,-5.718599796E0,-2.633899927E0,3.424399853E0
3.243000000E1,-5.803999901E0,-3.440999985E0,2.274899960E0
3.245000000E1,-5.883599758E0,-4.501999855E0,1.716499925E0
3.247000000E1,-6.697399616E0,-5.354000092E0,1.577799916E0
3.249000000E1,-7.740699768E0,-6.353299618E0,8.552999496E-1
3.251000000E1,-8.589799881E0,-7.392999649E0,5.909000039E-1
3.253000000E1,-8.489999771E0,-8.701899529E0,8.756999969E-1
3.255000000E1,-8.283800125E0,-9.330699921E0,2.178099871E0
3.257000000E1,-8.341400146E0,-9.569499969E0,3.862299919E0
3.259000000E1,-8.527699471E0,-8.770599365E0,5.620199680E0
3.261000000E1,-7.522500038E0,-8.158200264E0,6.037699699E0
3.263000000E1,-4.401599884E0,-9.974399567E0,4.210299969E0
3.265000000E1,-3.899499893E0,-8.695300102E0,3.940399885E0
3.267000156E1,-2.624199867E0,-7.977499962E0,4.780699730E0
3.270000000E1,7.372999787E-1,-7.664899826E0,4.970900059E0
3.272000000E1,2.842900038E0,-7.326699734E0,4.154900074E0
3.274000469E1,3.280799866E0,-6.522899628E0,2.524499893E0
3.277000156E1,2.693399906E0,-5.022099972E0,1.459999941E-2
3.280000000E1,1.037400007E0,-2.253799915E0,-3.088999987E-1
3.282000000E1,8.603999615E-1,-8.104000092E-1,7.071999907E-1
3.284000000E1,1.137799978E0,2.219000012E-1,1.419099927E0
3.286000156E1,1.273499966E0,1.006099939E0,1.682699919E0
3.289000000E1,1.520999908E0,2.607699871E0,9.405999780E-1
3.291000000E1,2.562599897E0,3.207499981E0,-5.730999708E-1
3.293000000E1,3.949899912E0,3.340299845E0,-2.028699875E0
3.295000000E1,5.342199802E0,3.504499912E0,-3.309899807E0
3.297000000E1,6.588599682E0,3.404399872E0,-3.430199862E0
3.299000000E1,7.725299835E0,3.370800018E0,-2.433500051E0
3.301000000E1,9.452599525E0,2.866600037E0,-1.590399981E0
3.303000000E1,1.125549984E1,2.646399975E0,-9.572999477E-1
3.305000000E1,1.273379993E1,2.700799942E0,2.026999891E-1
3.307000000E1,1.338539982E1,3.293699980E0,2.038899899E0
3.309000000E1,1.412259960E1,3.305699825E0,3.941099882E0
3.311000000E1,1.419519997E1,2.756399870E0,4.141200066E0
3.313000000E1,1.261159992E1,3.282799959E0,4.132899761E0
3.315000000E1,1.191479969E1,2.173399925E0,2.992799997E0
3.317000156E1,1.188359928E1,2.328999937E-1,2.198199987E0
3.320000000E1,1.310279942E1,-5.742199898E0,3.024799824E0
3.322000000E1,1.172209930E1,-8.796699524E0,3.636399984E0
3.324000156E1,8.583799362E0,-9.127599716E0,4.980499744E0
3.327000000E1,3.251199961E0,-6.651899815E0,5.984799862E0
3.329000000E1,5.439999700E-1,-4.945199966E0,5.909599781E0
3.331000156E1,-1.635399938E0,-3.483999968E0,5.245699883E0
3.334000000E1,-3.378399849E0,-2.749899864E0,3.597399950E0
3.336000000E1,-4.098799706E0,-3.099399805E0,2.697599888E0
3.338000000E1,-4.370299816E0,-3.569999933E0,1.745899916E0
3.340000000E1,-3.916199923E0,-5.114199638E0,1.003600001E0
3.342000000E1,-3.319599867E0,-6.929199696E0,1.372900009E0
3.344000000E1,-4.677199841E0,-7.499300003E0,1.745999932E0
3.346000469E1,-5.460000038E0,-8.550099373E0,2.644799948E0
3.349000000E1,-4.921799660E0,-1.060219955E1,2.237099886E0
3.351000000E1,-5.059199810E0,-1.083710003E1,2.316200018E0
3.353000000E1,-5.272500038E0,-1.046649933E1,2.873299837E0
3.355000000E1,-5.630399704E0,-1.000479984E1,3.408999920E0
3.357000000E1,-6.241799831E0,-9.145699501E0,4.573100090E0
3.359000000E1,-5.350800037E0,-1.022249985E1,5.080899715E0
3.361000156E1,-5.616299629E0,-9.629699707E0,5.258199692E0
3.364000000E1,-4.602999687E0,-8.098799706E0,5.958899975E0
3.366000000E1,-1.866499901E0,-8.517700195E0,5.387300014E0
3.368000000E1,1.571499944E0,-9.454400063E0,4.006199837E0
3.370000000E1,3.353699923E0,-1.024899960E1,2.508399963E0
3.372000000E1,4.199899673E0,-9.413499832E0,1.585899949E0
3.374000625E1,4.269099712E0,-7.939999580E0,6.463999748E-1
3.377000156E1,4.942999780E-1,-3.919399977E0,9.283999801E-1
3.380000000E1,-7.918999791E-1,-7.989999652E-2,2.395099878E0
3.382000000E1,6.816999912E-1,1.026899934E0,1.529799938E0
3.384000000E1,2.308099985E0,2.141900063E0,-1.578999907E-1
3.386000000E1,2.977200031E0,3.467899799E0,-1.297099948E0
3.388000000E1,3.298499823E0,3.717599869E0,-2.320199966E0
3.390000000E1,3.108500004E0,4.062999725E0,-2.669100046E0
3.392000000E1,3.984599829E0,4.821099758E0,-2.198099852E0
3.394000313E1,6.803799629E0,4.547100067E0,-1.698899984E0
3.397000000E1,9.524199486E0,4.974299908E0,-2.253999949E0
3.399000000E1,1.043470001E1,6.291399956E0,-2.808799982E0
3.401000000E1,1.142869949E1,6.621999741E0,-3.637399912E0
3.403000000E1,1.186859989E1,6.897599697E0,-4.063499928E0
3.405000000E1,1.170919991E1,7.282999992E0,-3.021699905E0
3.407000000E1,1.079319954E1,7.066799641E0,-7.832999825E-1
3.409000000E1,9.866499901E0,5.095999718E0,1.914399981E0
3.411000000E1,7.965499878E0,4.368000031E0,4.778800011E0
3.413000000E1,7.274799824E0,3.991899967E0,7.398399830E0
3.415000156E1,8.210100174E0,1.852099895E0,8.140500069E0
3.417000156E1,9.330100060E0,-4.289999902E-1,7.135999680E0
3.420000000E1,1.231579971E1,-4.985899925E0,5.423199654E0
3.422000000E1,1.265520000E1,-6.927999973E0,3.751799822E0
3.424000625E1,9.402999878E0,-6.619899750E0,2.953599930E0
3.427000000E1,3.111699820E0,-5.192499638E0,3.654699802E0
3.429000000E1,5.539999902E-2,-3.492299795E0,3.711099863E0
3.431000000E1,-2.013999939E0,-2.708799839E0,2.412400007E0
3.433000000E1,-2.915599823E0,-2.294199944E0,1.778199911E0
3.436000000E1,-2.827800035E0,-2.800199986E0,9.307999611E-1
3.438000000E1,-1.709699988E0,-4.754300117E0,-2.699999884E-2
3.440000000E1,-1.100600004E0,-6.996599674E0,1.776999980E-1
3.442000000E1,-1.512199998E0,-8.080100060E0,3.350999951E-1
3.444000313E1,-1.704999924E0,-9.472299576E0,-4.296999872E-1
3.446002969E1,-2.063400030E0,-1.030200005E1,-1.517699957E0
3.449000000E1,-3.494699955E0,-9.499799728E0,-3.227999926E0
3.451000000E1,-4.045300007E0,-9.295899391E0,-3.813699961E0
3.453000000E1,-4.078099728E0,-9.352099419E0,-3.405599833E0
3.455000000E1,-4.809700012E0,-8.751500130E0,-2.658299923E0
3.457000000E1,-5.629399776E0,-8.037699699E0,-2.262199879E0
3.460000000E1,-5.459199905E0,-8.289400101E0,-2.860100031E0
3.462000000E1,-6.065199852E0,-6.865799904E0,-2.778699875E0
3.464000312E1,-5.219099998E0,-6.337899685E0,-2.671799898E0
3.467000156E1,-2.321599960E0,-8.190799713E0,-2.824899912E0
3.470000000E1,4.276999831E-1,-1.014779949E1,-7.494999766E-1
3.472000000E1,1.433599949E0,-9.909899712E0,8.472999930E-1
3.474000156E1,1.236999989E0,-8.492699623E0,1.607499957E0
3.477000000E1,-4.964999855E-1,-4.822599888E0,2.131700039E0
3.479000000E1,-9.413999915E-1,-2.835999966E0,1.763999939E0
3.481000000E1,-6.258999705E-1,-1.394099951E0,1.842299938E0
3.483000000E1,-1.850999892E-1,2.000999898E-1,1.331599951E0
3.485000000E1,1.334399939E0,7.687999606E-1,4.902999997E-1
3.487000000E1,3.728199959E0,1.384299994E0,-6.275999546E-1
3.489000000E1,6.096999645E0,1.880199909E0,-1.847099900E0
3.491000000E1,7.368999958E0,2.176800013E0,-2.648599863E0
3.493000000E1,7.619999886E0,3.036599874E0,-2.796399832E0
3.495000000E1,8.313099861E0,3.862399817E0,-1.511399984E0
3.497000000E1,9.828899384E0,3.855099916E0,-7.441999912E-1
3.499000000E1,1.136679935E1,3.099999905E0,-5.036000013E-1
3.501000000E1,1.212049961E1,2.605900049E0,-3.735999763E-1
3.503000000E1,1.219229984E1,2.312099934E0,1.258899927E0
3.505000000E1,1.126819992E1,2.702600002E0,3.557799816E0
3.507000000E1,9.925499916E0,2.764400005E0,5.077600002E0
3.509000000E1,8.677800179E0,1.849399924E0,5.597499847E0
3.511000000E1,7.074999809E0,2.097499847E0,6.445199966E0
3.513000000E1,6.965199947E0,1.683200002E0,6.264599800E0
3.515000000E1,8.009799957E0,-2.630000003E-2,5.551099777E0
3.517000156E1,9.756400108E0,-2.651700020E0,4.861599922E0
3.520000000E1,1.054419994E1,-5.388799667E0,4.056200027E0
3.522000000E1,8.531899452E0,-5.572799683E0,3.687299967E0
3.524000156E1,4.955199718E0,-4.387499809E0,3.452799797E0
3.527000000E1,2.518000007E-1,-2.230299950E0,2.414000034E0
3.529000000E1,-1.432399988E0,-1.525799990E0,1.606999993E0
3.531000000E1,-2.636199951E0,-1.556699991E0,6.804999709E-1
3.533000000E1,-3.671700001E0,-1.939199924E0,-2.549999952E-2
3.536000625E1,-4.984399796E0,-2.675099850E0,-6.912999749E-1
3.539000000E1,-5.121699810E0,-4.796799660E0,-1.485999942E0
3.541000000E1,-5.421499729E0,-6.020099640E0,-1.052600026E0
3.543000000E1,-5.407199860E0,-7.594399929E0,-1.162999988E0
3.545000000E1,-5.418299675E0,-8.466300011E0,-1.393700004E0
3.547000000E1,-5.588099957E0,-8.707300186E0,-8.289999962E-1
3.549000000E1,-5.799900055E0,-9.097999573E0,2.939999849E-2
3.551000000E1,-6.446300030E0,-9.126699448E0,6.061999798E-1
3.553000000E1,-7.856299877E0,-8.355299950E0,1.136699915E0
3.555000000E1,-7.300199986E0,-8.914199829E0,2.214699984E0
3.557000000E1,-6.203499794E0,-9.321100235E0,2.215800047E0
3.559000000E1,-5.614799976E0,-7.361999989E0,4.213799953E0
3.561000000E1,-2.609999895E0,-7.445099831E0,5.117399693E0
3.563000000E1,1.040499926E0,-7.774600029E0,4.182799816E0
3.565000000E1,4.021199703E0,-8.757499695E0,2.616299868E0
3.567000156E1,5.350299835E0,-8.616700172E0,1.234899998E0
3.570000000E1,3.514299870E0,-5.772500038E0,-2.665999830E-1
3.572000000E1,1.613899946E0,-3.178499937E0,-8.162999749E-1
3.574000156E1,6.999999881E-1,-6.078000069E-1,-4.984999895E-1
3.576000156E1,3.382999897E-1,1.353399992E0,-8.023999929E-1
3.579000000E1,-8.885999918E-1,2.645099878E0,-1.321699977E0
3.581000000E1,-1.855199933E0,3.708599806E0,-9.986999631E-1
3.583000000E1,-1.402999997E0,4.562299728E0,-4.648000002E-1
3.585000000E1,8.100000024E-1,4.071499825E0,-1.360000014E0
3.587000000E1,3.449800014E0,3.480099916E0,-2.520599842E0
3.589000000E1,5.057600021E0,3.060699940E0,-3.191399813E0
3.591000000E1,5.319599628E0,3.195199966E0,-2.726799965E0
3.593000000E1,6.327499866E0,2.343600035E0,-1.622900009E0
3.595000000E1,8.034600258E0,1.076699972E0,-5.536999702E-1
3.597000000E1,9.233799934E0,6.768000126E-1,5.959999561E-1
3.599000000E1,9.287499428E0,1.865899920E0,1.977899909E0
3.601000000E1,8.721199989E0,3.562799931E0,2.841699839E0
3.603000000E1,9.472700119E0,3.495399952E0,3.318699837E0
3.605000000E1,9.481200218E0,3.188099861E0,3.201599836E0
3.607000156E1,8.853599548E0,3.758899927E0,4.409399986E0
3.609000156E1,9.725899696E0,2.966300011E0,4.406899929E0
3.611000156E1,1.125990009E1,1.256099939E0,3.575099945E0
3.614000000E1,1.206470013E1,-1.856299996E0,3.394500017E0
3.616000156E1,1.029440022E1,-3.045799971E0,3.519199848E0
3.618000156E1,7.331099987E0,-2.798899889E0,3.527099848E0
3.621004375E1,2.410199881E0,-1.091499925E0,2.940099955E0
3.624000781E1,-8.140999675E-1,2.651000023E-1,2.639899969E0
3.627000000E1,-1.574699998E0,-5.320000052E-1,1.852800012E0
3.629000000E1,-1.870399952E0,-1.631799936E0,1.423900008E0
3.631000000E1,-2.462899923E0,-2.586699963E0,9.413999915E-1
3.633000000E1,-2.316900015E0,-4.573299885E0,3.203999996E-1
3.635000625E1,-1.777300000E0,-7.281899929E0,6.589999795E-2
3.638000000E1,-3.051899910E0,-9.218799591E0,1.353099942E0
3.640000000E1,-3.960099936E0,-1.039289951E1,1.664099932E0
3.642000000E1,-5.239299774E0,-1.095849991E1,7.137999535E-1
3.644000000E1,-7.882899761E0,-9.739099503E0,4.142999947E-1
3.646000000E1,-9.821299553E0,-8.304200172E0,1.708199978E0
3.648000000E1,-1.064400005E1,-6.817100048E0,2.596799850E0
3.650000000E1,-8.418000221E0,-6.840899944E0,3.095999956E0
3.652000000E1,-5.702099800E0,-7.398499966E0,2.067299843E0
3.654000000E1,-4.071700096E0,-5.869599819E0,2.582900047E0
3.656003281E1,-1.899999976E0,-6.355499744E0,1.960299969E0
3.659000000E1,7.726999521E-1,-8.224100113E0,1.110299945E0
3.661000000E1,1.590600014E0,-8.958999634E0,1.449000001E0
3.663000000E1,1.526899934E0,-7.867799759E0,2.744199991E0
3.665000000E1,9.986999631E-1,-5.913300037E0,2.833699942E0
3.667000156E1,2.671000063E-1,-3.275799990E0,2.414799929E0
3.670000156E1,-8.381999731E-1,-8.509999514E-2,1.239699960E0
3.672000156E1,-1.515399933E0,1.665199995E0,6.609999537E-1
3.674000156E1,-1.872299910E0,2.896199942E0,2.335999906E-1
3.677000000E1,-1.338999987E0,3.157999992E0,-9.003999829E-1
3.679000000E1,-1.283999979E-1,3.339200020E0,-1.533800006E0
3.681000000E1,1.855599999E0,3.138000011E0,-2.461799860E0
3.683000156E1,4.592299938E0,3.216699839E0,-3.718999863E0
3.686000000E1,8.173099518E0,2.196799994E0,-6.021399975E0
3.688000000E1,1.016309929E1,1.274099946E0,-6.484099865E0
3.690000156E1,1.181669998E1,4.866999984E-1,-4.950399876E0
3.693000000E1,1.303989983E1,3.956999779E-1,5.480999947E-1
3.695000156E1,1.301329994E1,1.690899968E0,4.256099701E0
3.698000000E1,1.312099934E1,2.111500025E0,6.041699886E0
3.700000000E1,1.169559956E1,1.687399983E0,3.807799816E0
3.702000000E1,9.769100189E0,2.149800062E0,3.322700024E0
3.704000156E1,9.732799530E0,1.125599980E0,2.681200027E0
3.706000156E1,1.117999935E1,-1.020699978E0,2.197299957E0
3.709000000E1,1.253369999E1,-5.788899899E0,2.758399963E0
3.711000156E1,1.037440014E1,-7.532899857E0,3.635599852E0
3.713000156E1,6.642600060E0,-7.812999725E0,3.278800011E0
3.715000156E1,1.736799955E0,-6.128399849E0,3.082499981E0
3.717000156E1,-1.724099994E0,-3.663399935E0,3.339799881E0
3.719000156E1,-3.425799847E0,-2.196300030E0,3.299899817E0
3.721000156E1,-4.748600006E0,-1.695099950E0,3.374599934E0
3.724000156E1,-6.085099697E0,-1.703299999E0,1.878199935E0
3.726000469E1,-6.553400040E0,-2.229899883E0,1.612100005E0
3.729000000E1,-6.421799660E0,-4.201900005E0,8.234999776E-1
3.731000000E1,-5.561800003E0,-6.205800056E0,-6.129999757E-1
3.733000000E1,-6.253599644E0,-7.198899746E0,-3.677999973E-1
3.735000000E1,-6.213799953E0,-8.217199326E0,2.997999787E-1
3.737000000E1,-5.989799976E0,-8.892899513E0,8.750000000E-1
3.739000000E1,-5.873399734E0,-8.898399353E0,1.477999926E0
3.741000000E1,-5.521699905E0,-8.285499573E0,1.712599993E0
3.743000469E1,-5.258100033E0,-7.305199623E0,2.285599947E0
3.746001563E1,-2.413100004E0,-9.640500069E0,2.302000046E0
3.749000000E1,-3.298300028E0,-8.277999878E0,2.326799870E0
3.751000000E1,-3.263000011E0,-7.741399765E0,3.478699923E0
3.753000000E1,-2.243700027E0,-7.935599804E0,4.218100071E0
3.755000000E1,-6.391999722E-1,-8.159600258E0,4.341799736E0
3.757000000E1,6.753999591E-1,-8.151800156E0,2.777599812E0
3.759000000E1,1.850999892E-1,-6.508899689E0,1.368699908E0
3.761000000E1,-6.096000075E-1,-4.433099747E0,6.532999873E-1
3.763000000E1,-7.608000040E-1,-2.474900007E0,5.667999983E-1
3.765000000E1,-3.658999801E-1,-7.095999718E-1,8.260999918E-1
3.767000156E1,-2.522999942E-1,9.169999957E-1,3.985999823E-1
3.770000000E1,-5.126000047E-1,2.438199997E0,-9.037999511E-1
3.772000000E1,-1.166999936E-1,2.842299938E0,-1.417899966E0
3.774000312E1,1.569800019E0,2.837899923E0,-2.553999901E0
3.777000000E1,5.215199947E0,1.915399909E0,-3.105599880E0
3.779000000E1,7.477599621E0,1.284500003E0,-3.047999859E0
3.781000156E1,9.343299866E0,7.378999591E-1,-3.464200020E0
3.784000000E1,1.104549980E1,1.151099920E0,-3.123699903E0
3.786000469E1,1.256589985E1,1.035499930E0,-2.262199879E0
3.789000000E1,1.341489983E1,1.483299971E0,-3.005999923E-1
3.791000000E1,1.344469929E1,1.932500005E0,1.475999951E0
3.793000000E1,1.376900005E1,1.338899970E0,2.253599882E0
3.795000000E1,1.233710003E1,1.807699919E0,2.307600021E0
3.797000000E1,1.025969982E1,2.808399916E0,2.796799898E0
3.799000000E1,9.544199944E0,2.611699820E0,2.360100031E0
3.801000000E1,9.948900223E0,8.175999522E-1,1.751099944E0
3.803000000E1,1.046899986E1,-2.408200026E0,1.583299994E0
3.805000000E1,9.446999550E0,-5.054599762E0,1.685400009E0
3.807000000E1,6.256499767E0,-5.178400040E0,2.477900028E0
3.809000000E1,3.002499819E0,-3.627899885E0,3.512899876E0
3.811000000E1,3.619000018E-1,-1.845499992E0,4.649399757E0
3.813000000E1,-1.395499945E0,-7.328000069E-1,5.054100037E0
3.815000000E1,-2.560400009E0,-8.879999816E-2,5.179199696E0
3.817000000E1,-3.304699898E0,-2.741999924E-1,4.323100090E0
3.819000000E1,-3.968899965E0,-9.348999858E-1,2.926499844E0
3.821000000E1,-4.287300110E0,-2.183799982E0,2.206899881E0
3.823000000E1,-3.983399868E0,-4.224299908E0,1.097800016E0
3.825000000E1,-4.081900120E0,-6.328499794E0,3.093999922E-1
3.827000469E1,-5.262499809E0,-7.706799984E0,-6.075999737E-1
3.830000000E1,-6.481400013E0,-8.264499664E0,4.140000045E-2
3.832000000E1,-6.232699871E0,-8.884799957E0,4.052999914E-1
3.834000000E1,-6.058499813E0,-9.480500221E0,1.023299932E0
3.836000469E1,-6.629699707E0,-9.067500114E0,2.067999840E0
3.839000000E1,-7.551199913E0,-7.345399857E0,3.492100000E0
3.841000000E1,-5.585199833E0,-8.059100151E0,3.269799948E0
3.843000000E1,-4.839699745E0,-7.141799927E0,3.226199865E0
3.845000000E1,-2.827399969E0,-7.266899586E0,3.074399948E0
3.847000000E1,-5.123999715E-1,-7.672099590E0,3.402599812E0
3.849000000E1,8.765999675E-1,-8.107099533E0,3.432399988E0
3.851000000E1,1.831999898E0,-8.235599518E0,3.019999981E0
3.853000000E1,1.901999950E0,-7.276499748E0,1.870299935E0
3.855000000E1,1.135999918E0,-4.865699768E0,9.325000048E-1
3.857000000E1,6.345999837E-1,-2.450000048E0,7.917999625E-1
3.859000000E1,1.925999969E-1,-9.479999542E-2,7.806999683E-1
3.861000000E1,-2.829000056E-1,1.809099913E0,6.340999603E-1
3.863000000E1,-9.146999717E-1,3.421000004E0,5.428000093E-1
3.865000000E1,-9.120000005E-1,4.442899704E0,4.887000024E-1
3.867000000E1,-8.449999988E-2,4.843800068E0,-5.189999938E-2
3.869000000E1,8.865999579E-1,4.726699829E0,-1.491299987E0
3.871000000E1,2.296999931E0,4.292799950E0,-3.390799999E0
3.873000000E1,3.936399937E0,3.529199839E0,-5.072199821E0
3.875000000E1,5.737699986E0,2.381700039E0,-6.041599751E0
3.877000156E1,7.042999744E0,1.546199918E0,-5.785399914E0
3.880000156E1,9.990699768E0,-2.662999928E-1,-3.308399916E0
3.883000000E1,1.360009956E1,-6.236000061E-1,5.073999763E-1
3.885000000E1,1.376169968E1,7.796999812E-1,2.138499975E0
3.887000156E1,1.407439995E1,1.097700000E0,4.069399834E0
3.890000000E1,1.157329941E1,1.876299977E0,6.559999943E0
3.892000000E1,1.065149975E1,1.571900010E0,7.092700005E0
3.894000000E1,1.145659924E1,2.080999911E-1,5.227900028E0
3.896000469E1,1.329459953E1,-2.675999880E0,4.003099918E0
3.899000000E1,1.268149948E1,-7.199999809E0,3.867999792E0
3.901000000E1,9.316399574E0,-8.031599998E0,3.961099863E0
3.903000156E1,4.755399704E0,-6.266200066E0,3.945499897E0
3.906000000E1,2.278999984E-1,-3.055899858E0,3.609699965E0
3.908000000E1,-1.420899987E0,-1.943799973E0,3.087299824E0
3.910000000E1,-2.624099970E0,-1.423599958E0,2.631899834E0
3.912000000E1,-3.450699806E0,-1.369199991E0,1.774599910E0
3.914000000E1,-4.216700077E0,-1.845899940E0,1.323799968E0
3.916000000E1,-4.883199692E0,-2.707200050E0,9.151999950E-1
3.918000000E1,-5.141999722E0,-4.347799778E0,-2.495999932E-1
3.920000000E1,-5.287699699E0,-6.143699646E0,-5.090999603E-1
3.922000000E1,-5.327399731E0,-7.947000027E0,-6.725999713E-1
3.924000000E1,-5.483699799E0,-9.046999931E0,-4.536999762E-1
3.926000000E1,-5.445600033E0,-9.865499496E0,-4.952999949E-1
3.928000000E1,-5.291299820E0,-1.016709995E1,-5.503999591E-1
3.930000000E1,-5.438899994E0,-1.007219982E1,7.313999534E-1
3.932000000E1,-6.435099602E0,-9.259599686E0,1.454899907E0
3.934000312E1,-7.469499588E0,-8.161299706E0,2.506899834E0
3.937000000E1,-6.821599960E0,-8.632699966E0,2.849200010E0
3.939000000E1,-6.644000053E0,-8.083399773E0,3.042199850E0
3.941000000E1,-5.098999977E0,-8.679699898E0,3.333299875E0
3.943000000E1,-2.265399933E0,-9.904699326E0,2.866299868E0
3.945000000E1,5.159999803E-2,-1.075449944E1,2.586999893E0
3.947000000E1,1.380899906E0,-1.083290005E1,2.540799856E0
3.949000000E1,1.395499945E0,-9.777899742E0,2.237699986E0
3.951000000E1,6.236000061E-1,-7.767499924E0,1.848199964E0
3.953000000E1,-8.489999920E-2,-5.264999866E0,1.856399894E0
3.955000000E1,2.260999978E-1,-2.638299942E0,2.007400036E0
3.957000000E1,1.208699942E0,-4.954999983E-1,1.735499978E0
3.959000000E1,2.345900059E0,1.006099939E0,1.154600024E0
3.961000000E1,2.410199881E0,2.200799942E0,2.397999913E-1
3.963000000E1,2.804299831E0,2.604599953E0,-8.162999749E-1
3.965000000E1,4.019599915E0,2.254799843E0,-1.605599999E0
3.967000000E1,5.831299782E0,1.212700009E0,-2.511399984E0
3.969000000E1,7.881999969E0,-1.133999974E-1,-3.340999842E0
3.971000000E1,9.358699799E0,-9.422999620E-1,-3.940299988E0
3.973000000E1,1.039879990E1,-8.132999539E-1,-4.026400089E0
3.975000000E1,1.183209991E1,-2.581999898E-1,-5.000899792E0
3.977000156E1,1.292269993E1,-1.409000009E-1,-5.852799892E0
3.979000156E1,1.318449974E1,1.772999913E-1,-3.400099993E0
3.981000156E1,1.231479931E1,1.055199981E0,1.611199975E0
3.984000000E1,1.262759972E1,1.436399937E0,6.343699932E0
3.986000000E1,1.241090012E1,1.903099895E0,5.691099644E0
3.988000156E1,1.267339993E1,9.821999669E-1,4.207200050E0
3.991000000E1,1.397709942E1,-1.632399917E0,2.713399887E0
3.993000000E1,1.585099983E1,-5.410199642E0,3.378299952E0
3.995000156E1,1.602529907E1,-1.016069984E1,3.611899853E0
3.997000156E1,1.216259956E1,-1.213889980E1,3.856799841E0
4.000000000E1,5.119699955E0,-9.619699478E0,5.130399704E0
4.002000000E1,2.021100044E0,-6.986799717E0,5.372999668E0
4.004000156E1,-1.534999907E-1,-4.555799961E0,4.738199711E0
4.006000156E1,-1.604299903E0,-3.173099995E0,3.652899981E0
4.009000000E1,-3.926999807E0,-2.323899984E0,2.940699816E0
4.011000000E1,-4.923899651E0,-2.296599865E0,2.616299868E0
4.013000000E1,-5.117700100E0,-3.153199911E0,2.043999910E0
4.015000000E1,-5.825699806E0,-4.332200050E0,1.472000003E0
4.017000000E1,-6.552499771E0,-5.386600018E0,1.245800018E0
4.019000000E1,-6.461999893E0,-6.951599598E0,1.359899998E0
4.021000000E1,-6.392099857E0,-8.140500069E0,1.884899974E0
4.023000000E1,-6.263499737E0,-8.889900208E0,1.663599968E0
4.025000000E1,-6.137599945E0,-9.025699615E0,1.419899940E0
4.027000000E1,-6.179800034E0,-8.903599739E0,1.082700014E0
4.029000000E1,-6.815000057E0,-7.979899883E0,1.155900002E0
4.031000000E1,-7.463199615E0,-7.602699757E0,1.705199957E0
4.033000000E1,-7.256499767E0,-8.597899437E0,1.638700008E0
4.035000000E1,-8.460899353E0,-7.983199596E0,2.438699961E0
4.037000000E1,-7.788199902E0,-8.315699577E0,3.917099953E0
4.039000156E1,-5.598299980E0,-9.378999710E0,4.174099922E0
4.042000000E1,-1.454399943E0,-1.157229996E1,3.675999880E0
4.044000000E1,-4.276999831E-1,-1.170659924E1,3.329799891E0
4.046000000E1,-8.346999884E-1,-1.040609932E1,2.863499880E0
4.048002656E1,-1.553099990E0,-8.519100189E0,1.786499977E0
4.051000000E1,-2.437999994E-1,-4.874499798E0,1.488199949E0
4.053000000E1,1.152400017E0,-2.227499962E0,1.374799967E0
4.055000000E1,1.622900009E0,-6.929999590E-2,8.479999900E-1
4.057000000E1,7.577999830E-1,9.399999976E-1,-2.540000081E-1
4.059000000E1,-5.749999732E-2,1.248799920E0,-5.174999833E-1
4.061000000E1,1.170599937E0,6.047999859E-1,-6.944999695E-1
4.063000000E1,3.343400002E0,-6.232999563E-1,-1.025099993E0
4.065000000E1,4.888400078E0,-1.225899935E0,-1.465600014E0
4.067000000E1,6.695799828E0,-1.462499976E0,-1.742799997E0
4.069000000E1,9.018300056E0,-1.867999911E0,-2.308799982E0
4.071000000E1,1.187919998E1,-2.003599882E0,-3.016799927E0
4.073000000E1,1.366580009E1,-1.087100029E0,-3.490499973E0
4.075000000E1,1.502059937E1,1.301999986E-1,-3.366299868E0
4.077000000E1,1.563019943E1,1.510100007E0,-2.146800041E0
4.079000000E1,1.464999962E1,3.816999912E0,6.481999755E-1
4.081000156E1,1.453509998E1,3.914599895E0,3.154699802E0
4.084000000E1,1.230889988E1,3.808599949E0,4.394899845E0
4.086000000E1,1.173699951E1,2.631599903E0,4.150700092E0
4.088000000E1,1.287389946E1,3.048999906E-1,3.063299894E0
4.090000000E1,1.365989971E1,-1.971399903E0,2.938199997E0
4.092000000E1,1.417280006E1,-4.575999737E0,3.692199945E0
4.094000000E1,1.273199940E1,-6.105099678E0,4.790800095E0
4.096000156E1,1.044309998E1,-6.844099998E0,5.581299782E0
4.099000000E1,6.426899910E0,-5.533799648E0,6.226699829E0
4.101000000E1,4.321899891E0,-4.440299988E0,6.039399624E0
4.103000000E1,1.955599904E0,-3.427699804E0,5.077099800E0
4.105000000E1,1.129999943E-2,-3.074899912E0,3.816499949E0
4.107000000E1,-1.218400002E0,-3.297600031E0,2.787799835E0
4.109000000E1,-1.945499897E0,-4.189399719E0,2.025899887E0
4.111000000E1,-2.794299841E0,-5.051699638E0,1.750800014E0
4.113000000E1,-3.400300026E0,-6.234600067E0,1.222100019E0
4.115000000E1,-3.565299988E0,-7.795399666E0,7.736999989E-1
4.117000000E1,-3.771399975E0,-9.380899429E0,3.648999929E-1
4.119000000E1,-5.167900085E0,-9.764699936E0,5.698999763E-1
4.121000000E1,-5.922299862E0,-9.874199867E0,4.269999862E-1
4.123000000E1,-6.666399956E0,-9.942999840E0,7.311999798E-1
4.125000000E1,-7.465600014E0,-1.007859993E1,1.560199976E0
4.127000000E1,-8.783399582E0,-9.208600044E0,2.884799957E0
4.129000000E1,-8.941299438E0,-9.031799316E0,3.300400019E0
4.131000000E1,-8.785900116E0,-9.816699982E0,2.145699978E0
4.133000000E1,-9.756299973E0,-8.701600075E0,2.279199839E0
4.136000000E1,-6.862599850E0,-9.163399696E0,2.639600039E0
4.138000000E1,-3.495999813E0,-1.045709991E1,2.273499966E0
4.140000156E1,-4.210999906E-1,-1.163169956E1,1.742799997E0
4.143000000E1,3.768999875E-1,-1.072569942E1,1.499699950E0
4.145000000E1,-5.090000033E-1,-9.096499443E0,1.137599945E0
4.147000000E1,-1.442699909E0,-6.719500065E0,1.143299937E0
4.149000000E1,-1.531099916E0,-4.532700062E0,1.513999939E0
4.151000000E1,-9.103999734E-1,-2.520999908E0,1.879199982E0
4.153000156E1,-2.137999982E-1,-7.677999735E-1,1.704399943E0
4.156000000E1,4.473999739E-1,7.121999860E-1,4.536999762E-1
4.158000000E1,8.100999594E-1,8.302999735E-1,-1.081999987E-1
4.160000156E1,2.049299955E0,1.815000027E-1,-9.231999516E-1
4.163000156E1,5.611199856E0,-1.784299970E0,-1.713999987E0
4.166000000E1,8.831500053E0,-2.479399920E0,-3.080999851E0
4.168000000E1,1.120239925E1,-2.458799839E0,-3.919699907E0
4.170000000E1,1.289459991E1,-1.998099923E0,-3.643499851E0
4.172000000E1,1.438420010E1,-1.192899942E0,-2.259399891E0
4.174000000E1,1.538169956E1,1.842999905E-1,-8.000999689E-1
4.176000000E1,1.499749947E1,2.388000011E0,1.847099900E0
4.178000000E1,1.567630005E1,2.867699862E0,4.191299915E0
4.180000000E1,1.530799961E1,2.998199940E0,4.886199951E0
4.182000000E1,1.323139954E1,3.219799995E0,5.151000023E0
4.184000000E1,1.237549973E1,2.694799900E0,4.489299774E0
4.186000625E1,1.357590008E1,7.525999546E-1,3.412299871E0
4.189000156E1,1.633600044E1,-4.158999920E0,3.118099928E0
4.192000000E1,1.355449963E1,-6.941899776E0,3.824299812E0
4.194000156E1,1.011289978E1,-6.709300041E0,4.783099651E0
4.196000156E1,6.414199829E0,-5.336499691E0,5.020099640E0
4.199000000E1,2.299799919E0,-3.506099939E0,4.459499836E0
4.201000000E1,-1.442999989E-1,-2.461699963E0,4.090899944E0
4.203000000E1,-1.554000020E0,-2.126800060E0,3.124599934E0
4.205000000E1,-2.446099997E0,-2.077499866E0,2.694399834E0
4.207000000E1,-2.881399870E0,-2.606899977E0,2.244499922E0
4.209000000E1,-3.398699999E0,-3.409999847E0,2.147199869E0
4.211000000E1,-3.010499954E0,-5.819399834E0,1.501199961E0
4.214000000E1,-3.321199894E0,-1.034969997E1,6.014999747E-1
4.216000000E1,-5.330499649E0,-1.089289951E1,6.649000049E-1
4.218000000E1,-6.237400055E0,-1.079489994E1,6.333999634E-1
4.220000000E1,-5.842899799E0,-1.078240013E1,8.783999681E-1
4.222000000E1,-5.342799664E0,-1.087949944E1,1.674099922E0
4.224000625E1,-6.405200005E0,-1.008329964E1,2.894999981E0
4.227000625E1,-7.521599770E0,-9.815199852E0,4.580599785E0
4.230000000E1,-9.247499466E0,-8.059100151E0,5.093100071E0
4.232000000E1,-8.383399963E0,-7.639499664E0,5.088599682E0
4.234000000E1,-4.622200012E0,-9.118000031E0,4.218100071E0
4.236000000E1,-1.296000004E0,-1.042899990E1,3.172299862E0
4.238000000E1,8.046000004E-1,-1.092169952E1,2.778800011E0
4.240000000E1,1.195500016E0,-1.006050014E1,2.625000000E0
4.242000000E1,8.230999708E-1,-8.333199501E0,2.241199970E0
4.244000313E1,6.753000021E-1,-5.663199902E0,1.794799924E0
4.247000000E1,1.148800015E0,-1.509400010E0,1.284799933E0
4.249000000E1,1.309099913E0,7.919999957E-1,8.540999889E-1
4.251000000E1,1.542400002E0,2.727299929E0,5.329999700E-2
4.253000000E1,1.613299966E0,3.960199833E0,-1.153299928E0
4.255000000E1,1.906499982E0,4.399799824E0,-3.153299809E0
4.257000000E1,2.794800043E0,4.337399960E0,-5.337100029E0
4.259000000E1,4.560299873E0,4.277999878E0,-6.427599907E0
4.261000000E1,7.033400059E0,3.562299967E0,-6.108999729E0
4.263000000E1,8.609799385E0,2.973500013E0,-5.197999954E0
4.265000000E1,1.087169933E1,2.222899914E0,-4.526199818E0
4.267000000E1,1.320549965E1,1.446799994E0,-4.623699665E0
4.269000000E1,1.449769974E1,1.070199966E0,-4.321300030E0
4.271000000E1,1.426439953E1,1.723599911E0,-1.731299996E0
4.273000000E1,1.267599964E1,3.512799978E0,1.325899959E0
4.275000000E1,1.254129982E1,3.071300030E0,3.335299969E0
4.277000156E1,1.150229931E1,1.842599988E0,3.898699999E0
4.280000000E1,1.136289978E1,-4.767999947E-1,3.584699869E0
4.282000156E1,1.287759972E1,-2.702399969E0,3.032500029E0
4.285000000E1,1.375519943E1,-6.030799866E0,3.467099905E0
4.287000000E1,1.117329979E1,-6.352900028E0,4.955499649E0
4.289000156E1,7.524499893E0,-4.723899841E0,6.249799728E0
4.292000000E1,2.875900030E0,-1.215699911E0,6.219500065E0
4.294000156E1,1.052699924E0,1.456999928E-1,4.890100002E0
4.296000156E1,1.049999986E-2,4.624999762E-1,3.790699959E0
4.299000000E1,-9.968999624E-1,-9.262999892E-1,2.361399889E0
4.301000000E1,-1.941100001E0,-2.391499996E0,2.133299828E0
4.303000000E1,-2.532399893E0,-4.283100128E0,2.061499834E0
4.305000000E1,-2.391599894E0,-7.542699814E0,1.958099961E0
4.307000000E1,-3.357399940E0,-1.024650002E1,1.362499952E0
4.309000000E1,-5.441699982E0,-1.157089996E1,1.041800022E0
4.311000000E1,-7.603999615E0,-1.123929977E1,1.530099988E0
4.313000000E1,-8.004099846E0,-1.121119976E1,1.481199980E0
4.315000000E1,-7.201599598E0,-1.188899994E1,2.314300060E0
4.317000156E1,-7.815999985E0,-1.120179939E1,3.236899853E0
4.320000000E1,-1.006699944E1,-8.442299843E0,4.159599781E0
4.322000000E1,-8.955699921E0,-8.770199776E0,2.909399986E0
4.324000156E1,-7.742699623E0,-8.135099411E0,2.136399984E0
4.326000156E1,-5.612999916E0,-8.326799393E0,2.098000050E0
4.329000000E1,-1.498999953E0,-1.032569981E1,2.747699976E0
4.331000000E1,-5.259000063E-1,-1.052110004E1,3.905399799E0
4.333000000E1,-1.312000006E-1,-9.999400139E0,4.912099838E0
4.335000000E1,3.613999784E-1,-8.362899780E0,4.877599716E0
4.337000000E1,1.029099941E0,-5.767899990E0,3.665399790E0
4.339000156E1,1.776299953E0,-2.954599857E0,2.153599977E0
4.342000000E1,2.050299883E0,1.000299931E0,3.719999790E-1
4.344000000E1,1.904599905E0,2.986500025E0,-4.115999937E-1
4.346000156E1,2.278100014E0,3.726799965E0,-1.525999904E0
4.349000000E1,3.706899881E0,3.596799850E0,-2.535300016E0
4.351000000E1,5.468400002E0,2.565099955E0,-3.342000008E0
4.353000000E1,6.873799801E0,1.602999926E0,-4.122499943E0
4.355000000E1,8.143099785E0,1.494199991E0,-4.450799942E0
4.357000000E1,1.088389969E1,1.560899973E0,-4.547599792E0
4.359000000E1,1.444279957E1,1.201499939E0,-4.478399754E0
4.361000000E1,1.630109978E1,1.503999949E0,-4.174499989E0
4.363000000E1,1.603809929E1,2.650599957E0,-2.705199957E0
4.365000000E1,1.458290005E1,3.824899912E0,-3.680000082E-2
4.367000000E1,1.353219986E1,3.408399820E0,1.363699913E0
4.369000000E1,1.141059971E1,3.434799910E0,2.125699997E0
4.371000000E1,1.096000004E1,2.542500019E0,2.878399849E0
4.373000000E1,1.250529957E1,8.529999852E-2,2.774399996E0
4.375000000E1,1.362729931E1,-2.708099842E0,2.682199955E0
4.377000156E1,1.389890003E1,-4.986499786E0,3.119099855E0
4.380000000E1,1.026009941E1,-5.407799721E0,2.815999985E0
4.382000000E1,6.736700058E0,-4.283400059E0,2.723799944E0
4.384000781E1,3.229599953E0,-2.584199905E0,3.324599981E0
4.387000156E1,1.228000000E-1,-9.510999918E-1,3.416899920E0
4.390000000E1,-1.367599964E0,-1.209399939E0,2.275399923E0
4.392000000E1,-2.121199846E0,-1.857100010E0,1.827899933E0
4.394000000E1,-2.974400043E0,-3.042599916E0,1.518700004E0
4.396000000E1,-3.833699942E0,-4.192899704E0,1.620499969E0
4.398000000E1,-2.756799936E0,-7.162600040E0,1.296199918E0
4.400000000E1,-2.478899956E0,-9.774299622E0,1.114899993E0
4.402000000E1,-3.216699839E0,-1.116379929E1,1.417400002E0
4.404000781E1,-3.997999907E0,-1.115889931E1,7.227999568E-1
4.407000000E1,-3.889799833E0,-9.648499489E0,1.612399936E0
4.409000000E1,-3.926499844E0,-8.585599899E0,2.075799942E0
4.411000000E1,-3.998699903E0,-7.981699944E0,2.398499966E0
4.413000000E1,-4.020899773E0,-8.708199501E0,1.759799957E0
4.415000000E1,-5.263400078E0,-8.832599640E0,1.548599958E0
4.417000000E1,-6.125899792E0,-9.177999496E0,1.210899949E0
4.419000000E1,-5.970200062E0,-9.959099770E0,6.773999929E-1
4.421000000E1,-4.983999729E0,-1.065450001E1,4.873999953E-1
4.423000000E1,-4.344500065E0,-1.042809963E1,1.078400016E0
4.425000000E1,-4.007899761E0,-9.495200157E0,1.514899969E0
4.427000000E1,-4.355499744E0,-7.902799606E0,1.467800021E0
4.429000000E1,-4.795799732E0,-5.894999981E0,1.423299909E0
