"Time (s)","Gyroscope x (rad/s)","Gyroscope y (rad/s)","Gyroscope z (rad/s)"
2.860375000E-3,-9.686577320E-2,-2.954144180E-1,-5.066690966E-2
2.485100000E-2,-1.613033265E-1,-3.977605402E-1,-4.094542563E-2
4.485100000E-2,-1.731715649E-1,-3.293785453E-1,-3.916518763E-2
6.485256300E-2,-1.826487035E-1,-1.772032827E-1,-5.674065277E-2
8.685100000E-2,-2.510830760E-1,-1.190663576E-1,-4.754276946E-2
1.088619380E-1,-2.813645303E-1,-1.092925146E-1,5.068436265E-2
1.308494380E-1,-2.100503743E-1,-6.129596382E-2,7.323401421E-2
1.508494380E-1,-8.154178411E-2,2.799508162E-2,4.668755829E-2
1.708494380E-1,8.203047328E-4,7.579965144E-2,-1.340412907E-2
1.908494380E-1,9.508553892E-2,4.448844120E-2,-3.368485346E-2
2.108494380E-1,1.040739864E-1,-3.595378250E-3,-1.388583928E-1
2.308494380E-1,4.412192479E-2,-1.235169470E-1,-2.342406362E-1
2.508494380E-1,-2.488839440E-2,-1.120501384E-1,-2.480287403E-1
2.708494380E-1,1.546361670E-2,-6.283185212E-4,-2.473655194E-1
2.908494380E-1,1.279675364E-1,6.279694289E-2,-2.634574473E-1
3.108494380E-1,1.971698403E-1,-7.042403519E-2,-2.468768209E-1
3.308494380E-1,1.510757059E-1,-1.053480729E-1,-2.176425606E-1
3.508525630E-1,-2.658136375E-2,2.420771681E-2,-2.483254522E-1
3.728494380E-1,-2.643999159E-1,1.732588410E-1,-3.128328025E-1
3.928525630E-1,-5.654517412E-1,-1.336573064E-1,-4.150393009E-1
4.148494380E-1,-7.742105722E-1,-6.069382429E-1,-4.976457357E-1
4.348494380E-1,-6.203423738E-1,-4.915021658E-1,-3.744254708E-1
4.548510000E-1,-2.890265286E-1,-1.743583940E-2,-2.254965454E-1
4.748525630E-1,-3.005456924E-2,3.067066967E-1,-1.621759981E-1
4.968494380E-1,5.934119225E-3,1.852492392E-1,-1.286307722E-1
5.168572500E-1,-2.023011148E-1,-1.843067706E-1,-1.570970863E-1
5.388494380E-1,-2.894802988E-1,-4.458268881E-1,-2.203129083E-1
5.588494380E-1,-1.907470375E-1,-3.154682517E-1,-2.746101022E-1
5.788494380E-1,-8.464846760E-2,-1.660506278E-1,-2.483429015E-1
5.988494380E-1,-4.541346803E-2,-3.488913178E-2,-2.305405438E-1
6.188494380E-1,-3.227113932E-2,-2.808234841E-2,-2.287603021E-1
6.388494380E-1,-6.759659946E-2,-4.457570985E-2,-2.604903877E-1
6.588494380E-1,-3.878121451E-2,6.337290257E-2,-1.413193047E-1
6.788494380E-1,-2.593210340E-1,1.532922685E-1,3.415609151E-2
6.988494380E-1,-2.005732358E-1,1.043008789E-1,2.529331148E-1
7.188494380E-1,-4.031710327E-3,2.121622264E-1,2.577153146E-1
7.388494380E-1,1.280548126E-1,2.976658940E-1,1.628217697E-1
7.588525630E-1,8.724901080E-2,2.198067605E-1,-1.500983164E-2
7.808806880E-1,7.682939619E-2,3.228859231E-2,-7.930775732E-2
8.028603750E-1,1.661378890E-1,6.351253390E-2,5.136504024E-2
8.248510000E-1,2.068040669E-1,2.426007763E-3,1.698728949E-1
8.448510000E-1,2.929884195E-1,-5.715953186E-2,3.163060248E-1
8.648572500E-1,3.891560733E-1,7.408922911E-2,4.108679593E-1
8.868510000E-1,2.877349854E-1,1.921083927E-1,4.556879997E-1
9.068525630E-1,-1.439896598E-2,1.962622702E-1,4.093844295E-1
9.288494380E-1,-3.874456286E-1,-1.830152273E-1,2.820452154E-1
9.488510000E-1,-4.349360466E-1,-5.434431434E-1,2.559525371E-1
9.708494380E-1,-2.974913716E-1,-4.064522684E-1,1.873436421E-1
9.908494380E-1,-1.293812543E-1,-8.662068844E-2,2.217091769E-1
1.010849438E0,-2.729694918E-2,2.966012657E-1,2.855882347E-1
1.030849438E0,-7.860963047E-2,3.562217057E-1,3.702017963E-1
1.050849438E0,-1.639213264E-1,1.978679746E-1,4.363846779E-1
1.070849438E0,-2.014459074E-1,8.796459064E-3,4.138175547E-1
1.090851000E0,-1.218065247E-1,2.338741207E-3,3.629761338E-1
1.112849438E0,-2.455678210E-2,4.279547185E-2,2.420073599E-1
1.132851000E0,6.419321150E-2,5.482079089E-2,9.330530465E-2
1.154851000E0,2.243969738E-1,-8.098327368E-2,-3.897320107E-2
1.176851000E0,3.950029016E-1,-1.320341527E-1,-9.105382860E-2
1.198854125E0,5.684537292E-1,-9.890780598E-2,-9.845402092E-2
1.220849438E0,6.719343066E-1,-9.838420898E-2,-1.169021502E-1
1.240849438E0,7.016572356E-1,-2.047096640E-1,-2.009746581E-1
1.260851000E0,7.756941319E-1,-4.059286714E-1,-2.936342061E-1
1.280855688E0,8.467813730E-1,-6.486865282E-1,-3.181386292E-1
1.302855688E0,8.154876232E-1,-6.818826795E-1,-3.569547236E-1
1.324849438E0,6.834709048E-1,-1.577952206E-1,-3.894178569E-1
1.344849438E0,3.125710189E-1,2.253918201E-1,-3.074746430E-1
1.364849438E0,-9.848892689E-2,-3.632030264E-2,-2.988178134E-1
1.384851000E0,-1.563815027E-1,-3.553839326E-1,-3.054675162E-1
1.406851000E0,-4.764748737E-2,-3.422067165E-1,-2.547657192E-1
1.426851000E0,-2.468593717E-1,6.202027202E-1,-2.677335031E-2
1.446851000E0,-6.042678952E-1,3.784746528E-1,-1.616524011E-1
1.466860375E0,-1.242272973E0,-3.738669753E-1,6.979571283E-2
1.488849438E0,-2.413074732E0,-1.186143160E0,4.771730304E-2
1.508865063E0,-2.822686195E0,-3.616845906E-1,-2.673669755E-1
1.530849438E0,-2.803993702E0,-1.495049000E-1,-7.812268138E-1
1.550849438E0,-2.808287144E0,-7.466518879E-2,-8.931024075E-1
1.570849438E0,-2.480584145E0,2.201209217E-1,-5.089554787E-1
1.590849438E0,-1.839419961E0,-4.212352037E-1,-4.196644127E-1
1.610849438E0,-6.417052150E-1,-1.859648377E-1,-2.030516118E-1
1.630849438E0,2.267357260E-1,-4.074296653E-1,1.019272301E-2
1.650849438E0,7.165274620E-1,-7.909657359E-1,2.354274690E-1
1.670851000E0,1.221329093E0,-8.818973899E-1,2.533170879E-1
1.692851000E0,1.471958280E0,-5.427101254E-1,-1.228188202E-1
1.712871313E0,9.279391766E-1,4.443259239E-1,-5.338438749E-1
1.734851000E0,5.339660048E-1,1.092698336E0,-2.701769769E-1
1.756849438E0,4.989896417E-1,9.845227599E-1,2.875953615E-1
1.776849438E0,6.720739603E-1,8.255581856E-1,5.818753242E-1
1.796849438E0,7.470183969E-1,5.674065351E-1,6.374989748E-1
1.816851000E0,1.096171498E0,2.811550796E-1,4.407130778E-1
1.838849438E0,1.568318009E0,9.815731645E-2,3.321536183E-1
1.858849438E0,1.643227458E0,3.745650947E-1,3.370579779E-1
1.878849438E0,1.136191845E0,4.291939139E-1,2.559176385E-1
1.898849438E0,-1.504473854E-2,-1.683893651E-1,-8.325220644E-2
1.918849438E0,-9.927258492E-1,-5.532344580E-1,-2.564935982E-1
1.938849438E0,-1.169405460E0,-5.018869042E-1,-1.933475733E-1
1.958849438E0,-7.606145144E-1,-2.314132005E-1,1.702568680E-1
1.978854125E0,-4.587074220E-1,4.774522781E-1,5.600412488E-1
2.000849438E0,-4.332081676E-1,1.332349420E0,7.512595057E-1
2.020849438E0,-4.709770977E-1,1.215220451E0,7.739139199E-1
2.040849438E0,-5.247681737E-1,1.064074874E0,7.044497728E-1
2.060849438E0,-3.771132827E-1,7.462155223E-1,5.648583770E-1
2.080849438E0,6.777113676E-2,3.871838450E-1,4.620060921E-1
2.100849438E0,5.591162443E-1,-7.344345748E-2,4.558799863E-1
2.120849438E0,7.130193710E-1,-1.604655683E-1,4.418824613E-1
2.140849438E0,4.686557949E-1,-3.988077492E-2,4.032059610E-1
2.160849438E0,2.072054893E-1,2.793923020E-1,3.818954825E-1
2.180851000E0,2.314306609E-2,-1.250702888E-1,2.765648663E-1
2.202857250E0,-8.318239450E-2,-3.463954926E-1,3.591887653E-2
2.224851000E0,-1.722465456E-1,-9.737366438E-1,-2.501755059E-1
2.244851000E0,-1.151393726E-1,-5.965709686E-1,-2.738596201E-1
2.264854125E0,4.387757555E-2,5.680522919E-1,-1.927192509E-1
2.286849438E0,1.085071191E-1,5.969200730E-1,-4.557752907E-1
2.306849438E0,-4.637339711E-2,-1.011941880E-1,-7.265282273E-1
2.326851000E0,-5.969025940E-2,1.748296320E-1,-7.245734334E-1
2.348849438E0,-2.112721056E-1,6.631901860E-1,-6.757391095E-1
2.368849438E0,-5.300739408E-1,6.525437236E-1,-6.418099403E-1
2.388849438E0,-6.728069782E-1,4.100825489E-1,-6.254562140E-1
2.408849438E0,-6.242693663E-1,1.895427555E-1,-6.734352708E-1
2.428851000E0,-4.627566040E-1,3.003537059E-1,-7.731459737E-1
2.450849438E0,-3.746000230E-1,5.972691178E-1,-7.952767015E-1
2.470849438E0,-4.343600869E-1,8.687725663E-1,-7.564606071E-1
2.490849438E0,-4.107457995E-1,1.091755748E0,-7.959748507E-1
2.510849438E0,-2.008350343E-1,9.387951493E-1,-9.462127686E-1
2.530849438E0,6.752678752E-2,9.377304912E-1,-9.388998747E-1
2.550849438E0,6.010913849E-2,1.100587130E0,-5.436002612E-1
2.570849438E0,-1.040041670E-1,1.172843814E0,-2.954318821E-1
2.590849438E0,-2.489886731E-1,6.984109282E-1,-5.145928860E-1
2.610849438E0,-3.980572522E-1,4.689001441E-1,-5.643871427E-1
2.630849438E0,-7.369827032E-1,-3.437600434E-1,-3.550523221E-1
2.650849438E0,-1.405339092E-1,-6.581112742E-1,1.065174416E-1
2.670849438E0,3.685786426E-1,-6.362772584E-1,5.392718315E-1
2.690849438E0,5.755572319E-1,-2.125461996E-1,5.993460417E-1
2.710849438E0,3.719296753E-1,-2.135584801E-1,6.553013325E-1
2.730849438E0,-4.326671362E-2,-5.730439425E-1,8.448441029E-1
2.750849438E0,-3.645120263E-1,-1.133189917E0,8.466068506E-1
2.770849438E0,-3.833092153E-1,-1.068281174E0,8.644092083E-1
2.790854125E0,-1.072155759E-1,-4.999321103E-1,9.518851042E-1
2.812851000E0,1.011941880E-1,-5.995729566E-1,3.744080365E-1
2.832860375E0,-1.186823845E-2,-1.050548553E0,-4.610985219E-1
2.854849438E0,-1.668185741E-1,-1.375703454E0,-8.887565732E-1
2.874851000E0,-1.275835633E-1,-1.369490027E0,-6.010564566E-1
2.896851000E0,4.799655452E-2,-1.095036983E0,1.101302728E-1
2.918849438E0,1.645496339E-1,-5.064945221E-1,3.677234054E-1
2.938849438E0,5.763076991E-2,-1.999274641E-1,8.901178837E-2
2.958849438E0,-1.764004230E-1,-1.321912408E-1,-1.657539159E-1
2.978851000E0,-3.360282481E-1,-2.433338016E-1,-1.065348983E-1
3.000849438E0,-2.372426093E-1,-2.279923558E-1,2.282367051E-1
3.020849438E0,7.312929723E-3,5.447172746E-2,4.244815111E-1
3.040851000E0,1.873610914E-1,3.171088696E-1,3.082600534E-1
3.062849438E0,1.746027321E-1,1.450019479E-1,-1.329940930E-2
3.082861938E0,6.536258012E-2,-9.539970011E-2,-1.218065247E-1
3.104849438E0,1.117010713E-1,5.164429173E-2,1.223475765E-2
3.124849438E0,1.463458538E-1,5.099852011E-2,6.798057258E-2
3.144849438E0,3.804817796E-2,-1.185078546E-2,-1.187696531E-1
3.164860375E0,-9.677850455E-2,-2.271196991E-1,-3.425383270E-1
3.186851000E0,-1.898918301E-2,-2.030865103E-1,-3.860842884E-1
3.208851000E0,6.178465672E-3,-4.439768493E-1,-5.669702291E-1
3.230854125E0,-1.778839529E-1,-8.100247383E-1,-8.316144943E-1
3.252849438E0,-3.219783306E-1,-5.996951461E-1,-7.469136715E-1
3.272855688E0,-3.881786764E-1,-5.869891047E-1,-4.724257290E-1
3.292855688E0,-4.782027602E-1,-8.050156832E-1,-2.740166783E-1
3.314851000E0,-6.233443618E-1,-6.058212519E-1,-2.758667469E-1
3.336851000E0,-7.552737594E-1,-2.916270494E-1,-4.622155428E-1
3.356851000E0,-8.496437073E-1,-5.049237609E-1,-6.862285733E-1
3.376851000E0,-8.089252114E-1,-4.840321541E-1,-7.719241977E-1
3.396851000E0,-6.002536416E-1,-2.763030827E-1,-6.970146894E-1
3.418849438E0,-1.597674340E-1,1.748296320E-1,-4.180412591E-1
3.438849438E0,3.370230794E-1,4.947659373E-1,-1.687733382E-1
3.458849438E0,6.685134768E-1,3.145432472E-1,-9.850638360E-2
3.478849438E0,8.587020040E-1,8.758062124E-2,-2.194227874E-1
3.498851000E0,9.457066655E-1,-5.499532446E-2,-2.826037109E-1
3.520849438E0,1.020843029E0,-1.457698941E-1,-2.222502232E-1
3.540849438E0,1.018469453E0,-1.270250678E-1,-2.207143307E-1
3.560849438E0,9.127025008E-1,-1.682497375E-2,-2.315353751E-1
3.580863500E0,7.531619072E-1,3.514045775E-1,-8.587019891E-2
3.602855688E0,6.757565737E-1,3.692069352E-1,9.494590759E-2
3.622858813E0,7.084116936E-1,3.422416151E-1,2.670004666E-1
3.644849438E0,8.048411012E-1,7.877892852E-1,4.890587032E-1
3.664854125E0,9.454274178E-1,8.680394888E-1,5.937610269E-1
3.686851000E0,1.227664590E0,4.301189482E-1,3.662922382E-1
3.708851000E0,1.497143388E0,5.650328994E-1,2.403492928E-1
3.730849438E0,1.443457127E0,7.832863331E-1,4.664392471E-1
3.750849438E0,8.619657755E-1,-3.752457909E-3,3.414562047E-1
3.770849438E0,-9.594074637E-2,-1.031629205E0,-1.902234405E-1
3.790849438E0,-7.946134806E-1,-1.314634323E0,-5.187118649E-1
3.810851000E0,-8.622450233E-1,-8.967152834E-1,-3.944793046E-1
3.830851000E0,-3.736226261E-1,-1.613906026E-1,1.040041670E-1
3.852849438E0,2.348689586E-1,5.308942795E-1,6.127851009E-1
3.872851000E0,3.247010410E-1,3.818082213E-1,6.682690978E-1
3.894849438E0,2.910685539E-1,2.113593742E-2,3.973940015E-1
3.914849438E0,4.071154892E-1,-1.180540696E-1,1.212131158E-1
3.934851000E0,5.376661420E-1,-1.986184716E-2,-2.631956525E-2
3.956851000E0,6.299242377E-1,4.180063680E-2,-8.161159605E-2
3.976863500E0,7.991164327E-1,-3.316125646E-2,-4.515166581E-2
3.998851000E0,8.983733058E-1,-4.420918971E-2,-5.328490213E-2
4.020849438E0,6.591235995E-1,4.649557173E-2,-8.817403018E-2
4.040849438E0,2.978928089E-1,-1.358738840E-1,-1.468345523E-1
4.060849438E0,1.637118869E-2,-5.307720900E-1,-3.264987469E-1
4.080849438E0,-2.265611887E-1,-5.075243115E-1,-3.467969298E-1
4.100849438E0,-2.299296707E-1,1.993340552E-1,-6.202900037E-2
4.120849438E0,-1.607099175E-1,4.831071496E-1,1.844289452E-1
4.140849438E0,-3.276855648E-1,-2.931455076E-1,-1.904154196E-2
4.160849438E0,-4.239753783E-1,-9.691464305E-1,-5.279970169E-1
4.180849438E0,-2.800555229E-1,-6.141464710E-1,-6.478138566E-1
4.200849438E0,-1.648637950E-1,-3.616322279E-1,-2.153561711E-1
4.220849438E0,-1.732762903E-1,-5.492027402E-1,5.394812673E-2
4.240849438E0,-2.600540519E-1,-3.468318284E-1,7.784168236E-3
4.260849438E0,-3.110525906E-1,-1.648812592E-1,-2.042384297E-1
4.280849438E0,-3.076317310E-1,-2.063851804E-1,-4.886398315E-1
4.300849438E0,-2.170666009E-1,-1.489813030E-1,-5.357986093E-1
4.320849438E0,-1.639736891E-1,1.102699041E-1,-4.304330945E-1
4.340849438E0,-1.794547588E-1,4.052479863E-1,-2.467022836E-1
4.360849438E0,-1.146506816E-1,4.342204630E-1,-1.571319848E-1
4.380851000E0,9.723228961E-2,4.538554251E-1,-2.250427604E-1
4.402851000E0,1.880243123E-1,2.778215110E-1,-4.324402213E-1
4.422857250E0,1.555611938E-1,-9.250245057E-4,-5.749114752E-1
4.444849438E0,1.485100687E-1,-2.395987958E-1,-5.612455010E-1
4.464849438E0,1.418952644E-1,-3.443883657E-1,-3.586477041E-1
4.484851000E0,1.483180821E-1,-2.782752812E-1,-1.560149789E-1
4.506849438E0,1.422443390E-1,1.196946800E-1,-3.717551380E-2
4.526851000E0,1.345125288E-1,7.141363621E-1,1.988977194E-1
4.546851000E0,5.677555874E-2,1.049641013E0,4.786739945E-1
4.568851000E0,-1.581966430E-1,1.051386356E0,5.532519221E-1
4.590849438E0,-4.594753683E-1,1.414938420E-1,2.012190074E-1
4.610849438E0,-4.510803521E-1,-9.386380911E-1,-4.618315697E-1
4.630849438E0,-3.358013555E-2,-9.436122775E-1,-6.998595595E-1
4.650851000E0,4.318991899E-1,-2.077814490E-1,-9.330530465E-2
4.670851000E0,5.258677006E-1,2.194751501E-1,5.244365335E-1
4.692849438E0,8.061675727E-2,-2.763728797E-1,5.300914049E-1
4.712851000E0,-3.526437879E-1,-6.403613091E-1,2.986956537E-1
4.732855688E0,-4.398229718E-1,-4.506265521E-1,2.552543879E-1
4.752860375E0,-2.868448496E-1,8.237954229E-3,2.563714087E-1
4.774857250E0,-1.479864717E-1,3.074746430E-1,1.027998924E-1
4.796849438E0,-1.662775129E-1,2.710147202E-1,-1.534144431E-1
4.816851000E0,-1.284562349E-1,1.839576960E-1,-1.629264802E-1
4.838849438E0,1.170068756E-1,2.451314926E-1,8.587019518E-3
4.858851000E0,3.765198886E-1,4.121420383E-1,1.082976833E-1
4.878851000E0,4.698426425E-1,2.940181792E-1,8.943066746E-2
4.900849438E0,4.613254368E-1,-8.133234084E-2,-5.782275647E-2
4.920849438E0,4.791975915E-1,-2.512052357E-1,-2.267880887E-1
4.940849438E0,3.986332119E-1,-2.267008126E-1,-2.906147838E-1
4.960851000E0,1.821600199E-1,-6.009168550E-2,-3.028146327E-1
4.980851000E0,-1.153837144E-1,1.499586850E-1,-2.075720131E-1
5.002858813E0,-3.387334943E-1,1.907295734E-1,8.779006079E-3
5.024849438E0,-4.704360366E-1,9.082693607E-2,1.363276690E-1
5.044849438E0,-4.422315359E-1,3.494847417E-1,1.442514658E-1
5.064858813E0,-3.397457898E-1,5.276653767E-1,3.560471535E-2
5.086849438E0,-3.215594590E-1,9.615018964E-2,-2.627767622E-1
5.106849438E0,-2.216044515E-1,-3.183480725E-2,-3.490134776E-1
5.126851000E0,4.501204193E-2,1.753183156E-1,-2.273989469E-1
5.148849438E0,3.152588308E-1,2.580120265E-1,-2.283588797E-1
5.168849438E0,1.025904566E-1,5.507560968E-1,-3.055722415E-1
5.188849438E0,-6.374291182E-1,1.428010941E0,-4.927937090E-1
5.208849438E0,-1.704924822E0,2.572126627E0,-6.332403421E-1
5.228849438E0,-2.634068251E0,3.291987658E0,-6.456670761E-1
5.248849438E0,-3.197530508E0,3.769597054E0,-5.797460079E-1
5.268849438E0,-3.339565277E0,3.212418079E0,-4.532271028E-1
5.288849438E0,-2.860175848E0,1.794582486E0,-2.443460980E-3
5.308849438E0,-2.076069117E0,7.892379165E-2,6.225589514E-1
5.328849438E0,-1.489813089E0,-2.351639271E0,1.069380641E0
5.348849438E0,-4.774348140E-1,-5.100183487E0,1.361880422E0
5.368849438E0,1.479899526E0,-3.354173660E0,1.245466948E0
5.388849438E0,1.346172452E0,-1.035399079E0,4.607669115E-1
5.408849438E0,9.947155118E-1,6.171309948E-1,7.550293952E-2
5.428849438E0,2.802824378E-1,2.557954490E-1,1.701696031E-2
5.448849438E0,-3.448247015E-1,6.966481805E-1,2.068913281E-1
5.468849438E0,-6.568022966E-1,6.720739603E-1,2.383072525E-1
5.488872875E0,-7.070677876E-1,5.195845291E-2,1.205498874E-1
5.510851000E0,9.555677325E-2,-2.677335031E-2,1.150032401E0
5.530851000E0,6.789330840E-1,3.045250475E-1,1.160347223E0
5.550851000E0,7.472976446E-1,3.516838327E-2,2.276258469E-1
5.572854125E0,9.557946324E-1,-5.641951561E-1,-2.870368361E-1
5.594851000E0,1.275207400E0,-9.157393575E-1,-4.323529601E-1
5.616849438E0,1.274299741E0,-1.365597963E0,-7.541218400E-1
5.636849438E0,8.204443455E-1,-1.858077526E0,-1.047581553E0
5.656849438E0,-3.808657527E-1,-2.141204834E0,-1.326607347E0
5.676851000E0,-1.239009261E0,-2.583593369E0,-1.669302702E0
5.698849438E0,-7.045370340E-1,-2.779175043E0,-1.836121321E0
5.718849438E0,-6.400296688E-1,-1.968103051E0,-1.810674429E0
5.738849438E0,-1.612387538E0,-9.778730869E-1,-1.718363881E0
5.758851000E0,-1.238747478E0,-1.397380352E0,-1.685289979E0
5.780849438E0,1.037423685E-1,-2.351412296E0,-1.722203612E0
5.800849438E0,-6.219131947E-1,-2.657612801E0,-1.560132384E0
5.820851000E0,-1.806974292E0,-2.257583380E0,-1.175112724E0
5.842857250E0,-1.328736663E0,-1.930840254E0,-1.178795338E0
5.864849438E0,-7.561464310E-1,-2.071845531E0,-1.251593113E0
5.884851000E0,-7.223568559E-1,-2.026257515E0,-1.284614682E0
5.906849438E0,-2.143787891E-1,-1.073325157E0,-8.252265453E-1
5.926849438E0,4.772951901E-1,-2.258106917E-1,-1.328370124E-1
5.946849438E0,4.631231129E-1,-1.725432426E-1,3.059562147E-1
5.966849438E0,-8.552113548E-3,-6.939429045E-2,3.240029216E-1
5.986849438E0,-4.243593514E-1,1.636595279E-1,1.706408411E-1
6.006851000E0,-1.031140566E0,1.345648803E-2,2.590068579E-1
6.026855688E0,-1.658446789E0,-3.865206242E-1,3.890687823E-1
6.048849438E0,-2.084045410E0,-9.932843447E-1,1.086467430E-1
6.068851000E0,-2.502505541E0,-1.647294044E0,-5.555382967E-1
6.090849438E0,-2.945958614E0,-2.205031633E0,-1.018102884E0
6.110849438E0,-2.748945951E0,-2.732661963E0,-8.671493530E-1
6.130849438E0,-2.104046822E0,-3.532336950E0,-2.742959559E-1
6.150849438E0,-1.517354369E0,-3.765949249E0,-2.191435397E-1
6.170849438E0,-1.579208851E0,-3.732578516E0,-5.721189380E-1
6.190849438E0,-2.551758528E0,-3.885574102E0,-7.485891581E-1
6.210849438E0,-3.196937084E0,-3.746139765E0,-4.372922480E-1
6.230849438E0,-2.799560547E0,-3.725684643E0,-8.042477071E-2
6.250849438E0,-1.882861137E0,-4.304400921E0,-1.000422761E-1
6.270849438E0,-1.038244009E0,-5.393014908E0,-7.143807411E-1
6.290849438E0,-8.474969864E-1,-6.112719059E0,-9.313426018E-1
6.310849438E0,-8.002508879E-1,-5.948413849E0,-4.865628779E-1
6.330849438E0,-6.399948001E-1,-5.353413582E0,-1.490511186E-2
6.350849438E0,-6.321233511E-1,-5.107531548E0,9.794788063E-2
6.370849438E0,-2.247809470E-1,-5.546359539E0,-1.267283559E-1
6.390849438E0,3.201806545E-1,-5.482812405E0,-2.293362617E-1
6.410849438E0,3.461860418E-1,-4.500087261E0,-9.499827027E-2
6.430849438E0,2.109753937E-1,-2.907439232E0,2.058441341E-1
6.450849438E0,2.561445236E-1,-1.340744495E0,3.070383072E-1
6.470849438E0,6.643421054E-1,-7.176794112E-2,-7.897614688E-2
6.490849438E0,1.471644163E0,6.671695709E-1,-7.496712804E-1
6.510849438E0,2.339212418E0,6.401693225E-1,-1.416823387E0
6.530851000E0,2.841047049E0,7.613824010E-1,-1.597377658E0
6.552849438E0,2.789088488E0,1.000003815E0,-1.475815535E0
6.572854125E0,2.463095903E0,1.389805675E0,-1.370781541E0
6.594849438E0,2.322143078E0,1.779904246E0,-1.463615656E0
6.614849438E0,2.341237068E0,1.797462225E0,-1.507213950E0
6.634849438E0,2.292210817E0,1.678867102E0,-1.488120079E0
6.654851000E0,2.215992212E0,1.789730430E0,-1.516167521E0
6.674851000E0,2.176757097E0,1.963547707E0,-1.564094305E0
6.696849438E0,2.049714565E0,2.146423340E0,-1.632004976E0
6.716849438E0,1.888917446E0,2.279818773E0,-1.618740559E0
6.736849438E0,1.836487770E0,2.421033382E0,-1.530461788E0
6.756851000E0,1.722308397E0,2.091794491E0,-1.407538176E0
6.778849438E0,1.467577577E0,1.611602068E0,-1.291159630E0
6.798849438E0,1.386943340E0,1.483669519E0,-1.135755539E0
6.818849438E0,1.371584415E0,1.410662413E0,-8.634318113E-1
6.838851000E0,1.262623549E0,1.314407468E0,-5.871287584E-1
6.858851000E0,1.114619613E0,1.023827553E0,-3.758915663E-1
6.880851000E0,8.510923386E-1,7.398625016E-1,-1.616524011E-1
6.902849438E0,4.057366848E-1,6.714106798E-1,-2.413790300E-2
6.922851000E0,-1.200786512E-2,6.258750558E-1,2.615724802E-1
6.942852563E0,-1.471312493E-1,7.012209296E-1,6.164851785E-1
6.962855688E0,4.276056774E-3,5.576850772E-1,9.643642306E-1
6.984849438E0,2.528807521E-1,-9.904743731E-2,1.335613251E0
7.004849438E0,1.560673416E-1,-6.501002312E-1,1.567061305E0
7.024851000E0,-8.950048685E-2,-8.601855040E-1,1.376000166E0
7.046851000E0,-7.358308136E-2,-6.020862460E-1,8.957378864E-1
7.068849438E0,1.714262366E-1,-2.716430426E-1,6.815336347E-1
7.088849438E0,1.883384734E-1,-6.689847261E-2,6.509554386E-1
7.108849438E0,-2.762332559E-1,1.307949722E-1,6.153158545E-1
7.128849438E0,-7.754846811E-1,3.887371719E-1,5.446997881E-1
7.148851000E0,-8.629780412E-1,5.098630190E-1,5.610709786E-1
7.168851000E0,-5.623800159E-1,1.911484599E-1,7.031931281E-1
7.188851000E0,-1.900139898E-1,-3.647040129E-1,8.373391628E-1
7.210849438E0,1.959132105E-1,-1.122456193E0,7.134382129E-1
7.230849438E0,3.510904312E-1,-1.593136549E0,4.603829384E-1
7.250849438E0,2.980673313E-1,-1.552226067E0,3.032858670E-1
7.270849438E0,2.620088160E-1,-1.463266611E0,3.107209802E-1
7.290849438E0,4.373446107E-1,-1.598355055E0,1.834690124E-1
7.310866625E0,6.773797274E-1,-1.606139183E0,4.077089205E-2
7.332849438E0,8.886867166E-1,-1.592333674E0,-8.073893189E-2
7.352849438E0,9.624443650E-1,-1.595388055E0,-1.876228899E-1
7.372849438E0,8.695405126E-1,-1.677558064E0,-2.769837379E-1
7.392849438E0,7.008544207E-1,-1.575665832E0,-3.524168730E-1
7.412851000E0,5.456073880E-1,-1.607483149E0,-4.005181491E-1
7.432851000E0,5.335122347E-1,-1.881656885E0,-3.934670389E-1
7.454855688E0,6.361550689E-1,-1.617187142E0,-3.372150660E-1
7.476849438E0,9.745045900E-1,-7.712261081E-1,-2.445380837E-1
7.496849438E0,1.509587646E0,-1.264316440E-1,-1.323308647E-1
7.516849438E0,2.072386503E0,1.837831736E-1,-1.021541208E-1
7.536849438E0,2.495297194E0,3.324677646E-1,-1.234645918E-1
7.556851000E0,2.767638445E0,5.455724597E-1,-2.257583439E-1
7.578849438E0,2.854381323E0,6.687752604E-1,-3.062005639E-1
7.598849438E0,2.704789162E0,6.820572019E-1,-3.772180080E-1
7.618849438E0,2.378325224E0,6.696304679E-1,-4.726002514E-1
7.638849438E0,2.038596869E0,6.273062229E-1,-5.040860176E-1
7.658849438E0,1.862475753E0,4.875053763E-1,-5.052553415E-1
7.678849438E0,1.754614353E0,2.932502329E-1,-5.350830555E-1
7.698849438E0,1.601095200E0,6.778858602E-2,-5.247681737E-1
7.718849438E0,1.377972364E0,-8.693484962E-2,-5.268625617E-1
7.738849438E0,1.100971103E0,-2.878047898E-2,-5.914571881E-1
7.758849438E0,8.514414430E-1,1.759466380E-1,-6.152459979E-1
7.778849438E0,6.691069007E-1,3.419972658E-1,-5.618563890E-1
7.798849438E0,4.893903136E-1,2.544864714E-1,-4.063126445E-1
7.818849438E0,1.928065270E-1,-8.883725852E-2,-2.205747068E-1
7.838849438E0,-2.392322868E-1,-4.716228545E-1,3.944444004E-3
7.858849438E0,-6.856874824E-1,-4.995306730E-1,1.628392190E-1
7.878849438E0,-8.048062325E-1,-3.786317408E-1,2.641206682E-1
7.898849438E0,-6.106383204E-1,-4.026300013E-1,5.701990724E-1
7.918849438E0,-1.436580569E-1,-8.054519892E-1,9.832312465E-1
7.938849438E0,2.763379812E-1,-1.314931035E0,1.226146102E0
7.958851000E0,4.424584210E-1,-1.683509707E0,1.135179639E0
7.978851000E0,4.155628979E-1,-1.755504489E0,9.489355087E-1
8.000849438E0,4.367162883E-1,-1.732780337E0,9.842784405E-1
8.020849438E0,5.303706527E-1,-1.621201396E0,1.100604653E0
8.040849438E0,6.344446540E-1,-1.375616193E0,1.106713295E0
8.060849438E0,7.639306188E-1,-1.153470635E0,9.960419536E-1
8.080849438E0,8.954062462E-1,-1.036289215E0,8.507607579E-1
8.100849438E0,9.499129057E-1,-1.009638071E0,7.579790354E-1
8.120849438E0,1.002185464E0,-1.052747726E0,7.186567783E-1
8.140849438E0,1.119995236E0,-1.171901345E0,7.478561401E-1
8.160849438E0,1.306536078E0,-1.201397419E0,7.178015709E-1
8.180849438E0,1.444609046E0,-1.180278897E0,5.579817891E-1
8.200849438E0,1.491715431E0,-1.120623589E0,3.592934906E-1
8.220849438E0,1.470701694E0,-9.538922310E-1,1.250528395E-1
8.240849438E0,1.413908720E0,-6.060481071E-1,-1.472359747E-1
8.260849438E0,1.365405917E0,-2.483079880E-1,-4.175351262E-1
8.280851000E0,1.238922000E0,-8.237954229E-3,-5.629210472E-1
8.302849438E0,9.972287416E-1,2.053205371E-1,-6.970844865E-1
8.322849438E0,8.274082541E-1,5.011887550E-1,-7.661646605E-1
8.342851000E0,9.016022086E-1,7.316594720E-1,-7.322354317E-1
8.364849438E0,1.174973130E0,6.940301657E-1,-6.161884665E-1
8.384851000E0,1.333658457E0,5.688900948E-1,-5.859768391E-1
8.406851000E0,1.271193147E0,5.848598480E-1,-6.278996468E-1
8.428849438E0,1.040914416E0,5.450837612E-1,-6.853209734E-1
8.448849438E0,7.726223469E-1,4.731762111E-1,-6.930527687E-1
8.468849438E0,5.463578701E-1,5.528679490E-1,-6.345319152E-1
8.488849438E0,3.089581728E-1,4.418824613E-1,-5.472480059E-1
8.508865063E0,1.059763953E-1,2.180614322E-1,-4.826708138E-1
8.530851000E0,4.293509945E-2,1.469218135E-1,-3.849672675E-1
8.552849438E0,3.340560198E-2,9.904743731E-2,-2.698453665E-1
8.572852563E0,-9.351474047E-2,7.714355364E-3,-1.941504180E-1
8.594851000E0,-3.713013530E-1,-2.090380788E-1,-8.000589162E-2
8.616849438E0,-5.324301124E-1,-3.275634050E-1,6.693337858E-2
8.636849438E0,-5.132315159E-1,-3.481408358E-1,2.167000771E-1
8.656849438E0,-4.252320230E-1,-3.835884631E-1,3.343876302E-1
8.676849438E0,-4.482529163E-1,-4.998448491E-1,3.919835091E-1
8.696849438E0,-5.425530672E-1,-6.257005334E-1,3.114365637E-1
8.716849438E0,-7.005227804E-1,-5.446474552E-1,2.507514656E-1
8.736849438E0,-8.557872772E-1,-3.107384145E-1,2.884854674E-1
8.756851000E0,-9.697223902E-1,-1.495572627E-1,4.216715395E-1
8.778849438E0,-1.035957575E0,-1.245292425E-1,4.618315697E-1
8.798849438E0,-9.991486073E-1,-1.854586899E-1,4.687954485E-1
8.818851000E0,-9.123883247E-1,-2.348864079E-1,4.983089566E-1
8.840849438E0,-8.724726439E-1,-3.420321643E-1,5.546307564E-1
8.860849438E0,-9.399121404E-1,-3.882834017E-1,6.097831130E-1
8.880849438E0,-1.002901077E0,-3.435680568E-1,6.612877846E-1
8.900849438E0,-1.020249605E0,-2.377662063E-1,6.582334638E-1
8.920849438E0,-9.795311093E-1,-1.409876943E-1,6.060307026E-1
8.940849438E0,-8.453502059E-1,-2.427403927E-1,6.215815544E-1
8.960855688E0,-7.175571918E-1,-3.938859105E-1,6.696479321E-1
8.982849438E0,-7.469485402E-1,-3.495545387E-1,6.032904983E-1
9.002851000E0,-8.814261556E-1,-2.178345472E-1,4.310788810E-1
9.022852563E0,-9.939824343E-1,7.824310660E-2,2.425309569E-1
9.044849438E0,-9.594075084E-1,3.407755494E-1,2.101550996E-1
9.064849438E0,-8.544433713E-1,5.167745352E-1,2.407681644E-1
9.084851000E0,-7.535808086E-1,5.021661520E-1,2.769663036E-1
9.104851000E0,-6.272014976E-1,2.751860619E-1,3.869045973E-1
9.126851000E0,-4.866676033E-1,1.013338193E-1,4.474326074E-1
9.148849438E0,-4.370304346E-1,1.398008764E-1,4.470486343E-1
9.168849438E0,-5.108578801E-1,2.114291787E-1,4.466297626E-1
9.188849438E0,-5.462880731E-1,3.055897057E-1,4.442735612E-1
9.208849438E0,-5.630606413E-1,4.870341122E-1,3.746174574E-1
9.228849438E0,-6.651799083E-1,5.209807754E-1,2.981196940E-1
9.248849438E0,-7.703534365E-1,6.203249097E-1,2.559874356E-1
9.268849438E0,-6.099402308E-1,1.155617356E0,2.661103606E-1
9.288851000E0,-4.023856521E-1,1.195899606E0,5.795016885E-1
9.310849438E0,-4.527558684E-1,1.861044616E-1,9.430537224E-1
9.330849438E0,-6.873978972E-1,1.898220032E-1,8.943067193E-1
9.350849438E0,-8.364490271E-1,9.754295945E-1,5.522745252E-1
9.370851000E0,-9.058433175E-1,4.808905721E-1,5.941450000E-1
9.392852563E0,-9.712931514E-1,-7.127749920E-1,4.840321541E-1
9.414849438E0,-1.437016845E0,4.690223336E-1,-9.472076297E-1
9.434849438E0,-1.936826825E0,2.322335005E0,-2.050151110E0
9.454851000E0,-1.597133398E0,2.285526037E0,-1.309031844E0
9.474852563E0,-7.251493931E-1,4.745026529E-1,4.564036056E-2
9.496851000E0,-3.491880298E-1,1.845336556E-1,3.105813265E-1
9.518849438E0,-2.215520889E-1,1.080411196E0,-2.392846346E-1
9.538849438E0,2.497740686E-1,1.121217012E0,-6.150889397E-1
9.558849438E0,5.939878821E-1,9.478883147E-1,-8.537626863E-1
9.578851000E0,5.002637506E-1,1.239864469E0,-1.187818766E0
9.600849438E0,1.969080418E-1,2.008873940E0,-1.456058383E0
9.620849438E0,1.526290476E-1,2.544969320E0,-1.520461082E0
9.640849438E0,5.050982833E-1,2.512157202E0,-1.607169032E0
9.660849438E0,7.751181722E-1,2.368219852E0,-1.737824321E0
9.680849438E0,7.977027297E-1,2.261004210E0,-1.553482652E0
9.700849438E0,6.289817691E-1,1.807096481E0,-8.492248654E-1
9.720849438E0,3.130073547E-1,1.216843605E0,-1.131147891E-1
9.740849438E0,1.008800268E-1,1.284771800E0,1.076693609E-1
9.760849438E0,8.770279586E-2,1.785035491E0,6.078981608E-2
9.780849438E0,4.230678082E-2,1.822245955E0,5.700245500E-2
9.800849438E0,-5.328315496E-1,1.264979720E0,1.036376506E-1
9.820849438E0,-1.576451182E0,1.020214796E0,-8.747590333E-2
9.840849438E0,-2.356072426E0,1.627449751E0,-4.837354422E-1
9.860849438E0,-2.422726393E0,2.216445923E0,-7.228280902E-1
9.880851000E0,-1.892477989E0,2.290709734E0,-7.126877308E-1
9.900851000E0,-1.484559655E0,1.871411800E0,-6.978175640E-1
9.920851000E0,-1.440682054E0,1.376331687E0,-7.723430991E-1
9.942860375E0,-1.510250807E0,7.531270385E-1,-8.661720157E-1
9.964849438E0,-1.617012620E0,5.288347602E-1,-6.679898500E-1
9.984849438E0,-1.966410160E0,7.290240526E-1,-2.922379375E-1
1.000484944E1,-2.439516544E0,9.360200763E-1,-6.112143025E-2
1.002485100E1,-2.917998552E0,8.047364354E-1,-9.110618383E-2
1.004685100E1,-3.432469130E0,6.085439324E-1,-5.435827971E-1
1.006884944E1,-4.022913933E0,7.912799120E-1,-7.779805064E-1
1.008884944E1,-4.134143829E0,8.176692724E-1,-5.978625417E-1
1.010884944E1,-3.438979387E0,9.447292686E-1,-4.156326950E-1
1.012884944E1,-2.265018463E0,7.953290939E-1,-4.862661958E-1
1.014885100E1,-1.120833039E0,-1.024159193E-1,-6.706078649E-1
1.017085100E1,-1.506917328E-1,-1.244419694E0,-5.657659173E-1
1.019285256E1,5.183278918E-1,-2.115862608E0,-4.915545285E-1
1.021285256E1,6.715328693E-1,-2.358690262E0,-4.753229618E-1
1.023485100E1,3.060958385E-1,-2.270359278E0,-4.526336789E-1
1.025685100E1,-2.870019376E-1,-2.071217060E0,-3.850196302E-1
1.027884944E1,-4.893379509E-1,-2.030132055E0,-3.209660351E-1
1.029884944E1,-2.647315264E-1,-2.048353195E0,-3.211405873E-1
1.031884944E1,-1.054876968E-1,-1.809871554E0,-2.575756907E-1
1.033884944E1,-2.267357260E-1,-1.555594444E0,-1.535715163E-1
1.035884944E1,-3.837979138E-1,-1.453876734E0,3.298672289E-2
1.037884944E1,-5.891708136E-1,-1.367413163E0,9.208357334E-2
1.039884944E1,-9.008516669E-1,-1.153557897E0,1.439896598E-2
1.041884944E1,-1.283061385E0,-1.068315983E0,-1.066047102E-1
1.043884944E1,-1.621079206E0,-8.729089499E-1,-1.214574650E-1
1.045888381E1,-2.030184507E0,-4.306599796E-1,-7.361798733E-2
1.048084944E1,-2.292280436E0,-1.095717698E-1,2.001020014E-1
1.050084944E1,-2.214979887E0,-1.947089285E-1,5.462880731E-1
1.052084944E1,-2.243585825E0,-3.031986058E-1,7.584502697E-1
1.054084944E1,-2.423738718E0,-4.195946157E-1,8.352971077E-1
1.056084944E1,-2.665431976E0,-7.196690440E-1,9.022130370E-1
1.058084944E1,-3.030380249E0,-8.168489933E-1,8.187863231E-1
1.060084944E1,-3.566178799E0,-6.183003187E-1,6.784443855E-1
1.062084944E1,-4.094123363E0,2.232276089E-2,4.213399291E-1
1.064084944E1,-4.416643143E0,5.891882181E-1,3.889815211E-1
1.066084944E1,-4.043980122E0,3.544763625E-1,8.990714550E-1
1.068084944E1,-3.005456924E0,-4.159817696E-1,1.631516337E0
1.070084944E1,-1.850485325E0,-6.749188304E-1,1.860433698E0
1.072084944E1,-1.036550999E0,-5.010665655E-1,1.448448777E0
1.074084944E1,-5.125159621E-1,-3.189414740E-1,8.389972448E-1
1.076084944E1,-2.360557765E-1,-3.762231767E-1,5.970596671E-1
1.078084944E1,-3.488040566E-1,-2.435083389E-1,6.012310386E-1
1.080084944E1,-5.366014838E-1,1.696809083E-1,5.996951461E-1
1.082085100E1,-3.939033449E-1,3.566754758E-1,4.363846779E-1
1.084287756E1,4.054399952E-2,2.686061710E-2,2.564761341E-1
1.086485100E1,6.038664579E-1,-3.093770742E-1,2.252521962E-1
1.088485100E1,9.447816014E-1,-4.181983471E-1,2.292315364E-1
1.090485100E1,8.813738227E-1,-1.912706345E-1,1.447401494E-1
1.092685100E1,5.460262299E-1,1.184205860E-1,1.431170036E-3
1.094884944E1,3.039316237E-1,1.280024499E-1,-5.464625731E-2
1.096884944E1,2.322509587E-1,1.106887832E-1,2.225294709E-2
1.098884944E1,3.845309317E-1,-1.425934024E-2,4.363323003E-2
1.100886506E1,8.824733496E-1,-3.751410544E-1,2.298598550E-2
1.103084944E1,1.572140217E0,-3.271968663E-1,-1.262571216E-1
1.105084944E1,2.277183533E0,8.749335259E-2,-3.876550794E-1
1.107084944E1,2.748178005E0,1.611113399E-1,-6.474996805E-1
1.109084944E1,2.885186434E0,4.734205604E-1,-1.082139015E0
1.111084944E1,2.816263199E0,1.284056187E0,-1.752397776E0
1.113084944E1,2.697598219E0,2.089455843E0,-2.018682718E0
1.115084944E1,2.583331585E0,2.781094790E0,-1.886247158E0
1.117084944E1,2.487216234E0,3.400407553E0,-1.722587585E0
1.119084944E1,2.506345272E0,3.954636812E0,-1.633366346E0
1.121084944E1,2.544445753E0,4.066076279E0,-1.493687630E0
1.123084944E1,2.651207447E0,4.127563953E0,-1.333291888E0
1.125084944E1,2.939256668E0,4.395210266E0,-1.141584992E0
1.127084944E1,3.131644249E0,4.589779377E0,-9.626363516E-1
1.129084944E1,3.072931290E0,4.613202095E0,-8.611629009E-1
1.131084944E1,2.877856016E0,4.916435242E0,-7.393389344E-1
1.133084944E1,2.771006823E0,5.474783897E0,-5.266007185E-1
1.135084944E1,2.690512180E0,5.810009003E0,-2.170666009E-1
1.137084944E1,2.580189943E0,5.532135010E0,-7.075564563E-2
1.139084944E1,2.544410706E0,4.998884678E0,-1.199041214E-2
1.141084944E1,2.418555021E0,4.427010059E0,1.164658219E-1
1.143084944E1,2.006849289E0,3.962647915E0,3.936240971E-1
1.145084944E1,1.572646379E0,3.103300095E0,4.792848527E-1
1.147084944E1,1.505119562E0,3.086649656E0,3.689975142E-1
1.149085100E1,1.265573144E0,3.571921110E0,5.670574903E-1
1.151085100E1,8.694357872E-1,3.528060913E0,7.518878579E-1
1.153285881E1,4.547455311E-1,3.590631008E0,8.727518916E-1
1.155484944E1,-1.364847422E-1,2.724075079E0,1.038383603E0
1.157485256E1,-9.007818699E-1,2.408118010E0,1.047040462E0
1.159684944E1,-1.893490195E0,2.513099670E0,7.058460712E-1
1.161685100E1,-2.628692627E0,2.317483187E0,4.273089468E-1
1.163685100E1,-3.221685886E0,2.281546831E0,3.449992239E-1
1.165884944E1,-3.384385347E0,1.352473140E0,4.400498569E-1
1.167884944E1,-2.240130186E0,-1.317863226E0,2.787989080E-1
1.169884944E1,-1.165007234E0,-8.319810033E-1,1.746900082E-1
1.171884944E1,-5.174028277E-1,-1.007840395E0,2.402096689E-1
1.173884944E1,-1.149822921E-1,-1.683596969E0,1.338842064E-1
1.175884944E1,-8.356636763E-2,-1.548979759E0,-4.576602280E-1
1.177884944E1,-4.614650607E-1,-3.729070425E-1,-1.055365682E0
1.179884944E1,-6.296973228E-1,5.193226933E-1,-1.298071146E0
1.181884944E1,-3.635695279E-1,6.854431629E-1,-1.120291948E0
1.183884944E1,5.108578876E-2,-9.030333161E-2,-7.189534903E-1
1.185885100E1,5.324650407E-1,-3.672521710E-1,-4.064871743E-2
1.188084944E1,1.057809114E0,4.454429448E-1,2.253918201E-1
1.190084944E1,1.420558333E0,1.116190434E0,4.412366748E-1
1.192084944E1,1.789032340E0,1.499010921E0,1.052625537E0
1.194084944E1,1.899668694E0,1.383923888E0,1.438936710E0
1.196085100E1,1.638497591E0,1.246531606E0,1.359471798E0
1.198284944E1,1.287075639E0,1.425776958E0,1.287407160E0
1.200285725E1,1.079887509E0,1.642337322E0,1.490615845E0
1.202485100E1,6.847101450E-1,1.247666121E0,1.208413601E0
1.204685100E1,3.630808294E-1,4.085815847E-1,1.067391038E0
1.206685100E1,5.747718215E-1,5.977752805E-1,1.007386565E0
1.208685100E1,9.284802675E-1,1.325926661E0,7.292334437E-1
1.210884944E1,4.205370843E-1,1.370467424E0,-7.648032904E-2
1.212884944E1,-3.329389989E-1,6.944665313E-1,-5.612804294E-1
1.214884944E1,-5.236685872E-1,2.588323355E-1,-3.899414539E-1
1.216884944E1,-2.638763189E-1,5.225864649E-1,1.645321846E-1
1.218884944E1,-1.551423222E-1,1.087026000E0,4.817283154E-1
1.220884944E1,-1.203753576E-1,1.069171190E0,1.904503256E-1
1.222884944E1,-3.032335043E-1,6.336417794E-1,-1.180715263E-1
1.224884944E1,-6.136228442E-1,2.033657581E-1,-1.806590259E-1
1.226885412E1,-6.652671695E-1,4.169068038E-1,1.138827354E-1
1.229087600E1,-4.581489265E-1,3.891909719E-1,5.609662533E-1
1.231088225E1,-3.316300213E-1,-5.040510744E-2,6.720739603E-1
1.233284944E1,-4.010766745E-1,-6.930527687E-1,4.811349213E-1
1.235285569E1,-6.393141150E-1,-9.970018864E-1,3.534466326E-1
1.237485100E1,-1.006496429E0,-1.029901385E0,3.300592005E-1
1.239485256E1,-1.244925857E0,-1.151655555E0,2.733185589E-1
1.241684944E1,-1.031541944E0,-1.426265597E0,3.174055815E-1
1.243684944E1,-6.161361337E-1,-1.325804472E0,3.072826564E-1
1.245685100E1,-3.328866363E-1,-9.684482813E-1,1.876228899E-1
1.247685100E1,-3.625572324E-1,-1.014298081E0,6.126105785E-3
1.249685725E1,-4.864581525E-1,-1.537722349E0,1.209687665E-1
1.251884944E1,-4.329987466E-1,-1.466041684E0,3.344050944E-1
1.253884944E1,-2.792177796E-1,-5.101422668E-1,1.503426582E-1
1.255884944E1,-1.709724516E-1,-1.287354827E-1,-2.189341038E-1
1.257884944E1,-1.759117395E-1,-4.456523657E-1,-3.800803423E-1
1.259884944E1,-7.979645580E-2,-1.705588102E0,-4.264886677E-1
1.261884944E1,3.964340985E-1,-1.889615655E0,-1.567131132E-1
1.263884944E1,1.058489799E0,-8.146149516E-1,4.078834355E-1
1.265885100E1,1.497719407E0,1.701870561E-1,7.226186395E-1
1.268085725E1,1.447663307E0,4.011639357E-1,5.901132822E-1
1.270285569E1,9.934414029E-1,1.070934013E-1,3.579495847E-1
1.272484944E1,5.471083522E-1,-1.982344985E-1,1.759466380E-1
1.274485100E1,4.722686410E-1,3.996803891E-3,-4.143411666E-2
1.276485100E1,5.149593949E-1,6.354569197E-1,-1.998576522E-1
1.278485256E1,5.115211010E-1,1.079416275E0,-1.865407825E-1
1.280684944E1,4.673119187E-1,8.054694533E-1,-1.204277202E-2
1.282685100E1,4.276929200E-1,4.134161472E-1,1.481435448E-1
1.284685100E1,3.124488294E-1,2.441191971E-1,2.775073647E-1
1.286689475E1,1.208116934E-1,3.491007686E-1,3.911806345E-1
1.288884944E1,-7.312929723E-3,4.918163419E-1,4.122118652E-1
1.290884944E1,-1.987930015E-2,6.356838346E-1,5.320287347E-1
1.292884944E1,-1.776745170E-2,7.099126577E-1,7.283084393E-1
1.294884944E1,2.054252476E-2,5.300914049E-1,8.310559988E-1
1.296884944E1,3.036698401E-1,4.668406546E-1,8.400793076E-1
1.298884944E1,4.337317646E-1,7.195119858E-1,7.496712804E-1
1.300886506E1,2.443984598E-1,9.708568454E-1,5.836555362E-1
1.303085100E1,-3.766420484E-2,1.055714726E0,6.964736581E-1
1.305286350E1,-1.732064784E-1,1.028592348E0,9.560913444E-1
1.307485100E1,-2.926742733E-1,5.768836737E-1,1.078246951E0
1.309485100E1,-5.914047956E-1,1.050862744E-1,1.057826638E0
1.311685100E1,-8.009315729E-1,-4.443957210E-1,9.488482475E-1
1.313685100E1,-6.863856316E-1,-4.410970509E-1,9.107651711E-1
1.315884944E1,-4.624075294E-1,-4.270820692E-2,9.568592906E-1
1.317884944E1,-2.547831535E-1,2.738596201E-1,1.106503844E0
1.319884944E1,-1.523672491E-1,4.061555564E-1,1.112490296E0
1.321884944E1,-2.406285405E-1,2.410997748E-1,8.853182793E-1
1.323884944E1,-3.073524833E-1,1.267458051E-1,7.408573627E-1
1.325884944E1,-6.728244573E-2,5.555208325E-1,8.949001431E-1
1.327884944E1,1.690700501E-1,1.293341279E0,1.008102179E0
1.329884944E1,2.525666058E-1,1.655601859E0,8.958426118E-1
1.331884944E1,-1.286831200E-1,1.362246871E0,9.070301652E-1
1.333884944E1,-4.159992337E-1,7.350279689E-1,8.802219033E-1
1.335885100E1,-6.782873273E-1,8.046491146E-1,9.768084288E-1
1.337885100E1,-9.581159353E-1,9.052150249E-1,8.544433713E-1
1.339885725E1,-1.048070192E0,6.561740041E-1,6.459289193E-1
1.342084944E1,-1.105369329E0,-2.641555667E-1,6.287373900E-1
1.344085413E1,-1.155425429E0,-1.355527401E0,8.136550188E-1
1.346284944E1,-1.294999361E0,-1.249271750E0,1.093937516E0
1.348285100E1,-1.636315942E0,-7.095810771E-1,1.092471361E0
1.350285100E1,-2.034826994E0,-6.653195024E-1,7.301061153E-1
1.352285412E1,-2.348113537E0,-8.472526073E-1,3.052580953E-1
1.354286819E1,-2.460216045E0,-6.761230826E-1,1.888969839E-1
1.356487131E1,-2.443251610E0,-3.520678282E-1,2.466673851E-1
1.358685412E1,-2.239135265E0,-3.237411082E-1,1.304109991E-1
1.360884944E1,-1.740058303E0,-5.456073880E-1,1.574112475E-1
1.362884944E1,-9.941395521E-1,-6.042155027E-1,3.189763725E-1
1.364884944E1,-1.381078959E-1,-1.837133616E-1,4.594055712E-1
1.366884944E1,5.197939277E-1,3.083473146E-1,4.627740383E-1
1.368886350E1,9.460906386E-1,1.983392090E-1,4.325100482E-1
1.371084944E1,1.307740331E0,2.967408895E-1,4.006577730E-1
1.373085569E1,1.672130108E0,1.154482961E0,5.017995834E-1
1.375284944E1,1.760984898E0,2.031528234E0,4.805065989E-1
1.377285100E1,1.350291371E0,1.585369825E0,-2.089159191E-2
1.379285100E1,7.915766239E-1,1.018015623E0,-3.712838888E-1
1.381286819E1,4.500331581E-1,9.783443213E-1,-4.259301424E-1
1.383484944E1,2.057743222E-1,1.465134144E0,-6.585476398E-1
1.385484944E1,-1.192234382E-1,1.948345900E0,-8.829445839E-1
1.387484944E1,-3.082425892E-1,1.476007462E0,-1.127238393E0
1.389485100E1,-9.834930301E-2,1.383313060E0,-9.808226824E-1
1.391684944E1,4.869119525E-1,1.299223065E0,-7.015001774E-1
1.393686038E1,1.111181259E0,8.867145181E-1,-7.404908538E-1
1.395884944E1,1.538699746E0,4.070282280E-1,-1.246845722E0
1.397885725E1,1.595248342E0,1.272868663E-1,-1.620782495E0
1.400084944E1,1.384150863E0,-1.158898592E0,-1.717910171E0
1.402084944E1,1.244716406E0,-1.827237606E0,-1.555193067E0
1.404084944E1,1.253565311E0,-2.144782782E0,-1.203439474E0
1.406084944E1,1.545052767E0,-1.861044526E0,-1.107795358E0
1.408085725E1,1.639946222E0,-1.701154947E0,-1.484786510E0
1.410285569E1,1.438360691E0,-2.691699028E0,-2.142548800E0
1.412484944E1,1.607744932E0,-2.678923368E0,-2.393492222E0
1.414484944E1,2.081287622E0,-1.650034308E0,-2.194699049E0
1.416485413E1,2.028770685E0,-7.743327618E-1,-1.813030601E0
1.418685100E1,1.353363156E0,1.664171368E-1,-1.529536724E0
1.420884944E1,9.144303799E-1,1.879894137E-1,-1.031070709E0
1.422884944E1,7.104711533E-1,-5.848773122E-1,-7.368779778E-1
1.424884944E1,1.014123559E0,-1.570447236E-1,-7.848920226E-1
1.426885100E1,1.463685513E0,-5.267403647E-2,-1.417556405E-1
1.429084944E1,1.950614929E0,-2.400351316E-1,-1.953372508E-1
1.431084944E1,2.332475424E0,5.785940886E-1,-8.410741389E-2
1.433084944E1,2.115391493E0,9.116727114E-1,-2.280621678E-1
1.435084944E1,1.454313040E0,6.854082346E-1,-6.551093459E-1
1.437084944E1,9.840689898E-1,8.341277242E-1,-3.771132827E-1
1.439085100E1,9.007469416E-1,1.071719408E0,5.612804294E-1
1.441286194E1,1.140625000E0,1.075367212E0,8.225561976E-1
1.443484944E1,1.547688127E0,1.107062325E-1,3.735702634E-1
1.445485256E1,1.688274384E0,-1.079730511E0,2.203303576E-1
1.447684944E1,1.442636847E0,-1.406089544E0,3.712664247E-1
1.449684944E1,8.838172555E-1,-1.002464771E0,4.798259139E-1
1.451684944E1,1.584235430E-1,-8.563981652E-1,2.651853263E-1
1.453684944E1,-2.588323317E-2,-4.852015376E-1,-2.839127183E-1
1.455685100E1,1.813746095E-1,3.199712038E-1,-7.216238379E-1
1.457886038E1,4.846779257E-2,1.140101433E0,-8.460483551E-1
1.460084944E1,-5.521523356E-1,9.428268671E-1,-6.253340244E-1
1.462084944E1,-9.311156869E-1,-1.590693146E-1,-1.932777613E-1
1.464084944E1,-7.380298972E-1,-7.179935575E-1,9.344492853E-2
1.466084944E1,-2.031039596E-1,-6.190682650E-1,4.502949305E-3
1.468084944E1,-5.839871615E-2,-1.200437471E-1,-4.162610322E-2
1.470084944E1,-2.342580855E-1,-1.849176288E-1,6.958627701E-2
1.472084944E1,-3.805690408E-1,-7.495316267E-1,1.875181794E-1
1.474084944E1,-4.434183538E-1,-5.416978598E-1,-9.313076735E-2
1.476084944E1,-6.518805027E-1,-1.461538672E-1,-5.844758749E-1
1.478088694E1,-7.456744909E-1,-1.102349982E-1,-7.106631398E-1
1.480285881E1,-6.230825186E-1,-1.279151738E-1,-4.606098533E-1
1.482484944E1,-5.419771075E-1,-3.039490879E-1,-1.335525960E-1
1.484484944E1,-3.392221928E-1,-1.668011099E-1,1.844813079E-1
1.486485100E1,-2.316051908E-2,-2.418677211E-1,4.371875226E-1
1.488485100E1,5.609488115E-2,-4.682369232E-1,3.666413128E-1
1.490485256E1,-1.565211266E-1,-6.624397039E-1,2.753605843E-1
1.492685100E1,-1.280373484E-1,-8.067086339E-1,4.923923016E-1
1.494685881E1,1.466774642E-1,-9.448165298E-1,6.141464710E-1
1.496884944E1,4.120722413E-2,-1.004751086E0,2.919412255E-1
1.498884944E1,-3.197443187E-1,-8.676555157E-1,-3.702192307E-1
1.500886506E1,-7.020412087E-1,-5.176646709E-1,-9.922196865E-1
1.503085100E1,-1.226861715E0,-3.502701223E-1,-1.002604365E0
1.505285725E1,-1.583624482E0,1.832595677E-3,-7.758337855E-1
1.507484944E1,-1.788787961E0,1.064650893E0,-4.883256555E-1
1.509485100E1,-1.887399077E0,1.385512114E0,-5.076464415E-1
1.511684944E1,-2.326174736E0,2.271389008E0,-7.196341753E-1
1.513684944E1,-3.140353441E0,3.632763147E0,-6.901031733E-1
1.515684944E1,-3.162519217E0,3.696851730E0,-5.929756165E-1
1.517684944E1,-2.103697777E0,3.791204095E-1,-2.078163475E-1
1.519684944E1,-1.245815992E0,2.208888680E-1,-3.014183640E-1
1.521684944E1,-6.980444193E-1,-1.658813238E0,-8.555604219E-1
1.523684944E1,-1.564862132E-1,-2.881783009E0,-1.546920180E0
1.525684944E1,3.536735177E-1,-2.749068022E0,-1.910786510E0
1.527685100E1,6.702587605E-1,-1.316868424E0,-1.569208026E0
1.529884944E1,8.343371749E-1,-2.032435834E-1,-8.686154485E-1
1.531884944E1,7.767413259E-1,-6.743951887E-2,-5.336518884E-1
1.533884944E1,3.732212186E-1,-9.762324691E-1,-4.299793243E-1
1.535884944E1,6.736970693E-2,-1.598267794E0,-4.895823002E-1
1.537885100E1,1.605528444E-1,-1.036498666E0,-4.344124496E-1
1.540084944E1,2.757794857E-1,-9.491100162E-2,-1.162563786E-1
1.542084944E1,1.875007153E-1,4.857949317E-1,1.455430090E-1
1.544084944E1,1.571494490E-1,6.012484431E-1,3.239156604E-1
1.546085100E1,2.095791399E-1,7.017270923E-1,5.747543573E-1
1.548285725E1,2.197194993E-1,8.927358985E-1,8.037415743E-1
1.550286194E1,1.828232408E-1,8.743925095E-1,9.234013557E-1
1.552286350E1,2.866005301E-1,7.408049703E-1,9.273806810E-1
1.554484944E1,5.037893057E-1,6.811321974E-1,8.402014971E-1
1.556484944E1,6.239028573E-1,4.626867771E-1,7.940375209E-1
1.558484944E1,7.637386322E-1,2.012364566E-1,7.085687518E-1
1.560485100E1,1.044876218E0,7.344345748E-2,5.073671937E-1
1.562685100E1,1.350675344E0,-2.670353837E-2,4.031012356E-1
1.564885100E1,1.181029439E0,-6.073745899E-3,3.403915763E-1
1.567084944E1,5.672320127E-1,-6.426476836E-1,1.901361644E-1
1.569084944E1,4.504345655E-1,-1.173489571E0,1.741838604E-1
1.571084944E1,7.944738865E-1,-4.453382194E-1,2.085668445E-1
1.573084944E1,9.623047113E-1,3.450515866E-1,2.166302651E-1
1.575084944E1,5.924694538E-1,3.559075296E-1,1.916371472E-2
1.577084944E1,8.492772281E-2,3.586651757E-2,-2.241177261E-1
1.579085100E1,-4.247433245E-1,-4.739441574E-1,-1.799958050E-1
1.581085100E1,-8.599935174E-1,-7.722558379E-1,2.874208093E-1
1.583284944E1,-5.440714955E-1,-1.921083927E-1,1.017509460E0
1.585285256E1,3.926467299E-1,9.467014670E-1,1.317496657E0
1.587485100E1,6.761929393E-1,9.188286066E-1,9.800896645E-1
1.589485100E1,3.644073009E-1,2.253918201E-1,4.135034084E-1
1.591684944E1,9.400343150E-2,-1.607099175E-1,8.494517207E-2
1.593684944E1,-8.227481693E-2,2.951700687E-1,2.279225439E-1
1.595684944E1,8.691739291E-3,7.505962849E-1,6.360154152E-1
1.597685100E1,4.871039391E-1,1.166665316E0,8.766439557E-1
1.599884944E1,4.640306830E-1,1.123450994E0,5.806012154E-1
1.601884944E1,-3.591887653E-2,9.158266187E-1,2.670528293E-1
1.603884944E1,-2.523746192E-1,3.028669953E-1,2.544341087E-1
1.605885100E1,-1.034282148E-1,-2.564063072E-1,2.601064146E-1
1.607885100E1,1.148950234E-1,7.754497975E-2,3.338116705E-1
1.610084944E1,2.032959461E-1,7.580837607E-1,5.824862123E-1
1.612084944E1,1.737300754E-1,2.743657529E-1,5.970073342E-1
1.614084944E1,-7.883652300E-2,-4.369257092E-1,7.115183473E-1
1.616084944E1,-2.325476706E-1,-8.010362983E-1,1.012395740E0
1.618084944E1,-2.992017865E-1,-9.803514183E-2,9.416574836E-1
1.620084944E1,-5.563760400E-1,4.368035495E-1,6.040235162E-1
1.622084944E1,-7.814188004E-1,1.084407926E0,5.660975575E-1
1.624084944E1,-7.783994079E-1,9.555503130E-1,7.335793376E-1
1.626084944E1,-8.676555157E-1,1.747074537E-2,6.800500751E-1
1.628085100E1,-8.135677576E-1,-2.886076570E-1,3.134960532E-1
1.630285725E1,-4.813792706E-1,5.132664442E-1,2.637017965E-1
1.632484944E1,-4.712738097E-1,1.441816449E0,2.791828513E-1
1.634484944E1,-1.186282873E0,1.403384328E0,4.426154867E-2
1.636485569E1,-1.627868533E0,-8.284030557E-1,-3.505842984E-1
1.638685100E1,-1.219810605E0,-1.477560878E0,-2.909812927E-1
1.640685100E1,-8.583005667E-1,-7.024775743E-1,3.492403775E-2
1.642685256E1,-1.062294602E0,2.633701824E-2,5.084493160E-1
1.644884944E1,-1.719323874E0,5.735151842E-2,6.411467195E-1
1.646885256E1,-1.889126897E0,-2.660056353E-1,3.819478452E-1
1.649084944E1,-1.704628110E0,-6.263986826E-1,6.433283538E-2
1.651085412E1,-1.499953389E0,-7.892727852E-1,1.867502346E-3
1.653284944E1,-1.231643915E0,-8.623148203E-1,1.323657632E-1
1.655285881E1,-9.757088423E-1,-7.939851880E-1,3.228335381E-1
1.657484944E1,-7.725525498E-1,-5.617167354E-1,4.613079727E-1
1.659485100E1,-5.754874349E-1,-3.928212523E-1,5.452234149E-1
1.661485100E1,-3.530975580E-1,-2.853264213E-1,6.092770100E-1
1.663684944E1,-4.577998444E-2,-2.673844397E-1,5.951921940E-1
1.665684944E1,2.552893162E-1,-4.920432270E-1,4.339237511E-1
1.667684944E1,8.324871659E-1,-3.640407622E-1,4.955687821E-1
1.669684944E1,1.257212996E0,3.552792072E-1,1.114637017E0
1.671684944E1,1.478084445E0,3.566405773E-1,1.896422386E0
1.673684944E1,1.064354181E0,-8.735896349E-1,1.984299779E0
1.675684944E1,4.751658738E-1,1.315629184E-1,2.084446669E0
1.677685100E1,-2.034530342E-1,5.762553811E-1,2.053676605E0
1.679884944E1,-9.362120628E-1,1.236530900E0,1.747859955E0
1.681885100E1,-1.661623240E0,2.083504200E0,1.351774931E0
1.684084944E1,-2.186146975E0,1.767058611E0,1.020284534E0
1.686084944E1,-2.192220688E0,3.064623475E-1,8.633096814E-1
1.688085100E1,-1.465168953E0,-1.541666746E0,9.031555057E-1
1.690085569E1,-4.397880733E-1,-1.479149103E0,1.165705442E0
1.692285100E1,-1.747074537E-2,-1.347167253E0,1.348563552E0
1.694285412E1,-4.315675497E-1,-2.003044605E0,1.149648428E0
1.696485100E1,-5.137725472E-1,-1.829750776E0,7.965857387E-1
1.698684944E1,-4.031186998E-1,-9.368927479E-1,3.741287887E-1
1.700684944E1,-4.590041339E-1,-2.679080330E-2,5.611931682E-1
1.702684944E1,-4.134685099E-1,8.836078644E-1,1.429913402E0
1.704685100E1,-5.009443760E-1,1.027300805E-1,1.276080012E0
1.706685100E1,-6.710093021E-1,-6.832963824E-1,6.821270585E-1
1.708884944E1,-1.459095180E-1,-1.800254703E0,2.506292760E-1
1.710884944E1,1.191536263E-1,-2.612408876E0,-1.426108479E-1
1.712884944E1,-8.087855577E-2,-2.399269104E0,-6.132040024E-1
1.714885100E1,-1.222760201E0,-3.090070486E0,-1.886421680E0
1.717084944E1,-2.274163961E0,-3.135239601E0,-2.189707518E0
1.719084944E1,-1.989186645E0,-3.613826275E0,-1.014612198E0
1.721084944E1,-2.704928637E0,-3.305566311E0,-7.815235257E-1
1.723084944E1,-4.785326481E0,-3.022421598E0,-1.798526883E0
1.725084944E1,-5.926265240E0,-3.471425056E0,-2.582109928E0
1.727084944E1,-5.044315815E0,-3.883601904E0,-2.716657400E0
1.729084944E1,-3.031357765E0,-4.168561935E0,-2.529942036E0
1.731086663E1,-8.671144843E-1,-5.266112328E0,-2.542351246E0
1.733286038E1,8.922123313E-1,-7.412552834E0,-2.933968306E0
1.735484944E1,1.868060827E0,-8.781292915E0,-2.611972570E0
1.737485100E1,1.192443848E0,-8.705650330E0,-1.607011914E0
1.739485100E1,4.908389449E-1,-7.951074123E0,-4.593881071E-1
1.741485100E1,5.906194448E-1,-7.052386761E0,5.231798887E-1
1.743684944E1,1.320690662E-1,-5.788506508E0,1.480318427E0
1.745684944E1,-2.664070427E-1,-5.104703903E0,2.014057636E0
1.747685100E1,-2.702467740E-1,-4.636519432E0,2.427438736E0
1.749884944E1,1.277581006E-1,-4.293230534E0,2.601378441E0
1.751885100E1,5.970771313E-1,-3.776368856E0,2.322876215E0
1.754084944E1,6.651449800E-1,-2.803644657E0,1.889284015E0
1.756085100E1,-1.790009737E-1,-1.186876297E0,1.496567488E0
1.758085100E1,-1.558037996E0,4.058065116E-1,1.260406971E0
1.760284944E1,-2.339317083E0,1.066308856E0,1.307897329E0
1.762284944E1,-1.957212210E0,9.160709381E-1,1.475222111E0
1.764285725E1,-8.858243823E-1,3.904126883E-1,1.608163834E0
1.766485100E1,4.317421019E-1,-1.117185280E-1,8.448615074E-1
1.768485256E1,1.211921692E0,-2.071705759E-1,-3.332531750E-1
1.770685100E1,1.096537948E0,-7.284654975E-1,-6.444453597E-1
1.772685100E1,7.642273307E-1,-2.638937905E-2,-1.090673685E0
1.774884944E1,4.564559460E-1,1.430052996E0,-1.503653526E0
1.776884944E1,4.798259139E-1,2.312456608E0,-1.580098867E0
1.778885100E1,7.506835461E-1,2.270935059E0,-1.713267565E0
1.781084944E1,9.421112537E-1,1.638934016E0,-2.023255587E0
1.783084944E1,6.790203452E-1,1.807061553E0,-2.297376871E0
1.785085100E1,3.813369870E-1,2.221716881E0,-2.536591768E0
1.787085100E1,2.915921509E-1,2.129057407E0,-2.432500362E0
1.789285725E1,5.603030324E-1,1.666091323E0,-2.306592226E0
1.791484944E1,9.724102020E-1,1.713110447E0,-2.387261391E0
1.793484944E1,1.475798011E0,1.650261164E0,-2.570189238E0
1.795485100E1,1.928187370E0,1.206266880E0,-2.351307631E0
1.797485100E1,2.237529516E0,8.088728189E-1,-2.180021048E0
1.799485569E1,2.085022688E0,7.849618196E-1,-2.227336884E0
1.801684944E1,1.526238084E0,1.129489779E0,-2.163928986E0
1.803684944E1,7.200355530E-1,1.315035820E0,-1.743042827E0
1.805684944E1,-4.351454973E-1,1.572541595E0,-1.507248878E0
1.807684944E1,-1.112525225E0,2.345774889E0,-1.539293170E0
1.809685100E1,-7.816107869E-1,2.165621996E0,-1.644396901E0
1.811685100E1,2.056870461E-1,1.745975018E0,-1.539502621E0
1.813885100E1,6.497686505E-1,1.092471361E0,-1.638480186E0
1.815885100E1,5.393765569E-1,7.667056918E-1,-1.794791818E0
1.818084944E1,6.757915020E-2,1.258975744E0,-1.856471777E0
1.820084944E1,-2.705783844E-1,1.752240777E0,-1.591513395E0
1.822084944E1,-3.524866998E-1,2.115059853E0,-1.217890739E0
1.824084944E1,-3.211580217E-1,2.445014238E0,-9.194743633E-1
1.826084944E1,-3.134087622E-1,2.441855192E0,-6.917263269E-1
1.828084944E1,-5.996776819E-1,2.306138515E0,-5.541594625E-1
1.830084944E1,-1.184991241E0,2.208661795E0,-3.525739610E-1
1.832084944E1,-1.578196526E0,2.538232327E0,-1.202531829E-1
1.834084944E1,-1.535470843E0,2.978212357E0,-1.360484213E-1
1.836084944E1,-1.361950278E0,2.943969011E0,-4.850095510E-1
1.838084944E1,-1.259708881E0,2.795092344E0,-5.521697998E-1
1.840084944E1,-9.825854301E-1,2.357328892E0,-4.424060583E-1
1.842084944E1,-5.950002074E-1,1.835894346E0,-2.850995362E-1
1.844084944E1,-2.839650810E-1,1.747126937E0,-2.785894573E-1
1.846085100E1,1.281246245E-1,1.944680810E0,-2.613281608E-1
1.848285569E1,7.230724692E-1,4.422140718E-1,-6.543064713E-1
1.850484944E1,1.206039906E0,-1.450089335E0,-1.766866565E0
1.852485100E1,1.088282585E0,-1.489027619E0,-2.188765049E0
1.854685100E1,-2.692868412E-1,-6.347064376E-1,-1.886124969E0
1.856685100E1,-1.053236365E0,2.764427066E-1,-1.302067995E0
1.858885100E1,-9.349728823E-1,9.135402441E-1,-1.173419714E0
1.861084944E1,-3.572340012E-1,4.758814573E-1,-9.001884460E-1
1.863084944E1,9.310633540E-1,-6.636265516E-1,-1.794372946E-1
1.865084944E1,2.400368690E0,-1.988628149E0,5.432337523E-1
1.867084944E1,2.322823763E0,-3.325759888E0,6.102020144E-1
1.869084944E1,9.496859908E-1,-4.049495697E0,6.696479321E-1
1.871084944E1,3.937288225E-1,-3.685332537E0,1.484611988E0
1.873084944E1,5.478413701E-1,-3.168610334E0,2.453950405E0
1.875084944E1,8.519650102E-1,-3.256627321E0,2.803400278E0
1.877084944E1,1.245379686E0,-3.554310560E0,2.760238171E0
1.879084944E1,1.672025442E0,-3.448665857E0,2.879444122E0
1.881084944E1,1.849577785E0,-2.902884007E0,2.632497549E0
1.883084944E1,1.434398890E0,-2.659672260E0,2.419305563E0
1.885084944E1,1.128652096E0,-2.510830641E0,2.793469191E0
1.887085100E1,1.056116223E0,-2.372129440E0,3.355849266E0
1.889085100E1,1.007945061E0,-2.198067665E0,3.674808264E0
1.891284944E1,1.121880174E0,-2.076470613E0,3.746436596E0
1.893285100E1,1.228659391E0,-2.019223690E0,3.864176512E0
1.895286038E1,7.392342091E-1,-1.449059606E0,3.587943077E0
1.897286194E1,-8.030085564E-1,-1.160294890E0,2.994182110E0
1.899484944E1,-2.678504467E0,-7.949451208E-1,3.142552614E0
1.901484944E1,-3.908577681E0,-5.748940110E-1,3.165381432E0
1.903485100E1,-4.400411129E0,-8.958774805E-2,2.870089293E0
1.905685100E1,-4.413571358E0,4.235041440E-1,2.847050905E0
1.907685100E1,-4.267714024E0,3.765547872E-1,2.972452879E0
1.909884944E1,-4.057750702E0,1.914626211E-1,2.851117611E0
1.911884944E1,-3.373686552E0,-5.602506921E-2,2.631956577E0
1.913884944E1,-2.113873005E0,-3.673743606E-1,2.662272930E0
1.915885100E1,-8.715825081E-1,-3.591887653E-1,2.410160065E0
1.918085100E1,-4.102396369E-1,-2.911034524E-1,1.654397607E0
1.920284944E1,-1.934871972E-1,1.359960586E-1,1.067216516E0
1.922285569E1,1.307251602E-1,4.711167216E-1,6.653020382E-1
1.924485100E1,3.640233278E-1,4.968952239E-1,2.739992440E-1
1.926485100E1,4.159119725E-1,4.954116940E-1,1.539380383E-2
1.928684944E1,4.368559122E-1,4.540474117E-1,-7.175048441E-2
1.930684944E1,3.928910792E-1,2.231403440E-1,-1.917593181E-1
1.932685100E1,4.010592103E-1,-1.920036674E-1,-4.446749985E-1
1.934685100E1,5.115036368E-1,-5.162683725E-1,-5.740388036E-1
1.936885100E1,6.694908738E-1,-5.021486878E-1,-5.489234924E-1
1.939084944E1,7.038040161E-1,-2.840174139E-1,-4.335572422E-1
1.941084944E1,6.375164390E-1,-2.255838066E-1,-5.554161072E-1
1.943084944E1,5.151339173E-1,-1.569050997E-1,-8.806408048E-1
1.945084944E1,4.497015476E-1,5.881759338E-3,-1.060619116E0
1.947084944E1,4.959702194E-1,1.899267286E-1,-9.827425480E-1
1.949084944E1,6.391046643E-1,4.807160199E-1,-9.253386855E-1
1.951084944E1,8.561887145E-1,7.868816853E-1,-1.101337671E0
1.953084944E1,1.144098282E0,9.935984612E-1,-1.373364687E0
1.955084944E1,1.793221116E0,1.109732747E0,-1.383784294E0
1.957084944E1,2.612461090E0,5.570218563E-1,-1.150538445E0
1.959084944E1,3.208683014E0,-4.025951028E-1,-1.263339162E0
1.961084944E1,3.132412195E0,-1.303429365E0,-1.867973566E0
1.963084944E1,2.641800165E0,-1.403960347E0,-2.375393152E0
1.965084944E1,2.239554167E0,-9.143954515E-1,-2.508387089E0
1.967084944E1,2.032366037E0,1.747598201E-1,-2.395516634E0
1.969084944E1,1.916563511E0,9.483246207E-1,-2.256396532E0
1.971084944E1,1.952482343E0,1.111041665E0,-2.216062069E0
1.973084944E1,2.253621578E0,9.987123013E-1,-2.360924244E0
1.975085100E1,2.629582882E0,7.092319727E-1,-2.625551224E0
1.977285881E1,2.889340162E0,2.648013532E-1,-2.990377426E0
1.979485569E1,2.871363401E0,-5.073672161E-2,-3.343422413E0
1.981684944E1,2.716936588E0,2.228785492E-2,-3.505424023E0
1.983685100E1,2.520971060E0,1.558055431E-1,-3.523139000E0
1.985884944E1,2.236360073E0,1.496096253E-1,-3.476084948E0
1.987884944E1,1.925307631E0,-6.946410518E-3,-3.377473831E0
1.989884944E1,1.667016268E0,-1.944296807E-1,-3.123511076E0
1.991884944E1,1.538682222E0,-3.036698401E-1,-2.702712059E0
1.993885100E1,1.473948002E0,-2.759016454E-1,-2.231071711E0
1.995885100E1,1.298036218E0,2.860594541E-2,-1.949916720E0
1.998084944E1,9.149364829E-1,3.788935244E-1,-1.743409395E0
2.000084944E1,6.428396702E-1,4.535587132E-1,-1.131828547E0
2.002084944E1,4.115835428E-1,3.898192942E-1,-4.687081575E-1
2.004084944E1,-1.076344550E-1,2.037671953E-1,2.508387268E-1
2.006084944E1,-9.778556228E-1,-7.532840967E-2,1.104444385E0
2.008084944E1,-1.700177550E0,-1.336049587E-1,1.771683693E0
2.010084944E1,-2.151292801E0,-1.373748630E-1,2.557971954E0
2.012084944E1,-2.320816755E0,-1.470789015E-1,3.520852804E0
2.014084944E1,-2.554010153E0,-4.579744115E-2,4.082813740E0
2.016085100E1,-2.865568876E0,1.204102635E-1,4.140793800E0
2.018085100E1,-3.071220875E0,1.248259470E-1,4.204812527E0
2.020285256E1,-3.105900764E0,-6.300638430E-3,4.613830090E0
2.022484944E1,-2.974390030E0,-2.504198253E-1,4.816131115E0
2.024485100E1,-2.620838642E0,-6.174451113E-1,4.666382313E0
2.026485100E1,-2.151083469E0,-8.288917542E-1,4.345834732E0
2.028684944E1,-1.586504340E0,-8.789129257E-1,4.027591705E0
2.030684944E1,-1.212899089E0,-1.067478299E0,3.749037027E0
2.032685100E1,-1.052817464E0,-1.126034021E0,3.479662895E0
2.034685100E1,-1.013041496E0,-1.000352859E0,3.368572712E0
2.036884944E1,-1.102681518E0,-7.224790454E-1,3.306508780E0
2.038884944E1,-1.236495972E0,-6.363819242E-1,3.178733349E0
2.040884944E1,-1.494944334E0,-8.535532951E-1,2.648729086E0
2.042884944E1,-2.086261749E0,-9.314123988E-1,2.093958855E0
2.044884944E1,-2.801724672E0,-6.669775844E-1,1.906475544E0
2.046884944E1,-3.271898985E0,-2.138551921E-1,2.067010880E0
2.048884944E1,-3.167563200E0,-1.422094256E-1,2.272383690E0
2.050886506E1,-1.964210987E0,-7.304552197E-1,2.125409603E0
2.053084944E1,-1.131496951E-1,-1.572279811E0,9.143430591E-1
2.055084944E1,1.068403244E0,-1.741733909E0,-8.867669106E-1
2.057084944E1,1.422199011E0,-1.461137295E0,-2.258089542E0
2.059084944E1,1.144185543E0,-7.648032904E-2,-2.885378361E0
2.061084944E1,9.242216349E-1,1.583449960E0,-3.224722624E0
2.063084944E1,1.088212729E0,2.423738718E0,-3.622867107E0
2.065084944E1,1.474122524E0,2.327902794E0,-3.936572552E0
2.067084944E1,2.058214426E0,1.592403531E0,-4.017189503E0
2.069084944E1,2.766085148E0,6.949203014E-1,-3.981392622E0
2.071084944E1,3.323647976E0,1.908517480E-1,-4.083494663E0
2.073084944E1,3.597472668E0,9.826203436E-2,-4.121594906E0
2.075085100E1,3.533052444E0,-2.406809106E-2,-4.138699055E0
2.077085100E1,3.184597492E0,6.015102863E-1,-4.504590034E0
2.079085100E1,2.093382835E0,1.474942803E0,-4.719632149E0
2.081085100E1,4.398927689E-1,1.268487811E0,-3.978251219E0
2.083284944E1,-1.390713215E0,-3.247185051E-1,-2.529278755E0
2.085285412E1,-1.959533453E0,-1.057372808E0,-1.469427586E0
2.087285412E1,-1.573012948E0,-1.092453957E0,-8.706575036E-1
2.089485100E1,-1.156908989E0,-1.231504321E0,-2.949606441E-2
2.091684944E1,-8.209854364E-1,-1.476478696E0,9.964259267E-1
2.093684944E1,-6.207612753E-1,-1.182547808E0,1.873366594E0
2.095685100E1,7.618362457E-2,-8.317366242E-1,2.973220825E0
2.097685100E1,1.336066961E0,-5.624323487E-1,4.248480320E0
2.099884944E1,2.904018402E0,-2.395987958E-1,4.958044052E0
2.101884944E1,2.936429262E0,3.078760765E-2,4.300526142E0
2.103884944E1,4.647113681E-1,4.351105690E-1,3.336894989E0
2.105884944E1,-2.810800314E0,8.586496115E-1,2.739695787E0
2.107884944E1,-4.325344563E0,6.454227567E-1,2.450564384E0
2.109884944E1,-4.003610611E0,9.368927032E-2,2.357625723E0
2.111884944E1,-2.791339874E0,-3.245788813E-1,2.247949123E0
2.113884944E1,-1.641953349E0,-7.832514048E-1,1.925045848E0
2.115884944E1,-1.491034776E-1,-1.551580191E0,2.164435148E0
2.117885100E1,1.329644203E0,-2.425344467E0,2.534532309E0
2.120084944E1,2.094255447E0,-2.779419422E0,1.653350353E0
2.122084944E1,1.272065759E0,-2.551688910E0,2.658485472E-1
2.124084944E1,-1.383697093E-1,-2.025646687E0,-3.685611784E-1
2.126084944E1,-8.889485598E-1,-1.381271005E0,-5.769534707E-1
2.128084944E1,-1.038558125E0,-6.759834886E-1,-8.555952907E-1
2.130084944E1,-8.369551897E-1,7.400196046E-3,-1.068769813E0
2.132084944E1,-4.351978600E-1,3.111747503E-1,-1.124742508E0
2.134084944E1,2.054077983E-1,1.605702937E-2,-1.081388593E0
2.136084944E1,9.885195494E-1,-4.993910491E-1,-9.273108840E-1
2.138084944E1,2.051809072E0,-1.023914814E0,-6.606070995E-1
2.140084944E1,3.085881710E0,-1.371479750E0,-8.264657855E-1
2.142084944E1,3.717533827E0,-1.775279045E0,-1.358215213E0
2.144084944E1,3.741252899E0,-2.062700033E0,-2.196496964E0
2.146084944E1,3.300225735E0,-1.843137503E0,-3.230936050E0
2.148084944E1,2.918277740E0,-1.122368932E0,-3.966766834E0
2.150084944E1,2.984216213E0,-6.300638616E-2,-4.162261009E0
2.152084944E1,3.127909184E0,7.396879792E-1,-4.241254807E0
2.154084944E1,3.105988026E0,1.075436950E0,-4.395716190E0
2.156085100E1,3.044866562E0,8.576198816E-1,-4.659592628E0
2.158085100E1,2.974582195E0,2.805442214E-1,-4.908598900E0
2.160285881E1,2.852653503E0,-3.640407622E-1,-4.970051765E0
2.162484944E1,2.603490114E0,-7.190058231E-1,-4.946437836E0
2.164484944E1,2.326279640E0,-8.759458661E-1,-4.797752857E0
2.166485725E1,1.921502829E0,-9.831613898E-1,-4.640533924E0
2.168685100E1,1.564059377E0,-8.204094768E-1,-4.416346073E0
2.170884944E1,1.215918541E0,-4.056319594E-1,-4.058099747E0
2.172884944E1,7.652221322E-1,-1.256811619E-1,-3.692907333E0
2.174884944E1,3.527659476E-1,3.216641769E-2,-3.265126944E0
2.176884944E1,2.607347369E-1,3.064100146E-1,-2.828096628E0
2.178885100E1,5.467418432E-1,6.269746423E-1,-2.417211294E0
2.180885100E1,1.007508755E0,8.383340240E-1,-1.872790694E0
2.182885100E1,1.301666498E0,9.091768861E-1,-1.325385571E0
2.184885100E1,1.244786263E0,7.221823335E-1,-8.348084092E-1
2.186885100E1,8.613374233E-1,3.339687586E-1,-2.789385319E-1
2.189084944E1,4.099778533E-1,1.432217211E-1,3.611435294E-1
2.191084944E1,1.445132643E-1,2.114989907E-1,1.025346041E0
2.193084944E1,5.136504024E-2,2.741737664E-1,1.822280765E0
2.195084944E1,1.641482115E-1,4.139048159E-1,2.593751192E0
2.197084944E1,1.525592357E-1,4.472057223E-1,3.087312937E0
2.199084944E1,-1.582490057E-1,4.034852087E-1,3.191648722E0
2.201084944E1,-6.231872439E-1,2.798635364E-1,3.140999317E0
2.203084944E1,-1.032850981E0,3.692592978E-1,3.251251698E0
2.205084944E1,-1.249202013E0,4.957607687E-1,3.571205378E0
2.207084944E1,-1.141445279E0,5.492725372E-1,3.826494694E0
2.209084944E1,-1.103083014E0,4.576078653E-1,3.760451555E0
2.211084944E1,-1.206057429E0,2.475749552E-1,3.698945999E0
2.213084944E1,-1.259028196E0,9.358455241E-2,3.884579420E0
2.215084944E1,-1.162057638E0,1.122770309E-1,4.091836929E0
2.217084944E1,-9.978221655E-1,1.731890142E-1,4.155017853E0
2.219084944E1,-7.986801267E-1,-2.684316412E-2,4.191547871E0
2.221084944E1,-5.859070420E-1,-3.631506562E-1,4.252389908E0
2.223084944E1,-5.922600031E-1,-5.527981520E-1,4.132904530E0
2.225084944E1,-9.982061386E-1,-3.000744581E-1,3.980694532E0
2.227084944E1,-1.485292673E0,1.682148278E-1,3.808448076E0
2.229084944E1,-1.860800266E0,6.547253728E-1,3.558290005E0
2.231086663E1,-1.834061742E0,8.745321035E-1,3.141086578E0
2.233284944E1,-1.378862500E0,3.562915027E-1,2.551514387E0
2.235286038E1,-8.526456952E-1,-4.968952239E-1,1.813048005E0
2.237484944E1,-5.122715831E-1,-1.148112535E0,9.333322644E-1
2.239485100E1,-2.217789888E-1,-1.049082518E0,2.642253935E-1
2.241684944E1,3.217514455E-1,-3.126757443E-1,-3.574608862E-1
2.243684944E1,8.013155460E-1,2.241700888E-1,-8.146848083E-1
2.245685100E1,1.201676607E0,3.154158890E-1,-1.072539687E0
2.247884944E1,1.469462514E0,-2.296853252E-2,-1.367797017E0
2.249884944E1,1.465552926E0,-3.218038082E-1,-1.737894177E0
2.251884944E1,1.208832502E0,-4.356341660E-1,-1.911327481E0
2.253884944E1,9.313600659E-1,-6.252292991E-1,-1.638305664E0
2.255885100E1,7.064394951E-1,-8.083841205E-1,-1.487038016E0
2.257885100E1,3.343352675E-1,-4.797037542E-1,-1.731296778E0
2.260084944E1,8.761553094E-3,-8.901178837E-3,-1.892320871E0
2.262084944E1,2.393544465E-1,1.806764901E-1,-1.619997144E0
2.264084944E1,7.282386422E-1,-5.942846090E-2,-1.436685205E0
2.266084944E1,9.933890700E-1,-4.073598385E-1,-1.864290833E0
2.268085100E1,7.480131984E-1,-4.324227870E-1,-2.682256937E0
2.270284944E1,1.940806061E-1,-3.991742432E-1,-2.830784321E0
2.272285100E1,-9.466665983E-2,-4.717799425E-1,-2.259014606E0
2.274285256E1,-1.394867152E-1,-3.167248964E-1,-1.559556365E0
2.276485725E1,-1.238311082E-1,1.938886195E-1,-1.145040751E0
2.278685100E1,-3.984935880E-1,3.599741459E-1,-7.885397673E-1
2.280884944E1,-7.031931281E-1,3.356093466E-1,-3.369183540E-1
2.282884944E1,-5.916840434E-1,3.921231329E-1,-8.700466156E-2
2.284884944E1,-3.024480939E-1,4.806287587E-1,-1.368338149E-2
2.286885100E1,8.850564808E-2,3.481931984E-1,1.232027933E-1
2.289084944E1,5.596398115E-1,9.805259854E-2,3.877074420E-1
2.291084944E1,8.910080194E-1,5.895722285E-2,5.410171747E-1
2.293084944E1,8.425402641E-1,2.492504716E-1,3.746174574E-1
2.295084944E1,4.861789048E-1,3.403217494E-1,2.567379177E-1
2.297084944E1,2.145533264E-1,4.013209939E-1,4.215668142E-1
2.299084944E1,3.068288863E-1,4.867897928E-1,7.902501822E-1
2.301084944E1,5.383468270E-1,5.295329094E-1,1.134080052E0
2.303084944E1,7.840716839E-1,4.530351162E-1,1.237263918E0
2.305084944E1,9.100320935E-1,2.679429352E-1,1.102018356E0
2.307084944E1,9.516582489E-1,-8.203047328E-4,9.829345345E-1
2.309084944E1,8.960520625E-1,-1.525068730E-1,8.796808720E-1
2.311084944E1,7.075739503E-1,-1.453335732E-1,8.099898696E-1
2.313084944E1,3.639011383E-1,-1.429773718E-1,8.425402641E-1
2.315084944E1,2.143962383E-1,-7.230898738E-2,9.906139970E-1
2.317084944E1,3.121521473E-1,2.453932911E-2,1.153488040E0
2.319084944E1,4.481481910E-1,9.677850455E-2,1.227385283E0
2.321084944E1,3.851941526E-1,6.195918657E-3,1.272240281E0
2.323084944E1,2.466499358E-1,-9.330530465E-2,1.393540740E0
2.325085100E1,3.563962504E-2,-6.405358016E-2,1.494787216E0
2.327085100E1,-1.071283072E-1,3.511602432E-2,1.510687232E0
2.329285256E1,-1.466425657E-1,-1.814269722E-1,1.443108082E0
2.331285412E1,-9.309586138E-2,-3.664842248E-1,1.360501647E0
2.333484944E1,3.236364126E-1,-4.997924864E-1,1.272816300E0
2.335484944E1,7.924842238E-1,-6.170436740E-1,1.149595976E0
2.337484944E1,1.057198286E0,-9.128944874E-1,7.149567008E-1
2.339485100E1,1.095002174E0,-1.384238124E0,8.272860199E-3
2.341685100E1,1.096031904E0,-1.714960575E0,-5.388703942E-1
2.343884944E1,1.019376993E0,-1.308979511E0,-6.215466261E-1
2.345884944E1,6.262590289E-1,-5.251346827E-1,-6.258227229E-1
2.347884944E1,3.469365537E-1,8.239699155E-2,-5.430940986E-1
2.349884944E1,4.896870255E-1,2.503500283E-1,-2.738770545E-1
2.351884944E1,5.593780279E-1,9.358455241E-2,5.976007506E-2
2.353884944E1,4.227187335E-1,1.745329238E-3,2.667212188E-1
2.355885100E1,2.604554892E-1,-2.862340072E-3,2.978578806E-1
2.357885100E1,1.303761005E-1,-5.789257213E-2,2.860420048E-1
2.360084944E1,-1.490511149E-1,-3.392919898E-2,1.902757883E-1
2.362084944E1,-4.781154990E-1,1.906248629E-1,-3.515093029E-2
2.364084944E1,-7.074168324E-1,4.457919896E-1,-1.319468915E-1
2.366084944E1,-6.769434214E-1,5.677381754E-1,1.131671518E-1
2.368085100E1,-3.913377225E-1,4.811349213E-1,5.059185624E-1
2.370284944E1,-5.750859901E-2,3.252770007E-1,8.223991394E-1
2.372285100E1,2.055823356E-1,2.408205271E-1,9.874723554E-1
2.374285256E1,3.209137022E-1,3.130597174E-1,1.221468687E0
2.376485256E1,2.807536721E-1,5.020614266E-1,1.493006945E0
2.378684944E1,-1.947787404E-2,5.269672871E-1,1.434084654E0
2.380684944E1,-2.710845470E-1,2.501929402E-1,1.066605568E0
2.382684944E1,-3.691196740E-1,-6.007423252E-2,5.239827633E-1
2.384685100E1,-2.929709554E-1,-9.934414178E-2,1.856332123E-1
2.386885100E1,-5.780355930E-1,7.627088577E-2,2.140995413E-1
2.388885100E1,-1.054074168E0,1.399928629E-1,4.045498669E-1
2.391084944E1,-8.198858500E-1,1.846383810E-1,4.707327485E-1
2.393084944E1,2.305230796E-1,-6.572909653E-2,5.026722550E-1
2.395084944E1,1.424677372E0,-4.915545285E-1,6.034999490E-1
2.397085100E1,1.909407616E0,-5.793794990E-1,5.512273312E-1
2.399285412E1,1.502763391E0,7.993607782E-3,-1.216494478E-2
2.401285569E1,3.876725435E-1,7.530921102E-1,-8.047538400E-1
2.403485100E1,-5.201430321E-1,1.335805178E0,-1.101459861E0
2.405685100E1,-5.035449266E-1,1.375668526E0,-5.922076702E-1
2.407685100E1,1.574985087E-1,9.939824343E-1,7.066838443E-2
2.409884944E1,6.328040361E-1,6.734178066E-1,3.387509584E-1
2.411884944E1,4.587423503E-1,6.107081771E-1,4.200134873E-1
2.413884944E1,-2.671400905E-1,4.024380147E-1,5.292885303E-1
2.415884944E1,-8.890706897E-1,2.297551483E-1,5.692391396E-1
2.417884944E1,-1.134027719E0,1.921607554E-1,5.133013129E-1
2.419884944E1,-1.190454125E0,3.357140720E-1,4.408876300E-1
2.421884944E1,-1.199233174E0,4.515341222E-1,5.388180614E-1
2.423884944E1,-1.276621103E0,3.735528290E-1,7.793593407E-1
2.425884944E1,-1.213492513E0,2.044827789E-1,8.577420712E-1
2.427884944E1,-8.115431666E-1,1.643052995E-1,5.645616651E-1
2.429885100E1,-2.556034625E-1,1.883210242E-1,4.365243018E-1
2.432084944E1,1.283166111E-1,-1.664346009E-1,7.431437373E-1
2.434084944E1,2.773502767E-1,-6.592283249E-1,7.733728290E-1
2.436084944E1,5.150990486E-1,-8.182103634E-1,3.603581190E-1
2.438084944E1,7.306646109E-1,-7.730063200E-1,-4.368210137E-1
2.440084944E1,5.248205066E-1,-8.869239688E-1,-1.535575628E0
2.442084944E1,-1.001469940E-1,-8.195368052E-1,-2.527917385E0
2.444084944E1,-9.077806473E-1,-3.814417124E-1,-2.727338791E0
2.446084944E1,-1.289728522E0,3.797836602E-2,-1.780567408E0
2.448084944E1,-9.243787527E-1,5.460611582E-1,-4.917639792E-1
2.450084944E1,-2.773677111E-1,8.711810708E-1,2.757271230E-1
2.452084944E1,1.347917765E-1,7.522543669E-1,6.275331378E-1
2.454085100E1,4.400498569E-1,4.794419408E-1,6.114586592E-1
2.456284944E1,4.092273414E-1,3.654893935E-1,3.311238587E-1
2.458285725E1,-2.397907823E-1,4.042182490E-2,4.502949417E-1
2.460484944E1,-9.211847782E-1,-1.768716723E-1,5.848074555E-1
2.462485100E1,-1.198569894E0,-4.982565939E-1,6.116506457E-1
2.464485100E1,-1.520495892E0,-7.892553210E-1,5.065294504E-1
2.466485725E1,-1.946984529E0,-6.316695809E-1,7.880161703E-2
2.468685100E1,-2.002555847E0,-4.203974605E-1,-7.014477998E-2
2.470884944E1,-1.158479691E0,-6.598042846E-1,6.146875024E-1
2.472884944E1,-2.128778100E-1,-9.041678309E-1,1.347568750E0
2.474884944E1,2.326000333E-1,-1.049431562E0,1.706722617E0
2.476885100E1,3.030589819E-1,-1.038383603E0,1.541544557E0
2.479084944E1,4.316199198E-2,-5.168792605E-1,9.716771245E-1
2.481085100E1,8.726646192E-3,-4.038691893E-2,6.040061116E-1
2.483284944E1,8.037590384E-1,5.155702680E-2,3.208613396E-1
2.485285100E1,1.544319630E0,-6.318091750E-1,2.186024934E-1
2.487485413E1,1.571407199E0,-7.657108307E-1,-1.887399107E-1
2.489684944E1,3.173532188E-1,4.025252759E-1,-1.248451471E0
2.491684944E1,-1.571651578E0,1.743932962E0,-2.179008722E0
2.493684944E1,-2.524636269E0,2.543939590E0,-2.163702011E0
2.495684944E1,-2.157628298E0,2.297027826E0,-1.386576772E0
2.497684944E1,-1.062521577E0,1.795716882E0,-5.775643587E-1
2.499684944E1,2.217964381E-1,1.684644103E0,-9.815731645E-2
2.501684944E1,1.134010196E0,1.644187450E0,1.911135577E-2
2.503684944E1,1.423001885E0,1.360833168E0,-9.393361956E-2
2.505685100E1,9.254782796E-1,9.105906487E-1,-1.660680771E-1
2.507885100E1,-5.489060655E-2,5.993286371E-1,-3.465176821E-1
2.510084944E1,-7.863755226E-1,6.722833514E-1,-5.667083859E-1
2.512084944E1,-9.307491779E-1,8.181405663E-1,-6.591410637E-1
2.514084944E1,-6.886545420E-1,6.317568421E-1,-4.683765471E-1
2.516084944E1,-4.333652556E-2,1.462411433E-1,-1.685289890E-1
2.518085100E1,6.454925537E-1,-3.837280869E-1,3.733259439E-2
2.520284944E1,9.109222293E-1,-7.057413459E-1,2.284635976E-2
2.522285100E1,6.851115227E-1,-8.365886807E-1,-2.632479966E-1
2.524285100E1,1.361007690E-1,-6.462430358E-1,-5.918760300E-1
2.526286194E1,-3.571118116E-1,-1.052258983E-1,-5.941973329E-1
2.528287600E1,-5.313305855E-1,2.932153046E-1,-6.265557408E-1
2.530484944E1,-1.891413331E-1,5.145579576E-1,-1.047878265E0
2.532485100E1,6.196093559E-1,1.474977732E-1,-1.478049517E0
2.534684944E1,1.539624691E0,-6.474996805E-1,-1.865495205E0
2.536684944E1,1.657678843E0,-1.557112932E0,-2.262836933E0
2.538684944E1,1.188778639E0,-2.140087843E0,-2.716709614E0
2.540685100E1,5.560444593E-1,-1.809208274E0,-3.103230238E0
2.542884944E1,3.396236300E-1,-5.807059407E-1,-3.174719095E0
2.544884944E1,5.821545720E-1,3.340909183E-1,-3.067259073E0
2.546884944E1,9.846274853E-1,5.742482543E-1,-2.989591837E0
2.548884944E1,1.231748700E0,3.786666393E-1,-2.986869097E0
2.550886506E1,1.333414078E0,1.123119369E-1,-3.161262512E0
2.553084944E1,1.215831280E0,-5.113814492E-3,-3.414649487E0
2.555084944E1,8.309512734E-1,-2.624451518E-1,-3.487115383E0
2.557084944E1,1.625599712E-1,-2.809456587E-1,-3.456834078E0
2.559084944E1,-3.697305620E-1,-3.137578368E-1,-3.424720049E0
2.561084944E1,-5.456248522E-1,6.745697558E-2,-3.388661385E0
2.563084944E1,-4.440641105E-1,3.410896957E-1,-3.203569174E0
2.565084944E1,-1.379159242E-1,3.036698401E-1,-2.814221144E0
2.567084944E1,3.819478452E-1,3.092723340E-2,-2.379372358E0
2.569084944E1,9.463174939E-1,-1.964717060E-1,-1.926581740E0
2.571084944E1,1.414449692E0,-2.738246918E-1,-1.495921731E0
2.573084944E1,1.796990991E0,-3.195523322E-1,-8.721235991E-1
2.575084944E1,1.912060499E0,-3.584382534E-1,-2.178519964E-1
2.577084944E1,1.657137752E0,-3.644596636E-1,3.263940215E-1
2.579084944E1,1.140014172E0,-3.756821156E-1,7.316594720E-1
2.581085100E1,4.944517612E-1,-2.432116270E-1,1.004402041E0
2.583285725E1,-1.567480266E-1,-1.476548519E-2,1.415985584E0
2.585484944E1,-7.838971615E-1,3.026226461E-1,1.905463219E0
2.587484944E1,-1.440961242E0,4.542219341E-1,2.178607225E0
2.589485100E1,-2.256099939E0,7.376110554E-1,2.207963705E0
2.591685100E1,-2.741441011E0,8.835904002E-1,2.974250555E0
2.593884944E1,-2.357643127E0,7.301235795E-1,4.336898804E0
2.595884944E1,-1.528786302E0,4.838401675E-1,4.596586227E0
2.597884944E1,-6.631727815E-1,3.575656116E-1,3.592899799E0
2.599884944E1,-1.676214188E-1,1.145110503E-1,2.635429621E0
2.601884944E1,9.634217620E-2,-2.249205858E-1,2.431592703E0
2.603884944E1,3.435855210E-1,-4.215668142E-1,2.454421520E0
2.605884944E1,4.536808729E-1,-2.505943775E-1,2.399653196E0
2.607885100E1,2.764601409E-1,-1.850049011E-2,2.451506853E0
2.609885100E1,1.308473349E-1,1.152789965E-1,2.721806049E0
2.612084944E1,1.916546077E-1,1.815142483E-1,2.961719036E0
2.614084944E1,4.572413564E-1,2.995508611E-1,2.997812510E0
2.616084944E1,6.708173156E-1,5.028817058E-1,2.816088676E0
2.618084944E1,4.520402849E-1,6.407103539E-1,2.561672211E0
2.620084944E1,-1.928937882E-1,6.332927346E-1,2.398536205E0
2.622084944E1,-1.013879180E0,2.297551483E-1,2.410561562E0
2.624084944E1,-1.313464999E0,-1.668011099E-1,2.333627462E0
2.626084944E1,-7.579092383E-1,-2.276956588E-1,1.863365889E0
2.628085100E1,2.687632442E-1,-4.192979038E-1,1.208483458E0
2.630284944E1,4.253192842E-1,-1.134917736E0,2.314830124E-1
2.632285100E1,-8.281587064E-2,-1.409440637E0,-4.488463104E-1
2.634285725E1,-1.974141896E-1,-8.344244361E-1,-5.577024817E-1
2.636485569E1,3.781604767E-1,2.081130594E-1,-1.447750628E-1
2.638684944E1,7.437196970E-1,7.382917404E-1,1.371828765E-1
2.640684944E1,6.831393242E-1,7.217808962E-1,-1.086641997E-1
2.642685100E1,4.527035058E-1,4.459316134E-1,-2.633527219E-1
2.644884944E1,5.220105052E-1,3.086614907E-1,-8.435176313E-2
2.646885100E1,5.441063643E-1,4.896171987E-1,9.965830296E-2
2.649084944E1,2.073102146E-1,7.237182260E-1,2.410823256E-1
2.651084944E1,-2.856405973E-1,6.858620048E-1,3.047519326E-1
2.653084944E1,-5.064596534E-1,4.797211885E-1,3.961373866E-1
2.655084944E1,-2.762157917E-1,5.416803956E-1,3.208089769E-1
2.657084944E1,-2.583087385E-1,7.696902156E-1,-1.275835652E-2
2.659084944E1,-5.427799225E-1,8.144753575E-1,5.518731102E-2
2.661084944E1,-1.224453211E0,5.274210572E-1,1.813222617E-1
2.663084944E1,-2.158954859E0,4.818330407E-1,-2.522698939E-1
2.665084944E1,-2.610262156E0,7.267027497E-1,-6.824237108E-1
2.667084944E1,-2.053746462E0,9.097005129E-1,-1.820378378E-2
2.669084944E1,-6.793345213E-1,6.924244761E-1,1.319922686E0
2.671084944E1,-3.005456924E-2,3.770260215E-1,1.830937624E0
2.673084944E1,1.496794373E-1,3.347017765E-1,1.445254803E0
2.675085100E1,4.216191769E-1,9.789551795E-2,3.408104479E-1
2.677285413E1,8.502022624E-1,8.203047328E-4,-7.426375747E-1
2.679484944E1,1.545314550E0,7.408049703E-1,-7.502821088E-1
2.681485100E1,1.638497591E0,1.357098222E0,-6.717597842E-1
2.683485100E1,1.132421970E0,1.571372271E0,-8.064119220E-1
2.685485100E1,5.258851647E-1,1.142667055E0,-7.233691812E-1
2.687684944E1,4.383219779E-1,5.955761671E-1,-6.055070758E-1
2.689684944E1,6.154903769E-1,4.300840199E-1,-5.893104076E-1
2.691684944E1,3.859970272E-1,5.670574903E-1,-6.931574941E-1
2.693684944E1,-3.044901490E-1,6.121916771E-1,-6.052452922E-1
2.695685100E1,-1.117551804E0,4.881860316E-1,-5.273861289E-1
2.697884944E1,-1.477054715E0,4.509581625E-1,-5.364792943E-1
2.699884944E1,-1.135528684E0,4.044800401E-1,-4.362799525E-1
2.701884944E1,-5.273686647E-1,1.377239376E-1,-1.692969352E-1
2.703884944E1,-3.340560198E-1,-2.050412744E-1,1.846558414E-2
2.705884944E1,-3.968355060E-1,-3.869569600E-1,1.198866665E-1
2.707884944E1,-4.186346829E-1,-4.216366410E-1,3.544763625E-1
2.709885100E1,-3.059387505E-1,-2.742086649E-1,6.745173931E-1
2.711885100E1,-3.399901465E-2,8.199556917E-2,8.573057055E-1
2.714084944E1,2.079559863E-1,4.764748812E-1,8.034099340E-1
2.716084944E1,3.698527217E-1,6.129072905E-1,3.867649734E-1
2.718084944E1,4.533143640E-1,3.073350191E-1,-2.560921609E-1
2.720084944E1,6.043028235E-1,-5.928534269E-1,-1.028662205E0
2.722084944E1,6.884276867E-1,-1.759256959E0,-2.115356445E0
2.724084944E1,3.654719293E-1,-2.095773935E0,-3.097453356E0
2.726084944E1,-1.984090358E-1,-1.442060828E0,-3.536106825E0
2.728085100E1,-4.510454237E-1,-5.127079487E-1,-3.415120602E0
2.730284944E1,-5.580690503E-1,-1.525417715E-2,-3.084084034E0
2.732284944E1,-5.840744376E-1,1.789660603E-1,-2.943410397E0
2.734285413E1,-3.654893935E-1,2.313783020E-1,-2.988562107E0
2.736484944E1,9.140289575E-2,7.665485889E-2,-3.138346434E0
2.738485100E1,4.784820080E-1,-2.661452591E-1,-3.288409710E0
2.740684944E1,7.733553648E-1,-6.036221385E-1,-3.355587482E0
2.742685100E1,1.039238811E0,-7.551167011E-1,-3.318359613E0
2.744685100E1,1.312190890E0,-6.024702191E-1,-3.337086916E0
2.746884944E1,1.207069755E0,-1.876228862E-2,-3.424440622E0
2.748885100E1,6.287548542E-1,-7.243116386E-3,-2.747113228E0
2.750886506E1,5.794493016E-3,-4.283736050E-1,-1.241836667E0
2.753084944E1,-5.283809900E-1,-8.004952669E-1,-4.195771366E-2
2.755084944E1,-1.164710522E0,-1.014961362E0,3.180164397E-1
2.757084944E1,-1.680821896E0,-8.595048189E-1,3.879692256E-1
2.759084944E1,-1.779485345E0,-4.093844295E-1,5.654343367E-1
2.761084944E1,-1.438325882E0,-2.276781946E-1,1.329696536E0
2.763084944E1,-1.192286730E0,-2.057917714E-1,2.008594751E0
2.765084944E1,-1.255293131E0,-1.771509200E-1,2.202029467E0
2.767084944E1,-1.449687958E0,-4.002039880E-2,2.035856724E0
2.769085100E1,-1.598634362E0,-8.225736767E-2,1.757284760E0
2.771085100E1,-1.706076741E0,3.448770568E-2,1.731855273E0
2.773085100E1,-1.418394208E0,3.353475630E-1,2.093557358E0
2.775085100E1,-1.104566574E0,5.390275121E-1,2.511493921E0
2.777285100E1,-1.066518307E0,7.861312032E-1,2.574343204E0
2.779286350E1,-1.027300835E0,9.860063195E-1,2.308355093E0
2.781485100E1,-8.744623065E-1,1.077164888E0,1.988645554E0
2.783685100E1,-7.223393917E-1,1.100203156E0,1.846122026E0
2.785884944E1,-7.180110216E-1,7.996749282E-1,1.802453876E0
2.787884944E1,-8.101643920E-1,5.034053326E-1,1.709497690E0
2.789884944E1,-1.047494292E0,3.505144715E-1,1.638497591E0
2.791884944E1,-1.421605587E0,4.252145588E-1,1.914730906E0
2.793884944E1,-1.491418719E0,2.941054404E-1,2.590592146E0
2.795885100E1,-1.460770726E0,-3.698352724E-2,3.016522408E0
2.798084944E1,-1.804373741E0,-2.692344785E-1,2.604293108E0
2.800084944E1,-2.213269472E0,-7.712610066E-2,2.300780296E0
2.802084944E1,-2.309716463E0,1.981821358E-1,2.403964043E0
2.804084944E1,-2.123873711E0,4.154930711E-1,2.387400866E0
2.806084944E1,-1.653402805E0,5.376312137E-1,1.699392200E0
2.808084944E1,-8.825780749E-1,5.061804056E-1,5.028293729E-1
2.810084944E1,5.366887525E-2,5.251870155E-1,-5.691693425E-1
2.812084944E1,9.873850942E-1,-5.365142226E-2,-1.125056744E0
2.814084944E1,1.650453091E0,-1.127674699E0,-1.755958319E0
2.816084944E1,1.958695769E0,-1.801406622E0,-2.621571779E0
2.818084944E1,2.027618885E0,-1.689269304E0,-3.405294418E0
2.820084944E1,2.063781977E0,-1.135615945E0,-3.761603355E0
2.822084944E1,2.187037230E0,-3.305478990E-1,-3.887790680E0
2.824084944E1,2.131343603E0,3.804992437E-1,-4.004204273E0
2.826084944E1,1.891168952E0,6.815510988E-1,-4.143813133E0
2.828084944E1,1.723931551E0,6.373942494E-1,-4.185945511E0
2.830084944E1,1.714087844E0,3.998549283E-1,-4.253681660E0
2.832084944E1,1.801738262E0,2.467197478E-1,-4.264345646E0
2.834084944E1,1.926215172E0,1.194677874E-1,-4.279390335E0
2.836084944E1,1.921572566E0,-2.146929502E-1,-4.313598633E0
2.838085100E1,2.008245707E0,-2.417106479E-1,-4.266370296E0
2.840285725E1,2.426199675E0,-8.810421824E-2,-3.953432560E0
2.842485100E1,2.700286150E0,-2.903006077E-1,-3.481268644E0
2.844684944E1,2.505193233E0,-7.414333224E-1,-3.107820511E0
2.846684944E1,2.045211792E0,-1.055959105E0,-2.844921589E0
2.848685100E1,1.360571384E0,-9.196139574E-1,-2.511162281E0
2.850886506E1,5.693787336E-1,-5.202477574E-1,-1.853626966E0
2.853084944E1,-1.630312055E-1,7.316420227E-2,-1.053986907E0
2.855084944E1,-6.464524865E-1,3.785968125E-1,-3.819304109E-1
2.857084944E1,-1.010929585E0,5.303183198E-1,1.972571164E-1
2.859084944E1,-1.264822602E0,5.940053463E-1,6.513394117E-1
2.861084944E1,-1.463545799E0,5.190434456E-1,8.687551022E-1
2.863084944E1,-1.792627692E0,2.978578806E-1,1.101808906E0
2.865084944E1,-1.942394376E0,-9.620254487E-2,1.909355283E0
2.867084944E1,-1.677174091E0,-3.317347169E-1,3.002891302E0
2.869084944E1,-1.225413084E0,-2.220233381E-1,3.512405396E0
2.871084944E1,-9.724102020E-1,2.786243558E-1,2.978107691E0
2.873084944E1,-1.195969462E0,7.035596967E-1,2.214403868E0
2.875084944E1,-1.395565271E0,9.587268233E-1,1.842055440E0
2.877084944E1,-1.426597238E0,9.867917299E-1,1.925447226E0
2.879084944E1,-1.261227250E0,8.074940443E-1,2.118271112E0
2.881084944E1,-1.168480515E0,5.975658298E-1,2.224195242E0
2.883084944E1,-1.184764385E0,3.289247453E-1,2.199743271E0
2.885084944E1,-1.010755062E0,-5.930628628E-2,2.227877855E0
2.887084944E1,-5.993111730E-1,-4.109901190E-1,2.094761610E0
2.889084944E1,-1.853888780E-1,-7.133858800E-1,1.961837292E0
2.891084944E1,1.070584953E-1,-1.087217927E0,2.028125048E0
2.893084944E1,2.674717009E-1,-1.140171289E0,1.847308874E0
2.895085100E1,1.669930965E-1,-8.384561539E-1,1.674416542E0
2.897285569E1,-3.038618155E-2,-3.287153244E-1,1.744072556E0
2.899484944E1,-2.489013970E-1,-1.972222002E-3,1.736724734E0
2.901484944E1,-4.283212423E-1,8.463101834E-2,1.533865213E0
2.903485100E1,-1.467123777E-1,6.068509817E-2,1.345387101E0
2.905685100E1,4.703313112E-1,-4.791626930E-1,9.413957000E-1
2.907884944E1,7.201577425E-1,-1.231992960E0,2.796366513E-1
2.909884944E1,6.081076264E-1,-1.564338565E0,-3.329564631E-1
2.911884944E1,4.191582799E-1,-1.119157434E0,-9.259844422E-1
2.913884944E1,2.998301089E-1,-2.653773129E-1,-1.344427109E0
2.915885100E1,2.359336019E-1,5.281890035E-1,-1.668098450E0
2.917885100E1,2.195275128E-1,9.260542393E-1,-1.808195949E0
2.919885100E1,3.930132389E-1,8.644964695E-1,-1.966305375E0
2.922084944E1,7.141014338E-1,6.602057219E-1,-2.288824797E0
2.924084944E1,1.041507721E0,3.950901926E-1,-2.577170610E0
2.926084944E1,1.275120139E0,1.484402567E-1,-2.748457193E0
2.928084944E1,1.384796619E0,1.349139493E-2,-2.700076818E0
2.930085100E1,1.410295844E0,1.293289009E-2,-2.546505213E0
2.932085100E1,1.308403492E0,1.949532703E-2,-2.431540251E0
2.934284944E1,1.146035552E0,-6.585127115E-2,-2.239379644E0
2.936285100E1,9.046913981E-1,-1.401499361E-1,-1.961627841E0
2.938485100E1,5.186769366E-1,-2.475924045E-1,-1.641709089E0
2.940684944E1,7.304202765E-2,-2.900911868E-1,-1.351181507E0
2.942685569E1,-5.457644463E-1,-1.951627135E-1,-1.022605896E0
2.944884944E1,-1.277406454E0,-6.567674130E-2,-3.517012894E-1
2.946884944E1,-1.838320374E0,-2.249729447E-2,4.286703169E-1
2.948884944E1,-2.194646835E0,-6.058037654E-2,1.278261662E0
2.950886506E1,-2.552282333E0,-2.783800103E-2,1.978958964E0
2.953084944E1,-2.747951031E0,-1.653001308E-1,2.480339766E0
2.955085100E1,-2.565075397E0,-2.170840502E-1,2.395045519E0
2.957285725E1,-2.132827282E0,-1.105666086E-1,2.016885042E0
2.959485100E1,-1.571651578E0,-1.356120780E-2,2.131273985E0
2.961485100E1,-9.011658430E-1,-1.413716702E-3,2.805860996E0
2.963684944E1,-3.395189047E-1,2.747497261E-1,3.311168909E0
2.965684944E1,-1.266410947E-1,5.204572082E-1,3.193062305E0
2.967684944E1,4.810127243E-2,5.262516737E-1,2.825181961E0
2.969684944E1,2.985909283E-1,3.318918049E-1,2.610611200E0
2.971684944E1,2.579771280E-1,2.122844011E-1,2.529191494E0
2.973684944E1,-7.649777830E-2,1.865233332E-1,1.992450356E0
2.975685100E1,-7.020063400E-1,5.061454722E-4,1.168759704E0
2.977685100E1,-1.248660922E0,-1.584758982E-2,9.158615470E-1
2.979884944E1,-1.254821897E0,1.445830762E-1,1.050112247E0
2.981884944E1,-1.008102179E0,1.954594254E-1,1.106852889E0
2.983884944E1,-7.947007418E-1,8.679522574E-2,7.957479358E-1
2.985885100E1,-6.504842043E-1,-3.256784379E-2,4.692143202E-1
2.987885100E1,-5.819800496E-1,-1.452637464E-1,2.378185689E-1
2.989885100E1,-6.106034517E-1,-2.321985960E-1,1.965240762E-2
2.991885100E1,-5.814215541E-1,-1.624552459E-1,-1.461189687E-1
2.993885100E1,-3.932226896E-1,3.989822790E-2,-3.332531750E-1
2.995885100E1,-1.551074088E-1,1.941678822E-1,-5.294979811E-1
2.998084944E1,1.545488983E-1,2.392148226E-1,-7.507010102E-1
3.000084944E1,6.595250368E-1,-4.907865822E-2,-9.094910622E-1
3.002084944E1,1.215639234E0,-4.883256555E-1,-1.184764385E0
3.004085100E1,1.545454144E0,-8.659276366E-1,-1.591984630E0
3.006284944E1,1.671466947E0,-9.955707192E-1,-1.858217120E0
3.008284944E1,1.757232428E0,-9.714851379E-1,-1.913666248E0
3.010285256E1,1.865826726E0,-5.108054876E-1,-2.074952126E0
3.012484944E1,1.956479192E0,-3.141592722E-3,-2.360487938E0
3.014484944E1,2.045333862E0,1.728574038E-1,-2.608377218E0
3.016484944E1,2.261423111E0,7.380997390E-2,-2.821115255E0
3.018485100E1,2.525526285E0,-1.692794859E-1,-3.008615971E0
3.020684944E1,2.734459639E0,-4.581314623E-1,-3.173567057E0
3.022684944E1,2.762035847E0,-7.673514485E-1,-3.249593735E0
3.024684944E1,2.529488325E0,-9.749932885E-1,-3.307363987E0
3.026685100E1,2.171748161E0,-1.007840395E0,-3.310470581E0
3.028685100E1,1.744020224E0,-8.487361670E-1,-3.107768059E0
3.030884944E1,1.302713752E0,-5.730439425E-1,-2.608115196E0
3.032884944E1,9.955532551E-1,-3.866253197E-1,-2.011125326E0
3.034884944E1,7.781026959E-1,-2.880316973E-1,-1.484105825E0
3.036885100E1,5.264785886E-1,-2.143613398E-1,-1.064650893E0
3.038885100E1,2.569648325E-1,-2.168920636E-1,-5.108578801E-1
3.041084944E1,-2.225294709E-2,-2.223549485E-1,3.080331683E-1
3.043084944E1,-3.576877713E-1,-1.977109015E-1,1.095194101E0
3.045084944E1,-7.460758686E-1,6.408849359E-2,1.656910896E0
3.047085100E1,-1.074302554E0,3.011565506E-1,1.956165075E0
3.049285412E1,-1.301875949E0,4.755673110E-1,1.997546792E0
3.051485100E1,-1.435079575E0,6.163281202E-1,2.100887775E0
3.053485100E1,-1.364533305E0,5.868844390E-1,2.497653484E0
3.055485100E1,-1.165478468E0,4.006577730E-1,3.104050636E0
3.057684944E1,-1.018469453E0,3.480535448E-1,3.426238298E0
3.059684944E1,-9.297369123E-1,4.133463204E-1,3.246923208E0
3.061684944E1,-8.221024275E-1,5.224992037E-1,3.004357338E0
3.063684944E1,-6.735051274E-1,5.334947705E-1,2.842757463E0
3.065685100E1,-4.013559222E-1,5.014505386E-1,2.899986744E0
3.067884944E1,-1.130275205E-1,3.259925842E-1,2.910458803E0
3.069884944E1,6.257005036E-2,2.620437443E-1,2.686759949E0
3.071884944E1,1.280024499E-1,3.060260415E-1,2.477355242E0
3.073884944E1,-1.752310619E-2,2.155481577E-1,2.475208521E0
3.075884944E1,-3.644421995E-1,9.403833747E-2,2.525997639E0
3.077884944E1,-6.258401871E-1,7.836528122E-2,2.409426928E0
3.079884944E1,-8.594699502E-1,2.389530241E-1,2.169653654E0
3.081885100E1,-1.178027391E0,3.369183540E-1,1.880225778E0
3.084084944E1,-1.752432704E0,4.692492187E-1,1.492116928E0
3.086084944E1,-2.062804699E0,7.715228200E-1,1.048035264E0
3.088084944E1,-2.003149271E0,9.558818936E-1,6.814812422E-1
3.090085100E1,-1.477491021E0,1.090185046E0,5.129697323E-1
3.092284944E1,-3.738320768E-1,5.267927051E-1,2.223723978E-1
3.094286038E1,7.056715488E-1,-6.024527550E-1,-4.117580652E-1
3.096485569E1,1.350657940E0,-1.587324619E0,-1.372509480E0
3.098685100E1,1.317217469E0,-1.752764344E0,-2.093243122E0
3.100886506E1,1.052608013E0,-1.149142265E0,-2.450302601E0
3.103084944E1,8.359603286E-1,-3.027971685E-1,-2.710129738E0
3.105084944E1,7.079404593E-1,3.497465253E-1,-2.949955463E0
3.107084944E1,5.766742229E-1,5.348212123E-1,-3.013206244E0
3.109084944E1,6.810100079E-1,3.764849603E-1,-3.089267731E0
3.111084944E1,8.646884561E-1,1.184380427E-1,-3.154001951E0
3.113084944E1,1.009638071E0,-3.632030264E-2,-3.210882187E0
3.115084944E1,1.018242478E0,-1.261698455E-1,-3.278217077E0
3.117084944E1,9.213069677E-1,-1.953372508E-1,-3.216013432E0
3.119084944E1,8.527853489E-1,-3.447723389E-1,-3.056612492E0
3.121085100E1,8.007395864E-1,-3.968529701E-1,-2.837207317E0
3.123085100E1,6.512870789E-1,-2.237163037E-1,-2.680494070E0
3.125286038E1,2.756921947E-1,-1.850398034E-1,-2.451140404E0
3.127485256E1,-1.686337143E-1,-1.331511736E-1,-1.906650066E0
3.129685100E1,-5.035100579E-1,1.419650763E-1,-1.257858753E0
3.131885100E1,-8.312130570E-1,5.158146024E-1,-6.415655613E-1
3.134084944E1,-1.233110070E0,4.451287687E-1,2.499660552E-1
3.136084944E1,-1.435812593E0,1.642005742E-1,1.084338188E0
3.138084944E1,-1.332628727E0,-3.972369432E-2,1.637572646E0
3.140084944E1,-9.765815139E-1,-1.727526933E-1,1.911920905E0
3.142084944E1,-5.650852323E-1,-8.440412581E-2,2.029730558E0
3.144084944E1,-1.737824380E-1,5.515240598E-3,2.253324747E0
3.146084944E1,1.769065708E-1,1.453335732E-1,2.515892029E0
3.148084944E1,2.795144916E-1,4.143586159E-1,2.583506107E0
3.150084944E1,4.628613219E-2,6.348984241E-1,2.386947155E0
3.152084944E1,-3.243868947E-1,7.866547704E-1,2.178048611E0
3.154084944E1,-6.398726106E-1,8.041430116E-1,2.090747356E0
3.156084944E1,-7.228630185E-1,7.384662628E-1,2.063293219E0
3.158085256E1,-6.373244524E-1,6.884625554E-1,2.130662918E0
3.160285100E1,-6.155776381E-1,6.047565937E-1,2.146772385E0
3.162285256E1,-9.186016917E-1,5.400397778E-1,2.041633844E0
3.164285725E1,-1.399527192E0,5.242096186E-1,1.900488973E0
3.166484944E1,-1.648079515E0,4.710992575E-1,1.915568709E0
3.168485100E1,-1.452777147E0,3.934670389E-1,1.930177093E0
3.170684944E1,-1.260092854E0,2.383072525E-1,1.733775139E0
3.172685100E1,-1.307740331E0,9.862855822E-2,1.298612237E0
3.174884944E1,-1.441938639E0,4.792674258E-2,8.696801066E-1
3.176884944E1,-1.350326300E0,1.355073601E-1,7.087607384E-1
3.178884944E1,-1.124376059E0,2.033657581E-1,6.451958418E-1
3.180885100E1,-1.014856577E0,-3.900810704E-2,3.512998819E-1
3.182885100E1,-6.735051274E-1,-4.048291147E-1,-2.298598550E-2
3.184885100E1,4.169417024E-1,-1.287267566E0,-2.827607989E-1
3.186885100E1,8.431860209E-1,-2.359528065E0,-1.015223145E0
3.189084944E1,-3.237585723E-2,-2.130662918E0,-2.090817213E0
3.191084944E1,-5.775119662E-1,-7.862707973E-1,-2.740376472E0
3.193084944E1,-2.943497896E-1,3.693291247E-1,-2.803853989E0
3.195084944E1,6.255958080E-1,1.060863495E0,-2.440476418E0
3.197085100E1,1.729272246E0,1.147711039E0,-2.156336784E0
3.199284944E1,2.585129261E0,7.003482580E-1,-2.340591192E0
3.201285413E1,2.783503532E0,2.686759830E-1,-2.748282671E0
3.203485100E1,2.432832003E0,-3.427826762E-1,-2.836718559E0
3.205685100E1,1.729516506E0,-7.843335271E-1,-2.707633972E0
3.207685100E1,1.172826290E0,-6.641675830E-1,-2.962172747E0
3.209884944E1,8.443554044E-1,-4.756022096E-1,-3.684494734E0
3.211884944E1,7.480481267E-1,-5.726599693E-1,-4.174809933E0
3.213884944E1,8.050680161E-1,-5.103167892E-1,-4.149956703E0
3.215884944E1,1.076623797E0,-2.587974072E-1,-3.816459179E0
3.217884944E1,1.499307632E0,-1.776221544E-1,-3.108064890E0
3.219885100E1,1.702027678E0,-1.624726951E-1,-2.113873005E0
3.222084944E1,1.719882369E0,-5.035274848E-2,-1.251191616E0
3.224084944E1,1.949183702E0,-1.953023374E-1,-6.747617126E-1
3.226084944E1,2.359091759E0,-4.084070325E-1,-3.338640332E-1
3.228084944E1,2.434420109E0,-4.972093999E-1,3.344050795E-2
3.230084944E1,1.997878432E0,-3.459242582E-1,5.000368357E-1
3.232084944E1,1.291299343E0,-1.660680771E-1,9.238201976E-1
3.234084944E1,5.174202919E-1,9.410814941E-2,1.247823119E0
3.236084944E1,-7.651523501E-2,4.031012356E-1,1.454155922E0
3.238084944E1,-5.490980148E-1,7.623772621E-1,1.660069942E0
3.240085100E1,-9.612924457E-1,9.956405163E-1,1.838198185E0
3.242284944E1,-1.277214527E0,1.023827553E0,2.117189169E0
3.244285569E1,-1.392249107E0,1.033374548E0,2.339142561E0
3.246485100E1,-1.367517829E0,1.006513953E0,2.485104561E0
3.248685100E1,-1.187417269E0,9.500874281E-1,2.567955256E0
3.250886506E1,-8.406029344E-1,8.366934061E-1,2.685747623E0
3.253084944E1,-5.860815644E-1,6.719343066E-1,2.752698421E0
3.255084944E1,-4.987976551E-1,3.205122650E-1,2.820504427E0
3.257084944E1,-4.593008459E-1,-5.913175642E-2,2.975402355E0
3.259084944E1,-3.517711163E-1,-2.863038182E-1,3.292162180E0
3.261084944E1,-3.012438416E-1,-2.554463744E-1,3.458439827E0
3.263084944E1,-4.795466661E-1,-1.267283559E-1,3.371068478E0
3.265084944E1,-9.648180008E-1,2.399827726E-2,3.181246519E0
3.267084944E1,-1.569696784E0,1.962971836E-1,3.075863600E0
3.269084944E1,-1.932969570E0,4.806636870E-1,2.855655432E0
3.271084944E1,-2.042628527E0,7.000166774E-1,2.579299927E0
3.273084944E1,-1.883978248E0,9.302954078E-1,2.338095427E0
3.275084944E1,-1.345596433E0,7.543662190E-1,2.080467463E0
3.277084944E1,-7.291113138E-1,8.340928704E-2,1.566241026E0
3.279084944E1,-3.110176623E-1,-8.401491642E-1,7.849094868E-1
3.281084944E1,-8.045967668E-2,-1.487666249E0,1.322959550E-2
3.283084944E1,2.707703710E-1,-1.442898631E0,-5.099852085E-1
3.285084944E1,6.953740716E-1,-9.135227799E-1,-1.015746713E0
3.287084944E1,9.087056518E-1,-2.650108039E-1,-1.524772048E0
3.289084944E1,1.133451700E0,2.372600585E-1,-2.031196833E0
3.291084944E1,1.442549586E0,3.357664347E-1,-2.383823156E0
3.293084944E1,1.801214695E0,7.827802002E-2,-2.585722685E0
3.295084944E1,2.062036753E0,-3.731339276E-1,-2.694631338E0
3.297085100E1,2.212379456E0,-7.956258059E-1,-2.733220577E0
3.299284944E1,2.135602236E0,-1.005711079E0,-2.751546383E0
3.301286038E1,1.909948707E0,-1.066518307E0,-2.796052456E0
3.303485100E1,1.475309372E0,-1.058995962E0,-2.860594749E0
3.305685100E1,9.257226586E-1,-8.589637876E-1,-2.766800642E0
3.307685100E1,4.929856956E-1,-6.686879992E-1,-2.656705379E0
3.309884944E1,2.002765238E-1,-6.523517370E-1,-2.518737078E0
3.311884944E1,7.070329040E-2,-6.269571781E-1,-2.458941936E0
3.313884944E1,1.485624313E-1,-5.363745689E-1,-2.396790743E0
3.315885100E1,2.619913816E-1,-3.762231767E-1,-2.302735090E0
3.318084944E1,3.303908408E-1,-3.725230694E-1,-2.149390459E0
3.320084944E1,1.084198505E-1,-3.647214472E-1,-1.946164250E0
3.322084944E1,-1.722290963E-1,-2.322509587E-1,-1.712761402E0
3.324084944E1,-8.939576149E-2,-1.635548025E-1,-1.255903959E0
3.326085100E1,3.534989953E-1,-1.983217597E-1,-8.766439557E-1
3.328085100E1,7.712086439E-1,4.956734926E-2,-7.146250606E-1
3.330285100E1,1.040809631E0,3.900112808E-1,-4.965112507E-1
3.332285412E1,1.138862252E0,4.304679930E-1,-1.832072139E-1
3.334285412E1,1.010231495E0,2.967408895E-1,1.956514083E-2
3.336485100E1,6.938905716E-1,8.503244072E-2,-2.342406362E-1
3.338485100E1,3.369358182E-1,1.312836707E-1,-5.580864549E-1
3.340684944E1,2.764601447E-2,4.347615242E-1,-5.397081375E-1
3.342684944E1,-1.490685642E-1,6.757391095E-1,-3.981096148E-1
3.344684944E1,-2.518684566E-1,7.275928855E-1,-2.629862130E-1
3.346685100E1,-3.311064243E-1,6.016324162E-1,-1.640085876E-1
3.348884944E1,-3.805690408E-1,3.983190358E-1,-6.812020391E-2
3.350886506E1,-3.566056788E-1,2.342929989E-1,1.952325255E-1
3.353085100E1,-3.316125572E-1,2.035926580E-1,6.111270189E-1
3.355085100E1,-4.057017863E-1,2.203129083E-1,9.701412320E-1
3.357284944E1,-6.687054634E-1,2.522524297E-1,1.249341607E0
3.359285100E1,-1.042328119E0,2.693392038E-1,1.483704448E0
3.361485100E1,-1.450874805E0,3.167074323E-1,1.827377200E0
3.363685100E1,-1.832002282E0,2.623055279E-1,2.208068371E0
3.365685100E1,-2.121465206E0,1.399753988E-1,2.555999756E0
3.367884944E1,-2.292804241E0,4.783947393E-2,2.949484348E0
3.369884944E1,-2.114256859E0,-9.545205534E-2,3.277449131E0
3.371884944E1,-1.771334648E0,-3.234444261E-1,3.360997915E0
3.373884944E1,-1.579592824E0,-4.861963689E-1,3.178802967E0
3.375884944E1,-1.538996458E0,-5.010665655E-1,2.864346981E0
3.377885100E1,-1.494787216E0,-2.820102870E-1,2.501615286E0
3.380084944E1,-1.245624065E0,2.327920198E-1,2.018193960E0
3.382085100E1,-9.011135101E-1,7.148170471E-1,1.482901573E0
3.384285256E1,-6.180909276E-1,9.619033337E-1,1.013634920E0
3.386484944E1,-3.676710725E-1,8.574976921E-1,6.727895141E-1
3.388485100E1,-1.701696068E-1,5.854881406E-1,3.990346193E-1
3.390684944E1,-3.700098023E-2,2.340660989E-1,2.363175750E-1
3.392685100E1,-1.038470864E-2,-8.609709144E-2,1.772032827E-1
3.394884944E1,-2.466499358E-1,-2.178519964E-1,4.293509945E-2
3.396884944E1,-6.964561939E-1,-6.000442058E-2,-1.175479218E-1
3.398884944E1,-1.198674679E0,2.264913768E-1,-1.992816925E-1
3.400886506E1,-1.525190830E0,4.771555662E-1,-1.507789940E-1
3.403084944E1,-1.524737120E0,6.343399286E-1,-1.120501384E-1
3.405084944E1,-1.341180801E0,6.076887250E-1,-1.309171468E-1
3.407084944E1,-1.124009490E0,5.189213157E-1,-1.208640486E-1
3.409084944E1,-1.022361517E0,4.849746227E-1,-4.136430472E-2
3.411084944E1,-1.115020990E0,4.633849263E-1,8.721410483E-2
3.413084944E1,-1.443614125E0,5.943369865E-1,1.620189101E-1
3.415084944E1,-1.827412128E0,8.067958951E-1,3.431666493E-1
3.417084944E1,-1.830309272E0,1.065052271E0,6.216164827E-1
3.419085100E1,-1.418673396E0,1.416247368E0,7.783994079E-1
3.421285256E1,-6.524564028E-1,1.756743670E0,7.960097790E-1
3.423285256E1,3.799581900E-2,1.670035720E0,8.363792300E-1
3.425484944E1,3.677757680E-1,1.197941661E0,7.606145144E-1
3.427484944E1,7.831292599E-2,9.168563485E-1,5.240350962E-1
3.429484944E1,-4.822170138E-1,8.172852993E-1,3.445978165E-1
3.431485100E1,-6.933669448E-1,9.844180346E-1,3.344923556E-1
3.433485100E1,-6.163455844E-1,1.164745450E0,3.822794557E-1
3.435485100E1,-4.747121036E-1,1.148531318E0,4.722861052E-1
3.437684944E1,-3.255213499E-1,9.933366776E-1,5.517334938E-1
3.439684944E1,-2.007128596E-1,6.900333762E-1,6.848497391E-1
3.441684944E1,-4.319689795E-2,3.075793684E-1,8.075115085E-1
3.443684944E1,8.993681520E-2,1.117010694E-2,8.528900146E-1
3.445685100E1,2.226865590E-1,-1.308822334E-1,8.227831125E-1
3.447885100E1,2.942101657E-1,-1.002342552E-1,7.722733021E-1
3.450084944E1,2.362826765E-1,-4.829325899E-2,7.657108307E-1
3.452084944E1,1.305506229E-1,1.064650808E-2,7.709642649E-1
3.454084944E1,1.139525473E-1,-2.459168993E-2,7.662519217E-1
3.456084944E1,2.486395985E-1,-1.471661627E-1,7.351152301E-1
3.458084944E1,3.592411280E-1,-2.724633515E-1,6.916739941E-1
3.460084944E1,4.579569399E-1,-5.457993746E-1,6.506761909E-1
3.462084944E1,3.607071936E-1,-1.055348277E0,5.077686310E-1
3.464084944E1,4.290019348E-2,-1.211275935E0,3.501653969E-1
3.466084944E1,-5.880014226E-2,-7.502123117E-1,3.243868947E-1
3.468084944E1,6.597344577E-2,-4.640306830E-1,2.345897108E-1
3.470084944E1,3.437600434E-1,-4.747295678E-1,1.518436475E-3
3.472084944E1,5.821545720E-1,-1.128233194E0,-3.533244431E-1
3.474084944E1,2.847330272E-1,-1.645094991E0,-6.874852180E-1
3.476085100E1,-2.053903490E-1,-1.513217926E0,-9.807528853E-1
3.478285725E1,-1.034631208E-1,-6.475520730E-1,-8.878489733E-1
3.480484944E1,7.435975075E-1,8.669050038E-2,-5.619087219E-1
3.482485100E1,1.270076036E0,2.996381223E-1,-3.900287151E-1
3.484685100E1,1.265433550E0,3.102148175E-1,-3.291341960E-1
3.486685100E1,1.022501111E0,2.457423508E-2,-1.470614374E-1
3.488685100E1,7.324274182E-1,-4.164355621E-2,4.946263134E-2
3.490884944E1,3.530451953E-1,2.889741659E-1,1.133940443E-1
3.492884944E1,-1.658062823E-2,4.417079389E-1,4.663170576E-1
3.494884944E1,-8.489281684E-2,3.014881611E-1,9.260717034E-1
3.496884944E1,4.358087108E-2,6.384414434E-2,9.029286504E-1
3.498884944E1,1.237438470E-1,1.176351868E-2,6.310237646E-1
3.500886506E1,1.320690662E-1,1.757022887E-1,5.356764793E-1
3.503084944E1,4.021238536E-2,4.696157277E-1,5.811248422E-1
3.505085100E1,-5.290092900E-2,5.729043484E-1,6.476393342E-1
3.507285100E1,-2.012364566E-2,3.858224750E-1,8.808676600E-1
3.509285256E1,1.214574650E-1,2.617993858E-3,1.292992234E0
3.511285413E1,3.348239660E-1,-1.801354289E-1,1.588040233E0
3.513484944E1,2.477843910E-1,-2.612583339E-1,1.624552488E0
3.515485569E1,-7.658504695E-2,2.654645778E-2,1.439547539E0
3.517684944E1,-4.173431396E-1,4.262093902E-1,1.198186040E0
3.519684944E1,-6.152459979E-1,5.828527212E-1,9.777683616E-1
3.521684944E1,-8.191179037E-1,7.293556333E-1,6.365913749E-1
3.523684944E1,-8.519300818E-1,6.825982928E-1,1.955816001E-1
3.525684944E1,-5.277875662E-1,4.172907770E-1,-4.941899776E-1
3.527684944E1,3.401646763E-2,1.637293398E-1,-1.112158656E0
3.529684944E1,6.359106898E-1,6.482152641E-2,-1.223545671E0
3.531684944E1,1.032658935E0,9.630727023E-2,-8.367282748E-1
3.533684944E1,9.563705921E-1,2.420771681E-2,-2.529854774E-1
3.535685100E1,5.038241744E-1,-6.696828455E-2,-2.668608353E-2
3.537884944E1,5.768313259E-2,-3.834488243E-2,-1.183507740E-1
3.539884944E1,-8.014551550E-2,4.834562074E-3,-4.972442985E-2
3.541885100E1,-5.585053586E-4,-1.746550947E-1,2.086017579E-1
3.544084944E1,7.356562465E-2,-3.919660449E-1,3.871314824E-1
3.546084944E1,3.134611249E-2,-5.163556337E-1,2.645046413E-1
3.548084944E1,-9.730210900E-2,-5.171759725E-1,-4.274311289E-2
3.550084944E1,-1.742885858E-1,-6.067462564E-1,-3.188716471E-1
3.552084944E1,-1.806415766E-1,-8.287695646E-1,-5.682094097E-1
3.554084944E1,-1.365720183E-1,-1.063324332E0,-7.564955354E-1
3.556085100E1,-3.755948693E-2,-1.257282853E0,-8.617911935E-1
3.558085100E1,1.499935985E-1,-1.427592039E0,-8.495215774E-1
3.560285569E1,4.070980549E-1,-1.347551227E0,-8.330631256E-1
3.562484944E1,4.333128929E-1,-7.884175777E-1,-1.069328308E0
3.564484944E1,5.126031861E-2,-1.297477782E-1,-1.423350930E0
3.566484944E1,-2.972121239E-1,3.093072474E-1,-1.540479898E0
3.568485100E1,-4.533318281E-1,4.202229083E-1,-1.389247179E0
3.570685100E1,-1.778315902E-1,2.123891115E-1,-1.147693634E0
3.572685100E1,4.698950052E-1,-2.252870947E-1,-9.118123651E-1
3.574884944E1,1.261157513E0,-8.846550584E-1,-7.984881401E-1
3.576884944E1,1.868305087E0,-1.499918461E0,-9.516407847E-1
3.578884944E1,2.246884584E0,-2.268387079E0,-1.194450974E0
3.580885100E1,2.391834021E0,-2.613874912E0,-1.533236861E0
3.583085100E1,2.433215857E0,-2.499381304E0,-2.001177073E0
3.585284944E1,2.314358950E0,-2.022784233E0,-2.538930416E0
3.587285100E1,2.193791628E0,-1.524737120E0,-2.865516424E0
3.589484944E1,2.384486198E0,-9.680468440E-1,-2.832268000E0
3.591484944E1,2.637873173E0,-5.551019907E-1,-2.646564960E0
3.593485100E1,2.577764034E0,-4.062253833E-1,-2.447562456E0
3.595684944E1,2.365549564E0,-4.729667604E-1,-2.280831099E0
3.597684944E1,2.141170025E0,-5.030736923E-1,-2.274897099E0
3.599684944E1,1.853312731E0,-5.277701020E-1,-2.207841396E0
3.601684944E1,1.526150823E0,-6.045820713E-1,-1.985765815E0
3.603684944E1,1.082104087E0,-6.675710082E-1,-1.665009141E0
3.605685100E1,6.977128386E-1,-7.239625454E-1,-1.203701258E0
3.607685100E1,4.602782428E-1,-8.067435622E-1,-6.949377656E-1
3.609884944E1,1.451241225E-1,-8.391892314E-1,-7.407177240E-2
3.611885100E1,-2.107485086E-1,-8.740260005E-1,6.117379069E-1
3.614084944E1,-5.425356030E-1,-7.411889434E-1,1.160818458E0
3.616084944E1,-6.963514686E-1,-5.785592198E-1,1.428464770E0
3.618084944E1,-8.576373458E-1,-2.235417664E-1,1.620381117E0
3.620084944E1,-1.036795378E0,-1.373748630E-1,2.075196505E0
3.622084944E1,-9.333497286E-1,-1.941329688E-1,2.488874435E0
3.624084944E1,-4.209734201E-1,-1.334653348E-1,2.579421997E0
3.626084944E1,2.112197429E-1,-5.715953186E-2,2.530465603E0
3.628084944E1,7.059856653E-1,-6.187192351E-2,2.451000690E0
3.630084944E1,8.821417689E-1,-8.758062124E-2,2.451297522E0
3.632084944E1,6.490530372E-1,9.023351967E-2,2.208574533E0
3.634084944E1,6.883578748E-2,3.984935880E-1,1.851340532E0
3.636084944E1,-3.198664784E-1,6.849021316E-1,1.718119621E0
3.638084944E1,-4.186870456E-1,8.845852017E-1,1.746079683E0
3.640084944E1,-3.188367486E-1,1.060549259E0,1.737038970E0
3.642084944E1,-2.193529755E-1,1.121374011E0,1.665916800E0
3.644084944E1,-2.041686177E-1,1.027283311E0,1.565333486E0
3.646084944E1,-3.321361542E-1,8.604647517E-1,1.366069198E0
3.648084944E1,-3.454879224E-1,6.227509379E-1,1.323029399E0
3.650084944E1,-2.410299629E-1,3.119601607E-1,1.483739257E0
3.652084944E1,-1.619665474E-1,9.848892689E-2,1.571197748E0
3.654084944E1,-1.983392090E-1,9.871581942E-2,1.508749843E0
3.656084944E1,-4.414984882E-1,2.091951668E-1,1.285661936E0
3.658084944E1,-7.085862160E-1,3.778812289E-1,1.195672750E0
3.660084944E1,-9.334719181E-1,4.976980984E-1,1.285469890E0
3.662084944E1,-9.032427669E-1,6.498035192E-1,1.418237090E0
3.664084944E1,-5.028991699E-1,6.147572994E-1,1.591635585E0
3.666084944E1,6.750933826E-2,3.667111397E-1,1.678762436E0
3.668084944E1,7.787135243E-1,8.761553094E-3,1.418970108E0
3.670084944E1,1.504735589E0,-6.826680899E-1,4.092971683E-1
3.672084944E1,1.741594195E0,-1.443980694E0,-1.193508506E0
3.674084944E1,1.137814999E0,-1.643070459E0,-2.408781290E0
3.676084944E1,1.907470375E-1,-8.478285670E-1,-3.034516811E0
3.678084944E1,-5.275606513E-1,2.414662987E-1,-3.118048191E0
3.680085100E1,-9.742428064E-1,1.176700950E0,-2.966920137E0
3.682085100E1,-1.170976281E0,1.543342233E0,-2.535212994E0
3.684085100E1,-9.883799553E-1,1.183211088E0,-1.911659122E0
3.686285100E1,-1.538333148E-1,3.741636872E-1,-1.158200502E0
3.688286038E1,8.435350657E-1,1.340412907E-2,-8.937482238E-1
3.690485100E1,1.441083431E0,-2.114466429E-1,-6.672917008E-1
3.692685100E1,1.558578968E0,-6.073920131E-1,-1.854935884E-1
3.694884944E1,1.323151588E0,-9.221447110E-1,1.511629671E-1
3.696884944E1,8.377580643E-1,-9.969320893E-1,-3.633775562E-2
3.698884944E1,1.053131670E-1,-8.398698568E-1,-2.826735377E-1
3.700886506E1,-6.907838583E-1,-6.965434551E-1,-3.886324763E-1
3.703084944E1,-1.324757218E0,-5.056393147E-1,-3.131644130E-1
3.705084944E1,-1.661937356E0,-2.857103944E-1,-8.789478242E-2
3.707084944E1,-1.679268479E0,-1.199564785E-1,5.539151430E-1
3.709084944E1,-1.367640018E0,-3.665191471E-4,1.326136112E0
3.711084944E1,-1.150992274E0,2.365095615E-1,1.622318387E0
3.713084944E1,-1.302574158E0,2.706133127E-1,1.509587646E0
3.715084944E1,-1.180662870E0,7.019714266E-2,1.510268331E0
3.717084944E1,-3.698352575E-1,-1.036201939E-1,1.650697470E0
3.719084944E1,1.012203693E0,1.202531811E-2,1.907889247E0
3.721084944E1,1.829087615E0,4.611159861E-1,1.874954820E0
3.723084944E1,1.483686924E0,9.364738464E-1,1.597709298E0
3.725084944E1,1.566956639E-1,1.105578780E0,1.204591393E0
3.727084944E1,-1.540602088E0,1.359977961E0,4.862836301E-1
3.729085100E1,-2.378220558E0,1.659162283E0,7.773696631E-2
3.731086819E1,-1.883314967E0,1.917732835E0,3.075968325E-1
3.733285100E1,-3.246661425E-1,2.062298536E0,1.246671200E0
3.735484944E1,9.742776752E-1,1.784686446E0,1.758192301E0
3.737484944E1,1.433648348E0,1.143225551E0,1.354916573E0
3.739485100E1,1.209897161E0,3.649657965E-1,5.625720024E-1
3.741684944E1,3.000046313E-1,-2.805791199E-1,-1.403593719E-1
3.743684944E1,-4.885002077E-1,-4.712039828E-1,-4.728794992E-1
3.745684944E1,-7.957828641E-1,-3.645120263E-1,-6.399948001E-1
3.747684944E1,-8.045618534E-1,-8.712683618E-2,-6.551268101E-1
3.749684944E1,-6.673440933E-1,2.679080330E-2,-4.342553616E-1
3.751684944E1,-4.052654505E-1,-1.229409948E-1,-2.262121290E-1
3.753684944E1,-6.412339956E-2,-4.075518250E-1,-8.976228535E-2
3.755685100E1,2.156528831E-1,-7.097032070E-1,-6.714281440E-2
3.757884944E1,5.018345118E-1,-8.788256645E-1,-2.727600634E-1
3.759884944E1,7.652395964E-1,-8.700466156E-1,-5.956110358E-1
3.761884944E1,1.059502125E0,-8.155050874E-1,-8.686329126E-1
3.763884944E1,1.436877251E0,-8.238477707E-1,-1.280548096E0
3.765884944E1,1.630329490E0,-1.085769296E0,-2.110486984E0
3.767884944E1,1.417050242E0,-1.430087924E0,-3.115185738E0
3.769884944E1,9.676454663E-1,-1.720248818E0,-3.725824118E0
3.771884944E1,5.637587905E-1,-1.541823864E0,-3.880704641E0
3.773884944E1,3.372848630E-1,-9.387253523E-1,-3.931127310E0
3.775884944E1,2.276083827E-1,-3.114888966E-1,-4.055988312E0
3.777884944E1,2.006779611E-1,1.605004817E-1,-4.317804813E0
3.779884944E1,3.444930911E-1,4.465599358E-1,-4.618001461E0
3.781884944E1,6.370277405E-1,6.613925099E-1,-4.806043148E0
3.783884944E1,9.401390553E-1,6.049660444E-1,-4.662106037E0
3.785884944E1,1.101861238E0,4.705407619E-1,-4.357912540E0
3.787884944E1,9.491449594E-1,5.571963787E-1,-4.252564430E0
3.789884944E1,6.008470654E-1,1.070794344E0,-4.235285759E0
3.791884944E1,7.771950960E-2,1.675638199E0,-4.149188519E0
3.793884944E1,-6.635043621E-1,2.183459282E0,-4.142818451E0
3.795885100E1,-1.504683256E0,2.904611826E0,-4.301520824E0
3.798084944E1,-1.984805822E0,3.734847546E0,-4.227309704E0
3.800084944E1,-2.200842619E0,4.149240971E0,-3.614384890E0
3.802084944E1,-2.634050846E0,4.258516312E0,-2.953463554E0
3.804084944E1,-2.918504715E0,4.171930313E0,-2.592442274E0
3.806085100E1,-2.908992529E0,4.338294983E0,-2.381641388E0
3.808085100E1,-3.235613585E0,4.807631493E0,-2.106595039E0
3.810284944E1,-3.375519037E0,5.040633202E0,-2.041860580E0
3.812284944E1,-2.926533222E0,4.714291573E0,-1.748575568E0
3.814285100E1,-2.205118895E0,4.002790451E0,-1.232481718E0
3.816484944E1,-1.226006508E0,3.359636545E0,-8.965407014E-1
3.818485100E1,4.747295752E-3,2.462048769E0,-7.103315592E-1
3.820685100E1,8.467639089E-1,1.576555848E0,-5.257455111E-1
3.822885100E1,1.038924694E0,9.713978767E-1,-6.109699607E-1
3.825085569E1,8.658927679E-1,5.809153914E-1,-7.550119758E-1
3.827284944E1,7.043625116E-1,7.603352070E-1,-5.636889935E-1
3.829285100E1,5.236685872E-1,1.012971640E0,-3.303210139E-1
3.831285256E1,5.397954583E-1,1.025537968E0,-2.502627671E-1
3.833485100E1,9.473298192E-1,8.925439119E-1,-3.695909083E-1
3.835685100E1,1.464086890E0,4.943819642E-1,-4.098731279E-1
3.837884944E1,1.594742179E0,1.418778151E-1,-2.400002182E-1
3.839884944E1,1.526499867E0,3.715806082E-2,-1.157676876E-1
3.841884944E1,1.408602834E0,1.540776640E-1,2.174680308E-2
3.843884944E1,1.047930598E0,3.712315485E-2,1.921607554E-2
3.845885100E1,7.337189913E-1,-2.775596976E-1,-1.310393214E-1
3.847888694E1,7.503694296E-1,-2.162637413E-1,-2.047271281E-2
3.850085100E1,8.549669981E-1,2.614503205E-1,3.808133900E-1
3.852285725E1,5.895023942E-1,2.383421659E-1,7.288146019E-1
3.854286506E1,3.473903239E-1,-2.013586313E-1,7.603875995E-1
3.856484944E1,2.244144380E-1,-9.935810566E-1,5.334599018E-1
3.858484944E1,-9.808750451E-2,-1.190471649E0,4.821646512E-1
3.860484944E1,-1.251593113E0,-1.119052768E0,5.617167354E-1
3.862484944E1,-3.248598814E0,-3.065321743E-1,6.299940348E-1
3.864485100E1,-4.519320488E0,2.052507252E-1,1.333256960E-1
3.866686038E1,-4.089707851E0,-5.540896654E-1,-3.417703807E-1
3.868884944E1,-2.549768925E0,-2.127486467E0,-1.943598688E-1
3.870885100E1,-1.053410888E0,-3.591556072E0,3.288200200E-1
3.872885100E1,6.237806752E-2,-4.507243156E0,7.491476536E-1
3.875084944E1,5.690994859E-1,-5.427607536E0,9.679247141E-1
3.877084944E1,5.641951561E-1,-5.754978657E0,1.291159630E0
3.879084944E1,4.428423941E-1,-5.609889507E0,1.735415816E0
3.881085100E1,1.354724616E-1,-5.481520653E0,2.256902695E0
3.883285100E1,-7.997971177E-1,-5.488763809E0,2.634417534E0
3.885285100E1,-1.706722617E0,-5.106152534E0,2.631729603E0
3.887285100E1,-1.998977900E0,-4.429261684E0,2.714597940E0
3.889285100E1,-2.060745239E0,-3.926467180E0,2.986258268E0
3.891484944E1,-2.499154329E0,-3.915803194E0,3.355919123E0
3.893484944E1,-3.106528997E0,-3.992143869E0,3.616479158E0
3.895486506E1,-3.880059004E0,-3.848189116E0,3.792408466E0
3.897684944E1,-4.668424129E0,-3.118397236E0,3.987536192E0
3.899685100E1,-4.920920849E0,-1.942917943E0,3.904755354E0
3.901885100E1,-4.381631851E0,-8.869065046E-1,3.416708946E0
3.904084944E1,-3.249890327E0,-2.507514656E-1,2.633824110E0
3.906084944E1,-2.255244732E0,4.361577928E-1,1.761333942E0
3.908084944E1,-1.753636956E0,9.390918612E-1,1.016601920E0
3.910084944E1,-1.642651558E0,8.406901956E-1,6.274458766E-1
3.912085100E1,-1.416980505E0,7.370176315E-1,3.934495747E-1
3.914285100E1,-1.259551764E0,8.337437510E-1,2.823942602E-1
3.916286662E1,-1.162109971E0,9.671741724E-1,2.872113883E-1
3.918485256E1,-1.123887300E0,5.344198346E-1,6.963863969E-1
3.920685100E1,-1.159561872E0,-5.124112368E-1,1.122124553E0
3.922685569E1,-1.012099028E0,-1.178952456E0,1.265625477E0
3.924885100E1,-7.066838145E-1,-1.237455845E0,1.200262904E0
3.927085100E1,-4.588645101E-1,-9.561612010E-1,9.373814464E-1
3.929285100E1,-2.132268697E-1,-5.356415510E-1,5.224817395E-1
3.931485100E1,1.954768784E-3,-3.595378250E-3,5.836381018E-2
3.933485100E1,3.497465253E-1,5.015552640E-1,-3.359060585E-1
3.935684944E1,7.696552873E-1,8.638681769E-1,-7.733379602E-1
3.937685100E1,1.355736852E0,9.412735105E-1,-1.121670723E0
3.939884944E1,2.243969917E0,6.731909513E-1,-1.487805963E0
3.941884944E1,2.982296467E0,1.067792401E-1,-1.820762396E0
3.943884944E1,3.545252323E0,-3.613006175E-1,-2.246936798E0
3.945884944E1,3.843651295E0,-3.442836404E-1,-2.650614023E0
3.947884944E1,3.891770124E0,1.824741662E-1,-2.954283953E0
3.949884944E1,3.832149506E0,6.404485703E-1,-3.058671951E0
3.951884944E1,3.822218657E0,7.773172855E-1,-3.218387127E0
3.953884944E1,3.945089817E0,6.581636667E-1,-3.512719393E0
3.955884944E1,3.959227085E0,6.169390082E-1,-3.885801077E0
3.957884944E1,3.661229610E0,7.509977221E-1,-4.156867981E0
3.959885100E1,3.107052565E0,1.161760926E0,-4.331174374E0
3.962084944E1,2.443077087E0,1.585509419E0,-4.296529293E0
3.964084944E1,1.949305892E0,1.761508465E0,-4.224883556E0
3.966084944E1,1.574374199E0,1.880243182E0,-4.160393715E0
3.968084944E1,1.258452177E0,2.055456877E0,-3.924721956E0
3.970084944E1,1.117900848E0,2.358358622E0,-3.534256935E0
3.972084944E1,8.263610601E-1,2.436496973E0,-3.037169695E0
3.974084944E1,3.359584212E-1,2.553015232E0,-2.565843344E0
3.976085100E1,-6.225938201E-1,3.305321932E0,-2.133577824E0
3.978284944E1,-2.609197378E0,4.911897659E0,-1.599838614E0
3.980285256E1,-4.132747650E0,6.297776222E0,-1.053323627E0
3.982485100E1,-3.852430344E0,6.233478546E0,3.502875939E-2
3.984685100E1,-1.965240717E0,3.934373617E0,1.386960745E0
3.986884944E1,1.130659223E0,1.832875013E0,1.710248113E0
3.988884944E1,3.652363300E0,1.863819599E0,6.568720937E-1
3.990884944E1,3.784030914E0,1.076536536E0,-8.063071966E-1
3.992884944E1,2.441698074E0,1.241278127E-1,-1.194834948E0
3.994885100E1,9.209753275E-1,4.710818231E-1,-2.208190560E-1
3.997084944E1,-4.812221825E-1,1.431623816E0,6.697177291E-1
3.999084944E1,-1.525522470E0,1.397240758E0,7.260569930E-1
4.001084944E1,-1.694889188E0,9.465444088E-1,3.316474557E-1
4.003084944E1,-1.078770518E0,1.242272973E0,1.258382350E-1
4.005085100E1,-5.073323250E-1,1.919513106E0,3.756821156E-1
4.007285725E1,-3.357140720E-1,1.701434255E0,6.555805802E-1
4.009485413E1,1.731366664E-2,5.826607347E-1,8.335866928E-1
4.011684944E1,6.722135544E-1,1.891238838E-1,1.053236365E0
4.013685100E1,1.047808409E0,9.216385484E-1,1.062678576E0
4.015685100E1,9.199979305E-1,1.904642940E0,9.237155318E-1
4.017685413E1,6.796486378E-1,2.262435436E0,8.410916328E-1
4.019884944E1,6.292086244E-1,2.054619074E0,4.446400702E-1
4.021884944E1,7.575427294E-1,1.622772217E0,1.874658167E-1
4.023884944E1,5.952270627E-1,1.550951958E0,2.462659627E-1
4.025884944E1,1.242150813E-1,1.610048771E0,4.820250273E-1
4.027885100E1,-3.076491952E-1,1.653193355E0,8.013330102E-1
4.030084944E1,-4.784645736E-1,1.714489222E0,1.062783360E0
4.032084944E1,-4.133114219E-1,1.656352401E0,9.998642206E-1
4.034084944E1,-4.196993113E-1,1.327881455E0,7.925190926E-1
4.036084944E1,-4.782551229E-1,1.213056207E0,6.538003087E-1
4.038084944E1,-2.229832709E-1,1.179685473E0,7.364591360E-1
4.040085100E1,-5.403713584E-1,8.672366738E-1,1.043340325E0
4.042285881E1,-1.706181526E0,-4.000469148E-1,1.193857551E0
4.044484944E1,-2.624364376E0,-7.796036601E-1,9.726370573E-1
4.046485100E1,-2.359301090E0,-2.273989469E-1,8.926835656E-1
4.048685100E1,-1.727282524E0,7.970918417E-1,1.104200006E0
4.050886350E1,-2.046380997E0,2.012417078E0,1.130606890E0
4.053084944E1,-3.267151594E0,3.534466267E0,9.351997972E-1
4.055084944E1,-3.456991196E0,5.364915371E0,6.947457790E-1
4.057084944E1,-1.281106591E0,8.656483889E-1,4.225791097E-1
4.059084944E1,-2.830575109E-1,-1.367290914E-1,2.024931014E-1
4.061084944E1,4.949928224E-1,-4.453556538E-1,1.154709831E-1
4.063084944E1,1.258085728E0,-1.602561325E-1,1.176177412E-1
4.065084944E1,1.149805427E0,9.808750823E-3,-8.649851382E-2
4.067084944E1,3.531324565E-1,9.276599288E-1,-4.052479863E-1
4.069085725E1,-3.424336016E-1,1.978924155E0,-6.478661895E-1
4.071285100E1,-5.182057023E-1,1.561738014E0,-1.143801570E0
4.073285412E1,-2.822372019E-1,9.425301552E-1,-1.532172203E0
4.075485100E1,-1.813047975E-1,1.242744207E0,-1.662845016E0
4.077485100E1,5.916666240E-3,1.316414595E0,-1.528524399E0
4.079485100E1,4.624947906E-1,1.121705651E0,-1.220595956E0
4.081485100E1,9.108349681E-1,9.915215373E-1,-7.638258934E-1
4.083684944E1,1.083256006E0,1.148409247E0,-3.282440603E-1
4.085685100E1,-5.964313745E-1,5.841616914E-2,-1.844638437E-1
4.087685100E1,-1.809766769E0,-1.489010215E0,-3.627666831E-1
4.089884944E1,-1.356958628E0,-1.394378424E0,-2.774724364E-1
4.091885569E1,-2.764252424E-1,-1.097079039E0,-1.303586364E-1
4.094084944E1,5.345943570E-1,-1.484978437E0,-4.769985005E-2
4.096085100E1,6.743603349E-1,-1.776046991E0,4.181808978E-2
4.098285100E1,5.588718653E-1,-1.444905758E0,9.716247767E-2
4.100285725E1,2.545911670E-1,-7.378030419E-1,-7.452555932E-3
4.102484944E1,1.425934024E-2,-4.520053566E-1,-2.115339041E-2
4.104485100E1,4.084070399E-2,-8.513715863E-2,1.754055917E-2
4.106686975E1,2.130872458E-1,1.870469302E-1,1.623156220E-1
4.108884944E1,4.756545722E-1,4.116184413E-1,4.107981324E-1
4.110884944E1,8.021707535E-1,9.822538495E-1,6.570815444E-1
4.112884944E1,1.010667801E0,1.418551207E0,7.095286846E-1
4.114884944E1,9.943664074E-1,1.455814004E0,8.175471425E-1
4.116885256E1,7.945436835E-1,1.120169759E0,9.034696817E-1
4.119084944E1,7.280641198E-1,8.194495440E-1,8.343197107E-1
4.121084944E1,7.649080157E-1,7.718369365E-1,5.980893970E-1
4.123084944E1,6.905744076E-1,1.164570928E0,3.212103844E-1
4.125085256E1,4.250400364E-1,1.474035263E0,1.646543592E-1
4.127284944E1,-6.215117499E-2,7.060903907E-1,-2.670353837E-2
4.129285256E1,-2.933723927E-1,7.087607384E-1,1.597848982E-1
4.131485100E1,-4.251622036E-2,8.843408823E-1,5.115385652E-1
4.133485412E1,6.990043819E-2,7.294952869E-1,4.678704143E-1
