"Time (s)","Linear Acceleration x (m/s^2)","Linear Acceleration y (m/s^2)","Linear Acceleration z (m/s^2)"
1.000468800E-2,-5.999999866E-2,4.301999807E-1,2.725999951E-1
4.000000000E-2,4.407999814E-1,2.475999892E-1,1.811999977E-1
6.000156300E-2,7.184999585E-1,-1.395999938E-1,-3.999999911E-2
8.999843800E-2,-1.014999971E-1,4.502999783E-1,7.469999790E-2
1.099984380E-1,-2.533999979E-1,4.696999788E-1,-1.009999961E-1
1.299984380E-1,4.329999909E-2,1.979999989E-1,-3.006999791E-1
1.499984380E-1,3.188999891E-1,3.887999952E-1,-4.226999879E-1
1.699984380E-1,7.509999722E-2,4.693000019E-1,-3.299999982E-3
1.899984380E-1,-1.385999918E-1,4.095999897E-1,5.381000042E-1
2.099984380E-1,5.432999730E-1,-2.283999920E-1,3.835999966E-1
2.299984380E-1,7.217999697E-1,-1.331999898E-1,-7.819999754E-2
2.499984380E-1,6.906999946E-1,-1.050999984E-1,-6.031000018E-1
2.699984380E-1,5.881999731E-1,-3.700999916E-1,-4.262999892E-1
2.899984380E-1,8.312999606E-1,-3.973999918E-1,-6.922999620E-1
3.099984380E-1,9.764999747E-1,5.080999732E-1,-1.593199968E0
3.299984380E-1,1.362100005E0,1.193799973E0,-2.683399916E0
3.500015630E-1,1.618799925E0,1.304499984E0,-2.642799854E0
3.800234380E-1,9.448999763E-1,-3.319999948E-2,1.141999960E-1
4.099984380E-1,3.586999774E-1,-5.072999597E-1,1.706499934E0
4.299984380E-1,-4.212999940E-1,2.379999906E-1,4.827999771E-1
4.500000000E-1,-7.667999864E-1,6.525999904E-1,-8.787999749E-1
4.700000000E-1,-6.729999781E-1,7.238999605E-1,-1.289299965E0
5.000062500E-1,-1.413100004E0,1.234599948E0,-7.501999736E-1
5.299984380E-1,-7.016999722E-1,1.227800012E0,-6.259999871E-1
5.499984380E-1,-4.186999798E-1,1.390799999E0,-1.709999889E-1
5.700000000E-1,-6.374999881E-1,1.367699981E0,1.713999957E-1
5.999984380E-1,-2.284999937E-1,1.237999916E0,9.615999460E-1
6.199984380E-1,3.419999778E-1,7.780999541E-1,1.373899937E0
6.399984380E-1,5.009999871E-2,5.537999868E-1,1.242900014E0
6.599984380E-1,-8.217999935E-1,1.398599982E0,3.172999918E-1
6.800312500E-1,-2.080299854E0,1.793099999E0,5.885999799E-1
7.100000000E-1,-1.137399912E0,1.543699980E0,2.243999958E0
7.399984380E-1,-2.252999991E-1,6.333999634E-1,2.570400000E0
7.599984380E-1,3.001999855E-1,7.539999485E-2,2.457200050E0
7.800296880E-1,-1.755999923E-1,2.038999945E-1,2.705699921E0
8.100000000E-1,-9.368999600E-1,-3.594999909E-1,2.723700047E0
8.400031250E-1,-8.427999616E-1,-1.420799971E0,2.219799995E0
8.699984380E-1,-7.400000002E-3,-1.804799914E0,3.017999828E-1
8.900078130E-1,-3.783999979E-1,-2.066900015E0,3.273999989E-1
9.199984380E-1,-2.409999967E-1,-3.064199924E0,1.449999928E0
9.400062500E-1,-5.299999714E-1,-2.477900028E0,2.351799965E0
9.699984380E-1,3.358999789E-1,-2.544299841E0,-1.375999898E-1
9.899984380E-1,-6.079999730E-2,-1.701200008E0,-1.272799969E0
1.009998438E0,-3.176999986E-1,-9.355999827E-1,-2.036000013E0
1.029998438E0,-7.326999903E-1,-4.626999795E-1,-1.783999920E0
1.049998438E0,-4.025999904E-1,-3.471999764E-1,-1.672599912E0
1.069998438E0,-2.989999950E-1,8.359999955E-2,-1.089100003E0
1.090000000E0,-2.137999982E-1,5.150000006E-2,-1.057500005E0
1.119998438E0,4.449999928E-1,-1.967999935E-1,-4.914999902E-1
1.140001563E0,5.191999674E-1,-2.836999893E-1,6.068999767E-1
1.169998438E0,2.752999961E-1,-1.375000030E-1,7.784999609E-1
1.190003125E0,3.300999999E-1,2.803999782E-1,4.445999861E-1
1.219998438E0,5.497999787E-1,2.657999992E-1,3.871999979E-1
1.239998438E0,6.448999643E-1,-2.883000076E-1,1.247799993E0
1.260000000E0,4.356999993E-1,-3.224999905E-1,2.229699850E0
1.280004688E0,4.860000014E-1,-4.030999839E-1,2.375900030E0
1.310000000E0,9.350000024E-1,4.113999903E-1,-1.000999957E-1
1.339998438E0,-6.390000135E-2,-1.204100013E0,1.808999926E-1
1.359998438E0,-4.160000011E-2,-1.673299909E0,1.403399944E0
1.380003125E0,9.863999486E-1,-8.472999930E-1,-1.449999958E-2
1.409998438E0,3.067499876E0,-2.369999886E-1,-4.030399799E0
1.430000000E0,3.300099850E0,-9.167999625E-1,-4.826600075E0
1.460000000E0,-1.297099948E0,-2.390300035E0,-3.081099987E0
1.490018750E0,1.138499975E0,-2.852999926E0,-4.648600101E0
1.519998438E0,2.330399990E0,-3.801499844E0,-1.802399993E0
1.539998438E0,3.287000060E-1,-3.008599997E0,-3.904999793E-1
1.559998438E0,-9.488999844E-1,-2.787999809E-1,-5.396999717E-1
1.579998438E0,-9.887999892E-1,9.636999965E-1,4.445399761E0
1.599998438E0,-6.229999661E-1,1.984599948E0,3.464399815E0
1.619998438E0,-1.889699936E0,5.760999918E-1,3.217799902E0
1.639998438E0,-1.749399900E0,2.363999933E-1,1.546999931E0
1.660000000E0,-1.089100003E0,1.003600001E0,2.670500040E0
1.689998438E0,4.499999806E-2,2.751999795E-1,3.020900011E0
1.709998438E0,-6.791999936E-1,-1.692000031E-1,5.810999870E-1
1.729998438E0,-9.280999899E-1,-2.529999912E-1,1.749199986E0
1.749998438E0,-2.251699924E0,-2.316999882E-1,2.830499887E0
1.769998438E0,-2.021299839E0,-6.599999964E-2,2.994499922E0
1.789998438E0,-1.274299979E0,4.287000000E-1,3.526000023E0
1.809998438E0,1.129999943E-2,-1.666000009E0,4.161200047E0
1.829998438E0,-9.609999508E-2,-2.410799980E0,3.401899815E0
1.850000000E0,-6.597999930E-1,-2.485199928E0,1.282199979E0
1.879998438E0,-3.621000051E-1,-1.575999975E0,-1.237399936E0
1.899998438E0,4.479999840E-1,-1.287699938E0,-1.366299987E0
1.919998438E0,6.703000069E-1,-8.174999952E-1,8.533999920E-1
1.939998438E0,1.247299910E0,-1.890899897E0,1.944299936E0
1.960000000E0,2.249999903E-2,-1.348999977E0,6.726999879E-1
1.989998438E0,-7.688999772E-1,-1.824399948E0,-3.363600016E0
2.009998438E0,-1.139899969E0,-8.671999574E-1,-2.692399979E0
2.030000000E0,-1.140299916E0,-1.906999946E-1,-2.750000000E0
2.059998438E0,2.770999968E-1,-6.771999598E-1,-1.492799997E0
2.079998438E0,6.635999680E-1,-1.039899945E0,-1.488199949E0
2.099998438E0,-1.532000005E-1,-6.326000094E-1,-7.752000093E-1
2.119998438E0,-8.679999411E-2,-7.971999645E-1,-1.769599915E0
2.139998438E0,3.421999812E-1,-1.356099963E0,-2.675999880E0
2.159998438E0,3.068999946E-1,-1.870099902E0,-2.513499975E0
2.180000000E0,3.246999979E-1,-1.858899951E0,-1.325799942E0
2.209998438E0,1.083799958E0,-1.219900012E0,1.102699995E0
2.229998438E0,5.113999844E-1,-1.277899981E0,1.404399991E0
2.249998438E0,1.999999955E-2,-1.351999998E0,8.840999603E-1
2.269998438E0,1.166599989E0,-1.283900023E0,1.772300005E0
2.290000000E0,2.360499859E0,-1.444100022E0,3.166100025E0
2.310017188E0,2.121599913E0,-1.757299900E0,2.326400042E0
2.339998438E0,8.773999810E-1,-1.531099916E0,5.134999752E-1
2.359998438E0,3.274999857E-1,-1.019899964E0,4.203999937E-1
2.380018750E0,4.616999924E-1,-6.100000143E-1,1.595000029E-1
2.409998438E0,1.278999925E0,-3.568999767E-1,6.388999820E-1
2.429998438E0,1.295599937E0,-5.315999985E-1,1.907999963E-1
2.449998438E0,1.133999944E0,-1.067799926E0,-8.631999493E-1
2.469998438E0,8.867999911E-1,-1.150900006E0,-1.842799902E0
2.489998438E0,7.560999990E-1,-4.276999831E-1,-2.220700026E0
2.509998438E0,4.409999773E-2,3.735999763E-1,-1.534600019E0
2.529998438E0,-5.946999788E-1,7.778999805E-1,-2.109200001E0
2.549998438E0,-1.000299931E0,9.128999710E-1,-2.424999952E0
2.569998438E0,-1.192999959E0,4.732999802E-1,-2.557899952E0
2.589998438E0,-9.177999496E-1,2.172999978E-1,-1.416299939E0
2.609998438E0,-2.011999846E0,5.852000117E-1,-2.764199972E0
2.629998438E0,-2.816699982E0,-1.031999961E-1,8.739999533E-1
2.649998438E0,-3.703099966E0,6.599999964E-3,3.562799931E0
2.669998438E0,-2.827699900E0,-5.145999789E-1,3.934799910E0
2.689998438E0,-1.814599991E0,-1.260999918E0,3.125200033E0
2.709998438E0,-2.590800047E0,-4.334999919E-1,2.282599926E0
2.729998438E0,-2.764600039E0,2.368999869E-1,2.950399876E0
2.749998438E0,-1.956799984E0,9.439999610E-2,3.712999821E0
2.769998438E0,2.456999868E-1,-9.005999565E-1,3.490199804E0
2.790003125E0,8.764999509E-1,-1.922499895E0,2.269099951E0
2.819998438E0,7.846999764E-1,-2.527999878E0,3.372699976E0
2.840006250E0,-1.849000007E-1,-1.719499946E0,2.923899889E0
2.869998438E0,-4.538999796E-1,-1.223799944E0,7.031999826E-1
2.890007813E0,-4.357999861E-1,-9.851999879E-1,-6.150999665E-1
2.919998438E0,-4.068000019E-1,-8.565999866E-1,-1.965899944E0
2.940003125E0,-9.649999440E-2,-3.235999942E-1,-2.512099981E0
2.970000000E0,1.907999963E-1,5.529999733E-2,-2.972599983E0
2.990001563E0,-2.510000020E-2,2.129999995E-1,-2.819399834E0
3.019998438E0,-1.537999958E-1,1.851999909E-1,-2.225600004E0
3.040000000E0,5.137000084E-1,-1.963000000E-1,-1.426699996E0
3.069998438E0,1.293999910E0,-7.249000072E-1,-2.926999927E-1
3.089998438E0,1.279199958E0,-7.666999698E-1,-1.545999944E-1
3.109998438E0,1.167599916E0,-1.119899988E0,3.265999854E-1
3.130004688E0,1.413100004E0,-1.397799969E0,1.134799957E0
3.159998438E0,1.497599959E0,-1.188699961E0,2.174599886E0
3.180017188E0,1.214999914E0,-1.050999999E0,1.842599988E0
3.210000000E0,1.042899966E0,-1.135100007E0,3.215699911E0
3.230003125E0,1.054000020E0,-1.103600025E0,2.924099922E0
3.259998438E0,9.513999820E-1,-8.974999785E-1,8.332999945E-1
3.280006250E0,1.538499951E0,-1.138199925E0,3.756999969E-1
3.309998438E0,2.213500023E0,-1.457199931E0,-4.642999768E-1
3.329998438E0,2.238999844E0,-1.267099977E0,-6.563000083E-1
3.349998438E0,2.003900051E0,-9.573999643E-1,1.759999990E-2
3.369998438E0,1.151299953E0,-2.716000080E-1,-5.217999816E-1
3.389998438E0,1.790999919E-1,2.071999907E-1,-5.861999989E-1
3.409998438E0,-6.768999696E-1,7.046999931E-1,-8.623999953E-1
3.429998438E0,-1.680899978E0,1.546499968E0,-9.797999859E-1
3.449998438E0,-1.624199986E0,1.546100020E0,-5.862999558E-1
3.469998438E0,-1.203499913E0,9.942999482E-1,-7.603999972E-1
3.489998438E0,-1.444899917E0,8.508999944E-1,-4.915999770E-1
3.509998438E0,-1.578400016E0,4.611999989E-1,-3.287000060E-1
3.530000000E0,-1.335899949E0,1.664000005E-1,2.714000046E-1
3.559998438E0,-1.255800009E0,-1.019999944E-2,7.962999940E-1
3.580012500E0,-1.039999962E0,-3.880999982E-1,8.316999674E-1
3.609998438E0,-1.314299941E0,-5.498999953E-1,2.550400019E0
3.629998438E0,-1.143199921E0,-6.218000054E-1,2.422899961E0
3.649998438E0,-2.815999985E-1,-6.836000085E-1,2.540299892E0
3.670000000E0,8.294000030E-1,-1.598099947E0,2.996500015E0
3.690018750E0,1.323699951E0,-2.418299913E0,2.539599895E0
3.719998438E0,7.374999523E-1,-1.300799966E0,-2.114999890E-1
3.739998438E0,1.647399902E0,-1.907399893E0,-8.962000012E-1
3.759998438E0,1.867100000E0,-2.331799984E0,-9.723999500E-1
3.780015625E0,1.666499972E0,-2.075500011E0,-9.753999710E-1
3.810000000E0,6.254999638E-1,-1.803099990E0,-9.049999714E-1
3.830000000E0,-3.782999814E-1,-6.848999858E-1,-1.096499920E0
3.860000000E0,1.422999948E-1,-7.428999543E-1,-2.025199890E0
3.880000000E0,1.042699933E0,-6.732000113E-1,-2.533399820E0
3.909998438E0,7.823999524E-1,7.589999586E-2,-2.216799974E0
3.930000000E0,5.677999854E-1,-3.099999949E-2,-2.353199959E0
3.960000000E0,7.295999527E-1,-7.224999666E-1,-1.274699926E0
3.980003125E0,3.500999808E-1,-5.108999610E-1,-2.160999924E-1
4.009998438E0,7.369999886E-1,-5.194999576E-1,-6.906999946E-1
4.029998438E0,7.184000015E-1,1.586999893E-1,-1.216999963E-1
4.049998438E0,1.153299928E0,8.249999583E-2,1.092800021E0
4.069998438E0,1.500499964E0,-2.633999884E-1,1.418099999E0
4.089998438E0,7.369999886E-1,4.510999918E-1,1.517399907E0
4.109998438E0,3.009999916E-2,1.448899984E0,1.892799973E0
4.129998438E0,8.071999550E-1,1.259699941E0,3.131999969E0
4.149998438E0,2.500200033E0,-6.289999932E-2,4.103600025E0
4.169998438E0,2.593499899E0,-5.246999860E-1,3.115599871E0
4.189998438E0,1.357499957E0,5.333999991E-1,2.338000059E0
4.209998438E0,1.288399935E0,3.258999884E-1,1.863299966E0
4.229998438E0,1.831900001E0,9.409999847E-2,5.956000090E-1
4.249998438E0,2.435199976E0,1.243999973E-1,-1.435000002E-1
4.269998438E0,2.670300007E0,-4.083999991E-1,-4.555999935E-1
4.289998438E0,1.628299952E0,-3.833999932E-1,-1.132900000E0
4.309998438E0,3.513000011E-1,-1.032999977E-1,-2.019500017E0
4.329998438E0,-2.967999876E-1,2.294999957E-1,-2.940399885E0
4.349998438E0,-4.109999835E-1,4.807999730E-1,-2.911599874E0
4.369998438E0,-2.004999965E-1,4.199000001E-1,-2.849900007E0
4.389998438E0,-3.306999803E-1,5.421000123E-1,-2.267799854E0
4.409998438E0,-6.351999640E-1,7.418000102E-1,-1.685099959E0
4.429998438E0,-8.812999725E-1,4.988999963E-1,-9.296000004E-1
4.449998438E0,-1.091199994E0,5.720999837E-1,-2.157000005E-1
4.469998438E0,-8.784999847E-1,8.272999525E-1,6.521999836E-1
4.489998438E0,-3.437999785E-1,8.000999689E-1,1.364699960E0
4.509998438E0,-2.119999975E-1,8.034999967E-1,1.705799937E0
4.530000000E0,-7.321999669E-1,1.319800019E0,1.666199923E0
4.559998438E0,-9.472999573E-1,1.855199933E0,1.680899978E0
4.580020313E0,-5.184000134E-1,1.500000000E0,2.373499870E0
4.609998438E0,2.010999918E0,-1.683499932E0,4.307300091E0
4.629998438E0,1.124300003E0,-2.064399958E0,3.304299831E0
4.650000000E0,-5.018999577E-1,-7.689999938E-1,1.759299994E0
4.670000000E0,-4.990999997E-1,-9.771999717E-1,8.052999973E-1
4.699998438E0,8.319999576E-1,-1.859299898E0,-1.563999951E-1
4.719998438E0,6.244999766E-1,-1.080399990E0,-4.017999768E-1
4.739998438E0,3.264999986E-1,-4.310999811E-1,-7.931999564E-1
4.759998438E0,2.330999970E-1,-1.861999929E-1,-1.373700023E0
4.780000000E0,5.095999837E-1,-5.988999605E-1,-1.783699989E0
4.810000000E0,1.906999946E-1,-5.618000031E-1,-2.295199871E0
4.830000000E0,-2.398999929E-1,-2.944000065E-1,-2.251199961E0
4.860000000E0,-2.265999913E-1,-1.917999983E-1,-2.421399832E0
4.880026563E0,5.449999869E-2,-1.709000021E-1,-2.130599976E0
4.909998438E0,3.012000024E-1,-2.038999945E-1,-1.238899946E0
4.929998438E0,3.966999948E-1,-3.398000002E-1,-9.152999520E-1
4.949998438E0,3.835999966E-1,-4.096999764E-1,-8.183999658E-1
4.969998438E0,2.245999873E-1,-3.610999882E-1,-8.181999922E-1
4.989998438E0,-1.026999950E-1,-2.036999911E-1,-1.923999935E-1
5.009998438E0,-2.213999927E-1,3.048000038E-1,2.444999963E-1
5.029998438E0,-1.921999902E-1,6.847999692E-1,5.342999697E-1
5.049998438E0,-3.874000013E-1,1.457099915E0,1.182099938E0
5.069998438E0,8.349999785E-2,1.036499977E0,2.843099833E0
5.089998438E0,1.244799972E0,-1.055299997E0,3.958499908E0
5.109998438E0,1.397300005E0,-2.185999870E0,4.146100044E0
5.129998438E0,8.267999887E-1,-1.969099998E0,4.926799774E0
5.149998438E0,6.071000099E-1,-1.122099996E0,3.751399994E0
5.169998438E0,1.203599930E0,-2.180399895E0,1.540399909E0
5.189998438E0,2.241699934E0,-4.682999849E-1,-2.267699957E0
5.209998438E0,1.902499914E0,-1.040699959E0,-3.920599937E0
5.229998438E0,1.726799965E0,-1.081499934E0,-3.638799906E0
5.249998438E0,1.343099952E0,-1.394699931E0,-3.622200012E0
5.269998438E0,-3.853999972E-1,-7.184000015E-1,2.467999905E-1
5.289998438E0,-1.043399930E0,2.964999974E-1,8.080999851E-1
5.309998438E0,-2.401200056E0,8.186999559E-1,-8.359999657E-1
5.329998438E0,-1.706999898E0,9.656999707E-1,-9.339999557E-1
5.349998438E0,-7.052999735E-1,1.505999923E0,4.654999971E-1
5.369998438E0,3.306999803E-1,7.249999791E-2,2.363999933E-1
5.389998438E0,2.324300051E0,-4.389999807E-2,-5.958099842E0
5.409998438E0,-4.842000008E-1,-3.005999923E-1,-1.779699922E0
5.429998438E0,-1.236500025E0,7.030000091E-1,-1.371899962E0
5.449998438E0,-1.995499969E0,1.909899950E0,-1.237800002E0
5.469998438E0,-3.951200008E0,3.154399872E0,-5.945999622E-1
5.489998438E0,-5.075299740E0,6.091300011E0,3.392799854E0
5.510000000E0,-5.286399841E0,6.689499855E0,4.356699944E0
5.530000000E0,-3.468999863E-1,1.777999997E0,2.319999933E0
5.550000000E0,5.939999968E-2,1.925499916E0,2.534999847E0
5.579998438E0,-2.780299902E0,4.983799934E0,2.248299837E0
5.599998438E0,-2.627199888E0,4.427199841E0,-2.829999849E-2
5.619998438E0,-1.314499974E0,3.591300011E0,-2.480700016E0
5.639998438E0,5.541999936E-1,2.613100052E0,-5.022399902E0
5.659998438E0,1.216099977E0,2.735399961E0,-7.463500023E0
5.679998438E0,2.567999840E0,1.656799912E0,-3.667599916E0
5.699998438E0,2.261299849E0,2.377399921E0,-2.409999847E0
5.719998438E0,1.953099966E0,1.540599942E0,-6.358500004E0
5.739998438E0,1.671800017E0,6.219999790E-1,-6.011299610E0
5.759998438E0,2.588500023E0,-3.652999997E-1,-1.531999946E0
5.779998438E0,4.809099674E0,-2.980999947E0,-2.729899883E0
5.799998438E0,5.697000027E0,-6.251499653E0,-7.652299881E0
5.820000000E0,5.817999840E0,-7.145699978E0,-4.952099800E0
5.849998438E0,7.733299732E0,-9.322899818E0,-6.994000077E-1
5.869998438E0,7.347799778E0,-9.117499352E0,-6.567999721E-1
5.889998438E0,5.036599636E0,-6.893899918E0,-4.299999680E-3
5.909998438E0,2.094099998E0,-4.606899738E0,3.743000031E-1
5.929998438E0,5.194999576E-1,-3.410699844E0,-8.064000010E-1
5.949998438E0,2.561300039E0,-5.016599655E0,-2.468499899E0
5.969998438E0,4.632499695E0,-6.546299934E0,-3.922999859E0
5.989998438E0,4.105999947E0,-6.262300014E0,-4.298099995E0
6.009998438E0,3.678999901E0,-6.337599754E0,-4.467499733E0
6.029998438E0,5.303199768E0,-7.306200027E0,-3.740599871E0
6.049998438E0,6.761099815E0,-7.710099697E0,-3.344899893E0
6.069998438E0,6.623299599E0,-7.932399750E0,-3.468099833E0
6.089998438E0,4.541500092E0,-7.238199711E0,-3.180399895E0
6.109998438E0,1.763799906E0,-5.839799881E0,-1.080399990E0
6.129998438E0,5.315999985E-1,-3.142499924E0,-3.839999810E-2
6.149998438E0,2.175600052E0,-2.717000008E0,-1.348299980E0
6.169998438E0,2.041199923E0,-2.517999887E0,-2.713599920E0
6.189998438E0,1.409999933E-2,-1.660499930E0,-3.157399893E0
6.209998438E0,-7.990999818E-1,-5.740000010E-1,2.369999886E-1
6.229998438E0,3.199999779E-2,-5.622999668E-1,3.488999844E0
6.249998438E0,2.147500038E0,-1.022599936E0,5.311699867E0
6.269998438E0,3.835999966E0,-1.147300005E0,5.578899860E0
6.289998438E0,3.004499912E0,-8.129999787E-2,4.557499886E0
6.309998438E0,3.784600019E0,-8.035999537E-1,5.786999702E0
6.329998438E0,5.516900063E0,-1.682099938E0,5.931900024E0
6.349998438E0,7.394999981E0,-2.106600046E0,7.144899845E0
6.369998438E0,7.864399910E0,-1.600799918E0,9.758799553E0
6.389998438E0,8.085399628E0,-1.344599962E0,9.724100113E0
6.409998438E0,8.125399590E0,-1.482399940E0,9.311699867E0
6.429998438E0,6.597099781E0,9.399999976E-1,9.562799454E0
6.449998438E0,7.178599834E0,1.163800001E0,1.096719933E1
6.469998438E0,9.475299835E0,-1.432399988E0,1.046640015E1
6.489998438E0,1.013669968E1,-4.141699791E0,1.035739994E1
6.509998438E0,7.447700024E0,-4.588500023E0,9.029199600E0
6.530000000E0,3.872999907E0,-3.763099909E0,6.517899990E0
6.559998438E0,-1.278000027E-1,-9.465000033E-1,4.006299973E0
6.579998438E0,-1.100799918E0,-7.809999585E-2,3.808499813E0
6.599998438E0,-2.021399975E0,5.489999801E-2,3.705799818E0
6.619998438E0,-2.631500006E0,-1.630999893E-1,3.186800003E0
6.639998438E0,-2.293499947E0,-9.799999595E-1,2.380800009E0
6.659998438E0,-1.787599921E0,-1.818399906E0,1.759299994E0
6.679998438E0,-1.159299970E0,-2.832000017E0,1.159799933E0
6.699998438E0,-4.625999928E-1,-4.002599716E0,1.535999924E-1
6.719998438E0,-1.771000028E-1,-5.202499866E0,-8.687999845E-1
6.739998438E0,-1.116899967E0,-5.391299725E0,-1.242299914E0
6.759998438E0,-1.283699989E0,-5.861700058E0,-2.103299856E0
6.779998438E0,-8.989999890E-1,-6.106400013E0,-2.295399904E0
6.799998438E0,-1.178200006E0,-5.917900085E0,-2.330399990E0
6.820000000E0,-1.494899988E0,-5.918299675E0,-2.778100014E0
6.840000000E0,-1.783399940E0,-5.388000011E0,-3.203699827E0
6.869998438E0,-1.700000018E-1,-5.824699879E0,-3.616299868E0
6.889998438E0,1.110999957E-1,-5.777100086E0,-4.330699921E0
6.909998438E0,-5.519999862E-1,-4.999099731E0,-4.074500084E0
6.929998438E0,-5.588999987E-1,-4.790999889E0,-3.275199890E0
6.949998438E0,-6.239999831E-2,-5.146899700E0,-2.876299858E0
6.970000000E0,3.643999994E-1,-5.000699997E0,-2.308699846E0
6.999998438E0,1.655999899E0,-3.059000015E0,-2.720599890E0
7.019998438E0,3.184099913E0,-1.840799928E0,-2.294399977E0
7.039998438E0,2.812199831E0,-3.544999957E-1,-9.743999839E-1
7.059998438E0,6.480000019E-1,1.260299921E0,-9.179999679E-2
7.079998438E0,-1.034199953E0,2.058899879E0,-6.387000084E-1
7.099998438E0,-1.743600011E0,2.315299988E0,-1.632399917E0
7.119998438E0,-1.972899914E0,2.125799894E0,-1.491899967E0
7.140000000E0,-2.734299898E0,2.240399837E0,-1.921999902E-1
7.160000000E0,-3.671299934E0,2.480499983E0,1.113799930E0
7.180000000E0,-3.794199944E0,2.666399956E0,1.554499984E0
7.209998438E0,-2.618599892E0,3.175699949E0,2.142899990E0
7.229998438E0,-1.877099991E0,3.209699869E0,1.646899939E0
7.249998438E0,-1.627099991E0,2.608899832E0,1.489799976E0
7.269998438E0,-1.479900002E0,1.904899955E0,2.367799997E0
7.289998438E0,-4.610999823E-1,1.178099990E0,3.180299997E0
7.310015625E0,3.185999990E-1,1.695999950E-1,3.138499975E0
7.339998438E0,1.683099985E0,-1.519400001E0,2.520099878E0
7.359998438E0,2.668400049E0,-2.716599941E0,1.995000005E0
7.379998438E0,4.158800125E0,-4.529699802E0,1.706499934E0
7.399998438E0,5.338399887E0,-6.872200012E0,1.222700000E0
7.419998438E0,6.221899986E0,-8.076600075E0,1.999399900E0
7.439998438E0,5.697099686E0,-7.253900051E0,2.691799879E0
7.459998438E0,3.825399876E0,-5.399799824E0,3.498299837E0
7.479998438E0,1.478799939E0,-3.409499884E0,4.182499886E0
7.499998438E0,-1.689999923E-2,-2.476699829E0,4.417900085E0
7.519998438E0,-1.514499903E0,-1.120399952E0,4.019299984E0
7.539998438E0,-2.130499840E0,-8.127999902E-1,2.825199842E0
7.559998438E0,-2.565299988E0,-6.808999777E-1,1.752200007E0
7.579998438E0,-3.040299892E0,-6.432999969E-1,4.805999994E-1
7.599998438E0,-3.037799835E0,-9.803999662E-1,-7.694000006E-1
7.619998438E0,-2.994899988E0,-1.312199950E0,-1.530299902E0
7.639998438E0,-2.931799889E0,-1.694399953E0,-1.490499973E0
7.659998438E0,-2.464999914E0,-2.114699841E0,-1.220299959E0
7.679998438E0,-1.959999919E0,-2.609299898E0,-1.571399927E0
7.699998438E0,-1.193300009E0,-3.177699804E0,-1.758899927E0
7.719998438E0,-2.149999887E-1,-3.742100000E0,-2.086999893E0
7.739998438E0,2.219000012E-1,-4.109799862E0,-2.258299828E0
7.759998438E0,-7.319999486E-2,-4.225100040E0,-2.340800047E0
7.779998438E0,-9.080999494E-1,-4.214699745E0,-2.437399864E0
7.799998438E0,-1.099599957E0,-4.676799774E0,-2.929499865E0
7.819998438E0,-1.457099915E0,-4.461100101E0,-3.332999945E0
7.839998438E0,-1.753699899E0,-3.715499878E0,-3.308799982E0
7.859998438E0,-1.355099916E0,-3.286799908E0,-2.434799910E0
7.879998438E0,-1.698300004E0,-2.947099924E0,-1.077999949E0
7.899998438E0,-2.599999905E0,-2.464400053E0,8.209999651E-2
7.919998438E0,-2.393300056E0,-1.914599895E0,8.772999644E-1
7.939998438E0,-6.017000079E-1,-1.696399927E0,4.466999769E-1
7.960001563E0,1.129299998E0,-1.750299931E0,-3.630000055E-1
7.989998438E0,5.486999750E-1,-9.211999774E-1,3.626999855E-1
8.009998438E0,1.150000002E-2,-9.329999983E-2,1.092599988E0
8.029998438E0,9.539999813E-2,3.443999887E-1,1.309999943E0
8.049998438E0,2.757000029E-1,8.636999726E-1,1.735000014E0
8.069998438E0,9.829999506E-2,1.140799999E0,1.843599916E0
8.089998438E0,-1.097999960E-1,1.162099957E0,1.623999953E0
8.109998438E0,-3.820999861E-1,1.153900027E0,1.557699919E0
8.129998438E0,-5.970999599E-1,1.367900014E0,1.928399920E0
8.149998438E0,-4.043000042E-1,1.502900004E0,2.273799896E0
8.170000000E0,1.397999972E-1,1.620299935E0,2.271800041E0
8.199998438E0,1.351599932E0,1.309000015E0,1.844999909E0
8.219998438E0,2.074199915E0,7.942999601E-1,1.504499912E0
8.239998438E0,2.416599989E0,3.736999929E-1,1.407499909E0
8.259998438E0,2.874099970E0,-8.677999973E-1,8.454999924E-1
8.280000000E0,3.053499937E0,-2.118299961E0,1.486999989E-1
8.309998438E0,1.694799900E0,-2.250000000E0,-2.752999961E-1
8.329998438E0,1.533000022E-1,-1.832399964E0,3.181000054E-1
8.349998438E0,-9.529999495E-1,-1.474999905E0,7.160999775E-1
8.369998438E0,-1.140299916E0,-1.514799953E0,3.638999760E-1
8.389998438E0,-9.566999674E-1,-1.687199950E0,-9.208999872E-1
8.409998438E0,-7.059999704E-1,-2.021800041E0,-1.665899992E0
8.429998438E0,-8.675999641E-1,-2.228100061E0,-2.318899870E0
8.449998438E0,-9.395999908E-1,-2.221799850E0,-2.572799921E0
8.469998438E0,-1.272400022E0,-2.178499937E0,-2.656599998E0
8.489998438E0,-1.520200014E0,-2.203500032E0,-2.491699934E0
8.509998438E0,-1.503899932E0,-2.322900057E0,-2.144099951E0
8.530000000E0,-1.566999912E0,-2.243999958E0,-1.686899900E0
8.559998438E0,-1.440199971E0,-2.287499905E0,-2.111599922E0
8.579998438E0,-1.413100004E0,-2.240000010E0,-2.365799904E0
8.599998438E0,-1.549099922E0,-2.171799898E0,-2.012399912E0
8.619998438E0,-1.669699907E0,-1.794799924E0,-1.166399956E0
8.639998438E0,-1.762899995E0,-1.441799998E0,-6.330999732E-1
8.659998438E0,-1.533499956E0,-1.044600010E0,-6.183999777E-1
8.679998438E0,-8.851999640E-1,-9.426999688E-1,-7.208999991E-1
8.699998438E0,-3.152999878E-1,-8.258000016E-1,-7.822999954E-1
8.719998438E0,-4.341999888E-1,-6.941999793E-1,-6.225999594E-1
8.739998438E0,-9.163999557E-1,-4.526000023E-1,-2.915000021E-1
8.759998438E0,-8.831999898E-1,-4.237999916E-1,7.999999449E-3
8.779998438E0,-5.397999883E-1,-4.589999914E-1,3.619999886E-1
8.799998438E0,-3.303000033E-1,-2.838999927E-1,7.895999551E-1
8.820000000E0,-1.970999986E-1,-1.974999905E-1,7.748000026E-1
8.849998438E0,3.774999976E-1,-2.229999900E-1,6.272000074E-1
8.869998438E0,7.980999947E-1,-2.029999942E-1,6.972000003E-1
8.889998438E0,7.852999568E-1,4.633999765E-1,1.148399949E0
8.909998438E0,8.168999553E-1,6.484999657E-1,1.426100016E0
8.929998438E0,5.462999940E-1,7.552999854E-1,1.796899915E0
8.949998438E0,3.869999945E-1,1.181299925E0,1.943199992E0
8.970000000E0,7.696999907E-1,1.509199977E0,1.517899990E0
8.999998438E0,1.556199908E0,1.679999948E0,1.519400001E0
9.019998438E0,1.832199931E0,1.100799918E0,1.654699922E0
9.039998438E0,9.154999852E-1,1.251299977E0,2.246000051E0
9.059998438E0,2.730000019E-1,1.105700016E0,2.254699945E0
9.079998438E0,-3.130999804E-1,1.352199912E0,2.111500025E0
9.100000000E0,-8.761000037E-1,1.813099980E0,2.249599934E0
9.129998438E0,-4.519999921E-1,2.210299969E0,2.052599907E0
9.149998438E0,-1.349999905E-1,2.333299875E0,1.699199915E0
9.170000000E0,-1.106999964E-1,2.461099863E0,1.613799930E0
9.199998438E0,1.928000003E-1,2.746399879E0,1.713499904E0
9.219998438E0,3.564999998E-1,2.747299910E0,1.630399942E0
9.239998438E0,1.258999944E0,1.630499959E0,1.707199931E0
9.259998438E0,1.291499972E0,-3.039000034E-1,9.616999626E-1
9.279998438E0,-1.506500006E0,6.989999861E-2,4.519999921E-1
9.299998438E0,-3.202699900E0,1.943099976E0,7.451999784E-1
9.319998438E0,-9.769999981E-1,1.441299915E0,-7.127000093E-1
9.339998438E0,1.104499936E0,5.284000039E-1,-1.804899931E0
9.359998438E0,6.033999920E-1,6.660000086E-1,-6.857999563E-1
9.379998438E0,3.906999826E0,-1.233999953E-1,6.739999652E-1
9.399998438E0,1.085639954E1,-3.851300001E0,-4.684000015E-1
9.419998438E0,1.100220013E1,-7.345599651E0,-2.088599920E0
9.439998438E0,3.697700024E0,-8.609499931E0,-1.144400001E0
9.460000000E0,-2.787999868E0,-4.416999817E0,3.335299969E0
9.480000000E0,-1.785200000E0,-1.915799975E0,3.038199902E0
9.509998438E0,6.697999835E-1,-9.959999472E-2,8.644999862E-1
9.529998438E0,-7.850999832E-1,1.559499979E0,2.669299841E0
9.549998438E0,-1.643499970E0,2.511699915E0,2.363999844E0
9.569998438E0,-1.091300011E0,2.507099867E0,8.333999515E-1
9.589998438E0,-5.306999683E-1,2.176499844E0,-2.057999969E-1
9.609998438E0,-7.991999984E-1,1.809700012E0,-1.847999990E-1
9.629998438E0,-4.950999916E-1,1.524899960E0,4.923999906E-1
9.649998438E0,1.546299934E0,-1.036499977E0,-5.831999779E-1
9.670000000E0,1.900099993E0,-3.707199812E0,-2.905299902E0
9.699998438E0,-1.661899924E0,-1.804099917E0,-3.615499973E0
9.719998438E0,-1.279600024E0,-2.996999919E-1,-3.421799898E0
9.739998438E0,1.133199930E0,-4.693000019E-1,-3.861499786E0
9.759998438E0,1.734099984E0,-4.615999758E-1,-4.076499939E0
9.779998438E0,-2.612999976E-1,9.041999578E-1,-4.697799683E0
9.799998438E0,-1.470699906E0,2.916299820E0,-5.430500031E0
9.819998438E0,-7.813999653E-1,3.485899925E0,-5.779099941E0
9.839998438E0,-5.500999689E-1,3.202399969E0,-4.306999683E0
9.859998438E0,-1.610999942E0,3.180799961E0,-1.840899944E0
9.880000000E0,-2.363899946E0,3.059199810E0,-6.822999716E-1
9.900000000E0,-2.015499830E0,2.366699934E0,-1.716899991E0
9.920000000E0,-1.354499936E0,1.566399932E0,-2.255100012E0
9.950000000E0,-7.861999869E-1,8.386999965E-1,-1.870499969E0
9.970000000E0,-9.139999747E-1,8.768999577E-1,-2.210000038E0
9.999998438E0,1.213999987E-1,3.251999915E-1,-2.265300035E0
1.001999844E1,9.433999658E-1,1.612999886E-1,-1.309700012E0
1.003999844E1,2.738999844E0,-2.175999880E-1,-2.604999840E-1
1.005999844E1,2.907899857E0,-4.731999934E-1,3.027999997E-1
1.007999844E1,2.272099972E0,-6.214999557E-1,2.788599968E0
1.009999844E1,1.930099964E0,-5.507000089E-1,5.473199844E0
1.011999844E1,2.689999819E0,-1.648099899E0,6.496699810E0
1.013999844E1,2.531299829E0,-2.081099987E0,6.234499931E0
1.015999844E1,2.010999918E0,-2.517899990E0,4.482899666E0
1.017999844E1,1.546800017E0,-2.419899940E0,3.025599957E0
1.019999844E1,1.200199962E0,-2.348899841E0,9.277999997E-1
1.021999844E1,5.753999949E-1,-1.821699977E0,-8.897999525E-1
1.023999844E1,-7.771999836E-1,-1.118399978E0,-1.896299958E0
1.025999844E1,-2.306499958E0,-2.449999936E-2,-1.094699979E0
1.027999844E1,-3.484099865E0,7.282999754E-1,5.792999864E-1
1.029999844E1,-4.369199753E0,1.387699962E0,1.236799955E0
1.031999844E1,-4.625299931E0,1.463699937E0,4.438000023E-1
1.033999844E1,-4.818900108E0,1.257300019E0,-6.300000101E-2
1.035999844E1,-4.084799767E0,8.844999671E-1,1.416999996E-1
1.037999844E1,-2.064800024E0,-5.593000054E-1,-4.834999740E-1
1.039999844E1,1.218999997E-1,-2.787600040E0,-7.080000043E-1
1.041999844E1,1.522300005E0,-4.785500050E0,-6.608999968E-1
1.043999844E1,1.823199987E0,-5.859799862E0,-4.603999853E-1
1.045999844E1,1.401899934E0,-6.922499657E0,-3.518999815E-1
1.047999844E1,5.241999626E-1,-6.889999866E0,8.276000023E-1
1.049999844E1,1.016999960E0,-6.981499672E0,1.065099955E0
1.051999844E1,1.768999934E0,-6.754399776E0,3.088999987E-1
1.053999844E1,1.084699988E0,-5.119699955E0,3.876000047E-1
1.055999844E1,1.802999973E0,-4.996599674E0,3.581999838E-1
1.057999844E1,1.638000011E0,-3.892099857E0,3.395999968E-1
1.059999844E1,1.620299935E0,-2.779099941E0,9.704999924E-1
1.061999844E1,1.861999989E0,-3.722299814E0,1.270299911E0
1.063999844E1,5.281999707E-1,-4.620699883E0,2.835299969E0
1.065999844E1,-1.772599936E0,-3.026299953E0,6.158299923E0
1.067999844E1,-1.314899921E0,-7.008999586E-1,8.467100143E0
1.069999844E1,1.296100020E0,5.504999757E-1,8.108499527E0
1.071999844E1,3.415499926E0,1.008800030E0,6.808599949E0
1.073999844E1,1.875599980E0,3.002599955E0,6.841599941E0
1.075999844E1,-9.181999564E-1,5.009699821E0,6.363699913E0
1.077999844E1,-1.659500003E0,5.421799660E0,5.678899765E0
1.079999844E1,-1.354599953E0,5.175499916E0,5.664599895E0
1.082000000E1,-8.030999899E-1,4.677000046E0,6.784800053E0
1.084999844E1,-7.051999569E-1,3.881500006E0,7.406099796E0
1.087000000E1,-7.010999918E-1,4.006400108E0,7.120299816E0
1.089000000E1,2.509999871E-1,3.771799803E0,5.897799969E0
1.091999844E1,2.165099859E0,2.308300018E0,4.267899990E0
1.093999844E1,2.480999947E0,1.568699956E0,4.660699844E0
1.096000000E1,2.384599924E0,1.172399998E0,5.083699703E0
1.098000000E1,2.720499992E0,6.025999784E-1,6.081099987E0
1.100999844E1,4.107100010E0,-3.375999928E-1,8.042499542E0
1.102999844E1,4.807199955E0,-6.011999846E-1,8.094300270E0
1.104999844E1,4.330899715E0,-1.250000000E-1,8.259900093E0
1.106999844E1,6.236299992E0,-1.707599998E0,6.960000038E0
1.108999844E1,9.237899780E0,-4.520299911E0,5.399300098E0
1.110999844E1,1.054809952E1,-7.821199894E0,3.698499918E0
1.112999844E1,9.726099968E0,-9.445199966E0,2.818899870E0
1.114999844E1,7.967799664E0,-9.340999603E0,1.675599933E0
1.116999844E1,5.652400017E0,-7.135099888E0,1.780299902E0
1.118999844E1,3.499300003E0,-5.355400085E0,1.849999905E0
1.120999844E1,2.197099924E0,-4.615600109E0,1.840799928E0
1.122999844E1,1.506799936E0,-4.724400043E0,1.401799917E0
1.124999844E1,7.287999988E-1,-4.487400055E0,1.157699943E0
1.126999844E1,1.161299944E0,-4.665599823E0,3.170000017E-2
1.128999844E1,2.973199844E0,-5.829099655E0,-1.055500031E0
1.130999844E1,3.313299894E0,-6.343599796E0,-2.215899944E0
1.132999844E1,3.482100010E0,-6.091599941E0,-2.233599901E0
1.134999844E1,3.870100021E0,-6.533099651E0,-2.529999971E0
1.136999844E1,4.663399696E0,-7.273200035E0,-3.014799833E0
1.138999844E1,4.350100040E0,-7.000999928E0,-3.652499914E0
1.140999844E1,3.626399994E0,-6.306399822E0,-4.143300056E0
1.142999844E1,3.002599955E0,-5.466599941E0,-4.371200085E0
1.144999844E1,3.200999975E0,-5.194999695E0,-3.404399872E0
1.146999844E1,3.623099804E0,-5.184199810E0,-4.981899738E0
1.149000000E1,2.525599957E0,-3.893599987E0,-4.147999763E0
1.151000000E1,3.047399998E0,-3.186800003E0,-4.947799683E0
1.153999844E1,2.276200056E0,-2.726999998E0,-4.108500004E0
1.155999844E1,2.763799906E0,-2.790999889E0,-4.153899670E0
1.158000156E1,3.639199972E0,-3.191599846E0,-4.332499981E0
1.160999844E1,1.978899956E0,-2.186199903E0,-4.312200069E0
1.162999844E1,1.304899931E0,-1.651999950E0,-4.481499672E0
1.164999844E1,1.741299987E0,-1.493899941E0,-2.813299894E0
1.167000313E1,4.258999825E0,-9.287999868E-1,6.844099998E0
1.169999844E1,2.220999956E0,1.665999889E-1,-1.139099956E0
1.171999844E1,-3.900000080E-2,1.162400007E0,-1.131999969E0
1.173999844E1,-5.627999902E-1,-2.583999932E-1,-8.330000043E-1
1.175999844E1,1.368999928E-1,-1.115999937E0,-5.426999927E-1
1.177999844E1,5.631999969E-1,-9.964999557E-1,-5.593000054E-1
1.179999844E1,3.289999962E-1,-3.242999911E-1,1.447099924E0
1.181999844E1,-5.777999759E-1,1.297999918E-1,-5.150000006E-2
1.183999844E1,-1.112800002E0,8.917999864E-1,2.390999943E-1
1.185999844E1,-2.181999922E0,2.326999903E0,-7.002999783E-1
1.187999844E1,-1.315899968E0,2.597399950E0,7.185999751E-1
1.189999844E1,-1.212599993E0,2.114199877E0,1.297999978E0
1.191999844E1,-2.129899979E0,1.557500005E0,1.126999974E0
1.193999844E1,-1.615099907E0,1.803999901E0,5.299999937E-2
1.196000000E1,-4.100999832E-1,7.581999898E-1,-2.754999995E-1
1.198999844E1,-9.139999747E-1,3.339999914E-2,-1.691000015E-1
1.200999844E1,-7.069999576E-1,-4.230999947E-1,8.321999907E-1
1.203000000E1,-2.387999892E-1,-8.098999858E-1,2.696199894E0
1.205999844E1,1.097999930E0,-2.354199886E0,2.610599995E0
1.208001563E1,1.586300015E0,-3.050400019E0,1.803499937E0
1.210999844E1,1.017099977E0,-2.878399849E0,-1.009999961E-2
1.212999844E1,-1.163200021E0,-1.425899982E0,4.371999800E-1
1.214999844E1,-4.807999730E-1,-3.152400017E0,1.328899980E0
1.216999844E1,-2.630000003E-2,-2.435400009E0,1.913999915E-1
1.218999844E1,8.582999706E-1,-2.284800053E0,-7.064999938E-1
1.220999844E1,1.531499982E0,-1.515399933E0,-1.047799945E0
1.222999844E1,8.664999604E-1,-9.899999499E-1,-2.228699923E0
1.224999844E1,2.708999813E-1,-1.562699914E0,-1.663399935E0
1.226999844E1,-3.524999917E-1,-1.285399914E0,-1.304399967E0
1.229002500E1,-4.140000045E-2,-8.897999525E-1,-1.244999990E-1
1.231003125E1,3.445999920E-1,-4.514999986E-1,-6.058999896E-1
1.233999844E1,-9.699999355E-3,-8.020000160E-2,-1.435299993E0
1.236000000E1,-2.008000016E-1,1.850999892E-1,-1.393999934E0
1.238002656E1,4.074999988E-1,-1.775999963E-1,-1.520999908E0
1.241000000E1,6.560000032E-2,9.420000017E-2,-1.353999972E-1
1.243999844E1,-6.402999759E-1,7.842999697E-1,-4.917999804E-1
1.246000156E1,-3.637000024E-1,6.620000005E-1,-6.765999794E-1
1.248999844E1,-8.202999830E-1,1.054999977E-1,2.351000011E-1
1.250999844E1,-9.554999471E-1,4.587000012E-1,5.031999946E-1
1.253000000E1,-1.146999970E-1,7.946999669E-1,-8.049999923E-2
1.255000312E1,-1.802999973E-1,1.841999888E-1,6.858999729E-1
1.257999844E1,-9.567999840E-1,-4.633999765E-1,2.356999874E0
1.260000312E1,-1.168699980E0,-7.353000045E-1,4.842299938E0
1.262999844E1,-1.041899920E0,-6.744999886E-1,2.844199896E0
1.265000469E1,-8.542000055E-1,-9.197999835E-1,1.202999949E0
1.268000625E1,4.559999704E-2,-5.235999823E-1,9.041000009E-1
1.270999844E1,8.167999983E-1,-1.239999942E-2,-5.181999803E-1
1.272999844E1,1.494699955E0,-9.706999660E-1,7.619999647E-1
1.275000469E1,1.004400015E0,-1.123899937E0,6.409999728E-1
1.277999844E1,-3.000000026E-3,-1.024299979E0,-6.308000088E-1
1.280000156E1,-2.484999895E-1,-8.387999535E-1,-9.046999812E-1
1.282999844E1,-4.126999974E-1,-4.007999897E-1,-1.706200004E0
1.284999844E1,-2.437999994E-1,-1.209999993E-1,-1.873199940E0
1.286999844E1,-1.013999954E-1,-5.554999709E-1,-1.638000011E0
1.288999844E1,-4.680999815E-1,-7.867999673E-1,-1.123199940E0
1.290999844E1,-1.060799956E0,-4.999999702E-2,-8.707999587E-1
1.292999844E1,-9.190999866E-1,4.179999977E-2,-5.249999762E-1
1.294999844E1,-9.741999507E-1,2.005999982E-1,1.066999957E-1
1.296999844E1,-4.846999943E-1,-2.908000052E-1,6.629999727E-2
1.298999844E1,-1.119999960E-1,-2.757000029E-1,-1.460999995E-1
1.300999844E1,-4.377999902E-1,-2.524999976E-1,2.749999985E-2
1.303000000E1,-1.062600017E0,-2.757000029E-1,-7.180000097E-2
1.305999844E1,-1.531299949E0,-5.954999924E-1,1.975999922E-1
1.307999844E1,-1.020900011E0,-9.309999943E-1,2.371999919E-1
1.309999844E1,-6.741999984E-1,-1.278999925E0,8.843999505E-1
1.311999844E1,-5.112999678E-1,-1.514499903E0,2.267899990E0
1.313999844E1,-6.521999836E-1,-1.624300003E0,2.341699839E0
1.315999844E1,-9.768999815E-1,-1.627799988E0,2.003599882E0
1.318000000E1,-1.700599909E0,-1.101400018E0,1.727399945E0
1.320999844E1,-1.198799968E0,-1.170499921E0,7.203999758E-1
1.322999844E1,-1.515699983E0,-1.013899922E0,5.220999718E-1
1.325000000E1,-1.476899981E0,-1.262699962E0,4.775999784E-1
1.327999844E1,-1.122099996E0,-1.956699967E0,3.119999915E-2
1.329999844E1,-1.081499934E0,-1.323300004E0,-1.664999962E0
1.331999844E1,-1.521899939E0,-5.056999922E-1,-1.365299940E0
1.334000156E1,-9.138000011E-1,-1.650299907E0,-2.342799902E0
1.336999844E1,-3.093000054E-1,-1.620700002E0,-2.951499939E0
1.339000000E1,-1.264999956E-1,-1.251999974E0,-2.399099827E0
1.341999844E1,-5.210999846E-1,-1.357599974E0,-1.933099985E0
1.344000312E1,-1.607399940E0,-1.026899934E0,-1.945899963E0
1.346999844E1,-1.105899930E0,-1.516000032E-1,-3.265199900E0
1.348999844E1,-1.095099926E0,5.953999758E-1,-2.451499939E0
1.350999844E1,-9.030999541E-1,7.491999865E-1,-1.164899945E0
1.353000312E1,-1.311399937E0,8.941999674E-1,-3.756999969E-1
1.356000000E1,-1.495899916E0,1.185999990E0,5.088999867E-1
1.358000781E1,-9.508999586E-1,1.575199962E0,1.380999923E0
1.360999844E1,-8.976999521E-1,1.462099910E0,2.200299978E0
1.363000000E1,-8.969999552E-1,1.326699972E0,2.199800014E0
1.365999844E1,6.366999745E-1,7.168999910E-1,5.042999983E-1
1.368000000E1,1.905399919E0,-2.277999967E-1,1.588299990E0
1.370999844E1,2.452100039E0,-6.802999973E-1,1.066499949E0
1.373000469E1,1.734299898E0,6.247999668E-1,3.099999856E-3
1.375999844E1,2.422399998E0,-6.638999581E-1,9.546999931E-1
1.378000625E1,1.833499908E0,-4.205999970E-1,1.282299995E0
1.380999844E1,2.197000027E0,8.330999613E-1,6.886000037E-1
1.382999844E1,3.289599895E0,-8.659999818E-2,2.386999875E-1
1.384999844E1,2.325399876E0,-6.031999588E-1,1.537999988E0
1.387000312E1,9.027000070E-1,-7.261999846E-1,5.043299675E0
1.389999844E1,1.779999956E-2,-1.259500027E0,4.304999828E0
1.392000469E1,1.087399960E0,-6.038999557E-1,6.066599846E0
1.394999844E1,1.987599969E0,-9.614999890E-1,5.353499889E0
1.397000000E1,2.263200045E0,-2.124799967E0,2.986999989E0
1.399999844E1,7.688999772E-1,-2.444099903E0,4.327799797E0
1.401999844E1,-6.915999651E-1,-1.496099949E0,1.433599949E0
1.403999844E1,9.531999826E-1,3.023999929E-1,3.102599859E0
1.405999844E1,1.633099914E0,2.799999900E-3,1.132399917E0
1.408000625E1,2.083699942E0,-1.874399900E0,8.649999648E-2
1.410999844E1,6.759999990E-1,-1.745299935E0,-8.094999790E-1
1.412999844E1,1.075999960E-1,-1.518000007E0,-4.813999832E-1
1.414999844E1,4.142999947E-1,-2.091500044E0,-1.922999918E-1
1.416999844E1,9.861999750E-1,-1.797799945E0,-1.890799999E0
1.418999844E1,5.309999585E-1,-1.280799985E0,-6.717999578E-1
1.420999844E1,1.127999946E-1,-8.610000014E-1,9.052999616E-1
1.422999844E1,-1.916399956E0,-5.780000091E-1,-4.266999960E-1
1.424999844E1,-4.490499973E0,2.178900003E0,1.442699909E0
1.426999844E1,-2.190899849E0,1.134500027E0,2.408499956E0
1.428999844E1,4.849999771E-2,-1.610700011E0,3.594499826E0
1.430999844E1,-6.528999805E-1,-1.755999923E-1,2.936499834E0
1.432999844E1,-1.257999986E-1,-1.179399967E0,8.987999558E-1
1.434999844E1,-1.387699962E0,-7.756999731E-1,-6.897999644E-1
1.436999844E1,-2.464299917E0,-2.903999984E-1,-5.442999601E-1
1.439000000E1,-2.629199982E0,3.886999786E-1,4.499999806E-3
1.441999844E1,7.724999785E-1,-1.151899934E0,1.595999956E0
1.443999844E1,5.665999651E-1,-1.332099915E0,1.161299944E0
1.446000000E1,2.913999856E-1,-2.153199911E0,2.717999816E-1
1.448000000E1,1.138000011E0,-2.372999907E0,-1.764499903E0
1.450003594E1,1.642899990E0,-2.321399927E0,-1.653399944E0
1.453000000E1,2.052999973E0,-2.609499931E0,-5.151999593E-1
1.456000000E1,1.247299910E0,-2.585199833E0,-8.102999926E-1
1.458000156E1,-3.274999857E-1,-2.283699989E0,-2.458199978E0
1.460999844E1,-1.752200007E0,-1.230000019E0,-1.380100012E0
1.462999844E1,-2.107999921E-1,-1.564700007E0,-2.930999994E-1
1.464999844E1,2.021399975E0,-2.314899921E0,7.120999694E-1
1.466999844E1,2.655699968E0,-2.316499949E0,-3.671000004E-1
1.469000000E1,1.661499977E0,-1.825099945E0,-8.218999505E-1
1.471999844E1,1.359699965E0,-7.149999738E-1,1.873999983E-1
1.473999844E1,1.533699989E0,-6.937999725E-1,-7.082999945E-1
1.475999844E1,1.014899969E0,-1.181999922E0,-6.793000102E-1
1.478003594E1,-1.016499996E0,-1.089999914E0,-1.543999910E-1
1.481000000E1,-1.480000019E0,-1.635100007E0,3.779000044E-1
1.483999844E1,-9.602999687E-1,-1.315699935E0,2.105999887E-1
1.485999844E1,-6.150999665E-1,-8.937000036E-1,2.876999974E-1
1.487999844E1,1.356000006E-1,-1.212099910E0,-6.322999597E-1
1.489999844E1,-7.899999619E-2,-1.170899987E0,-9.712999463E-1
1.492000000E1,-6.187999845E-1,-4.669999778E-1,-2.773999870E-1
1.494999844E1,-4.834999740E-1,5.760999918E-1,-5.695999861E-1
1.497000000E1,2.493999898E-1,6.710999608E-1,-2.154500008E0
1.499999844E1,-1.797000021E-1,-5.697999597E-1,-3.117799997E0
1.501999844E1,-1.626299977E0,4.490999877E-1,-2.672099829E0
1.503999844E1,-2.404899836E0,2.012899876E0,-1.760100007E0
1.505999844E1,-3.132999897E0,2.489599943E0,-3.250999928E0
1.507999844E1,-2.111899853E0,1.590099931E0,-2.837899923E0
1.509999844E1,-9.423999786E-1,6.218999624E-1,-3.680199862E0
1.511999844E1,-5.867999792E-1,-2.167999893E-1,-5.746599674E0
1.513999844E1,-1.109200001E0,-7.098000050E-1,-5.966899872E0
1.515999844E1,-1.229499936E0,8.628000021E-1,8.293499947E0
1.517999844E1,-5.184000015E0,4.369999886E0,3.892299891E0
1.519999844E1,-1.652799964E0,2.772399902E0,3.179899931E0
1.521999844E1,-6.299999952E-1,6.384999752E-1,3.643100023E0
1.523999844E1,-1.018199921E0,-6.258999705E-1,3.615099907E0
1.525999844E1,-1.929600000E0,-4.775999784E-1,1.467199922E0
1.527999844E1,-1.433499932E0,1.854999959E-1,5.156999826E-1
1.529999844E1,2.309999987E-2,8.621000051E-1,6.376999617E-1
1.531999844E1,1.401499987E0,3.744999766E-1,1.014799953E0
1.533999844E1,2.120800018E0,-2.303999960E-1,2.139099836E0
1.535999844E1,5.407999754E-1,-1.664000005E-1,1.746299982E0
1.537999844E1,-9.470999837E-1,3.937000036E-1,1.652400017E0
1.539999844E1,-1.550899982E0,8.886999488E-1,1.463400006E0
1.541999844E1,-2.019599915E0,1.500199914E0,1.225299954E0
1.543999844E1,-2.498499870E0,1.623600006E0,7.067999840E-1
1.546000000E1,-2.272799969E0,1.401899934E0,-3.828999996E-1
1.548999844E1,-2.032999992E0,1.800300002E0,-8.482999802E-1
1.550999844E1,-1.215099931E0,1.530699968E0,-1.474999934E-1
1.553000000E1,-1.881999969E-1,1.024699926E0,-1.701999903E-1
1.555999844E1,5.368999839E-1,7.777000070E-1,8.999999613E-3
1.557999844E1,1.665000021E-1,8.097999692E-1,5.899999738E-1
1.559999844E1,-1.383000016E-1,5.758000016E-1,6.313999891E-1
1.561999844E1,1.542999893E-1,1.908999979E-1,7.599999756E-2
1.563999844E1,4.239999950E-1,1.000999957E-1,-1.226499915E0
1.565999844E1,2.628000081E-1,3.569999933E-1,-9.842000008E-1
1.568000469E1,-6.575999856E-1,4.587999880E-1,5.992999673E-1
1.570999844E1,1.192299962E0,-1.970099926E0,7.117999792E-1
1.572999844E1,1.441900015E0,-2.598000050E0,-3.005000055E-1
1.574999844E1,1.372999996E-1,-2.731400013E0,-1.573899984E0
1.576999844E1,-1.684499979E0,-1.993499994E0,-2.032099962E0
1.579000000E1,-2.976999998E0,-1.287999988E0,-1.968400002E0
1.581000000E1,-3.014499903E0,-7.724999785E-1,-1.521499991E0
1.583999844E1,-6.974999905E-1,-9.979999810E-2,9.792999625E-1
1.585999844E1,8.298999667E-1,-4.625999928E-1,5.119999647E-1
1.588000156E1,1.082199931E0,-6.365000010E-1,-6.455999613E-1
1.590999844E1,-3.644999862E-1,3.163000047E-1,-1.607199907E0
1.592999844E1,-9.936999679E-1,9.649999738E-1,-2.306099892E0
1.594999844E1,-3.883999884E-1,-1.341999918E-1,-1.042999983E0
1.596999844E1,9.699999541E-2,-1.048099995E0,-5.643000007E-1
1.598999844E1,5.643000007E-1,-1.021099925E0,-1.861099958E0
1.600999844E1,4.029999971E-1,-7.149999589E-2,-3.092200041E0
1.603000000E1,-2.581000030E-1,8.914999962E-1,-1.793299913E0
1.606000000E1,-6.638999581E-1,6.746999621E-1,-7.699999958E-2
1.608002500E1,-1.556800008E0,7.371000051E-1,-6.818999648E-1
1.610999844E1,-2.364300013E0,9.308999777E-1,-9.677000046E-1
1.612999844E1,-1.876999974E0,8.489999920E-2,-1.958399892E0
1.614999844E1,-1.604900002E0,2.187999934E-1,-8.510999680E-1
1.616999844E1,5.020000041E-2,5.220999718E-1,-2.020400047E0
1.618999844E1,-5.047999620E-1,2.215600014E0,-6.176999807E-1
1.620999844E1,-1.181800008E0,1.282899976E0,-9.725999832E-1
1.622999844E1,-1.733399987E0,3.976999819E-1,-8.100000024E-2
1.624999844E1,-1.898399949E0,8.222999573E-1,5.861999989E-1
1.626999844E1,-6.779999733E-1,-4.263999760E-1,1.291599989E0
1.628999844E1,-9.319999814E-1,-5.920000002E-2,1.930499911E0
1.630999844E1,-1.123000026E0,5.853999853E-1,8.933999538E-1
1.632999844E1,-1.212000012E0,7.245999575E-1,-4.236999750E-1
1.634999844E1,-1.070099950E0,-2.339999974E-1,6.773999929E-1
1.636999844E1,-1.147899985E0,-1.104499936E0,2.457399845E0
1.638999844E1,-1.440500021E0,-2.836000025E-1,2.333499908E0
1.641000312E1,-8.649999648E-2,-5.593999624E-1,8.858999610E-1
1.643999844E1,1.774999946E-1,3.378999829E-1,-1.915599942E0
1.646000781E1,4.783999920E-1,8.313999772E-1,-9.422999620E-1
1.648999844E1,5.719999969E-2,8.087999821E-1,-6.766999960E-1
1.651000312E1,-6.064000130E-1,8.912000060E-1,-1.208599925E0
1.653999844E1,-9.359999895E-1,1.142899990E0,-1.419699907E0
1.656000469E1,-1.146000028E0,9.883999825E-1,-1.147199988E0
1.658999844E1,-1.288599968E0,9.811999798E-1,3.558000028E-1
1.661000000E1,-1.129499912E0,9.702999592E-1,9.939999878E-2
1.663999844E1,-1.644199967E0,7.312999964E-1,9.861999750E-1
1.666000156E1,-2.765899897E0,8.213999867E-1,3.034299850E0
1.668999844E1,-2.078899860E0,4.716999829E-1,1.631799936E0
1.670999844E1,-2.351599932E0,8.718999624E-1,2.918999910E0
1.672999844E1,-2.248800039E0,-2.064999938E-1,4.214699745E0
1.675000625E1,-2.193500042E0,3.039999865E-2,-9.794999957E-1
1.678002656E1,-7.213999629E-1,-1.075299978E0,-2.654999793E-1
1.681000000E1,1.139999926E-2,-1.845099926E0,-2.899299860E0
1.683999844E1,-2.007799864E0,-2.043499947E0,-1.611299992E0
1.685999844E1,-1.708699942E0,-1.594399929E0,-3.772999942E-1
1.688000000E1,-1.150099993E0,-7.328999639E-1,8.801999688E-1
1.690000469E1,-1.670399904E0,-9.121999741E-1,-9.299999475E-1
1.692999844E1,1.779000014E-1,-1.239699960E0,-2.844099998E0
1.695000625E1,2.470999956E-1,-7.658999562E-1,-3.451999903E0
1.697999844E1,-1.505299926E0,-2.354999930E-1,-2.877899885E0
1.699999844E1,-7.634999752E-1,-3.099999856E-3,-4.245699883E0
1.702000000E1,-1.369099975E0,4.323999882E-1,-5.543799877E0
1.704000000E1,-2.545000017E-1,4.520999789E-1,-3.251199961E0
1.706999844E1,2.656800032E0,3.459999859E-1,-3.902299881E0
1.708999844E1,2.410500050E0,9.648000002E-1,-3.442399979E0
1.710999844E1,3.357299805E0,1.292999983E0,-5.652299881E0
1.712999844E1,6.470599651E0,-8.867999911E-1,-6.211999893E0
1.714999844E1,7.107999802E0,-5.141200066E0,-6.637399673E0
1.716999844E1,2.274099827E0,-3.884999990E0,-3.985299826E0
1.718999844E1,8.021999598E-1,-1.289600015E0,-2.719300032E0
1.720999844E1,7.094299793E0,-4.295499802E0,-5.903199673E0
1.722999844E1,9.609499931E0,-9.256199837E0,-8.260399818E0
1.724999844E1,6.571699619E0,-8.008099556E0,-2.257799864E0
1.726999844E1,4.006199837E0,-5.786799908E0,1.780399919E0
1.728999844E1,3.557600021E0,-3.914199829E0,3.340799809E0
1.731001563E1,4.022099972E0,-4.292500019E0,3.727699995E0
1.733999844E1,8.704999685E-1,-4.446199894E0,1.365499973E0
1.735999844E1,-1.765499949E0,-4.417500019E0,-1.907499909E0
1.737999844E1,-2.594099998E0,-4.245800018E0,-3.367699862E0
1.739999844E1,-5.254999995E-1,-4.448999882E0,3.698000014E-1
1.741999844E1,-6.329999864E-2,-4.018300056E0,-4.939999804E-2
1.743999844E1,2.192699909E0,-4.054699898E0,-1.731999964E-1
1.745999844E1,4.588999748E0,-3.773000002E0,1.894999981E0
1.747999844E1,6.039499760E0,-2.748299837E0,3.458599806E0
1.749999844E1,8.493100166E0,-1.661899924E0,5.037499905E0
1.751999844E1,1.067070007E1,-2.085999995E-1,4.878999710E0
1.753999844E1,1.156159973E1,-4.030000046E-2,3.270900011E0
1.756000000E1,1.125430012E1,-5.090999603E-1,6.861000061E-1
1.758000000E1,8.251899719E0,-4.888999760E-1,6.276999712E-1
1.760999844E1,4.236599922E0,1.061699986E0,5.698100090E0
1.762999844E1,4.470999718E0,1.210399985E0,7.456999779E0
1.764999844E1,4.219699860E0,5.598499775E0,8.869899750E0
1.766999844E1,8.925000191E0,3.986599922E0,7.561999798E0
1.768999844E1,6.600100040E0,6.608699799E0,6.817999840E0
1.771000000E1,6.564799786E0,2.231299877E0,5.602900028E0
1.773000000E1,8.514999390E0,3.668999970E-1,4.794499874E0
1.775999844E1,7.461299896E0,-1.606199980E0,3.527799845E0
1.777999844E1,5.158199787E0,-9.452999830E-1,3.529500008E0
1.779999844E1,3.285499811E0,-2.131000012E-1,2.712999821E0
1.782000000E1,1.335099936E0,2.018199921E0,1.478099942E0
1.784000000E1,7.965999842E-1,1.012599945E0,9.228999615E-1
1.787000000E1,-2.895200014E0,1.617299914E0,1.578699946E0
1.789999844E1,-1.466599941E0,1.160099983E0,2.185600042E0
1.792000000E1,1.395999938E-1,-1.935199976E0,1.842399955E0
1.794999844E1,-8.203999996E-1,-2.862200022E0,-1.516000032E-1
1.797000000E1,1.232599974E0,-3.623600006E0,-1.126099944E0
1.799000000E1,3.556900024E0,-5.157299995E0,-3.174999952E0
1.801999844E1,4.284399986E0,-6.049799919E0,-4.678699970E0
1.804000000E1,4.577799797E0,-6.059400082E0,-5.780799866E0
1.806999844E1,3.908899784E0,-5.269199848E0,-3.105899811E0
1.808999844E1,1.447299957E0,-3.263099909E0,9.016999602E-1
1.811000000E1,1.765999943E-1,-2.052399874E0,2.293499947E0
1.813000000E1,-2.211999893E-1,-3.965999782E-1,1.532899976E0
1.815999844E1,2.315599918E0,-1.115000010E0,-6.933000088E-1
1.817999844E1,2.770499945E0,-1.406499982E0,-1.481199980E0
1.819999844E1,1.492599964E0,-1.190500021E0,-8.157999516E-1
1.821999844E1,1.215199947E0,-1.322399974E0,-5.766000152E-1
1.823999844E1,-1.583999991E-1,5.054000020E-1,-5.600999594E-1
1.825999844E1,-1.399999976E0,9.487999678E-1,-8.704999685E-1
1.827999844E1,-2.789599895E0,1.297799945E0,-1.980199933E0
1.829999844E1,-3.835500002E0,1.309499979E0,-2.619999886E0
1.831999844E1,-3.559499979E0,1.049999952E0,-2.885599852E0
1.833999844E1,-2.508899927E0,1.133199930E0,-2.532699823E0
1.835999844E1,-2.536399841E0,1.774999976E0,-2.212699890E0
1.837999844E1,-2.614399910E0,-5.913000107E-1,-2.409299850E0
1.839999844E1,-3.750699997E0,-5.266999602E-1,-1.738899946E0
1.841999844E1,-2.832299948E0,2.129999921E-2,-1.697099924E0
1.843999844E1,2.017000020E-1,-8.836999536E-1,-1.520699978E0
1.846000000E1,1.090899944E0,-7.924999595E-1,-1.194399953E0
1.848999844E1,2.019700050E0,1.671099901E0,-1.200999990E-1
1.850999844E1,1.645699978E0,2.240999937E0,-2.690399885E0
1.852999844E1,7.630999684E-1,9.271999598E-1,-3.273799896E0
1.854999844E1,-1.396099925E0,2.760399818E0,-4.424900055E0
1.856999844E1,-8.463000059E-1,2.750999928E0,-2.683699846E0
1.858999844E1,2.167999893E-1,-2.757999897E-1,-1.337999940E0
1.860999844E1,-1.296299934E0,-1.032299995E0,1.169999987E-1
1.862999844E1,-1.785599947E0,-2.548599958E0,9.860000014E-1
1.864999844E1,2.565000057E-1,-4.218999863E0,-2.023099899E0
1.866999844E1,2.006899834E0,-5.560199738E0,-4.936800003E0
1.868999844E1,1.439700007E0,-5.671899796E0,-7.067399979E0
1.870999844E1,-9.499999881E-1,-4.743099689E0,-4.532299995E0
1.872999844E1,-1.914899945E0,-4.955199718E0,-3.417299986E0
1.874999844E1,-4.675000012E-1,-5.199899673E0,-2.481499910E0
1.876999844E1,-1.449699998E0,-4.131000042E0,-2.296999931E0
1.878999844E1,-2.238199949E0,-3.200899839E0,-2.195299864E0
1.880999844E1,-1.679299951E0,-3.434000015E0,-3.058399916E0
1.882999844E1,-2.893999815E0,-2.963999987E0,-3.348699808E0
1.884999844E1,-3.784999847E0,-3.195600033E0,-1.751299977E0
1.887000000E1,-2.382699966E0,-3.983599901E0,-1.037599921E0
1.889000000E1,1.296700001E0,-4.928999901E0,-8.642999530E-1
1.891999844E1,5.530799866E0,-6.158099651E0,-5.659999698E-2
1.893999844E1,7.652099609E0,-7.697399616E0,-2.236099958E0
1.896000000E1,7.728999615E0,-9.369099617E0,-4.353399754E0
1.898999844E1,6.205399990E0,-7.897199631E0,-3.781399965E0
1.900999844E1,7.436899662E0,-7.735799789E0,-1.414299965E0
1.902999844E1,8.700599670E0,-7.728299618E0,1.184800029E0
1.904999844E1,6.561899662E0,-6.152699947E0,2.424399853E0
1.906999844E1,3.276499987E0,-2.725899935E0,4.044399738E0
1.908999844E1,3.031499863E0,-6.189999580E-1,4.368700027E0
1.911000000E1,5.228600025E0,-5.625999570E-1,5.546199799E0
1.913999844E1,8.350600243E0,-8.709999919E-2,7.134699821E0
1.915999844E1,8.820199966E0,1.920799971E0,5.897199631E0
1.918000000E1,7.073099613E0,3.920899868E0,4.428499699E0
1.920999844E1,3.128199816E0,7.152400017E0,4.381199837E0
1.922999844E1,1.336300015E0,7.752099991E0,4.462100029E0
1.924999844E1,-8.949999511E-2,7.679899693E0,3.888599873E0
1.926999844E1,-1.431999922E0,8.156599998E0,3.639400005E0
1.928999844E1,-2.049499989E0,8.370800018E0,3.259599924E0
1.930999844E1,-1.306999922E0,7.447199821E0,3.307799816E0
1.932999844E1,-7.026999593E-1,6.492799759E0,3.731400013E0
1.934999844E1,4.999999655E-4,5.699199677E0,3.858899832E0
1.936999844E1,3.601000011E-1,5.164199829E0,3.761699915E0
1.938999844E1,1.312399983E0,5.017399788E0,3.709499836E0
1.940999844E1,3.184299946E0,3.979099989E0,3.548399925E0
1.942999844E1,5.106400013E0,2.460500002E0,3.651000023E0
1.944999844E1,5.256599903E0,1.697899938E0,3.893899918E0
1.946999844E1,4.814699650E0,1.471799970E0,4.367499828E0
1.948999844E1,4.271599770E0,1.829699993E0,4.705299854E0
1.950999844E1,3.855099916E0,2.373399973E0,4.993599892E0
1.952999844E1,2.865999937E0,1.744399905E0,4.440799713E0
1.954999844E1,5.704999566E-1,2.647099972E0,5.328499794E0
1.956999844E1,1.538100004E0,1.978299975E0,5.765599728E0
1.958999844E1,5.732399940E0,-7.594999671E-1,4.642199993E0
1.960999844E1,9.303400040E0,-3.630299807E0,3.297999859E0
1.962999844E1,1.027549934E1,-5.316999912E0,2.523599863E0
1.964999844E1,9.371799469E0,-5.812099934E0,2.593199968E0
1.966999844E1,5.992300034E0,-3.983799934E0,2.700500011E0
1.968999844E1,3.155999899E0,-2.444599867E0,2.820499897E0
1.970999844E1,2.507200003E0,-2.267899990E0,2.900799990E0
1.972999844E1,1.990499973E0,-1.999499917E0,2.855700016E0
1.975000000E1,1.445299983E0,-2.057999849E0,2.323199987E0
1.977999844E1,1.022499919E0,-3.237999916E0,1.268700004E0
1.980000000E1,7.136999965E-1,-4.017199993E0,4.338999987E-1
1.982999844E1,-1.412999928E-1,-4.713099957E0,6.989999861E-2
1.984999844E1,4.309999943E-1,-6.211899757E0,1.860000007E-2
1.986999844E1,1.726599932E0,-8.270599365E0,-6.579999626E-2
1.989000000E1,2.781499863E0,-1.016829967E1,1.615999937E-1
1.991999844E1,3.164599895E0,-1.199119949E1,6.938999891E-1
1.993999844E1,3.168900013E0,-1.250299931E1,5.638999939E-1
1.996000000E1,2.284199953E0,-1.255469990E1,-3.346000016E-1
1.998999844E1,-2.223799944E0,-1.109490013E1,-7.468000054E-1
2.000999844E1,-4.051099777E0,-9.887000084E0,-7.877999544E-1
2.002999844E1,-5.498699665E0,-8.489500046E0,-1.283800006E0
2.004999844E1,-5.379899979E0,-8.529299736E0,-1.863699913E0
2.006999844E1,-2.641999960E0,-1.062129974E1,-1.966299891E0
2.008999844E1,-8.048999906E-1,-1.173689938E1,-1.423499942E0
2.011000000E1,-2.070999891E-1,-1.106459999E1,-3.985999823E-1
2.013999844E1,2.562500000E0,-1.067759991E1,-8.662999868E-1
2.016000000E1,3.347399950E0,-9.829199791E0,-8.848999739E-1
2.018000000E1,1.935799956E0,-8.421400070E0,-2.865000069E-1
2.020999844E1,1.031399965E0,-5.537999630E0,5.500999689E-1
2.022999844E1,2.475999832E0,-4.265199661E0,1.145299911E0
2.024999844E1,3.509999990E0,-2.267499924E0,1.934199929E0
2.026999844E1,4.117300034E0,-6.692999601E-1,2.071099997E0
2.028999844E1,4.084599972E0,1.086699963E0,2.541100025E0
2.030999844E1,4.826900005E0,1.554600000E0,1.501599908E0
2.032999844E1,4.933099747E0,2.590800047E0,1.165300012E0
2.034999844E1,5.012700081E0,3.689800024E0,7.410999537E-1
2.036999844E1,5.399600029E0,4.158499718E0,3.152999878E-1
2.039000000E1,6.668499947E0,4.886099815E0,9.660999775E-1
2.041999844E1,8.439399719E0,4.233999729E0,6.930999756E-1
2.043999844E1,7.571399689E0,3.835799932E0,1.777999997E0
2.045999844E1,6.823400021E0,3.169299841E0,3.580899954E0
2.047999844E1,5.742399693E0,3.488099813E0,6.050499916E0
2.049999844E1,7.966899872E0,4.940599918E0,1.005410004E1
2.051999844E1,1.377939987E1,3.477699995E0,1.188919926E1
2.053999844E1,1.662539864E1,1.311499953E0,1.149749947E1
2.055999844E1,1.451109982E1,1.020099998E0,1.020629978E1
2.057999844E1,1.110569954E1,1.652599931E0,7.385200024E0
2.059999844E1,8.331600189E0,2.588899851E0,5.578099728E0
2.061999844E1,6.393699646E0,2.553299904E0,5.476699829E0
2.063999844E1,4.309099674E0,1.613099933E0,5.288499832E0
2.066000000E1,2.062000036E0,1.107499957E0,5.384500027E0
2.068000000E1,5.748000145E-1,3.955999911E-1,5.473999977E0
2.070999844E1,6.213999987E-1,-1.423599958E0,3.852999926E0
2.072999844E1,1.039899945E0,-3.402999878E0,2.228999853E0
2.075000000E1,1.870399952E0,-5.329499722E0,9.278999567E-1
2.077000000E1,8.412999511E-1,-7.997099876E0,-2.377300024E0
2.079000000E1,-3.459499836E0,-1.052519989E1,-6.186599731E0
2.081000000E1,-7.180199623E0,-1.127680016E1,-6.855299950E0
2.083999844E1,-5.953099728E0,-1.236699963E1,-3.335199833E0
2.085999844E1,-3.124699831E0,-1.351559925E1,2.461999953E-1
2.087999844E1,-1.581200004E0,-1.453969955E1,9.997999668E-1
2.089999844E1,-1.362399936E0,-1.430679989E1,1.009799957E0
2.091999844E1,-1.563499928E0,-1.426089954E1,3.820999861E-1
2.093999844E1,-4.427999973E0,-1.171689987E1,1.419600010E0
2.095999844E1,-5.007800102E0,-9.796599388E0,3.088099957E0
2.097999844E1,-1.757399917E0,-8.959799767E0,2.684099913E0
2.099999844E1,4.546000004E0,-8.498899460E0,-8.496999741E-1
2.101999844E1,7.528899670E0,-6.238100052E0,-6.668200016E0
2.103999844E1,5.610599995E0,-2.501600027E0,-1.210149956E1
2.105999844E1,3.098599911E0,-9.395999908E-1,-8.329899788E0
2.107999844E1,9.745999575E-1,-1.845999956E-1,-7.220999599E-1
2.109999844E1,-8.249999583E-2,1.378700018E0,4.211899757E0
2.111999844E1,3.953999877E-1,3.290799856E0,5.606699944E0
2.113999844E1,3.006999791E-1,5.004499912E0,5.819799900E0
2.115999844E1,5.175999999E-1,7.444999695E0,6.372900009E0
2.118000000E1,4.449800014E0,8.808300018E0,4.882699966E0
2.120999844E1,1.010519981E1,6.971999645E0,-4.299999680E-3
2.122999844E1,7.990599632E0,7.245299816E0,-1.298399925E0
2.124999844E1,6.471399784E0,6.510900021E0,1.888499975E0
2.126999844E1,6.619799614E0,4.950200081E0,4.949999809E0
2.128999844E1,6.261699677E0,3.747900009E0,6.942999840E0
2.130999844E1,4.556699753E0,2.905499935E0,8.379099846E0
2.132999844E1,3.172799826E0,2.158699989E0,9.805399895E0
2.134999844E1,1.936299920E0,1.673799992E0,1.069689941E1
2.136999844E1,1.575199962E0,2.059299946E0,1.169509983E1
2.139000000E1,4.357299805E0,1.829899907E0,1.135389996E1
2.141999844E1,1.057119942E1,-1.970999986E-1,9.315799713E0
2.143999844E1,1.374819946E1,-2.432399988E0,8.021599770E0
2.145999844E1,1.487319946E1,-4.675299644E0,7.222499847E0
2.147999844E1,1.358299923E1,-5.938600063E0,7.521599770E0
2.149999844E1,1.120549965E1,-5.710299969E0,7.314999580E0
2.151999844E1,9.063699722E0,-4.947899818E0,5.699599743E0
2.153999844E1,6.736499786E0,-3.861399889E0,4.123300076E0
2.156000000E1,4.806600094E0,-3.595099926E0,3.099999905E0
2.158000000E1,2.819399834E0,-3.691799879E0,2.691999912E0
2.161000000E1,1.437500000E0,-5.171599865E0,2.315899849E0
2.163999844E1,1.752200007E0,-7.462599754E0,2.590800047E0
2.166000000E1,3.114599943E0,-9.533299446E0,2.596199989E0
2.168000156E1,4.434799671E0,-1.119339943E1,2.768100023E0
2.170999844E1,3.181799889E0,-1.133920002E1,2.935299873E0
2.172999844E1,2.669699907E0,-1.197719955E1,2.826499939E0
2.174999844E1,2.564800024E0,-1.221350002E1,3.424999952E0
2.176999844E1,2.994400024E0,-1.284169960E1,3.789299965E0
2.179000000E1,1.495999932E0,-1.240520000E1,4.049900055E0
2.181000000E1,-8.571999669E-1,-1.148110008E1,3.246099949E0
2.183000000E1,-2.985999823E0,-1.047839928E1,2.029399872E0
2.185000000E1,-4.175499916E0,-9.836400032E0,8.240000010E-1
2.187999844E1,-3.490299940E0,-1.025710011E1,2.465000004E-1
2.189999844E1,-2.721699953E0,-1.092889977E1,6.265000105E-1
2.191999844E1,-2.490499973E0,-1.051139927E1,1.092700005E0
2.193999844E1,-2.054399967E0,-9.605199814E0,1.270099998E0
2.195999844E1,-1.559599996E0,-8.418899536E0,8.288999796E-1
2.197999844E1,-7.853999734E-1,-7.764899731E0,-2.316999882E-1
2.199999844E1,-7.182999849E-1,-6.793999672E0,-5.194999576E-1
2.201999844E1,-1.357900023E0,-5.999099731E0,-2.399999946E-1
2.203999844E1,-2.533099890E0,-5.026799679E0,4.472999871E-1
2.205999844E1,-2.616199970E0,-3.981099844E0,1.318099976E0
2.207999844E1,-1.128799915E0,-3.581099987E0,9.730999470E-1
2.209999844E1,-8.579999954E-2,-3.234599829E0,3.306999803E-1
2.211999844E1,3.867000043E-1,-2.836799860E0,5.069999695E-1
2.213999844E1,1.611999989E0,-2.883699894E0,8.420000076E-1
2.216000000E1,3.960099936E0,-2.855799913E0,7.322999835E-1
2.218000000E1,6.249399662E0,-2.806399822E0,7.130999565E-1
2.220000000E1,8.527099609E0,-3.083199978E0,4.854999781E-1
2.222999844E1,1.095969963E1,-2.432299852E0,-2.621999979E-1
2.224999844E1,1.065040016E1,-7.339000106E-1,-3.659999967E-1
2.226999844E1,9.457099915E0,1.321599960E0,3.470999897E-1
2.228999844E1,8.619299889E0,3.017599821E0,1.220299959E0
2.231001563E1,7.837599754E0,4.915899754E0,2.519500017E0
2.233999844E1,9.624699593E0,4.841399670E0,4.034199715E0
2.235999844E1,1.108930016E1,4.087199688E0,4.638499737E0
2.237999844E1,1.090429974E1,3.272099972E0,5.001599789E0
2.239999844E1,9.486700058E0,3.280299902E0,6.281300068E0
2.241999844E1,6.905900002E0,3.749199867E0,6.305699825E0
2.243999844E1,3.758099794E0,4.274499893E0,5.380799770E0
2.245999844E1,1.318799973E0,4.921700001E0,4.037199974E0
2.247999844E1,1.523000002E-1,5.038799763E0,2.722699881E0
2.249999844E1,-1.196399927E0,4.587500095E0,1.364300013E0
2.251999844E1,-3.181499958E0,4.175899982E0,7.300999761E-1
2.253999844E1,-3.486799955E0,4.279500008E0,1.462700009E0
2.255999844E1,-6.872000098E-1,2.712999821E0,1.573199987E0
2.257999844E1,9.689999819E-1,1.299999952E0,1.338599920E0
2.259999844E1,6.405000091E-1,9.626999497E-1,2.267999887E0
2.261999844E1,1.987999976E-1,1.406099916E0,3.772699833E0
2.263999844E1,2.273200035E0,5.957999825E-1,3.754400015E0
2.265999844E1,5.437699795E0,-1.954899907E0,2.308399916E0
2.268000000E1,5.376399994E0,-4.510699749E0,2.700999975E-1
2.270999844E1,1.013800025E0,-5.267399788E0,1.269699931E0
2.272999844E1,-6.870000064E-2,-5.560599804E0,2.147500038E0
2.274999844E1,-1.969999969E-1,-5.739599705E0,2.244099855E0
2.276999844E1,-1.225999951E0,-5.588699818E0,1.266099930E0
2.278999844E1,-2.460099936E0,-5.198999882E0,4.878000021E-1
2.280999844E1,-4.141699791E0,-3.033799887E0,1.450999975E0
2.282999844E1,-3.859200001E0,-2.875000000E0,2.345999956E0
2.284999844E1,-3.381299973E0,-3.385900021E0,2.397599936E0
2.286999844E1,-2.948699951E0,-3.713799953E0,2.552399874E0
2.288999844E1,-1.071699977E0,-4.410200119E0,2.201299906E0
2.290999844E1,1.058099985E0,-4.836299896E0,1.066499949E0
2.292999844E1,1.393700004E0,-4.582099915E0,-3.084000051E-1
2.294999844E1,-4.704999924E-1,-3.490000010E0,-6.182999611E-1
2.296999844E1,-2.736599922E0,-2.156199932E0,3.147999942E-1
2.298999844E1,-4.214499950E0,-7.491999865E-1,1.164999962E0
2.300999844E1,-4.668900013E0,7.386999726E-1,1.440099955E0
2.302999844E1,-3.574699879E0,1.221400023E0,9.420999885E-1
2.304999844E1,-2.780799866E0,1.605199933E0,2.374999970E-1
2.306999844E1,-2.590199947E0,1.989599943E0,-1.269000024E-1
2.308999844E1,-1.979599953E0,1.832299948E0,-3.366999924E-1
2.310999844E1,-2.082200050E0,1.795399904E0,-7.680999637E-1
2.312999844E1,-2.148099899E0,1.944099903E0,-9.595999718E-1
2.314999844E1,-1.724099994E0,2.014400005E0,-8.079999685E-2
2.316999844E1,-9.150999784E-1,2.117100000E0,2.915000021E-1
2.318999844E1,-7.859999686E-2,2.038599968E0,-2.102999985E-1
2.320999844E1,5.970000029E-1,1.937599897E0,-8.603999615E-1
2.322999844E1,1.348899961E0,1.821799994E0,-9.794999957E-1
2.325000000E1,2.605499983E0,1.351999998E0,-9.210999608E-1
2.327000000E1,3.429099798E0,9.760999680E-1,-2.597000003E-1
2.329999844E1,4.840899944E0,-3.826999962E-1,7.932999730E-1
2.331999844E1,4.754199982E0,-3.987999856E-1,1.972799897E0
2.333999844E1,4.619299889E0,-4.987999797E-1,2.977999926E0
2.335999844E1,5.282999992E0,-1.677899957E0,2.543999910E0
2.337999844E1,5.725800037E0,-3.589299917E0,2.306799889E0
2.339999844E1,4.442800045E0,-4.453999996E0,2.549299955E0
2.341999844E1,2.529700041E0,-4.506799698E0,2.670899868E0
2.343999844E1,7.583999634E-1,-4.201600075E0,1.740000010E0
2.345999844E1,-1.496699929E0,-3.120399952E0,1.155499935E0
2.347999844E1,-4.202799797E0,-1.567999959E0,1.869799972E0
2.349999844E1,-5.806099892E0,-2.386999875E-1,2.033599854E0
2.351999844E1,-6.231800079E0,6.011999846E-1,7.184999585E-1
2.353999844E1,-6.133699894E0,1.689499974E0,2.875999808E-1
2.355999844E1,-5.229399681E0,1.830699921E0,4.098999798E-1
2.357999844E1,-4.044799805E0,1.615899920E0,7.444999814E-1
2.359999844E1,-2.478600025E0,8.186999559E-1,5.820999742E-1
2.361999844E1,-2.073400021E0,4.528999925E-1,1.027400017E0
2.363999844E1,-2.970399857E0,-3.049999848E-2,1.990499973E0
2.365999844E1,-3.761699915E0,-1.435000002E-1,3.091699839E0
2.368000000E1,-3.310499907E0,-4.745000005E-1,3.565599918E0
2.370999844E1,-2.081500053E0,-2.590000033E-1,3.578899860E0
2.372999844E1,-1.143800020E0,-3.419999778E-2,2.704699993E0
2.374999844E1,-8.309999853E-2,2.439999878E-1,1.618099928E0
2.376999844E1,1.257599950E0,3.904999793E-1,8.994999528E-1
2.378999844E1,3.075399876E0,-4.240999818E-1,8.646999598E-1
2.380999844E1,4.463599682E0,-1.008800030E0,1.881299973E0
2.382999844E1,4.429500103E0,-1.273100019E0,2.623800039E0
2.384999844E1,3.687399864E0,-1.676899910E0,2.263499975E0
2.386999844E1,2.983799934E0,-2.435600042E0,1.193199992E0
2.388999844E1,2.241299868E0,-2.376999855E0,2.468799829E0
2.390999844E1,1.129499912E0,-1.501799941E0,5.138799667E0
2.392999844E1,-1.439999938E-1,-2.854000032E-1,6.615499973E0
2.394999844E1,-4.939999804E-2,-2.109999955E-2,5.022900105E0
2.397000000E1,1.421000004E0,7.180000097E-2,1.355499983E0
2.399999844E1,2.712100029E0,-3.076999784E-1,-3.102399826E0
2.401999844E1,7.690999508E-1,-5.067999959E-1,-3.361099958E0
2.403999844E1,-1.929399967E0,-3.118000031E-1,-1.680899978E0
2.405999844E1,-3.528399944E0,6.313999891E-1,8.219999820E-2
2.407999844E1,-3.328799963E0,1.805099964E0,-4.999999702E-2
2.409999844E1,-3.002399921E0,2.740000010E0,-1.980599999E0
2.412000000E1,-3.048599958E0,3.511899948E0,-3.901299953E0
2.414999844E1,-1.713999987E0,4.098899841E0,-3.698199987E0
2.416999844E1,3.799999878E-2,3.640499830E0,-1.851199985E0
2.418999844E1,1.240000010E0,2.557199955E0,-5.852999687E-1
2.420999844E1,1.520599961E0,1.453400016E0,-8.549999446E-2
2.422999844E1,2.507299900E0,3.447999954E-1,-1.140000001E-1
2.424999844E1,3.918999910E0,3.839999810E-2,1.032400012E0
2.427000000E1,5.411499977E0,-4.154999852E-1,2.609799862E0
2.429000000E1,5.212299824E0,-1.060699940E0,2.577899933E0
2.431999844E1,4.518499851E0,-1.078199983E0,1.422699928E0
2.433999844E1,6.415299892E0,-1.598899961E0,1.049899936E0
2.435999844E1,6.006700039E0,1.402999908E-1,1.236999989E0
2.437999844E1,5.100800037E0,6.247999668E-1,9.835000038E-1
2.439999844E1,4.893699646E0,-2.191900015E0,-2.277999967E-1
2.441999844E1,3.201699972E0,-5.361000061E0,-1.801699996E0
2.443999844E1,-1.891399980E0,-5.906399727E0,-1.745199919E0
2.445999844E1,-6.193599701E0,-4.191999912E0,-1.432999969E-1
2.447999844E1,-6.878200054E0,-1.941599965E0,1.390900016E0
2.449999844E1,-5.865799904E0,-1.055999994E-1,7.696999907E-1
2.451999844E1,-4.960700035E0,2.007299900E0,-1.806999892E-1
2.454000000E1,-4.093299866E0,3.133699894E0,-1.770399928E0
2.456999844E1,-4.863800049E0,3.641699791E0,-5.164499760E0
2.458999844E1,-3.746099949E0,2.760900021E0,-5.274199963E0
2.460999844E1,-1.412699938E0,7.440999746E-1,-3.355599880E0
2.463000000E1,1.139400005E0,-1.077799916E0,-1.577399969E0
2.465000000E1,3.518999815E0,-3.075199842E0,-4.597999752E-1
2.468000156E1,2.220999956E0,-4.313799858E0,2.870299816E0
2.470999844E1,6.764999628E-1,-4.965499878E0,6.295399666E0
2.472999844E1,1.878699899E0,-4.681600094E0,5.463299751E0
2.474999844E1,3.482699871E0,-3.737799883E0,4.160399914E0
2.476999844E1,5.271599770E0,-3.113600016E0,3.306599855E0
2.478999844E1,3.446599960E0,-6.549999714E-1,2.555399895E0
2.481000000E1,3.791999817E-1,1.625499964E0,4.246099949E0
2.483999844E1,-2.293200016E0,2.471600056E0,4.970900059E0
2.485999844E1,-2.219999954E-2,1.565699935E0,1.513599992E0
2.487999844E1,3.910399914E0,-1.501999944E-1,-2.195899963E0
2.489999844E1,4.775700092E0,-9.569000006E-1,-5.093800068E0
2.491999844E1,1.730299950E0,-2.262300014E0,-4.363999844E0
2.493999844E1,-1.825699925E0,-2.665299892E0,1.270999908E-1
2.496000000E1,-3.466799974E0,-8.362999558E-1,3.873499870E0
2.498999844E1,-2.006599903E0,2.914399862E0,3.530999899E0
2.500999844E1,-1.510199904E0,5.339499950E0,9.733999968E-1
2.502999844E1,-1.599699974E0,7.056399822E0,-2.586899996E0
2.504999844E1,-2.386399984E0,8.455299377E0,-5.710499763E0
2.507000000E1,-2.205199957E0,8.866600037E0,-7.085199833E0
2.509999844E1,-6.747999787E-1,7.837100029E0,-4.892199993E0
2.511999844E1,-5.805999637E-1,6.761699677E0,-2.878299952E0
2.513999844E1,5.390999913E-1,5.030499935E0,-1.022199988E0
2.515999844E1,3.084399939E0,3.258399963E0,9.099999443E-3
2.518000000E1,5.140899658E0,2.793799877E0,5.339999869E-2
2.520999844E1,6.863999844E0,3.286599874E0,-1.212199926E0
2.522999844E1,9.228199959E0,1.788199902E0,-1.940599918E0
2.525000000E1,9.484000206E0,1.293299913E0,-1.988499999E0
2.527000156E1,7.568599701E0,3.395499945E0,-1.248999983E-1
2.529999844E1,6.692399979E0,4.529500008E0,2.424999952E0
2.531999844E1,6.173500061E0,4.684499741E0,3.562199831E0
2.533999844E1,6.193099976E0,3.744699955E0,3.092599869E0
2.535999844E1,8.001099586E0,1.071799994E0,1.778199911E0
2.537999844E1,1.077190018E1,-2.653399944E0,1.360299945E0
2.539999844E1,1.197200012E1,-5.558799744E0,1.662999988E0
2.541999844E1,8.946800232E0,-4.260900021E0,2.998899937E0
2.543999844E1,5.295700073E0,-2.748399973E0,3.750199795E0
2.545999844E1,2.478199959E0,-1.369199991E0,3.135499954E0
2.547999844E1,3.770000041E-1,-2.273999900E-1,1.782799959E0
2.549999844E1,-9.038999677E-1,6.789999604E-1,5.914999843E-1
2.551999844E1,-2.143800020E0,4.414999783E-1,-8.994999528E-1
2.553999844E1,-2.680599928E0,-5.976999998E-1,-1.210299969E0
2.555999844E1,-2.681200027E0,-2.198999882E0,-2.206500053E0
2.557999844E1,-1.722799897E0,-4.187599659E0,-1.047500014E0
2.559999844E1,-3.640999794E-1,-6.855899811E0,2.126999944E-1
2.561999844E1,-1.102599978E0,-8.110699654E0,1.329599977E0
2.563999844E1,-2.422399998E0,-8.927000046E0,2.020099878E0
2.565999844E1,-3.153599977E0,-9.027899742E0,2.941499949E0
2.568000000E1,-3.226699829E0,-9.373999596E0,2.928599834E0
2.570999844E1,-2.880499840E0,-1.016109943E1,2.173500061E0
2.572999844E1,-2.641000032E0,-1.029729939E1,1.184899926E0
2.574999844E1,-2.986699820E0,-9.396699905E0,-3.041000068E-1
2.576999844E1,-3.841300011E0,-7.851299763E0,-1.367699981E0
2.578999844E1,-3.954999924E0,-6.761899948E0,-1.863499999E0
2.581000000E1,-3.730799913E0,-6.663300037E0,-2.074199915E0
2.583999844E1,-3.595399857E0,-5.998600006E0,-1.204699993E0
2.585999844E1,-1.700999975E0,-6.217199802E0,-6.056999564E-1
2.587999844E1,1.260900021E0,-8.213500023E0,-6.851999760E-1
2.589999844E1,1.322600007E0,-8.736199379E0,-8.969999850E-2
2.591999844E1,-4.705999792E-1,-6.861399651E0,2.523900032E0
2.593999844E1,2.989999950E-1,-4.735899925E0,4.669600010E0
2.595999844E1,3.885799885E0,-2.588500023E0,5.172100067E0
2.597999844E1,5.462500095E0,-8.229999542E-1,4.401599884E0
2.599999844E1,2.773200035E0,1.156999946E0,3.127799988E0
2.601999844E1,1.180299997E0,1.669799924E0,2.573199987E0
2.603999844E1,1.862399936E0,8.180999756E-1,1.838099957E0
2.605999844E1,2.371899843E0,4.195999801E-1,9.215999842E-1
2.607999844E1,2.066799879E0,4.416999817E-1,4.558999836E-1
2.609999844E1,1.992199898E0,8.324999809E-1,9.582999945E-1
2.611999844E1,3.396999836E0,1.181200027E0,1.250399947E0
2.613999844E1,4.814399719E0,1.861999989E0,7.843999863E-1
2.615999844E1,5.215199947E0,2.607499838E0,-7.391999960E-1
2.617999844E1,4.644499779E0,3.452199936E0,-2.729399920E0
2.619999844E1,4.128099918E0,3.494199991E0,-3.896299839E0
2.621999844E1,3.579799891E0,4.196199894E0,-2.321399927E0
2.623999844E1,5.461499691E0,3.320299864E0,8.086999655E-1
2.625999844E1,7.057099819E0,2.871799946E0,3.823899984E0
2.628000000E1,8.562699318E0,2.369999886E-1,3.970999956E0
2.630999844E1,7.302199841E0,-2.094500065E0,2.139699936E0
2.632999844E1,4.861999989E0,-2.744299889E0,2.799099922E0
2.634999844E1,1.808699965E0,-2.220200062E0,4.230899811E0
2.637000000E1,2.022999972E-1,-1.358699918E0,3.807099819E0
2.639999844E1,-1.300599933E0,1.285099983E0,7.799999714E-1
2.641999844E1,-3.011600018E0,2.713699818E0,-4.036999941E-1
2.643999844E1,-4.283899784E0,3.918999910E0,-3.707000017E-1
2.645999844E1,-4.776199818E0,4.419799805E0,-1.022599936E0
2.647999844E1,-5.185999870E0,4.554699898E0,-2.262099981E0
2.649999844E1,-4.270499706E0,4.042200089E0,-2.615499973E0
2.651999844E1,-2.380599976E0,2.924099922E0,-1.294399977E0
2.653999844E1,-1.349000037E-1,1.592399955E0,5.791999698E-1
2.655999844E1,1.606799960E0,-1.143899918E0,2.333999872E-1
2.657999844E1,1.242900014E0,-1.904699922E0,-7.687999606E-1
2.659999844E1,2.111299992E0,-2.588299990E0,-8.316999674E-1
2.661999844E1,3.943099976E0,-3.897399902E0,-6.559999585E-1
2.663999844E1,3.786299944E0,-5.423099995E0,1.342199922E0
2.665999844E1,-3.461000025E-1,-4.097700119E0,4.499599934E0
2.667999844E1,-4.109099865E0,-4.828999937E-1,6.843899727E0
2.669999844E1,-9.714999795E-1,-7.996000051E-1,4.742399693E0
2.671999844E1,1.752299905E0,1.262499928E0,2.491199970E0
2.673999844E1,4.360899925E0,1.780599952E0,3.154699802E0
2.676000000E1,6.356400013E0,-7.461999655E-1,3.184599876E0
2.678000000E1,5.096899986E0,-1.868199944E0,1.705899954E0
2.680000000E1,2.787099838E0,-7.569999695E-1,-7.680000067E-1
2.682000000E1,1.395099998E0,7.389999926E-2,-4.186599731E0
2.684000000E1,-1.787000000E-1,7.166999578E-1,-6.133999825E0
2.686000000E1,-7.161999941E-1,1.649799943E0,-5.106299877E0
2.688999844E1,-2.218099833E0,4.315599918E0,-3.879599810E0
2.690999844E1,-3.274899960E0,4.605199814E0,-5.435499668E0
2.692999844E1,-4.175499916E0,5.100100040E0,-6.064799786E0
2.694999844E1,-3.745399952E0,4.493199825E0,-5.144999981E0
2.696999844E1,-2.614300013E0,3.270200014E0,-2.398599863E0
2.698999844E1,-2.081099987E0,1.849099994E0,2.621999979E-1
2.700999844E1,-1.410099983E0,9.425999522E-1,1.670199990E0
2.702999844E1,-2.106999904E-1,-2.806999981E-1,8.531999588E-1
2.704999844E1,7.771999836E-1,-9.754999876E-1,4.564999938E-1
2.706999844E1,1.289600015E0,-9.356999993E-1,8.895999789E-1
2.708999844E1,2.306099892E0,-6.252999902E-1,1.220199943E0
2.711000000E1,4.134500027E0,5.769999698E-2,9.144999981E-1
2.713999844E1,4.943200111E0,4.012899876E0,-2.556999922E-1
2.715999844E1,6.821099758E0,4.868000031E0,-1.314499974E0
2.717999844E1,7.479099751E0,5.519299984E0,-1.585299969E0
2.719999844E1,9.596899986E0,3.679199934E0,-7.012999654E-1
2.721999844E1,1.158500004E1,1.021399975E0,1.009999961E-2
2.723999844E1,1.098670006E1,-1.319700003E0,-7.228999734E-1
2.725999844E1,8.500499725E0,-2.401900053E0,-3.586999774E-1
2.728000000E1,5.407399654E0,-1.969099998E0,5.737999678E-1
2.731001563E1,2.419100046E0,-3.597999811E-1,1.016700029E0
2.733999844E1,1.370199919E0,4.190999866E-1,1.679799914E0
2.735999844E1,1.035999954E-1,8.825999498E-1,1.994099975E0
2.738000000E1,-8.873999715E-1,4.314000010E-1,1.885699987E0
2.740000000E1,-1.824899912E0,-4.403999746E-1,1.502499938E0
2.742999844E1,-2.651799917E0,-1.997699976E0,1.385999918E0
2.745000000E1,-3.415999889E0,-4.098000050E0,-1.028999984E-1
2.747999844E1,-6.771199703E0,-7.554199696E0,-3.321799994E0
2.749999844E1,-8.380299568E0,-8.279299736E0,-3.984599829E0
2.751999844E1,-6.395299911E0,-9.203100204E0,-3.028899908E0
2.753999844E1,-2.187099934E0,-1.111069965E1,-2.009500027E0
2.755999844E1,9.916999936E-1,-1.294670010E1,-8.507999778E-1
2.757999844E1,3.132999837E-1,-1.247149944E1,8.220999837E-1
2.759999844E1,-3.436499834E0,-9.533899307E0,2.718600035E0
2.762000000E1,-2.440700054E0,-9.784099579E0,2.487299919E0
2.764999844E1,-1.067799926E0,-7.246500015E0,1.538900018E0
2.766999844E1,5.482999682E-1,-6.491699696E0,1.812299967E0
2.769000000E1,2.723099947E0,-7.603999615E0,2.065500021E0
2.771000000E1,3.956099987E0,-8.903100014E0,1.766999960E0
2.773000000E1,2.431299925E0,-6.798699856E0,2.843600035E0
2.775000000E1,1.682999969E0,-4.563099861E0,2.355900049E0
2.777999844E1,1.026299953E0,-1.230799913E0,1.606899977E0
2.780000000E1,-1.889999956E-1,1.243499994E0,1.878600001E0
2.782999844E1,-2.220900059E0,3.835299969E0,1.216099977E0
2.784999844E1,-3.560999870E0,5.337800026E0,5.399999619E-1
2.786999844E1,-2.980199814E0,5.539099693E0,-4.163999856E-1
2.788999844E1,-1.235899925E0,4.229899883E0,-1.622499943E0
2.790999844E1,-6.159999967E-1,3.174099922E0,-2.432100058E0
2.792999844E1,-1.447999954E0,4.273399830E0,-1.185199976E0
2.795000000E1,5.382999778E-1,4.973799706E0,-8.129999638E-1
2.797999844E1,7.244299889E0,3.153399944E0,-1.947199941E0
2.799999844E1,8.725999832E0,2.486999989E0,-5.248000026E-1
2.801999844E1,9.523300171E0,2.539599895E0,1.880899906E0
2.803999844E1,1.086040020E1,3.043299913E0,4.103699684E0
2.805999844E1,1.119309998E1,5.303799629E0,5.999099731E0
2.807999844E1,1.086789989E1,6.470900059E0,6.821499825E0
2.809999844E1,8.379300117E0,7.403899670E0,6.510799885E0
2.811999844E1,7.157799721E0,6.952499866E0,6.561599731E0
2.813999844E1,9.491700172E0,4.116499901E0,6.004299641E0
2.815999844E1,1.204199982E1,4.012999833E-1,5.605000019E0
2.817999844E1,1.207769966E1,-2.214299917E0,5.429399967E0
2.819999844E1,1.096689987E1,-3.515199900E0,5.471499920E0
2.821999844E1,9.333299637E0,-3.625299931E0,4.747399807E0
2.823999844E1,6.901799679E0,-2.850800037E0,3.082799911E0
2.825999844E1,3.755699873E0,-1.594200015E0,2.101099968E0
2.827999844E1,1.717000008E0,-1.110999942E0,1.902799964E0
2.829999844E1,5.789999962E-1,-1.725899935E0,1.684299946E0
2.831999844E1,-7.639999688E-2,-2.490000010E0,1.326399922E0
2.833999844E1,-5.212999582E-1,-3.241699934E0,1.357800007E0
2.835999844E1,-2.035999894E-1,-5.120100021E0,1.555599928E0
2.838000000E1,9.999999776E-3,-6.910699844E0,1.770200014E0
2.840999844E1,-1.221999973E-1,-8.659199715E0,1.756099939E0
2.842999844E1,6.538999677E-1,-9.924300194E0,5.139999986E-1
2.844999844E1,1.889899969E0,-1.153479958E1,-6.703999639E-1
2.846999844E1,2.224999905E0,-1.259079933E1,-1.629499912E0
2.848999844E1,4.967999756E-1,-1.186259937E1,-1.788100004E0
2.850999844E1,-2.152799845E0,-1.027429962E1,-1.251799941E0
2.852999844E1,-4.113199711E0,-8.724800110E0,-6.013999581E-1
2.854999844E1,-4.626599789E0,-8.780599594E0,-6.341999769E-1
2.856999844E1,-5.137599945E0,-7.898200035E0,-1.187999994E-1
2.858999844E1,-4.333099842E0,-8.063799858E0,-6.809999794E-2
2.860999844E1,-2.679399967E0,-8.996699333E0,-1.062999964E-1
2.862999844E1,-2.787799835E0,-9.879099846E0,-3.404999971E-1
2.864999844E1,-3.138399839E0,-9.153299332E0,1.161299944E0
2.866999844E1,-1.372999907E0,-7.524600029E0,2.277899981E0
2.868999844E1,2.581399918E0,-5.159499645E0,2.156800032E0
2.870999844E1,5.094699860E0,-2.615399837E0,8.381999731E-1
2.872999844E1,4.041100025E0,-7.759000063E-1,-1.310999990E-1
2.874999844E1,8.492999673E-1,2.392999977E-1,-4.074999988E-1
2.876999844E1,-1.792799950E0,1.411999941E0,-2.080999911E-1
2.878999844E1,-3.118599892E0,2.539999962E0,-6.290000081E-1
2.880999844E1,-2.711199999E0,3.523699999E0,-1.390699983E0
2.882999844E1,-2.276799917E0,4.472399712E0,-1.356499910E0
2.884999844E1,-1.576399922E0,5.173799992E0,-1.185999960E-1
2.886999844E1,3.037000000E-1,5.025599957E0,7.228999734E-1
2.888999844E1,1.004899979E0,5.101099968E0,1.074199915E0
2.890999844E1,2.357599974E0,5.188099861E0,1.563499928E0
2.892999844E1,3.916199923E0,4.257800102E0,1.176399946E0
2.895000000E1,3.849099874E0,3.762300014E0,8.165000081E-1
2.897999844E1,2.282899857E0,4.637099743E0,1.152899981E0
2.899999844E1,2.523099899E0,4.636799812E0,1.360899925E0
2.901999844E1,2.260400057E0,4.765999794E0,2.389400005E0
2.903999844E1,3.697899818E0,4.001199722E0,3.867599964E0
2.905999844E1,7.625799656E0,1.193099976E0,3.233999968E0
2.907999844E1,9.767999649E0,-3.770999908E-1,2.616400003E0
2.909999844E1,1.078469944E1,-1.812599897E0,2.526999950E0
2.911999844E1,9.717199326E0,-1.999599934E0,2.580600023E0
2.913999844E1,7.108299732E0,-1.106799960E0,2.903100014E0
2.915999844E1,4.588900089E0,-7.390999794E-1,2.383299828E0
2.918000000E1,2.268800020E0,2.261999995E-1,2.601099968E0
2.920999844E1,4.752999842E-1,6.050999761E-1,2.396699905E0
2.922999844E1,-9.343999624E-1,7.315999866E-1,2.136499882E0
2.924999844E1,-2.359299898E0,4.578999877E-1,1.698399901E0
2.926999844E1,-3.333099842E0,-4.244000018E-1,1.164399981E0
2.928999844E1,-3.803099871E0,-1.201799989E0,6.327999830E-1
2.931000000E1,-3.610800028E0,-2.319099903E0,-5.169999972E-2
2.933000000E1,-2.747400045E0,-4.095900059E0,-5.471999645E-1
2.935999844E1,-2.678999901E0,-5.930699825E0,-1.139400005E0
2.937999844E1,-3.311399937E0,-6.073999882E0,-1.079800010E0
2.939999844E1,-2.815299988E0,-7.122399807E0,-1.243399978E0
2.941999844E1,-2.814499855E0,-8.133099556E0,-2.082799911E0
2.943999844E1,-3.856199980E0,-8.320599556E0,-2.232199907E0
2.945999844E1,-5.081599712E0,-7.820099831E0,-1.627599955E0
2.947999844E1,-5.032000065E0,-7.686899662E0,-7.390999794E-1
2.949999844E1,-4.341300011E0,-7.552099705E0,-5.651999712E-1
2.951999844E1,-3.687500000E0,-5.805099964E0,7.863999605E-1
2.954000000E1,-1.077499986E0,-5.693199635E0,2.024899960E0
2.956999844E1,2.542799950E0,-7.261099815E0,2.647099972E0
2.958999844E1,2.088599920E0,-7.464799881E0,2.933099985E0
2.960999844E1,1.749599934E0,-6.902899742E0,3.125699997E0
2.962999844E1,2.193599939E0,-5.298500061E0,2.242100000E0
2.964999844E1,2.255899906E0,-2.799999952E0,1.324699998E0
2.966999844E1,1.414699912E0,-2.467999905E-1,8.784999847E-1
2.968999844E1,2.213999927E-1,2.342999935E0,5.873000026E-1
2.970999844E1,2.615000010E-1,4.537600040E0,-9.469999671E-1
2.972999844E1,1.950999975E0,5.793200016E0,-2.091199875E0
2.974999844E1,2.711299896E0,6.285999775E0,-2.613100052E0
2.976999844E1,1.803099990E0,6.077699661E0,-1.736299992E0
2.978999844E1,1.347000003E0,6.268599987E0,3.384999931E-1
2.981000000E1,2.204699993E0,6.444999695E0,1.719699979E0
2.983999844E1,4.512000084E0,6.258800030E0,1.882299900E0
2.986000000E1,4.753099918E0,6.297199726E0,1.919899940E0
2.988000000E1,5.168399811E0,5.560400009E0,2.187999964E0
2.990000000E1,5.328899860E0,4.641999722E0,2.447099924E0
2.992999844E1,5.322400093E0,3.796099901E0,3.655099869E0
2.994999844E1,5.028100014E0,3.380199909E0,4.146100044E0
2.997000000E1,4.763199806E0,2.715600014E0,4.106699944E0
2.999999844E1,5.172800064E0,1.755199909E0,4.938299656E0
3.001999844E1,7.169499874E0,-4.109999835E-1,4.527800083E0
3.004000000E1,8.130800247E0,-2.423799992E0,3.652199984E0
3.006999844E1,6.867399693E0,-3.033900023E0,3.941299915E0
3.008999844E1,6.860399723E0,-3.510599852E0,3.692699909E0
3.010999844E1,5.833299637E0,-2.978799820E0,3.337599993E0
3.012999844E1,3.532199860E0,-1.932799935E0,2.910099983E0
3.014999844E1,1.190099955E0,-1.079800010E0,2.659499884E0
3.016999844E1,-5.970999599E-1,-8.951999545E-1,2.423599958E0
3.019000000E1,-1.953199983E0,-1.073599935E0,1.910299897E0
3.021999844E1,-3.264899969E0,-2.037299871E0,9.818999767E-1
3.023999844E1,-3.003799915E0,-3.396299839E0,3.055000007E-1
3.025999844E1,-2.032899857E0,-5.315099716E0,-1.334999949E-1
3.027999844E1,-1.707700014E0,-7.088500023E0,-4.784999788E-1
3.029999844E1,-1.894599915E0,-8.349299431E0,-4.258999825E-1
3.031999844E1,-2.856199980E0,-8.047299385E0,9.789999574E-2
3.033999844E1,-3.226199865E0,-7.699199677E0,6.286999583E-1
3.036000000E1,-3.072299957E0,-8.291600227E0,6.071999669E-1
3.038999844E1,-3.749199867E0,-8.740900040E0,4.645999968E-1
3.040999844E1,-4.606999874E0,-8.003199577E0,6.416000128E-1
3.042999844E1,-3.907099962E0,-7.937199593E0,2.811000049E-1
3.044999844E1,-3.058199883E0,-7.159299850E0,5.710999966E-1
3.047000000E1,-2.342499971E0,-6.459300041E0,1.126899958E0
3.049999844E1,-1.121999979E0,-6.848499775E0,1.629999995E0
3.051999844E1,-9.982999563E-1,-7.340600014E0,1.676100016E0
3.053999844E1,-1.142199993E0,-6.849699974E0,2.058199883E0
3.055999844E1,1.834999919E-1,-6.419899940E0,1.944399953E0
3.057999844E1,1.556399941E0,-5.374700069E0,1.605099916E0
3.059999844E1,1.327499986E0,-3.266799927E0,1.805499911E0
3.061999844E1,-4.380000010E-2,-1.293499947E0,2.183500051E0
3.063999844E1,-9.259999990E-1,2.049999870E-2,2.222399950E0
3.066000000E1,-1.309399962E0,9.978999496E-1,2.004600048E0
3.068000000E1,-9.609999508E-2,1.363899946E0,1.517899990E0
3.070999844E1,1.600399971E0,1.793299913E0,3.079999983E-2
3.072999844E1,1.396199942E0,3.010399818E0,-8.732999563E-1
3.074999844E1,2.095299959E0,3.723099947E0,-1.762300014E0
3.076999844E1,4.212800026E0,3.427099943E0,-1.953399897E0
3.078999844E1,7.041899681E0,2.697599888E0,-2.308699846E0
3.080999844E1,8.042599678E0,3.359499931E0,-2.478699923E0
3.082999844E1,8.301899910E0,4.008299828E0,-2.547799826E0
3.084999844E1,8.251500130E0,4.351399899E0,-1.391999960E0
3.086999844E1,7.398299694E0,4.705999851E0,3.843999803E-1
3.088999844E1,6.106599808E0,5.140699863E0,1.789199948E0
3.090999844E1,4.932499886E0,6.509599686E0,3.484099865E0
3.092999844E1,5.881899834E0,6.565599918E0,4.478399754E0
3.094999844E1,8.267099380E0,4.630199909E0,3.596599817E0
3.097000000E1,9.446700096E0,2.425799847E0,2.322799921E0
3.099999844E1,8.582300186E0,5.781999826E-1,1.721799970E0
3.101999844E1,7.105299950E0,5.026000142E-1,1.964599967E0
3.103999844E1,5.411299706E0,2.384999990E-1,1.552699924E0
3.105999844E1,2.974900007E0,4.668999910E-1,9.577999711E-1
3.107999844E1,1.159899950E0,6.516000032E-1,1.207899928E0
3.109999844E1,2.452999949E-1,1.939999908E-1,1.091599941E0
3.111999844E1,-4.116999805E-1,-5.953999758E-1,9.153999686E-1
3.113999844E1,-1.082700014E0,-1.610000014E0,3.874000013E-1
3.115999844E1,-1.743600011E0,-2.604699850E0,-5.999999703E-4
3.117999844E1,-1.467299938E0,-4.230000019E0,1.182999983E-1
3.119999844E1,-8.131999969E-1,-5.314399719E0,1.473999918E-1
3.121999844E1,-1.439999975E-2,-6.834099770E0,-2.299999893E-1
3.123999844E1,-7.231999636E-1,-7.813799858E0,-6.606000066E-1
3.125999844E1,-2.071099997E0,-8.050799370E0,-8.195999861E-1
3.127999844E1,-3.227900028E0,-8.264299393E0,-5.254999995E-1
3.129999844E1,-4.633699894E0,-8.296699524E0,-4.484999776E-1
3.131999844E1,-6.036299706E0,-8.457200050E0,-6.567999721E-1
3.133999844E1,-6.299799919E0,-8.661499977E0,-5.029000044E-1
3.135999844E1,-5.109600067E0,-8.494299889E0,3.165999949E-1
3.137999844E1,-3.380299807E0,-7.791899681E0,1.891099930E0
3.139999844E1,-1.077899933E0,-7.706899643E0,2.683199883E0
3.141999844E1,1.678999960E-1,-7.279599667E0,2.476399899E0
3.143999844E1,7.030999660E-1,-6.443599701E0,2.158299923E0
3.145999844E1,1.664600015E0,-5.847699642E0,1.087399960E0
3.147999844E1,1.655200005E0,-4.113999844E0,-3.082999885E-1
3.149999844E1,6.517999768E-1,-1.864099979E0,-1.253999949E0
3.151999844E1,-1.225299954E0,2.272000015E-1,-1.477800012E0
3.153999844E1,-2.854799986E0,1.746500015E0,-9.557999969E-1
3.155999844E1,-3.236699820E0,2.261399984E0,-5.142999887E-1
3.158000156E1,-3.145099878E0,3.126199961E0,-7.109000087E-1
3.160999844E1,-1.988299966E0,4.337999821E0,-2.154500008E0
3.162999844E1,-5.803999901E-1,4.798500061E0,-2.895200014E0
3.164999844E1,6.886000037E-1,4.665899754E0,-2.338500023E0
3.166999844E1,2.098099947E0,5.031300068E0,-9.070999622E-1
3.168999844E1,3.415099859E0,5.964600086E0,-3.069999814E-1
3.170999844E1,4.889800072E0,6.687200069E0,-4.720999897E-1
3.172999844E1,5.298399925E0,7.009399891E0,-6.577000022E-1
3.174999844E1,5.030600071E0,6.866799831E0,3.610000014E-2
3.176999844E1,4.382599831E0,7.001800060E0,1.047299981E0
3.178999844E1,4.336999893E0,7.373299599E0,1.677999973E0
3.181000000E1,7.166499615E0,4.751999855E0,1.928900003E0
3.183000000E1,9.317399979E0,2.457799911E0,3.728999853E0
3.185000000E1,1.345149994E1,1.805000007E-1,5.919799805E0
3.187999844E1,1.998509979E1,-7.639999866E0,2.123399973E0
3.189999844E1,1.700939941E1,-8.317099571E0,2.906399965E0
3.191999844E1,9.220099449E0,-4.690499783E0,6.609399796E0
3.193999844E1,2.729300022E0,-1.509400010E0,7.978799820E0
3.196000000E1,-5.568000078E-1,9.141999483E-1,7.498600006E0
3.198000000E1,-1.245100021E0,1.794199944E0,5.519399643E0
3.200999844E1,-2.343299866E0,1.948399901E0,1.207799911E0
3.202999844E1,-4.568900108E0,3.626999855E0,8.269999921E-2
3.204999844E1,-4.739799976E0,4.311599731E0,-6.001999974E-1
3.206999844E1,-2.405599833E0,3.127199888E0,-2.075999975E-1
3.208999844E1,3.623999953E-1,1.127999946E-1,9.067999721E-1
3.210999844E1,2.782099962E0,-4.463200092E0,2.030400038E0
3.212999844E1,4.168399811E0,-9.714300156E0,2.163499832E0
3.214999844E1,3.765399933E0,-1.316860008E1,2.607599974E0
3.216999844E1,9.502999783E-1,-1.255719948E1,3.613699913E0
3.218999844E1,-1.022799969E0,-1.148309994E1,3.283799887E0
3.220999844E1,-1.748899937E0,-1.043169975E1,2.290599823E0
3.222999844E1,-1.897899985E0,-9.385299683E0,2.708799839E0
3.224999844E1,-1.095499992E0,-1.016909981E1,2.536799908E0
3.227000000E1,-1.454100013E0,-9.859399796E0,1.339900017E0
3.229999844E1,-3.412099838E0,-7.565599918E0,-7.591999769E-1
3.231999844E1,-3.542699814E0,-6.343800068E0,-1.232399940E0
3.233999844E1,-2.674999952E0,-5.943500042E0,-1.065799952E0
3.235999844E1,-1.753299952E0,-5.702899933E0,-8.072999716E-1
3.237999844E1,-1.150399923E0,-5.959599972E0,-7.357999682E-1
3.240000000E1,-1.875199914E0,-5.342799664E0,-2.520000041E-1
3.242999844E1,-3.824599981E0,-3.309700012E0,9.483999610E-1
3.244999844E1,-4.351900101E0,-2.091799974E0,1.388099909E0
3.247000000E1,-4.703299999E0,-1.411700010E0,1.754799962E0
3.249999844E1,-4.250799656E0,-7.285999656E-1,2.083699942E0
3.251999844E1,-3.312700033E0,-6.992999911E-1,1.352999926E0
3.253999844E1,-2.368999958E0,-8.218999505E-1,6.660999656E-1
3.256000000E1,-1.094599962E0,-1.420799971E0,6.239999831E-2
3.258999844E1,8.468999863E-1,-1.377399921E0,-1.154999956E-1
3.260999844E1,3.488399982E0,-1.303200006E0,-6.029999852E-1
3.262999844E1,5.626299858E0,-1.082499981E0,-1.288699985E0
3.264999844E1,7.154299736E0,-1.198400021E0,-1.880999923E0
3.266999844E1,7.896299839E0,-8.883000016E-1,-1.527999997E0
3.268999844E1,8.398499489E0,-2.389999852E-2,-4.999999702E-2
3.270999844E1,8.831399918E0,3.093000054E-1,9.066999555E-1
3.272999844E1,7.638399601E0,2.309000015E0,1.985399961E0
3.274999844E1,7.624399662E0,3.841300011E0,3.328599930E0
3.276999844E1,8.935999870E0,3.555499792E0,3.675799847E0
3.278999844E1,1.029279995E1,2.602999926E0,3.807600021E0
3.280999844E1,1.056299973E1,1.621299982E0,4.342700005E0
3.282999844E1,1.006979942E1,1.303200006E0,4.943999767E0
3.284999844E1,8.067500114E0,2.996199846E0,5.242700100E0
3.286999844E1,6.118399620E0,3.669299841E0,4.504799843E0
3.288999844E1,4.088799953E0,3.928999901E0,4.179899693E0
3.290999844E1,1.974699974E0,4.145199776E0,3.957099915E0
3.292999844E1,4.305999875E-1,3.897599936E0,3.580199957E0
3.294999844E1,-7.536999583E-1,3.473599911E0,2.960799932E0
3.297000000E1,-9.556999803E-1,2.937500000E0,2.341399908E0
3.299999844E1,-1.864999980E-1,1.012199998E0,1.255299926E0
3.301999844E1,1.759999990E-2,-1.499999966E-2,7.216999531E-1
3.303999844E1,2.949999869E-1,-1.029299974E0,3.869999945E-1
3.305999844E1,3.828999996E-1,-2.152099848E0,4.984999895E-1
3.307999844E1,2.755999863E-1,-2.663599968E0,1.424999952E0
3.309999844E1,8.873999715E-1,-3.754599810E0,1.988699913E0
3.311999844E1,1.455199957E0,-4.813099861E0,2.537600040E0
3.313999844E1,1.615700006E0,-5.669600010E0,2.738199949E0
3.315999844E1,1.039399981E0,-5.967700005E0,2.614199877E0
3.317999844E1,9.854999781E-1,-6.761399746E0,2.236700058E0
3.319999844E1,4.050999880E-1,-7.363999844E0,1.624799967E0
3.321999844E1,-1.361799955E0,-6.597099781E0,2.139099836E0
3.323999844E1,-2.701099873E0,-5.181499958E0,3.698400021E0
3.326000000E1,-1.542500019E0,-5.237599850E0,3.857299805E0
3.328000000E1,4.786999822E-1,-6.449800014E0,2.083799839E0
3.330999844E1,5.241999626E-1,-5.916399956E0,-1.929000020E-1
3.332999844E1,-6.627999544E-1,-4.126599789E0,-8.147999644E-1
3.334999844E1,-8.598999977E-1,-2.636499882E0,-1.622399926E0
3.336999844E1,-1.012199998E0,-2.079499960E0,-2.141499996E0
3.338999844E1,-2.530699968E0,-1.412199974E0,-2.341099977E0
3.340999844E1,-4.171499729E0,-8.630999923E-1,-2.089900017E0
3.342999844E1,-4.817500114E0,-1.085899949E0,-1.990399957E0
3.344999844E1,-5.183000088E0,-1.336300015E0,-2.006599903E0
3.346999844E1,-5.235599995E0,-1.651699901E0,-1.956599951E0
3.348999844E1,-5.441400051E0,-2.076099873E0,-1.865899920E0
3.351000000E1,-5.799900055E0,-2.126999855E0,-1.400900006E0
3.353000000E1,-5.595699787E0,-2.501799822E0,-1.578599930E0
3.355000000E1,-5.123099804E0,-2.424900055E0,-1.823399901E0
3.357999844E1,-3.677099943E0,-2.926699877E0,-2.491499901E0
3.359999844E1,-3.097499847E0,-3.185299873E0,-2.528199911E0
3.361999844E1,-2.419100046E0,-3.394999981E0,-2.062299967E0
3.363999844E1,-1.367399931E0,-3.617399931E0,-1.660099983E0
3.365999844E1,5.625999570E-1,-4.650300026E0,-1.216199994E0
3.367999844E1,2.229399920E0,-5.141999722E0,-3.642999828E-1
3.369999844E1,4.229199886E0,-5.004699707E0,9.981999993E-1
3.371999844E1,6.873299599E0,-5.176399708E0,1.176199913E0
3.373999844E1,8.469399452E0,-5.003699780E0,1.239899993E0
3.376000000E1,8.346199989E0,-3.846799850E0,1.541099906E0
3.378999844E1,6.462399960E0,-9.345999956E-1,2.746999979E0
3.380999844E1,5.263299942E0,7.835999727E-1,3.203199863E0
3.382999844E1,3.526899815E0,2.232399940E0,2.653100014E0
3.384999844E1,1.421499968E0,3.567399979E0,2.174599886E0
3.386999844E1,-5.029999837E-2,4.142600060E0,1.943499923E0
3.388999844E1,-1.331799984E0,4.542200089E0,1.613199949E0
3.390999844E1,-1.895699978E0,4.505899906E0,1.105199933E0
3.392999844E1,-1.433799982E0,3.758899927E0,4.757999778E-1
3.394999844E1,-8.834999800E-1,2.966699839E0,-1.453000009E-1
3.397000000E1,-6.499999762E-1,2.087699890E0,-7.509999722E-2
3.399999844E1,-7.076999545E-1,7.305999994E-1,1.074299932E0
3.401999844E1,-7.050999999E-1,2.570999861E-1,2.296599865E0
3.403999844E1,-5.965999961E-1,-3.915999830E-1,3.165400028E0
3.405999844E1,-3.980000019E-1,-1.245999932E0,3.181299925E0
3.407999844E1,3.999999911E-2,-2.098700047E0,2.782799959E0
3.409999844E1,7.854999900E-1,-2.821499825E0,2.102799892E0
3.411999844E1,1.899599910E0,-4.371099949E0,1.087100029E0
3.413999844E1,1.772799969E0,-4.912600040E0,8.830999732E-1
3.415999844E1,3.181999922E-1,-3.560799837E0,2.007499933E0
3.417999844E1,-2.777999938E-1,-2.115200043E0,3.008199930E0
3.419999844E1,-2.572999895E-1,-1.301299930E0,2.972399950E0
3.421999844E1,-1.999999862E-3,-9.200999737E-1,2.027600050E0
3.423999844E1,5.250999928E-1,-4.909999967E-1,1.472999901E-1
3.425999844E1,1.638999939E0,-5.551999807E-1,-2.372499943E0
3.427999844E1,1.366599917E0,1.727000028E-1,-3.619899988E0
3.429999844E1,3.874999881E-1,1.486899972E0,-2.785300016E0
3.431999844E1,-6.665999889E-1,2.412400007E0,-1.384499907E0
3.433999844E1,-1.683799982E0,3.192099810E0,-8.476999998E-1
3.435999844E1,-2.133599997E0,3.750899792E0,-8.472999930E-1
3.437999844E1,-2.001199961E0,3.742599964E0,-1.150699973E0
3.439999844E1,-1.447799921E0,3.677299976E0,-1.213400006E0
3.441999844E1,-3.321999907E-1,3.566200018E0,-1.167999983E0
3.443999844E1,8.147999644E-1,3.424099922E0,-1.194999933E0
3.445999844E1,1.753699899E0,3.223399878E0,-1.342700005E0
3.447999844E1,1.875000000E0,3.398699999E0,-1.606899977E0
3.449999844E1,1.630100012E0,3.773999929E0,-1.925599933E0
3.451999844E1,1.799199939E0,3.804600000E0,-1.905499935E0
3.453999844E1,2.271699905E0,3.516399860E0,-1.433799982E0
3.455999844E1,2.980799913E0,2.950999975E0,-1.242799997E0
3.457999844E1,3.326099873E0,1.881999969E0,-1.839599967E0
3.459999844E1,3.472999811E0,1.043499947E0,-1.886699915E0
3.461999844E1,3.617100000E0,4.732999802E-1,-1.731199980E0
3.463999844E1,4.522999763E0,-7.337999940E-1,-1.671999931E0
3.465999844E1,3.588699818E0,3.360999823E-1,-5.669000149E-1
3.467999844E1,3.141700029E0,1.555999964E-1,4.887000024E-1
3.469999844E1,2.783999920E0,-4.891999960E-1,9.378999472E-1
3.471999844E1,2.758800030E0,-1.389099956E0,1.345399976E0
3.473999844E1,2.993700027E0,-2.765499830E0,7.777000070E-1
3.476000000E1,2.191699982E0,-3.477499962E0,1.828399897E0
3.478999844E1,-2.059700012E0,-1.231899977E0,5.231999874E0
3.481000000E1,-3.559000015E0,-5.430999994E-1,5.224400043E0
3.483000000E1,-3.927500010E0,-7.022999525E-1,2.285599947E0
3.486000000E1,-4.866799831E0,-2.057999969E-1,4.073999822E-1
3.488999844E1,-4.456500053E0,-4.479999840E-1,-3.517999947E-1
3.490999844E1,-4.593899727E0,-1.182099938E0,-8.409999609E-1
3.492999844E1,-4.917200089E0,-1.097599983E0,-7.019999623E-2
3.494999844E1,-3.241699934E0,-9.571999907E-1,1.151999950E0
3.497000000E1,-1.218699932E0,-1.402499914E0,1.412500024E0
3.499999844E1,2.937999964E-1,-1.687799931E0,1.120299935E0
3.501999844E1,7.479999959E-2,-1.175999999E0,8.410999775E-1
3.503999844E1,-4.389999807E-1,-8.158999681E-1,9.050999880E-1
3.505999844E1,-9.448999763E-1,-5.554000139E-1,1.047999978E0
3.507999844E1,-1.135800004E0,-1.340000033E-1,1.170699954E0
3.509999844E1,-1.475999951E-1,1.493999958E-1,1.353399992E0
3.511999844E1,1.406599998E0,5.078999996E-1,8.017999530E-1
3.513999844E1,3.539899826E0,3.946000040E-1,8.060000092E-2
3.515999844E1,4.686399937E0,5.877000093E-1,-2.667999864E-1
3.517999844E1,4.833799839E0,1.419499993E0,1.553999931E-1
3.519999844E1,5.795899868E0,5.277999640E-1,3.790000081E-2
3.521999844E1,5.611000061E0,7.157999873E-1,6.064000130E-1
3.523999844E1,4.957399845E0,8.592000008E-1,2.203899860E0
3.526000000E1,4.103600025E0,1.471000016E-1,3.248899937E0
3.528999844E1,7.408999801E-1,-1.148999929E0,2.560199976E0
3.530999844E1,-1.561499953E0,-1.443099976E0,5.958999991E-1
3.532999844E1,-3.042099953E0,-6.020999551E-1,-1.303699970E0
3.534999844E1,-2.013399839E0,-7.332999706E-1,-2.510599852E0
3.536999844E1,-1.117299914E0,-4.402000010E-1,-2.408999920E0
3.538999844E1,-1.869099975E0,7.281000018E-1,-1.632900000E0
3.540999844E1,-2.422999859E0,2.122200012E0,-6.998999715E-1
3.542999844E1,-1.691999912E0,2.870999813E0,-3.227999806E-1
3.544999844E1,-2.940999866E-1,3.356699944E0,-1.189999934E-2
3.546999844E1,8.080999851E-1,3.408099890E0,-1.111999974E-1
3.548999844E1,1.600699902E0,3.606400013E0,4.760999978E-1
3.550999844E1,2.319099903E0,3.211299896E0,1.400200009E0
3.552999844E1,2.553599834E0,2.774799824E0,2.238800049E0
3.554999844E1,2.604199886E0,2.133100033E0,3.032799959E0
3.556999844E1,2.829999924E0,1.444700003E0,3.847699881E0
3.558999844E1,3.460299969E0,1.028399944E0,4.402400017E0
3.560999844E1,3.740799904E0,1.459900022E0,3.834199905E0
3.562999844E1,3.706899881E0,1.398800015E0,2.558300018E0
3.564999844E1,2.519700050E0,1.735199928E0,2.340299845E0
3.567000312E1,1.185899973E0,1.384999990E0,2.622599840E0
3.569999844E1,1.169000030E0,4.418999851E-1,3.968899965E0
3.571999844E1,1.318400025E0,3.815999925E-1,5.140100002E0
3.573999844E1,1.902599931E0,5.199999809E-1,5.484699726E0
3.576000000E1,4.006499767E0,-1.149299979E0,4.836699963E0
3.578999844E1,6.072899818E0,-3.694499969E0,3.889299870E0
3.581000000E1,5.070799828E0,-2.630100012E0,3.827999830E0
3.583000000E1,4.138400078E0,-1.887199998E0,4.205999851E0
3.586000000E1,2.818899870E0,-2.998399973E0,4.352900028E0
3.588999844E1,-1.409099936E0,-1.433099985E0,5.592799664E0
3.590999844E1,-2.987099886E0,-1.494399905E0,4.791399956E0
3.592999844E1,-3.803499937E0,-1.379099965E0,3.069299936E0
3.594999844E1,-3.813699961E0,-1.676299930E0,1.922099948E0
3.596999844E1,-3.254899979E0,-2.321699858E0,1.295199990E0
3.598999844E1,-3.670499802E0,-2.572799921E0,5.738999844E-1
3.600999844E1,-3.789599895E0,-3.333899975E0,3.576999903E-1
3.602999844E1,-4.189199924E0,-4.240900040E0,-2.317999899E-1
3.604999844E1,-4.953299999E0,-4.568399906E0,2.152999938E-1
3.606999844E1,-4.421799660E0,-5.770299911E0,4.501999915E-1
3.608999844E1,-3.384500027E0,-7.497699738E0,1.876999885E-1
3.610999844E1,-2.757699966E0,-7.915400028E0,2.229999900E-1
3.612999844E1,-1.844099998E0,-7.656199932E0,7.590000033E-1
3.614999844E1,-8.294999599E-1,-7.315899849E0,1.614300013E0
3.616999844E1,-4.559999704E-2,-7.995199680E0,1.307500005E0
3.618999844E1,-1.631099939E0,-6.494400024E0,1.415799975E0
3.620999844E1,-1.648499966E0,-5.558499813E0,2.809000015E0
3.622999844E1,-7.238999605E-1,-4.476099968E0,4.003200054E0
3.624999844E1,2.483999878E-1,-4.097099781E0,4.194200039E0
3.627000000E1,7.626999617E-1,-3.869899988E0,2.731899977E0
3.629999844E1,1.842599988E0,-3.070999861E0,2.748000026E-1
3.631999844E1,2.448600054E0,-2.254899979E0,-1.204399943E0
3.633999844E1,1.444800019E0,-3.750999868E-1,-1.536999941E0
3.635999844E1,-3.556999862E-1,1.865299940E0,-1.803999990E-1
3.637999844E1,-1.460999966E0,3.398399830E0,6.538000107E-1
3.639999844E1,-1.702899933E0,4.371599674E0,8.800999522E-1
3.641999844E1,-1.727100015E0,4.962399960E0,5.460999608E-1
3.643999844E1,-1.045300007E0,4.891200066E0,-1.099999994E-2
3.645999844E1,-6.463999748E-1,4.559999943E0,-5.569999814E-1
3.647999844E1,-6.875000000E-1,4.339299679E0,1.090000011E-2
3.649999844E1,-1.303000003E-1,3.731999874E0,7.319999486E-2
3.651999844E1,1.313599944E0,2.883299828E0,-1.757999957E-1
3.653999844E1,2.930399895E0,1.975099921E0,1.226999983E-1
3.655999844E1,4.641099930E0,4.339999855E-1,-7.275999784E-1
3.657999844E1,4.679599762E0,1.134999990E-1,-4.722999930E-1
3.659999844E1,4.684700012E0,1.119999960E-1,1.112999991E-1
3.661999844E1,4.921499729E0,1.972000003E-1,9.994999766E-1
3.663999844E1,5.910099983E0,1.826999933E-1,1.993799925E0
3.665999844E1,7.688599586E0,-7.209999859E-2,1.939099908E0
3.667999844E1,8.820799828E0,8.819999695E-1,2.499599934E0
3.669999844E1,9.947599411E0,9.472000003E-1,3.214999914E0
3.671999844E1,9.017799377E0,3.068999946E-1,1.349099994E0
3.673999844E1,7.359399796E0,-1.259699941E0,-1.370100021E0
3.675999844E1,4.522799969E0,-1.765999913E0,-2.169100046E0
3.677999844E1,1.129899979E0,-1.037999988E0,-1.284699917E0
3.680000000E1,-1.554099917E0,-1.292599916E0,-1.079699993E0
3.682000000E1,-3.966099977E0,-1.220099926E0,-5.370000005E-1
3.684000000E1,-6.235599995E0,2.931999862E-1,1.213199973E0
3.686999844E1,-6.067800045E0,1.521299958E0,2.932299852E0
3.688999844E1,-6.260499954E0,1.345899940E0,1.445599914E0
3.690999844E1,-6.896999836E0,1.597499967E0,-4.398999810E-1
3.692999844E1,-6.014999866E0,1.024299979E0,-1.673799992E0
3.694999844E1,-3.098199844E0,-8.949999809E-1,-2.540099859E0
3.697000000E1,-6.595999599E-1,-3.075999975E0,-3.268499851E0
3.699999844E1,1.013000011E-1,-5.155600071E0,-2.885200024E0
3.701999844E1,-1.599999890E-2,-6.134899616E0,-1.007300019E0
3.703999844E1,1.439999975E-2,-7.446399689E0,4.660999775E-1
3.706000000E1,-6.323999763E-1,-7.800099850E0,1.827600002E0
3.708000156E1,-1.070899963E0,-6.863699913E0,3.218400002E0
3.710999844E1,7.469999790E-1,-6.040999889E0,2.467799902E0
3.712999844E1,6.969999522E-2,-4.304599762E0,2.340899944E0
3.714999844E1,-1.430299997E0,-2.469799995E0,4.156599998E0
3.716999844E1,-2.156499863E0,-6.058999896E-1,6.076699734E0
3.718999844E1,-1.879099965E0,5.414999723E-1,5.572400093E0
3.720999844E1,6.079999730E-2,2.281999886E-1,9.003999829E-1
3.722999844E1,2.225899935E0,-1.728999913E-1,-3.469099998E0
3.724999844E1,4.006799698E0,-6.388999820E-1,-6.010799885E0
3.726999844E1,3.946299791E0,-3.256999850E-1,-5.773900032E0
3.729000000E1,1.353699923E0,1.061699986E0,-7.990999818E-1
3.731001719E1,-1.188099980E0,3.010099888E0,2.682699919E0
3.733999844E1,-1.859599948E0,6.417699814E0,3.139600039E0
3.735999844E1,9.047999978E-1,7.161799908E0,9.355999827E-1
3.737999844E1,2.732899904E0,8.010299683E0,-1.554799914E0
3.739999844E1,2.434900045E0,8.933300018E0,-3.656999826E0
3.741999844E1,1.946599960E0,8.752900124E0,-4.399199963E0
3.743999844E1,1.965099931E0,7.677399635E0,-2.568099976E0
3.745999844E1,2.263000011E0,6.235199928E0,-8.571999669E-1
3.748000000E1,2.397500038E0,4.834799767E0,1.621999890E-1
3.750999844E1,3.889799833E0,3.052799940E0,1.224099994E0
3.752999844E1,5.695399761E0,1.753799915E0,1.464999914E0
3.754999844E1,7.143699646E0,1.027300000E0,1.584499955E0
3.756999844E1,8.473299980E0,4.840999842E-1,1.555499911E0
3.758999844E1,9.190599442E0,2.944999933E-1,1.626399994E0
3.760999844E1,9.053299904E0,8.086999655E-1,1.696699977E0
3.762999844E1,8.661099434E0,1.899099946E0,1.710199952E0
3.764999844E1,9.296999931E0,1.773399949E0,1.231699944E0
3.766999844E1,9.512999535E0,-7.569999993E-2,9.300000034E-3
3.768999844E1,8.749400139E0,-2.540599823E0,-2.759000063E-1
3.770999844E1,8.090799332E0,-4.517699718E0,-5.509999767E-2
3.772999844E1,6.768199921E0,-4.800799847E0,7.805999517E-1
3.774999844E1,5.023299694E0,-4.298900127E0,1.638599992E0
3.776999844E1,3.478600025E0,-3.828199863E0,1.902999997E0
3.778999844E1,1.743600011E0,-3.405200005E0,2.053599834E0
3.780999844E1,1.518999934E-1,-3.643199921E0,2.170300007E0
3.782999844E1,-2.295399904E0,-3.510499954E0,1.978299975E0
3.784999844E1,-3.233700037E0,-3.516599894E0,1.467399955E0
3.786999844E1,-1.696599960E0,-4.294099808E0,2.363999933E-1
3.789000156E1,1.074199915E0,-5.828099728E0,-1.076099992E0
3.791999844E1,3.826900005E0,-5.757499695E0,-1.268499970E0
3.793999844E1,6.094299793E0,-6.807999611E0,-2.072599888E0
3.795999844E1,7.152699947E0,-8.334599495E0,-2.021399975E0
3.797999844E1,4.775300026E0,-8.352899551E0,-1.037599921E0
3.799999844E1,1.736499906E0,-7.256899834E0,-1.349799991E0
3.801999844E1,1.318300009E0,-5.819599628E0,-1.867599964E0
3.803999844E1,2.202399969E0,-5.175699711E0,-1.183599949E0
3.806000000E1,2.316900015E0,-4.710000038E0,-8.994999528E-1
3.808000000E1,1.386799932E0,-3.668999910E0,-2.474099874E0
3.810999844E1,-2.811000049E-1,-2.541899920E0,-3.228999972E-1
3.812999844E1,-1.089599967E0,-1.370299935E0,1.122099996E0
3.814999844E1,-5.123999715E-1,-7.793999910E-1,-8.760000020E-2
3.816999844E1,7.329999655E-2,-6.313999891E-1,7.117999792E-1
3.818999844E1,2.269999869E-2,-4.050000012E-2,-5.681999922E-1
3.820999844E1,3.659999967E-1,-1.519999932E-2,-2.550999880E0
3.822999844E1,1.060799956E0,-5.965999961E-1,-3.602199793E0
3.825000469E1,2.595999837E-1,-4.764999747E-1,-4.565199852E0
3.828000312E1,-6.457999945E-1,-2.495999932E-1,-5.161599636E0
3.830999844E1,-6.051999927E-1,-6.574999690E-1,-4.094500065E0
3.832999844E1,-4.314999878E-1,-6.706999540E-1,-3.342099905E0
3.834999844E1,-1.092399955E0,-7.208999991E-1,-2.590999842E0
3.837000000E1,-1.576699972E0,-2.663999796E-1,-2.876399994E0
3.839999844E1,-1.118299961E0,-3.531000018E-1,-2.904899836E0
3.841999844E1,-1.120499969E0,8.969999850E-2,-3.038899899E0
3.843999844E1,-4.892999828E-1,4.179999977E-2,-2.158599854E0
3.845999844E1,3.260000050E-2,-3.985999823E-1,-1.056900024E0
3.848000000E1,-5.938000083E-1,-4.939999804E-2,-8.935999870E-1
3.850000000E1,-1.191299915E0,1.591999978E-1,-1.720399976E0
3.853000000E1,-1.296000034E-1,-9.536999464E-1,-2.002699852E0
3.855000000E1,1.070099950E0,-1.486400008E0,-1.045400023E0
3.857000000E1,9.983999729E-1,-1.508099914E0,-2.517299891E0
3.859999844E1,9.016999602E-1,-1.667400002E0,-5.602900028E0
3.861999844E1,1.731400013E0,-3.157199860E0,-8.958799362E0
3.863999844E1,3.807399988E0,-5.493799686E0,-6.694799900E0
3.866000000E1,2.550199986E0,-5.092700005E0,-2.595299959E0
3.868003594E1,6.171000004E-1,-3.887199879E0,-1.041800022E0
3.870999844E1,-1.093500018E0,-2.597100019E0,-2.621599913E0
3.872999844E1,-3.517999947E-1,-3.732599974E0,-4.278800011E0
3.874999844E1,-8.547999859E-1,-3.750299931E0,-5.136899948E0
3.876999844E1,-9.636999965E-1,-4.087899685E0,-6.002099991E0
3.878999844E1,-4.332999885E-1,-5.197999954E0,-5.952799797E0
3.881000000E1,6.800999641E-1,-6.292299747E0,-5.604000092E0
3.883999844E1,4.795399666E0,-7.527599812E0,-4.852999687E0
3.885999844E1,6.616099834E0,-8.869999886E0,-2.595000029E0
3.887999844E1,6.626899719E0,-9.240300179E0,-7.805999517E-1
3.890000000E1,6.762599945E0,-9.413000107E0,-6.419000030E-1
3.892999844E1,9.993100166E0,-1.167219925E1,-9.944999814E-1
3.894999844E1,1.201569939E1,-1.190209961E1,3.129999936E-1
3.897000000E1,1.275479984E1,-1.120259953E1,1.386600018E0
3.899999844E1,1.238009930E1,-7.412799835E0,5.289799690E0
3.901999844E1,1.157999992E1,-4.770499706E0,7.960700035E0
3.903999844E1,1.023820019E1,-1.477100015E0,8.560599327E0
3.905999844E1,9.001599312E0,2.600000007E-3,7.117199898E0
3.907999844E1,6.162699699E0,1.292899966E0,5.663899899E0
3.909999844E1,2.395599842E0,3.541800022E0,4.886499882E0
3.912000000E1,-2.097999901E-1,5.190299988E0,4.916599751E0
3.914999844E1,-3.551800013E0,7.036799908E0,3.540400028E0
3.916999844E1,-4.958299637E0,7.904299736E0,3.304499865E0
3.918999844E1,-3.583099842E0,7.069799900E0,3.368099928E0
3.920999844E1,-2.069000006E-1,5.507699966E0,4.076900005E0
3.922999844E1,2.314100027E0,4.927199841E0,5.662299633E0
3.924999844E1,3.416299820E0,5.381599903E0,6.618599892E0
3.927000000E1,4.850999832E0,5.483999729E0,7.621500015E0
3.929999844E1,6.838299751E0,4.945300102E0,7.888899803E0
3.931999844E1,7.175399780E0,4.921299934E0,8.113900185E0
3.933999844E1,6.714900017E0,5.079999924E0,8.180999756E0
3.935999844E1,6.432799816E0,4.725399971E0,7.894999981E0
3.937999844E1,5.914700031E0,4.651899815E0,7.890799999E0
3.940000000E1,6.249799728E0,3.382200003E0,7.931999683E0
3.942999844E1,9.015199661E0,-5.012999773E-1,7.115499973E0
3.944999844E1,1.015819931E1,-2.676100016E0,5.907799721E0
3.947000000E1,1.017290020E1,-3.892899990E0,4.558599949E0
3.949999844E1,8.201700211E0,-3.827199936E0,3.382599831E0
3.951999844E1,7.220399857E0,-4.026400089E0,2.918299913E0
3.953999844E1,5.791100025E0,-4.080800056E0,2.659999847E0
3.955999844E1,4.120999813E0,-4.560499668E0,1.208400011E0
3.957999844E1,2.908200026E0,-4.960999966E0,1.216999963E-1
3.959999844E1,2.310899973E0,-5.561100006E0,-9.501000047E-1
3.961999844E1,2.087100029E0,-5.621900082E0,-9.987999797E-1
3.963999844E1,2.695600033E0,-6.811699867E0,-7.279999852E-1
3.965999844E1,3.099200010E0,-7.946699619E0,-4.224999845E-1
3.967999844E1,3.214900017E0,-8.971699715E0,-2.745999992E-1
3.969999844E1,2.913699865E0,-9.522500038E0,-3.967999816E-1
3.971999844E1,2.186599970E0,-9.249599457E0,-9.127999544E-1
3.973999844E1,1.920399904E0,-8.866099358E0,-1.647699952E0
3.976000000E1,2.430999875E-1,-6.924399853E0,-3.893299818E0
3.978999844E1,-5.134599686E0,-2.516799927E0,-5.573100090E0
3.980999844E1,-7.318599701E0,-2.132900000E0,-1.048799992E0
3.983000000E1,-7.404699802E0,-4.158999920E-1,4.101699829E0
3.985999844E1,-1.165999994E-1,-4.915999770E-1,8.271900177E0
3.987999844E1,7.116699696E0,-6.020199776E0,3.387300014E0
3.989999844E1,7.997399807E0,-9.323599815E0,-4.339999706E-2
3.991999844E1,4.345099926E0,-9.156999588E0,-2.361599922E0
3.993999844E1,7.578999996E-1,-5.751499653E0,-4.197999954E0
3.995999844E1,4.996999800E-1,-4.958499908E0,-4.679599762E0
3.997999844E1,1.873999953E0,-4.741899967E0,-3.081599951E0
3.999999844E1,2.704299927E0,-3.502699852E0,1.873999983E-1
4.001999844E1,8.874999881E-1,-1.830299973E0,9.494999647E-1
4.003999844E1,-2.514400005E0,4.547999799E-1,-1.431999952E-1
4.005999844E1,-4.298299789E0,1.860399961E0,-3.050999939E-1
4.007999844E1,-4.803499699E0,2.363800049E0,1.294600010E0
4.009999844E1,-4.341399670E0,2.357300043E0,2.568300009E0
4.011999844E1,-2.956199884E0,2.189599991E0,1.195500016E0
4.013999844E1,-1.708199978E0,1.289299965E0,-8.490999937E-1
4.016000000E1,-1.799399972E0,5.119999647E-1,-1.527699947E0
4.018000000E1,-1.838999987E0,6.485999823E-1,-1.151099920E0
4.020999844E1,-8.341999650E-1,-2.651000023E-1,-5.889999866E-2
4.022999844E1,-1.027999997E0,-4.941999912E-1,-1.170899987E0
4.024999844E1,-1.279600024E0,-8.139999509E-1,-1.792499900E0
4.026999844E1,-1.510800004E0,-8.009999990E-1,-1.615399957E0
4.028999844E1,-1.616599917E0,-8.398999572E-1,-1.442099929E0
4.030999844E1,-1.616099954E0,-7.315999866E-1,-6.017000079E-1
4.032999844E1,-1.024299979E0,-9.487999678E-1,-1.731999964E-1
4.034999844E1,-1.386299968E0,-1.839999914E0,-8.087999821E-1
4.036999844E1,-2.857499838E0,-8.349999785E-1,-5.407999754E-1
4.038999844E1,-4.221499920E0,6.199999712E-3,-2.148799896E0
4.041000000E1,-3.137300014E0,-6.635000110E-1,-2.334100008E0
4.043999844E1,2.369999886E-2,-2.915599823E0,-1.713799953E0
4.045999844E1,-8.209999651E-2,-2.768199921E0,1.034399986E0
4.047999844E1,-9.651999474E-1,-1.932199955E0,-7.750999928E-1
4.049999844E1,-2.088599920E0,-7.665999532E-1,-4.722099781E0
4.052000000E1,-7.560999990E-1,-1.527599931E0,-8.132599831E0
4.054999844E1,2.857699871E0,-3.368899822E0,2.365999967E-1
4.056999844E1,2.960999906E-1,-1.422399998E0,1.190119934E1
4.058999844E1,1.326499939E0,2.827000022E-1,-1.639199972E0
4.060999844E1,-1.699000001E-1,9.122999907E-1,-2.850999832E-1
4.062999844E1,-9.588999748E-1,-3.237999976E-1,-8.901999593E-1
4.064999844E1,-3.685999811E-1,-8.598999977E-1,-1.239300013E0
4.066999844E1,-1.272999942E-1,-4.775999784E-1,-4.081599712E0
4.069000625E1,-4.555999935E-1,-3.079999983E-1,-2.333499908E0
4.071999844E1,1.989999972E-2,-4.099999964E-1,2.873199940E0
4.073999844E1,-1.988199949E0,-2.732999921E-1,2.718899965E0
4.075999844E1,-3.506999969E0,-2.630999982E-1,2.530999899E0
4.078000000E1,-2.695799828E0,-1.579199910E0,4.254899979E0
4.080000000E1,-3.474200010E0,-1.794799924E0,5.870699883E0
4.083000000E1,-3.403499842E0,-1.995999932E0,3.322299957E0
4.085000000E1,-3.176399946E0,-2.467999905E-1,-4.239399910E0
4.087999844E1,-3.043900013E0,-1.372499943E0,2.054499865E0
4.089999844E1,-1.409899950E0,-7.265999913E-1,3.841899872E0
4.091999844E1,-9.098999500E-1,-7.940999866E-1,4.139999866E0
4.093999844E1,-5.861999989E-1,-1.205099940E0,1.598799944E0
4.096000000E1,-9.997999668E-1,-2.740000002E-2,3.619000018E-1
4.098999844E1,-6.671999693E-1,4.034000039E-1,-2.163199902E0
4.101000313E1,-4.969999939E-2,1.509999949E-2,-1.390299916E0
4.103999844E1,-8.947999477E-1,8.619999886E-1,-1.292899966E0
4.106000156E1,-1.211399913E0,1.351400018E0,-1.374099970E0
4.108999844E1,-1.004199982E0,1.641899943E0,-4.890999794E-1
4.111000469E1,-4.443999827E-1,9.451999664E-1,-1.088500023E0
4.113999844E1,-6.453999877E-1,5.160999894E-1,-8.059999943E-1
4.115999844E1,-1.088899970E0,9.847999811E-1,-3.402999938E-1
4.117999844E1,-6.254000068E-1,4.810999930E-1,1.401999891E-1
4.120000000E1,2.274999917E-1,-5.245000124E-1,7.446999550E-1
4.122999844E1,-3.330999911E-1,-7.220999599E-1,-1.427000016E-1
4.125000156E1,-8.357999921E-1,-6.475999951E-1,1.180999950E-1
4.127999844E1,-9.240999818E-1,-1.266699910E0,4.320999980E-1
4.130000625E1,-1.309299946E0,-1.277199984E0,2.694000006E-1
4.132999844E1,2.516999841E-1,-2.019999981E0,-2.197999954E-1
4.135000625E1,5.742999911E-1,-1.785699964E0,-2.805999815E-1
4.138002344E1,-5.299999937E-2,-1.821299911E0,5.094999671E-1
4.140999844E1,-2.097999901E-1,-2.004099846E0,1.079999935E-2
4.142999844E1,2.292999923E-1,-8.822000027E-1,-5.824999809E-1
4.145000625E1,9.699999690E-1,-4.171999991E-1,-1.575299978E0
4.147999844E1,5.564000010E-1,-3.861999810E-1,-1.903099895E0
4.150000625E1,-6.597999930E-1,3.399999812E-3,-2.803400040E0
4.152999844E1,-4.193999767E-1,3.370000049E-2,-2.508800030E0
4.154999844E1,6.939999759E-2,1.556999981E-1,-1.616699934E0
4.156999844E1,1.403999925E-1,-2.132999897E-1,-4.363999963E-1
4.159000000E1,3.099999856E-3,-7.294999957E-1,-1.002900004E0
4.161000000E1,-4.355999827E-1,-2.631999850E-1,-1.210299969E0
4.163000000E1,-5.706999898E-1,-1.270000041E-1,-8.944999576E-1
4.165000000E1,-7.414999604E-1,-8.489999920E-2,1.009400010E0
4.167000000E1,-2.443099976E0,-5.130000040E-2,1.584899902E0
4.169000000E1,-2.870499849E0,-5.677999854E-1,3.236099958E0
4.171000000E1,-2.594899893E0,-9.860999584E-1,3.242899895E0
4.173000000E1,-3.685599804E0,3.518999815E-1,3.824100018E0
4.175000000E1,-3.200999975E0,2.743999958E-1,3.577799797E0
4.177000000E1,-1.540199995E0,-4.388999939E-1,3.659699917E0
4.179000781E1,-2.880599976E0,3.655999899E-1,3.308599949E0
4.182000000E1,-1.505899906E0,-2.834999859E-1,3.909099817E0
4.184000625E1,1.583599925E0,-9.570999742E-1,3.130599976E0
4.187000000E1,-2.505999804E-1,1.041999981E-1,3.413399935E0
4.189000000E1,-5.480000004E-2,1.035999954E-1,2.257299900E0
4.191999844E1,1.413599968E0,-8.175999522E-1,-2.052999884E-1
4.193999844E1,2.450099945E0,-6.530999541E-1,3.845999837E-1
4.195999844E1,1.946099997E0,1.207399964E0,9.138000011E-1
4.198000000E1,1.910499930E0,2.057600021E0,3.097999990E-1
4.200999844E1,2.477900028E0,1.454399943E0,-2.456599951E0
4.203000312E1,1.542099953E0,1.188499928E0,-3.252300024E0
4.205999844E1,3.014600039E0,1.733799934E0,-1.320099950E0
4.207999844E1,2.022099972E0,1.567899942E0,-1.011699915E0
4.209999844E1,1.577899933E0,1.026099920E0,-5.083999634E-1
4.211999844E1,1.145499945E0,5.001000166E-1,-1.494399905E0
4.213999844E1,1.367499948E0,1.410000026E-1,-2.507900000E0
4.215999844E1,1.853899956E0,-1.875000000E-1,-1.333899975E0
4.218000313E1,1.654599905E0,2.791000009E-1,1.207399964E0
4.220999844E1,1.084599972E0,9.783999920E-1,-8.267999887E-1
4.223000000E1,9.394999743E-1,1.344299912E0,-1.401499987E0
4.225999844E1,5.217999816E-1,1.198099971E0,-1.003000021E0
4.227999844E1,3.409999907E-1,6.999999881E-1,-2.823999882E0
4.229999844E1,-6.520999670E-1,1.225099921E0,-1.844399929E0
4.231999844E1,-2.335399866E0,1.967099905E0,2.075999975E-1
4.233999844E1,-2.841399908E0,2.633399963E0,2.638200045E0
4.235999844E1,-3.842599869E0,4.311100006E0,2.812000036E0
4.237999844E1,-4.941999912E0,5.075900078E0,3.962199926E0
4.239999844E1,-3.385999799E-1,-2.345599890E0,2.598299980E0
4.241999844E1,-3.924999833E-1,-1.855599999E0,1.638999939E0
4.243999844E1,-8.495999575E-1,-1.011799932E0,2.357599974E0
4.245999844E1,2.965999842E-1,-1.852899909E0,1.773499966E0
4.247999844E1,1.258799911E0,-2.681999922E0,-5.902999640E-1
4.249999844E1,9.730999470E-1,-2.321099997E0,-1.039099932E0
4.251999844E1,7.699999958E-2,-1.907899976E0,-2.111999989E-1
4.253999844E1,-3.129999936E-1,-1.600699902E0,-1.403899908E0
4.255999844E1,-3.129999936E-1,-1.521799922E0,-1.912699938E0
4.258002500E1,-6.111999750E-1,-1.282999992E0,-2.631799936E0
4.260999844E1,-1.510999948E-1,-1.268299937E0,-2.815599918E0
4.262999844E1,2.691999972E-1,-1.347399950E0,-3.002799988E0
4.264999844E1,-6.398000121E-1,-4.581999779E-1,-3.319599867E0
4.266999844E1,-4.614000022E-1,-2.122999877E-1,-3.169799805E0
4.269000000E1,-2.430000007E-1,-5.739999935E-2,-2.312000036E0
4.271999844E1,4.941999912E-1,6.899999827E-2,-3.036199808E0
4.273999844E1,1.450999975E-1,6.060000062E-1,-2.744599819E0
4.275999844E1,6.193000078E-1,3.473999798E-1,-1.300199986E0
4.278000469E1,6.517999768E-1,1.043999940E-1,5.101000071E-1
4.280999844E1,3.969999850E-1,6.592000127E-1,1.819199920E0
4.283000000E1,7.441999912E-1,-3.069999814E-1,3.830399990E0
4.285999844E1,3.772999942E-1,-7.756999731E-1,5.190099716E0
4.288000000E1,-3.797000051E-1,-6.430999637E-1,5.759599686E0
4.290999844E1,-5.310999751E-1,-1.306299925E0,5.333699703E0
4.292999844E1,1.475299954E0,-5.134999752E-1,4.199199677E0
4.294999844E1,4.052199841E0,-1.526499987E0,2.538300037E0
4.296999844E1,3.162599802E0,4.256999791E-1,1.458899975E0
4.298999844E1,1.534500003E0,5.550999641E-1,-7.469999790E-2
4.300999844E1,-3.269000053E-1,1.079299927E0,-1.450099945E0
4.302999844E1,-5.805000067E-1,1.292899966E0,-1.763399959E0
4.304999844E1,6.250000000E-2,1.242699981E0,-2.161700010E0
4.306999844E1,4.639999941E-2,9.534999728E-1,-3.580499887E0
4.309000469E1,-5.020999908E-1,1.131600022E0,-3.195199966E0
4.311999844E1,-1.803399920E0,9.103999734E-1,-4.177499771E0
4.313999844E1,-2.479799986E0,1.153499961E0,-3.791599989E0
4.315999844E1,-2.720099926E0,1.444899917E0,-2.732399940E0
4.318002500E1,-2.206199884E0,9.961999655E-1,-1.392799973E0
4.321000000E1,-1.946499944E0,1.474299908E0,-1.254899979E0
4.323000000E1,-8.707000017E-1,8.640999794E-1,1.271299958E0
4.325000000E1,-7.137999535E-1,1.112999916E0,1.504799962E0
4.327000000E1,-1.068599939E0,1.444499969E0,6.843000054E-1
4.329000000E1,-1.085799932E0,8.391000032E-1,1.549699903E0
4.331000000E1,-1.275599957E0,-2.300000051E-3,3.007599831E0
4.333999844E1,-1.009899974E0,-1.739999950E-1,3.613999844E0
4.336000000E1,-1.673000008E-1,-5.451999903E-1,2.170399904E0
4.338001406E1,1.113999963E0,-1.025599957E0,1.440699935E0
4.340999844E1,7.889999747E-1,-1.226799965E0,8.139999956E-2
4.342999844E1,6.549999863E-2,-1.270099998E0,-5.151000023E-1
4.344999844E1,-6.222000122E-1,-1.252799988E0,-7.730999589E-1
4.346999844E1,-1.010900021E0,-7.946999669E-1,-1.265699983E0
4.349000000E1,-5.978999734E-1,-1.308999956E-1,-2.585399866E0
4.351999844E1,-1.885999888E-1,-3.814999759E-1,-3.455600023E0
4.353999844E1,2.075999975E-1,-7.829999924E-2,-3.641999960E0
4.355999844E1,-1.323099971E0,6.940999627E-1,-4.835799694E0
4.357999844E1,-5.888999701E-1,1.650999933E-1,-4.717499733E0
4.359999844E1,4.981999993E-1,9.759999812E-2,-4.683899879E0
4.361999844E1,1.408399940E0,-3.120000064E-1,-4.370199680E0
4.363999844E1,1.195400000E0,-7.448999882E-1,-2.024800062E0
4.365999844E1,2.317499876E0,-1.066799998E0,-3.097999811E0
4.367999844E1,1.925599933E0,-8.792999983E-1,-1.104099989E0
4.369999844E1,-6.324999928E-1,1.819999889E-2,2.422799826E0
4.371999844E1,-3.143599987E0,5.683999658E-1,3.991499901E0
4.373999844E1,-1.978899956E0,-5.273000002E-1,3.339399815E0
4.375999844E1,-9.120000005E-1,-1.489499927E0,4.704499722E0
4.377999844E1,-2.662999928E-1,-2.516000032E0,9.274499893E0
4.379999844E1,-6.502000093E-1,-2.542199850E0,3.311199903E0
4.381999844E1,-1.828799963E0,-1.687199950E0,2.803200006E0
4.383999844E1,-9.799999595E-1,-2.529999912E-1,7.565000057E-1
