"Time (s)","Acceleration x (m/s^2)","Acceleration y (m/s^2)","Acceleration z (m/s^2)"
0.000000000E0,-2.996008396E0,3.899379015E0,8.315636635E0
2.000937500E-2,-3.188645840E0,3.919787169E0,8.956593513E0
4.200000000E-2,-2.808216572E0,3.854329586E0,9.271776199E0
6.200468700E-2,-2.138204098E0,3.529321432E0,8.873303413E0
8.400000000E-2,-2.037092209E0,3.314867973E0,8.750749588E0
1.040000000E-1,-2.292227745E0,3.579551697E0,9.096644402E0
1.240015620E-1,-1.978108644E0,3.714364529E0,9.126247406E0
1.440046870E-1,-1.509793162E0,3.728595734E0,9.119590759E0
1.660000000E-1,-6.826251745E-1,3.870102644E0,8.664472580E0
1.860078120E-1,-3.644932508E-1,4.258930683E0,8.474967003E0
2.080000000E-1,1.672110409E-1,4.464353085E0,8.027097702E0
2.280015620E-1,5.003306866E-1,4.282192230E0,7.709961414E0
2.500000000E-1,4.650401473E-1,4.037083626E0,8.473578453E0
2.700000000E-1,1.972917914E-1,3.912910938E0,1.005778313E1
2.900000000E-1,3.206314892E-2,3.549787045E0,1.126864529E1
3.100015620E-1,-9.211929888E-2,3.376609564E0,1.122772408E1
3.300015620E-1,-1.502601057E-1,3.360233307E0,1.049294376E1
3.520015620E-1,-5.353913307E-1,3.734102249E0,9.328317642E0
3.740000000E-1,-7.236617804E-1,3.841803074E0,8.676184654E0
3.960000000E-1,-9.171803594E-1,4.253174782E0,8.464479446E0
4.160109370E-1,-6.088742018E-1,4.305838108E0,7.990964413E0
4.380000000E-1,-4.096095860E-1,4.259840488E0,7.571528912E0
4.580000000E-1,-1.300147176E-1,4.322711945E0,7.008297920E0
4.800000000E-1,-7.867346704E-2,4.389960289E0,6.227041245E0
5.000000000E-1,-8.967242837E-1,4.888298988E0,6.734017849E0
5.200000000E-1,-1.236078501E0,4.991584778E0,7.000923157E0
5.400000000E-1,-1.325813055E0,4.947934151E0,8.169074059E0
5.600000000E-1,-2.084841967E0,4.673146248E0,8.924760818E0
5.800000000E-1,-1.999177575E0,4.422071457E0,8.333785057E0
6.000000000E-1,-9.230318069E-1,3.677330971E0,6.790760040E0
6.200000000E-1,-3.061800897E-1,2.168495655E0,6.253712177E0
6.400000000E-1,-1.132016897E0,2.350129128E0,7.642052174E0
6.600000000E-1,-1.886420250E0,2.251986027E0,8.605134964E0
6.800000000E-1,-2.845690727E0,3.290552378E0,7.715209484E0
7.000000000E-1,-4.638057232E0,5.048710346E0,5.871655464E0
7.220000000E-1,-6.184270859E0,4.675789356E0,7.172654629E0
7.420000000E-1,-5.987764359E0,3.755123377E0,7.958001137E0
7.620000000E-1,-5.196203232E0,2.512360334E0,8.144403458E0
7.820000000E-1,-5.004063606E0,2.478219032E0,8.265732765E0
8.040000000E-1,-5.804531097E0,2.395197868E0,7.615208626E0
8.240000000E-1,-7.607863426E0,2.154695272E0,8.138964653E0
8.440000000E-1,-9.132960320E0,3.266131639E0,8.954295158E0
8.640000000E-1,-9.570083618E0,3.996066332E0,9.391467094E0
8.840000000E-1,-8.264975548E0,2.228331327E0,9.779432297E0
9.040000000E-1,-7.433690071E0,3.936833739E-1,9.307162285E0
9.240000000E-1,-7.655124664E0,1.694999039E-1,9.104564667E0
9.440015620E-1,-8.728674889E0,4.855536819E-1,8.807089806E0
9.660015620E-1,-9.388422012E0,1.623584867E0,9.323049545E0
9.860031250E-1,-8.982355118E0,1.750439167E0,8.063920021E0
1.008012500E0,-8.950876236E0,6.415790319E-1,7.830619812E0
1.030000000E0,-8.556072235E0,5.035868287E-1,5.385373592E0
1.050009375E0,-8.153041840E0,8.077366352E-1,3.945606232E0
1.072000000E0,-6.774565697E0,1.830242634E0,2.719257593E0
1.092000000E0,-7.093253613E0,2.528047085E0,2.666010857E0
1.112000000E0,-6.217061996E0,2.178129911E0,3.001026392E0
1.132000000E0,-4.784831047E0,1.775329351E0,3.833758593E0
1.152000000E0,-9.757903814E-1,4.685644209E-1,4.832772732E0
1.172000000E0,1.109731674E0,1.254667044E0,5.291099548E0
1.192001562E0,-7.381419539E-1,2.240398228E-1,5.085897446E0
1.214000000E0,-2.773749828E0,-9.009859711E-2,4.889544010E0
1.234000000E0,-3.336272240E0,1.142129973E-1,5.184700966E0
1.254000000E0,-3.548254967E0,4.474571645E-1,5.995885849E0
1.274000000E0,-4.843000889E0,4.848162532E-1,6.987133026E0
1.294000000E0,-5.285142422E0,3.725952506E-1,7.774260044E0
1.314000000E0,-5.995894909E0,8.836423755E-1,8.629909515E0
1.334000000E0,-6.520914555E0,1.262414694E0,8.719519615E0
1.354000000E0,-6.644206524E0,8.582159281E-1,9.916639328E0
1.374000000E0,-6.483162880E0,7.231733799E-1,1.022260952E1
1.394000000E0,-6.334004402E0,1.993316561E-1,1.063886547E1
1.414000000E0,-6.194575787E0,-1.158669114E0,1.181595993E1
1.434000000E0,-5.326811314E0,-2.799808025E0,1.272101688E1
1.454000000E0,-4.805861950E0,-3.296231508E0,1.193634129E1
1.474000000E0,-5.455772877E0,-4.730549812E0,1.289762211E1
1.496000000E0,-5.926185608E0,-5.733500004E0,1.362936592E1
1.516001562E0,-6.302189827E0,-5.756589890E0,1.408018589E1
1.536010937E0,-7.688796997E0,-4.692146778E0,1.596585846E1
1.558000000E0,-9.999268532E0,-2.261438370E0,1.550646877E1
1.578001562E0,-1.122403717E1,-1.495437503E0,1.493997192E1
1.600001562E0,-1.101749420E1,-1.528697729E0,1.251752853E1
1.622000000E0,-9.894440651E0,-1.542536259E0,9.384082794E0
1.644000000E0,-8.293313026E0,-9.866026640E-1,7.666119099E0
1.664000000E0,-6.822603703E0,-7.180689573E-1,8.067540169E0
1.686003125E0,-5.640796661E0,-9.413809776E-1,9.096702576E0
1.708000000E0,-4.674487114E0,-7.171496153E-1,8.985812187E0
1.728000000E0,-3.943001270E0,-7.049487531E-2,7.784124374E0
1.748001562E0,-3.333762884E0,4.483860731E-2,6.767220497E0
1.770000000E0,-3.094333172E0,-2.332910150E-2,6.004542828E0
1.790000000E0,-3.293511629E0,7.808928192E-2,5.510044575E0
1.810000000E0,-3.492460251E0,2.978386879E-1,5.643487930E0
1.830000000E0,-3.788738012E0,9.765565991E-1,6.481860161E0
1.850000000E0,-4.030561924E0,1.015371323E0,7.645462036E0
1.870000000E0,-4.335295677E0,9.963997006E-1,8.565381050E0
1.890000000E0,-4.512859344E0,1.215947986E0,9.153655052E0
1.910000000E0,-4.278399944E0,1.179661512E0,9.541966438E0
1.930000000E0,-4.137592316E0,9.998377562E-1,9.919886589E0
1.950001562E0,-4.108574867E0,4.676163197E-1,1.031299496E1
1.972000000E0,-4.518912315E0,-4.568807185E-1,1.116676712E1
1.992000000E0,-5.169177055E0,-1.442343712E0,1.161036491E1
2.012000000E0,-5.898019791E0,-2.287056446E0,1.255796051E1
2.032000000E0,-6.029988289E0,-1.828518867E0,1.267640686E1
2.052000000E0,-5.799771309E0,-8.681279421E-1,1.204710579E1
2.072000000E0,-5.887743950E0,-2.917670012E-1,1.185661316E1
2.092000000E0,-6.458368778E0,-7.380844951E-1,1.251484680E1
2.114000000E0,-7.137268543E0,-2.082754374E0,1.391111660E1
2.134000000E0,-7.808516502E0,-4.115038872E0,1.511293888E1
2.154000000E0,-8.193485260E0,-5.463329315E0,1.521164608E1
2.174000000E0,-7.794371605E0,-5.275441170E0,1.397400665E1
2.194000000E0,-6.891594887E0,-4.947454929E0,1.269053364E1
2.214000000E0,-5.851687431E0,-4.606999397E0,1.178291035E1
2.234000000E0,-4.940214634E0,-4.153556824E0,1.082160091E1
2.256000000E0,-3.977592468E0,-3.821672678E0,9.215415955E0
2.276000000E0,-3.276149035E0,-3.605629444E0,7.820190430E0
2.296000000E0,-2.827829838E0,-3.389911890E0,6.954839706E0
2.316003125E0,-2.192466259E0,-3.593543530E0,6.774633408E0
2.338000000E0,-1.321551561E0,-4.178121567E0,6.772305965E0
2.358000000E0,-6.471814513E-1,-4.968447208E0,6.521249771E0
2.378001562E0,-3.891152442E-1,-5.214839458E0,5.747856140E0
2.400000000E0,-3.417387605E-1,-4.787455082E0,4.878779888E0
2.420000000E0,-4.853238463E-1,-4.435632229E0,4.942293167E0
2.440000000E0,-7.595078349E-1,-4.647174358E0,5.893653393E0
2.460000000E0,-1.004836798E0,-5.377089977E0,6.892561913E0
2.480000000E0,-1.315661788E0,-5.891498566E0,7.531861782E0
2.500000000E0,-1.400799513E0,-5.737024307E0,7.827009201E0
2.520000000E0,-1.516104221E0,-5.047101498E0,8.115845680E0
2.540000000E0,-2.047004223E0,-6.164312840E0,1.001752186E1
2.560000000E0,-2.606452465E0,-6.500583172E0,1.153341484E1
2.580000000E0,-2.348587513E0,-5.821491718E0,1.098390865E1
2.600000000E0,-2.274510860E0,-4.456145287E0,9.362612724E0
2.620000000E0,-3.285064936E0,-3.808044910E0,9.272149086E0
2.640000000E0,-4.673069954E0,-4.819700241E0,1.117637348E1
2.660000000E0,-5.800116062E0,-6.136712551E0,1.280071354E1
2.680000000E0,-5.830570698E0,-5.400562286E0,1.247182751E1
2.700000000E0,-5.455973625E0,-3.948057890E0,1.218546200E1
2.720000000E0,-5.272347927E0,-2.554393053E0,1.271843052E1
2.740000000E0,-5.300044537E0,-1.460510850E0,1.245785522E1
2.760000000E0,-4.828913212E0,-4.822305441E-1,1.096673679E1
2.780000000E0,-3.581859827E0,-5.747999623E-2,8.987938881E0
2.800000000E0,-2.836401224E0,2.694817781E-1,8.380672455E0
2.820000000E0,-2.608310223E0,3.680367023E-2,8.067760468E0
2.840000000E0,-2.542469740E0,1.130063161E-1,8.473079681E0
2.860000000E0,-2.962671280E0,-5.615839362E-1,8.994709015E0
2.880000000E0,-2.984056473E0,-3.940568566E-1,1.034654331E1
2.900000000E0,-4.170019627E0,8.630713820E-1,9.511866570E0
2.920000000E0,-4.125372410E0,-7.698220015E-1,9.974052429E0
2.940000000E0,-4.953038216E0,-3.034123778E-1,9.932182312E0
2.960000000E0,-4.619832516E0,-3.548398316E-1,1.150237656E1
2.980000000E0,-5.208719730E0,1.863550842E-1,1.275263882E1
3.000000000E0,-7.565456867E0,-1.937579513E-1,1.381333733E1
3.020000000E0,-8.139998436E0,5.775101781E-1,1.398770237E1
3.040000000E0,-7.557460308E0,1.248652816E0,1.361884212E1
3.062000000E0,-7.656235695E0,2.462465048E0,1.054993439E1
3.082000000E0,-8.951431274E0,2.596971512E0,9.699428558E0
3.102000000E0,-8.433632851E0,4.411766529E0,1.039162064E1
3.122000000E0,-8.099852562E0,4.424522877E0,1.203896618E1
3.142000000E0,-1.006207371E1,1.096573114E0,1.275061798E1
3.162000000E0,-9.324304581E0,4.239364862E-1,1.247975731E1
3.182000000E0,-8.887564659E0,-5.386283398E-1,1.241685677E1
3.202000000E0,-7.651256084E0,-7.837467194E-1,1.241998863E1
3.224000000E0,-6.626642704E0,2.055661678E-1,1.222164345E1
3.244000000E0,-5.816368103E0,-3.244813681E-1,1.218440819E1
3.264000000E0,-5.293915272E0,-3.578182459E-1,1.117203426E1
3.284000000E0,-4.502018452E0,-2.140291691E0,8.957590103E0
3.304000000E0,-3.130456924E0,-2.588361740E0,7.077710629E0
3.324000000E0,-1.359868288E0,-1.888373852E0,6.338907719E0
3.346004687E0,-5.066896677E-1,-2.195712805E0,6.441992283E0
3.368000000E0,-5.000625253E-1,-2.780683279E0,6.022183418E0
3.388000000E0,-3.040540516E-1,-4.197907448E0,6.365751266E0
3.408000000E0,4.177115858E-1,-5.190524101E0,7.853144646E0
3.428000000E0,1.388014555E0,-5.886192799E0,1.120001888E1
3.448000000E0,1.483839989E0,-5.984680653E0,1.215180016E1
3.468000000E0,9.494637847E-1,-6.836699963E0,1.132325172E1
3.488000000E0,1.606317759E-1,-8.546658516E0,1.082114029E1
3.508000000E0,-1.908944845E-1,-1.026652813E1,9.905262947E0
3.528000000E0,-1.226674080E0,-1.020424080E1,1.012194729E1
3.548000000E0,-2.206256866E0,-8.373499870E0,1.132265854E1
3.568000000E0,-3.130054712E0,-6.288361549E0,1.227750492E1
3.588000000E0,-4.647500038E0,-4.212569237E0,1.234417915E1
3.608000000E0,-5.983665466E0,-3.649108171E0,1.198015404E1
3.628000000E0,-6.544885635E0,-3.700391769E0,1.173910618E1
3.648000000E0,-6.539235115E0,-3.622791052E0,1.204960537E1
3.668000000E0,-7.258481979E0,-2.682271957E0,1.358497810E1
3.688000000E0,-5.957272053E0,2.437393069E-1,1.117514706E1
3.708000000E0,-5.494827271E0,-3.806301951E-1,1.182952023E1
3.728000000E0,-3.573595047E0,1.077323675E0,8.986281395E0
3.748000000E0,-2.117661953E0,1.422893167E0,8.258004189E0
3.768000000E0,-2.253173590E0,2.360989332E0,8.126015663E0
3.788000000E0,-2.522837400E0,3.232938528E0,7.664921761E0
3.808000000E0,-1.246909738E0,3.517369747E0,6.709894180E0
3.828000000E0,-1.030359030E0,3.516316175E0,5.318767071E0
3.848000000E0,-3.769316196E0,1.978405476E0,5.659385204E0
3.868000000E0,-5.377357960E0,3.318114519E0,7.967778683E0
3.888000000E0,-6.599578381E0,5.052320957E0,9.975833893E0
3.908000000E0,-6.866886616E0,4.467992306E0,1.111911297E1
3.928001562E0,-7.443611145E0,4.316467762E0,1.073484421E1
3.950000000E0,-8.143197060E0,4.436522961E0,9.700347900E0
3.970000000E0,-8.630263329E0,3.926117182E0,9.562393188E0
3.990000000E0,-9.121429443E0,4.116398811E0,9.203350067E0
4.010000000E0,-1.021037006E1,3.726843119E0,9.897552490E0
4.030000000E0,-9.743108749E0,3.605035543E0,8.605593681E0
4.050000000E0,-8.795483589E0,3.536504269E0,8.373834610E0
4.070000000E0,-8.877967834E0,2.870676517E0,9.762798309E0
4.090000000E0,-1.015135765E1,1.740239859E0,1.227637482E1
4.110000000E0,-1.163489151E1,6.019693613E-1,1.416710472E1
4.130000000E0,-1.196673775E1,-2.300444841E-1,1.557204056E1
4.150000000E0,-1.188016319E1,-5.588353872E-1,1.543021774E1
4.170000000E0,-1.116500473E1,-4.759289920E-1,1.532763195E1
4.190000000E0,-9.169064522E0,-1.871691197E-1,1.404129410E1
4.210000000E0,-7.738758564E0,-3.300167620E-1,1.256440639E1
4.230000000E0,-6.567113400E0,-1.231108069E0,1.169891167E1
4.250000000E0,-5.652518749E0,-9.769588113E-1,1.167053604E1
4.270007812E0,-5.054054260E0,-1.071089268E0,1.129167747E1
4.292000000E0,-5.139134884E0,-2.216418028E0,1.072375393E1
4.312000000E0,-4.317138195E0,-3.302504301E0,9.910040855E0
4.332000000E0,-4.018993378E0,-3.527013540E0,8.763898849E0
4.352000000E0,-3.665245056E0,-3.900786638E0,8.928073883E0
4.372000000E0,-2.554144144E0,-5.012280464E0,9.173172951E0
4.392000000E0,-1.408087492E0,-6.019789219E0,8.219572067E0
4.412000000E0,-1.056791067E0,-6.227931499E0,7.034739494E0
4.432000000E0,-1.151170492E0,-6.760076046E0,6.174914360E0
4.452000000E0,-7.605995536E-1,-5.962337971E0,4.811531067E0
4.472000000E0,-2.106227160E0,-4.750498772E0,5.761206150E0
4.492000000E0,-2.413451195E0,-3.800871849E0,7.377598763E0
4.512000000E0,-3.192792416E0,-4.575635433E0,9.748988152E0
4.532000000E0,-2.529349566E0,-5.304142952E0,1.055289459E1
4.552000000E0,-2.837272644E0,-4.945941925E0,8.618685722E0
4.572000000E0,-3.710686922E0,-3.297016859E0,8.459097862E0
4.592000000E0,-3.864969492E0,-1.721555591E0,8.055233955E0
4.612006250E0,-4.044515610E0,-4.243578911E0,1.162499809E1
4.633998437E0,-3.886067152E0,-5.786268711E0,1.295564747E1
4.653998437E0,-4.437308311E0,-7.067664146E0,1.377435970E1
4.673998437E0,-5.025391102E0,-5.659796715E0,1.176086426E1
4.693998437E0,-5.281110764E0,-4.796916962E0,9.759972572E0
4.714023437E0,-5.399470806E0,-3.181807756E0,8.875765800E0
4.736000000E0,-4.665293694E0,-2.265594721E0,8.741001129E0
4.756012500E0,-4.686678886E0,-1.256180167E0,8.593105316E0
4.778000000E0,-4.805095673E0,-4.075314403E-1,8.565447807E0
4.798000000E0,-5.238589764E0,-4.860804081E-1,9.282052040E0
4.818000000E0,-5.627206802E0,-1.293251991E0,1.032149887E1
4.838000000E0,-5.043807030E0,-2.324578285E0,1.109520054E1
4.858000000E0,-4.813379765E0,-3.316342831E0,1.159299278E1
4.878000000E0,-5.209304333E0,-2.794368744E0,1.138942814E1
4.898000000E0,-6.784679413E0,-1.215047717E0,1.218527031E1
4.918001562E0,-6.939583778E0,-6.984364986E-1,1.267076683E1
4.940000000E0,-7.131981850E0,-1.598052979E0,1.374928665E1
4.960000000E0,-8.552232742E0,-1.366208076E0,1.497409344E1
4.980000000E0,-9.657203674E0,3.200568855E-1,1.392890072E1
5.000000000E0,-1.018781662E1,1.697824240E0,1.238006210E1
5.020000000E0,-1.005386639E1,2.952270985E0,1.081994343E1
5.040000000E0,-9.082241058E0,4.123351574E0,8.759454727E0
5.060000000E0,-9.140420914E0,4.164186954E0,8.787074089E0
5.080000000E0,-9.733483315E0,3.030053616E0,1.032749367E1
5.100000000E0,-1.034000206E1,1.276550055E0,1.175571156E1
5.120000000E0,-1.148852921E1,-8.447988033E-1,1.363376236E1
5.140000000E0,-1.203927231E1,-2.959089518E0,1.408204269E1
5.160000000E0,-1.056984520E1,-2.873990297E0,1.040751839E1
5.180000000E0,-8.853815079E0,-2.974278450E0,9.022443771E0
5.200000000E0,-8.440470695E0,-1.866002440E0,8.643250465E0
5.220000000E0,-7.904236794E0,-7.767747641E-1,8.752645493E0
5.240000000E0,-6.976042747E0,-1.404869676E0,9.630571365E0
5.260000000E0,-6.138206482E0,-1.361553788E0,9.662950516E0
5.280000000E0,-6.003882408E0,-1.884524107E0,1.005218983E1
5.300000000E0,-6.036721230E0,-2.545821667E0,1.001296329E1
5.320001562E0,-5.988951683E0,-3.129786730E0,1.039133263E1
5.342000000E0,-6.620752811E0,-3.035167694E0,1.023684025E1
5.362000000E0,-6.860547066E0,-3.096593618E0,1.100951672E1
5.382000000E0,-6.404623508E0,-3.372501135E0,1.143395138E1
5.402000000E0,-5.442231178E0,-3.164569616E0,1.101230240E1
5.422000000E0,-5.155625820E0,-3.103776217E0,1.082516289E1
5.444000000E0,-6.050224304E0,-2.203977585E0,1.084130001E1
5.464000000E0,-6.267024040E0,-9.419268370E-1,1.191668892E1
5.484000000E0,-4.414304733E0,-1.414245367E0,1.150012684E1
5.504000000E0,-2.599413633E0,-2.063457012E0,1.159654617E1
5.524000000E0,-1.764852285E0,-2.013341665E0,1.202911091E1
5.544000000E0,-3.362704217E-1,-1.257061243E0,9.849563599E0
5.564000000E0,1.666460186E-1,5.857558250E-1,8.176649094E0
5.584000000E0,8.293514699E-2,1.522587776E0,9.121075630E0
5.604000000E0,-6.055893302E-1,1.641493440E0,9.986415863E0
5.624000000E0,-8.997218609E-1,1.807181716E0,1.008855247E1
5.644000000E0,-3.881767094E-1,1.400924087E0,9.602903366E0
5.664000000E0,6.551014185E-1,1.774065137E0,8.795348167E0
5.686000000E0,1.252675056E0,2.056446791E0,8.665104866E0
5.706010937E0,1.322997570E0,2.296872616E0,9.165683746E0
5.728000000E0,1.347504616E0,2.913360357E0,9.013413429E0
5.748000000E0,1.502687097E0,3.339671850E0,8.168144226E0
5.768000000E0,1.769994974E0,3.528057337E0,6.351280689E0
5.788000000E0,2.089802980E0,3.178676367E0,5.083177567E0
5.808000000E0,2.286089182E0,3.044208288E0,4.000605583E0
5.828000000E0,2.523316145E0,3.425681114E0,3.834026575E0
5.848000000E0,2.084306002E0,4.105557919E0,5.216228008E0
5.868000000E0,1.923664451E0,4.839313507E0,6.662096024E0
5.888000000E0,1.471102953E0,5.099036694E0,7.095666885E0
5.908000000E0,1.353911519E0,4.853132725E0,7.642847061E0
5.928000000E0,1.480852008E0,4.166725159E0,6.884364128E0
5.948000000E0,1.905458927E0,4.215193272E0,6.330872536E0
5.968000000E0,1.111034036E0,4.633383751E0,6.609088421E0
5.988000000E0,-1.012651548E-1,5.418614864E0,7.254842758E0
6.008000000E0,-1.573804617E0,5.206009865E0,7.262619019E0
6.028000000E0,-2.818655252E0,6.333506584E0,8.558964729E0
6.048000000E0,-3.945098639E0,5.583948612E0,8.728953362E0
6.068000000E0,-2.594021797E0,3.712937593E0,8.078869820E0
6.088000000E0,-2.162672758E0,8.051412702E-1,7.856936932E0
6.108000000E0,-4.805296898E0,2.547832727E0,8.032460213E0
6.128000000E0,-7.550871372E0,2.513069153E0,7.336082935E0
6.148000000E0,-9.316987991E0,3.486053348E-1,7.099047184E0
6.168000000E0,-1.192374706E1,1.982236147E0,6.204343796E0
6.188000000E0,-1.211451626E1,3.734399080E0,4.424465656E0
6.208000000E0,-1.236107254E1,3.800373793E0,2.616786003E0
6.228000000E0,-1.365953350E1,2.909357071E0,1.586474657E0
6.248000000E0,-1.124207020E1,1.631658077E0,3.988069534E0
6.268000000E0,-1.077803516E1,4.030628681E0,5.508005023E-1
6.288000000E0,-9.096673965E0,3.787014246E0,3.233053446E0
6.308000000E0,-1.081265545E1,1.679379225E0,1.415289164E0
6.328000000E0,-9.684919357E0,-2.516114414E-1,9.023775101E0
6.348000000E0,-8.079405785E0,3.228245974E-1,7.602030754E0
6.368000000E0,-7.096538544E0,3.111217320E-1,2.828998327E0
6.388000000E0,-6.629793644E0,4.432720840E-1,1.757640839E0
6.408000000E0,-7.802818298E0,1.392620921E0,2.266332388E0
6.428000000E0,-7.659089565E0,2.379989862E0,5.140532970E0
6.448000000E0,-6.208136082E0,1.966013074E0,6.047140598E0
6.468000000E0,-5.524955750E0,1.574867606E0,3.151526213E0
6.488000000E0,-4.877611160E0,-2.250166535E-1,7.533174038E0
6.508009375E0,-3.840241909E0,-7.605516911E-1,1.093651295E1
6.530000000E0,-1.783469558E0,-9.305687547E-1,5.987439156E0
6.550000000E0,-2.401441574E0,-1.324127555E0,8.682496071E0
6.570000000E0,-4.697308540E0,-6.195523739E-1,8.827747345E0
6.590001562E0,-6.126666546E0,3.407810926E-1,1.100504398E1
6.612000000E0,-5.155051231E0,-6.723780632E-1,1.035087109E1
6.632000000E0,-3.250559807E0,-8.369075656E-1,9.113681793E0
6.654000000E0,-2.705974579E0,1.272183061E-1,8.619958878E0
6.674000000E0,-3.200769901E0,6.110194325E-1,8.409518242E0
6.694000000E0,-2.674601078E0,1.990060508E-2,7.065279961E0
6.716000000E0,-1.444297314E0,-3.469676897E-2,7.166123390E0
6.736000000E0,-5.279980898E-1,-6.965882182E-1,8.100207329E0
6.756000000E0,-1.200165391E0,-2.065908760E-1,8.560009003E0
6.776004687E0,-1.836007953E0,9.962464571E-1,8.963919640E0
6.798000000E0,-2.002490997E0,1.255835414E0,8.485433578E0
6.818000000E0,-2.374368191E0,5.684601068E-1,8.249930382E0
6.838000000E0,-2.847759247E0,4.700680077E-1,8.099765778E0
6.858000000E0,-3.353538990E0,8.176198602E-1,7.827009201E0
6.878000000E0,-3.528775692E0,1.317969680E0,8.175652504E0
6.898000000E0,-4.143778801E0,1.684253931E0,8.534907341E0
6.918000000E0,-5.601149082E0,2.714019060E0,8.010041237E0
6.938000000E0,-4.659883022E0,1.349343419E0,8.907837868E0
6.958000000E0,-4.201393127E0,1.024718404E0,9.856986046E0
6.978000000E0,-4.946238995E0,1.503003120E0,1.095362568E1
6.998000000E0,-4.675253391E0,1.092340231E0,1.168271732E1
7.018003125E0,-3.857020855E0,1.000239968E0,1.250241566E1
7.040001562E0,-3.001122236E0,1.295990944E0,1.300606060E1
7.062000000E0,-2.173753262E0,8.496351242E-1,1.441619682E1
7.082000000E0,-2.679590464E0,2.263478190E-1,1.480618382E1
7.102000000E0,-3.214349747E0,-1.336922310E-2,1.444041729E1
7.122000000E0,-3.161294460E0,-4.892982244E-1,1.246030617E1
7.142004687E0,-3.247437716E0,-9.705231786E-1,1.053713131E1
7.164000000E0,-3.324224710E0,-9.002198577E-1,9.140477180E0
7.184000000E0,-3.109158278E0,-1.243088603E0,9.441275597E0
7.204000000E0,-3.798142433E0,-8.807501793E-1,9.696344376E0
7.224003125E0,-3.673557758E0,-5.854780674E-1,1.008872604E1
7.246000000E0,-2.820637703E0,-8.495010734E-1,9.683511734E0
7.266012500E0,-2.393224955E0,-5.571594834E-1,9.006105423E0
7.288000000E0,-2.447017908E0,1.050096899E-1,7.699752331E0
7.308000000E0,-2.361832142E0,5.766386986E-1,6.777161598E0
7.328000000E0,-2.102817774E0,5.271840692E-1,6.743432045E0
7.348000000E0,-2.122392893E0,7.523347735E-1,6.671347141E0
7.368000000E0,-2.335342646E0,9.731472135E-1,6.469898701E0
7.388000000E0,-2.576151371E0,1.533505321E0,7.218518257E0
7.408001562E0,-2.917420864E0,1.779322863E0,5.160490990E0
7.430000000E0,-2.652066946E0,7.024970651E-1,9.413656235E0
7.450000000E0,-2.769430637E0,6.350955367E-1,1.058581924E1
7.470001562E0,-3.512542963E0,8.256356716E-1,1.043203545E1
7.490007812E0,-3.850699902E0,2.897654474E-1,1.088377285E1
7.512000000E0,-2.854242563E0,-2.507303655E-1,9.882575035E0
7.532003125E0,-2.814556360E0,4.219445288E-1,9.981857300E0
7.554000000E0,-3.086700678E0,7.198311090E-1,1.089602184E1
7.575998437E0,-2.933452606E0,7.885255218E-1,1.166617870E1
7.596001562E0,-2.020859480E0,4.457620680E-1,1.199179935E1
7.618000000E0,-1.827867627E0,4.839352071E-1,1.140225220E1
7.638000000E0,-1.988863349E0,6.834871173E-1,1.048392200E1
7.658000000E0,-1.918617487E0,8.349347711E-1,9.328987122E0
7.678000000E0,-1.383341074E0,5.555888414E-1,9.340518951E0
7.698000000E0,-8.429792523E-1,4.256890416E-1,9.953865051E0
7.718000000E0,-7.651389837E-1,1.026691198E0,1.000466061E1
7.738000000E0,-7.913507223E-1,8.261432648E-1,9.855070114E0
7.758000000E0,-1.145366907E0,7.646409869E-1,8.800989151E0
7.778000000E0,-1.973693728E0,1.358489275E0,8.040409088E0
7.798004687E0,-2.597823620E0,1.996831298E0,7.376056671E0
7.820015625E0,-2.650218487E0,2.045222998E0,6.641850471E0
7.842000000E0,-2.613472223E0,1.990826488E0,6.983397961E0
7.862000000E0,-2.673921108E0,2.057844877E0,6.665668488E0
7.882000000E0,-4.854301453E0,3.349411726E0,3.784093380E0
7.902000000E0,-4.319809914E0,2.001753807E0,7.534552574E0
7.922007812E0,-4.037256241E0,1.010611653E0,9.067425728E0
7.944000000E0,-4.169243813E0,2.494154692E0,1.028813362E1
7.964003125E0,-2.793985605E0,1.977687240E0,1.011120224E1
7.986000000E0,-2.379999161E0,2.040463209E0,9.453687668E0
8.006001562E0,-3.031107187E0,3.068897247E0,9.787180901E0
8.028000000E0,-3.502611876E0,3.223639488E0,1.126005459E1
8.048000000E0,-2.922582865E0,2.890653849E0,1.216996670E1
8.068000000E0,-1.860783100E0,2.446625233E0,1.265954304E1
8.088001562E0,-1.698513627E0,2.302283525E0,1.228802967E1
8.110000000E0,-1.558481693E0,2.518240452E0,1.118856430E1
8.130001562E0,-1.302560687E0,2.440658808E0,9.905529976E0
8.152000000E0,-1.965246916E0,2.282325506E0,8.131580353E0
8.172004687E0,-2.556968927E0,2.197139740E0,7.912051201E0
8.194000000E0,-2.914767981E0,2.037532806E0,9.022415161E0
8.214000000E0,-3.097254038E0,1.989150643E0,9.438536644E0
8.234000000E0,-2.024527311E0,1.153382659E0,1.023137188E1
8.254006250E0,-1.453127146E0,5.987802744E-1,1.040670395E1
8.276000000E0,-2.098632812E0,8.943876028E-1,9.705711365E0
8.296004687E0,-2.576668739E0,1.297302961E0,8.772584915E0
8.318000000E0,-3.204016685E0,1.653177142E0,8.099919319E0
8.338000000E0,-3.126607180E0,1.642929912E0,7.773015022E0
8.358000000E0,-3.318957329E0,1.772494555E0,7.650671482E0
8.378007812E0,-3.556270599E0,1.621018171E0,8.392117500E0
8.400000000E0,-2.897280931E0,1.697910428E0,3.017249584E0
8.420007812E0,-3.617619514E0,2.036823988E0,7.183466911E0
8.442000000E0,-2.681046247E0,1.726688743E0,9.057628632E0
8.462006250E0,-3.280133009E0,2.236950397E0,8.641258240E0
8.484000000E0,-3.530298233E0,2.092723846E0,8.861678123E0
8.504014062E0,-3.215594769E0,2.284336567E0,9.215301514E0
8.526006250E0,-3.019318104E0,2.335170269E0,1.034578609E1
8.548000000E0,-2.916999578E0,2.204063654E0,1.155574894E1
8.568000000E0,-2.523526907E0,2.596377611E0,1.114780521E1
8.588000000E0,-1.976729512E0,2.440352201E0,1.104609013E1
8.608000000E0,-2.486914873E0,2.466410875E0,1.073797512E1
8.628000000E0,-2.699452877E0,2.579924822E0,1.076313400E1
8.648001562E0,-2.601328850E0,2.456556320E0,1.029729843E1
8.670009375E0,-2.475614071E0,1.969786406E0,9.369775772E0
8.692001562E0,-1.891562939E0,1.388933897E0,9.379055977E0
8.714000000E0,-1.865389585E0,1.848994136E0,1.030669308E1
8.734000000E0,-1.920628667E0,1.868300915E0,1.079511070E1
8.754000000E0,-1.603914022E0,1.248499513E0,1.012070179E1
8.774000000E0,-1.777196765E0,1.347131133E0,8.974693298E0
8.794001562E0,-2.416103840E0,1.911310434E0,8.058423042E0
8.816006250E0,-2.977161169E0,2.568719864E0,7.067463398E0
8.836012500E0,-2.815121651E0,2.457695961E0,6.729602814E0
8.858000000E0,-3.186002493E0,2.695555210E0,6.953077793E0
8.878000000E0,-4.194507122E0,2.746541977E0,5.256862164E0
8.898000000E0,-4.023771763E0,2.008553267E0,7.250063896E0
8.918004687E0,-4.610437393E0,2.000671625E0,8.910318375E0
8.940000000E0,-4.097005844E0,2.635623455E0,9.705921173E0
8.960000000E0,-3.221312284E0,1.966740966E0,7.817681789E0
8.980000000E0,-2.863829136E0,2.019796371E0,7.643632889E0
9.000000000E0,-3.117193222E0,2.594376326E0,7.135085106E0
9.020006250E0,-4.033453941E0,3.808657646E0,9.949966431E0
9.042006250E0,-3.393876791E0,3.712200165E0,1.109037304E1
9.064000000E0,-3.242026806E0,2.275228977E0,1.165445709E1
9.084007812E0,-3.436933994E0,2.566813946E0,1.083950901E1
9.106000000E0,-4.048901558E0,2.604297638E0,1.094548512E1
9.126000000E0,-4.292966366E0,2.381033659E0,1.080484104E1
9.146004687E0,-3.996525764E0,2.277939320E0,1.066869736E1
9.166007812E0,-3.682923794E0,2.226368189E0,9.325014114E0
9.186007812E0,-3.428602219E0,1.677329779E0,8.953835487E0
9.208004687E0,-3.267405272E0,4.719163179E-1,1.018087292E1
9.229998437E0,-4.817928791E0,9.643077850E-1,1.264960194E1
9.250014062E0,-3.981988192E0,5.796841383E-1,1.111808872E1
9.272000000E0,-2.600275278E0,-2.502419651E-1,1.051773739E1
9.292006250E0,-1.209387898E0,1.220085099E-2,8.220586777E0
9.314007812E0,-6.360340714E-1,3.435200453E-1,6.490316868E0
9.336000000E0,-1.365193009E0,1.275621057E0,6.137488365E0
9.356000000E0,-2.555695295E0,9.291896820E-1,5.853966713E0
9.376006250E0,-4.772362232E0,5.600804090E-1,5.321247578E0
9.396006250E0,-4.582492828E0,2.854367495E-1,8.248991966E0
9.418000000E0,-3.946266890E0,-1.562341094E0,6.117894173E0
9.438000000E0,-6.365042686E0,-6.671873927E-1,5.275048733E0
9.458004687E0,-7.185583591E0,3.081337512E-1,5.738135338E0
9.480000000E0,-8.458541870E0,-7.793509364E-1,6.832611561E0
9.500004687E0,-8.862195015E0,-1.104962349E0,6.075459003E0
9.522000000E0,-8.206663132E0,-2.098737955E0,6.759606838E0
9.542000000E0,-7.868409634E0,-1.916405320E0,6.925965786E0
9.562000000E0,-8.014398575E0,-9.186168909E-1,5.748248577E0
9.582000000E0,-8.907320976E0,-1.768788338E0,5.166045189E0
9.602000000E0,-7.688298702E0,-3.921213865E0,6.553638458E0
9.622000000E0,-8.727391243E0,-5.737455368E0,5.076560020E0
9.642000000E0,-1.064150810E1,-5.395879269E0,7.817039967E0
9.664000000E0,-9.771140099E0,-3.661289692E0,5.581746101E0
9.686004687E0,-8.030775070E0,-4.215183735E0,6.856744766E0
9.708000000E0,-1.047133827E1,-3.596895456E0,6.772823334E0
9.728000000E0,-9.074225426E0,-3.490478039E0,3.093002081E0
9.748000000E0,-1.050495243E1,-2.724352598E0,2.002730608E0
9.768000000E0,-8.833675385E0,-8.930180669E-1,5.753841400E-1
9.788001562E0,-8.799180031E0,6.657604575E-1,9.784719348E-1
9.810003125E0,-7.562220097E0,-9.470503777E-2,1.507533073E0
9.832000000E0,-5.088913918E0,-5.015757084E-1,-1.762410164E0
9.852000000E0,-6.004829884E0,1.279250741E0,-8.698709011E-1
9.872000000E0,-6.988492489E0,-1.596013188E0,-1.201333761E0
9.892000000E0,-8.319094658E0,-2.033079386E0,-2.031020403E0
9.912000000E0,-7.995512962E0,-3.193175554E0,-2.369627714E0
9.932000000E0,-1.006527138E1,-3.134651661E0,-2.115631580E0
9.952000000E0,-1.237981319E1,-2.863723993E0,-2.601367235E0
9.972000000E0,-1.171527958E1,-2.679964066E0,-4.464582920E0
9.992000000E0,-9.505420685E0,-2.099887133E0,-3.667122126E0
1.001200000E1,-1.094131088E1,-2.392477751E0,-2.296211958E0
1.003200000E1,-1.219079590E1,-3.317587852E0,-3.088845730E0
1.005200000E1,-1.072357273E1,-3.645009279E0,-4.503301620E0
1.007200000E1,-1.068894196E1,-3.986719131E0,-3.507639647E0
1.009200000E1,-1.136253643E1,-3.384931803E0,-2.964615583E0
1.011200000E1,-1.099877167E1,-3.457705975E0,-4.772151470E0
1.013200000E1,-9.912760735E0,-3.095290899E0,-5.334453583E0
1.015200000E1,-9.819004059E0,-2.734503984E0,-4.544616222E0
1.017200000E1,-9.690837860E0,-4.275383472E0,-3.307733297E0
1.019200000E1,-8.683261871E0,-4.608196735E0,-4.713560581E0
1.021200000E1,-7.207686424E0,-4.883471966E0,-2.687098980E0
1.023200000E1,-6.116399765E0,-5.796170712E0,-2.089486837E0
1.025200000E1,-5.092782974E0,-5.949974656E-1,-2.061637402E0
1.027200000E1,-6.443467140E0,9.457767606E-1,-8.200811148E-1
1.029200000E1,-7.863669395E0,7.841489315E-1,-3.655179739E-1
1.031200000E1,-6.527810097E0,-3.190129995E-1,-1.359494805E0
1.033200000E1,-5.021608353E0,-5.186798424E-2,-1.003476977E0
1.035200000E1,-4.951774120E0,4.363097548E-1,-6.327396631E-2
1.037200000E1,-5.507841587E0,2.237046361E-1,6.663351059E-1
1.039200000E1,-5.418576717E0,9.187222123E-1,1.652075768E0
1.041200000E1,-5.850145340E0,1.822964311E0,3.257608414E0
1.043400000E1,-6.991222382E0,1.935309768E0,2.302178144E0
1.045400000E1,-6.727543831E0,1.491693020E0,4.383783340E-1
1.047400000E1,-7.745587349E0,2.087791681E0,3.083377361E0
1.049400000E1,-8.412746429E0,2.065592766E0,4.072901249E0
1.051400156E1,-7.722497463E0,1.976576328E0,4.406489849E0
1.053600000E1,-7.310264111E0,1.093498945E0,6.299067974E0
1.055600000E1,-6.647280693E0,-4.255932868E-1,6.505859852E0
1.057601094E1,-7.062214851E0,-1.012680292E0,9.025393486E0
1.059800000E1,-8.132480621E0,-1.217202544E0,1.043509960E1
1.061800000E1,-6.934077263E0,1.162605166E0,1.009766006E1
1.063800000E1,-8.433508873E0,9.484773278E-1,1.024182987E1
1.065800000E1,-1.040140820E1,-1.849923134E0,1.130378342E1
1.067800000E1,-1.092908955E1,-4.273046970E0,1.217886353E1
1.069800000E1,-1.144419861E1,-4.550678253E0,1.112685204E1
1.071800000E1,-1.393021297E1,-2.039084196E0,1.333056068E1
1.073800000E1,-1.373986435E1,1.094983339E0,1.402778149E1
1.075800000E1,-1.285310936E1,2.804242134E0,1.354927540E1
1.077800000E1,-1.094395351E1,4.783020973E0,1.263094616E1
1.079800156E1,-8.042065620E0,4.311775208E0,1.061829376E1
1.082000000E1,-5.684007168E0,3.755314827E0,9.018115044E0
1.084000000E1,-4.964999676E0,3.761262178E0,7.494196415E0
1.086000000E1,-4.848794937E0,3.574054718E0,7.385968685E0
1.088000000E1,-5.299852371E0,3.169654846E0,7.992084503E0
1.090000000E1,-6.138283253E0,3.260213137E0,8.796010017E0
1.092000000E1,-6.302917957E0,3.523307085E0,9.041147232E0
1.094000000E1,-6.043750286E0,2.767620564E0,8.911879539E0
1.096000156E1,-6.787102222E0,2.159224987E0,8.412583351E0
1.098200000E1,-8.594082832E0,3.408586740E0,9.651975632E0
1.100200000E1,-9.800673485E0,4.236013412E0,1.010227680E1
1.102200000E1,-1.086633301E1,4.324215412E0,1.082463551E1
1.104200000E1,-1.269730377E1,4.308155060E0,1.094425964E1
1.106200000E1,-1.197869778E1,3.514965773E0,1.004207706E1
1.108200000E1,-1.023737717E1,3.681927919E0,8.180020332E0
1.110200000E1,-9.326823235E0,2.875014782E0,7.877642155E0
1.112200000E1,-1.081510735E1,9.280787706E-1,1.087443542E1
1.114200000E1,-1.336545944E1,-1.003984571E0,1.506591606E1
1.116200000E1,-1.397782803E1,-2.489481449E0,1.734485245E1
1.118200000E1,-1.331594658E1,-2.794722795E0,1.807766724E1
1.120200000E1,-1.231472969E1,-2.765925646E0,1.624118233E1
1.122200000E1,-1.112462997E1,-2.537221670E0,1.352872372E1
1.124200000E1,-9.264401436E0,-2.707650661E0,1.081634235E1
1.126200000E1,-7.464718819E0,-2.757267952E0,9.284111023E0
1.128200000E1,-5.884947777E0,-2.903573036E0,9.262965202E0
1.130200000E1,-4.895951271E0,-2.908112288E0,1.057385731E1
1.132200000E1,-4.647853851E0,-3.028693914E0,1.195853043E1
1.134200000E1,-4.583143711E0,-3.045836449E0,1.132376957E1
1.136200000E1,-4.430575848E0,-3.588678360E0,9.650720596E0
1.138200000E1,-4.315749645E0,-3.959205151E0,8.607404709E0
1.140401094E1,-4.396615982E0,-4.451912403E0,8.535864830E0
1.142600625E1,-4.758734226E0,-4.182249069E0,8.678531647E0
1.144800000E1,-4.853305340E0,-4.288647652E0,8.905195236E0
1.146800000E1,-5.407352448E0,-4.651388168E0,9.164688110E0
1.148800000E1,-6.019463539E0,-4.533085823E0,8.960242271E0
1.150800000E1,-6.486457348E0,-3.798180580E0,8.972807884E0
1.152800000E1,-6.434551239E0,-2.977687836E0,8.972290039E0
1.154800000E1,-5.608752251E0,-3.878108740E0,9.241925240E0
1.156800000E1,-3.981001854E0,-4.432950497E0,8.123661041E0
1.158800000E1,-2.849157572E0,-4.706119537E0,7.185803890E0
1.160800000E1,-2.845681190E0,-4.388792038E0,6.147687435E0
1.162800000E1,-3.823004007E0,-4.265260696E0,6.832678318E0
1.164800000E1,-4.851342201E0,-4.402256966E0,9.047371864E0
1.166800000E1,-5.201364517E0,-4.425059795E0,1.017376804E1
1.168800000E1,-5.831039906E0,-3.115890741E0,9.316968918E0
1.170800000E1,-6.757462025E0,-9.890159965E-1,9.108213425E0
1.172800000E1,-7.659520626E0,4.165432155E-1,9.443765640E0
1.174800000E1,-7.561013699E0,1.324395776E0,8.768600464E0
1.176800000E1,-6.078935623E0,7.909293175E-1,7.648890018E0
1.178800000E1,-6.212551117E0,5.560868382E-1,6.717804432E0
1.180800000E1,-6.664250851E0,1.123378515E0,7.085065365E0
1.182800000E1,-6.449117661E0,2.523775995E-1,7.143531799E0
1.184800000E1,-6.047753334E0,-3.247878253E-1,6.850835800E0
1.186800000E1,-6.749857903E0,-2.808015347E-1,6.663283825E0
1.188800000E1,-7.819778919E0,-1.776880771E-1,7.265300751E0
1.190800000E1,-8.095820427E0,-1.123359427E-2,8.567038536E0
1.192800000E1,-8.408263206E0,-3.104417622E-1,1.104921150E1
1.194800000E1,-8.800050735E0,-1.239344120E0,1.271697426E1
1.196800000E1,-8.448926926E0,-1.956867218E0,1.230934811E1
1.198800000E1,-7.942668438E0,-1.765168309E0,1.211585712E1
1.200800000E1,-7.858143330E0,-1.199705720E0,1.324983788E1
1.202800000E1,-8.473691940E0,-8.584936857E-1,1.546948338E1
1.204800000E1,-8.771023750E0,7.359776646E-2,1.579914570E1
1.206800000E1,-8.144422531E0,1.422768712E0,1.346055698E1
1.208800000E1,-7.716895103E0,4.342986047E-1,1.194684696E1
1.210800000E1,-7.231303215E0,-1.251439691E0,1.085982132E1
1.212800000E1,-7.804829597E0,-2.598609209E0,1.053201675E1
1.214800000E1,-8.152716637E0,-3.022603035E0,1.008906078E1
1.216800000E1,-7.750117302E0,-2.046170950E0,1.026682472E1
1.218800000E1,-5.717477798E0,-2.151975632E0,9.745550156E0
1.220800000E1,-3.549317837E0,-2.478899002E0,8.688950539E0
1.222800000E1,-2.204207420E0,-2.233704090E0,7.069982052E0
1.224800000E1,-1.884246349E0,-1.486483335E0,5.793891430E0
1.226800000E1,-2.488284111E0,-8.938320875E-1,5.376276016E0
1.228800000E1,-2.380066395E0,-1.247446179E0,5.767334938E0
1.230800000E1,-1.560933352E0,-2.309849024E0,6.507478714E0
1.232800000E1,-1.234871864E0,-3.122728586E0,7.487281799E0
1.234800000E1,-1.716240406E0,-4.453674793E0,9.195678711E0
1.236800000E1,-1.454841375E0,-6.887524605E0,1.082375526E1
1.238800000E1,-1.442487478E0,-7.559260845E0,9.714204788E0
1.240800000E1,-2.610292673E0,-8.457574844E0,8.549128532E0
1.242800000E1,-3.372951508E0,-8.258712769E0,7.913066387E0
1.244800000E1,-3.743487597E0,-9.121994972E0,8.493143082E0
1.246800156E1,-3.598073244E0,-9.359747887E0,8.251377106E0
1.249000000E1,-2.739771128E0,-8.439809799E0,7.082652092E0
1.251000000E1,-2.416649580E0,-9.332627296E0,7.916217327E0
1.253000000E1,-2.769478559E0,-8.796487808E0,8.878609657E0
1.255000000E1,-3.540028334E0,-5.606578827E0,7.814588547E0
1.257000313E1,-4.317329884E0,-2.323783398E0,7.106632233E0
1.259199844E1,-5.579419136E0,-1.503137350E0,9.224409103E0
1.261200000E1,-5.622658253E0,-2.477567911E0,1.278203011E1
1.263200000E1,-4.214302540E0,-2.657372236E0,1.524094200E1
1.265200000E1,-3.805985928E0,-2.713492393E0,1.580698967E1
1.267200000E1,-4.485843182E0,-1.865561962E0,1.356630325E1
1.269200000E1,-3.734724760E0,-4.420366883E-1,9.616991043E0
1.271200938E1,-2.475039482E0,4.534617960E-1,6.525923252E0
1.273400000E1,-1.468948126E0,1.033414006E0,5.125190735E0
1.275400000E1,-1.412818432E0,9.909696579E-1,5.532961845E0
1.277400000E1,-1.840011001E0,6.119483709E-1,5.793431759E0
1.279400000E1,-1.969039321E0,-2.513911761E-2,5.285133362E0
1.281400000E1,-1.848639727E0,-7.545853257E-1,4.866004467E0
1.283400000E1,-2.681237698E0,-3.052990139E-1,5.061553001E0
1.285400000E1,-3.829592705E0,4.324406981E-1,6.187144279E0
1.287400000E1,-4.795805931E0,1.174480438E0,8.448918343E0
1.289400000E1,-5.560073853E0,1.204206824E0,1.074587631E1
1.291400000E1,-5.675962925E0,-1.136767026E-2,1.227739906E1
1.293400000E1,-5.048375607E0,-1.277306676E0,1.201908398E1
1.295400156E1,-5.004848480E0,-1.569092751E0,1.126322460E1
1.297600000E1,-5.621441841E0,-1.822839856E0,1.142375088E1
1.299600469E1,-5.603025913E0,-1.600552559E0,1.156196404E1
1.301800000E1,-5.105567932E0,-3.818272799E-2,1.072474957E1
1.303800000E1,-5.958823204E0,7.256633639E-1,1.079569530E1
1.305800000E1,-7.806735516E0,2.684187293E-1,1.267506599E1
1.307800000E1,-8.921839714E0,-4.690145254E-1,1.448717117E1
1.309800000E1,-9.301636696E0,-1.306190252E0,1.564174080E1
1.311800000E1,-9.988265038E0,-2.258086443E0,1.657886887E1
1.313800000E1,-9.352757454E0,-2.093365431E0,1.680140686E1
1.315800000E1,-7.771291733E0,-3.363374770E-1,1.581837559E1
1.317800000E1,-7.646141529E0,1.832991242E0,1.419942570E1
1.319800000E1,-6.751485825E0,1.198202133E0,1.303366947E1
1.321800000E1,-5.804042816E0,-4.522168264E-2,1.157719994E1
1.323800000E1,-5.521411896E0,-6.591620445E-1,1.027104855E1
1.325800000E1,-5.172519684E0,-1.475489020E0,9.860788345E0
1.327800000E1,-4.878195286E0,-1.142398119E0,1.026743889E1
1.329800000E1,-4.009473801E0,-1.865351319E0,1.055184078E1
1.331800000E1,-3.005699873E0,-1.761327982E0,9.642494202E0
1.333800000E1,-1.866921902E0,-2.244583368E0,9.975766182E0
1.335800000E1,-1.091037750E0,-2.107299805E0,8.420828819E0
1.337800000E1,-3.663415909E-1,-2.390409231E0,7.761178017E0
1.339800000E1,-4.044189751E-1,-2.020275354E0,6.425319195E0
1.341800000E1,-4.294718802E-1,-8.789114356E-1,5.641792297E0
1.343800000E1,-5.661520958E-1,6.511271000E-1,5.096354961E0
1.345800000E1,-1.140875340E0,2.446041107E0,4.948019981E0
1.347800000E1,-1.250501156E0,2.430459499E0,6.362820625E0
1.349800000E1,-6.970478892E-1,1.302464843E0,7.361001968E0
1.351800000E1,2.300253361E-1,1.367903233E0,6.854197502E0
1.353800000E1,5.130103827E-1,1.981872320E0,6.859349728E0
1.355800000E1,-7.743805647E-2,2.417166948E0,8.016199112E0
1.357800000E1,-1.378092885E0,2.053257704E0,9.218107224E0
1.359800000E1,-2.274462938E0,1.710637927E0,9.947017670E0
1.361800000E1,-2.620511293E0,1.989313483E0,9.948760986E0
1.363800000E1,-2.611528158E0,2.726009369E0,9.723370552E0
1.365800000E1,-3.128101110E0,3.864155293E0,1.007051945E1
1.367800000E1,-3.640000820E0,4.341961384E0,1.026499653E1
1.369800000E1,-3.727590084E0,4.924451828E0,9.467142105E0
1.371800000E1,-3.110776663E0,4.097589970E0,7.507794857E0
1.373800000E1,-2.431445837E0,3.487087727E0,4.894839764E0
1.375800000E1,-1.278178096E0,3.071415901E0,3.739494085E0
1.377800000E1,-2.599336803E-1,1.875282526E0,3.921022415E0
1.379800000E1,-8.606676757E-2,1.050058603E0,4.492834568E0
1.381800000E1,-3.837809563E-1,4.179126918E-1,5.060595036E0
1.383800000E1,-9.430090189E-1,1.417367347E-2,5.788518906E0
1.385800000E1,-1.485831976E0,-6.618340015E-1,6.815554619E0
1.387800000E1,-2.341711283E0,-9.740570188E-1,7.913382530E0
1.389800000E1,-3.296394348E0,-1.581590414E0,9.247268677E0
1.391800000E1,-4.027056694E0,-2.575155497E0,1.120760250E1
1.393800000E1,-4.685050488E0,-3.251316309E0,1.234936905E1
1.395800000E1,-5.318603992E0,-4.577139378E0,1.395855999E1
1.397800000E1,-5.681000233E0,-5.482893944E0,1.606558228E1
1.399800000E1,-5.847387791E0,-5.241750717E0,1.665706444E1
1.401800000E1,-6.554376125E0,-4.280736923E0,1.633824348E1
1.403800000E1,-7.812376022E0,-3.397764921E0,1.612276459E1
1.405800000E1,-9.501628876E0,-3.088989496E0,1.618657494E1
1.407800000E1,-1.072008610E1,-2.509573460E0,1.648403168E1
1.409800000E1,-1.099995899E1,-7.157514095E-1,1.521492195E1
1.411800000E1,-9.817855835E0,9.711456895E-1,1.250632286E1
1.413800000E1,-8.000827789E0,1.344851851E0,1.059212112E1
1.415800000E1,-5.801179886E0,9.200629592E-1,8.769787788E0
1.417800000E1,-3.745833874E0,1.784350574E-1,6.874912262E0
1.419800000E1,-2.301852465E0,-1.432019919E-1,5.361881733E0
1.421800000E1,-1.523669958E0,1.594538242E-2,4.422990799E0
1.423800000E1,-1.350540400E0,4.354478121E-1,4.255904198E0
1.425800000E1,-1.815417886E0,5.289653540E-1,4.779229164E0
1.427800000E1,-2.124222040E0,3.281588852E-1,5.740079403E0
1.429800000E1,-2.491837263E0,9.306740761E-2,7.153807640E0
1.431800000E1,-3.063275576E0,-6.863409877E-1,8.972529411E0
1.433800000E1,-3.919423103E0,-1.591253519E0,1.079580975E1
1.435800000E1,-4.270681381E0,-2.885061026E0,1.222864342E1
1.437800000E1,-3.844733715E0,-4.231454372E0,1.250749111E1
1.439800000E1,-3.787847519E0,-6.002570152E0,1.195777321E1
1.441800000E1,-3.444097519E0,-7.923026562E0,1.166454124E1
1.443800000E1,-2.258718491E0,-8.223594666E0,1.044396782E1
1.445800000E1,-7.036750317E-1,-7.517180443E0,8.746842384E0
1.447800000E1,-1.470260143E0,-8.374888420E0,1.055851555E1
1.449800000E1,-9.915442467E-1,-6.786269188E0,1.010809994E1
1.451800000E1,-6.938875318E-1,-4.379990578E0,8.358551025E0
1.453800000E1,-1.133367181E0,-2.377403975E0,7.162551403E0
1.455800000E1,-2.374387264E0,-2.814805508E0,8.175202370E0
1.457800000E1,-2.259360313E0,-3.548388958E0,8.729719162E0
1.459800000E1,-1.181653500E0,-4.498915672E0,9.583080292E0
1.461800000E1,1.203708872E-1,-4.758313179E0,1.043176651E1
1.463800000E1,-1.412674785E-1,-4.749780178E0,1.051857090E1
1.465800000E1,-5.361766815E-1,-3.484032631E0,8.181015968E0
1.467800000E1,-8.657720685E-1,-1.953936815E0,5.962596893E0
1.469800000E1,-8.305581808E-1,-4.802193940E-1,4.828252316E0
1.471800000E1,-1.016003370E0,2.838374078E-1,5.588258266E0
1.473800000E1,-1.516717196E0,8.744103312E-1,6.746850491E0
1.475800000E1,-2.234019995E0,1.025177956E0,7.531334877E0
1.477800000E1,-2.633870840E0,9.213749766E-1,7.474544525E0
1.479800000E1,-3.172891855E0,7.218326330E-1,7.335010052E0
1.481800000E1,-3.499978065E0,9.398007989E-1,7.751304626E0
1.483800000E1,-3.820657492E0,1.625126719E0,8.226131439E0
1.485800000E1,-4.015162468E0,2.093834639E0,9.123814583E0
1.487800000E1,-5.202399254E0,2.902912140E0,1.079864407E1
1.489800000E1,-6.549424648E0,3.303998232E0,1.247717190E1
1.491800000E1,-7.142325401E0,3.383485794E0,1.445428371E1
1.493800000E1,-6.962616444E0,2.526419163E0,1.513682365E1
1.495800000E1,-7.650307655E0,1.272901297E0,1.508509827E1
1.497800000E1,-7.527532578E0,1.552199244E0,1.384708595E1
1.499800156E1,-7.078562737E0,1.923836827E0,1.361808491E1
1.502000000E1,-7.146739960E0,1.527471900E0,1.514819050E1
1.504000000E1,-8.322331429E0,4.340208769E-1,1.678209877E1
1.506000000E1,-1.015649128E1,-2.057701349E0,1.747848701E1
1.508000000E1,-1.051967144E1,-3.790557623E0,1.682302094E1
1.510000000E1,-8.856668472E0,-4.289221764E0,1.610504723E1
1.512000000E1,-6.945741653E0,-3.626765490E0,1.455635357E1
1.514000000E1,-6.130554676E0,-2.377365828E0,1.237046719E1
1.516000000E1,-6.670599937E0,-1.389374375E0,9.760289192E0
1.518000000E1,-6.766176701E0,-4.635749161E-1,7.329877377E0
1.520000000E1,-6.129903316E0,6.415790319E-1,5.199085236E0
1.522000000E1,-5.248042583E0,6.951133609E-1,4.619947433E0
1.524000000E1,-4.306125164E0,6.808726788E-1,4.358193874E0
1.526000000E1,-2.472482443E0,-9.958633780E-1,5.466307163E0
1.528000000E1,-7.120164037E-1,-3.921175718E0,6.445631504E0
1.530000000E1,1.429424524E0,-6.198339462E0,6.838615894E0
1.532000000E1,2.374320269E0,-6.813677788E0,5.652575970E0
1.534000000E1,2.670176506E0,-6.809310436E0,5.525673866E0
1.536000000E1,1.902499795E0,-6.469334126E0,7.570245743E0
1.538000000E1,1.197953105E0,-5.929422379E0,1.031823349E1
1.540000000E1,5.501013994E-1,-5.451271534E0,1.187949181E1
1.542000000E1,-2.491214722E-1,-4.909789562E0,1.188989258E1
1.544000000E1,-1.753024936E0,-4.897272587E0,1.207303047E1
1.546000000E1,-3.280075550E0,-5.317052841E0,1.284013271E1
1.548000000E1,-4.866760731E0,-5.489894867E0,1.418030071E1
1.550000000E1,-5.394739628E0,-4.255070686E0,1.407809734E1
1.552000000E1,-5.554806709E0,-2.760160208E0,1.241109180E1
1.554000000E1,-6.120489120E0,-1.629426599E0,1.190148067E1
1.556200000E1,-7.209305286E0,-1.484031558E0,1.324357414E1
1.558200000E1,-8.161345482E0,-1.387142897E0,1.455720615E1
1.560200000E1,-8.958901405E0,-9.547885060E-1,1.599650383E1
1.562200000E1,-9.150341988E0,-9.657251835E-2,1.646186829E1
1.564200000E1,-9.022175789E0,2.990453839E-1,1.547224140E1
1.566200000E1,-8.288936615E0,1.258928657E0,1.366204262E1
1.568200000E1,-7.263155937E0,1.716987371E0,1.110936451E1
1.570200000E1,-6.132441521E0,2.347064734E0,8.767203331E0
1.572200000E1,-5.296816826E0,2.150577307E0,7.724096775E0
1.574200000E1,-4.583555698E0,1.954118609E0,7.416307926E0
1.576200000E1,-3.865917444E0,1.598282814E0,8.209335327E0
1.578200000E1,-3.937063456E0,1.138088584E0,9.714453697E0
1.580200000E1,-4.471545219E0,7.497777939E-1,1.100680542E1
1.582200000E1,-4.681861401E0,1.556259871E0,1.053229427E1
1.584200000E1,-4.818187714E0,2.224251747E0,1.061578560E1
1.586200000E1,-5.735224247E0,2.611250401E0,1.106363487E1
1.588200000E1,-6.354373932E0,2.599011183E0,1.155779743E1
1.590200000E1,-7.193714142E0,3.253710508E0,1.227810860E1
1.592200000E1,-7.728262901E0,3.584867001E0,1.323620033E1
1.594200000E1,-8.382282257E0,4.217701912E0,1.381784725E1
1.596200000E1,-9.020586014E0,4.285582542E0,1.250164032E1
1.598200000E1,-8.751917839E0,4.156027794E0,1.028124809E1
1.600200000E1,-7.148071289E0,4.740825653E0,7.615792751E0
1.602200000E1,-6.488890171E0,4.722179890E0,6.448121548E0
1.604200000E1,-6.715391159E0,3.563060522E0,7.097390652E0
1.606200000E1,-7.290678978E0,1.095720768E0,9.182760239E0
1.608200000E1,-7.930687904E0,-8.993196487E-1,1.198115063E1
1.610200000E1,-6.693565369E0,-2.147713900E0,1.416675949E1
1.612200000E1,-5.511116982E0,-2.248902321E0,1.469153023E1
1.614200000E1,-4.953210354E0,-1.287563324E0,1.315986347E1
1.616200000E1,-4.621776581E0,-4.042465687E-1,1.186254215E1
1.618200000E1,-4.529484749E0,-2.150567770E-1,1.083816814E1
1.620200000E1,-4.757326603E0,-5.310435295E-1,1.051383972E1
1.622200000E1,-5.265127659E0,-8.114045262E-1,1.077042198E1
1.624200000E1,-5.639091969E0,-1.581379771E0,1.074933434E1
1.626200000E1,-5.541389465E0,-2.127813339E0,9.951183319E0
1.628200000E1,-5.091490269E0,-2.561154127E0,9.376105309E0
1.630200000E1,-4.581659317E0,-2.765494347E0,9.325339317E0
1.632200000E1,-4.027698517E0,-2.944389105E0,9.352164268E0
1.634200000E1,-2.657659769E0,-3.862460136E0,9.300947189E0
1.636200000E1,-1.584568858E0,-5.542232037E0,9.376326561E0
1.638200000E1,-6.776260734E-1,-7.608926296E0,8.938081741E0
1.640200000E1,-1.481723487E-1,-7.116304874E0,7.624804497E0
1.642200000E1,-1.639836580E-1,-6.965584755E0,7.878886700E0
1.644200000E1,-1.109080434E0,-6.749226093E0,1.001711082E1
1.646200000E1,-1.844809055E0,-6.200839043E0,1.269183636E1
1.648200000E1,-2.762765169E0,-6.323460102E0,1.480866432E1
1.650200000E1,-3.140598774E0,-5.198922634E0,1.476391220E1
1.652200000E1,-3.235236883E0,-4.404037952E0,1.230593872E1
1.654200000E1,-2.778039932E0,-2.881728172E0,9.517794609E0
1.656200000E1,-3.433438540E0,-2.180744171E0,8.275184631E0
1.658200000E1,-4.891622066E0,-1.982935309E0,9.394838333E0
1.660200000E1,-5.742339134E0,-1.343472719E0,1.079129028E1
1.662200000E1,-5.678749561E0,-5.056745410E-1,1.192683983E1
1.664200000E1,-4.793948174E0,9.195649624E-2,1.162666512E1
1.666200000E1,-4.321112633E0,3.349009454E-1,1.090920925E1
1.668200000E1,-3.989889145E0,6.572562456E-1,9.393803596E0
1.670200000E1,-3.620483160E0,6.755000353E-1,7.870650768E0
1.672200000E1,-3.133837700E0,8.319563866E-1,7.101901531E0
1.674200000E1,-2.807785749E0,8.205887079E-1,6.645125866E0
1.676200000E1,-2.674581766E0,1.046103358E0,7.171668530E0
1.678200156E1,-2.873386621E0,1.028932095E0,7.784201145E0
1.680200156E1,-3.068724871E0,8.613476157E-1,8.095686913E0
1.682400156E1,-3.583334684E0,1.077141762E0,7.780102253E0
1.684600156E1,-4.571977139E0,1.503118157E0,8.623253822E0
1.686800156E1,-5.221064568E0,2.285457134E0,1.016396141E1
1.689000000E1,-5.305963039E0,2.704892635E0,1.124034595E1
1.691000000E1,-5.862193584E0,2.222144842E0,1.209022045E1
1.693000000E1,-6.366440773E0,1.483725071E0,1.173674011E1
1.695000000E1,-6.952005386E0,1.129938722E0,1.158573341E1
1.697000156E1,-8.178162575E0,1.014624357E0,1.228854656E1
1.699200000E1,-9.339167595E0,1.162155032E0,1.311720943E1
1.701200000E1,-8.740158081E0,1.913656712E0,1.263131046E1
1.703200000E1,-7.969445229E0,1.996610999E0,1.189147282E1
1.705200156E1,-7.700039864E0,1.152903914E0,1.113142872E1
1.707400000E1,-8.291982651E0,-6.476890445E-1,1.109930897E1
1.709400000E1,-9.058098793E0,-1.644682527E0,1.098144627E1
1.711400000E1,-9.234742165E0,-2.234163523E0,1.081544209E1
1.713400000E1,-8.282155991E0,-2.288138628E0,1.051403141E1
1.715400000E1,-7.242785454E0,-2.128167391E0,1.052624226E1
1.717400000E1,-5.900921822E0,-2.354840994E0,1.023544216E1
1.719400000E1,-5.251441956E0,-2.185063362E0,9.110205650E0
1.721400000E1,-4.610428333E0,-1.815178394E0,7.700308323E0
1.723400000E1,-3.960996151E0,-1.515290260E0,6.693278313E0
1.725400000E1,-3.672226667E0,-1.304045081E0,6.919999599E0
1.727400000E1,-3.963122129E0,-1.157098532E0,8.000483513E0
1.729400000E1,-4.219991207E0,-1.677119136E0,8.078763962E0
1.731400313E1,-4.665753365E0,-2.544567108E0,7.866370201E0
1.733600156E1,-4.074710846E0,-4.041977406E0,7.674220562E0
1.735800156E1,-3.208077192E0,-5.979001522E0,7.715554237E0
1.738000156E1,-2.681860447E0,-6.321152210E0,7.431621075E0
1.740000156E1,-2.797404528E0,-6.243244648E0,8.213318825E0
1.742200156E1,-3.539166451E0,-5.954733849E0,9.963987350E0
1.744400000E1,-4.087841034E0,-5.605764866E0,1.103491402E1
1.746400000E1,-4.004685402E0,-5.490450382E0,1.067834091E1
1.748400000E1,-4.242266655E0,-6.603495598E0,1.038177586E1
1.750400000E1,-3.859788418E0,-5.840932846E0,9.423462868E0
1.752400000E1,-3.554843664E0,-4.564583778E0,8.319784164E0
1.754400000E1,-3.495237589E0,-2.995232344E0,7.476766109E0
1.756400000E1,-4.552842617E0,-3.081787586E0,8.631633759E0
1.758400000E1,-6.412418842E0,-3.361325264E0,1.040004826E1
1.760400000E1,-7.609768867E0,-3.537624598E0,1.185500526E1
1.762400000E1,-7.053318501E0,-2.666489601E0,1.107718563E1
1.764400000E1,-6.293570995E0,-1.816174269E0,9.687064171E0
1.766400000E1,-5.753946781E0,-5.917221904E-1,8.627083778E0
1.768400000E1,-5.245628834E0,3.674525023E-1,7.836279869E0
1.770400156E1,-4.815505981E0,6.755000353E-1,6.576153755E0
1.772600000E1,-4.295714855E0,6.819069386E-1,5.412054539E0
1.774600000E1,-3.911014557E0,5.060863495E-1,5.177403927E0
1.776600000E1,-3.599212885E0,6.508397311E-2,5.826174736E0
1.778600625E1,-3.760026693E0,-7.563761622E-2,6.786508083E0
1.780601094E1,-3.484138250E0,1.797087789E-1,8.526844025E0
1.782800000E1,-3.010047913E0,9.910941720E-1,1.099171257E1
1.784800000E1,-3.261812449E0,1.638917208E0,1.263628960E1
1.786800000E1,-3.936594248E0,2.453597069E0,1.301911354E1
1.788800000E1,-4.489980698E0,3.034478188E0,1.285468960E1
1.790800156E1,-5.108297348E0,3.332996845E0,1.328825951E1
1.792800156E1,-5.384224415E0,3.129298449E0,1.367546940E1
1.795000000E1,-6.357448101E0,2.230754375E0,1.432978535E1
1.797000312E1,-8.266325951E0,2.513681889E0,1.531066132E1
1.799200000E1,-9.003586769E0,2.135742903E0,1.525763512E1
1.801200000E1,-8.597454071E0,1.936296225E0,1.337463284E1
1.803200000E1,-8.523856163E0,9.443114400E-1,1.205540943E1
1.805200000E1,-9.005004883E0,-1.084381819E0,1.171657181E1
1.807200000E1,-9.435347557E0,-2.999168634E0,1.148319435E1
1.809200156E1,-9.468387604E0,-3.917038679E0,1.128773212E1
1.811200469E1,-8.359460831E0,-3.472033024E0,1.047293758E1
1.813400000E1,-7.079395771E0,-2.793152332E0,9.633185387E0
1.815400000E1,-6.297890186E0,-2.410769463E0,8.773858070E0
1.817400000E1,-5.609595299E0,-2.376178265E0,7.576700211E0
1.819400000E1,-4.885789871E0,-2.484252453E0,6.140562534E0
1.821400000E1,-4.268133640E0,-2.575069427E0,5.214772224E0
1.823400000E1,-4.101851463E0,-2.496692657E0,4.782580376E0
1.825400000E1,-4.668338776E0,-2.520069599E0,5.229578018E0
1.827400000E1,-4.878186226E0,-2.973033428E0,6.016217232E0
1.829400000E1,-4.843776226E0,-3.426638842E0,6.578969002E0
1.831400000E1,-4.769996643E0,-3.956303358E0,7.327933311E0
1.833400000E1,-4.740941048E0,-4.413998127E0,8.118039131E0
1.835400000E1,-4.496962070E0,-4.546473980E0,8.232759476E0
1.837400000E1,-4.577091217E0,-5.023810863E0,8.191464424E0
1.839400000E1,-4.959809303E0,-5.506529808E0,8.200523376E0
1.841400156E1,-5.362456322E0,-5.692463398E0,7.827210426E0
1.843600156E1,-5.886346340E0,-5.430719852E0,7.356232643E0
1.845600781E1,-5.913783550E0,-5.556741238E0,8.120778084E0
1.847800000E1,-5.357782841E0,-6.520493031E0,9.371116638E0
1.849800156E1,-5.007137775E0,-6.226284027E0,8.383537292E0
1.852000000E1,-5.129529476E0,-4.382730007E0,6.371545315E0
1.854000000E1,-5.820754528E0,-3.522320747E0,6.429590225E0
1.856000000E1,-6.612938404E0,-3.139449596E0,9.116440773E0
1.858000000E1,-7.037919044E0,-2.604431629E0,1.244871902E1
1.860000156E1,-6.861734390E0,-2.339671373E0,1.463325596E1
1.862200000E1,-6.180516720E0,-2.349535465E0,1.469243050E1
1.864200000E1,-6.212302208E0,-2.551989317E0,1.289857006E1
1.866200000E1,-7.150264263E0,-3.984890223E0,1.228904533E1
1.868200000E1,-6.846641064E0,-4.553426743E0,1.119210720E1
1.870200000E1,-4.572752953E0,-1.279451728E0,8.564710617E0
1.872200000E1,-2.749788523E0,1.629503250E0,6.953633308E0
1.874200156E1,-2.123781443E0,2.352561712E0,7.135420322E0
1.876400156E1,-2.385917664E0,1.810275078E0,6.450400829E0
1.878600156E1,-1.464935422E0,1.648800492E0,4.934181690E0
1.880600469E1,-5.859856606E-1,1.753714442E0,5.405379295E0
1.882601094E1,-1.820072234E-1,2.416774273E0,7.290257931E0
1.884800000E1,-2.468852997E0,3.784284592E0,9.996433258E0
1.886800000E1,-4.853276730E0,3.409869909E0,1.247613716E1
1.888800000E1,-6.078993320E0,3.365385771E0,1.331246948E1
1.890800156E1,-6.474361897E0,3.673634291E0,1.319870663E1
1.892800156E1,-6.966695786E0,2.785624981E0,1.388986492E1
1.895000000E1,-8.502786636E0,8.173229694E-1,1.446502972E1
1.897000156E1,-9.826636314E0,-2.066291869E-1,1.341565990E1
1.899200000E1,-1.142967033E1,-1.179833889E0,1.227563667E1
1.901200000E1,-1.232003498E1,-3.224309921E0,1.217553997E1
1.903200000E1,-1.245456028E1,-4.484598160E0,1.207398796E1
1.905200000E1,-1.114057541E1,-3.842808485E0,1.054385376E1
1.907200000E1,-8.987517357E0,-2.756664753E0,9.372571945E0
1.909200156E1,-7.538661003E0,-1.946064591E0,8.950243950E0
1.911200156E1,-6.286809444E0,-1.442401171E0,8.335259438E0
1.913200156E1,-4.908266544E0,-9.399444461E-1,7.028657913E0
1.915400000E1,-3.686113119E0,-6.836403608E-1,6.176935196E0
1.917400000E1,-2.757900238E0,-4.804109633E-1,5.724679470E0
1.919400000E1,-2.518508434E0,-6.488573551E-1,5.388524532E0
1.921400000E1,-3.645497799E0,-1.280323267E0,5.690950394E0
1.923400000E1,-5.096269131E0,-3.012356043E0,6.902071953E0
1.925400000E1,-5.247544289E0,-3.584713697E0,7.033781528E0
1.927400000E1,-5.278171062E0,-4.062739849E0,7.054946423E0
1.929400000E1,-6.375720501E0,-5.214120865E0,7.859503269E0
1.931400000E1,-6.574679375E0,-4.719891071E0,7.724164009E0
1.933400000E1,-5.701188087E0,-4.005949497E0,7.182384968E0
1.935400000E1,-5.865746021E0,-4.971607685E0,8.970825195E0
1.937400000E1,-5.907625675E0,-6.041307926E0,1.077794933E1
1.939400000E1,-4.848899841E0,-6.358137608E0,1.167195320E1
1.941400156E1,-2.858820438E0,-7.335316658E0,1.217155647E1
1.943400156E1,-2.067096233E0,-8.763927460E0,1.217171860E1
1.945600156E1,-2.250884771E0,-8.750452995E0,1.060231018E1
1.947600156E1,-2.502601624E0,-6.664662361E0,8.422580719E0
1.949800156E1,-3.666480541E0,-5.111744881E0,8.149527550E0
1.952000000E1,-5.517936230E0,-4.599692345E0,9.321833611E0
1.954000000E1,-6.697894096E0,-4.248625755E0,1.039740562E1
1.956000000E1,-6.943414688E0,-3.033185244E0,1.077205944E1
1.958000000E1,-6.205224991E0,-1.441692472E0,1.061935711E1
1.960000156E1,-5.085437298E0,-1.128808618E0,1.085604763E1
1.962000156E1,-4.245244980E0,-9.223135114E-1,1.026268864E1
1.964200000E1,-3.115498066E0,-1.552304626E-1,8.204076767E0
1.966200000E1,-2.031537533E0,1.041841626E0,6.646035671E0
1.968200000E1,-1.259771466E0,1.969498992E0,6.898690701E0
1.970200000E1,-1.565309882E0,1.886199951E0,8.134213448E0
1.972200000E1,-1.522654772E0,1.434433222E0,8.465332031E0
1.974200000E1,-2.034583092E0,1.063810945E0,8.309776306E0
1.976200000E1,-3.592777252E0,1.107758760E0,8.912645340E0
1.978200000E1,-6.182413101E0,2.967478991E0,1.062471104E1
1.980200000E1,-8.202889442E0,5.411853313E0,1.155568123E1
1.982200000E1,-9.263233185E0,6.543180466E0,1.228536701E1
1.984200156E1,-9.932221413E0,6.496044159E0,1.270025349E1
1.986400000E1,-1.084197903E1,5.910881996E0,1.182161045E1
1.988400000E1,-1.166402435E1,4.956888199E0,1.127343369E1
1.990402969E1,-1.137491035E1,3.285448074E0,1.099659634E1
1.992600000E1,-9.752033234E0,2.871701241E0,9.770297050E0
1.994601406E1,-9.312334061E0,2.865284920E0,9.813440323E0
1.996800000E1,-1.048809719E1,1.327900887E0,1.225851345E1
1.998800000E1,-1.187634182E1,-7.248110175E-1,1.424649620E1
2.000800156E1,-1.224331570E1,-1.978003263E0,1.470258236E1
2.003000156E1,-1.103291225E1,-3.100050688E0,1.380303192E1
2.005200000E1,-8.680705070E0,-3.054819345E0,1.250770187E1
2.007200000E1,-6.998060226E0,-2.147589445E0,1.169703484E1
2.009200156E1,-5.788854122E0,-1.319837213E0,1.054846954E1
2.011400000E1,-4.652249813E0,-1.489902139E0,9.152027130E0
2.013400000E1,-3.750334978E0,-1.965754509E0,8.102581978E0
2.015400000E1,-2.408825397E0,-2.663549423E0,7.063727856E0
2.017400000E1,-1.375344396E0,-3.381522655E0,6.169646740E0
2.019400000E1,-1.298404336E0,-3.680338144E0,5.642827034E0
2.021400000E1,-1.576198697E0,-4.183924675E0,6.773972034E0
2.023400000E1,-1.743179917E0,-4.276063442E0,8.210684776E0
2.025400000E1,-1.823289871E0,-4.042341232E0,8.726511002E0
2.027400000E1,-2.572952986E0,-4.197744370E0,8.694093704E0
2.029400000E1,-3.305195570E0,-4.623433113E0,8.820554733E0
2.031400156E1,-3.632320166E0,-4.905240059E0,9.118279457E0
2.033600625E1,-3.647068262E0,-5.163641453E0,8.916486740E0
2.035800156E1,-3.612294912E0,-5.193923950E0,7.928485394E0
2.038000000E1,-4.386761665E0,-5.949016571E0,9.405084610E0
2.040000000E1,-4.583163261E0,-5.102637768E0,1.030079365E1
2.042000000E1,-4.196700096E0,-3.444557190E0,9.965443611E0
2.044000000E1,-4.433898926E0,-2.473162413E0,9.629709244E0
2.046000000E1,-5.903852463E0,-2.737195015E0,1.008409977E1
2.048000000E1,-7.668580055E0,-3.428295612E0,1.034662914E1
2.050000000E1,-8.040141106E0,-2.647891283E0,1.021093559E1
2.052000000E1,-7.635798931E0,-1.427126169E0,9.891126633E0
2.054000000E1,-6.811225891E0,-2.136298269E-1,1.010492992E1
2.056000000E1,-5.920516014E0,3.998604119E-1,1.023044300E1
2.058000000E1,-4.966360092E0,6.746476889E-1,9.148915291E0
2.060000156E1,-4.105155945E0,8.585511446E-1,7.466308594E0
2.062000156E1,-2.999283552E0,7.359105945E-1,6.601618767E0
2.064200000E1,-2.244602203E0,3.661213517E-1,6.240553856E0
2.066200000E1,-2.841859818E0,5.177796483E-1,6.600641727E0
2.068200000E1,-4.175803661E0,1.931316257E0,8.318529129E0
2.070200000E1,-7.314075470E0,6.503283501E0,1.267120743E1
2.072200000E1,-7.014053345E0,6.397106171E0,1.540595055E1
2.074200000E1,-4.779391766E0,6.047983170E0,1.234867001E1
2.076200000E1,-4.723827362E0,6.614882469E0,8.847915649E0
2.078200000E1,-5.837035179E0,7.270750046E0,8.620849609E0
2.080200000E1,-8.185957909E0,5.119243622E0,1.119999886E1
2.082200156E1,-1.136071682E1,5.056324005E0,1.303547096E1
2.084200156E1,-1.209905910E1,4.532607079E0,1.258605957E1
2.086400000E1,-1.051484585E1,4.899896622E0,9.592905045E0
2.088400000E1,-9.881646156E0,5.065135002E0,8.044881821E0
2.090402812E1,-1.087493324E1,4.089698792E0,9.520676613E0
2.092600156E1,-1.228844166E1,2.372127295E0,1.227655697E1
2.094600156E1,-1.235543060E1,1.262500882E0,1.343404770E1
2.096800000E1,-1.060068226E1,1.042904615E0,1.264574242E1
2.098800000E1,-7.978724957E0,2.935961485E-1,1.111955357E1
2.100800156E1,-5.844294548E0,-2.321034819E-1,1.003361130E1
2.103000000E1,-5.035025597E0,-1.047415361E-1,9.131667137E0
2.105000000E1,-5.132229805E0,-4.611232504E-2,8.545336723E0
2.107000156E1,-4.548714638E0,-4.069855511E-1,7.580214977E0
2.109200000E1,-4.018743992E0,-1.325324655E0,7.033551693E0
2.111200156E1,-3.309677601E0,-2.619448185E0,6.559355736E0
2.113200156E1,-2.358336687E0,-3.972353935E0,5.696313381E0
2.115400000E1,-1.537862778E0,-4.359333515E0,5.586639881E0
2.117400000E1,-1.620912790E0,-3.723701954E0,6.743949413E0
2.119400000E1,-2.816031218E0,-2.694846392E0,9.042621613E0
2.121400000E1,-4.290208340E0,-2.419063091E0,1.089919186E1
2.123400000E1,-5.299440861E0,-3.202493668E0,1.117603779E1
2.125400000E1,-5.730119705E0,-4.021023273E0,1.061597633E1
2.127400000E1,-6.321640491E0,-3.967335939E0,1.108738613E1
2.129400000E1,-5.769049168E0,-4.969931602E0,1.154090405E1
2.131400156E1,-4.892838478E0,-5.483296394E0,1.015694141E1
2.133600000E1,-3.912968159E0,-5.365540028E0,8.876320839E0
2.135600000E1,-3.442220449E0,-4.890214443E0,8.434465408E0
2.137600156E1,-3.807987213E0,-3.149945736E0,7.354547024E0
2.139600469E1,-5.627015591E0,-1.983883381E0,8.832794189E0
2.141600469E1,-7.569939137E0,-2.254878521E0,1.104781342E1
2.143800781E1,-8.412995338E0,-2.445744038E0,1.150608253E1
2.146000000E1,-7.567238331E0,-2.054943323E0,1.025638676E1
2.148000000E1,-6.707853794E0,-1.563490391E0,9.583328247E0
2.150000156E1,-6.042783260E0,-6.896354556E-1,8.361232758E0
2.152200000E1,-5.264791965E0,4.027334452E-1,6.465886116E0
2.154200000E1,-4.559077263E0,1.274634600E0,5.121858597E0
2.156200156E1,-3.922688723E0,1.820014596E0,4.264935017E0
2.158400000E1,-3.253423452E0,1.768951178E0,4.557966232E0
2.160400781E1,-2.785921812E0,1.397131562E0,6.388754845E0
2.162601562E1,-2.370843649E0,6.311977506E-1,7.434733868E0
2.164800156E1,-2.623183012E0,6.377962232E-1,7.962568760E0
2.166800156E1,-2.572971821E0,1.446902275E0,9.264410973E0
2.169000000E1,-2.960296392E0,2.579436302E0,1.115731525E1
2.171000000E1,-3.928952217E0,3.000030518E0,1.239242649E1
2.173000000E1,-5.679754734E0,3.408452749E0,1.307689953E1
2.175000156E1,-7.148530960E0,4.315577030E0,1.415217400E1
2.177200156E1,-8.629928589E0,5.454566002E0,1.618470764E1
2.179400000E1,-9.130268097E0,5.022929668E0,1.645689964E1
2.181400000E1,-8.735043526E0,3.994897842E0,1.439225483E1
2.183400000E1,-7.156354904E0,3.457169771E0,1.139436054E1
2.185400000E1,-6.954543114E0,2.749960899E0,9.369679451E0
2.187400000E1,-8.402690887E0,2.069519281E0,8.982048988E0
2.189400000E1,-1.071500111E1,6.353253722E-1,1.135411835E1
2.191400000E1,-1.254630661E1,-7.002944350E-1,1.376227379E1
2.193400000E1,-1.260953236E1,-1.526475906E0,1.430242443E1
2.195400000E1,-1.139610386E1,-1.940366507E0,1.274054337E1
2.197400000E1,-9.362851143E0,-2.075887680E0,1.086431217E1
2.199400000E1,-7.806515217E0,-1.734378934E0,9.529823303E0
2.201400156E1,-7.048961163E0,-1.287065387E0,8.801909447E0
2.203600000E1,-6.414774895E0,-9.871580601E-1,8.055923462E0
2.205600156E1,-6.151987076E0,-8.722459674E-1,7.621922016E0
2.207800156E1,-5.917058468E0,-1.267231822E0,7.090936184E0
2.210000156E1,-5.701111317E0,-1.753436804E0,6.619431496E0
2.212000156E1,-5.534963608E0,-2.335840464E0,6.600440502E0
2.214200156E1,-5.716558456E0,-2.806444883E0,7.084347248E0
2.216400000E1,-5.715390682E0,-3.734236240E0,7.313731194E0
2.218400000E1,-5.612592697E0,-4.391243458E0,7.211326122E0
2.220400469E1,-5.187382698E0,-4.659001350E0,6.957090378E0
2.222600781E1,-4.422138214E0,-4.497287750E0,7.105837345E0
2.224800000E1,-3.997962475E0,-4.970468044E0,7.502872467E0
2.226800000E1,-3.558760405E0,-5.378851891E0,6.915230274E0
2.228800156E1,-3.723768950E0,-5.601263523E0,6.567707062E0
2.231000000E1,-4.403511524E0,-6.051363945E0,7.044182301E0
2.233000156E1,-4.842225075E0,-4.948900700E0,7.809569836E0
2.235200000E1,-5.089153290E0,-3.216916561E0,8.019062042E0
2.237200156E1,-5.763628960E0,-1.520318151E0,8.598823547E0
2.239200156E1,-7.263012409E0,-2.275870562E0,9.957878113E0
2.241200156E1,-8.760767937E0,-3.335371971E0,1.079508209E1
2.243200156E1,-8.766264915E0,-3.717448235E0,1.023747253E1
2.245200156E1,-7.913727283E0,-3.036594629E0,9.896729469E0
2.247200156E1,-7.226850033E0,-1.921911836E0,1.001652622E1
2.249200156E1,-6.750729561E0,-7.926435471E-1,9.297584534E0
2.251200156E1,-6.329167843E0,3.892397583E-1,7.901401997E0
2.253200156E1,-5.244613647E0,7.749552131E-1,6.665295124E0
2.255400000E1,-4.100156784E0,6.869922280E-1,6.277740955E0
2.257400000E1,-3.451586485E0,4.419504702E-1,6.633260250E0
2.259400000E1,-3.616815090E0,8.520484716E-2,7.091031551E0
2.261400156E1,-4.124060631E0,-4.390008003E-2,7.974108696E0
2.263600000E1,-3.887742996E0,-6.794457436E-1,8.899477959E0
2.265600156E1,-3.929057360E0,1.218840182E-1,9.836596489E0
2.267600781E1,-4.927018166E0,1.024881124E0,1.092281723E1
2.269602188E1,-6.052158833E0,2.654087305E0,1.152647305E1
2.271800156E1,-7.184309483E0,3.386646271E0,1.260167980E1
2.274000156E1,-8.711513519E0,4.010086536E0,1.381494617E1
2.276200000E1,-9.596027374E0,5.337182999E0,1.503207207E1
2.278200000E1,-1.007210922E1,5.473336220E0,1.589834213E1
2.280200000E1,-1.026148129E1,4.395112991E0,1.487350845E1
2.282200000E1,-9.012905121E0,3.555322409E0,1.219041348E1
2.284200156E1,-8.115281105E0,2.629886866E0,9.720286369E0
2.286400000E1,-9.440299034E0,1.266906261E0,9.673082352E0
2.288400000E1,-1.146705723E1,-7.851257920E-1,1.228276253E1
2.290400000E1,-1.334748363E1,-2.461775541E0,1.430924320E1
2.292400156E1,-1.387097073E1,-3.023771524E0,1.424056816E1
2.294400156E1,-1.220946121E1,-2.889408588E0,1.187173557E1
2.296600000E1,-9.312898636E0,-2.436406851E0,9.834077835E0
2.298600156E1,-7.404231548E0,-2.241729259E0,9.298801422E0
2.300600156E1,-6.691046715E0,-1.962191939E0,8.798154831E0
2.302600781E1,-6.159026146E0,-1.688774228E0,7.657777309E0
2.304800000E1,-5.551617622E0,-1.555618167E0,6.698612213E0
2.306800000E1,-5.026712894E0,-1.803082943E0,6.391752243E0
2.308800156E1,-4.567035675E0,-2.301574707E0,6.408770561E0
2.311000156E1,-4.724842072E0,-2.581591129E0,6.567017555E0
2.313200000E1,-5.057339191E0,-3.174730778E0,6.904456615E0
2.315200000E1,-5.420578003E0,-3.947914124E0,7.386255741E0
2.317200000E1,-5.422799587E0,-4.415253162E0,7.436936378E0
2.319200000E1,-5.522522926E0,-4.621891499E0,7.632025242E0
2.321200156E1,-5.270126343E0,-5.009359360E0,8.268480301E0
2.323400156E1,-4.904110432E0,-6.018285751E0,9.371183395E0
2.325600156E1,-3.617849350E0,-7.316038609E0,8.949975967E0
2.327600156E1,-2.507869005E0,-7.814664364E0,7.880878925E0
2.329800000E1,-2.062202692E0,-7.794218063E0,7.173191071E0
2.331800000E1,-2.622666121E0,-7.532541275E0,7.201289654E0
2.333800000E1,-3.309054852E0,-5.804014206E0,6.148118496E0
2.335800000E1,-4.920937061E0,-4.537423611E0,6.607882023E0
2.337800000E1,-6.634007454E0,-4.474667072E0,7.923265457E0
2.339800000E1,-8.563561440E0,-4.707718849E0,9.985545158E0
2.341800156E1,-9.738061905E0,-4.685242176E0,1.157318783E1
2.343800156E1,-9.328891754E0,-4.102924347E0,1.243838596E1
2.346000156E1,-8.453083038E0,-3.121962309E0,1.237461281E1
2.348200000E1,-7.943396091E0,-1.723135710E0,1.097128487E1
2.350200000E1,-7.870956898E0,-2.922075093E-1,8.879883766E0
2.352200000E1,-7.560142040E0,6.001976132E-1,7.437501431E0
2.354200000E1,-7.071255207E0,7.182796597E-1,6.325844765E0
2.356200000E1,-6.221745014E0,3.264733404E-2,6.103289604E0
2.358200000E1,-5.782533169E0,-1.771517843E-1,6.713810921E0
2.360200000E1,-6.474553108E0,-8.945311904E-1,8.476967812E0
2.362200000E1,-7.025784492E0,-1.189515948E0,9.013393402E0
2.364200000E1,-6.156756878E0,-8.037431240E-1,7.472485542E0
2.366200000E1,-5.447862148E0,-4.797980487E-1,7.512985706E0
2.368200000E1,-5.343255043E0,-9.292950630E-1,1.000135612E1
2.370200000E1,-5.348378181E0,-8.847053647E-1,1.180754185E1
2.372200000E1,-6.245160103E0,-6.208739877E-1,1.306030369E1
2.374200000E1,-7.227922440E0,-5.723961592E-1,1.408731079E1
2.376200000E1,-7.625139713E0,3.440755010E-1,1.385901833E1
2.378200000E1,-9.097765923E0,7.415130138E-1,1.412376022E1
2.380200000E1,-9.125623703E0,2.530106306E0,1.176018429E1
2.382200000E1,-8.540270805E0,3.782378912E0,9.521654129E0
2.384200156E1,-9.591249466E0,3.137696981E0,9.549235344E0
2.386400000E1,-1.192181206E1,1.368640661E0,1.222288799E1
2.388400000E1,-1.388114071E1,-6.709702015E-1,1.413839340E1
2.390400000E1,-1.478890705E1,-2.453510761E0,1.401693058E1
2.392400000E1,-1.422739029E1,-3.740030289E0,1.251032639E1
2.394400156E1,-1.250329685E1,-4.245810032E0,1.073842621E1
2.396600000E1,-1.036499691E1,-3.647326946E0,9.106681824E0
2.398600000E1,-9.045102119E0,-3.146229982E0,8.935189247E0
2.400600781E1,-8.101987839E0,-2.728901625E0,8.991979599E0
2.402800000E1,-7.495872021E0,-2.815839767E0,9.072405815E0
2.404800000E1,-7.098453522E0,-3.087332726E0,9.355209351E0
2.406800000E1,-6.696141720E0,-3.497143269E0,9.709541321E0
2.408800000E1,-6.667459011E0,-4.192323685E0,1.002299023E1
2.410800000E1,-6.951727390E0,-5.018246651E0,1.008249092E1
2.412800000E1,-7.137862206E0,-5.680454254E0,9.812261581E0
2.414800000E1,-6.669594765E0,-6.123400688E0,9.518406868E0
2.416800000E1,-6.155674458E0,-6.582905293E0,9.969590187E0
2.418800000E1,-6.053978443E0,-6.908076286E0,1.049247360E1
2.420800000E1,-6.102207184E0,-6.904581070E0,1.063992786E1
2.422800000E1,-5.703476906E0,-5.834908962E0,1.015927696E1
2.424800000E1,-4.256833076E0,-5.168745995E0,9.186303139E0
2.426800000E1,-2.602439642E0,-5.307360649E0,8.816657066E0
2.428800000E1,-1.309005857E0,-4.772841454E0,7.996997356E0
2.430800000E1,-1.004721999E0,-2.833001375E0,7.333066463E0
2.432800000E1,-1.782981157E0,-3.203058839E-1,7.839880466E0
2.434800000E1,-2.056226492E0,5.234395266E-1,9.539572716E0
2.436800156E1,-2.494250536E0,-1.271895617E-1,1.099590683E1
2.439000781E1,-3.422712326E0,-1.180647969E0,1.017201424E1
2.441200156E1,-4.369427681E0,1.166742370E-1,8.577869415E0
2.443200156E1,-5.051765442E0,1.859538198E0,9.122808456E0
2.445400000E1,-6.068113804E0,4.020573139E0,1.011092472E1
2.447400000E1,-6.184663773E0,5.699588776E0,1.009256554E1
2.449400000E1,-5.187919140E0,5.842723846E0,9.054783821E0
2.451400156E1,-3.946429729E0,4.969979286E0,7.243226051E0
2.453600000E1,-2.868464470E0,4.222768784E0,5.341396809E0
2.455600000E1,-2.636408806E0,3.795470476E0,3.967422009E0
2.457600000E1,-3.474321842E0,4.290657997E0,3.309179544E0
2.459600000E1,-5.707767010E0,5.805163383E0,2.464600801E0
2.461600000E1,-7.894640446E0,7.279512882E0,1.884878397E0
2.463601250E1,-9.497194290E0,8.697674751E0,1.763798833E0
2.465800156E1,-1.039407253E1,9.505364418E0,1.851656437E0
2.468000000E1,-1.097813320E1,1.005558968E1,2.511737823E0
2.470000000E1,-1.102216721E1,9.923650742E0,4.103470325E0
2.472000000E1,-1.105986118E1,9.656897545E0,5.378707886E0
2.474000000E1,-1.128901577E1,1.031465244E1,6.239232063E0
2.476000000E1,-1.132852936E1,1.097841072E1,7.356031418E0
2.478000000E1,-1.119289303E1,1.142468071E1,8.272158623E0
2.480000000E1,-1.165212059E1,1.178337002E1,8.582150459E0
2.482000000E1,-1.157314968E1,1.066764355E1,8.246913910E0
2.484000000E1,-1.070666885E1,8.906497002E0,7.468434334E0
2.486000000E1,-9.562508583E0,7.568282127E0,6.620542526E0
2.488000000E1,-8.025498390E0,6.990839481E0,6.048423767E0
2.490000000E1,-5.150473595E0,6.306231499E0,5.548610210E0
2.492000000E1,-1.817658782E0,3.879870892E0,6.148587704E0
2.494000000E1,1.427164435E0,1.187562346E0,4.975668430E0
2.496000156E1,2.112710714E0,5.181627274E-1,4.144583702E0
2.498000156E1,1.184938312E0,7.495000362E-1,3.283092260E0
2.500000156E1,6.124942899E-1,6.365703791E-2,4.401328087E0
2.502200000E1,5.060863495E-1,-2.961819172E-1,5.575827599E0
2.504200000E1,-1.092330515E-1,4.700296745E-2,6.854207039E0
2.506200000E1,-1.272384167E0,2.392573655E-1,8.691719055E0
2.508200000E1,-1.662284613E0,-9.526816010E-1,9.426651955E0
2.510200000E1,-2.044006586E0,-2.247446775E0,9.614337921E0
2.512200000E1,-2.746484518E0,-2.279978991E0,8.941156387E0
2.514200156E1,-3.586763144E0,-1.463652134E0,9.253992081E0
2.516400000E1,-4.978684902E0,-1.482269406E0,1.141623306E1
2.518400000E1,-5.932515621E0,-2.235475540E0,1.264472771E1
2.520400000E1,-6.024060726E0,-2.910037279E0,1.167975903E1
2.522400000E1,-5.638134480E0,-2.723145723E0,1.015943050E1
2.524400000E1,-5.980208397E0,-3.313000441E0,1.071758652E1
2.526400000E1,-6.682801247E0,-3.746398926E0,1.226481533E1
2.528400000E1,-7.164533615E0,-3.509056807E0,1.314461708E1
2.530400156E1,-6.160798550E0,-2.690067530E0,1.232357883E1
2.532600781E1,-6.865718365E0,-3.961110830E0,1.352341938E1
2.534800000E1,-8.167139053E0,-5.129270554E0,1.647329521E1
2.536800156E1,-9.080326080E0,-4.139823914E0,1.922098541E1
2.539000156E1,-9.321681023E0,-1.685163736E0,2.077732277E1
2.541200000E1,-9.006938934E0,1.840183437E-1,1.990501976E1
2.543200000E1,-8.345631599E0,1.375028372E0,1.614882278E1
2.545200000E1,-7.410925865E0,1.691924930E0,1.186864185E1
2.547200000E1,-6.419869900E0,2.100212812E0,8.122491837E0
2.549200156E1,-5.631689072E0,2.566813946E0,6.102906227E0
2.551200156E1,-5.575703144E0,3.342650414E0,6.146001816E0
2.553400000E1,-6.287068367E0,3.195052385E0,7.696094036E0
2.555400000E1,-6.255234718E0,2.314101219E0,8.704398155E0
2.557400000E1,-6.953853607E0,2.019844294E0,9.630877495E0
2.559400000E1,-6.829642296E0,1.741475224E0,9.830132484E0
2.561400000E1,-7.345544815E0,2.892358303E0,1.016599083E1
2.563400000E1,-7.838147163E0,4.070573807E0,1.051134109E1
2.565400000E1,-8.275510788E0,5.036078453E0,1.038012886E1
2.567400000E1,-1.029895496E1,7.432961941E0,8.984634399E0
2.569400000E1,-1.237003613E1,9.139491081E0,9.667680740E0
2.571400000E1,-1.221142483E1,7.936117649E0,1.123654366E1
2.573400156E1,-1.068017960E1,5.737024307E0,1.132640362E1
2.575600156E1,-8.355504990E0,4.240006924E0,1.115186596E1
2.577600156E1,-6.750643253E0,4.029671192E0,1.082223225E1
2.579800156E1,-8.236351013E0,2.736974955E0,1.218775082E1
2.582000000E1,-1.128425598E1,1.346862912E0,1.443699837E1
2.584000000E1,-1.346178246E1,-6.870976090E-1,1.673763466E1
2.586000000E1,-1.408729076E1,-2.300866127E0,1.675118637E1
2.588000000E1,-1.359382725E1,-2.408404112E0,1.509381390E1
2.590000000E1,-1.239484024E1,-1.818424940E0,1.461254120E1
2.592000000E1,-1.094681740E1,-2.205021381E0,1.538660526E1
2.594000000E1,-9.764320374E0,-2.908600807E0,1.540880489E1
2.596000156E1,-8.442998886E0,-3.726507902E0,1.419300938E1
2.598000156E1,-7.493171215E0,-4.130869865E0,1.237826252E1
2.600200000E1,-6.328736782E0,-4.269177914E0,1.077937603E1
2.602200000E1,-5.694235325E0,-4.265030861E0,1.006259918E1
2.604200000E1,-5.491331577E0,-4.297180176E0,1.003447247E1
2.606200000E1,-5.308874130E0,-4.705171585E0,9.823131561E0
2.608200156E1,-5.094535828E0,-5.233954430E0,9.290019989E0
2.610400156E1,-3.998872280E0,-5.700871944E0,8.403896332E0
2.612600781E1,-3.058554411E0,-6.195236206E0,7.720926762E0
2.614800156E1,-2.658473730E0,-6.450247765E0,7.235191345E0
2.616800156E1,-3.354199886E0,-6.672314644E0,7.450563908E0
2.619000156E1,-4.154514790E0,-6.293025017E0,7.722219944E0
2.621200156E1,-4.585432529E0,-5.102197170E0,7.512296200E0
2.623400156E1,-4.678691387E0,-4.905058384E0,8.079664230E0
2.625600938E1,-3.506135941E0,-4.635586262E0,7.906592846E0
2.627800000E1,-2.354295254E0,-3.825110674E0,6.512841225E0
2.629800000E1,-2.231405497E0,-2.769095421E0,5.984020233E0
2.631800000E1,-3.734399080E0,-3.522110224E0,8.204057693E0
2.633800156E1,-5.206306458E0,-4.606453419E0,1.043273449E1
2.636000000E1,-5.795730591E0,-4.819173813E0,1.200768757E1
2.638000000E1,-5.413759232E0,-4.394633770E0,1.249670792E1
2.640000156E1,-5.482051849E0,-3.034353733E0,1.289390659E1
2.642200156E1,-5.607747078E0,-1.435821891E0,1.336520004E1
2.644400000E1,-5.367484570E0,-3.338570595E-1,1.289671230E1
2.646400000E1,-4.760649681E0,-1.140884981E-1,1.097223377E1
2.648400000E1,-4.395859718E0,9.662998468E-2,9.317831039E0
2.650400000E1,-4.311172009E0,1.153363466E0,9.344444275E0
2.652400156E1,-4.504747868E0,-2.525308132E-1,1.151448250E1
2.654600469E1,-4.317416191E0,2.637644112E-1,1.170804882E1
2.656800000E1,-5.728319168E0,1.548847437E0,1.307815456E1
2.658800156E1,-7.591007710E0,4.456825733E0,1.659220123E1
2.661000000E1,-9.051403999E0,6.011715889E0,1.861173820E1
2.663000000E1,-8.142938614E0,5.701484680E0,1.686517715E1
2.665000000E1,-7.613801003E0,4.062749386E0,1.491130829E1
2.667000625E1,-7.795645237E0,3.845834970E0,1.388282585E1
2.669200000E1,-9.918420792E0,4.608723164E0,1.347370529E1
2.671200000E1,-1.131440353E1,4.834104061E0,1.374772644E1
2.673200000E1,-1.151849556E1,3.053287029E0,1.290998554E1
2.675200000E1,-9.733340263E0,2.349880219E0,9.657128334E0
2.677200000E1,-8.239789009E0,2.587231874E0,7.476680279E0
2.679200000E1,-8.972108841E0,1.993833780E0,8.359594345E0
2.681200000E1,-1.097670650E1,8.987258077E-1,1.114020157E1
2.683200000E1,-1.330408096E1,-6.281139851E-1,1.358393478E1
2.685200000E1,-1.409666729E1,-1.206064701E0,1.348288918E1
2.687200000E1,-1.305245972E1,-1.081144929E0,1.174173069E1
2.689200000E1,-1.159730244E1,-1.424961805E0,1.030391598E1
2.691200000E1,-1.014228821E1,-1.421830177E0,9.904822350E0
2.693200156E1,-9.329600334E0,-1.343788862E0,1.030876160E1
2.695200156E1,-8.992285728E0,-1.151802659E0,1.078414536E1
2.697400000E1,-8.075776100E0,-1.901187778E0,1.082567024E1
2.699400000E1,-7.101326466E0,-2.619170427E0,1.053897858E1
2.701400156E1,-6.598649979E0,-2.894235611E0,1.009159851E1
2.703600000E1,-6.346061707E0,-3.573489666E0,1.004811001E1
2.705600000E1,-6.054620266E0,-4.207273006E0,1.004094601E1
2.707600000E1,-5.492308140E0,-4.568404675E0,9.275568008E0
2.709600156E1,-4.770437717E0,-4.888864040E0,8.417275429E0
2.711600156E1,-4.042044640E0,-5.010317326E0,7.944066525E0
2.713600781E1,-3.524054289E0,-4.986173630E0,7.743030071E0
2.715800156E1,-3.297716141E0,-5.102263927E0,7.517783642E0
2.718000000E1,-3.383380651E0,-4.757030010E0,7.492146492E0
2.720000000E1,-3.249343395E0,-4.172834873E0,7.617497444E0
2.722000000E1,-3.256813526E0,-4.418709755E0,8.698796272E0
2.724000000E1,-3.075036049E0,-4.784199238E0,9.648910522E0
2.726000000E1,-2.320843220E0,-4.002655029E0,8.965117455E0
2.728000000E1,-1.720502019E0,-2.444633007E0,7.385499477E0
2.730000156E1,-2.692749023E0,-1.645697594E0,8.498017311E0
2.732000156E1,-4.734084129E0,-2.792051077E0,1.034852505E1
2.734200000E1,-6.465034008E0,-4.665743828E0,1.089661503E1
2.736200000E1,-6.699378490E0,-4.603734016E0,1.012462902E1
2.738200000E1,-6.172462940E0,-3.766251802E0,1.009848404E1
2.740200000E1,-6.328057289E0,-2.316514730E0,1.075411224E1
2.742200156E1,-6.724000454E0,-7.687781453E-1,1.070818138E1
2.744200156E1,-6.711856842E0,5.387911201E-1,9.733770370E0
2.746200156E1,-5.777141571E0,7.728291750E-1,8.199173927E0
2.748400000E1,-4.632607937E0,6.897503734E-1,7.027461052E0
2.750400625E1,-4.140225887E0,7.553610802E-1,6.880466461E0
2.752600000E1,-4.165949345E0,5.689485073E-1,7.273383617E0
2.754601250E1,-4.570914268E0,5.659030676E-1,8.143465042E0
2.756800000E1,-4.478009224E0,3.793372959E-2,9.042946815E0
2.758800000E1,-4.473566055E0,2.214349210E-1,9.951317787E0
2.760800000E1,-5.490651131E0,8.162599206E-1,1.136969090E1
2.762800000E1,-6.224148750E0,1.669515133E0,1.209045982E1
2.764800000E1,-6.550919056E0,1.599307656E0,1.317667103E1
2.766800000E1,-7.224340916E0,1.448626041E0,1.462179184E1
2.768800000E1,-7.897705078E0,1.785346627E0,1.565774441E1
2.770800000E1,-8.526948929E0,2.761855125E0,1.584156990E1
2.772800000E1,-9.244711876E0,2.451758385E0,1.480401993E1
2.774800000E1,-8.448706627E0,3.725655556E0,1.180554008E1
2.776800156E1,-7.830897331E0,4.291280746E0,1.034100723E1
2.779000000E1,-9.021418571E0,3.519553185E0,1.057006550E1
2.781000000E1,-1.070903397E1,2.328255892E0,1.187488556E1
2.783000000E1,-1.226347446E1,7.576212287E-1,1.293998051E1
2.785000000E1,-1.226115704E1,8.704359084E-2,1.218974304E1
2.787000000E1,-1.119717407E1,-3.113898635E-1,1.085280132E1
2.789000000E1,-9.674193382E0,-8.203876019E-1,9.823237419E0
2.791000000E1,-7.807453632E0,-1.186748266E0,8.899132729E0
2.793000000E1,-6.423566341E0,-1.385457516E0,8.003634453E0
2.795000000E1,-5.416804790E0,-1.269970775E0,7.375386238E0
2.797000156E1,-4.519074917E0,-1.339201570E0,6.803928852E0
2.799200000E1,-3.725119352E0,-1.771354914E0,6.429839134E0
2.801200000E1,-3.278954983E0,-2.256803274E0,5.994515896E0
2.803200000E1,-3.032505274E0,-2.913992405E0,6.165605545E0
2.805200000E1,-3.005958557E0,-3.810774088E0,6.701313019E0
2.807200000E1,-3.162156343E0,-4.678385258E0,7.639820576E0
2.809200000E1,-3.300454855E0,-5.395046234E0,8.503093719E0
2.811200000E1,-3.384022236E0,-5.575406075E0,9.169888496E0
2.813200000E1,-3.731593370E0,-6.249403000E0,9.960683823E0
2.815200000E1,-4.109312057E0,-6.712211609E0,1.007815266E1
2.817200000E1,-4.243109226E0,-6.102753162E0,9.150399208E0
2.819200156E1,-4.855728626E0,-5.782609940E0,9.650136948E0
2.821200313E1,-5.794878006E0,-6.258289814E0,1.084455585E1
2.823400000E1,-5.616337299E0,-5.098347187E0,1.012035751E1
2.825400000E1,-4.826921463E0,-3.365031242E0,7.868658543E0
2.827400000E1,-5.256144047E0,-2.408442497E0,7.248924255E0
2.829400000E1,-6.681594372E0,-3.069653749E0,8.511310577E0
2.831400156E1,-7.114150047E0,-3.460828066E0,8.883263588E0
2.833600156E1,-6.642454147E0,-2.735978842E0,8.928887367E0
2.835800000E1,-5.524553299E0,-2.172575235E0,9.247987747E0
2.837800000E1,-4.831163883E0,-1.537891507E0,9.670917511E0
2.839800000E1,-4.407840252E0,-6.827305555E-1,9.185105324E0
2.841800000E1,-3.582156658E0,-2.554996312E-1,7.849553108E0
2.843800000E1,-3.057548761E0,-1.112250388E-1,6.493601799E0
2.845800000E1,-2.856253862E0,3.444873095E-1,5.889391422E0
2.847800000E1,-3.195014477E0,9.013690948E-1,6.364736557E0
2.849800000E1,-3.854415655E0,7.870028019E-1,7.677275658E0
2.851800156E1,-5.090101719E0,1.237323523E0,7.852186680E0
2.854000000E1,-6.009762287E0,2.963734388E0,8.369841576E0
2.856000000E1,-6.300217152E0,4.028378487E0,1.064120197E1
2.858000000E1,-6.717488289E0,3.694377661E0,1.281218719E1
2.860000000E1,-7.353282928E0,3.072900295E0,1.364717960E1
2.862000000E1,-7.535663605E0,2.689234257E0,1.393464661E1
2.864000000E1,-7.542070389E0,2.297705889E0,1.389136887E1
2.866000000E1,-7.796171665E0,2.640143633E0,1.325773811E1
2.868000000E1,-8.521902084E0,2.536388636E0,1.334778023E1
2.870000000E1,-8.650940895E0,2.957633972E0,1.215782356E1
2.872000000E1,-8.529343605E0,3.269751787E0,1.076928234E1
2.874000000E1,-8.990102768E0,2.793861151E0,1.055849648E1
2.876000000E1,-1.008777714E1,1.246402264E0,1.188393688E1
2.878000000E1,-1.183588028E1,-7.087603211E-1,1.359768677E1
2.880000000E1,-1.257711506E1,-1.203469515E0,1.358969879E1
2.882000000E1,-1.228547287E1,-1.437449932E0,1.278242302E1
2.884000000E1,-1.157415485E1,-1.663778663E0,1.111580944E1
2.886000000E1,-1.064054108E1,-1.368410826E0,9.755884171E0
2.888000000E1,-9.748020172E0,-9.965529442E-1,8.965087891E0
2.890000000E1,-8.753871918E0,-9.874836802E-1,8.013000488E0
2.892000000E1,-8.035314560E0,-1.364972711E0,7.317906380E0
2.894000000E1,-7.495268345E0,-1.638457537E0,6.923332214E0
2.896000156E1,-7.099545479E0,-1.899693727E0,7.438468933E0
2.898200000E1,-6.945713520E0,-2.557514906E0,8.680876732E0
2.900200000E1,-7.292144299E0,-3.778634548E0,9.913278580E0
2.902200000E1,-8.081809998E0,-5.022431850E0,1.095794487E1
2.904200000E1,-8.268720627E0,-6.058815002E0,1.084991932E1
2.906200000E1,-7.648688793E0,-5.710257530E0,9.848385811E0
2.908200000E1,-7.051585197E0,-5.327270985E0,8.978295326E0
2.910200000E1,-7.119953632E0,-5.597011566E0,8.772163391E0
2.912200000E1,-7.004993439E0,-5.638823509E0,8.259564400E0
2.914200000E1,-5.784803391E0,-5.309486866E0,8.009006500E0
2.916200000E1,-4.458779335E0,-5.747070312E0,9.359901428E0
2.918200000E1,-3.287516594E0,-6.240371704E0,1.068209457E1
2.920200000E1,-2.002902985E0,-5.410244465E0,9.956766129E0
2.922200000E1,-7.423749566E-1,-4.214886665E0,8.066468239E0
2.924200000E1,-1.298806667E-1,-3.971032381E0,8.077787399E0
2.926200000E1,-9.026811123E-1,-5.189106464E0,9.989107132E0
2.928200000E1,-1.613251448E0,-6.111362934E0,1.178043938E1
2.930200000E1,-3.038165331E0,-4.986241341E0,1.189380932E1
2.932200000E1,-3.498637438E0,-3.776891708E0,1.088402176E1
2.934400000E1,-3.454794645E0,-3.132688522E0,9.776838303E0
2.936400000E1,-3.613559008E0,-2.695631504E0,8.695002556E0
2.938400000E1,-3.715839386E0,-2.299669027E0,6.964656353E0
2.940400469E1,-3.738478899E0,-2.322165012E0,5.649463654E0
2.942601250E1,-3.547057629E0,-2.633238792E0,4.449087620E0
2.944800000E1,-4.263201714E0,-2.910334110E0,4.650248528E0
2.946800000E1,-4.839945793E0,-3.945156097E0,5.145455360E0
2.948800000E1,-6.231800556E0,-4.757144451E0,6.034623623E0
2.950800156E1,-6.950874805E0,-4.074030876E0,6.699436188E0
2.953000312E1,-7.943396091E0,-3.117221832E0,9.831674576E0
2.955200000E1,-8.877384186E0,3.896706700E-1,1.534805870E1
2.957200000E1,-9.888254166E0,3.050270557E0,2.263603783E1
2.959200000E1,-1.025728703E1,1.770138621E0,2.492727852E1
2.961200000E1,-9.325415611E0,-3.526659310E-1,2.047623825E1
2.963200000E1,-9.070854187E0,3.662745655E-1,1.474326420E1
2.965200000E1,-9.276056290E0,4.362819672E0,1.235259628E1
2.967200000E1,-1.023573971E1,4.786526203E0,1.277055645E1
2.969200000E1,-1.019525814E1,5.105970383E0,1.168476772E1
2.971200000E1,-9.884978294E0,5.061036110E0,9.960414886E0
2.973200000E1,-1.084196949E1,4.057080269E0,8.778819084E0
2.975200000E1,-1.239051056E1,2.824640751E0,7.824470997E0
2.977200000E1,-1.346907043E1,1.725606561E0,7.389818192E0
2.979200000E1,-1.405743027E1,1.259924650E0,7.528557777E0
2.981200000E1,-1.440664959E1,7.719480395E-1,8.040619850E0
2.983200000E1,-1.399279690E1,7.920593619E-1,8.406673431E0
2.985200000E1,-1.244473457E1,5.142745376E-2,8.235469818E0
2.987200000E1,-1.080181408E1,-1.382823825E0,7.791355133E0
2.989200000E1,-9.375425339E0,-2.735796928E0,6.926233768E0
2.991401875E1,-8.084032059E0,-3.644214392E0,6.636487961E0
2.993600000E1,-7.296339512E0,-4.161725998E0,7.210885048E0
2.995600781E1,-6.697789192E0,-4.364055157E0,8.540280342E0
2.997800000E1,-6.394970417E0,-4.273899078E0,1.084838676E1
2.999800000E1,-5.853545189E0,-3.924891472E0,1.179737091E1
3.001800156E1,-5.001995087E0,-3.899742603E0,1.333745575E1
3.004000000E1,-4.017633438E0,-3.434731483E0,1.646391106E1
3.006000000E1,-3.259638786E0,-3.757440805E0,1.629478264E1
3.008000000E1,-3.846706390E0,-5.114091396E0,1.432552338E1
3.010000000E1,-4.983042717E0,-6.164178848E0,1.221424007E1
3.012000000E1,-5.564680099E0,-5.604500294E0,1.023175526E1
3.014000000E1,-5.694091797E0,-5.573270321E0,9.122952461E0
3.016000000E1,-5.424427509E0,-6.705957890E0,8.682486534E0
3.018000000E1,-4.475519657E0,-6.805690765E0,7.413224220E0
3.020000000E1,-3.269426107E0,-5.413443565E0,6.151872635E0
3.022000000E1,-2.470576763E0,-4.483899593E0,4.918332100E0
3.024200000E1,-1.600935698E0,-3.105365753E0,4.610198021E0
3.026200000E1,-5.901611447E-1,-4.199065685E0,6.273938656E0
3.028200000E1,1.308593988E0,-5.906658173E0,1.030210686E1
3.030200000E1,2.773615837E0,-8.021705627E0,1.516576481E1
3.032200000E1,3.154542685E0,-9.177520752E0,1.656810570E1
3.034200000E1,6.634141207E-1,-8.194021225E0,1.454133701E1
3.036200000E1,-2.731142521E0,-7.397135258E0,1.108212757E1
3.038200000E1,-6.544904709E0,-6.722468376E0,9.175366402E0
3.040200000E1,-1.078822422E1,-3.850623369E0,9.844813347E0
3.042200000E1,-1.343502426E1,-1.455693841E0,1.015082169E1
3.044200000E1,-1.429640007E1,-8.607538342E-1,8.479946136E0
3.046200000E1,-1.448681641E1,-3.755065799E-2,6.447824478E0
3.048200000E1,-1.313047218E1,2.388551384E-1,4.474350929E0
3.050200000E1,-1.199137783E1,4.416823015E-2,3.763292551E0
3.052200000E1,-1.129277897E1,-2.067728490E-1,4.439750195E0
3.054200000E1,-1.173363781E1,2.581236959E-1,6.666146755E0
3.056200000E1,-1.120134926E1,8.318606019E-1,7.761944294E0
3.058200000E1,-1.015903854E1,1.560339570E0,7.788816929E0
3.060200000E1,-8.515016556E0,1.399200201E0,8.515801430E0
3.062200000E1,-8.166057587E0,1.631849647E0,9.231294632E0
3.064200000E1,-8.510984421E0,2.226645947E0,8.996461868E0
3.066200000E1,-7.612411976E0,3.005249739E0,9.095333099E0
3.068200000E1,-7.803076744E0,3.715130568E0,1.029414749E1
3.070200000E1,-9.040083885E0,2.962633133E0,1.059195805E1
3.072200000E1,-9.105092049E0,3.656271696E0,9.287184715E0
3.074200000E1,-1.002888012E1,4.115939140E0,9.078046799E0
3.076200000E1,-1.194473934E1,3.858112335E0,1.039356422E1
3.078200000E1,-1.368189526E1,2.825981617E0,1.189261246E1
3.080200000E1,-1.489346695E1,9.739229679E-1,1.274832916E1
3.082200000E1,-1.622079277E1,-5.650507808E-1,1.377907085E1
3.084200000E1,-1.696120453E1,-2.323907852E0,1.604173470E1
3.086200000E1,-1.528843403E1,-5.360081673E0,1.758150482E1
3.088200000E1,-1.081834412E1,-6.925640106E0,1.445082760E1
3.090200000E1,-6.332251549E0,-6.954897404E0,1.202982903E1
3.092200000E1,-1.989935875E0,-5.686478138E0,9.093158722E0
3.094200000E1,-1.217671871E0,-3.947272539E0,6.963219643E0
3.096200000E1,-2.438733816E0,-2.803236723E0,6.383343697E0
3.098200000E1,-2.815198183E0,-4.140627980E-1,5.616127014E0
3.100200000E1,-5.270758152E0,2.189966679E0,6.324513435E0
3.102200000E1,-9.236926079E0,3.301517963E0,7.110453606E0
3.104200000E1,-1.164386559E1,-2.275257707E-1,7.410714626E0
3.106200000E1,-1.359201717E1,-5.075027943E0,9.776799202E0
3.108200000E1,-1.263874245E1,-1.011878681E1,1.243674850E1
3.110200000E1,-7.613667011E0,-1.332407761E1,1.339709091E1
3.112200000E1,-9.874070883E-1,-1.430556583E1,1.000319576E1
3.114200000E1,3.493887186E0,-1.391912174E1,5.550401211E0
3.116200000E1,4.844207287E0,-1.347193336E1,3.347544193E0
3.118200000E1,2.209532261E0,-1.141139793E1,5.190974236E0
3.120200000E1,-9.424248338E-1,-9.289837837E0,9.871495247E0
3.122200000E1,-3.713675022E0,-7.789822578E0,1.511359024E1
3.124200000E1,-4.390917778E0,-6.260751247E0,1.722428894E1
3.126200000E1,-4.815026760E0,-6.329254627E0,1.651655197E1
3.128200000E1,-4.653475761E0,-6.156469345E0,1.253743839E1
3.130200000E1,-4.755162239E0,-5.279348850E0,8.990917206E0
3.132200000E1,-6.767268658E0,-4.793546200E0,8.667346001E0
3.134200000E1,-9.722844124E0,-4.439865112E0,1.088674164E1
3.136200000E1,-1.212371063E1,-3.536341190E0,1.282884216E1
3.138200000E1,-1.323096180E1,-1.499727964E0,1.397104740E1
3.140200000E1,-1.273653030E1,-7.814674079E-2,1.377843952E1
3.142200000E1,-1.086674500E1,1.832139045E-1,1.089256477E1
3.144200000E1,-8.825142860E0,2.641762197E-1,7.782189846E0
3.146200000E1,-7.239299774E0,6.030610800E-1,5.410263538E0
3.148200000E1,-6.014905453E0,7.173315287E-1,4.267051697E0
3.150200000E1,-4.956466675E0,6.773771644E-1,4.078321457E0
3.152200000E1,-4.632847309E0,2.150950767E-2,5.801658154E0
3.154200000E1,-4.410454750E0,-1.052826285E0,7.871014595E0
3.156200000E1,-4.800029755E0,-2.211332560E0,9.498449326E0
3.158200313E1,-5.409746647E0,-1.817103267E0,9.648786545E0
3.160400000E1,-5.625282288E0,-7.751659155E-1,1.075915909E1
3.162400000E1,-5.220709801E0,1.418516636E-1,1.206405640E1
3.164400000E1,-5.973830223E0,5.745987892E-1,1.345196629E1
3.166400000E1,-7.346876144E0,1.148153782E0,1.431223106E1
3.168599844E1,-8.633079529E0,2.294842243E0,1.371411228E1
3.170600000E1,-8.933714867E0,3.196795702E0,1.252857018E1
3.172600781E1,-8.784929276E0,4.367646694E0,1.187687778E1
3.174800000E1,-1.049558735E1,5.459804535E0,1.158601189E1
3.176800156E1,-1.219113159E1,5.702078819E0,1.195423889E1
3.179000000E1,-1.150506878E1,5.263384342E0,1.063341618E1
3.181000000E1,-1.105936337E1,2.583937407E0,9.600643158E0
3.183000000E1,-1.082768154E1,7.965892553E-1,8.668226242E0
3.185000000E1,-1.114370632E1,-3.572340310E-1,9.080459595E0
3.187000000E1,-1.197868919E1,-8.520867825E-1,1.001266575E1
3.189000000E1,-1.250057697E1,-9.967157841E-1,1.142681599E1
3.191000000E1,-1.290668201E1,-1.564122438E0,1.255004120E1
3.193000000E1,-1.258472824E1,-2.630021095E0,1.302721596E1
3.195000000E1,-1.160423660E1,-3.688095331E0,1.272819805E1
3.197000000E1,-1.018573856E1,-4.477387428E0,1.168128109E1
3.199000000E1,-8.565151215E0,-4.693899632E0,1.025323582E1
3.201000000E1,-7.480232716E0,-4.400121689E0,9.317831039E0
3.203000000E1,-7.383718491E0,-3.904320478E0,9.052495956E0
3.205000000E1,-7.706820488E0,-3.890989542E0,9.364258766E0
3.207000000E1,-7.875305176E0,-4.341702461E0,9.853087425E0
3.209000000E1,-7.410456657E0,-5.132574558E0,1.000190258E1
3.211000000E1,-6.709932327E0,-5.935551643E0,9.911381721E0
3.213000000E1,-5.759616375E0,-6.267349720E0,9.529766083E0
3.215000000E1,-4.824527264E0,-5.961964130E0,9.168528557E0
3.217000000E1,-3.827514410E0,-5.377166271E0,8.557786942E0
3.219000000E1,-3.294871569E0,-5.157062531E0,8.204392433E0
3.221000000E1,-3.684590340E0,-5.381246090E0,7.947054863E0
3.223000000E1,-4.391272545E0,-5.467178822E0,7.398744106E0
3.225000000E1,-4.794283867E0,-5.089603424E0,7.199814320E0
3.227000000E1,-4.553005219E0,-5.325911045E0,6.900309563E0
3.229000156E1,-4.218851566E0,-5.995435715E0,6.562909126E0
3.231199844E1,-4.327356815E0,-6.296108723E0,6.216401100E0
3.233200000E1,-4.507764816E0,-5.506979942E0,5.626604080E0
3.235200000E1,-5.413069725E0,-4.912786961E0,6.061209202E0
3.237200000E1,-7.118612766E0,-4.163813591E0,8.218154907E0
3.239200000E1,-8.154086113E0,-3.383351803E0,9.838435173E0
3.241200000E1,-8.435740471E0,-2.397783518E0,1.100323296E1
3.243200000E1,-7.635942459E0,-1.392343283E0,1.201249504E1
3.245200000E1,-6.511864662E0,-1.579052567E0,1.242549515E1
3.247200000E1,-5.628270149E0,-1.714430451E0,1.088101482E1
3.249200000E1,-5.140073299E0,-2.220727444E0,8.830323219E0
3.251200000E1,-5.185122490E0,-2.651156902E0,7.639074326E0
3.253200000E1,-5.640978336E0,-2.265546799E0,7.504998684E0
3.255200000E1,-5.523969173E0,-1.461736679E0,8.116985321E0
3.257200000E1,-5.296520233E0,-1.008179188E0,9.114860535E0
3.259200000E1,-5.562372208E0,-5.972575545E-1,9.090928078E0
3.261200000E1,-5.811522484E0,9.897629917E-2,9.810930252E0
3.263200000E1,-6.360158920E0,7.215070128E-1,1.119271088E1
3.265200000E1,-6.771664619E0,1.017104745E0,1.170129681E1
3.267200000E1,-7.006095409E0,7.639897466E-1,1.113887978E1
3.269200000E1,-7.059064388E0,1.339603662E-1,1.051362896E1
3.271200000E1,-6.963027954E0,-5.232671499E-1,1.014658928E1
3.273200000E1,-6.998251438E0,-5.669086576E-1,9.926360130E0
3.275200000E1,-7.999238968E0,1.116655674E-2,1.108826637E1
3.277200000E1,-9.291140556E0,9.697091579E-1,1.281656361E1
3.279200000E1,-1.051252842E1,2.337306023E0,1.397234058E1
3.281200000E1,-1.065763569E1,2.349200249E0,1.280975533E1
3.283200000E1,-1.067853260E1,1.600083232E0,1.028390026E1
3.285200000E1,-9.373586655E0,2.523929119E0,7.007617474E0
3.287200000E1,-8.780351639E0,2.884007454E0,5.570799828E0
3.289200000E1,-9.620276451E0,2.304696798E0,6.304287434E0
3.291200000E1,-1.133887196E1,9.761447906E-1,8.740243912E0
3.293200156E1,-1.305819607E1,-4.863198102E-1,1.127123165E1
3.295400000E1,-1.397183323E1,-1.741255045E0,1.234122849E1
3.297400000E1,-1.326552486E1,-2.141479254E0,1.118164921E1
3.299400000E1,-1.199908829E1,-2.195195675E0,9.829519272E0
3.301400000E1,-1.047687340E1,-2.353471518E0,9.219965935E0
3.303400000E1,-9.339885712E0,-2.250051498E0,9.541707993E0
3.305400000E1,-8.788942337E0,-2.212836266E0,1.054059792E1
3.307400000E1,-8.597750664E0,-2.174490452E0,1.156713581E1
3.309400000E1,-8.072520256E0,-2.964395285E0,1.223598957E1
3.311400000E1,-7.150187492E0,-3.919901848E0,1.204588032E1
3.313400000E1,-6.397067547E0,-4.585624218E0,1.118798923E1
3.315400000E1,-5.934890747E0,-4.934114933E0,1.015438366E1
3.317400000E1,-5.336062431E0,-4.893441677E0,9.437292099E0
3.319600000E1,-4.459871292E0,-4.754961491E0,8.849611282E0
3.321600000E1,-3.788709164E0,-4.638497353E0,8.523176193E0
3.323600000E1,-3.513040781E0,-4.806503296E0,8.706648827E0
3.325600000E1,-3.321705818E0,-5.357007504E0,8.448161125E0
3.327600000E1,-2.923933029E0,-5.509335995E0,7.579515457E0
3.329600000E1,-2.523153305E0,-5.173228264E0,6.672113419E0
3.331600156E1,-2.525710344E0,-4.670148849E0,6.214169502E0
3.333600156E1,-3.247667551E0,-4.920534611E0,7.025660038E0
3.335600156E1,-3.678911209E0,-5.137248039E0,7.779374123E0
3.337800156E1,-3.788690090E0,-4.798181057E0,7.849160671E0
3.340000156E1,-4.039937973E0,-3.301891327E0,7.342815399E0
3.342200156E1,-5.499835491E0,-2.446155787E0,8.566846848E0
3.344400000E1,-7.126494408E0,-2.532260895E0,1.056421375E1
3.346400000E1,-7.905165672E0,-3.653906345E0,1.188610077E1
3.348400312E1,-7.607508659E0,-3.997799873E0,1.129984665E1
3.350400781E1,-6.928982258E0,-3.242304325E0,1.042832851E1
3.352600156E1,-6.939009190E0,-2.306391954E0,1.045598602E1
3.354600625E1,-7.089470863E0,-1.650256276E0,1.013858223E1
3.356800156E1,-7.275701046E0,-1.306487203E0,9.489255905E0
3.358800156E1,-6.965891838E0,-1.394134045E0,8.525781631E0
3.361000000E1,-6.664174080E0,-1.717418313E0,7.751055717E0
3.363000000E1,-6.895434856E0,-1.906100631E0,7.649780750E0
3.365000000E1,-7.626413345E0,-1.800372720E0,8.271986008E0
3.367000000E1,-8.037478447E0,-1.362003922E0,8.827422142E0
3.369000000E1,-8.037631989E0,-8.907292485E-1,9.276420593E0
3.371000000E1,-7.912425041E0,-4.924681485E-1,9.313904762E0
3.373000000E1,-7.720160484E0,-9.195649624E-2,9.275922775E0
3.375000000E1,-7.614020824E0,5.014224648E-1,9.431277275E0
3.377000000E1,-7.511281013E0,7.675619125E-1,9.621137619E0
3.379000000E1,-7.526853085E0,1.175198674E0,9.762807846E0
3.381001094E1,-7.485366344E0,1.556422591E0,1.026503372E1
3.383200000E1,-7.398015976E0,2.081068754E0,1.075629616E1
3.385200000E1,-8.202133179E0,2.816021681E0,1.144393921E1
3.387200156E1,-9.629834175E0,3.885310650E0,1.228496456E1
3.389200156E1,-1.061503792E1,4.119664669E0,1.277807522E1
3.391400000E1,-1.055565262E1,3.135580540E0,1.215450954E1
3.393400000E1,-1.004722977E1,1.294554472E0,1.080669785E1
3.395400000E1,-9.777565002E0,-4.350073040E-1,9.872979164E0
3.397400000E1,-1.024396610E1,-1.678469539E0,9.624020576E0
3.399400000E1,-1.090506268E1,-2.465443611E0,9.798203468E0
3.401400000E1,-1.142896080E1,-3.292199612E0,1.019394588E1
3.403400000E1,-1.141593647E1,-3.554173231E0,1.017083645E1
3.405400000E1,-1.102438831E1,-3.780569077E0,1.025266075E1
3.407400156E1,-1.048198700E1,-3.844427347E0,9.783311844E0
3.409600000E1,-9.705634117E0,-3.985598803E0,9.675764084E0
3.411600312E1,-9.302670479E0,-4.416698933E0,1.032355881E1
3.413800000E1,-8.821455002E0,-4.617466927E0,1.024891663E1
3.415800156E1,-7.784411430E0,-4.732867718E0,9.581068039E0
3.417800156E1,-6.708620071E0,-4.838260174E0,8.882277489E0
3.420000156E1,-6.088215351E0,-4.961312294E0,8.470627785E0
3.422000156E1,-5.640930653E0,-5.060939789E0,8.110549927E0
3.424000156E1,-4.660782814E0,-4.902712345E0,7.579544544E0
3.426000156E1,-3.691878080E0,-4.910115242E0,6.993808270E0
3.428200000E1,-3.061120749E0,-4.959722519E0,6.550526142E0
3.430200156E1,-2.578631878E0,-4.956543446E0,5.717794418E0
3.432200156E1,-2.327748299E0,-5.027411461E0,4.958334446E0
3.434400000E1,-2.418785334E0,-5.660630226E0,5.086328030E0
3.436400000E1,-2.516411304E0,-6.168612957E0,4.890693188E0
3.438400000E1,-2.813196421E0,-5.642788410E0,4.664709568E0
3.440400000E1,-3.729840517E0,-5.542356491E0,5.081185341E0
3.442400000E1,-4.664345264E0,-5.889544487E0,6.567524910E0
3.444400000E1,-5.566787243E0,-5.925745010E0,8.264170647E0
3.446400000E1,-6.270232201E0,-5.320778370E0,8.797609329E0
3.448400000E1,-7.112235069E0,-4.068648815E0,9.076074600E0
3.450400156E1,-8.247325897E0,-2.893450260E0,9.989969254E0
3.452600156E1,-9.253799438E0,-3.166743755E0,1.138847065E1
3.454600156E1,-9.588663101E0,-3.611500025E0,1.207520390E1
3.456600156E1,-8.979405403E0,-3.548503876E0,1.118760681E1
3.458800156E1,-8.321986198E0,-3.334184408E0,1.053475571E1
3.460800781E1,-8.511367798E0,-2.990616560E0,1.056911755E1
3.463000156E1,-8.538068771E0,-2.512044191E0,1.006100941E1
3.465000156E1,-7.964120388E0,-1.893583775E0,9.167829514E0
3.467000156E1,-7.275021553E0,-1.042052388E0,8.584793091E0
3.469000156E1,-6.296740532E0,-6.358137727E-1,8.414756775E0
3.471200000E1,-5.885560513E0,-8.105330467E-1,8.682543755E0
3.473200000E1,-5.601790428E0,-6.162579060E-1,8.460332870E0
3.475200000E1,-5.696917057E0,-6.363117695E-1,8.350218773E0
3.477200000E1,-6.089029312E0,-6.138637066E-1,8.743969917E0
3.479200000E1,-6.662412167E0,-2.969001830E-1,9.513925552E0
3.481200000E1,-6.674776077E0,3.699137270E-1,9.459414482E0
3.483200000E1,-6.495067120E0,6.537607312E-1,9.345718384E0
3.485200000E1,-6.659769058E0,1.003065228E0,9.236973763E0
3.487200000E1,-7.091587067E0,1.211332083E0,9.201147079E0
3.489200000E1,-7.836087704E0,1.409792066E0,9.647828102E0
3.491200000E1,-8.766896248E0,1.713606834E0,1.034069157E1
3.493200000E1,-9.516328812E0,1.802824378E0,1.071426392E1
3.495200000E1,-1.029176331E1,1.364149094E0,1.102740574E1
3.497200000E1,-1.086481094E1,7.323862910E-1,1.071358299E1
3.499200000E1,-1.103183937E1,1.475402862E-1,1.028298187E1
3.501200000E1,-1.119080544E1,-1.004760265E0,1.063009262E1
3.503200000E1,-1.119141769E1,-2.629580498E0,1.140166664E1
3.505200000E1,-1.117332745E1,-3.992609024E0,1.112141228E1
3.507200156E1,-1.063558006E1,-4.241069794E0,9.515984535E0
3.509200156E1,-9.789661407E0,-3.905603647E0,8.018134117E0
3.511400000E1,-9.209085464E0,-3.573977947E0,7.413501740E0
3.513400000E1,-9.024272919E0,-3.432145596E0,7.604492188E0
3.515400000E1,-8.382003784E0,-3.020343065E0,7.961678028E0
3.517400000E1,-7.891068459E0,-2.983184814E0,8.231112480E0
3.519400000E1,-7.443266392E0,-3.209455967E0,8.459615707E0
3.521400000E1,-7.440738201E0,-4.116322041E0,8.754981995E0
3.523400000E1,-6.364151955E0,-4.184605122E0,8.290497780E0
3.525400000E1,-5.507899284E0,-4.513367176E0,7.918419838E0
3.527400000E1,-5.389941692E0,-5.391914368E0,8.095686913E0
3.529400000E1,-5.753975391E0,-6.848240376E0,8.622046471E0
3.531400000E1,-5.299106121E0,-6.923054695E0,7.548583031E0
3.533400000E1,-4.474504471E0,-5.353071213E0,6.428757191E0
3.535400000E1,-4.006859303E0,-3.818273067E0,6.819385529E0
3.537400000E1,-3.924996853E0,-4.043203354E0,7.870804310E0
3.539400000E1,-4.597719669E0,-5.396214485E0,8.788731575E0
3.541400000E1,-4.705372334E0,-6.013085365E0,8.355534554E0
3.543400000E1,-4.237076283E0,-5.688307285E0,7.414660454E0
3.545400000E1,-3.840682507E0,-5.354909897E0,7.374131680E0
3.547400000E1,-3.888250589E0,-6.211172581E0,8.288027763E0
3.549400000E1,-4.088846207E0,-6.588230133E0,8.736968994E0
3.551400000E1,-4.784754276E0,-6.521584988E0,8.495536804E0
3.553400156E1,-5.484684944E0,-5.131856441E0,7.807606220E0
3.555600938E1,-6.750212193E0,-3.672370195E0,7.672583580E0
3.557800156E1,-8.450860977E0,-2.951619625E0,8.777536392E0
3.559800469E1,-9.422888756E0,-2.970811844E0,1.029572868E1
3.562000156E1,-9.100302696E0,-3.814374924E0,1.162024784E1
3.564200000E1,-7.256537914E0,-3.413327217E0,1.084760189E1
3.566200000E1,-6.628433704E0,-2.490103722E0,1.019007683E1
3.568200000E1,-6.785981655E0,-1.702306151E0,1.005600166E1
3.570200000E1,-6.830619335E0,-1.132687211E0,9.340317726E0
3.572200156E1,-6.436954975E0,-8.867261410E-1,8.617259026E0
3.574400156E1,-5.882161140E0,-1.032255292E0,8.298475266E0
3.576602031E1,-5.563339233E0,-1.637528539E0,7.845722198E0
3.578800000E1,-5.963315010E0,-1.682405472E0,7.732189655E0
3.580801250E1,-6.732945442E0,-1.394517064E0,8.211728096E0
3.583000000E1,-7.293533325E0,-7.818121910E-1,8.786366463E0
3.585000000E1,-7.498515129E0,-3.273735642E-1,9.151654243E0
3.587000156E1,-7.406950951E0,-2.691657543E-1,9.115223885E0
3.589000156E1,-7.261297703E0,-3.091967702E-1,8.647292137E0
3.591000156E1,-7.391254902E0,-1.468316019E-1,8.070298195E0
3.593200156E1,-8.122932434E0,-1.896303594E-1,8.015404701E0
3.595400156E1,-9.182979584E0,2.998690009E-1,8.116726875E0
3.597600781E1,-1.029222298E1,9.179847836E-1,8.970259666E0
3.599800000E1,-1.119788265E1,1.643791914E0,9.777009964E0
3.601800000E1,-1.214181042E1,2.031259775E0,1.018977070E1
3.603800000E1,-1.225656891E1,2.264273167E0,9.450967789E0
3.605800000E1,-1.134075832E1,1.814575076E0,8.622670174E0
3.607800156E1,-1.079020691E1,1.748916507E-1,9.063959122E0
3.610000000E1,-1.130166626E1,-1.634157538E0,1.070567322E1
3.612000156E1,-1.163043880E1,-2.798323631E0,1.183089066E1
3.614200000E1,-1.183621502E1,-3.497363806E0,1.188511467E1
3.616200000E1,-1.157848454E1,-3.741648912E0,1.132951546E1
3.618200156E1,-1.097921467E1,-4.204840660E0,1.073562908E1
3.620400000E1,-9.947534561E0,-4.901907921E0,1.012580681E1
3.622400000E1,-8.206384659E0,-5.350858688E0,9.416453362E0
3.624400000E1,-6.442969322E0,-5.096211433E0,8.705135345E0
3.626400000E1,-5.536466599E0,-4.537136555E0,8.524105072E0
3.628400000E1,-5.502813816E0,-3.733527660E0,8.446619034E0
3.630400156E1,-5.575750828E0,-3.507132053E0,8.244194031E0
3.632601406E1,-5.466527462E0,-3.833988428E0,7.884690285E0
3.634800000E1,-5.636036873E0,-4.269407749E0,7.846421242E0
3.636800156E1,-5.694044113E0,-4.562678337E0,7.656053543E0
3.639000156E1,-5.564651489E0,-4.551032543E0,7.277453423E0
3.641000156E1,-5.279981136E0,-4.357360840E0,6.906888485E0
3.643200156E1,-5.123352051E0,-4.200828075E0,7.186953068E0
3.645400000E1,-5.371793747E0,-4.304018021E0,8.065376282E0
3.647400000E1,-5.419064999E0,-4.762095928E0,8.785130501E0
3.649400000E1,-5.600947857E0,-5.376629829E0,8.800443649E0
3.651400000E1,-5.738489628E0,-6.334885120E0,8.473319054E0
3.653400000E1,-5.655085564E0,-7.239060402E0,7.707528591E0
3.655400000E1,-5.186961651E0,-6.866905689E0,6.924337864E0
3.657400000E1,-4.934123993E0,-6.120968342E0,6.078351498E0
3.659400000E1,-4.817401886E0,-4.615819931E0,4.992456436E0
3.661400000E1,-5.511777878E0,-3.052358150E0,5.124472618E0
3.663400000E1,-7.019540787E0,-2.110661030E0,7.035955429E0
3.665400000E1,-7.937248230E0,-2.284872770E0,8.886893272E0
3.667400781E1,-7.926502705E0,-3.244986057E0,1.002346039E1
3.669600156E1,-6.724555969E0,-3.750516891E0,9.110856056E0
3.671800156E1,-6.270299435E0,-3.451318264E0,8.548238754E0
3.673800156E1,-6.791344643E0,-2.599786997E0,9.072502136E0
3.676000000E1,-7.072318554E0,-2.077573299E0,9.372706413E0
3.678000000E1,-6.878292561E0,-2.001035452E0,9.005196571E0
3.680000000E1,-6.466987610E0,-1.930904508E0,8.604138374E0
3.682000156E1,-6.300322533E0,-1.737548828E0,8.672105789E0
3.684000156E1,-6.438027382E0,-1.422854900E0,9.136809349E0
3.686200000E1,-6.489311695E0,-1.232889414E0,9.734766960E0
3.688200000E1,-6.641285419E0,-1.007116199E0,1.000027466E1
3.690200000E1,-6.769892693E0,-5.863591433E-1,1.046156025E1
3.692200156E1,-6.852042675E0,-2.947453856E-1,1.076958847E1
3.694400000E1,-6.810498238E0,2.214349210E-1,1.057440376E1
3.696400000E1,-6.529850006E0,2.749117911E-1,1.009309292E1
3.698400000E1,-6.286455631E0,3.806588948E-1,9.951920509E0
3.700400000E1,-6.340248585E0,2.701617181E-1,1.056290245E1
3.702400156E1,-6.754933357E0,4.423527047E-2,1.099405003E1
3.704600469E1,-7.720237255E0,-2.860592306E-2,1.138210201E1
3.706603281E1,-8.260751724E0,5.080112815E-1,1.117325115E1
3.708800156E1,-9.381210327E0,7.976426482E-1,1.139381409E1
3.710800156E1,-1.013398552E1,8.422035575E-1,1.014882946E1
3.712800156E1,-9.595548630E0,1.463240385E0,8.147286415E0
3.714800156E1,-9.029472351E0,1.658482671E0,7.020230293E0
3.716800156E1,-9.229934692E0,1.039993286E0,7.308539867E0
3.719000000E1,-1.062913513E1,-8.160492778E-1,9.294540405E0
3.721000000E1,-1.161695385E1,-2.308230639E0,1.050477982E1
3.723000000E1,-1.214404202E1,-2.966052055E0,1.060764408E1
3.725000000E1,-1.236643410E1,-3.138463020E0,1.067975807E1
3.727000156E1,-1.200953579E1,-2.938528299E0,1.059385490E1
3.729200000E1,-1.113001156E1,-3.128493786E0,1.058368397E1
3.731200000E1,-1.036572456E1,-3.483324051E0,1.035998821E1
3.733200000E1,-9.650097847E0,-3.874881268E0,1.001905346E1
3.735200000E1,-9.165041924E0,-4.187295914E0,9.879501343E0
3.737200000E1,-8.302612305E0,-4.510838985E0,9.918257713E0
3.739200000E1,-7.148501873E0,-4.965583801E0,9.995150566E0
3.741200000E1,-6.342776299E0,-5.197696686E0,9.556092262E0
3.743200000E1,-5.920908928E0,-5.289978981E0,8.784507751E0
3.745200000E1,-5.622083664E0,-5.154821873E0,7.917510033E0
3.747200000E1,-4.872401237E0,-5.006917477E0,7.315761089E0
3.749200156E1,-4.212492466E0,-5.003776550E0,7.067386627E0
3.751200156E1,-3.772122383E0,-5.085590839E0,6.884086609E0
3.753400156E1,-3.391903877E0,-5.076876163E0,6.813553333E0
3.755600156E1,-3.393771172E0,-5.293264389E0,7.194921017E0
3.757800156E1,-3.536963940E0,-5.837312698E0,7.145696163E0
3.760000000E1,-3.438495159E0,-5.788413525E0,6.768216610E0
3.762000000E1,-3.413576126E0,-6.003996849E0,7.051010132E0
3.764000000E1,-3.548704863E0,-6.194709301E0,7.486744881E0
3.766000000E1,-4.005489826E0,-6.179348469E0,7.797436237E0
3.768000156E1,-4.367771149E0,-5.389348030E0,7.035629749E0
3.770200000E1,-5.112137794E0,-3.788077116E0,7.196185112E0
3.772200000E1,-6.869242191E0,-3.249381781E0,9.087163925E0
3.774200156E1,-8.156116486E0,-4.187631130E0,1.097417736E1
3.776400000E1,-8.519996643E0,-5.471450329E0,1.120673180E1
3.778400000E1,-7.754972458E0,-4.949638844E0,9.832651138E0
3.780400000E1,-7.632255554E0,-3.900834560E0,9.282578468E0
3.782400000E1,-7.995465279E0,-2.840787411E0,9.902150154E0
3.784400000E1,-8.232433319E0,-1.744693160E0,9.983456612E0
3.786400000E1,-7.702654362E0,-1.490237355E0,9.318482399E0
3.788400156E1,-6.923150539E0,-1.686600208E0,8.549387932E0
3.790601875E1,-6.473212719E0,-2.037111282E0,8.496533394E0
3.792800000E1,-6.569583893E0,-2.230457544E0,8.694773674E0
3.794800156E1,-7.207973957E0,-2.066761017E0,8.855893135E0
3.797000156E1,-7.622075081E0,-1.711978793E0,9.197460175E0
3.799200156E1,-8.059074402E0,-1.357473969E0,9.727488518E0
3.801200156E1,-8.502394676E0,-1.016635537E0,1.022357655E1
3.803400000E1,-8.788099289E0,-3.722121716E-1,1.006024456E1
3.805400000E1,-8.567048073E0,2.045510113E-1,9.527151108E0
3.807400156E1,-8.617910385E0,2.095692605E-1,9.307956696E0
3.809600469E1,-9.003808022E0,-1.143470779E-2,9.154220581E0
3.811800000E1,-9.535166740E0,2.550878227E-1,9.207601547E0
3.813800000E1,-1.017582607E1,7.819367051E-1,9.605853081E0
3.815800156E1,-1.117649746E1,9.893128872E-1,1.010154915E1
3.818000156E1,-1.129991436E1,1.891725779E0,9.268750191E0
3.820200000E1,-1.091980076E1,2.335974693E0,8.578223228E0
3.822200156E1,-1.015145302E1,1.875962377E0,8.212858200E0
3.824200156E1,-9.791719437E0,8.087613583E-1,8.452011108E0
3.826400000E1,-1.039371777E1,-1.027581811E0,1.006499386E1
3.828400000E1,-1.086393929E1,-2.215038776E0,1.114588070E1
3.830400000E1,-1.138032055E1,-2.811702728E0,1.132564640E1
3.832400000E1,-1.138592243E1,-3.074528456E0,1.107321167E1
3.834400000E1,-1.116126060E1,-3.676957607E0,1.120143509E1
3.836400000E1,-1.096277142E1,-4.279970646E0,1.129818058E1
3.838400000E1,-9.795350075E0,-4.703878403E0,1.097109413E1
3.840400000E1,-8.053404808E0,-5.276993275E0,1.065958881E1
3.842400000E1,-6.478259563E0,-5.442633152E0,9.863508224E0
3.844400000E1,-5.962788105E0,-5.137937546E0,8.916639328E0
3.846400000E1,-6.340018749E0,-5.200866699E0,8.436390877E0
3.848400000E1,-5.954858303E0,-5.127613544E0,7.868237495E0
3.850400156E1,-4.946650505E0,-5.091231346E0,7.178467751E0
3.852600312E1,-4.073676586E0,-5.158977985E0,6.843212605E0
3.854601875E1,-4.176531792E0,-5.413117886E0,6.921349525E0
3.856800000E1,-4.264035225E0,-5.154361725E0,6.635865211E0
3.858800156E1,-4.102215767E0,-4.978694439E0,6.218756676E0
3.860801094E1,-4.143357277E0,-5.224914074E0,6.135524750E0
3.863000000E1,-4.448513031E0,-6.054198742E0,6.605238914E0
3.865000156E1,-4.601665020E0,-6.450372219E0,6.823551178E0
3.867200000E1,-4.533622265E0,-6.067385674E0,6.442471027E0
3.869200000E1,-5.061514854E0,-6.367580414E0,7.154382229E0
3.871200156E1,-5.232068539E0,-6.606397629E0,7.916389465E0
3.873400000E1,-5.307131290E0,-6.288936138E0,7.914627552E0
3.875400156E1,-5.070114613E0,-5.307542801E0,6.300878048E0
3.877600938E1,-5.858764648E0,-4.144037724E0,5.871846676E0
3.879800000E1,-7.684975624E0,-3.851638317E0,7.813381195E0
3.881800000E1,-8.523664474E0,-4.170833588E0,9.629737854E0
3.883800000E1,-8.555440903E0,-4.984517097E0,1.064701462E1
3.885800000E1,-8.073008537E0,-5.381830215E0,1.029091072E1
3.887800156E1,-8.014273643E0,-4.470462799E0,9.621376991E0
3.890000000E1,-8.452873230E0,-3.459142685E0,9.791739464E0
3.892000000E1,-8.435894012E0,-2.298510313E0,9.502270699E0
3.894000000E1,-7.803967476E0,-1.491702676E0,8.826348305E0
3.896000000E1,-7.089384079E0,-1.143030167E0,8.563274384E0
3.898000000E1,-6.201317310E0,-1.159100056E0,8.764942169E0
3.900000000E1,-5.526248455E0,-1.296565533E0,9.041156769E0
3.902000000E1,-5.504901886E0,-1.601538897E0,8.995571136E0
3.904000156E1,-6.196079254E0,-1.396183491E0,9.234981537E0
3.906200156E1,-7.044967175E0,-7.324532866E-1,1.032425785E1
3.908400000E1,-7.355744362E0,3.928022981E-1,1.095130825E1
3.910400156E1,-7.364142895E0,1.295808911E0,1.091184235E1
3.912600313E1,-7.530367851E0,1.871566653E0,1.096514606E1
3.914800156E1,-8.131177902E0,2.006273985E0,1.098474121E1
3.917000000E1,-8.796967506E0,1.998018742E0,1.101800060E1
3.919000000E1,-9.504473686E0,2.124365568E0,1.097160149E1
3.921000000E1,-1.110507298E1,1.806051612E0,1.130764294E1
3.923000000E1,-1.192073059E1,8.302516937E-1,1.118361282E1
3.925000000E1,-1.151886845E1,-3.217232227E-1,1.006308746E1
3.927000156E1,-1.045128441E1,-1.263745904E0,8.662959099E0
3.929200000E1,-9.394531250E0,-1.581217051E0,7.593373299E0
3.931200000E1,-9.369210243E0,-2.127228975E0,8.082365036E0
3.933200000E1,-9.966352463E0,-2.924383402E0,9.600269318E0
3.935200156E1,-1.061823654E1,-3.811167002E0,1.056295872E1
3.937200156E1,-1.093989277E1,-4.595449924E0,1.033769321E1
3.939400000E1,-1.056333256E1,-4.690882683E0,9.330022812E0
3.941400000E1,-9.917339325E0,-4.631650448E0,8.845560074E0
3.943400000E1,-9.265962601E0,-4.519908428E0,8.808095932E0
3.945400156E1,-8.540386200E0,-4.202178001E0,8.612537384E0
3.947601250E1,-7.708237648E0,-3.569333315E0,8.066515923E0
3.949800000E1,-6.938138008E0,-3.235227346E0,7.766349792E0
3.951800469E1,-6.611329556E0,-3.176378012E0,7.755853653E0
3.954000156E1,-6.474629879E0,-3.398329735E0,7.906018257E0
3.956200156E1,-6.123017788E0,-3.970754862E0,7.920134068E0
3.958200156E1,-5.650555611E0,-4.634523392E0,7.588374615E0
3.960400156E1,-5.152954102E0,-5.194364071E0,6.787102222E0
3.962600156E1,-4.612975597E0,-5.507296085E0,6.131493092E0
3.964800156E1,-3.921664000E0,-5.554117203E0,5.577599049E0
3.966800156E1,-3.481667280E0,-5.706340313E0,5.478737831E0
3.969000156E1,-3.926260948E0,-5.834200382E0,6.387375832E0
3.971000156E1,-4.641638756E0,-6.197669029E0,7.087708473E0
3.973200000E1,-5.383027554E0,-6.679611683E0,7.768753529E0
3.975200000E1,-6.331063747E0,-7.046748638E0,8.495202065E0
3.977200000E1,-6.996374607E0,-7.297297001E0,9.174629211E0
3.979200000E1,-7.118880749E0,-7.085036755E0,8.929079056E0
3.981200000E1,-6.780790806E0,-5.842416763E0,7.458790302E0
3.983200000E1,-6.705095768E0,-4.177987099E0,6.427349567E0
3.985200156E1,-7.783176422E0,-3.428946972E0,7.241914272E0
3.987400000E1,-8.763218880E0,-2.681170702E0,8.732802391E0
3.989400000E1,-8.442770004E0,-2.350090742E0,9.281620979E0
3.991400000E1,-7.349298954E0,-1.975743175E0,9.033648491E0
3.993400000E1,-6.328066349E0,-1.775923133E0,8.809665680E0
3.995400000E1,-5.971828461E0,-1.740613461E0,8.478126526E0
3.997400000E1,-5.884650707E0,-1.625797033E0,7.557269096E0
3.999400000E1,-5.833912849E0,-1.611508369E0,6.808650017E0
4.001400000E1,-5.843729019E0,-1.424961805E0,6.909953594E0
4.003400000E1,-5.769001484E0,-1.125590801E0,7.497911930E0
4.005400000E1,-5.473068237E0,-9.471079111E-1,8.299471855E0
4.007400000E1,-4.970841885E0,-3.723462522E-1,9.191963196E0
4.009400156E1,-5.122298717E0,-6.430825591E-2,1.041571617E1
4.011602188E1,-5.895348072E0,1.625471413E-1,1.138104916E1
4.013800000E1,-6.032353878E0,1.437344551E0,1.167194462E1
4.015800156E1,-6.343715191E0,2.204705238E0,1.256314278E1
4.018000156E1,-6.529983997E0,2.336032152E0,1.178720093E1
4.020200000E1,-7.145858765E0,2.121655226E0,1.113630390E1
4.022200000E1,-8.201683044E0,1.363354206E0,1.161307526E1
4.024200000E1,-9.284723282E0,7.386303544E-1,1.197092152E1
4.026200000E1,-1.030432796E1,7.144776583E-1,1.149113369E1
4.028200000E1,-1.086865997E1,1.035588026E0,1.041694164E1
4.030200000E1,-1.026753426E1,1.188347697E0,9.133687973E0
4.032200000E1,-9.786423683E0,9.861525297E-1,8.104276657E0
4.034200000E1,-9.698116302E0,2.085732669E-1,8.271143913E0
4.036200000E1,-1.071947289E1,-1.462569952E0,1.036069679E1
4.038200000E1,-1.158942127E1,-3.104944229E0,1.224162960E1
4.040200000E1,-1.200067806E1,-4.062788010E0,1.243536949E1
4.042200156E1,-1.135764217E1,-4.298722267E0,1.069920921E1
4.044400000E1,-9.644504547E0,-4.044429302E0,8.779508591E0
4.046400000E1,-8.149622917E0,-3.585144758E0,8.131168365E0
4.048400156E1,-7.262839317E0,-3.268104553E0,8.277914047E0
4.050400156E1,-6.635702610E0,-2.886104822E0,7.944717884E0
4.052400156E1,-6.321391582E0,-2.573278427E0,7.511147022E0
4.054600781E1,-6.118669987E0,-2.897070408E0,7.238064289E0
4.056800000E1,-6.034125328E0,-3.285677910E0,6.891690254E0
4.058800156E1,-6.020747185E0,-3.775703907E0,6.669815063E0
4.060800312E1,-5.874710083E0,-4.152915001E0,6.526258945E0
4.063000156E1,-5.463261604E0,-4.384099007E0,6.059111595E0
4.065200000E1,-5.022163391E0,-4.561279774E0,5.733509541E0
4.067200000E1,-4.589713573E0,-4.737607956E0,5.619335175E0
4.069200156E1,-4.335142612E0,-4.798315525E0,5.739648342E0
4.071400000E1,-4.729170799E0,-5.239777565E0,6.284770012E0
4.073400000E1,-4.974864006E0,-5.721567154E0,6.391905785E0
4.075400000E1,-4.936250210E0,-5.475663662E0,5.783423901E0
4.077400156E1,-5.354670525E0,-5.443571568E0,6.498208046E0
4.079400156E1,-5.808562756E0,-5.297812939E0,7.483096600E0
4.081400156E1,-6.035054684E0,-5.281915665E0,7.962684155E0
4.083600156E1,-5.415828228E0,-4.386302471E0,6.847915173E0
4.085600938E1,-5.605285645E0,-3.631438971E0,6.554050922E0
4.087800156E1,-7.032986641E0,-3.703447104E0,8.231150627E0
4.090000156E1,-8.153751373E0,-4.544692993E0,1.045125580E1
4.092200156E1,-8.468540192E0,-5.672687531E0,1.100602055E1
4.094200156E1,-7.858268261E0,-5.259448051E0,9.487493515E0
4.096400000E1,-7.656800747E0,-3.818521976E0,8.170356750E0
4.098400000E1,-7.761389256E0,-2.593753576E0,7.956851482E0
4.100400000E1,-7.721424580E0,-1.660512924E0,7.465034485E0
4.102400156E1,-7.270664215E0,-1.213429332E0,6.869625568E0
4.104600000E1,-6.644484520E0,-1.025934577E0,6.609107494E0
4.106600156E1,-6.212053299E0,-1.054214835E0,6.819299221E0
4.108600625E1,-6.109121799E0,-8.853949308E-1,7.235497952E0
4.110800000E1,-6.294413567E0,-7.731643915E-1,8.448841095E0
4.112800156E1,-6.541265488E0,-6.706925035E-1,9.064428329E0
4.115000000E1,-6.521652222E0,-3.898143172E-1,9.551830292E0
4.117000156E1,-6.779526711E0,8.027279377E-2,1.007979965E1
4.119000156E1,-6.926732063E0,5.512027144E-1,1.003259563E1
4.121200156E1,-6.810565472E0,7.844266891E-1,1.001887226E1
4.123400000E1,-7.257294655E0,3.445830941E-1,1.059456253E1
4.125400000E1,-8.286447525E0,-8.709148318E-2,1.132995605E1
4.127400000E1,-9.472276688E0,-1.648168415E-1,1.188145638E1
4.129400000E1,-1.072866726E1,1.866519600E-1,1.175570297E1
4.131400000E1,-1.115347481E1,7.602930665E-1,1.024619770E1
4.133400000E1,-1.030519962E1,1.397150755E0,8.165636063E0
4.135400000E1,-9.402269363E0,1.031106114E0,7.525330067E0
4.137400000E1,-9.414049149E0,8.868122846E-2,8.572237968E0
4.139400000E1,-1.043377781E1,-1.766212106E0,1.114948177E1
4.141400000E1,-1.207454300E1,-3.763541460E0,1.304467392E1
4.143400000E1,-1.330014420E1,-4.682024479E0,1.303235817E1
4.145400000E1,-1.260525227E1,-4.184097290E0,1.095340538E1
4.147400000E1,-1.151687622E1,-4.043442726E0,9.003481865E0
4.149400000E1,-9.837880135E0,-3.808494806E0,7.440566063E0
4.151400156E1,-8.051595688E0,-3.635432482E0,6.899332523E0
4.153400156E1,-6.358156681E0,-3.605342150E0,7.048951149E0
4.155600156E1,-5.354565144E0,-2.953008413E0,7.395468712E0
4.157600156E1,-5.608599663E0,-2.645908833E0,7.537033081E0
4.159600312E1,-5.867086887E0,-2.870647907E0,7.365024090E0
4.161800000E1,-5.810076237E0,-3.891918421E0,7.177041054E0
4.163800156E1,-5.836757183E0,-4.774708271E0,6.986405373E0
4.165800156E1,-5.605266571E0,-5.451616287E0,6.882898808E0
4.167800156E1,-5.401769161E0,-5.738049507E0,6.608523369E0
4.170000156E1,-4.932859898E0,-5.328995228E0,6.283658981E0
4.172000156E1,-4.607497692E0,-4.846275806E0,6.044832706E0
4.174200000E1,-4.819767475E0,-4.722687721E0,6.328985691E0
4.176200000E1,-5.210108280E0,-5.109312534E0,6.839497089E0
4.178200000E1,-5.129031181E0,-5.446282387E0,6.530012608E0
4.180200000E1,-4.189738274E0,-5.835646629E0,5.787609100E0
4.182200000E1,-4.089286804E0,-6.602355957E0,5.945559502E0
4.184200000E1,-4.002856255E0,-6.886921406E0,6.129941463E0
4.186200000E1,-4.353089809E0,-6.429187775E0,6.016647816E0
4.188200000E1,-5.211784840E0,-4.964837074E0,5.833481789E0
4.190200000E1,-6.942064285E0,-3.561815739E0,6.659912586E0
4.192200000E1,-8.809378624E0,-2.679149866E0,8.250974655E0
4.194200000E1,-1.017356682E1,-3.219684124E0,1.002581501E1
4.196200156E1,-1.021554184E1,-4.928301334E0,1.090635490E1
4.198400000E1,-8.499722481E0,-5.429867744E0,9.815690041E0
4.200400156E1,-7.600709438E0,-4.951841354E0,8.982164383E0
4.202600781E1,-7.939278126E0,-2.878338099E0,8.564834595E0
4.204800000E1,-8.176314354E0,-8.618168235E-1,8.247593880E0
4.206800000E1,-7.816254616E0,3.982036188E-2,7.722727776E0
4.208800156E1,-6.646246433E0,8.218815923E-2,7.069474220E0
4.211000156E1,-5.761550903E0,1.643571556E-1,7.282510281E0
4.213200000E1,-5.209131718E0,3.384443745E-2,8.408398628E0
4.215200000E1,-5.171293736E0,2.141374052E-1,9.810135841E0
