"Time (s)","Linear Acceleration x (m/s^2)","Linear Acceleration y (m/s^2)","Linear Acceleration z (m/s^2)"
8.116156300E-2,-3.560185432E-2,1.113290787E-1,3.049392700E-1
1.048217190E-1,1.093428135E-1,-1.180853844E-1,4.186010361E-1
1.284818750E-1,-5.425355434E-1,-2.555131912E-1,3.263711929E-1
1.521419800E-1,-4.200110435E-1,-2.955367565E-1,8.232994080E-1
1.758021360E-1,-1.894199848E-1,-4.721083641E-1,5.344190598E-1
1.994622400E-1,6.495850086E-1,-1.036231041E0,6.838417053E-2
2.231223960E-1,1.500358582E-1,-7.153725624E-2,5.044193268E-1
2.467825530E-1,-5.702915192E-1,8.942079544E-2,1.069702148E0
2.704426570E-1,-2.244644642E0,5.908594131E-1,1.292133331E-1
2.941028130E-1,-1.452369690E0,-1.023508310E0,1.559869766E0
3.177629690E-1,-3.780565262E-1,-1.246365309E0,2.442464828E-1
3.414231250E-1,3.907216787E-1,-9.196569920E-1,3.393430710E-1
3.650832300E-1,1.237213135E0,-7.866237164E-1,4.287586212E-1
3.887433860E-1,-4.385124445E-1,-1.119451046E0,-1.960722923E0
4.124035420E-1,-1.397649050E-1,-1.450043201E0,-7.564458847E-1
4.360636460E-1,-1.226367712E0,-3.166460991E-1,-8.939085007E-1
4.597238030E-1,-1.393939376E0,2.728257179E-1,-1.231645584E0
4.833839590E-1,-1.101688623E0,1.964187622E-2,-2.007235527E0
5.070441150E-1,-6.850643158E-1,-1.024710536E0,-2.206857681E0
5.307042710E-1,-4.384867549E-1,-6.114592552E-1,-1.884043694E0
5.543643750E-1,-7.345893979E-2,9.014558792E-2,-2.234479904E0
5.780245320E-1,-6.930506229E-1,2.969852686E-1,-2.741707325E0
6.016846880E-1,-1.422448635E0,-5.658662319E-2,-2.252112389E0
6.253448440E-1,-4.183021486E-1,-9.878973365E-1,-1.277343750E0
6.490050000E-1,-2.969586253E-1,2.795717716E-1,8.686828613E-1
6.726651050E-1,9.500740767E-1,-9.167996645E-1,-1.063695908E0
6.963252610E-1,1.405363202E0,-2.910701036E0,1.241217613E0
7.199854170E-1,-5.440754890E-1,-9.757770896E-1,1.574960709E0
7.436455730E-1,1.085296869E-1,-2.057229280E0,-2.367455959E0
7.673057300E-1,-1.997212470E-1,5.947653055E-1,-6.161499023E-1
7.909658860E-1,1.520368814E0,-1.008420229E0,-3.608589172E-1
8.146260420E-1,-1.695978642E-1,-2.219072342E0,6.774282455E-1
8.382861980E-1,-4.180906415E-1,-1.032171130E0,1.582620621E0
8.619463550E-1,2.660621881E0,-3.161902428E-1,1.851037979E0
8.856065110E-1,4.482184410E0,-1.897450686E0,-4.008769989E0
9.092666150E-1,-5.378471017E-1,-7.258689404E-1,3.445968628E-1
9.329267710E-1,4.594924450E-1,-2.224796534E0,1.260956764E0
9.565869280E-1,4.223241806E-1,-1.664782286E0,-4.953584671E-1
9.802470840E-1,1.366307735E-1,-4.521036148E-1,-5.066141129E0
1.003907240E0,-5.766403675E-2,-1.838791370E-1,-6.006732464E0
1.027567396E0,-1.613201618E0,-2.338564396E0,-1.447217941E0
1.051227553E0,-3.303542614E0,-1.973485947E0,6.726099968E0
1.074887709E0,-1.906194687E0,-5.930089951E-2,2.923631191E0
1.098547917E0,-1.601953030E0,-1.530089378E-1,-1.425092220E0
1.122208073E0,-1.114460945E0,-2.535820007E-2,4.782400131E0
1.145868230E0,-1.850498319E0,-1.498439312E0,6.081928253E0
1.169528386E0,-4.498056173E-1,-5.014939308E-1,5.439298630E0
1.193188542E0,6.282844543E0,1.954329491E0,6.334271908E0
1.216848698E0,1.801839948E0,1.903517723E0,3.288007259E0
1.240508855E0,-1.917495728E0,1.531490803E0,6.988455772E0
1.264169063E0,4.743603706E0,3.720011950E0,7.567105770E0
1.287829219E0,2.238373518E0,3.479805470E0,2.880297184E0
1.311489375E0,-7.862143517E-1,2.583500385E0,2.093413353E0
1.335149532E0,2.388933659E0,3.237930298E0,1.285171509E-2
1.358809688E0,1.227046967E0,1.994378090E0,-3.192663193E-2
1.382469896E0,2.024995327E0,1.063951492E0,3.208351135E-2
1.406130053E0,3.916511774E0,5.596895218E-1,2.554100990E0
1.429790209E0,-6.896386147E-1,-1.442341805E-1,5.254240990E0
1.453450417E0,-5.400669098E0,-1.447732449E0,-3.403736591E0
1.477110573E0,-6.484570980E0,-1.490003109E0,8.705782890E-1
1.500770782E0,-2.938705921E0,-1.361197472E0,-1.318606853E0
1.524430938E0,1.989872456E0,-1.247725487E0,-1.734772682E0
1.548091146E0,5.621905804E0,-1.961266994E0,-1.085675812E1
1.571751303E0,3.061434269E0,-3.779132366E0,-5.466837883E0
1.595411511E0,-2.270915985E0,-4.667242527E0,-5.939033985E0
1.619071719E0,2.450892925E0,-2.683428288E0,-3.503271341E0
1.642731875E0,1.223893642E0,-2.329256535E0,-1.632047653E0
1.666392084E0,4.247965813E-1,-9.603238106E-1,3.292957306E0
1.690052292E0,2.643214464E0,-6.170535088E-1,-4.661188126E-1
1.713712500E0,-2.078227043E0,-1.853530407E0,2.044209957E0
1.737372657E0,-3.676301479E0,-1.903063297E0,4.157748222E0
1.761032865E0,-4.753987312E0,-1.857302666E0,9.361643791E-1
1.784693073E0,-9.121956825E-1,1.980152130E-1,3.228856325E0
1.808353282E0,5.007821560E0,2.245927811E0,-2.116084099E-2
1.832013490E0,3.828912973E0,3.123406410E0,-1.428314447E0
1.855673698E0,4.761554718E0,4.525278568E0,3.447494507E0
1.879333907E0,4.087725163E0,8.023817062E0,-5.015820503E0
1.902994115E0,5.458743095E0,8.915588379E0,-7.675641060E0
1.926654323E0,7.837068558E0,2.002321243E0,-9.339995384E0
1.950314532E0,4.867387295E0,-7.228188992E0,-4.226813793E0
1.973974740E0,-8.672124863E0,-6.993898392E0,1.584949207E1
1.997634948E0,-2.999224901E0,-5.896474838E0,8.283207893E0
2.021295157E0,-3.681855202E-1,-4.439191818E-1,-5.703207970E0
2.044955417E0,2.736947536E-1,3.676811218E0,-4.900129318E0
2.068615625E0,-4.394682050E-1,5.394140244E0,2.412776053E-1
2.092275834E0,-1.678577423E0,9.403314590E-1,6.971237183E0
2.115936042E0,-6.000408173E0,-7.004431725E0,4.036169052E0
2.139596303E0,-1.055924511E1,-2.772703171E1,-2.008640766E0
2.163256511E0,-1.829819679E0,-1.760855484E1,1.631929207E1
2.186916771E0,1.620766640E0,-5.296016693E0,3.108815193E0
2.210576980E0,2.147626400E0,1.610481262E0,-5.958848000E0
2.234237240E0,1.494671822E0,4.946457863E0,-7.935509682E0
2.257897448E0,1.770069122E0,3.942360878E0,-4.699700356E0
2.281557657E0,6.673310399E-1,1.323997498E0,1.286873102E0
2.305217917E0,5.923380256E-1,1.460838318E-1,-6.281089783E-1
2.328878178E0,7.054772377E-1,4.869699478E-1,-6.501846313E-1
2.352538386E0,1.163662910E0,2.059895515E0,-1.364951134E0
2.376198646E0,1.513739824E0,3.279053688E0,-4.191844940E0
2.399858907E0,2.235342026E0,3.622570992E0,-3.567155600E0
2.423519115E0,2.610067606E0,2.939877510E0,-2.032213211E0
2.447179375E0,2.410526037E0,2.299800873E0,6.504850388E-1
2.470839636E0,1.501388788E0,6.742639542E-1,4.121392727E0
2.494499844E0,-2.712186575E-1,-1.074726105E0,4.302482605E0
2.518160105E0,-1.519772172E0,-1.265172005E0,2.605868578E0
2.541820365E0,-6.868349314E-1,4.453115463E-1,1.494830132E0
2.565480625E0,1.451044321E0,1.897998810E0,2.963313580E0
2.589140834E0,5.066394806E-1,-2.065658569E-1,1.362115860E0
2.612801094E0,-2.791763306E0,-1.244393349E0,2.609368801E0
2.636461355E0,-3.526354074E0,1.946208000E0,1.023459435E-1
2.660121615E0,-4.259098768E-1,5.975023270E0,-4.330385685E0
2.683781875E0,6.644858360E0,2.474172592E0,-4.669371128E0
2.707442136E0,4.272200108E0,-1.563755322E1,3.874442339E0
2.731102396E0,5.881669044E0,-1.362708664E1,-1.019764709E1
2.754762657E0,6.880417466E-1,4.097017288E0,6.051055908E0
2.778422917E0,-1.312675476E0,3.140779495E0,-9.811054230E0
2.802083178E0,1.872473001E0,-3.367691040E-1,-5.169171333E0
2.825743438E0,2.579816341E0,-2.398600578E0,-4.614043236E-2
2.849403698E0,2.474296570E0,-1.004061699E0,-8.686577082E-1
2.873063959E0,8.359750509E-1,4.137802124E-2,-5.340141058E-1
2.896724219E0,-6.246085763E-1,1.432723999E0,-1.157582879E0
2.920384480E0,-4.124932289E-1,2.845815659E0,-2.154167175E0
2.944044740E0,-1.635669231E0,2.724635124E0,9.511396885E-1
2.967705000E0,-2.534061670E0,6.799659729E-1,2.826407433E0
2.991365261E0,-2.429052830E0,-6.441955566E-1,3.640560150E0
3.015025521E0,-1.811804175E0,-1.617374420E-1,2.714322329E0
3.038685834E0,-1.185474157E0,5.299549103E-1,9.824562073E-1
3.062346094E0,-1.628567457E0,5.036239624E-1,-1.777416170E-1
3.086006355E0,-2.175465822E0,-7.271385193E-2,3.162817657E-1
3.109666615E0,-2.055126905E0,-2.965955734E-1,3.213043928E0
3.133326875E0,-1.621870279E0,-1.669888496E0,2.558067799E0
3.156987136E0,-2.995871305E0,-1.854607582E0,1.626077056E0
3.180647448E0,-4.273433208E0,-1.613418579E0,2.742541552E0
3.204307709E0,-3.184808969E0,-4.071950912E-1,5.902768612E0
3.227967969E0,-2.517051220E0,5.445766449E-2,7.222381592E0
3.251628230E0,-3.051645517E0,-1.366286278E0,5.650950432E0
3.275288490E0,-4.472945213E0,-3.770973206E0,1.225063801E0
3.298948803E0,-2.311514616E0,-5.408520699E0,-8.107331991E-1
3.322609063E0,2.093402386E0,-7.666208267E0,-3.445440769E0
3.346269323E0,3.690863848E0,-6.867219925E0,-1.737365723E-1
3.369929636E0,1.478296280E0,-1.013436317E0,3.993051052E-1
3.393589896E0,1.309763491E-1,1.770530701E0,3.994965553E-1
3.417250157E0,-7.494040728E-1,2.345385551E0,-1.633626103E0
3.440910417E0,-2.909979224E-1,1.502888680E0,-3.408975840E0
3.464570730E0,-7.166862488E-1,1.507847786E0,-4.359053612E0
3.488230990E0,-1.034228444E0,1.849111557E0,-2.784795046E0
3.511891250E0,1.618304849E0,1.640892982E0,-5.226392746E0
3.535551563E0,3.709516764E0,1.739046097E0,-8.384441376E0
3.559211823E0,3.833903790E0,1.996127129E0,-5.214803219E0
3.582872084E0,4.333252907E0,2.783178329E0,-1.963452339E0
3.606532344E0,4.638423443E0,3.847440720E0,1.133954287E0
3.630192657E0,4.515049458E0,2.815728188E0,3.471583128E0
3.653852917E0,2.306535006E0,-1.722850800E-1,6.103891373E0
3.677513230E0,-4.536131620E-1,-1.529157639E0,5.533779144E0
3.701173490E0,-5.775022507E-1,-3.974752426E-1,1.178134441E0
3.724833750E0,2.351720333E0,1.014796257E0,-3.593740463E-1
3.748494063E0,2.559471607E0,-6.949939728E-1,8.724862099E0
3.772154323E0,-3.869449854E0,-4.645809174E0,1.462710857E0
3.795814584E0,-1.250758052E0,-1.148447514E1,-1.018368435E1
3.819474896E0,-5.346279740E-1,-5.022809029E0,-1.042758751E1
3.843135157E0,-2.807624340E-1,3.246725082E0,-7.355980873E0
3.866795417E0,2.202960014E0,3.575142384E0,-5.070279121E0
3.890455730E0,3.239291906E0,-2.493543625E-1,-1.668937683E0
3.914115990E0,4.210969925E0,-1.843174934E0,3.588172913E0
3.937776250E0,3.349825859E0,-6.265850067E-1,7.925643921E-1
3.961436563E0,2.133276463E0,1.209440231E0,-3.391808987E0
3.985096823E0,6.569999456E-1,2.182846069E0,-3.882371426E0
4.008757084E0,-1.398530722E0,1.889879227E0,-3.049488068E-1
4.032417396E0,-2.557960510E0,1.407264709E0,5.108904362E0
4.056077657E0,-2.695602655E0,1.515923500E0,4.752175331E0
4.079737969E0,-9.984927177E-1,1.553133011E0,1.320454121E0
4.103398230E0,-1.599519730E0,1.027372360E0,1.343587875E0
4.127058490E0,-2.978793859E0,1.571034431E0,1.869216681E0
4.150718803E0,-1.353869438E0,9.197130203E-1,5.771566033E-1
4.174379063E0,-1.014746189E0,4.501018524E-1,-9.001364112E-1
4.198039323E0,-8.626935482E-1,6.003303528E-1,-5.012466908E-1
4.221699636E0,1.635307074E-2,1.163903236E0,1.907416463E0
4.245359896E0,-7.183765173E-1,3.607702255E-1,3.584770679E0
4.269020157E0,-2.983702421E0,1.997909546E-1,9.236889482E-1
4.292680469E0,-4.949859619E0,8.899259567E-1,9.049744010E-1
4.316340730E0,-5.411074638E0,3.316590309E0,4.072442055E0
4.340000990E0,-4.904408455E0,3.341759682E0,7.140412807E0
4.363661303E0,-2.498701096E0,2.093110085E0,8.943011284E0
4.387321563E0,-5.666918755E0,-4.359426498E-1,-3.873148918E0
4.410981823E0,-2.081306219E0,-3.905501366E0,-3.145836353E0
4.434642136E0,-7.991210222E-1,-9.023061752E0,-2.487478018E0
4.458302396E0,2.240278125E-1,-1.305690002E1,-1.171311975E0
4.481962657E0,4.227257729E0,-1.159384060E1,2.181899071E0
4.505622969E0,3.214206696E0,-3.550811768E0,-1.141111851E-1
4.529283230E0,5.177131295E-1,1.653889179E0,-1.886022091E-1
4.552943490E0,-1.011899352E0,1.921200752E0,-1.885807514E-1
4.576603803E0,1.098080277E0,-7.413082123E-1,-7.402904034E-1
4.600264063E0,2.569003105E0,-3.117160797E-1,-1.388122320E0
4.623924323E0,4.683956146E0,1.174770355E0,-2.089037657E0
4.647584636E0,4.587675095E0,3.601085663E0,-3.113499403E0
4.671244896E0,3.762959719E0,6.593042374E0,-1.488347769E0
4.694905157E0,3.699911356E0,7.681164742E0,-1.452950716E0
4.718565417E0,3.569362640E0,7.391026020E0,-4.258028269E-1
4.742225730E0,2.931642532E0,4.832326412E0,2.706425667E0
4.765885990E0,2.376404285E0,3.307242393E0,2.216599464E0
4.789546250E0,3.351871967E0,2.597205162E0,6.123774052E-1
4.813206563E0,2.489669323E0,5.055146694E0,-1.136199951E0
4.836866823E0,-3.006137609E-1,6.554599762E0,-4.387697697E0
4.860527084E0,-1.677220583E0,4.525487900E0,-1.363277197E0
4.884187396E0,1.119430542E0,-9.220248222E0,1.194451571E0
4.907847657E0,7.489743233E0,-4.916365814E1,2.125303268E1
4.931507917E0,-5.661350727E0,-4.708598137E0,-1.823046303E1
4.955168178E0,-2.748463631E0,2.930782795E0,-1.607008934E1
4.978828490E0,6.198655963E-1,2.984756470E0,-1.378052330E1
5.002488750E0,4.864081860E0,-1.289861679E0,-5.872376442E0
5.026149011E0,2.899204493E0,-3.239726067E0,-2.877198696E0
5.049809271E0,-1.328256369E0,-7.035704613E0,-1.679432034E0
5.073469584E0,-8.569841385E0,-1.992350578E0,8.959043503E0
5.097129844E0,-4.099374771E0,-8.949937820E-1,9.060161591E0
5.120790105E0,-1.285782456E0,3.797581673E0,-7.380852222E0
5.144450365E0,-7.682914734E-1,8.281175613E0,-1.088750958E0
5.168110678E0,1.023758531E0,1.051970100E1,9.074331284E0
5.191770938E0,1.320303679E-1,4.396973610E0,1.920793533E0
5.215431198E0,-3.426393986E0,1.186125755E0,2.806949615E0
5.239091459E0,-6.487420082E0,1.934439659E0,1.797370315E0
5.262751719E0,-7.137125015E0,-1.224708557E-1,1.412575722E0
5.286412032E0,-8.346681595E0,-2.280170441E0,5.945737362E0
5.310072292E0,-1.051929569E1,1.370840073E-1,6.180605412E0
5.333732553E0,-1.154718494E1,3.633018017E0,8.557894707E0
5.357392813E0,-1.165548992E1,3.721001625E0,1.470908165E0
5.381053073E0,-6.641466141E0,-1.442871094E-1,-1.120185256E0
5.404713386E0,-7.029883385E0,-1.207153511E1,-5.451884747E0
5.428373646E0,-5.479789972E-1,-2.981812668E1,3.310378313E0
5.452033907E0,4.814671516E0,-2.220358086E1,2.859545946E0
5.475694167E0,2.490484715E0,-6.170505524E0,-6.128765106E0
5.499354428E0,-4.893064499E0,1.135755539E0,3.043301105E-1
5.523014688E0,-3.179908276E0,-2.631622314E0,3.693685532E0
5.546674948E0,5.168070316E0,-4.379358292E0,-1.964069605E0
5.570335261E0,1.005265331E1,1.864103317E0,-7.035739899E0
5.593995521E0,9.574322701E0,6.329318047E0,-9.849990845E0
5.617655782E0,7.625361443E0,7.622782230E0,-7.660884857E0
5.641316042E0,6.450873375E0,8.287724495E0,3.112769127E-2
5.664976303E0,6.045342445E0,8.308465958E0,1.688441658E1
5.688636563E0,-1.932989120E0,2.491321087E0,8.626911163E0
5.712296823E0,-9.729166627E-1,4.887189865E-1,-5.217351913E-1
5.735957136E0,1.318307042E0,-6.853008270E-1,-9.260864258E0
5.759617396E0,6.758363724E0,-1.511911964E1,-1.174710655E1
5.783277657E0,5.798448563E0,-1.394734192E1,-6.588568211E0
5.806937917E0,9.201563001E-1,-6.165113449E-1,-7.037588120E0
5.830598178E0,1.314331889E0,-4.935714722E0,-9.018344879E0
5.854258438E0,1.886430860E0,-4.831035614E0,-4.294229507E0
5.877918698E0,1.508381724E0,-1.228673935E0,1.326338530E0
5.901578959E0,2.284093201E-1,-6.608543396E-1,1.981377602E-2
5.925239219E0,-8.515120149E-1,2.057842255E0,-3.334170341E0
5.948899480E0,-3.112147152E-1,4.468334198E0,-5.239253521E0
5.972559740E0,-5.706322193E-1,5.324239731E0,-9.590449333E-1
5.996220000E0,3.018950462E0,1.528939247E0,1.068039227E1
6.019880261E0,1.066298962E0,8.427953720E-1,-1.089065552E0
6.043540573E0,8.958238363E-2,7.030582428E-1,-1.147502303E0
6.067200834E0,3.911090493E-1,3.653850555E-1,6.750179768E0
6.090861094E0,-1.568575501E-1,2.117853165E-1,4.800621033E0
6.114521355E0,-4.753895760E0,-1.824826241E0,-6.875315905E-1
6.138181615E0,-6.795463085E0,-2.254605293E0,2.768555641E0
6.161841875E0,-7.794067383E0,-2.090754509E0,3.822088480E0
6.185502136E0,-7.783128738E0,-1.316816330E0,4.881226063E0
6.209162396E0,-5.466016769E0,-6.402244568E-1,8.866393089E0
6.232822657E0,-5.068475723E0,1.422805786E-1,7.141923904E0
6.256482917E0,-6.592375755E0,-3.598680496E0,1.521811366E0
6.280143178E0,-3.071961164E0,-5.232573509E0,-4.725313187E-2
6.303803438E0,-1.006770134E0,-7.776116371E0,-3.812039375E0
6.327463698E0,3.710051775E0,-1.102373219E1,-1.044121742E0
6.351123959E0,4.053853035E0,-5.724228859E0,7.208449841E-1
6.374784219E0,1.678227186E0,-4.886960983E-1,-2.487051725E0
6.398444428E0,-7.584902048E-1,2.177856922E0,-4.059739113E0
6.422104688E0,-1.405111790E0,3.411985397E0,-2.159082890E-1
6.445764948E0,1.319164634E0,2.515666008E0,-3.244592667E0
6.469425209E0,2.255812883E0,3.407914162E0,-5.258744240E0
6.493085469E0,2.423874855E0,3.962662697E0,-4.336829185E0
6.516745730E0,2.991037369E0,3.774740219E0,-5.583580971E0
6.540405990E0,3.138566256E0,4.608621120E0,-5.414790630E0
6.564066250E0,2.740001202E0,3.010286331E0,-1.940008163E0
6.587726511E0,1.609521031E0,-1.033576965E0,2.786994219E0
6.611386771E0,-1.734575033E0,-5.029638290E0,1.941215277E0
6.635047032E0,1.112693787E0,-2.535131454E0,3.932411194E0
6.658707292E0,4.143657207E0,3.695146561E0,1.730162382E0
6.682367500E0,5.342809677E0,5.919311523E0,2.987134218E0
6.706027761E0,2.446976662E0,3.261589050E0,-2.420707464E0
6.729688021E0,-9.957020283E-1,7.784929276E-1,1.559715271E0
6.753348282E0,2.156521797E0,-3.707780838E0,-6.811719894E0
6.777008542E0,8.852586746E0,-1.854278946E1,1.159524918E-1
6.800668803E0,2.022961140E0,-9.866976738E0,-7.423975945E0
6.824329063E0,-5.415145874E0,5.084127426E0,-6.346934319E0
6.847989323E0,-9.704324007E-1,3.854670525E0,-8.082855225E0
6.871649532E0,3.105905771E0,-1.242090225E0,-4.843458176E0
6.895309792E0,4.328770161E0,-1.564933777E0,8.756022453E-1
6.918970053E0,7.845395803E-1,-1.473345757E0,8.174490929E-1
6.942630313E0,-7.391939163E-1,1.522256851E0,-1.040032744E0
6.966290573E0,-3.223932385E-1,3.452990532E0,-2.204944372E0
6.989950834E0,-1.044847488E0,3.487706184E0,-8.263428211E-1
7.013611042E0,-2.411008596E0,3.644962311E-1,1.437698722E0
7.037271303E0,-2.973369598E0,-1.135259628E0,4.985286713E0
7.060931563E0,-2.838197708E0,3.301048279E-1,5.809153557E0
7.084591823E0,-1.857447505E0,9.996051788E-1,2.901962757E0
7.108252084E0,-1.889805317E0,1.001538277E0,9.779518843E-2
7.131912292E0,-2.820138454E0,4.660577774E-1,1.638797045E0
7.155572553E0,-1.733938456E0,-1.276282310E0,1.541360378E0
7.179232813E0,-1.864761114E-1,-3.400745392E0,1.886836052E0
7.202893073E0,-2.272442818E0,-2.361420631E0,7.496531606E-1
7.226553282E0,-4.056630135E0,-1.636196136E0,3.411456347E0
7.250213542E0,-2.870474339E0,-1.079874992E0,5.588272095E0
7.273873803E0,-3.005544901E0,-1.698505402E0,6.872070789E0
7.297534063E0,-4.292817116E0,-4.484763145E0,4.915047646E0
7.321194271E0,-3.852589607E0,-3.475399971E0,2.026433706E0
7.344854532E0,-1.239053488E0,-3.262632370E0,-1.623572826E0
7.368514792E0,1.086649060E0,-4.214572906E0,-3.066342115E0
7.392175053E0,2.593043566E0,-5.142312050E0,-1.620167494E0
7.415835261E0,9.838181734E-1,-2.472377777E0,1.035765409E0
7.439495521E0,-7.538933754E-1,4.918870926E-1,-5.308771133E-2
7.463155782E0,-2.311641276E-1,1.118832588E0,-2.319409132E0
7.486815990E0,1.095497966E0,9.007387161E-1,-4.156017303E0
7.510476250E0,9.619279504E-1,2.157765388E0,-2.716045380E0
7.534136511E0,1.425325274E0,3.000500679E0,-1.821115732E0
7.557796719E0,2.080215454E0,3.188924789E0,-3.698133469E0
7.581456980E0,3.520514011E0,2.803984642E0,-8.433335304E0
7.605117240E0,3.619763851E0,2.995153427E0,-6.591601372E0
7.628777448E0,3.840227365E0,3.358181953E0,-2.617527485E0
7.652437709E0,4.603661060E0,2.080627918E0,2.749475002E0
7.676097969E0,-1.471039057E0,-2.457924843E0,7.815936565E0
7.699758178E0,-4.997576714E0,-5.349493980E0,6.397935867E0
7.723418438E0,4.032886028E-1,-2.907706261E0,5.527822495E0
7.747078698E0,2.580132246E0,4.585331917E0,4.309077263E-1
7.770738907E0,4.373373032E0,6.718598843E0,-2.464983940E0
7.794399167E0,3.023171186E0,6.181974888E0,-6.173320770E0
7.818059428E0,4.537513733E0,5.198349953E0,-3.490143776E0
7.841719636E0,3.549919367E0,-9.955456734E0,1.275386238E1
7.865379896E0,6.939812660E0,-2.621841431E1,-1.639733696E1
7.889040105E0,-3.825033426E0,-1.157404900E0,-7.304324150E0
7.912700365E0,-9.736597538E-1,6.763971329E0,-7.149582386E0
7.936360625E0,4.041222036E-1,6.194174767E0,-5.920477867E0
7.960020834E0,2.928216219E0,-1.794331551E0,-1.893515348E0
7.983681094E0,1.481138349E0,-4.916496277E0,1.540488243E0
8.007341303E0,-1.301447630E0,-1.556410789E0,3.242504597E0
8.031001563E0,-1.553409815E0,-3.716201782E-1,1.175857544E0
8.054661823E0,-1.305791020E0,2.247621536E0,-2.862732649E0
8.078322032E0,-1.125381470E0,4.211839676E0,-2.347912788E0
8.101982292E0,-1.265370846E0,3.164229393E0,6.154343486E-2
8.125642500E0,-1.173179388E0,-3.430347443E-1,2.214470863E0
8.149302761E0,-2.212789953E-1,-1.473339081E0,2.477991104E0
8.172963021E0,7.110363245E-2,-4.575119019E-1,2.545501947E0
8.196623230E0,-1.203345180E0,-2.212448120E-1,1.046370268E0
8.220283490E0,-2.850111961E0,-2.085542679E-1,1.895766020E0
8.243943698E0,-4.512130737E0,-4.880428314E-1,3.485911608E0
8.267603959E0,-5.387739182E0,-3.055857658E0,3.902954817E0
8.291264167E0,-3.757849216E0,-2.250404358E0,4.969777107E0
8.314924428E0,-2.736722946E0,-1.614487648E0,6.062312603E0
8.338584636E0,-3.755502462E0,-3.289910316E0,3.491394520E0
8.362244896E0,-3.595081568E0,-2.911523819E0,4.259763241E0
8.385905105E0,-1.458374977E0,-1.484685898E0,4.631636143E0
8.409565365E0,-3.951898217E-1,-2.177350044E0,-2.675969601E0
8.433225573E0,1.426162004E0,-3.748540878E0,-4.121439934E0
8.456885834E0,1.966601968E0,-5.951213837E0,6.179213524E-1
8.480546042E0,-1.121385574E0,-3.110667229E0,6.863484383E-1
8.504206303E0,-2.570977688E0,8.264255524E-2,-2.009427547E0
8.527866511E0,-1.449347019E0,1.061811447E0,-3.912350655E0
8.551526771E0,1.224504709E0,1.509175301E0,-4.244122028E0
8.575186980E0,2.559350967E0,2.272395134E0,-1.968343735E0
8.598847240E0,2.691267490E0,2.838849068E0,-2.853359699E0
8.622507448E0,3.289347172E0,2.725406647E0,-6.970655441E0
8.646167709E0,3.898783207E0,2.873163700E0,-8.078949928E0
8.669827917E0,3.328329563E0,3.961381435E0,-3.545488358E0
8.693488178E0,4.095582962E0,4.192543983E0,3.674960136E-1
8.717148386E0,9.748166800E-1,2.433188438E0,4.748701096E0
8.740808594E0,-4.233239651E0,-4.602711678E0,8.627000809E0
8.764468855E0,-2.217009306E0,-7.986491203E0,5.097719193E0
8.788129063E0,2.525824070E0,8.577184677E-1,3.721822739E0
8.811789323E0,6.558977127E0,8.227881432E0,3.609344959E-1
8.835449532E0,4.465299129E0,8.963459015E0,-2.122112513E0
8.859109792E0,1.183846116E0,-8.198596954E0,8.629772663E-1
8.882770000E0,4.454068661E0,-2.084688568E1,-1.968201065E1
8.906430209E0,-3.014234304E-1,-3.412865639E0,-5.922554016E0
8.930090469E0,-2.304520845E0,5.936983109E0,-1.471213818E0
8.953750678E0,-8.946896791E-1,1.392276764E0,-3.195228815E0
8.977410886E0,1.729333639E0,-2.953659058E0,-2.632285118E0
9.001071146E0,2.108624220E0,-2.599931717E0,-2.531711102E0
9.024731355E0,5.689231753E-1,-4.095516205E-1,-8.124700785E-1
9.048391615E0,-1.140915394E0,1.120500565E0,-6.896952391E-1
9.072051823E0,-8.290767670E-1,3.503210068E0,-2.668002129E0
9.095712032E0,-1.862090230E-1,4.102453232E0,-2.539520741E0
9.119372292E0,8.248734474E-1,7.681274414E-1,9.752694368E-1
9.143032500E0,8.972523212E-1,-7.192516327E-1,5.387543678E0
9.166692709E0,-6.822620034E-1,4.682779312E-1,2.375169277E0
9.190352969E0,-1.944310904E0,8.318328857E-2,1.927654743E-1
9.214013178E0,-1.720325589E0,-3.570289612E-1,1.646065712E-2
9.237673386E0,-2.493836880E0,3.678379059E-1,3.488778114E0
9.261333594E0,-3.849073887E0,5.920886993E-1,4.888791084E0
9.284993855E0,-4.003476620E0,-2.223904610E0,1.141834140E0
9.308654063E0,-3.721879959E0,-2.738863945E0,1.054719090E0
9.332314271E0,-2.239900827E0,-2.025792122E0,4.386773586E0
9.355974532E0,-3.447041273E0,-6.138147354E0,4.060638428E0
9.379634740E0,-4.208567619E0,-5.013190269E0,1.115581989E0
9.403294948E0,-5.665696859E-1,-1.258226395E0,9.251121521E0
9.426955157E0,5.772260427E-1,-1.329675674E0,2.371922016E0
9.450615417E0,2.735098004E-1,-7.089195251E-1,-4.153779507E0
9.474275625E0,-1.194146276E-1,-1.187404633E0,-5.439463615E0
9.497935834E0,-1.795869708E0,-2.055136681E0,-4.458101749E0
9.521596042E0,-3.694461823E0,-2.057760239E0,-2.806345701E0
9.545256250E0,-3.797818422E0,-1.487148285E0,-5.670745850E0
9.568916511E0,-3.278490782E0,-6.088447571E-2,-3.992511749E0
9.592576719E0,-1.683929801E0,8.860635757E-1,8.644318581E-2
9.616236928E0,5.235164165E-1,1.030182838E0,-3.514773846E-1
9.639897136E0,2.290794849E0,3.227319717E-1,-4.955327988E0
9.663557344E0,3.844143629E0,7.995195389E-1,-9.059350014E0
9.687217553E0,4.834850311E0,2.628274918E0,-5.867116451E0
9.710877761E0,5.656137466E0,2.913487434E0,-1.670086861E0
9.734537969E0,6.201993942E0,1.986356735E0,9.777107239E-1
9.758198230E0,4.391833782E0,-9.605932236E-1,4.563940048E0
9.781858438E0,-3.959316730E0,-3.314601898E0,6.402635574E0
9.805518646E0,-3.168695688E0,-3.028659821E0,3.508324623E-1
9.829178855E0,2.290503502E0,3.928917408E0,9.829869270E-1
9.852839063E0,4.196495056E0,7.896332264E0,1.087127447E0
9.876499271E0,-1.124979854E-1,2.909926891E0,-6.157832623E0
9.900159480E0,-4.214633107E-1,-1.409055424E1,-5.675105572E0
9.923819688E0,4.475737572E0,-1.814146042E1,-5.157651901E0
9.947479896E0,-2.502976656E0,2.096465111E0,1.522857904E0
9.971140105E0,-2.171636581E0,4.603641033E0,-2.736786127E0
9.994800313E0,-3.441387415E-2,4.808703899E0,-7.021582603E0
1.001846052E1,2.975094080E0,1.047895432E0,-8.439245224E0
1.004212073E1,3.066657543E0,5.367498398E-1,-7.250383377E0
1.006578094E1,9.772724509E-1,1.412968636E0,-3.162973642E0
1.008944115E1,9.912294149E-1,5.705165863E-1,3.600289345E0
1.011310136E1,2.225938559E0,6.918029785E-1,3.153831005E0
1.013676156E1,1.794448137E0,-1.095815659E0,1.604437828E0
1.016042172E1,-2.290113211E0,-3.357391357E-1,4.545321465E0
1.018408193E1,-2.008618355E0,-2.451677322E-1,1.273818463E-1
1.020774214E1,-1.090557814E0,-1.339626312E-2,-2.421620131E0
1.023140234E1,-3.711521029E-1,5.905056000E-1,-7.084501386E-1
1.025506255E1,-3.502624631E-1,1.118316650E0,2.917969942E0
1.027872276E1,9.650076628E-1,3.335647583E-1,6.845380306E0
1.030238297E1,-1.015675306E0,-2.358227730E0,1.315764070E0
1.032604312E1,-3.729770660E0,-2.173713684E0,2.318644047E0
1.034970333E1,-4.259882927E0,-1.529679298E0,1.539367080E0
1.037336354E1,-3.081746101E0,-1.406060219E0,5.599104881E0
1.039702375E1,-2.869907856E0,-1.442044258E0,5.562515259E0
1.042068396E1,-2.482798338E0,-2.472511292E0,4.833738804E0
1.044434412E1,-2.863997698E0,-2.783179283E0,4.011553764E0
1.046800432E1,-2.875625849E0,-3.606959343E0,-1.679301620E0
1.049166453E1,-1.486480534E-1,-5.043003082E0,-5.661530018E0
1.051532474E1,2.642013550E0,-6.114293098E0,-6.537589073E0
1.053898490E1,-7.947739363E-1,-2.602079391E0,-3.740814686E0
1.056264511E1,-3.731419563E0,1.167092323E0,-2.821497917E-1
1.058630531E1,-3.678280830E0,3.195343018E-1,-1.334411621E0
1.060996552E1,-1.590243578E-1,-1.662197113E0,1.043042183E0
1.063362568E1,1.642755628E0,-8.488445282E-1,-2.446554184E0
1.065728589E1,1.174577236E0,2.376974106E0,-5.661746979E0
1.068094609E1,2.668527603E0,3.177289009E0,-7.726583004E0
1.070460625E1,5.249725342E0,2.441718102E0,-7.635846138E0
1.072826646E1,5.299479485E0,2.733284950E0,-5.249111176E0
1.075192667E1,5.452717781E0,3.136816025E0,-4.619071007E0
1.077558682E1,5.980534077E0,3.307270050E0,-1.614840984E0
1.079924703E1,6.450587273E0,2.023750305E0,4.122805595E0
1.082290724E1,1.019024849E0,-3.125643730E0,7.390571594E0
1.084656740E1,-2.779055119E0,-4.264993668E0,2.834940195E0
1.087022760E1,-2.193088293E0,-6.395244598E-1,4.553253651E-1
1.089388776E1,6.761621237E-1,3.997035980E0,1.064934731E-1
1.091754797E1,1.869806647E0,-6.561774254E0,7.785649300E-1
1.094120818E1,2.997316122E0,-1.739152527E1,-1.820480347E0
1.096486833E1,-2.099758387E0,-6.715783119E0,-4.287761211E0
1.098852854E1,-2.257937193E0,4.098182678E0,-7.736533165E0
1.101218870E1,-6.913890839E-1,8.397047997E0,-7.369459629E0
1.103584891E1,6.034320593E-1,9.019285202E0,-4.692634106E0
1.105950906E1,1.858020306E0,5.698763371E0,-1.275852919E0
1.108316927E1,2.797948122E0,1.145830154E-1,1.360594749E0
1.110682948E1,4.996238232E0,-5.327186584E0,5.032193661E-1
1.113048964E1,1.786279440E0,-4.916690826E0,3.098461866E0
1.115414984E1,-1.435467720E0,1.199597359E0,2.639042854E0
1.117781000E1,-1.909742951E0,2.541993141E0,-4.626610279E0
1.120147021E1,-2.020627499E0,1.664569855E0,-4.422346592E0
1.122513036E1,-1.537816048E0,4.775352478E-1,-1.745250821E0
1.124879057E1,-4.768274426E-1,-2.107372284E-1,2.090712488E-1
1.127245073E1,-3.268834352E-1,-4.977035522E-2,7.018648148E0
1.129611094E1,4.492237270E-1,-7.468290329E-1,3.688484192E0
1.131977109E1,-1.356441736E0,-1.224623680E0,-4.711686611E0
1.134343130E1,-2.634182453E0,-1.027394295E0,3.595796108E0
1.136709146E1,-1.833034754E0,-9.882879257E-1,4.532236099E0
1.139075167E1,-2.606008768E0,-6.518621445E-1,1.708468080E0
1.141441182E1,-3.452858925E0,-4.401369095E-1,4.536994457E0
1.143807203E1,-4.268174648E0,-1.495601654E0,1.601543427E0
1.146173219E1,-5.363379478E0,-3.305792809E0,3.121242285E0
1.148539240E1,-3.455521107E0,-3.112275124E0,4.097399235E0
1.150905255E1,-1.383873582E0,-1.856911659E0,2.846391201E0
1.153271276E1,1.582704782E0,-3.060818672E0,-2.684153557E0
1.155637292E1,4.367032051E0,-4.095650673E0,-4.251564503E0
1.158003312E1,4.262370110E0,-3.938027382E0,-2.683287859E0
1.160369328E1,8.603433967E-1,-1.127719879E-1,1.879076958E-1
1.162735349E1,-7.252318859E-1,1.706936359E0,6.375660896E-1
1.165101365E1,5.277374983E-1,-8.899402618E-2,-5.247988701E0
1.167467380E1,1.459952354E0,-1.978618622E0,-5.692646503E0
1.169833401E1,3.190550804E-1,-5.545425415E-1,-2.537760258E0
1.172199417E1,1.252846122E0,7.124557495E-1,-2.010275841E0
1.174565438E1,3.174645424E0,2.130147934E0,-4.887724876E0
1.176931453E1,4.406130791E0,3.328127384E0,-5.524118900E0
1.179297474E1,3.824637890E0,4.402142525E0,-3.848335981E0
1.181663490E1,4.047946453E0,4.558948994E0,-3.220500231E0
1.184029511E1,4.855535984E0,2.720151901E0,-1.747013330E0
1.186395526E1,4.252578735E0,-1.481788635E0,4.005261421E0
1.188761542E1,1.394354105E0,-4.413061142E0,5.628212929E0
1.191127562E1,-1.871980429E0,-2.459596634E0,5.607138157E0
1.193493578E1,-2.149242401E0,2.601187706E0,3.388555288E0
1.195859599E1,-9.741699696E-1,5.537192345E0,-2.740130424E0
1.198225615E1,2.092087746E0,-1.510397911E0,-4.401817799E0
1.200591636E1,5.055241585E0,-1.624012375E1,-2.730250359E0
1.202957651E1,2.128376663E-1,-1.645372772E1,3.878648996E0
1.205323667E1,-4.941056728E0,3.374646664E0,-5.340802193E0
1.207689688E1,-1.503022671E0,7.619351387E0,-7.922234535E0
1.210055703E1,2.792417705E-1,8.922575951E0,-6.117845535E0
1.212421724E1,2.309627056E0,6.107640743E0,-3.092459917E0
1.214787740E1,3.251947165E0,9.774026871E-1,6.175799370E-1
1.217153761E1,3.594756126E0,-3.195076942E0,-8.366564512E-1
1.219519776E1,2.606450915E-1,-6.793605804E0,2.238630533E0
1.221885792E1,-4.891378880E0,-1.703405380E-1,1.192833042E1
1.224251812E1,-2.917021751E0,2.126360416E0,-9.639414549E-1
1.226617828E1,-1.004727006E0,2.047039986E0,-6.242865562E0
1.228983849E1,-5.421602726E-1,1.574271202E0,-2.781946659E0
1.231349865E1,2.053532302E-1,3.980569839E-1,-1.620666742E0
1.233715880E1,7.011912763E-2,-1.224966049E-1,-3.381962180E-1
1.236081901E1,3.789840937E-1,-1.543512344E-1,4.736324310E0
1.238447917E1,1.966344595E0,-1.300537109E0,8.168332577E-1
1.240813938E1,4.349265099E-1,-7.207317352E-1,-1.177149773E0
1.243179953E1,-1.352107048E0,-7.297487259E-1,6.215201855E0
1.245545969E1,-3.327031612E0,-2.203802109E0,2.699956894E0
1.247911990E1,-5.383592606E0,-1.989933014E0,2.463258266E0
1.250278005E1,-6.437663078E0,-1.056576729E0,2.978525877E0
1.252644026E1,-6.660918713E0,-1.110228539E0,2.488231659E0
1.255010042E1,-5.630959034E0,-3.208259583E0,2.836919069E0
1.257376057E1,-8.658275604E-1,-3.304940224E0,4.234541893E0
1.259742078E1,2.035233736E0,-2.885621071E0,3.003940582E0
1.262108094E1,3.261062145E0,-3.065025330E0,-2.005298615E0
1.264474115E1,4.133548260E0,-3.734423637E0,-3.877577782E0
1.266840130E1,3.673120022E0,-3.094479561E0,-3.358333111E-1
1.269206146E1,1.518335700E0,-1.642980576E0,1.793863535E0
1.271572167E1,8.634458184E-1,-1.615247726E-1,-4.561426163E0
1.273938182E1,1.354463696E-1,1.414148331E0,-5.705006599E0
1.276304198E1,1.237561822E0,2.622879982E0,-1.058325052E0
1.278670219E1,1.699423790E0,2.522864819E0,-5.799717903E-1
1.281036234E1,2.682967424E0,1.550592422E0,-4.600422382E0
1.283402255E1,2.639780283E0,2.019255638E0,-6.790842056E0
1.285768271E1,3.204081774E0,3.297047138E0,-4.806030273E0
1.288134286E1,2.578532696E0,4.472464561E0,-3.150938034E0
1.290500307E1,2.863564491E0,4.131876945E0,-1.983372688E0
1.292866323E1,3.320624590E0,1.972376823E0,1.942446947E0
1.295232339E1,3.891219616E0,-1.869961739E0,4.195035934E0
1.297598359E1,3.068497658E0,-4.008670807E0,7.284116268E0
1.299964375E1,1.297798634E0,-2.051643372E0,6.882575989E0
1.302330391E1,4.888695180E-1,3.533768654E0,1.798518419E0
1.304696412E1,-5.374160409E-1,-7.175521851E-1,-2.625922203E0
1.307062427E1,3.764610291E0,-1.129379845E1,-2.819233656E0
1.309428443E1,1.233351707E0,-1.467688465E1,-9.964733124E-1
1.311794464E1,-4.582012653E0,5.493927002E-2,-2.568205118E0
1.314160479E1,-2.743878663E-1,2.958028793E0,-1.089948082E1
1.316526495E1,1.138010383E0,5.268835068E0,-1.077664185E1
1.318892516E1,2.278022051E0,5.145931244E0,-6.418006897E0
1.321258531E1,3.772963524E0,1.585431099E0,-2.076479435E0
1.323624547E1,2.688780546E0,3.779125214E-1,-1.587424874E-1
1.325990568E1,3.790671825E0,-4.677585602E0,1.336115456E1
1.328356583E1,-2.748882771E0,-1.235766411E0,1.748077011E1
1.330722604E1,5.711505413E-1,8.219451904E-1,-2.033574820E0
1.333088620E1,3.800486624E-1,7.810306549E-1,-1.113380432E1
1.335454636E1,-2.148741961E0,1.350473404E0,-3.548937559E0
1.337820656E1,-1.173281908E0,1.424996376E0,-9.280696511E-1
1.340186672E1,5.750055909E-1,7.918624878E-1,1.261491179E0
1.342552688E1,1.001774788E0,7.700729370E-2,3.052665472E0
1.344918703E1,-2.244191766E-1,4.586925507E-1,3.723846912E0
1.347284724E1,-3.498567104E0,7.991132736E-1,6.099239349E0
1.349650740E1,-3.527204037E0,-4.650840759E-1,-3.022894859E0
1.352016755E1,-2.566388130E0,-2.544792175E0,-7.802088857E-1
1.354382776E1,-3.474835157E0,-3.010404587E0,4.418247223E0
1.356748792E1,-3.489614487E0,-2.766322136E0,2.537590504E0
1.359114807E1,-4.732632637E0,-1.958202362E0,3.309539318E0
1.361480828E1,-5.039679050E0,-5.707339287E0,3.459887028E0
1.363846844E1,-2.346042156E0,-3.563491821E0,4.871331692E0
1.366212859E1,1.196177125E0,-1.025093079E0,1.251384258E1
1.368578880E1,1.091086030E0,-2.676401138E-1,2.176344633E0
1.370944896E1,1.257927179E0,-1.284112930E-1,-5.073869705E0
1.373310912E1,2.375304461E0,-3.295511246E0,-4.490680695E0
1.375676927E1,1.461047173E0,-5.546849251E0,-3.633234501E0
1.378042948E1,-3.258725405E0,-2.559937477E0,3.025327921E0
1.380408964E1,-2.732908964E0,8.349981308E-1,-2.133819342E0
1.382774979E1,-7.919452190E-1,1.567067146E0,-4.010159969E0
1.385141000E1,4.563456774E-1,1.755823135E0,-2.596816301E0
1.387507016E1,1.400082588E0,1.454637527E0,-1.548829794E0
1.389873031E1,3.260733366E0,1.033434868E0,-1.709892035E0
1.392239047E1,5.045388699E0,1.375500679E0,-6.089534283E0
1.394605068E1,4.581196308E0,3.743191719E0,-7.575651646E0
1.396971083E1,3.292807102E0,5.707651615E0,-3.412775278E0
1.399337099E1,4.414832115E0,5.158411026E0,-2.100710869E-1
1.401703115E1,4.033178329E0,2.139290810E0,2.993808031E0
1.404069136E1,-2.318023682E0,-3.911903381E0,6.840169907E0
1.406435151E1,-2.428245783E0,-4.688446999E0,3.428054810E0
1.408801167E1,1.529897213E0,-1.146722794E0,5.826704979E0
1.411167182E1,3.261625767E0,5.593962193E0,4.443099976E0
1.413533203E1,-1.458432674E-1,5.224485397E-1,-4.109375000E0
1.415899219E1,3.064354658E0,-1.439060593E1,-5.091121197E0
1.418265234E1,1.532880306E0,-1.553222561E1,-7.307621002E0
1.420631255E1,-3.112939835E0,3.149328709E0,-5.084797859E0
1.422997271E1,-3.936207891E-1,6.282864094E0,-7.747316360E0
1.425363286E1,1.402274609E0,5.769301414E0,-6.592056274E0
1.427729302E1,3.333045959E0,1.147253990E0,-3.949870110E0
1.430095323E1,3.824283123E0,-7.520647049E-1,-2.349697113E0
1.432461339E1,5.148442268E0,-1.887035370E0,9.126730919E0
1.434827354E1,2.742380142E0,-3.324041367E-1,1.139858961E0
1.437193370E1,9.657065868E-1,1.413174629E0,-5.413838863E0
1.439559391E1,-1.886477351E0,1.197593689E0,-4.706754684E0
1.441925406E1,-2.953262806E0,3.736181259E-1,2.854959249E0
1.444291422E1,-2.128555059E0,1.407527924E-2,5.381538868E0
1.446657438E1,-6.236580610E-1,-6.869220734E-2,2.776484251E0
1.449023458E1,-9.539397955E-1,4.370689392E-1,1.828810215E0
1.451389474E1,-2.417712688E0,1.090730667E0,2.257812023E0
1.453755490E1,-3.929204226E0,1.208659172E0,5.944704413E-1
1.456121505E1,-3.159581661E0,7.523536682E-2,-2.130055904E0
1.458487521E1,-9.411741495E-1,-2.893892288E0,1.087715745E0
1.460853542E1,3.835660815E-1,-4.348100662E0,4.870501041E0
1.463219557E1,-2.614184141E0,-2.098160744E0,2.154300213E0
1.465585573E1,-4.734982491E0,-1.003591537E0,4.011417389E0
1.467951589E1,-3.913450718E0,-1.515851974E0,6.991110802E0
1.470317609E1,-3.326904535E0,-2.955769539E0,5.221671104E0
1.472683625E1,-2.330956221E0,-2.921653748E0,6.150883198E0
1.475049641E1,-1.254203796E0,-2.620085716E0,1.297528744E0
1.477415656E1,8.172658086E-1,-3.734808922E0,-2.893724442E0
1.479781677E1,3.134722948E0,-5.381326675E0,-4.395370007E0
1.482147693E1,1.974431992E0,-5.130581856E0,1.772339344E-1
1.484513708E1,-1.598071814E0,-1.482479095E0,9.454638958E-1
1.486879724E1,-2.257173538E0,1.776450157E0,-9.588418007E-1
1.489245740E1,-1.170776725E0,2.587474823E0,-3.874670029E0
1.491611760E1,1.117020249E0,1.927994728E0,-3.460461140E0
1.493977776E1,2.275316954E0,2.208359241E0,-1.859046698E0
1.496343792E1,2.069850445E0,2.345339298E0,-3.379083157E0
1.498709807E1,3.568212271E0,2.306901932E0,-8.002926826E0
1.501075823E1,4.697578430E0,3.380530357E0,-6.499042988E0
1.503441844E1,4.142086983E0,4.043640137E0,-2.412812710E0
1.505807859E1,4.160029888E0,3.436968803E0,-7.387533188E-1
1.508173875E1,2.653223038E0,1.601322174E0,2.705770969E0
1.510539891E1,-2.610422373E-1,-2.966014862E0,6.880302906E0
1.512905906E1,-8.250952959E-1,-4.606595039E0,6.363428593E0
1.515271922E1,-1.024014473E0,-1.670409203E0,4.090650558E0
1.517637943E1,2.207300067E-1,4.499266624E0,6.014773846E-1
1.520003958E1,3.176272392E0,3.853167057E0,-3.454943657E0
1.522369974E1,3.728998661E0,-1.125854492E0,-2.821753025E-1
1.524735990E1,1.424395680E0,-1.127580643E1,-2.935053587E0
1.527102005E1,2.457671165E0,-1.304598999E1,-5.149940968E0
1.529468026E1,-2.630771399E0,4.240552902E0,-2.456747055E0
1.531834042E1,3.215478361E-2,5.774424553E0,-6.255447388E0
1.534200057E1,2.178811550E0,3.110950470E0,-6.303437233E0
1.536566073E1,4.691380024E0,-2.518459320E0,-3.843409538E0
1.538932089E1,3.324869156E0,-1.920605659E0,-3.538516283E0
1.541298104E1,-5.605036020E-2,1.126312256E0,2.448040247E-1
1.543664125E1,-8.999810219E-1,-2.122373581E-1,3.727076292E0
1.546030141E1,-2.459154278E-1,1.734825134E0,-9.127576351E-1
1.548396156E1,-6.235699654E-1,2.440625191E0,-4.362996101E0
1.550762172E1,-1.683898568E0,8.425722122E-1,1.971401274E-1
1.553128188E1,-1.799715281E0,2.559165955E-1,5.750058651E0
1.555494208E1,-3.037572801E-1,4.583063126E-1,9.014832497E0
1.557860224E1,-8.647189140E-1,1.800775528E-1,1.347570658E0
1.560226240E1,-1.876818657E0,-2.499370575E-1,-1.990536928E0
1.562592255E1,-2.478976250E0,-4.020843506E-1,2.237515688E0
1.564958271E1,-1.892647505E0,-1.871155739E0,3.942818165E0
1.567324286E1,-3.907411337E0,-4.114171028E0,8.876698017E-1
1.569690307E1,-5.707361221E0,-2.647941589E0,2.956168175E0
1.572056323E1,-4.238327026E0,-1.681134224E0,6.885343552E0
1.574422339E1,-3.503634691E0,-2.435647011E0,3.785961151E0
1.576788354E1,-1.656571746E0,-3.534576416E0,7.370599270E0
1.579154370E1,-6.848166585E-1,-2.680541992E0,5.026155472E0
1.581520386E1,-5.062952042E-1,-2.031785965E0,-2.506825924E0
1.583886406E1,1.518836141E0,-3.173013687E0,-5.966237068E0
1.586252422E1,3.403369427E0,-5.954313278E0,-2.699602842E-1
1.588618438E1,2.820850134E0,-4.870966911E0,3.607363939E0
1.590984453E1,-5.761467218E-1,-6.401920319E-2,-1.664088368E0
1.593350469E1,-5.231842995E-1,2.336359978E0,-6.546912670E0
1.595716490E1,4.327446818E-1,3.174715042E0,-5.072145939E0
1.598082505E1,1.246192455E0,3.644485474E0,-1.260516405E0
1.600448521E1,1.099967003E0,3.145334721E0,2.606329918E-1
1.602814536E1,1.829124808E0,1.437762260E0,-4.595335960E0
1.605180552E1,3.939405680E0,4.082250595E-1,-8.737021446E0
1.607546573E1,4.257808208E0,2.560303688E0,-3.146144152E0
1.609912589E1,3.410102606E0,3.648569107E0,-7.167468071E-1
1.612278604E1,1.206660867E0,1.654063702E0,1.975603580E0
1.614644620E1,-5.254484415E-1,-1.881114006E0,2.957139492E0
1.617010636E1,1.223897934E-1,-1.813314438E0,7.338737011E0
1.619376651E1,2.599068165E0,1.785727501E0,2.419259071E0
1.621742672E1,2.846168041E0,3.802657127E0,3.936624527E-1
1.624108688E1,1.603122711E0,2.839396477E0,3.489792585E0
1.626474703E1,-2.205225229E0,1.502004623E0,-2.838933945E0
1.628840719E1,4.734761715E0,-1.111137199E1,-7.949260712E0
1.631206740E1,6.906435490E0,-1.921886063E1,-5.491096497E0
1.633572755E1,-2.423613071E0,1.335804939E0,-2.733392715E0
1.635938771E1,-1.786068678E0,6.062665939E0,-1.018993950E1
1.638304786E1,1.342680454E0,3.631568909E0,-6.787678242E0
1.640670802E1,3.963013649E0,-1.439174652E0,-3.722658396E0
1.643036823E1,3.259845972E0,-1.733839035E0,2.798206806E-1
1.645402839E1,1.135687232E0,-2.980384827E-1,6.624808788E0
1.647768854E1,-2.222799301E0,2.687292099E-1,1.921248436E-2
1.650134870E1,-2.027482986E0,2.376057625E0,-4.863852978E0
1.652500886E1,-1.156181812E0,1.676861763E0,-5.035761356E0
1.654866906E1,-2.057516575E0,-1.101121902E-1,5.958540440E-1
1.657232922E1,-3.863644600E0,-3.914022446E-1,4.234898567E0
1.659598938E1,-3.116416216E0,7.308263779E-1,5.322422028E0
1.661964953E1,-1.541532993E0,6.831855774E-1,3.843111277E0
1.664330969E1,-1.555836797E-1,3.746118546E-1,2.114263535E0
1.666696990E1,5.804020762E-1,-1.892600060E0,5.208156109E-1
1.669063005E1,-9.395362735E-1,-2.926078796E0,9.295743704E-1
1.671429021E1,-3.768830776E0,-1.741534233E0,4.111791611E0
1.673795036E1,-5.178550720E0,-1.974014282E0,2.773617744E0
1.676161057E1,-4.804701328E0,-1.531558037E0,4.622745037E0
1.678527073E1,-4.001192093E0,-5.431652069E-1,5.930622101E0
1.680893089E1,-3.458231449E0,3.453063965E-2,5.728174686E0
1.683259104E1,-3.138142109E0,-1.103412628E0,3.108657837E0
1.685625125E1,-3.330848217E0,-2.928992271E0,7.835960388E-2
1.687991141E1,-2.269087583E-1,-6.987730980E0,-3.374608040E0
1.690357156E1,4.200433731E0,-1.122389889E1,-2.965380430E0
1.692723177E1,2.906013250E0,-4.725524902E0,-8.150196075E-2
1.695089193E1,-2.029951096E0,3.045384884E0,1.397440672E0
1.697455208E1,-2.895977974E0,3.321734428E0,-2.877829075E0
1.699821224E1,-9.967720509E-2,1.896028519E-1,-5.251020432E0
1.702187245E1,3.770789146E0,-1.093244553E0,-1.911240578E0
1.704553261E1,4.004668713E0,4.833507538E-1,-2.465402842E0
1.706919276E1,2.995907784E0,9.158849716E-1,-4.720908165E0
1.709285292E1,2.799390316E0,2.789244652E0,-5.411333084E0
1.711651312E1,4.871484756E0,3.779109955E0,-5.284468651E0
1.714017328E1,6.204639912E0,4.243930340E0,-3.387817621E0
1.716383344E1,5.804831505E0,4.413281918E0,-4.890787601E-1
1.718749365E1,3.993679047E0,2.381728172E0,3.529062271E0
1.721115380E1,1.151495695E0,-2.396571159E0,6.954025745E0
1.723481396E1,-1.921827078E0,-4.691855431E0,5.298458576E0
1.725847412E1,-7.946287394E-1,1.067132950E-1,4.308905125E0
1.728213432E1,2.997709274E0,2.733023643E0,9.093804359E-1
1.730579448E1,1.841226339E0,4.428721428E0,-9.264225960E-1
1.732945464E1,-1.785133034E-1,4.256488800E0,-5.132180214E0
1.735311479E1,-3.383192062E0,1.595435143E0,-8.981160164E0
1.737677500E1,1.238857865E0,-1.012248039E1,-4.280046940E0
1.740043516E1,3.399896860E0,-1.964031601E1,3.232858181E0
1.742409531E1,-3.874039888E0,-4.797143936E-1,1.153991938E0
1.744775552E1,-4.476913214E-1,5.113884449E0,-5.288347721E0
1.747141568E1,1.300323248E0,5.909127235E0,-6.980606079E0
1.749507583E1,3.322708368E0,2.924072266E0,-5.165667534E0
1.751873604E1,4.303747177E0,-4.898290634E-1,-2.723831654E0
1.754239620E1,3.432514668E0,-1.337451935E0,3.480669498E0
1.756605636E1,4.528332353E-1,2.061738968E-1,2.125233412E0
1.758971651E1,-9.162243605E-1,1.635419846E0,-1.094626427E0
1.761337672E1,-1.765991449E0,1.068333626E0,-2.682817221E0
1.763703688E1,-1.835821867E0,-1.329984665E-1,1.744182229E0
1.766069703E1,-2.169852734E0,-2.048654556E-1,5.511587620E0
1.768435724E1,-1.216556191E0,6.255922318E-1,2.804115772E0
1.770801740E1,-9.888841510E-1,1.357644081E0,8.875653744E-1
1.773167755E1,-2.202843666E0,4.017877579E-1,3.311961412E0
1.775533776E1,-2.195643663E0,-2.532152176E0,2.192293167E0
1.777899792E1,-2.125026703E0,-3.064435959E0,-2.780247927E-1
1.780265807E1,-3.369208574E0,-1.623789787E0,3.188765049E0
1.782631828E1,-3.504176617E0,-1.955922127E0,3.744874001E0
1.784997844E1,-3.466275215E0,-1.848538399E0,6.635195255E0
1.787363859E1,-2.961851597E0,-1.364284515E0,8.834975243E0
1.789729880E1,-3.736805201E0,-3.988716125E0,6.694543839E0
1.792095896E1,-3.037962437E0,-3.205752373E0,8.387341499E-1
1.794461912E1,-1.355196834E0,-3.175324440E0,-4.479766846E0
1.796827932E1,1.784329534E0,-5.242559433E0,-2.706932068E0
1.799193948E1,4.024741173E0,-7.609325409E0,3.429559231E0
1.801559969E1,1.368145943E0,-3.981293678E0,-5.734906197E-1
1.803925984E1,-1.657591581E0,6.653966904E-1,-4.503749371E0
1.806292000E1,-2.559047222E0,2.702362537E0,-4.193642139E0
1.808658021E1,-6.557260752E-1,2.811462402E0,-4.242010117E0
1.811024037E1,2.235697269E0,2.670828819E0,-2.438874006E0
1.813390052E1,2.754463196E0,3.055079460E0,-2.078439236E0
1.815756073E1,2.468206167E0,3.452095509E0,-6.559434891E0
1.818122089E1,3.229005814E0,3.447563648E0,-8.542532921E0
1.820488104E1,3.449209213E0,3.394680977E0,-4.690033913E0
1.822854125E1,4.299820423E0,3.388689518E0,-9.796383381E-1
1.825220141E1,3.842757940E0,1.613571167E0,4.014079094E0
1.827586156E1,-1.341965079E0,-5.144042015E0,1.164623451E1
1.829952177E1,-4.687860489E0,-6.342350006E0,7.429011345E0
1.832318193E1,8.175271153E-1,2.545900345E-1,4.759887695E0
1.834684214E1,4.800762653E0,5.132157326E0,-1.237159252E0
1.837050229E1,1.916910648E0,6.869261742E0,-1.427659273E0
1.839416245E1,-2.156923860E-1,7.172109127E0,-3.495982885E0
1.841782266E1,5.937507153E-1,3.588431835E0,-8.080671310E0
1.844148281E1,3.818939209E0,-1.899582672E1,2.085464716E0
1.846514302E1,2.543576479E0,-1.846379089E1,-1.147796440E1
1.848880318E1,-2.997036457E0,2.896558762E0,-5.930024147E0
1.851246333E1,-3.852895498E-1,5.962127209E0,-6.659986496E0
1.853612354E1,2.705802202E0,2.177506924E0,-6.172210693E0
1.855978370E1,5.301445961E0,-4.095108032E0,-3.585230589E0
1.858344391E1,1.368790269E0,-1.772896767E0,2.786886454E0
1.860710406E1,-5.246095657E-1,-6.628236771E-1,2.045044899E0
1.863076422E1,-1.029991806E-1,8.363828659E-1,-1.641076446E0
1.865442443E1,3.324052691E-1,2.442947388E0,-2.917536736E0
1.867808458E1,-1.523381472E-1,4.172599792E0,-1.174472690E0
1.870174479E1,-6.643821597E-1,1.129351616E0,3.265484095E0
1.872540495E1,-1.420475960E0,-7.704706192E-1,3.715075254E0
1.874906510E1,-1.531573296E0,-2.150402069E-1,3.020423889E0
1.877272531E1,-1.464058638E0,1.031442642E0,2.892678261E0
1.879638547E1,-1.396805763E0,6.150159836E-1,9.599704146E-1
1.882004568E1,-2.727277994E0,-1.224890709E0,1.541230917E0
1.884370583E1,-4.110438347E0,-3.016527176E0,2.048396111E0
1.886736604E1,-5.357742310E0,-3.287676811E0,2.586637497E0
1.889102620E1,-4.931280613E0,-2.024508476E0,4.631907940E0
1.891468636E1,-3.819071054E0,-2.847542763E0,4.515313148E0
1.893834656E1,-3.744951725E0,-3.423994064E0,3.685557365E0
1.896200672E1,-2.359504938E0,-3.708289146E0,6.229769707E0
1.898566693E1,-6.143748760E-1,-2.824256897E0,6.747834682E0
1.900932708E1,-6.048852205E-1,-2.732577324E0,-2.757268667E0
1.903298724E1,1.969751954E0,-3.749627113E0,-5.485428810E0
1.905664745E1,3.097759008E0,-4.659296989E0,-6.668742895E-1
1.908030760E1,1.227407455E0,-2.415222168E0,3.820251703E0
1.910396781E1,-5.045888424E-1,4.608736038E-1,-3.121551514E0
1.912762797E1,-6.178098321E-1,2.011134624E0,-7.095510483E0
1.915128818E1,-1.031924486E0,2.940527439E0,-4.685767651E0
1.917494833E1,-8.110219240E-1,3.542007923E0,-1.362340808E0
1.919860849E1,4.085139036E-1,3.705810547E0,-9.863927364E-1
1.922226870E1,1.907829523E0,2.520264149E0,-4.151149750E0
1.924592886E1,3.100262165E0,1.200981140E0,-8.313378334E0
1.926958901E1,2.286038876E0,2.312044144E0,-5.197200775E0
1.929324922E1,3.420703411E0,2.964588642E0,-1.778656125E0
1.931690938E1,3.977749109E0,1.066670418E0,2.788393497E0
1.934056958E1,8.305064440E-1,-3.636109352E0,6.873577118E0
1.936422974E1,-1.549166203E0,-5.120962143E0,6.741377831E0
1.938788995E1,1.642213225E0,7.393760681E-1,3.663963556E0
1.941155010E1,3.420834303E0,7.124512672E0,8.102543354E-1
1.943521026E1,3.774776936E0,6.022073746E0,8.670864105E-1
1.945887047E1,1.215224981E0,-1.200070381E0,1.587822676E0
1.948253063E1,5.592125893E0,-2.114146423E1,-5.141044617E0
1.950619083E1,3.555114269E-1,-1.317886448E1,-9.487676620E0
1.952985099E1,-3.022012711E0,5.378993034E0,-6.606089592E0
1.955351120E1,-1.199125051E0,8.654982567E0,-6.866569519E0
1.957717136E1,1.331057549E0,5.174771309E0,-4.852752209E0
1.960083151E1,4.741047382E0,-2.491073608E0,-2.673060417E0
1.962449172E1,6.541581631E0,-3.808033943E0,6.420545578E0
1.964815188E1,2.070625782E0,-2.368434906E0,2.963268757E0
1.967181203E1,-1.391298413E0,-3.570461273E-2,-3.275899172E0
1.969547224E1,-1.584194422E0,3.463814735E0,-6.763120651E0
1.971913240E1,-2.050980568E0,3.224493027E0,-4.924828529E0
1.974279260E1,-2.559104919E0,3.531513214E-1,1.784088850E0
1.976645276E1,-3.295557261E0,-9.172906876E-1,5.858948708E0
1.979011292E1,-2.616548538E0,-4.993600845E-1,5.631808758E0
1.981377312E1,-1.164885998E0,6.698379517E-1,2.719756603E0
1.983743328E1,-5.140788555E-1,9.562883377E-1,2.955858409E-1
1.986109349E1,-1.162189722E0,-1.313934326E-1,1.712992430E0
1.988475365E1,-2.843431234E0,-1.953375816E0,2.567820311E0
1.990841380E1,-2.618087769E0,-2.530273438E0,1.880189180E0
1.993207401E1,-2.870735168E0,-1.704233170E0,2.997441769E0
1.995573417E1,-3.844103098E0,-1.849114418E0,4.226163864E0
1.997939438E1,-3.150281668E0,-1.906287193E0,6.135721207E0
2.000305453E1,-3.552782297E0,-3.567473412E0,4.623790741E0
2.002671469E1,-1.214013100E0,-2.408852577E0,7.186915398E0
2.005037490E1,-1.619759321E0,-1.882146835E0,1.211973190E0
2.007403505E1,4.789002836E-1,-3.197855949E0,-4.107360840E0
2.009769521E1,3.201082230E0,-6.039372444E0,-1.890551090E0
2.012135542E1,2.652688742E0,-6.049798965E0,3.442215919E0
2.014501557E1,-4.959394336E-1,-1.077509880E0,-3.307278156E-1
2.016867573E1,-1.197070479E0,1.866781235E0,-5.559326649E0
2.019233594E1,-9.193006754E-1,3.211244106E0,-6.695612907E0
2.021599609E1,8.017969131E-1,3.654102325E0,-2.647989273E0
2.023965630E1,1.617088079E0,4.158018112E0,8.782401085E-1
2.026331646E1,1.247586131E0,3.507118225E0,-2.689351082E0
2.028697662E1,1.884144545E0,1.887641430E0,-8.394925117E0
2.031063682E1,2.677154541E0,1.036235809E0,-6.583063602E0
2.033429698E1,2.999632359E0,2.030183792E0,-1.196206331E0
2.035795714E1,1.892998815E0,1.673958778E0,4.174870491E0
2.038161734E1,-1.679101229E0,-1.345085144E0,4.251650810E0
2.040527750E1,-3.852902651E-1,-4.197379112E0,4.348307610E0
2.042893766E1,1.918855429E0,7.670955658E-1,5.901288033E0
2.045259786E1,4.620701790E0,3.310603142E0,3.483595371E0
2.047625802E1,3.509852886E0,8.681888580E-1,5.751953125E0
2.049991818E1,1.702187181E0,-6.253121376E0,-6.144184589E0
2.052357839E1,5.841244698E0,-5.058338165E0,-1.508906364E1
2.054723854E1,1.849582911E0,3.392682076E0,-5.463502884E0
2.057089870E1,2.388952971E-1,2.914161682E0,-7.649691105E0
2.059455891E1,2.410473108E0,-3.551572800E0,-4.357226372E0
2.061821906E1,1.737511635E0,-7.381614685E0,2.329928875E0
2.064187922E1,-1.057868719E0,-3.398147583E0,2.722792625E-1
2.066553943E1,-1.946630955E0,2.125558853E-1,-3.026995659E-1
2.068919958E1,-1.128970861E0,1.268754005E0,-1.397630811E0
2.071285974E1,-1.053595901E0,1.682521820E0,-2.700602055E0
2.073651995E1,-6.021375656E-1,2.669962883E0,-2.560665607E0
2.076018010E1,-1.585834622E0,2.821197510E0,-8.584508896E-1
2.078384026E1,-5.075982213E-1,6.511344910E-1,4.760136127E0
2.080750047E1,-1.168095708E0,-1.512923241E0,4.759622097E0
2.083116063E1,-2.449880838E0,-7.396097183E-1,2.502799511E0
2.085482078E1,-2.329605103E0,1.506738663E-1,5.550020933E-1
2.087848094E1,-1.929341555E0,7.491111755E-2,1.511950731E0
2.090214115E1,-2.463933468E0,-2.791519165E-1,4.003424644E0
2.092580130E1,-4.519989014E0,-2.148145676E0,3.889052868E0
2.094946146E1,-4.176751614E0,-2.328191757E0,2.897328377E0
2.097312167E1,-2.903357029E0,-8.820333481E-1,7.095407486E0
2.099678182E1,-2.671643257E0,-7.757463455E-1,7.006686211E0
2.102044198E1,-2.559156418E0,-1.324202538E0,3.899247885E0
2.104410214E1,-5.340039730E0,-2.968776703E0,2.334520817E0
2.106776234E1,-3.969607353E0,-3.608458519E0,-1.364991903E0
2.109142250E1,1.208850518E-1,-8.688605309E0,-3.862094402E0
2.111508266E1,3.567445993E0,-1.125249863E1,1.275819540E-1
2.113874286E1,2.029834270E0,-2.434989929E0,1.730463266E0
2.116240302E1,2.457785010E-1,2.173959732E0,-1.230631113E0
2.118606318E1,8.706405759E-2,3.049668312E0,-5.265841484E0
2.120972333E1,1.727531195E0,2.762332916E0,-3.283746958E0
2.123338349E1,2.732083797E0,2.837913036E0,-6.284945011E-1
2.125704370E1,1.432344556E0,3.509510994E0,-7.078359127E-1
2.128070386E1,1.660639882E0,2.498430252E0,-4.112343788E0
2.130436401E1,3.468172550E0,1.094985962E0,-8.863145828E0
2.132802422E1,4.229930878E0,1.112121582E0,-6.625793457E0
2.135168438E1,3.921196461E0,2.484760284E0,-2.543164253E0
2.137534453E1,4.045561790E0,2.127301216E0,2.567396641E0
2.139900469E1,1.142476678E0,-2.889251709E-1,6.116155624E0
2.142266484E1,-2.356899977E0,-3.282008171E0,4.873161793E0
2.144632505E1,5.715864301E-1,-2.182342529E0,5.059412956E0
2.146998521E1,3.188724518E0,3.180630684E0,2.667873621E0
2.149364537E1,4.606307507E0,5.795510292E0,1.722965956E0
2.151730552E1,2.130252123E0,2.045752525E0,3.135082960E0
2.154096573E1,-6.396164894E-1,-1.262959576E1,-8.165858269E0
2.156462589E1,1.433861017E0,-9.624530792E0,-1.414323902E1
2.158828604E1,1.696525574E0,5.103196144E0,2.647732258E0
2.161194620E1,7.018283606E-1,5.500832558E0,-7.190433502E0
2.163560636E1,4.194430351E0,-1.272171021E0,-6.746887207E0
2.165926656E1,4.487248421E0,-5.726108551E0,-9.513454437E-1
2.168292672E1,-5.055243969E-1,-1.522244453E0,5.360838890E0
2.170658688E1,-4.912722707E-1,-7.834014893E-1,3.662112951E-1
2.173024703E1,-2.732756734E-1,3.326511383E-2,-3.805772305E0
2.175390719E1,-2.425752282E-1,1.796687126E0,-4.279469967E0
2.177756740E1,-2.255706489E-1,3.166100502E0,-3.193036079E0
2.180122755E1,-1.685504556E0,1.454058647E0,2.691776752E0
2.182488771E1,-2.364834785E0,-1.062211990E-1,4.452099323E0
2.184854786E1,-1.942499518E0,-4.827947617E-1,3.650994778E0
2.187220802E1,-1.125587940E0,2.775020599E-1,1.719505906E0
2.189586823E1,-9.144523144E-1,1.198148727E0,6.256945133E-1
2.191952839E1,-1.794780970E0,1.138291359E0,1.173692465E0
2.194318854E1,-2.316133976E0,-6.163072586E-1,2.842967510E0
2.196684870E1,-2.995820045E0,-3.177936554E0,3.550518036E0
2.199050886E1,-4.374773502E0,-2.625743866E0,3.355848789E0
2.201416901E1,-5.260232449E0,-1.884873390E0,3.026646614E0
2.203782922E1,-4.306368828E0,-2.592311859E0,3.536392689E0
2.206148938E1,-2.213972569E0,-2.746084213E0,6.315086365E0
2.208514953E1,-6.594015360E-1,-2.752854347E0,5.945481300E0
2.210880969E1,-1.043007374E-1,-1.910103798E0,8.204916000E0
2.213246984E1,-3.129604459E-2,-1.763884544E0,-4.571550488E-1
2.215613000E1,1.348211288E0,-2.513046265E0,-4.696452141E0
2.217979021E1,2.529588223E0,-5.681013107E0,-2.294428349E-1
2.220345037E1,1.013668180E0,-5.683249474E0,3.318672895E0
2.222711052E1,-1.608193636E0,-1.212942123E0,-1.268297911E0
2.225077068E1,-8.201078176E-1,1.068397522E0,-5.051423073E0
2.227443083E1,1.856358051E-1,2.210063934E0,-4.943062782E0
2.229809099E1,1.297657847E0,2.932961464E0,-3.190668344E0
2.232175115E1,1.490822554E0,3.548275948E0,-1.681046605E0
2.234541130E1,1.891011834E0,3.059027195E0,-2.627520323E0
2.236907151E1,2.621487141E0,2.593340397E0,-6.500010490E0
2.239273167E1,2.541771173E0,3.391237259E0,-6.816986084E0
2.241639182E1,3.003034830E0,4.784320831E0,-2.909968138E0
2.244005198E1,4.748214245E0,3.025360584E0,2.314851046E0
2.246371214E1,3.865454495E-1,-1.763875008E0,7.048783302E0
2.248737229E1,-3.269391537E0,-4.754581451E0,6.761967659E0
2.251103245E1,5.183199644E-1,-1.137029648E0,6.118684769E0
2.253469260E1,4.569896698E0,4.797967911E0,5.728282928E0
2.255835281E1,4.807945728E0,1.985081673E0,-4.041145325E0
2.258201297E1,6.999995708E0,-1.445173645E1,-8.698128700E0
2.260567313E1,1.733334184E0,-1.307031822E1,-1.235677147E1
2.262933328E1,-2.956407070E0,2.771099091E0,-5.906954288E0
2.265299344E1,-1.129905939E0,5.589333057E0,-6.001229286E0
2.267665359E1,1.165928364E0,3.609899521E0,-3.939173222E0
2.270031375E1,2.697424173E0,3.129081726E-1,-2.778542280E0
2.272397391E1,2.195757151E0,-4.742813110E-2,-1.080548406E0
2.274763406E1,1.267633677E0,1.875963211E-1,5.958344460E0
2.277129422E1,1.200028181E0,-6.052541733E-1,5.657491684E0
2.279495443E1,-1.018026471E-1,-1.394491196E-1,-1.016385198E0
2.281861458E1,-2.912360668E0,-1.425293922E0,4.154029489E-1
2.284227474E1,-4.348103523E0,-8.127765656E-1,2.676636457E0
2.286593490E1,-2.790810585E0,-8.742713928E-2,-4.429827332E-1
2.288959505E1,-1.207278371E0,5.020914078E-1,2.013920248E-1
2.291325521E1,-5.205559731E-1,6.480245590E-1,2.777908802E0
2.293691536E1,-9.077569246E-1,5.170431137E-1,2.713903904E0
2.296057552E1,-1.936765075E0,6.220340729E-2,3.295528650E0
2.298423568E1,-1.793557405E0,-8.886384964E-1,3.784451008E0
2.300789583E1,-1.805498838E0,-1.050856590E0,2.462969303E0
2.303155599E1,-2.690640450E0,-1.466402054E0,2.701828480E0
2.305521615E1,-3.605880737E0,-1.136344910E0,1.241748452E0
2.307887630E1,-3.057463646E0,-3.920164108E-1,4.622510910E0
2.310253646E1,-2.381134748E0,-2.430865288E0,4.463346958E0
2.312619662E1,-3.094756126E0,-3.342481613E0,3.084731340E0
2.314985677E1,-1.144384742E-1,-3.602700233E0,7.156221867E0
2.317351693E1,7.429912686E-1,-3.408826828E0,-9.874946475E-1
2.319717708E1,2.002800941E0,-2.915880203E0,-4.384212494E0
2.322083724E1,2.230150938E0,-4.035260201E0,-1.001127720E0
2.324449740E1,8.328028023E-3,-3.447691917E0,1.986587048E0
2.326815755E1,-1.578564644E0,-6.825866699E-1,-8.403052092E-1
2.329181771E1,-5.081077814E-1,1.046124458E0,-4.955084801E0
2.331547787E1,-2.575035095E-1,1.917953491E0,-3.787943125E0
2.333913802E1,4.370473623E-1,2.216036797E0,-1.551206350E0
2.336279818E1,9.599096179E-1,2.741638660E0,-1.844956994E0
2.338645833E1,2.622855663E0,2.648634911E0,-6.040434361E0
2.341011849E1,4.096304417E0,2.678045273E0,-9.111424446E0
2.343377865E1,2.961511612E0,3.902607441E0,-5.154758930E0
2.345743880E1,2.988119125E0,4.458735466E0,-2.094162941E0
2.348109901E1,5.127021313E0,2.679094315E0,1.524755001E0
2.350475912E1,2.651731730E0,-1.379040718E0,3.483795404E0
2.352841927E1,-7.684370875E-2,-4.690565109E0,8.034748077E0
2.355207943E1,4.028788507E-1,-4.193930626E0,9.955139160E0
2.357573958E1,3.445067257E-2,4.138821602E0,4.334197998E0
2.359939974E1,1.420695782E0,5.441071987E0,-4.567069054E0
2.362305990E1,4.505483150E0,-5.025165558E0,-5.093810081E0
2.364672005E1,4.837054253E0,-1.685713387E1,-2.262147903E0
2.367038021E1,-2.146320343E0,-6.838211060E0,-5.562808990E0
2.369404037E1,-3.192327738E0,5.261404991E0,-5.967605591E0
2.371770052E1,-9.885734320E-1,6.842871666E0,-6.071026802E0
2.374136068E1,6.466410756E-1,4.734436035E0,-3.543434143E0
2.376502083E1,2.814855814E0,-1.212305069E0,-1.600537777E0
2.378868099E1,2.243848562E0,-2.090737343E0,-1.901698828E0
2.381234115E1,1.342070103E-2,-1.030183792E0,1.721665382E0
2.383600130E1,-6.353497505E-3,-3.461694717E-1,4.110204697E0
2.385966146E1,-2.190655470E-1,6.392536163E-1,8.581088781E-1
2.388332162E1,-2.084637165E0,5.014257431E-1,-1.057841301E0
2.390698177E1,-2.941086292E0,-2.186183929E-1,1.422708035E0
2.393064193E1,-1.873771906E0,-1.522130966E-1,1.597473264E0
2.395430208E1,-5.174342394E-1,9.011745453E-2,1.136168122E0
2.397796224E1,3.424381018E-1,1.022327423E0,2.035471201E0
2.400162240E1,3.472321332E-1,1.722866058E0,1.809871435E0
2.402528255E1,3.228755891E-1,1.646878242E0,4.659519196E-1
2.404894271E1,-3.698717356E-1,-1.550987244E0,2.221501350E0
2.407260286E1,-1.839994907E0,-2.492098808E0,2.479169846E0
2.409626297E1,-3.349844217E0,-1.560603142E0,1.081336021E0
2.411992313E1,-3.452402353E0,-4.895792007E-1,5.056794882E-1
2.414358328E1,-1.953604221E0,-5.230998993E-2,5.196639061E0
2.416724344E1,-6.600269079E-1,-1.442104340E0,6.037647724E0
2.419090359E1,-3.093912125E0,-3.280467033E0,3.071668148E0
2.421456375E1,-2.437945843E0,-3.356418610E0,3.675417185E0
2.423822391E1,-1.381249726E-1,-2.141616821E0,3.421827555E0
2.426188406E1,8.952434063E-1,-2.542113304E0,-9.132457376E-1
2.428554422E1,1.758848310E0,-3.220400810E0,-4.845007420E0
2.430920438E1,6.811428666E-1,-3.233670235E0,-4.193542480E0
2.433286453E1,-1.464565992E0,-1.397198677E0,-2.513644218E0
2.435652464E1,-2.374264717E0,2.746629715E-1,-4.603576660E-2
2.438018479E1,-1.463267684E0,1.380793571E0,-1.426323414E0
2.440384495E1,2.060576677E-1,1.818634033E0,-5.143992901E-1
2.442750510E1,1.083710670E0,2.044569969E0,-7.277493477E-1
2.445116526E1,1.054417133E0,1.311441422E0,-4.578617096E0
2.447482542E1,3.047725439E0,5.118246078E-1,-6.970860481E0
2.449848557E1,3.923733711E0,1.941493988E0,-3.972175598E0
2.452214573E1,4.101942062E0,2.879533768E0,-1.998656988E0
2.454580589E1,4.264431953E0,3.211809158E0,-7.722775936E-1
2.456946599E1,3.957262516E0,1.938393593E0,2.045847178E0
2.459312615E1,2.456924915E0,-1.118206024E0,5.733970642E0
2.461678630E1,-1.257817268E0,-3.849016190E0,7.156396389E0
2.464044646E1,-3.877721786E0,-8.235502243E-1,4.684038162E0
2.466410662E1,1.087266207E-2,3.908088207E0,7.592966557E-1
2.468776677E1,2.463138819E0,3.645510197E0,-2.985494614E0
2.471142688E1,2.796136379E0,-2.335107803E0,-3.209391594E0
2.473508703E1,-2.418510914E0,-1.047012615E1,-3.170912266E0
2.475874719E1,5.491359830E-1,-1.262212372E1,-2.232749462E0
2.478240734E1,-1.909862399E0,1.799642086E0,-3.107402563E0
2.480606750E1,5.459276438E-1,9.428644180E0,8.106532097E0
2.482972761E1,1.816388607E0,5.983053207E0,-4.797702789E0
2.485338776E1,3.568005085E0,7.741746902E-1,-7.818734646E0
2.487704792E1,4.792159081E0,-4.042697906E0,-3.339096546E0
2.490070807E1,2.639735937E0,-2.710362434E0,-9.834454060E-1
2.492436823E1,-1.134399295E0,-8.268461227E-1,7.069180012E-1
2.494802833E1,-2.363025665E0,1.658499718E0,1.906180143E0
2.497168849E1,-1.754328370E0,3.342886925E0,-2.302538157E0
2.499534865E1,-1.641032934E0,2.173779488E0,-2.432976723E0
2.501900880E1,-4.901676774E-1,-5.183162689E-1,2.522310257E0
2.504266896E1,2.633001804E-1,-6.584100723E-1,4.199397564E0
2.506632906E1,3.740556538E-1,-3.404493332E-1,2.501480103E0
2.508998922E1,-1.239717722E0,4.730958939E-1,5.059196949E-1
2.511364938E1,-1.467015624E0,9.023532867E-1,1.129890323E0
2.513730948E1,-7.978290319E-1,2.195291519E-1,7.645950317E-1
2.516096964E1,-2.558758259E-1,-7.542085648E-1,-3.031790257E-2
2.518462979E1,-2.039768457E0,-1.292447090E0,3.177075148E0
2.520828995E1,-4.268180370E0,-2.062827110E0,2.270680666E0
2.523195005E1,-5.439220428E0,-2.001056671E0,2.757086039E0
2.525561021E1,-5.426780701E0,-3.205513000E0,2.965924978E0
2.527927037E1,-4.179098129E0,-5.828420639E0,9.821963906E-1
2.530293047E1,4.395378232E-1,-2.771105766E0,9.639320374E0
2.532659062E1,1.651022434E0,-1.606675148E0,9.187329292E0
2.535025078E1,1.868171215E0,-4.659814835E-1,1.256697536E0
2.537391089E1,1.764647007E0,-2.762880325E-1,-4.892641544E0
2.539757104E1,1.493422627E0,-1.881698608E0,-4.047382355E0
2.542123120E1,1.537241697E0,-4.462838173E0,2.167312860E0
2.544489130E1,1.080900669E0,-3.932968140E0,2.672963858E0
2.546855146E1,3.768325746E-1,-4.494447708E-1,-3.408468723E0
2.549221162E1,9.786157608E-1,2.023988724E0,-5.406313896E0
2.551587172E1,-3.141541779E-2,3.120809078E0,-5.096518993E0
2.553953188E1,3.750210404E-1,2.512532711E0,-3.271604300E0
2.556319198E1,1.703100443E0,1.259457588E0,-1.596800089E0
2.558685214E1,1.714336514E0,1.391510487E0,-2.248745203E0
2.561051224E1,2.467621326E0,2.692008972E0,-4.462133884E0
2.563417240E1,3.311439037E0,4.907421589E0,-3.619534731E0
2.565783255E1,3.820053577E0,5.659023762E0,-9.192538261E-1
2.568149266E1,3.817464352E0,2.733742714E0,3.491477489E0
2.570515281E1,2.482358932E0,-2.936694145E0,8.142080307E0
2.572881292E1,-7.796537876E-2,-6.583750725E0,9.289641380E0
2.575247307E1,9.627886415E-1,1.272402287E0,3.519815445E0
2.577613318E1,1.680206537E0,7.646814346E0,-1.146358490E0
2.579979333E1,1.784787893E0,5.762022018E0,6.296157837E-2
2.582345344E1,-3.636186600E0,-5.204076767E-1,-9.189131260E-1
2.584711359E1,1.556273937E0,-1.627278900E1,-5.432304382E0
2.587077370E1,4.118611336E0,-1.480587292E1,-1.178292561E1
2.589443380E1,-7.722594738E-1,3.428122997E0,-1.978314161E0
2.591809396E1,-2.373547554E0,6.079735279E0,-6.797405243E0
2.594175406E1,1.557206511E0,5.040311813E-1,-5.197570801E0
2.596541422E1,3.755360126E0,-3.491637230E0,-2.129717112E0
2.598907432E1,1.995975494E0,-4.899158478E-1,4.340173721E0
2.601273448E1,2.061672926E0,-2.050209045E-2,1.786758780E0
2.603639458E1,6.254653335E-1,1.544414520E0,-4.090432167E0
2.606005469E1,3.820831776E-1,2.468496323E0,-4.677770615E0
2.608371484E1,-5.570045710E-1,2.546999931E0,-3.280452490E-1
2.610737495E1,-3.014238477E-1,-7.948303223E-2,5.797022820E0
2.613103505E1,-1.104460835E0,-7.972784042E-1,3.133398056E0
2.615469521E1,-1.522229314E0,-5.966672897E-1,1.816958189E0
2.617835531E1,-2.415541649E0,2.170524597E-1,1.874836922E0
2.620201542E1,-2.637866259E0,3.933849335E-1,1.589219809E0
2.622567557E1,-3.294586658E0,3.570280075E-1,1.168199062E0
2.624933568E1,-3.576220512E0,-6.082134247E-1,1.276019573E0
2.627299578E1,-3.535479784E0,-3.381505013E0,2.507440805E0
2.629665589E1,-3.690017700E0,-2.941748619E0,3.396341562E0
2.632031599E1,-4.005013943E0,-1.788495064E0,4.377433777E0
2.634397615E1,-3.611959934E0,-1.976864815E0,5.229694366E0
2.636763625E1,-4.078590393E0,-2.661185265E0,4.090625286E0
2.639129636E1,-2.387655973E0,-3.316304207E0,6.192734241E0
2.641495646E1,-1.653273404E-1,-2.110106468E0,4.238464355E0
2.643861662E1,1.063133597E0,-1.864825249E0,-1.053186417E0
2.646227672E1,2.159119368E0,-3.358111382E0,-3.871931314E0
2.648593682E1,3.116787672E0,-5.476716995E0,-7.466893196E-1
2.650959693E1,1.985491991E0,-3.902191162E0,1.804332018E0
2.653325703E1,1.182195097E-1,-1.508016586E-1,-1.800276875E0
2.655691714E1,2.635890245E-1,1.299161911E0,-5.332931519E0
2.658057724E1,2.936604023E-1,2.383259773E0,-4.655800819E0
2.660423740E1,1.214642167E0,3.110755920E0,-2.793413401E0
2.662789750E1,1.754934907E0,2.919079781E0,-2.263823986E0
2.665155760E1,1.025270104E0,2.444716454E0,-4.655668736E0
2.667521771E1,8.154751062E-1,2.315190792E0,-7.290556908E0
2.669887781E1,2.708872318E0,2.778062820E0,-5.511420250E0
2.672253792E1,5.063024998E0,3.806200981E0,-1.125439167E0
2.674619802E1,4.620772839E0,3.060809612E0,3.454779387E0
2.676985813E1,6.665236950E-1,-1.067478180E0,4.917922974E0
2.679351823E1,-7.304041982E-1,-4.913120270E0,7.760189056E0
2.681717833E1,-1.443069458E0,-1.892234802E0,8.437974930E0
2.684083844E1,1.786160588E0,3.953681469E0,2.167693377E0
2.686449854E1,4.484974384E0,4.581317902E0,-1.631958246E0
2.688815865E1,1.946235538E0,-8.175868988E-1,-6.780405998E0
2.691181875E1,5.573793411E0,-1.471165276E1,-4.422797203E0
2.693547886E1,1.064136505E0,-8.692442894E0,-7.337556362E0
2.695913891E1,-5.012671471E0,6.045910358E0,-2.393321991E0
2.698279901E1,-1.937475443E0,5.167457104E0,-5.748643398E0
2.700645912E1,1.231714487E0,1.601095676E0,-3.790297985E0
2.703011922E1,3.445210218E0,-2.819766045E0,-2.865142822E0
2.705377932E1,1.331509590E0,-1.491076469E0,-9.267394543E-1
2.707743943E1,-1.697336555E0,-1.001112938E0,1.679015875E0
2.710109953E1,-3.152616024E0,-5.562372208E-1,1.913723111E0
2.712475964E1,-1.862237692E0,1.732146263E0,-1.178923249E0
2.714841969E1,-9.091311693E-2,2.667924881E0,-5.525310636E-1
2.717207979E1,1.488311887E-1,1.412353516E0,1.356062770E0
2.719573990E1,-1.561233699E-1,-6.565256119E-1,1.274897337E0
2.721940000E1,-8.846681714E-1,-8.063631058E-1,1.245292425E0
2.724306010E1,-1.702985883E0,-3.270406723E-1,1.325649381E0
2.726672016E1,-1.886252165E0,3.335504532E-1,1.196789622E0
2.729038026E1,-1.602460146E0,1.608310699E0,2.253659725E0
2.731404036E1,-4.395944774E-1,7.823009491E-1,1.633387685E0
2.733770047E1,2.684186101E-1,-2.344664574E0,-1.053773522E0
2.736136052E1,-1.841655970E0,-3.049787521E0,2.370120764E0
2.738502063E1,-5.594049454E0,-1.336326599E0,4.402966976E0
2.740868073E1,-5.544446945E0,-1.499368668E0,3.927184343E0
2.743234078E1,-4.652588367E0,-3.058181763E0,5.369923115E0
2.745600089E1,-4.401670933E0,-5.149662018E0,3.655871153E0
2.747966099E1,-1.017321110E0,-2.055186272E0,5.984257698E0
2.750332104E1,1.011600614E0,-1.726145744E0,3.298074722E0
2.752698115E1,1.125519395E0,-1.725436211E0,-2.231615543E0
2.755064120E1,1.884974003E0,-3.165248871E0,-3.671046734E0
2.757430130E1,1.262892842E0,-3.441255569E0,-1.025390625E0
2.759796141E1,-3.295087218E-1,-7.785692215E-1,-1.361750484E0
2.762162146E1,-6.947380304E-2,7.176160812E-1,-4.612592697E0
2.764528156E1,9.022951126E-1,1.379615784E0,-2.764758825E0
2.766894162E1,1.206914902E0,1.928691864E0,-1.748773813E0
2.769260172E1,1.672963619E0,2.043552399E0,-2.561712980E0
2.771626177E1,1.746182919E0,1.504762650E0,-3.185746193E0
2.773992188E1,1.416866064E0,1.464836121E0,-3.189855099E0
2.776358193E1,1.494132757E0,1.673041821E0,-3.629807234E0
2.778724203E1,1.773689985E0,1.972863197E0,-3.493894577E0
2.781090208E1,2.438203335E0,2.725889206E0,-3.191102505E0
2.783456219E1,2.843730688E0,2.560888767E0,-1.049158096E0
2.785822224E1,2.787994862E0,3.241310120E-1,4.647758961E0
2.788188229E1,1.166397572E0,-3.819884300E0,1.130305099E1
2.790554240E1,-1.696846962E0,-6.393718719E-1,4.873651505E0
2.792920245E1,1.498821020E0,3.807116508E0,2.441680431E-1
2.795286255E1,4.812627316E0,3.724834919E0,-8.980972767E-1
2.797652261E1,4.012623310E0,-1.500274658E0,-1.199219227E-1
2.800018266E1,-8.229039907E-1,-1.347994614E1,-4.328982830E0
2.802384276E1,-1.192991734E0,-1.119898605E1,-8.777948380E0
2.804750281E1,-1.734295011E0,3.570708275E0,-6.113187790E0
2.807116286E1,-4.906089604E-1,8.441516876E0,-4.314036369E0
2.809482297E1,1.602156878E0,5.653122425E0,-3.222116470E0
2.811848302E1,4.904644012E0,-3.232186317E0,-1.961836219E0
2.814214307E1,4.498619080E0,-4.157989502E0,3.774266243E0
2.816580318E1,-2.300416827E-1,-1.600043297E0,1.209474564E0
2.818946323E1,-1.817822933E0,3.082656860E-2,-2.055250168E0
2.821312328E1,-1.613936901E0,2.409948826E0,-3.863003254E0
2.823678333E1,-1.297398925E0,3.670189857E0,-2.044671535E0
2.826044339E1,-2.764484882E-1,6.899938583E-1,4.018756390E0
2.828410349E1,-9.860235453E-2,-1.786057472E0,6.835924149E0
2.830776354E1,-1.273553610E0,6.992053986E-2,8.052713275E-1
2.833142359E1,-2.168651581E0,5.064744949E-1,-2.483479261E0
2.835508365E1,-1.958990216E0,-1.621866226E-1,1.212904930E0
2.837874370E1,-7.364443541E-1,-6.040458679E-1,3.108902931E0
2.840240380E1,-1.172364712E0,-8.271322250E-1,3.389346004E-1
2.842606386E1,-1.842119217E0,-5.979471207E-1,1.646316767E0
2.844972391E1,-2.759857655E0,-9.335126877E-1,1.873474121E0
2.847338396E1,-4.447690487E0,-7.985620499E-1,3.080990553E0
2.849704401E1,-4.025157928E0,-1.817983627E0,3.870286942E0
2.852070406E1,-4.261748314E0,-5.178589821E0,2.473877668E0
2.854436412E1,-3.657085657E0,-3.468178749E0,4.221643925E0
2.856802417E1,-3.862167001E-1,-9.633016586E-1,8.203779221E0
2.859168422E1,1.374642253E0,-1.574665070E0,1.863935232E0
2.861534427E1,1.945428014E0,-2.451071739E0,-3.962306976E0
2.863900432E1,1.971887469E0,-3.426956177E0,-4.701556206E0
2.866266438E1,9.237077832E-1,-3.250816345E0,-8.683960438E-1
2.868632443E1,-4.604081511E-1,-1.604673386E0,-9.944629669E-1
2.870998448E1,-8.746097684E-1,4.922266006E-1,-1.235668302E0
2.873364453E1,-1.092436910E-1,1.627527237E0,-2.458456993E0
2.875730458E1,1.173225999E0,2.325755119E0,-3.329159975E0
2.878096464E1,1.286053181E0,2.610214233E0,-2.609560013E0
2.880462469E1,1.460636616E0,1.797580719E0,-3.561997414E0
2.882828474E1,2.113823652E0,1.369939804E0,-4.413519859E0
2.885194479E1,2.510782480E0,2.548555374E0,-4.634033203E0
2.887560484E1,3.154784203E0,3.437432766E0,-3.077177525E0
2.889926490E1,3.745298386E0,2.811596870E0,-7.419066429E-1
2.892292495E1,3.518918276E0,4.069833755E-1,2.630463362E0
2.894658495E1,1.232561111E0,-2.579156876E0,4.724709511E0
2.897024500E1,-1.512851954E0,-2.440354347E0,5.444640160E0
2.899390505E1,-1.528581262E0,1.430789948E0,3.110578537E0
2.901756511E1,3.300294578E-1,3.603837013E0,5.039277077E-1
2.904122516E1,1.965944409E0,2.016952515E0,-4.134116173E-1
2.906488516E1,2.497235537E-1,4.749650955E-1,1.653647184E0
2.908854521E1,-4.571638584E0,2.679619789E0,1.119129896E0
2.911220526E1,-1.038035750E0,1.490753651E0,-8.591680527E0
2.913586531E1,8.286392212E0,-1.280417442E1,-4.126605988E0
2.915952536E1,7.803387165E0,-1.833212280E1,2.979221821E0
2.918318537E1,-4.726854324E0,3.474925041E0,-3.091806889E0
2.920684542E1,-3.044677377E-1,6.690996170E0,-1.151882935E1
2.923050547E1,2.714056015E0,4.547896385E0,-8.366595268E0
2.925416547E1,5.752709389E0,-1.705555916E0,-4.658913612E0
2.927782552E1,3.907825470E0,-2.441717148E0,2.723071337E0
2.930148557E1,-8.181573749E-1,-7.990579605E-1,6.663345337E0
2.932514557E1,-2.308903694E0,1.487684250E-1,-2.527958751E-1
2.934880562E1,-1.666695237E0,2.560889244E0,-3.793846130E0
2.937246568E1,-1.347677231E0,2.453187466E0,-3.060936213E0
2.939612568E1,-1.109045744E0,2.642936707E-1,9.626440406E-1
2.941978573E1,-1.581337810E0,-3.130474091E-1,6.143814087E0
2.944344578E1,-9.140375257E-1,-1.251831055E-1,4.135583401E0
2.946710578E1,-7.336686850E-1,-1.890983582E-1,1.232971191E0
2.949076583E1,-1.127737403E0,-9.305858612E-2,2.222199738E-1
2.951442583E1,-2.190235376E0,1.102113724E-1,1.567837477E0
2.953808589E1,-2.626880646E0,-4.606800079E-1,1.911587000E0
2.956174589E1,-2.708268642E0,-2.099954605E0,1.310146689E0
2.958540594E1,-1.501140952E0,-2.502068520E0,6.371101737E-1
2.960906594E1,-1.278696537E0,-1.792684555E0,3.024790287E0
2.963272599E1,-1.453630209E0,-1.705161095E0,5.942940712E0
2.965638604E1,-2.160213947E0,-1.235068321E0,6.125500679E0
2.968004604E1,-3.473639727E0,-2.933769226E0,3.781338692E0
2.970370604E1,-3.811985016E0,-3.463581085E0,3.718466997E0
2.972736609E1,-1.615712404E0,-2.005526543E0,3.036011696E0
2.975102609E1,5.677657723E-1,-3.001990318E0,-5.764126182E-1
2.977468425E1,1.934224248E0,-4.596055031E0,-2.566964626E0
2.979834425E1,2.577624321E0,-4.476339340E0,-2.495228291E0
2.982200430E1,1.536760479E-1,2.178716660E-1,-1.099563599E0
2.984566430E1,-8.303320408E-1,1.859728813E0,-1.343988419E0
2.986932430E1,3.410571814E-1,1.422956467E0,-3.191946030E0
2.989298435E1,2.370556116E0,9.541616440E-1,-2.770964146E0
2.991664435E1,2.379033089E0,1.504399300E0,-2.579678774E0
2.994030435E1,1.698777795E0,1.972455978E0,-2.006146193E0
2.996396441E1,2.202750683E0,1.314362526E0,-5.159752846E0
2.998762441E1,3.242900610E0,1.868328571E0,-5.715342999E0
3.001128441E1,2.899178505E0,3.808937550E0,-2.834854841E0
3.003494446E1,3.054895401E0,4.772124290E0,-1.938173771E0
3.005860446E1,2.904391289E0,4.009145737E0,2.089593410E-1
3.008226446E1,1.579842329E0,7.040615082E-1,3.761451721E0
3.010592451E1,-7.373103499E-1,-3.410894394E0,7.292897701E0
3.012958451E1,-2.300830603E0,-4.680363655E0,7.452859879E0
3.015324451E1,-2.729348183E0,5.082406998E-1,5.070239067E0
3.017690451E1,-7.165167332E-1,3.481523514E0,1.045932293E0
3.020056456E1,3.944278061E-1,1.247037888E0,-1.840852022E0
3.022422456E1,2.028125525E0,-9.968294144E0,-5.705326080E0
3.024788456E1,3.314415693E0,-1.304002953E1,-3.978473902E0
3.027154508E1,-2.003473938E-1,7.994937897E-2,-5.002639771E0
3.029520508E1,1.836966276E-1,8.133961678E0,4.077400208E0
3.031886514E1,2.808551550E0,3.115211487E0,-8.099539757E0
3.034252514E1,4.408627510E0,6.122465134E-1,-6.567054749E0
3.036618514E1,5.001375675E0,-1.481472969E0,-4.209343433E0
3.038984514E1,2.808060884E0,-9.036321640E-1,-1.488053083E0
3.041350514E1,-5.306005478E-1,1.373872757E-1,5.064405918E0
3.043716514E1,-1.830669761E0,2.813673019E-1,-2.699683309E-1
3.046082514E1,-1.563505888E0,2.317620754E0,-3.928193092E0
3.048448514E1,-1.360458374E0,1.880132198E0,-3.053488255E0
3.050814514E1,-1.942405105E0,1.047490120E0,9.999992847E-1
3.053180519E1,-1.579879642E0,-3.087463379E-1,4.766430378E0
3.055546514E1,-5.811632872E-1,-7.539424896E-1,4.596232414E0
3.057912519E1,-6.266826987E-1,-1.428813934E-1,1.109252930E0
3.060278519E1,-8.972456455E-1,-4.529199600E-1,-4.497320056E-1
3.062644519E1,-1.693161249E0,-3.307952881E-1,2.389666557E0
3.065010519E1,-1.323462486E0,-5.702810287E-1,4.328530312E0
3.067376519E1,-1.016114950E0,-1.298491478E0,7.471882105E-1
3.069742519E1,-1.853179216E0,-2.232274055E0,4.599445462E-1
3.072108519E1,-2.283302546E0,-2.065847397E0,3.428385258E0
3.074474519E1,-6.436427832E-1,-1.381483078E0,8.272549629E0
3.076840519E1,-1.763261080E0,-1.321011543E0,2.361774206E0
3.079206514E1,-3.592553139E0,-2.341463089E0,2.328473568E0
3.081572514E1,-1.444218874E0,-2.160737991E0,5.284285069E0
3.083938514E1,7.504041195E-1,-2.951490402E0,3.418217659E0
3.086304514E1,1.500998020E0,-3.428883553E0,-2.884105444E0
3.088670514E1,1.843160391E0,-2.573850632E0,-4.777998924E0
3.091036514E1,-1.212119699E0,-9.704933167E-1,-3.310935974E0
3.093402514E1,-1.938887000E0,-4.291181564E-1,-1.207902193E0
3.095768514E1,-3.592435122E-1,-6.523408890E-1,-1.363338470E0
3.098134514E1,8.234816790E-1,-3.063049316E-1,-9.220061302E-1
3.100500508E1,3.716316819E-1,1.764257431E0,-4.933753014E-1
3.102866508E1,-1.323481798E-1,2.517712593E0,-1.435859680E0
3.105232508E1,9.454495311E-1,1.937733650E0,-4.956624508E0
3.107598508E1,2.779168844E0,2.119374752E0,-6.843286514E0
3.109964508E1,3.658360958E0,3.123613358E0,-3.227625847E0
3.112330503E1,3.885914803E0,3.169538975E0,-1.526391983E0
3.114696503E1,2.637117863E0,3.456471920E0,-2.756562233E-1
3.117062503E1,2.337507963E0,1.247099876E0,2.442569494E0
3.119428503E1,9.129620790E-1,-3.878261566E0,5.490874290E0
3.121794503E1,-1.052671790E0,-5.708759308E0,8.088750839E0
3.124160498E1,-2.078368664E0,2.100088120E0,5.079445362E0
3.126526498E1,7.281475663E-1,6.297149181E0,-4.219560623E-1
3.128892498E1,1.385999203E0,2.407609940E0,-1.930463195E0
3.131258493E1,-2.590484858E0,-7.243865967E0,1.684856415E-2
3.133624493E1,4.101948738E0,-1.584165955E1,-6.597476006E0
3.135990493E1,-2.126084864E-1,-1.865571022E0,-3.657783985E0
3.138356487E1,-1.520811081E0,8.962104797E0,-1.870814800E0
3.140722487E1,2.033761740E0,6.241733074E0,-6.093839645E0
3.143088487E1,5.175946236E0,4.966745377E-1,-5.580602169E0
3.145454482E1,6.206328392E0,-2.093852043E0,-3.851832151E0
3.147820482E1,3.323543787E0,-4.477615356E-1,-5.295702219E-1
3.150186482E1,-4.446771741E-2,1.542139053E-1,4.539360046E0
3.152552477E1,-9.083904624E-1,1.301698685E-1,4.040360451E-3
3.154918477E1,-8.523855805E-1,8.937444687E-1,-4.014715672E0
3.157284472E1,-1.239107847E0,1.216633797E0,-3.590190887E0
3.159650472E1,-2.101754665E0,4.294309616E-1,5.520545244E-1
3.162016472E1,-1.712555408E0,2.375221252E-2,5.185852528E0
3.164382467E1,-7.601302862E-1,3.730630875E-1,3.781074524E0
3.166748467E1,7.683277130E-3,4.562931061E-1,9.995131493E-1
3.169114461E1,-8.435722589E-1,6.007928848E-1,1.108148694E-1
3.171480461E1,-1.972365737E0,-3.696603775E-1,4.614601135E-1
3.173846456E1,-2.372374058E0,-1.016400337E0,1.891856432E0
3.176212456E1,-1.409572363E0,-2.128089905E0,2.991132498E0
3.178578451E1,-7.851160169E-1,-3.327121735E0,1.867702007E0
3.180944451E1,-2.280485630E0,-3.088235855E0,4.111658096E0
3.183310451E1,-2.231727362E0,-2.369908333E0,6.012944698E0
3.185676446E1,-2.161962032E0,-1.595941544E0,3.765990734E0
3.188042446E1,-2.325600147E0,-2.410060883E0,4.820610046E0
3.190408441E1,1.798146665E-1,-1.422013283E0,1.035940170E1
3.192774441E1,6.548159122E-1,-2.087498665E0,1.892427683E0
3.195140435E1,-1.278371215E-1,-1.296948433E0,-4.447016239E0
3.197506430E1,7.202237248E-1,-2.236045837E0,-6.263171196E0
3.199872430E1,-2.561466694E-1,-3.047294617E0,-1.592928290E0
3.202238425E1,-1.552102923E0,-2.055446625E0,1.064290524E0
3.204604425E1,-1.359685063E0,-1.204565048E0,-3.115364790E0
3.206970420E1,-1.984685659E-1,-8.483409882E-2,-1.044806123E0
3.209336420E1,7.217280865E-1,7.982292175E-1,-1.168197989E0
3.211702414E1,1.093509078E0,2.034031868E0,-2.668584347E0
3.214068414E1,1.738558650E0,2.090053558E0,-3.075138807E0
3.216434409E1,2.917416096E0,2.306638718E0,-5.666648865E0
3.218800409E1,3.521774292E0,3.863213539E0,-4.773050308E0
3.221166404E1,3.092602015E0,4.930854797E0,-2.138512611E0
3.223532404E1,2.551363707E0,4.144351959E0,-3.470885754E-1
3.225898399E1,4.483852983E-1,1.033802032E0,3.288005352E0
3.228264399E1,-3.028537512E0,-4.700671196E0,9.608423233E0
3.230630394E1,-1.405411363E0,-4.918148041E0,5.956123352E0
3.232996394E1,5.284111977E0,5.790538788E-1,5.548162460E0
3.235362389E1,5.289782524E0,6.742776394E0,7.649865150E-1
3.237728383E1,3.542582035E0,5.090790272E0,-2.976554871E0
3.240094383E1,4.492281914E0,-1.660971451E1,-1.649328613E1
3.242460378E1,-3.319539070E0,-6.967043877E0,-9.629674911E0
3.244826378E1,-1.737780690E0,2.852582932E0,-6.800639153E0
3.247192373E1,-5.024830699E-1,3.177145958E0,-7.689309120E-1
3.249558373E1,-9.507656097E-3,-1.395181656E0,2.581151724E0
3.251924368E1,-1.736023724E-1,5.755538940E-1,3.198114872E0
3.254290368E1,3.846009374E-1,3.725624084E-1,2.815392017E-1
3.256656362E1,4.338384271E-1,-2.027235031E-1,-1.499795079E0
3.259022362E1,-1.642901301E-1,1.315258026E0,-3.070640326E0
3.261388357E1,-4.407918453E-1,2.066345692E0,-3.200834751E0
3.263754352E1,-1.429687023E0,2.367830276E-1,7.659513950E-1
3.266120352E1,-1.373696685E0,-1.358907700E0,3.554922819E0
3.268486347E1,-1.670413733E0,-1.236014366E0,2.325297594E0
3.270852347E1,-1.437005997E0,-6.094255447E-1,2.002594709E0
3.273218342E1,-7.701768875E-1,8.222303391E-1,2.378393412E0
3.275584342E1,-5.384080410E-1,1.997612000E0,3.000317335E0
3.277950336E1,-9.831379652E-1,7.305746078E-1,2.435736179E0
3.280316336E1,-2.668942451E0,-1.799941063E0,3.579179287E0
3.282682331E1,-4.942823410E0,-1.003888130E0,2.810639858E0
3.285048331E1,-5.185364723E0,-1.941030502E0,4.004868984E0
3.287414326E1,-4.553449631E0,-4.998269081E0,2.704916239E0
3.289780326E1,-2.845507145E0,-3.981752396E0,1.399139881E0
3.292146321E1,-3.121343255E-1,-2.930813789E0,6.073126316E0
3.294512321E1,9.519110322E-1,-3.449512482E0,4.209532738E-1
3.296878316E1,1.704611540E0,-3.199725151E0,-2.887368917E0
3.299244316E1,1.631397605E0,-2.436686516E0,-2.352598190E0
3.301610310E1,1.303698421E0,-9.745664597E-1,-4.339196682E-1
3.303976310E1,7.849509716E-1,1.053104401E-1,-5.337402821E-1
3.306342305E1,7.646064758E-1,7.239580154E-1,-3.601980686E0
3.308708305E1,6.344816685E-1,1.740513325E0,-3.234830856E0
3.311074300E1,-1.361478306E-2,2.613573074E0,-2.696644068E0
3.313440295E1,2.530018091E-1,2.325888634E0,-2.893353462E0
3.315806295E1,7.765327692E-1,1.529386997E0,-3.278070927E0
3.318172295E1,8.105832338E-1,1.178688049E0,-3.397447348E0
3.320538290E1,2.757901192E0,2.127276897E0,-3.080185890E0
3.322904290E1,3.658446550E0,3.849180222E0,-2.787883759E0
3.325270284E1,4.355259418E0,3.466206551E0,-1.088046312E0
3.327636284E1,3.046890974E0,1.179707527E0,4.306689262E0
3.330002279E1,-6.214440465E-1,-3.640219688E0,7.746583939E0
3.332368279E1,-3.159110546E0,-3.774763107E0,6.157082558E0
3.334734274E1,-8.063100576E-1,2.498038292E0,3.312844992E0
3.337100274E1,2.036957979E0,6.569270134E0,1.143959761E0
3.339466269E1,6.610618234E-1,4.545114517E0,-3.079190016E0
3.341832269E1,1.751366496E0,-1.038890553E1,-5.713215828E0
3.344198264E1,5.621562958E0,-1.678636932E1,-5.896427155E0
3.346564264E1,1.035388827E0,-7.895183563E-2,-3.513211727E0
3.348930258E1,-9.007115960E-1,7.575144291E0,1.372644901E-1
3.351296258E1,2.013131857E0,2.743146896E0,-9.020373344E0
3.353662258E1,4.872541428E0,-2.418380737E0,-5.293309212E0
3.356028253E1,3.206280708E0,-1.186060905E0,-3.091776848E0
3.358394253E1,8.640868068E-1,1.297736168E0,1.520277858E0
3.360760248E1,-1.235396743E0,-5.046977997E-1,3.394474506E0
3.363126248E1,-1.145113230E0,7.553930283E-1,-5.650538206E-1
3.365492243E1,-4.515136182E-1,1.902245522E0,-3.958673000E0
3.367858243E1,-1.068264723E0,6.912355423E-1,-7.341072559E-1
3.370224243E1,-2.076459169E0,2.149467468E-1,2.557977676E0
3.372590237E1,-1.975341082E0,1.454782486E-1,4.275308132E0
3.374956237E1,-1.720917344E0,2.176961899E-1,4.267904758E0
3.377322232E1,-1.243356466E0,-1.110744476E-2,1.340320587E0
3.379688232E1,-1.168244839E0,-3.218669891E-1,3.681528568E-1
3.382054232E1,-1.223349094E0,-3.783884048E-1,3.595821381E0
3.384420227E1,-7.861994505E-1,-1.930470467E0,2.482261419E0
3.386786227E1,-3.183650017E0,-2.617802620E0,8.789742589E-1
3.389152227E1,-4.554232121E0,-1.736082077E0,1.201304555E0
3.391518222E1,-3.156086922E0,-7.243366241E-1,4.542318344E0
3.393884222E1,-1.119959354E0,-1.107564926E0,6.639600754E0
3.396250222E1,-2.461015224E0,-2.931010246E0,3.349680901E0
3.398616217E1,-2.057725430E0,-3.131038666E0,5.914661884E0
3.400982217E1,-3.176200986E-1,-3.209671974E0,4.917928696E0
3.403348217E1,5.915712118E-1,-3.466258049E0,-1.956765771E0
3.405714211E1,1.555343866E0,-4.393031120E0,-4.613659382E0
3.408080211E1,1.516250253E0,-4.617177010E0,-1.543712378E0
3.410446211E1,1.348243952E-1,-2.906595230E0,1.349411964E0
3.412812206E1,-9.377081394E-1,3.612899780E-2,-2.197347403E0
3.415178206E1,1.679085344E-1,1.742856503E0,-4.180405140E0
3.417544201E1,1.815953970E0,2.424904823E0,-3.758788824E0
3.419910201E1,1.887141585E0,2.895267487E0,-1.796181202E0
3.422276201E1,1.441337347E0,3.190534592E0,-1.323351860E0
3.424642201E1,2.362126350E0,2.928291321E0,-4.940960884E0
3.427008196E1,3.453943968E0,3.398786068E0,-6.495695114E0
3.429374196E1,3.189445496E0,4.210543633E0,-3.442551613E0
3.431740196E1,3.773651838E0,3.659354210E0,-7.391378880E-1
3.434106196E1,2.128978252E0,1.954663754E0,4.385359287E0
3.436472191E1,-2.198270321E0,-2.490213394E0,8.047389984E0
3.438838191E1,-3.772485971E0,-4.872220039E0,7.881662369E0
3.441204191E1,5.107252598E-1,-1.972070694E0,5.766244411E0
3.443570185E1,3.677829742E0,4.669704437E0,-4.890518665E0
3.445936185E1,4.723246574E0,6.827752113E0,-1.679924250E0
3.448302185E1,4.052415371E0,-2.261993408E0,9.326255798E0
3.450668185E1,3.353559017E0,-2.015565872E1,-2.752901077E1
3.453034185E1,-1.118842602E0,-4.628993034E0,-8.335226059E0
3.455400180E1,-1.627221823E0,6.058632851E0,2.451414824E0
3.457766180E1,9.908109903E-1,2.246136665E0,-2.988875151E0
3.460132180E1,3.551019907E0,-3.668910980E0,-1.773854494E0
3.462498180E1,-2.457744479E-1,-8.872480392E-1,-1.774802208E-1
3.464864175E1,-1.393970609E0,1.129969597E0,3.120733738E0
3.467230175E1,-8.807939291E-2,1.592458725E0,1.290133953E0
3.469596175E1,1.837943196E-1,1.772856712E0,-2.476678133E0
3.471962175E1,3.406417370E-1,2.186405182E0,-3.967402458E0
3.474328175E1,1.683434248E-1,1.469415665E0,-1.497152448E-1
3.476694170E1,-1.160507560E0,-8.135356903E-1,3.361046791E0
3.479060170E1,-2.614359856E0,-1.535882950E0,3.081215382E0
3.481426170E1,-1.968724012E0,-6.071014404E-1,7.255729437E-1
3.483792170E1,-1.609253287E0,-1.141853333E-1,1.699123383E-1
3.486158170E1,-1.573378563E0,3.376207352E-1,4.299638271E0
3.488524170E1,-2.189316750E0,-2.277992249E0,3.410833120E0
3.490890164E1,-3.497892380E0,-1.698658943E0,1.494873166E0
3.493256164E1,-3.724174976E0,-1.453048706E0,2.383720398E0
3.495622164E1,-3.270678282E0,-7.823410034E-1,3.081897259E0
3.497988164E1,-2.710699320E0,3.800830841E-1,5.214870453E0
3.500354165E1,-1.601996422E0,8.308744431E-1,6.534656525E0
3.502720165E1,-1.499718189E0,1.279636383E0,5.239384651E0
3.505086165E1,-4.034873009E0,-3.102109909E0,8.513197899E-1
3.507452159E1,-2.812586546E0,-4.190037727E0,-2.863311768E-1
3.509818159E1,-2.450353801E-1,-5.866076469E0,-1.308498859E0
3.512184159E1,3.090020895E0,-7.952499390E0,6.441035271E-1
3.514550159E1,2.841531992E0,-5.926194191E0,2.030149460E0
3.516916159E1,4.849112332E-1,-1.531592369E0,-9.215142727E-1
3.519282159E1,-3.802708685E-1,2.447443008E-1,-4.822403908E0
3.521648159E1,2.434126735E-1,6.383314133E-1,-4.953431129E0
3.524014159E1,1.315070152E0,1.549715996E0,-4.311298370E0
3.526380159E1,1.765324354E0,2.257796764E0,-1.312409639E0
3.528746159E1,2.320091248E0,3.367380619E0,-5.938696861E-2
3.531112154E1,3.197843552E0,3.750119686E0,-4.184599876E0
3.533478154E1,3.402409554E0,3.785036087E0,-7.221276283E0
3.535844154E1,2.261328220E0,3.874284267E0,-4.093236923E0
3.538210154E1,2.097165585E0,3.130478859E0,-5.235114098E-1
3.540576154E1,1.516451478E0,7.067146301E-1,4.201540947E0
3.542942154E1,-1.544939399E0,-3.944666862E0,8.870778084E0
3.545308154E1,-5.578038692E0,-2.536925316E0,9.015310287E0
3.547674154E1,-1.793343067E0,3.302310944E0,5.384002209E0
3.550040154E1,1.878441811E0,7.319787025E0,-5.017369270E0
3.552406154E1,9.341328621E0,1.689023972E-1,-4.626952171E0
3.554772154E1,6.393381119E0,-1.394044590E1,-9.679169655E0
3.557138154E1,-3.352940083E-3,-7.145881653E0,-9.491018295E0
3.559504154E1,-3.731521130E0,2.771245480E0,-4.265816212E0
3.561870154E1,4.368276596E-1,-3.113203049E-1,-5.795530319E0
3.564236149E1,3.073780775E0,-3.227990150E0,-2.985822678E0
3.566602154E1,1.997193217E0,-1.118770599E0,5.432476997E-1
3.568968154E1,7.804216146E-1,9.263038635E-3,2.007284164E0
3.571334149E1,4.680874646E-1,1.595554352E0,-1.023322105E0
3.573700149E1,7.240731120E-1,2.136216164E0,-3.767293453E0
3.576066149E1,6.984185576E-1,1.986986160E0,-2.661659479E0
3.578432149E1,9.246838093E-1,-3.682088852E-1,3.922208309E0
3.580798149E1,-6.139736772E-1,-2.589664459E-1,3.207672119E0
3.583164149E1,-1.450340867E0,5.668764114E-1,5.231175423E-1
3.585530149E1,-1.575825930E0,2.103576660E-1,2.391428351E-1
3.587896149E1,-1.469048142E0,5.690002441E-2,1.527531266E0
3.590262149E1,-1.381680012E0,-3.207302094E-1,2.138124704E0
3.592628149E1,-2.350346088E0,-6.886825562E-1,3.753788948E0
3.594994149E1,-3.422281265E0,-7.701587677E-1,3.553345203E0
3.597360149E1,-4.165064335E0,-1.293233871E0,3.402767777E-1
3.599726149E1,-3.835736275E0,-1.368828773E0,3.914926291E0
3.602092149E1,-2.302080631E0,-1.060432434E0,7.401336670E0
3.604458149E1,-1.623329878E0,-3.392327309E0,3.285653114E0
3.606824149E1,-2.222496033E0,-3.310768127E0,4.820065022E0
3.609190149E1,-1.723951101E0,-2.147621155E0,4.048883438E0
3.611556149E1,2.026373893E-2,-3.081789017E0,-7.103679180E-1
3.613922149E1,1.969473958E0,-4.263740540E0,-2.819195271E0
3.616288149E1,2.117243767E0,-4.228543282E0,-1.158365250E0
3.618654149E1,3.855891526E-3,-1.799034119E0,8.655335903E-1
3.621020149E1,-1.220103979E0,4.880867004E-1,-2.898159027E-1
3.623386149E1,-8.552920818E-1,2.002840042E0,-2.622639179E0
3.625752149E1,1.058239579E0,1.814743996E0,-4.527370453E0
3.628118149E1,1.734221458E0,1.288162231E0,-3.878435373E0
3.630484149E1,1.228654385E0,1.222255707E0,-2.420867443E0
3.632850149E1,1.121328831E0,9.630136490E-1,-2.936093330E0
3.635216149E1,3.255648136E0,1.153553009E0,-3.973867416E0
3.637582154E1,2.861878872E0,3.231701374E0,-2.823726654E0
3.639948154E1,1.994627476E0,3.870445728E0,1.106348038E-1
3.642314154E1,1.869667172E-1,2.163749218E0,4.239744186E0
3.644680154E1,-1.411354065E0,-2.066197395E0,6.013528824E0
3.647046154E1,-4.755974412E-1,-3.125744820E0,3.527683496E0
3.649412154E1,3.368594646E0,2.790121078E0,2.276988506E0
3.651778154E1,6.550084591E0,7.209532738E0,-2.022596359E0
3.654144154E1,4.556152821E0,8.063581467E0,-8.052996635E0
3.656510154E1,6.404531002E0,6.261122227E0,9.385209084E0
3.658876154E1,4.896031857E0,-2.444781303E1,-9.151084900E0
3.661242154E1,-4.744179249E-1,-1.738269424E1,-1.387487411E1
3.663608154E1,-1.796466231E0,2.262300491E0,-8.269939423E0
3.665974154E1,-4.424399436E-1,5.778077126E0,-6.383636475E0
3.668340154E1,-1.204504967E-1,4.395675659E-1,-2.115689993E0
3.670706154E1,1.317422390E0,-4.747570992E0,1.453491211E0
3.673072154E1,-1.134793997E0,-1.228731155E0,7.190106869E0
3.675438154E1,-1.486322999E0,2.317571640E-1,5.100456238E0
3.677804159E1,-1.672271729E0,2.128374577E0,-1.437180758E0
3.680170159E1,-1.907672048E0,3.348728657E0,-5.355057240E0
3.682536159E1,-2.654393435E0,3.122343063E0,-2.533615351E0
3.684902159E1,-2.435223579E0,7.810716629E-1,1.958289862E0
3.687268159E1,-1.864749432E0,-1.450901985E0,4.093037128E0
3.689634159E1,-1.250525236E0,-6.048154831E-1,5.053381443E0
3.692000159E1,-1.489535570E0,-1.128387451E-2,-7.750249505E-1
3.694366159E1,-1.790858984E0,1.762514114E-1,1.034066081E-1
3.696732159E1,-1.306885719E0,-1.374427795E0,4.001109123E0
3.699098159E1,-5.589393377E-1,-3.628623009E0,2.154973030E0
3.701464165E1,-1.944380999E0,-2.558377266E0,2.193629265E0
3.703830165E1,-5.557337284E0,-1.668423653E0,1.955776691E0
3.706196165E1,-4.482291698E0,-9.810390472E-1,4.589199543E0
3.708562164E1,-2.405732632E0,4.800148010E-1,6.991210938E0
3.710928164E1,-3.890684366E0,7.713518143E-1,3.653293133E0
3.713294164E1,-5.067246914E0,-1.891171455E0,1.391952157E0
3.715660164E1,-3.051175117E0,-3.678987503E0,-3.916159570E-1
3.718026164E1,1.896234304E-1,-5.570416451E0,-7.412683964E-1
3.720392164E1,3.281945705E0,-7.562689781E0,6.986596584E-1
3.722758164E1,3.065146923E0,-5.541320801E0,-1.117928028E-1
3.725124170E1,3.170989752E-1,-1.360180855E0,5.472848415E-1
3.727490170E1,-1.479424357E0,1.201659203E0,-1.994685650E0
3.729856170E1,6.318389177E-1,1.663295746E0,-3.458283424E0
3.732222170E1,2.163156986E0,2.122175694E0,-4.310438156E0
3.734588170E1,2.092174768E0,2.481380463E0,-2.411163807E0
3.736954170E1,1.841539264E0,2.552005291E0,-2.423713446E0
3.739320170E1,2.716909647E0,2.128877640E0,-5.860008240E0
3.741686175E1,4.260130882E0,1.757010460E0,-7.209218025E0
3.744052170E1,3.698243380E0,2.596961021E0,-1.935306311E0
3.746418175E1,2.383738995E0,2.628457546E0,3.301952839E0
3.748784175E1,-1.259061813E0,5.338411331E-1,3.688206196E0
3.751150175E1,-2.343064785E0,-2.067506790E0,3.775391340E0
3.753516175E1,2.202497244E0,-2.289515495E0,5.732616425E0
3.755882175E1,1.548767328E0,4.416222572E0,-6.745910645E-2
3.758248175E1,2.091181517E0,8.109190941E0,-3.970243454E0
3.760614180E1,3.051729679E0,5.711012840E0,-1.668489575E0
3.762980180E1,1.166158676E0,1.169945717E0,1.805042505E0
3.765346180E1,5.100846291E0,-8.330430031E0,4.327650547E0
3.767712180E1,7.007070541E0,-2.429962540E1,-3.382440567E0
3.770078180E1,-3.909567356E0,-1.830257416E0,-9.775015831E0
3.772444180E1,-2.097416401E0,6.177006245E0,-9.211591721E0
3.774810180E1,6.050928831E-1,5.346893787E0,-6.707452774E0
3.777176185E1,3.673026800E0,-9.474105835E-1,-3.293525457E0
3.779542185E1,2.552695990E0,-4.209816933E0,2.542086363E0
3.781908185E1,-3.453910351E-2,-2.178322792E0,1.752736926E0
3.784274185E1,-1.486291647E0,-4.541435242E-1,9.325439930E-1
3.786640185E1,-7.984495759E-1,2.902358055E0,-1.664075613E0
3.789006185E1,-3.591112792E-1,4.561280251E0,-3.037368536E0
3.791372185E1,8.179841042E-1,1.237205505E0,2.001419961E-1
3.793738191E1,-6.584008932E-1,-5.507202148E-1,6.921969652E-1
3.796104191E1,-2.029545546E0,-1.293067932E-1,1.348780751E0
3.798470191E1,-2.280931950E0,1.578922272E-1,4.561608315E0
3.800836191E1,-1.464731693E0,-2.237501144E-1,4.088074207E0
3.803202191E1,-2.091737509E0,1.997127533E-1,4.387640357E-1
3.805568196E1,-3.043848038E0,-2.265586853E-1,1.711930990E0
3.807934196E1,-2.526948929E0,-3.323242188E0,3.085710526E0
3.810300196E1,-1.985410213E0,-3.846258163E0,3.375721455E0
3.812666196E1,-4.921520233E0,-2.557654381E0,1.625144482E0
3.815032196E1,-4.055693626E0,-1.632872581E0,6.171675682E0
3.817398196E1,-2.561496735E0,-7.231874466E-1,5.904449463E0
3.819764196E1,-5.016731262E0,-1.863699913E0,1.881081820E0
3.822130201E1,-2.303774357E0,-2.841386795E0,3.847831488E0
3.824496201E1,1.820029914E-1,-3.938695908E0,2.502918243E0
3.826862201E1,2.497712374E0,-6.686765671E0,-2.170384407E0
3.829228201E1,3.235011816E0,-6.458748817E0,-3.525604248E0
3.831594201E1,1.275384188E0,-3.014533043E0,-1.332252502E0
3.833960206E1,-1.372099519E0,-4.786634445E-1,4.857466221E-1
3.836326206E1,3.805582970E-2,6.926765442E-1,-3.057348490E0
3.838692206E1,1.569418192E0,1.881756783E0,-5.555757523E0
3.841058206E1,1.478312612E0,3.435914040E0,-3.721513748E0
3.843424206E1,1.259651661E0,3.881583214E0,-2.180894136E0
3.845790211E1,1.902002811E0,2.842111588E0,-3.267574549E0
3.848156211E1,3.666769028E0,1.806481838E0,-6.294978142E0
3.850522211E1,4.198717117E0,2.142544746E0,-4.442302704E0
3.852888211E1,3.134282589E0,3.715507507E0,-9.630777836E-1
3.855254211E1,3.411330462E0,2.532588959E0,1.424771547E0
3.857620217E1,2.110532045E0,-1.101172447E0,4.321273804E0
3.859986217E1,1.902103424E-2,-4.040985107E0,5.851785183E0
3.862352217E1,-1.143436670E0,-3.199481964E-2,5.009470940E0
3.864718217E1,-3.646184802E-1,3.700656891E0,1.900491476E0
3.867084217E1,1.098600626E-1,4.216418266E0,8.890843391E-2
3.869450217E1,5.116342306E-1,2.916163445E0,-1.101353884E0
3.871816222E1,-1.988134742E0,1.240664005E0,-1.941871643E-1
3.874182222E1,3.700541258E0,-8.980592728E0,-5.816171646E0
3.876548222E1,6.690016747E0,-1.625514984E1,-6.650534630E0
3.878914222E1,3.259571642E-2,1.915814877E0,-1.996458054E0
3.881280227E1,-8.034325838E-1,6.136988640E0,-8.223487854E0
3.883646227E1,3.414375067E0,1.076208115E0,-8.408535004E0
3.886012227E1,6.080154419E0,-3.756558418E0,-4.429214478E0
3.888378227E1,3.136286020E0,-5.449800491E-1,5.948057652E0
3.890744227E1,8.702073097E-1,-9.558954239E-1,2.388341188E0
3.893110232E1,-9.792277813E-1,-1.882658005E-1,-1.475662708E0
3.895476232E1,-7.910380363E-1,2.487222672E0,-4.890502453E0
3.897842232E1,-6.026366353E-1,3.083441734E0,-5.170334816E0
3.900208232E1,-2.621098757E0,1.164579391E0,2.212409496E0
3.902574232E1,-3.610352039E0,-5.349750519E-1,5.375493050E0
3.904940237E1,-2.092591763E0,-3.114595413E-1,3.881420612E0
3.907306237E1,-1.584984779E0,-1.295747757E-1,1.917576909E0
3.909672237E1,-1.809232593E0,-4.561786652E-1,-3.136658669E-1
3.912038237E1,-2.370577812E0,-4.709043503E-1,3.449696302E-1
3.914404243E1,-3.046399593E0,1.441431046E-1,4.086370468E0
3.916770243E1,-7.388021350E-1,-1.318890572E0,5.824550629E0
3.919136243E1,-1.693385839E-1,-3.994948387E0,2.386474609E-2
3.921502243E1,-3.859697819E0,-2.963593483E0,3.256462574E0
3.923868243E1,-3.784748554E0,-2.962924957E0,5.566551208E0
3.926234248E1,-5.064106941E0,-4.300018311E0,3.425109625E0
3.928600248E1,-1.444642425E0,-3.960232735E0,8.032155037E0
3.930966248E1,9.792654514E-1,-3.145888329E0,1.015174007E1
3.933332248E1,-3.238531947E-1,-2.401762009E0,-2.582185268E0
3.935698253E1,4.758059978E-1,-1.645117760E0,-4.826575756E0
3.938064253E1,1.326305151E0,-2.875239372E0,-2.930199146E0
3.940430253E1,3.641590476E-3,-3.639840126E0,1.926586866E0
3.942796253E1,-1.152672291E0,-1.152624130E0,-4.988157749E-1
3.945162253E1,-1.205109119E0,1.263750076E0,-3.230933428E0
3.947528258E1,1.723877192E-1,1.776698112E0,-4.533703327E0
3.949894258E1,9.522581100E-1,1.941842079E0,-3.981641769E0
3.952260258E1,1.583751917E0,2.009829521E0,-2.731076241E0
3.954626258E1,2.014623404E0,1.657297611E0,-3.304701567E0
3.956992264E1,3.045377254E0,1.789284706E0,-5.756554604E0
3.959358264E1,3.511027336E0,3.713721275E0,-6.840459824E0
3.961724264E1,2.762048960E0,5.839884758E0,-3.447077513E0
3.964090264E1,3.817936897E0,5.251608849E0,6.688554287E-1
3.966456264E1,1.841881514E0,1.406933784E0,4.911374092E0
3.968822269E1,-2.535644054E0,-5.208933830E0,9.479204178E0
3.971188269E1,-4.265593886E-1,-5.676188469E0,6.259574413E0
3.973554269E1,2.597434521E0,2.736733437E0,2.661836386E0
3.975920274E1,5.177112579E0,8.223250389E0,2.208332062E0
3.978286274E1,3.359155416E0,-1.419459343E0,-2.359252214E0
3.980652274E1,5.316557407E0,-2.357353020E1,-8.298423767E0
3.983018274E1,-2.709010839E0,-2.780175209E0,-9.994400024E0
3.985384279E1,-5.603728890E-1,7.968562126E0,-1.185855389E0
3.987750279E1,8.445603251E-1,4.518468380E0,-7.492092133E0
3.990116279E1,4.156202793E0,-2.232750893E0,-3.513965607E0
3.992482284E1,3.361369133E0,-3.888292313E0,-1.208525658E0
3.994848284E1,-8.342729807E-1,1.439815521E0,3.735666990E0
3.997214284E1,-3.355857730E-1,1.042690277E-1,3.469794750E0
3.999580284E1,-9.989588261E-1,1.212212563E0,-2.313754797E0
4.001946284E1,-8.847181797E-1,2.958639145E0,-5.978007793E0
4.004312290E1,-8.277813196E-1,1.716431618E0,-3.290519714E0
4.006678290E1,-5.565904379E-1,-7.366819382E-1,3.608838081E0
4.009044290E1,-8.013113737E-1,-7.942066193E-1,5.078077793E0
4.011410290E1,-1.085699081E0,-7.373056412E-1,1.832022905E0
4.013776295E1,-1.326729655E0,-3.679256439E-1,7.098631263E-1
4.016142295E1,-1.921368718E0,4.462585449E-1,2.118853092E0
4.018508295E1,-3.081607103E0,-6.439905167E-1,4.534287453E0
4.020874295E1,-3.958595753E0,-2.226025581E0,2.203759909E0
4.023240300E1,-2.639373779E0,-2.403405190E0,1.366804600E0
4.025606300E1,-1.432433844E0,-2.083090782E0,4.160943985E0
4.027972300E1,-1.385972023E0,-1.245437622E0,7.589069843E0
4.030338305E1,-1.195434451E0,6.605587006E-1,7.689658642E0
4.032704305E1,-2.349076271E0,3.376083374E-1,4.616357803E0
4.035070305E1,-4.120747566E0,-2.885466576E0,-6.623834372E-3
4.037436305E1,-2.414550543E0,-4.532052040E0,-3.336437702E0
4.039802305E1,-7.549876720E-2,-6.744169235E0,-1.677916765E0
4.042168310E1,1.131548405E0,-7.054010391E0,1.987397671E-1
4.044534310E1,1.945983469E-1,-3.406221390E0,-7.113220692E-1
4.046900310E1,-5.841723680E-1,-1.297483444E0,-2.090047836E0
4.049266316E1,-4.008123875E-1,1.236009598E-1,-2.192497969E0
4.051632316E1,1.587466478E0,1.455349922E0,-2.539699554E0
4.053998316E1,2.819076300E0,2.112279892E0,-3.562111855E0
4.056364316E1,2.107925415E0,2.698001862E0,-1.281175375E0
4.058730321E1,1.950499773E0,3.250274658E0,-1.982289076E0
4.061096321E1,3.689250231E0,3.010383606E0,-5.973887444E0
4.063462321E1,4.540443897E0,3.551190853E0,-4.723225117E0
4.065828321E1,2.845056534E0,4.789691925E0,-2.552322626E0
4.068194326E1,1.883743048E0,3.403840065E0,-2.755627632E-1
4.070560326E1,2.126756310E-1,4.992256165E-1,3.339023352E0
4.072926326E1,-6.997705698E-1,-3.661065102E0,6.978220940E0
4.075292326E1,4.305207133E-1,-2.885449409E0,4.973357201E0
4.077658331E1,2.791282892E0,2.505808830E0,2.722298622E0
4.080024331E1,3.471962214E0,5.115183830E0,2.235449314E0
4.082390331E1,-1.480510950E0,3.742469311E0,3.572095871E0
4.084756336E1,-2.773873329E0,-5.912164688E0,-9.869441986E0
4.087122336E1,7.942152977E0,-1.831419754E1,-9.485046387E0
4.089488336E1,3.538762569E0,-1.919256210E0,-1.149898052E0
4.091854336E1,-8.737055659E-1,7.726932049E0,-2.477980137E0
4.094220342E1,2.195471287E0,-9.093732834E-1,-9.947042465E0
4.096586342E1,5.531158924E0,-6.073492050E0,-5.266095161E0
4.098952342E1,3.063756943E0,-2.026251793E0,-3.302504778E0
4.101318347E1,7.911410332E-1,2.489354134E0,1.357604027E0
4.103684347E1,-2.497398615E0,-1.921482086E-1,2.968726158E0
4.106050347E1,-1.762407303E0,1.583353043E0,-1.649590492E0
4.108416347E1,-2.674447000E-1,2.182372093E0,-4.394371510E0
4.110782352E1,-1.069886923E0,1.213409424E0,-9.195667505E-1
4.113148352E1,-4.033113956E0,5.881605148E-1,4.075360298E0
4.115514352E1,-4.164344311E0,-3.031396866E-1,5.252993107E0
4.117880352E1,-2.731227160E0,-2.749900818E-1,3.500571489E0
4.120246357E1,-2.209901571E0,7.306575775E-2,1.474865198E0
4.122612357E1,-2.864338875E0,8.115653992E-1,2.383517742E0
4.124978357E1,-2.203915119E0,6.194839478E-1,1.306364059E0
4.127344362E1,-1.504777551E0,-5.926799774E-1,4.349711835E-1
4.129710362E1,-1.816479683E0,-3.597416878E0,-3.505849242E-1
4.132076362E1,-1.418498635E0,-4.605085373E0,3.844608307E0
4.134442362E1,-2.732437134E0,-1.924153328E0,5.751458168E0
4.136808368E1,-4.997582436E0,-1.268818855E0,4.133922577E0
4.139174368E1,-5.078405857E0,-1.338415146E0,5.283542156E0
4.141540368E1,-4.068799973E0,-2.236495972E0,4.119445801E0
4.143906373E1,-1.876168013E0,-2.289396286E0,4.505825043E0
4.146272373E1,-4.693930149E-1,-2.924440384E0,-8.390896916E-1
4.148638373E1,1.154283524E0,-4.168204308E0,-2.809393167E0
4.151004373E1,3.204051495E0,-6.292802811E0,-1.327078938E0
4.153370378E1,2.080273628E0,-3.374155998E0,3.984144211E0
4.155736378E1,-1.071406007E0,1.296274185E0,-6.066620350E-1
4.158102378E1,-9.256397486E-1,2.696954727E0,-6.428532600E0
4.160468383E1,1.349586487E0,2.211938381E0,-6.009940147E0
4.162834383E1,1.870077133E0,2.421313286E0,-2.098265409E0
4.165200383E1,1.895195007E0,2.250983238E0,-1.320189118E0
4.167566383E1,2.422622681E0,1.099374771E0,-3.556992292E0
4.169932389E1,4.305163383E0,1.727752686E-1,-8.091208458E0
4.172298389E1,4.403974533E0,1.706518173E0,-4.476600647E0
4.174664389E1,4.805185318E0,3.310689449E0,-2.074117661E-1
4.177030394E1,2.561583281E0,3.462742329E0,2.123573542E0
4.179396394E1,7.165404558E-1,6.841077805E-1,2.907965660E0
4.181762394E1,-1.185513258E0,-8.490962982E-1,5.172612190E0
4.184128399E1,1.255237460E-1,-1.690805435E0,6.509964466E0
4.186494399E1,2.309543133E0,1.425453663E0,1.600502014E0
4.188860399E1,2.577919006E0,5.528512955E0,-1.380127788E0
4.191226404E1,2.318940163E0,7.431050777E0,-1.574685335E0
4.193592404E1,6.447733641E-1,4.141291618E0,-3.164360762E0
4.195958404E1,4.547820091E0,-2.192384720E1,2.067519188E0
4.198324404E1,3.914973021E0,-1.901686478E1,-1.050625420E1
4.200690409E1,-2.371309519E0,7.317158699E0,2.356701612E0
4.203056409E1,3.379941881E-1,4.963016987E0,-7.534987450E0
4.205422409E1,3.375831366E0,8.212709427E-1,-4.599682808E0
4.207788415E1,5.104559898E0,-4.016899109E0,-2.437355042E0
4.210154415E1,2.539427519E0,-1.878258705E0,-4.735950232E-1
4.212520415E1,-1.470665455E0,-6.786832809E-1,-1.807919741E-1
4.214886420E1,-1.698612213E0,1.147518158E0,-1.664191484E-2
4.217252420E1,-1.711478233E0,3.226191044E0,-7.829086781E-1
4.219618420E1,-2.082671881E0,2.738408089E0,-6.667184830E-1
4.221984420E1,-2.050383568E0,8.754177094E-1,3.169221163E0
4.224350425E1,-1.729038715E0,-2.530364990E-1,4.413397789E0
4.226716425E1,-9.846440554E-1,-9.464263916E-2,2.005542517E0
4.229082425E1,-1.645680428E0,6.603431702E-2,3.320721149E0
4.231448430E1,-2.921977520E0,2.602357864E-1,2.419758320E0
4.233814430E1,-3.269698143E0,5.859565735E-2,1.248359323E0
4.236180430E1,-2.599325180E0,-1.412300110E0,6.496896148E-1
4.238546435E1,-1.575562239E0,-2.617084503E0,1.661030769E0
4.240912435E1,-1.866440654E0,-2.531847954E0,2.189117193E0
4.243278435E1,-1.865493178E0,-2.018372536E0,4.405157089E0
4.245644441E1,-2.469595432E0,-1.301465034E0,6.980285168E0
4.248010441E1,-4.691394806E0,-6.206989288E-1,6.838763237E0
4.250376441E1,-6.279138565E0,-3.885463715E0,4.472908974E0
4.252742446E1,-2.878760099E0,-3.572679520E0,1.000352740E0
4.255108446E1,-1.983734250E0,-3.236138344E0,-2.264405251E0
4.257474446E1,8.047969341E-1,-6.333469391E0,-1.714930773E0
4.259840451E1,3.281172752E0,-6.269752502E0,1.862086773E0
4.262206451E1,2.728122234E0,-1.102622986E0,-1.684454560E0
4.264572451E1,-3.485437036E-1,1.857014179E0,-4.279620171E0
4.266938451E1,2.082122713E-1,2.087604523E0,-3.854228497E0
4.269304456E1,1.843723416E0,2.375383377E0,-1.552194834E0
4.271670456E1,1.986751199E0,2.990319252E0,-1.001254559E0
4.274036456E1,9.596753120E-1,2.827570915E0,-1.952785015E0
4.276402461E1,1.785136819E0,1.797939301E0,-6.320054054E0
4.278768461E1,2.890847206E0,2.096951962E0,-6.952713013E0
4.281134461E1,2.881592512E0,3.282159805E0,-4.119128704E0
4.283500467E1,3.323984146E0,4.238018513E0,-1.682086706E0
4.285866467E1,2.967056751E0,3.457715034E0,3.534667969E0
4.288232467E1,1.394894123E-1,-1.975031853E0,6.565241814E0
4.290598472E1,-1.711051345E0,-5.902813911E0,6.889871597E0
4.292964472E1,5.273783207E-1,-1.560362816E0,7.333757401E0
4.295330472E1,1.448640347E0,4.528790474E0,2.592896938E0
4.297696477E1,2.375429630E0,5.970198631E0,6.295418739E-1
4.300062477E1,2.725822926E0,5.597983837E0,-8.084624290E0
4.302428477E1,4.745804310E0,2.453938484E0,-4.632629395E0
4.304794482E1,4.579473495E0,-2.039818573E1,-8.252742767E0
4.307160482E1,2.393241167E0,-1.261022949E1,-8.943406105E0
4.309526482E1,-2.999072790E0,5.676132202E0,2.136936665E0
4.311892482E1,1.970331907E0,5.366802216E-2,-8.288393974E0
4.314258487E1,4.368279457E0,-3.799774170E0,-3.774258614E0
4.316624487E1,2.341078997E0,-2.566088676E0,4.581599236E-1
4.318990487E1,-8.138910532E-1,-2.495546341E-1,1.566273332E0
4.321356493E1,-1.430460691E0,1.219346046E0,2.003924370E0
4.323722493E1,-5.296156406E-1,2.954489708E0,-3.274737597E-1
4.326088493E1,-6.629943848E-1,3.438556671E0,-2.309244633E0
4.328454498E1,-1.589214802E0,2.740165710E0,-1.363943577E0
4.330820498E1,-2.517743349E0,5.030775070E-1,3.473461628E0
4.333186498E1,-2.337087154E0,-4.845571518E-1,6.207139492E0
4.335552503E1,-1.135988712E0,-1.238784790E-1,3.116546869E0
4.337918503E1,-1.366657019E0,1.475324631E-1,1.236435890E0
4.340284503E1,-2.408288479E0,-4.659795761E-1,6.775549054E-1
4.342650508E1,-3.165529966E0,-7.735729218E-1,1.091770411E0
4.345016508E1,-3.089207649E0,-1.194448471E0,6.600334644E-1
4.347382508E1,-2.315942287E0,-1.764111519E0,3.478070736E0
4.349748514E1,-2.726955891E0,-2.294278145E0,5.563229084E0
4.352114514E1,-2.588380337E0,-2.696654320E0,4.904292583E0
4.354480514E1,-4.317730904E0,-3.645888329E0,4.042149067E0
4.356846519E1,-4.965807438E0,-5.376076698E0,2.764455795E0
4.359212519E1,-1.298624158E0,-1.972369194E0,9.830092430E0
4.361578519E1,-9.981917143E-1,-1.354815483E0,-9.969170094E-1
4.363944524E1,-9.423179552E-3,-1.186225891E0,-3.949495316E0
4.366310524E1,1.563370824E0,-5.145529747E0,-3.086225033E0
4.368676524E1,1.106952667E0,-7.613120079E0,2.408493757E0
4.371042529E1,-1.594059229E0,-2.288985252E0,-2.513666153E-1
4.373408529E1,-1.592394233E0,1.859261513E0,-4.771182537E0
4.375774529E1,8.878637552E-1,2.716414452E0,-6.484236717E0
4.378140534E1,2.371565342E0,2.910199165E0,-3.181674480E0
4.380506534E1,2.224368095E0,3.382013798E0,-3.945481777E-1
4.382872534E1,2.254354477E0,3.551371574E0,-2.962262630E0
4.385238540E1,3.695069313E0,3.071986675E0,-7.084647179E0
4.387604540E1,4.229211807E0,2.771791458E0,-6.123774052E0
4.389970540E1,3.225235462E0,3.798103333E0,-2.465262890E0
4.392336545E1,2.490151405E0,3.630142689E0,1.211256027E0
4.394702545E1,2.617428899E-1,-1.227226257E-1,5.371248245E0
4.397068545E1,-2.544762135E0,-4.881092072E0,7.402556896E0
4.399434550E1,-1.760975122E-1,-4.988674164E0,5.930761337E0
4.401800550E1,2.171730995E0,2.970829487E0,4.693687916E0
4.404166550E1,2.811185122E0,7.037787437E0,1.216078520E0
4.406532555E1,-1.910436153E0,5.701801777E0,-1.034489870E0
4.408898555E1,6.018635631E-1,-1.084940434E1,-1.053668213E1
4.411264555E1,4.965951443E0,-1.905730438E1,-8.103919983E0
4.413630560E1,3.372992039E0,5.029325485E-1,2.038812399E0
4.415996560E1,-1.992826223E0,7.680230141E0,-6.779657364E0
4.418362560E1,5.852321386E-1,1.517992496E0,-8.305845261E0
4.420728566E1,4.321608067E0,-3.830553055E0,-3.870607376E0
4.423094566E1,3.818076372E0,-2.516031265E0,-2.568226814E0
4.425460566E1,1.983486056E0,2.516744614E0,4.289674759E0
4.427826571E1,-6.806735396E-1,2.609586716E-1,1.377297878E0
4.430192571E1,-1.413821220E0,1.162399292E0,-3.465990067E0
4.432558571E1,-7.565770149E-1,2.353385925E0,-5.247239113E0
4.434924576E1,-1.579872131E0,1.105289459E0,-6.935322881E-1
4.437290576E1,-3.340643406E0,-8.945369720E-2,5.520654678E0
4.439656576E1,-2.915846109E0,-2.053670883E-1,5.111666203E0
4.442022581E1,-1.571549654E0,1.265325546E-1,3.073436499E0
4.444388581E1,-1.059636831E0,7.110280991E-1,1.693087935E0
4.446754581E1,-1.518034935E0,7.410011292E-1,1.130633116E0
4.449120586E1,-1.940569878E0,-2.042665482E-1,2.441714764E0
4.451486586E1,-2.622328758E0,-3.508656502E0,2.597320080E0
4.453852592E1,-4.193403244E0,-3.401639938E0,3.647598743E0
4.456218592E1,-6.167088032E0,-2.206671715E0,3.040487528E0
4.458584592E1,-5.832251549E0,-3.525876999E0,5.284633636E0
4.460950592E1,-4.247335434E0,-5.963726044E0,1.846977592E0
4.463316597E1,1.246617317E0,-3.057773590E0,1.335420513E1
4.465682597E1,1.998698115E-1,-2.321743011E0,3.038192987E0
4.468048602E1,2.130833268E-1,-7.449789047E-1,-5.250524521E0
4.470414602E1,8.719541430E-1,-1.346529961E0,-4.641311646E0
4.472780602E1,1.732317209E0,-5.060823441E0,1.478953838E0
4.475146602E1,5.954724550E-1,-5.002006531E0,2.072943449E0
4.477512607E1,-1.047700167E0,-8.633747101E-1,-3.374627590E0
4.479878607E1,-5.687268972E-1,2.035849571E0,-5.149753571E0
4.482244612E1,9.338711500E-1,3.214972019E0,-4.185858250E0
4.484610612E1,1.750195503E0,3.463378906E0,-1.663607359E0
4.486976612E1,1.821201086E0,2.662698746E0,-2.151821613E0
4.489342618E1,1.951307893E0,1.936460495E0,-4.422578812E0
4.491708618E1,2.522670269E0,1.944171906E0,-6.467645645E0
4.494074618E1,2.674090147E0,3.755473137E0,-4.953877449E0
4.496440623E1,3.726402521E0,4.714635849E0,-2.729105234E0
4.498806623E1,4.645750999E0,3.068472385E0,2.743638277E0
4.501172623E1,-2.755337358E-1,-3.477478027E0,7.011003494E0
4.503538628E1,-2.623188734E0,-6.030148506E0,6.628372192E0
4.505904628E1,6.478376389E-1,1.156364441E0,4.423305511E0
4.508270628E1,2.230504513E0,7.158219337E0,3.612905264E0
4.510636633E1,2.370268822E0,6.415489197E0,-6.473174095E-1
4.513002633E1,1.481968403E0,-7.287034988E-1,-9.816560745E0
4.515368638E1,7.809150219E0,-2.063743019E1,2.084383965E-1
4.517734638E1,1.335289240E0,-1.260027409E1,-7.125758171E0
4.520100638E1,-2.512037277E0,6.272643566E0,-3.697705746E0
4.522466639E1,2.540994883E-1,5.137421608E0,-9.375550270E0
4.524832644E1,2.995279551E0,6.690826416E-1,-4.796164513E0
4.527198644E1,4.999241829E0,-3.687219620E0,-3.452135563E0
4.529564649E1,2.332741499E0,-1.155440331E0,-5.544102192E-1
4.531930649E1,-3.218043447E-1,-1.762199402E-2,2.734402657E0
4.534296649E1,-1.525916815E0,1.372423172E-1,1.090563536E0
4.536662654E1,-9.107587337E-1,2.830168724E0,-3.422756195E0
4.539028654E1,-1.274393320E0,2.616051674E0,-2.378464460E0
4.541394654E1,-2.301771164E0,7.330398560E-1,3.291946650E0
4.543760659E1,-2.893843651E0,-7.346429825E-1,6.580064774E0
4.546126659E1,-2.066888094E0,-2.544155121E-1,3.972381592E0
4.548492659E1,-1.569908619E0,4.416732788E-1,2.263276815E0
4.550858664E1,-1.914647698E0,8.019161224E-2,1.574082971E-1
4.553224664E1,-3.092549086E0,-7.836532593E-2,1.203474283E0
4.555590670E1,-3.586881161E0,-7.297401428E-1,3.365900517E0
4.557956670E1,-2.839964390E0,-2.949989319E0,1.009134173E0
4.560322670E1,-2.873306751E0,-3.141750336E0,1.647874832E0
4.562688675E1,-2.754242897E0,-3.074875832E0,5.811904907E0
4.565054675E1,-1.643162370E0,-4.484898567E0,6.430808067E0
4.567420675E1,-3.666029930E0,-6.352341652E0,3.099321365E0
4.569786680E1,-1.386508465E0,-1.050374031E0,1.041425705E1
4.572152680E1,-1.592899561E0,-6.300563812E-1,-7.876151800E-2
4.574518685E1,7.650785446E-1,-4.054737091E-1,-5.785225868E0
4.576884685E1,1.437127352E0,-1.731317520E0,-2.292914629E0
4.579250685E1,1.048983812E0,-5.238456726E0,3.394301176E0
4.581616691E1,-8.009994030E-1,-2.913105011E0,3.008165359E-1
4.583982691E1,-1.673475862E0,7.046575546E-1,-3.974843264E0
4.586348691E1,-2.069556475E0,2.714533806E0,-5.205904007E0
4.588714696E1,2.552885413E-1,2.886191368E0,-2.707039356E0
4.591080696E1,1.448369026E0,3.237745285E0,-4.139080048E-1
4.593446696E1,1.941005826E0,2.524840355E0,-3.317940950E0
4.595812701E1,2.928293228E0,1.692693710E0,-7.565020561E0
4.598178701E1,2.465127468E0,2.408844948E0,-6.764428616E0
4.600544701E1,2.878889084E0,3.538091660E0,-3.103941441E0
4.602910706E1,4.889972687E0,2.513739586E0,1.593610525E0
4.605276706E1,1.016004920E0,-1.702919006E-1,5.478988647E0
4.607642711E1,-3.589684248E0,-4.638480186E0,7.449251175E0
4.610008711E1,1.267968416E0,-2.665924072E0,1.361049175E0
4.612374711E1,3.862297058E0,4.047659397E0,4.609395027E0
4.614740717E1,5.693423271E0,6.154924393E0,8.212709427E-1
4.617106717E1,3.686158180E0,6.770687103E-1,-5.709540367E0
4.619472717E1,7.947593212E0,-2.188281250E1,-2.246304035E0
4.621838722E1,-2.515934229E0,-6.775080681E0,-8.071924210E0
4.624204722E1,-1.794885993E0,5.041413784E0,-6.442687511E0
4.626570722E1,5.871067047E-1,3.690368652E0,-7.428302288E0
4.628936727E1,3.131127834E0,-7.790050507E-1,-3.826416016E0
4.631302727E1,2.657255888E0,-1.499327660E0,-6.351721287E-1
4.633668732E1,7.141097188E-1,-1.107201576E0,3.771705151E0
4.636034732E1,-1.350932121E0,-1.420291901E0,1.180711150E0
4.638400732E1,-4.854848981E-1,1.184291840E0,-3.925843716E0
4.640766737E1,-4.873932898E-1,3.476609707E0,-3.685970068E0
4.643132737E1,-1.293131232E0,2.830765247E0,-1.004282117E0
4.645498737E1,-2.873343706E0,4.100303650E-1,6.762813091E0
4.647864743E1,-2.710931301E0,-1.144484520E0,4.935331345E0
4.650230743E1,-2.874154091E0,1.002912521E-1,4.497219563E0
4.652596748E1,-2.367576838E0,7.095670700E-1,1.018998742E0
4.654962748E1,-2.740870476E0,3.668069839E-1,8.005432487E-1
4.657328748E1,-3.190282583E0,-4.971027374E-1,1.151337862E0
4.659694753E1,-2.682407856E0,-2.199435234E0,2.327149391E0
4.662060753E1,-2.126277924E0,-3.678857803E0,3.055635452E0
4.664426753E1,-3.965286970E0,-2.276592255E0,4.409090042E0
4.666792758E1,-4.110207558E0,-1.963492393E0,6.697269917E0
4.669158758E1,-5.556001663E0,-2.717830658E0,5.355422497E0
4.671524758E1,-3.924914837E0,-4.048057556E0,7.637170315E0
4.673890764E1,-1.970046043E0,-3.604341507E0,2.726904631E0
4.676256764E1,-8.473049998E-1,-3.494140625E0,-6.129898071E0
4.678622764E1,1.915714741E0,-5.651169777E0,-5.944548607E0
4.680988769E1,3.110338688E0,-7.366951942E0,3.461501360E0
4.683354769E1,6.980460286E-1,-2.522984505E0,2.059890747E0
4.685720774E1,-1.159398079E0,1.556735039E0,-4.459742546E0
4.688086774E1,-6.496593356E-3,2.713201523E0,-7.522393227E0
4.690452774E1,1.194715023E0,3.329412460E0,-3.837522507E0
4.692818779E1,1.861060858E0,4.013805389E0,-1.453715682E0
4.695184779E1,1.249342322E0,3.998909950E0,-2.753786564E0
4.697550779E1,1.599087596E0,3.057869911E0,-6.698615074E0
4.699916784E1,2.754154682E0,1.884503365E0,-8.125013351E0
4.702282784E1,3.754589796E0,1.784993172E0,-3.665647268E0
4.704648790E1,4.734015465E0,1.893976212E0,3.359692097E-1
4.707014790E1,2.713041544E0,-1.922292709E-1,5.283178329E0
4.709380790E1,-1.957358599E0,-3.989901543E0,5.937166214E0
4.711746795E1,3.297631741E-1,-2.549191475E0,5.387154102E0
4.714112795E1,2.800610065E0,4.354571342E0,3.402025461E0
4.716478795E1,4.393460274E0,6.093602657E0,2.520337582E0
4.718844800E1,-8.477052450E-1,5.160084248E0,-2.672254801E0
4.721210800E1,-1.007131577E0,-3.107865334E0,-8.007961273E0
4.723576800E1,6.777452946E0,-2.293430710E1,2.247012377E0
4.725942805E1,1.354073167E0,-7.948638916E0,-7.734212875E0
4.728308805E1,-1.021652460E0,8.453507423E0,6.125802994E-1
4.730674810E1,-1.975218654E-1,5.534770966E0,-1.266068649E1
4.733040810E1,3.751595974E0,-1.797669411E0,-5.999494553E0
4.735406810E1,4.586587906E0,-5.014713287E0,-2.781333208E0
4.737772816E1,1.702337503E0,-1.829785347E0,7.238852978E-2
4.740138816E1,-1.080755234E0,4.765501022E-1,4.876927376E0
4.742504816E1,-2.087177038E0,-2.948875427E-1,-5.904527903E-1
4.744870821E1,-1.116740942E0,1.962903500E0,-4.776432037E0
4.747236821E1,-1.005756617E0,3.478765488E0,-2.692825556E0
4.749602826E1,-1.066254139E0,1.727000237E0,3.440219402E0
4.751968826E1,-1.891280413E0,-2.124319077E-1,5.517177582E0
4.754334826E1,-1.759430647E0,-9.566688538E-1,3.238962173E0
4.756700831E1,-2.350333452E0,9.214401245E-3,3.610752583E0
4.759066831E1,-2.375650644E0,1.752157211E-1,1.578514099E0
4.761432831E1,-2.747742653E0,7.058849335E-1,-3.191031218E-1
4.763798836E1,-2.967873573E0,-5.076494217E-1,2.298508644E0
4.766164836E1,-1.668320775E0,-4.206293106E0,3.288823366E0
4.768530836E1,-1.000357628E0,-3.123311043E0,3.162987232E0
4.770896842E1,-2.612791300E0,-1.772165298E0,5.375904083E0
4.773262842E1,-4.035280228E0,-2.201639175E0,7.943143368E0
4.775628847E1,-6.793168545E0,-5.100028992E0,1.818644285E0
4.777994847E1,-8.773334026E-1,-2.097158432E0,6.332709789E0
4.780360847E1,-1.310721159E0,-1.051544189E0,4.888736248E0
4.782726852E1,-5.311784148E-2,-2.599642754E0,-3.940386295E0
4.785092852E1,1.497074127E0,-4.696678162E0,-3.398655176E0
4.787458852E1,1.977680326E0,-6.807425499E0,3.535301924E0
4.789824857E1,-3.132908344E-1,-3.009516716E0,1.830361128E0
4.792190857E1,-1.230184793E0,3.280076981E-1,-5.357954025E0
4.794556862E1,-8.531036377E-1,2.101280212E0,-5.413427353E0
4.796922862E1,5.408231020E-1,2.971445084E0,-3.064378738E0
4.799288862E1,1.482757092E0,3.356912613E0,-2.570673466E0
4.801654868E1,2.218422651E0,2.903852940E0,-3.037718534E0
4.804020868E1,2.298347950E0,2.666687012E0,-5.972906113E0
4.806386868E1,2.755577564E0,3.412167549E0,-6.951573372E0
4.808752873E1,2.001576185E0,5.280423164E0,-3.309033155E0
4.811118873E1,4.508584023E0,3.996680737E0,8.574318886E-1
4.813484878E1,8.422179222E-1,-3.280639648E-3,4.706789494E0
4.815850878E1,-3.185868979E0,-5.356077194E0,7.033226967E0
4.818216878E1,1.520444036E0,-2.444085121E0,5.158164024E0
4.820582883E1,4.418244362E0,5.837094307E0,3.618544102E0
4.822948883E1,5.554712772E0,7.864143372E0,6.858313560E0
4.825314883E1,3.003452420E-1,-1.126410198E1,-1.503884554E0
4.827680888E1,5.075190544E0,-2.080625343E1,-2.415372467E1
4.830046888E1,-3.990533650E-1,4.340939045E0,-3.283325672E0
4.832412888E1,-1.518199801E0,8.105201721E0,-8.038143158E0
4.834778894E1,2.559105158E0,8.914871216E-1,-8.476593971E0
4.837144894E1,5.183874130E0,-6.346953392E0,-4.325959206E0
4.839510899E1,1.410990119E0,-4.368650436E0,6.393990517E-1
4.841876899E1,-2.750654221E0,-3.514680862E-1,5.636743546E0
4.844242899E1,-2.347343922E0,-1.878471375E-1,1.442411423E0
4.846608904E1,-1.581048012E0,1.622074127E0,-4.238768578E0
4.848974904E1,-5.799846649E-1,3.423410416E0,-5.366187096E0
4.851340904E1,-4.591331482E-1,3.930908680E0,-1.738058090E0
4.853706909E1,9.901791215E-1,7.000627518E-1,7.509582043E0
4.856072909E1,-1.434910297E0,-1.164700508E0,3.734534979E0
4.858438914E1,-2.606516361E0,-3.400363922E-1,2.823129177E0
4.860804914E1,-2.494148254E0,4.460477829E-1,2.864299297E0
4.863170914E1,-2.423566341E0,-5.524539948E-2,1.436024904E0
4.865536920E1,-2.881272078E0,-1.589345932E-1,1.846430302E0
4.867902920E1,-2.588473320E0,-3.535868645E0,2.324937344E0
4.870268920E1,-3.379969120E0,-3.216597557E0,2.925994873E0
4.872634925E1,-5.408171177E0,-2.459027290E0,3.893444300E0
4.875000925E1,-4.627810478E0,-3.389597893E0,5.212622643E0
4.877366930E1,-5.094484806E0,-5.366922379E0,2.404233932E0
4.879732930E1,-1.366567850E0,-2.946252823E0,9.595830917E0
