"Time (s)","Acceleration x (m/s^2)","Acceleration y (m/s^2)","Acceleration z (m/s^2)"
0.000000000E0,6.660228729E0,-2.948775291E0,9.559434891E0
2.000000000E-2,5.314112663E0,-2.594165564E0,9.756888390E0
4.000000000E-2,4.977238655E0,-2.347246647E0,8.584429741E0
6.000000000E-2,5.842082024E0,-2.083597183E0,7.546284199E0
8.000000000E-2,6.209620476E0,-1.804461956E0,6.868495464E0
1.000000000E-1,6.163671494E0,-2.596387148E0,6.949438572E0
1.200000000E-1,5.596149445E0,-3.746877670E0,7.255905628E0
1.400000000E-1,5.191194534E0,-3.318727493E0,7.958163738E0
1.600000000E-1,4.405714512E0,-3.059761047E0,8.146137238E0
1.800015620E-1,3.975648403E0,-3.277192831E0,8.731940269E0
2.020000000E-1,3.592288971E0,-3.743602514E0,9.110559464E0
2.220015620E-1,3.435373068E0,-3.853113174E0,9.413187027E0
2.440000000E-1,3.315480947E0,-4.008162022E0,9.666924477E0
2.640015620E-1,3.827351570E0,-4.080955029E0,9.220013618E0
2.840078120E-1,4.441272736E0,-3.862881660E0,8.445547104E0
3.060000000E-1,5.269714355E0,-3.597766876E0,7.552135944E0
3.260000000E-1,5.616289616E0,-2.628651619E0,7.115873814E0
3.460000000E-1,5.339462280E0,-1.958935738E0,7.110453606E0
3.660000000E-1,4.987744808E0,-9.545203447E-1,7.002618790E0
3.860000000E-1,5.654865265E0,-4.479551315E-1,6.164140701E0
4.080000000E-1,6.660659790E0,-2.952625453E-1,5.267330170E0
4.280000000E-1,7.769328117E0,-4.109982252E-1,5.269791126E0
4.480000000E-1,9.565716743E0,-1.817227840E0,6.279569626E0
4.700000000E-1,1.019384098E1,-2.525739193E0,7.333305836E0
4.900000000E-1,8.995265007E0,-2.697183132E0,8.520083427E0
5.120000000E-1,7.275165081E0,-2.779285192E0,1.049059677E1
5.320000000E-1,6.616711617E0,-3.431082487E0,1.129950237E1
5.520000000E-1,7.023629665E0,-4.280392170E0,1.186629581E1
5.720015620E-1,7.526996613E0,-5.203577042E0,1.143115425E1
5.940000000E-1,8.559223175E0,-5.633805752E0,1.060949326E1
6.140000000E-1,8.122425079E0,-5.600554466E0,9.916639328E0
6.340000000E-1,7.387002945E0,-5.157033920E0,8.908518791E0
6.540000000E-1,8.932479858E0,-4.930197716E0,8.048300743E0
6.740015620E-1,8.210560799E0,-5.037744999E0,8.082155228E0
6.960000000E-1,7.618052959E0,-3.625922680E0,6.899456978E0
7.160000000E-1,7.755298138E0,-2.887876511E0,5.482434750E0
7.360000000E-1,7.496207237E0,-2.419245005E0,4.191462040E0
7.560000000E-1,7.264553547E0,-1.292236805E0,3.347256899E0
7.760015620E-1,6.671241760E0,-3.932715654E-1,2.824851513E0
7.980000000E-1,6.164456367E0,5.210740566E-1,2.096439600E0
8.180000000E-1,5.447077274E0,9.949919581E-1,2.541655779E0
8.380000000E-1,5.642855644E0,1.022372007E0,2.264071941E0
8.580000000E-1,5.795816422E0,1.176242590E0,2.053592920E0
8.780000000E-1,4.976549149E0,1.608692884E0,3.508434296E0
8.980000000E-1,4.398761272E0,1.692355871E0,3.689503193E0
9.180000000E-1,4.790864944E0,9.663093686E-1,4.330498219E0
9.380015620E-1,5.456529140E0,4.254783690E-1,5.006064892E0
9.600000000E-1,6.729985714E0,5.950835943E-1,5.813198090E0
9.800000000E-1,7.604501724E0,9.927988052E-1,5.168726921E0
1.000000000E0,8.276152611E0,1.298768163E0,3.929766178E0
1.020000000E0,8.585166931E0,1.322518706E0,3.642289639E0
1.040001562E0,8.580819130E0,1.019700050E0,4.574783325E0
1.062000000E0,8.812702179E0,5.463855863E-1,4.563922882E0
1.082000000E0,8.562718391E0,6.816675663E-1,4.524562359E0
1.102000000E0,8.187269211E0,2.321896851E-1,4.055997849E0
1.122000000E0,7.677639484E0,2.183224708E-1,4.170182228E0
1.142000000E0,8.106882095E0,2.459515482E-1,3.863350868E0
1.162000000E0,8.870795250E0,-1.344104707E-1,3.763905287E0
1.182000000E0,9.145256996E0,-7.229340076E-1,4.627723694E0
1.202000000E0,8.262965202E0,2.064951062E-1,5.169905186E0
1.222001562E0,8.667479515E0,9.205226302E-1,4.481074333E0
1.244012500E0,8.731499672E0,9.693165421E-1,3.870907068E0
1.266001562E0,9.090103149E0,4.694550633E-1,4.103077412E0
1.286020312E0,9.430655479E0,-7.481018901E-1,4.873617649E0
1.308001562E0,1.085305977E1,-1.591454625E0,5.542567253E0
1.330000000E0,1.000467014E1,-2.964845181E0,9.183860779E0
1.350020312E0,9.105340958E0,-2.520653725E0,1.002383327E1
1.372000000E0,7.335134983E0,-2.074499369E0,1.003966331E1
1.392000000E0,7.276304722E0,-2.767898083E0,9.083265305E0
1.412000000E0,7.493295670E0,-3.397276402E0,8.125796318E0
1.432001562E0,6.789745331E0,-3.565473795E0,6.653601646E0
1.454001562E0,7.144546986E0,-2.806693792E0,5.872450352E0
1.474007812E0,8.146165848E0,-1.590908647E0,4.500505447E0
1.496001562E0,7.619882107E0,-1.231069803E0,3.400226116E0
1.516001562E0,7.399107933E0,-4.340496361E-1,4.484100819E0
1.536001562E0,7.076953411E0,1.846982986E-1,1.948899269E0
1.556001562E0,5.633029938E0,1.979123831E0,2.408490181E0
1.578000000E0,4.549691677E0,2.225362509E-1,4.721911430E0
1.598000000E0,3.556079149E0,7.071034908E-1,6.773043633E0
1.618000000E0,4.092782497E0,2.903879285E-1,6.825342178E0
1.638001562E0,6.171016693E0,-7.565485835E-1,5.771912575E0
1.660000000E0,7.280384064E0,-9.121429324E-1,4.391435146E0
1.680001562E0,7.215281487E0,-5.454565883E-1,3.851513863E0
1.700001562E0,7.041509628E0,1.125562117E-1,3.003449440E0
1.722000000E0,8.009944916E0,4.333313704E-1,2.558281183E0
1.742000000E0,8.909111977E0,6.823474765E-1,2.304648876E0
1.762000000E0,9.921839714E0,3.463643789E-1,2.578306198E0
1.782001562E0,1.068172169E1,-8.816408366E-2,2.886028051E0
1.802001562E0,1.084581089E1,-8.874252439E-1,3.203154564E0
1.824000000E0,1.089871311E1,-1.472797990E0,3.757948399E0
1.844012500E0,1.217301178E1,-1.977131724E0,3.818042994E0
1.866000000E0,1.371267605E1,-3.473843098E0,3.600496292E0
1.886000000E0,1.355283928E1,-4.735712051E0,3.489117861E0
1.906000000E0,1.228844166E1,-4.183091640E0,3.980111361E0
1.926000000E0,1.098258591E1,-3.585939407E0,4.127067566E0
1.946000000E0,1.054493523E1,-3.130389929E0,4.852989197E0
1.966000000E0,9.921495438E0,-2.150433540E0,4.717793465E0
1.986001562E0,8.936520576E0,-1.100355983E0,5.197821140E0
2.008000000E0,8.889613152E0,-8.954793215E-1,5.648889065E0
2.028000000E0,9.974100113E0,-1.914671898E0,5.691802502E0
2.048000000E0,1.081745338E1,-2.861176252E0,5.480126381E0
2.068000000E0,1.133849907E1,-3.742118120E0,4.950854778E0
2.088018750E0,1.136234474E1,-4.602402687E0,4.241893768E0
2.110000000E0,1.089892292E1,-6.199306488E0,3.370738983E0
2.130000000E0,1.029534435E1,-7.344357491E0,3.023110628E0
2.150020312E0,1.032190132E1,-7.677697182E0,4.189450741E0
2.172000000E0,1.140627384E1,-8.178851128E0,5.191893578E0
2.192000000E0,1.179848289E1,-7.692531586E0,3.562256098E0
2.212000000E0,1.180833721E1,-7.317570686E0,2.294669867E0
2.234000000E0,1.232745743E1,-8.048673630E0,1.731515408E0
2.254000000E0,1.310097599E1,-9.495279312E0,1.130714536E0
2.274007812E0,1.336109161E1,-1.049917793E1,-8.300217986E-2
2.296000000E0,1.362954903E1,-1.101189995E1,-1.568010598E-1
2.316000000E0,1.438422012E1,-1.142015076E1,-2.364417911E-1
2.336000000E0,1.473021126E1,-1.166095066E1,-1.659708500E0
2.356000000E0,1.380826187E1,-1.068772602E1,-3.194650412E0
2.376004687E0,1.210996819E1,-8.993684769E0,-3.847252131E0
2.398000000E0,1.076027012E1,-7.373987675E0,-3.345580816E0
2.418000000E0,1.000862503E1,-6.496120453E0,-3.301881790E0
2.438000000E0,9.024445534E0,-5.850614548E0,-2.800248861E0
2.458000000E0,8.352977753E0,-5.588009357E0,-1.473966360E0
2.478000000E0,7.823992729E0,-5.347286701E0,-8.535041213E-1
2.498000000E0,7.971532822E0,-5.506606579E0,-9.684833288E-1
2.518000000E0,7.972634315E0,-5.420932293E0,-7.975181937E-1
2.538000000E0,7.463789463E0,-4.954216480E0,-6.917327046E-1
2.558000000E0,7.067434788E0,-5.201460361E0,-4.864634573E-1
2.578000000E0,7.168172836E0,-5.885800362E0,-7.084921598E-1
2.598000000E0,7.243561745E0,-6.222807884E0,-7.923658490E-1
2.618000000E0,7.408042908E0,-5.469237804E0,-6.507631540E-1
2.638000000E0,7.706178665E0,-5.619488239E0,-9.545586705E-1
2.658000000E0,7.805710316E0,-6.309267521E0,-1.277507663E0
2.678000000E0,7.227079391E0,-6.156861782E0,-1.013063312E0
2.698000000E0,6.407832146E0,-4.886738300E0,-4.373631775E-1
2.718000000E0,6.270758629E0,-3.520491600E0,-3.873435259E-1
2.738000000E0,6.482875347E0,-1.899550080E0,-4.514219463E-1
2.758000000E0,6.667401791E0,-1.005813718E0,-5.419610739E-1
2.778000000E0,6.534915924E0,-9.738367200E-1,-4.885511994E-1
2.798000000E0,6.400946140E0,-2.004253387E0,-2.072516829E-1
2.818000000E0,7.444808483E0,-2.799741268E0,3.863954246E-1
2.838000000E0,9.124025345E0,-3.279328346E0,-1.122880653E-1
2.858000000E0,1.080197716E1,-4.172203064E0,-1.591282248E0
2.878000000E0,1.161786366E1,-4.695374489E0,-2.458146095E0
2.898000000E0,1.213365173E1,-4.418556690E0,-1.973712921E0
2.918000000E0,1.385416317E1,-4.695250034E0,-1.163984299E0
2.938000000E0,1.530615044E1,-4.878262520E0,-4.558751583E-1
2.958001562E0,1.592784882E1,-4.164885998E0,7.516644001E-1
2.980001562E0,1.651563454E1,-2.362952709E0,1.644462228E0
3.002000000E0,1.884653282E1,-1.127257228E0,2.490917921E0
3.022000000E0,1.955457687E1,-9.421758652E-1,1.534788609E0
3.042000000E0,1.776829147E1,2.534118891E-1,1.711844563E0
3.062000000E0,1.546562386E1,1.397055030E0,2.705754280E0
3.082000000E0,1.395543766E1,2.144113064E0,2.781305790E0
3.102000000E0,1.374853134E1,-2.543408275E-1,3.617456675E0
3.122000000E0,1.260067368E1,-2.418651342E0,5.138033867E0
3.142000000E0,1.138586521E1,-3.099217415E0,6.918773651E0
3.162000000E0,1.132089615E1,-2.863905668E0,6.652557850E0
3.182000000E0,1.207071304E1,-3.364916563E0,4.720724106E0
3.202000000E0,1.408504963E1,-5.135629654E0,3.193357468E0
3.222000000E0,1.465170956E1,-6.345697880E0,2.645468235E0
3.244007812E0,1.278575516E1,-5.299469948E0,4.797913074E0
3.266000000E0,1.064152718E1,-4.366008759E0,5.221677303E0
3.286025000E0,1.054576874E1,-5.045464039E0,4.098720074E0
3.308000000E0,1.243069553E1,-7.453312397E0,2.879601955E0
3.328000000E0,1.433993626E1,-8.966371536E0,2.620243073E0
3.348000000E0,1.690304565E1,-1.116955471E1,2.538045406E0
3.368006250E0,2.020481300E1,-1.418715858E1,2.326809883E0
3.390000000E0,2.091684723E1,-1.529039669E1,1.576916933E0
3.410000000E0,1.702053261E1,-1.429998207E1,-4.455800653E-1
3.430000000E0,1.196905422E1,-1.227975464E1,-1.955967069E0
3.450018750E0,8.141022682E0,-8.769616127E0,-2.496683121E0
3.472000000E0,6.923150539E0,-6.925726414E0,-1.960726738E0
3.492000000E0,7.320156574E0,-6.258950710E0,-1.575748682E0
3.512000000E0,7.839028358E0,-5.994429588E0,-1.193356276E0
3.532000000E0,7.864061832E0,-6.183198452E0,-8.569326997E-1
3.552000000E0,7.684352875E0,-5.919999123E0,-3.562093079E-1
3.572000000E0,7.977029800E0,-5.644713402E0,2.901772410E-2
3.592000000E0,9.340824127E0,-5.932946682E0,-7.862558961E-2
3.614000000E0,1.157841682E1,-7.750212669E0,-3.259370327E-1
3.634003125E0,1.277323818E1,-9.373682976E0,-1.563011527E0
3.656000000E0,1.134972286E1,-9.596104622E0,-1.746168017E0
3.676000000E0,8.727766037E0,-8.716282845E0,-6.949505806E-1
3.696001562E0,6.463875294E0,-7.418175220E0,6.018161178E-1
3.718000000E0,5.096709251E0,-6.034451008E0,1.019929886E0
3.738000000E0,5.724354267E0,-5.556837082E0,2.322950214E-1
3.758000000E0,6.435882092E0,-4.575300217E0,-1.779380202E0
3.778000000E0,5.783433437E0,-2.206687689E0,-3.661893368E0
3.798000000E0,4.962595940E0,-4.277672470E-1,-5.441522598E0
3.818000000E0,6.237211227E0,-1.549450636E0,-5.729410648E0
3.840000000E0,8.930899620E0,-4.949695587E0,-4.703753948E0
3.860000000E0,1.026239204E1,-7.484284401E0,-3.328131914E0
3.880000000E0,9.948089600E0,-8.202707291E0,-1.460261941E0
3.900000000E0,9.066899300E0,-7.272282124E0,8.863430023E-1
3.920000000E0,9.237423897E0,-6.624478340E0,2.670186043E0
3.940000000E0,1.015273666E1,-6.467074394E0,3.352916718E0
3.960000000E0,1.020674038E1,-6.341828823E0,2.636293650E0
3.980000000E0,9.613992691E0,-5.763839245E0,1.561469555E0
4.000000000E0,9.506072044E0,-5.760018349E0,3.578661084E-1
4.020000000E0,9.873237610E0,-6.138598919E0,-1.259436250E0
4.040000000E0,9.674566269E0,-5.806820393E0,-1.930416107E0
4.060000000E0,9.886540413E0,-5.095167637E0,-2.333705187E0
4.080000000E0,1.156712627E1,-5.400380135E0,-2.643917084E0
4.100021875E0,1.330488586E1,-5.492892742E0,-3.027630806E0
4.122000000E0,1.482128620E1,-5.747970581E0,-3.190177917E0
4.142000000E0,1.473278713E1,-5.944553852E0,-4.116600037E0
4.162000000E0,1.474495029E1,-6.064331055E0,-3.689675570E0
4.182000000E0,1.559263039E1,-6.546236038E0,-2.168734789E0
4.202000000E0,1.650486183E1,-6.804417133E0,-4.895759225E-1
4.222000000E0,1.680283356E1,-6.587550163E0,7.403063178E-1
4.242000000E0,1.714011002E1,-6.805623531E0,1.834628940E0
4.262000000E0,1.693087578E1,-6.787370205E0,2.893833160E0
4.282000000E0,1.568452072E1,-5.426381111E0,4.962816238E0
4.302000000E0,1.467370796E1,-4.550266743E0,6.765630722E0
4.324018750E0,1.483844852E1,-7.090064526E0,5.571862698E0
4.346000000E0,1.532489300E1,-1.031927776E1,3.756483316E0
4.366000000E0,1.409410095E1,-1.106772327E1,2.173839331E0
4.386000000E0,1.195680523E1,-9.695070267E0,1.518977284E0
4.406000000E0,1.056720257E1,-8.358981133E0,9.075748324E-1
4.426000000E0,9.897304535E0,-8.014111519E0,5.976980329E-1
4.446000000E0,9.288295746E0,-7.658514977E0,6.178477407E-1
4.466000000E0,8.740464211E0,-7.461893559E0,7.954974174E-1
4.486000000E0,8.639246941E0,-7.707557678E0,1.232649922E0
4.506000000E0,8.903738976E0,-8.242824554E0,1.179872155E0
4.526001562E0,9.539687157E0,-9.153186798E0,4.389625192E-1
4.548000000E0,9.981139183E0,-1.040485573E1,-3.027228713E-1
4.568003125E0,9.566300392E0,-1.085037899E1,-6.672257185E-1
4.590009375E0,9.527247429E0,-1.142847252E1,-8.194873482E-2
4.611998437E0,9.730926514E0,-1.267980671E1,4.672715366E-1
4.632000000E0,9.278671265E0,-1.273445225E1,1.057222009E0
4.652006250E0,8.178717613E0,-1.220382023E1,8.132528663E-1
4.674000000E0,7.405227661E0,-1.189476776E1,-3.442766368E-1
4.694000000E0,7.083446980E0,-1.223733044E1,-1.639309883E0
4.714000000E0,5.649885178E0,-1.138140202E1,-2.417904377E0
4.734018750E0,3.413269758E0,-8.971408844E0,-2.917698622E0
4.756000000E0,2.278590679E0,-6.599875450E0,-2.699309111E0
4.776000000E0,3.598791599E0,-6.877248764E0,-2.305443764E0
4.796000000E0,4.517159462E0,-6.577159405E0,-1.829151034E0
4.816000000E0,5.276523590E0,-6.279981613E0,-1.120227814E0
4.836000000E0,6.383793831E0,-6.826693058E0,-8.583308458E-1
4.856001562E0,7.597462654E0,-8.139270782E0,-1.322145224E0
4.878001562E0,8.379446983E0,-9.377523422E0,-2.413719177E0
4.900001562E0,9.386304855E0,-1.035268211E1,-3.312588692E0
4.922000000E0,8.679920197E0,-8.599120140E0,-4.379090786E0
4.942000000E0,7.311844349E0,-6.585146427E0,-3.678346157E0
4.962000000E0,6.216956615E0,-5.925601482E0,-1.887502432E0
4.982000000E0,5.458789349E0,-5.801371098E0,4.891066849E-1
5.002000000E0,4.715399265E0,-5.308050156E0,1.875512242E0
5.022000000E0,4.311487675E0,-4.435747147E0,2.889552593E0
5.042000000E0,4.689647675E0,-3.801906109E0,3.088740587E0
5.062000000E0,6.177481174E0,-4.922804356E0,1.844540834E0
5.082000000E0,7.246893883E0,-5.766013145E0,6.908996105E-1
5.102000000E0,7.462487221E0,-6.226542950E0,4.694550857E-2
5.122000000E0,9.201960564E0,-7.055693150E0,-3.390859962E-1
5.142000000E0,1.174400997E1,-7.837093830E0,-4.683728814E-1
5.162000000E0,1.424798012E1,-8.832602501E0,-1.230859160E0
5.182000000E0,1.648429871E1,-9.830199242E0,-2.657985449E0
5.202000000E0,1.731632233E1,-9.897046089E0,-3.419868231E0
5.222000000E0,1.633531189E1,-8.484753609E0,-2.846811295E0
5.242000000E0,1.508964729E1,-7.341762066E0,-1.627223969E0
5.262000000E0,1.455446720E1,-6.109504700E0,5.763322487E-2
5.284006250E0,1.502114487E1,-6.025209427E0,4.061906636E-1
5.306000000E0,1.406006432E1,-5.424217224E0,1.158793569E0
5.326000000E0,1.281401634E1,-5.086998463E0,3.741074324E0
5.346000000E0,1.332257366E1,-6.582991600E0,5.357236862E0
5.366000000E0,1.594855404E1,-1.108649445E1,4.371860504E0
5.386000000E0,1.783234024E1,-1.579718304E1,2.281271935E0
5.406000000E0,1.683482933E1,-1.641596794E1,3.997071981E-1
5.426000000E0,1.388301754E1,-1.374182701E1,-6.630885005E-1
5.446000000E0,1.199243164E1,-1.219893646E1,-1.318218708E0
5.466000000E0,1.105354118E1,-1.169781017E1,-1.498435020E0
5.486000000E0,1.020962334E1,-1.108731842E1,-1.540352821E0
5.506000000E0,8.677132607E0,-1.007837296E1,-1.319454074E0
5.526000000E0,7.626422882E0,-8.842227936E0,-1.303853512E0
5.546001562E0,6.633768082E0,-7.691755772E0,-1.828528404E0
5.566001562E0,6.561347961E0,-6.901305676E0,-2.280228138E0
5.588000000E0,8.291570663E0,-7.407784462E0,-1.803628802E0
5.608000000E0,9.730484962E0,-8.273642540E0,-1.009548664E0
5.628000000E0,9.680935860E0,-8.431344032E0,-8.441572189E-1
5.648000000E0,9.498918533E0,-8.008901596E0,-9.117215872E-1
5.668001562E0,9.836998940E0,-7.958766937E0,-6.783635020E-1
5.688001562E0,1.013863945E1,-8.311700821E0,-2.756492198E-1
5.710000000E0,8.123105049E0,-7.229483604E0,1.891246915E0
5.730000000E0,6.366364479E0,-5.307466507E0,4.585911751E0
5.750020312E0,6.002550602E0,-3.935454607E0,7.108145714E0
5.772000000E0,5.691956043E0,-2.855478287E0,7.729517460E0
5.792000000E0,5.521326065E0,-3.175783873E0,6.170059204E0
5.812000000E0,4.417780876E0,-2.017823696E0,4.724228859E0
5.832000000E0,4.253854752E0,-1.804423571E0,4.345495224E0
5.852000000E0,4.575462818E0,-3.253653049E0,3.549633741E0
5.872000000E0,4.208728790E0,-3.753409147E0,3.975830555E0
5.892000000E0,3.348463297E0,-2.670090437E0,5.922402859E0
5.912000000E0,3.767908335E0,-2.656558275E0,6.597931862E0
5.932000000E0,5.223736286E0,-4.392172337E0,7.188466072E0
5.954000000E0,3.971147537E0,-3.742424488E0,7.657835007E0
5.974004687E0,2.841151476E0,-2.658540726E0,7.355629444E0
5.994006250E0,2.679245949E0,-2.857029438E0,5.833271503E0
6.016000000E0,1.783335447E0,-2.981911182E0,4.397870541E0
6.036000000E0,1.031613588E0,-2.527453423E0,3.657200336E0
6.056000000E0,2.311046362E0,-3.238588810E0,3.455292702E0
6.076000000E0,2.849885225E0,-3.769871473E0,3.060105801E0
6.096000000E0,2.852796555E0,-3.918379068E0,2.541349411E0
6.116000000E0,3.358490467E0,-4.519084454E0,2.246575117E0
6.136001562E0,4.665858269E0,-5.714681625E0,2.068992376E0
6.158000000E0,6.708658695E0,-7.027269363E0,2.514409781E0
6.178000000E0,9.293199539E0,-8.347221375E0,2.999350548E0
6.198000000E0,1.250432110E1,-1.038419819E1,1.928606033E0
6.218000000E0,1.545443726E1,-1.194118690E1,1.364723802E0
6.238000000E0,1.820147896E1,-1.458958530E1,2.401221514E0
6.258000000E0,1.995274925E1,-1.576230335E1,1.667082667E0
6.278000000E0,1.823914337E1,-1.602203560E1,-1.585095525E0
6.298000000E0,1.567770195E1,-1.843795013E1,-2.718788385E0
6.318000000E0,1.223266602E1,-1.622231483E1,2.867583275E0
6.338000000E0,1.015078354E1,-1.268302536E1,7.058911324E0
6.358000000E0,1.018091202E1,-1.011478424E1,9.271230698E0
6.378001562E0,1.332455540E1,-9.555584908E0,1.012562466E1
6.400000000E0,1.485989094E1,-9.842324257E0,8.755049706E0
6.420000000E0,1.261807537E1,-7.999305725E0,6.597356796E0
6.440000000E0,1.071112251E1,-5.951468468E0,4.754310131E0
6.460000000E0,9.243648529E0,-4.671873093E0,3.889553070E0
6.480000000E0,8.262524605E0,-3.747461796E0,4.485517502E0
6.500000000E0,7.518454075E0,-3.234614611E0,4.175947189E0
6.520000000E0,7.323345661E0,-3.464850426E0,2.892071009E0
6.540000000E0,6.882180691E0,-3.365759373E0,1.645094275E0
6.560000000E0,6.254344463E0,-2.168476343E0,-5.314553380E-1
6.580000000E0,7.837572098E0,-2.361707449E0,-3.660456896E0
6.600000000E0,9.926111221E0,-3.826489687E0,-5.484062672E0
6.620000000E0,9.185173035E0,-3.664028883E0,-4.893556595E0
6.642000000E0,8.258281708E0,-3.632166862E0,-4.245139599E0
6.662000000E0,8.774558067E0,-4.543189526E0,-4.682886124E0
6.682000000E0,9.939432144E0,-6.848958492E0,-5.370970249E0
6.702000000E0,9.882595062E0,-7.906697750E0,-5.381236553E0
6.722000000E0,9.322025299E0,-8.428930283E0,-5.590211868E0
6.742000000E0,8.597166061E0,-8.884968758E0,-6.156641483E0
6.762000000E0,8.237768173E0,-8.833263397E0,-6.307734966E0
6.782000000E0,7.575972557E0,-8.920459747E0,-7.208902836E0
6.802000000E0,6.949984550E0,-8.989010811E0,-7.863688469E0
6.822000000E0,6.573721409E0,-8.734306335E0,-8.979251862E0
6.842000000E0,4.850709915E0,-6.003843784E0,-8.196329117E0
6.862000000E0,4.282776833E0,-4.914587498E0,-6.566260815E0
6.882000000E0,5.020928383E0,-5.340372086E0,-5.051574230E0
6.902000000E0,7.257610798E0,-6.549578190E0,-3.876097679E0
6.922000000E0,1.018965530E1,-7.470043659E0,-2.953716993E0
6.942000000E0,1.271888924E1,-9.021630287E0,-3.778098106E0
6.962000000E0,1.271385288E1,-8.664232254E0,-5.012701511E0
6.982000000E0,9.808594704E0,-6.312207699E0,-4.321304321E0
7.002000000E0,6.827046871E0,-3.971224070E0,-2.465213537E0
7.022000000E0,5.405580521E0,-1.736045241E0,-8.192096353E-1
7.042000000E0,5.393667221E0,-8.328565955E-1,5.844724923E-2
7.062000000E0,5.943031311E0,-7.475272417E-1,2.808877453E-2
7.082000000E0,6.336321831E0,-9.813258052E-1,2.348807752E-1
7.102000000E0,6.633988380E0,-1.207501173E0,8.312189579E-1
7.122000000E0,6.981041908E0,-1.048210263E0,1.155116081E0
7.142000000E0,7.027872562E0,-1.555139422E0,1.321484327E0
7.162001562E0,7.173937798E0,-1.796235442E0,1.750917912E0
7.184006250E0,8.741746902E0,-2.422146797E0,1.461430311E0
7.204007812E0,1.033692741E1,-3.023512840E0,1.301555037E0
7.226000000E0,1.144297123E1,-3.200683832E0,1.628842354E0
7.246000000E0,1.239643955E1,-3.852998257E0,1.520586133E0
7.266000000E0,1.271168804E1,-4.029144764E0,1.122373104E0
7.286018750E0,1.221233368E1,-3.660360813E0,7.470292449E-1
7.308001562E0,1.241190529E1,-4.162415504E0,3.386071324E-1
7.330000000E0,1.327181625E1,-5.694656849E0,4.894705713E-1
7.350018750E0,1.308772182E1,-6.038176537E0,1.639874935E0
7.372000000E0,1.262076569E1,-6.386982918E0,3.064884424E0
7.392000000E0,1.371225357E1,-8.395525932E0,2.582079649E0
7.412000000E0,1.564579201E1,-1.093642616E1,1.275592446E0
7.432000000E0,1.684675217E1,-1.317222786E1,8.398859762E-3
7.452000000E0,1.586217976E1,-1.229942608E1,1.606413573E-1
7.472000000E0,1.415923214E1,-1.091445732E1,-1.061014414E0
7.492000000E0,1.321952724E1,-1.040059376E1,-3.728921115E-1
7.512000000E0,1.167660713E1,-1.002374744E1,-2.354180098E0
7.532000000E0,8.372293472E0,-8.569690704E0,-3.018781900E0
7.552000000E0,5.034392834E0,-6.422791004E0,-3.200090170E0
7.572000000E0,3.005604267E0,-5.000970364E0,-2.468067646E0
7.592000000E0,2.193653822E0,-4.123830795E0,-1.459045649E0
7.612000000E0,2.549613953E0,-4.162127972E0,-9.668648243E-1
7.632000000E0,3.032342434E0,-4.442738056E0,-9.706668258E-1
7.652000000E0,3.667007208E0,-4.790586948E0,-9.403083324E-1
7.672000000E0,4.481572151E0,-5.284462929E0,-1.521438599E0
7.692000000E0,5.036165237E0,-5.533095837E0,-1.833450913E0
7.712000000E0,5.721395016E0,-5.736966610E0,-1.871193171E0
7.732000000E0,7.066658497E0,-6.903211594E0,-2.245790005E0
7.752000000E0,8.575868607E0,-8.372418404E0,-2.475652456E0
7.772000000E0,9.487943649E0,-9.189329147E0,-2.892435074E0
7.792000000E0,9.248302460E0,-9.070787430E0,-3.319828749E0
7.812000000E0,7.708170891E0,-8.324850082E0,-3.544213295E0
7.832000000E0,6.951009274E0,-8.914119720E0,-3.288206339E0
7.852000000E0,6.537099838E0,-8.960606575E0,-2.768808126E0
7.872000000E0,6.226552010E0,-7.418166161E0,-2.687309504E0
7.892000000E0,6.168315887E0,-5.748209953E0,-2.659373999E0
7.912000000E0,7.252678871E0,-5.722669125E0,-1.986804366E0
7.932000000E0,9.453131676E0,-8.347844124E0,-1.829562783E0
7.952000000E0,1.076753902E1,-9.600404739E0,-2.032274961E0
7.972000000E0,1.121451759E1,-8.977623940E0,-2.196431160E0
7.992000000E0,1.144417858E1,-7.805557251E0,-2.145223856E0
8.012000000E0,1.148440170E1,-7.890187263E0,-2.184996367E0
8.032000000E0,1.038211155E1,-7.478001595E0,-1.342199087E0
8.052001562E0,9.077078819E0,-6.350102901E0,-7.933426499E-1
8.072001562E0,8.883512497E0,-5.259668350E0,-1.528554112E-1
8.092001562E0,9.147574425E0,-4.324205875E0,-1.061062217E0
8.114001562E0,9.727852821E0,-3.996698141E0,-2.285169601E0
8.134001562E0,9.646526337E0,-4.041374207E0,-2.778087854E0
8.154001562E0,9.134770393E0,-4.056562901E0,-2.216590405E0
8.174001562E0,8.849246979E0,-3.777772427E0,-1.142656684E0
8.194001562E0,9.758392334E0,-3.748898506E0,-3.449565768E-1
8.216001562E0,1.134999084E1,-3.779046297E0,3.405512497E-2
8.238001562E0,1.219122791E1,-3.513309002E0,1.663778722E-1
8.260000000E0,1.215358067E1,-3.064731359E0,-1.975024939E-1
8.280025000E0,1.308453178E1,-2.718041420E0,7.704157829E-1
8.302000000E0,1.467921448E1,-2.893076658E0,5.077623129E-1
8.322000000E0,1.449880695E1,-2.306114197E0,1.534673691E0
8.342000000E0,1.420385075E1,-2.852672100E0,2.756482601E0
8.362004687E0,1.380267811E1,-4.507496357E0,3.135580540E0
8.384001562E0,1.251575661E1,-3.968341589E0,3.714230537E0
8.404001562E0,1.291448593E1,-5.145647049E0,3.475758314E0
8.424010937E0,1.466360474E1,-7.847618580E0,3.235725403E0
8.446000000E0,1.567442703E1,-1.095481300E1,2.625308990E0
8.466000000E0,1.589803505E1,-1.243129921E1,9.814695120E-1
8.486000000E0,1.408581638E1,-1.170516586E1,-2.115516737E-2
8.506000000E0,1.351449299E1,-1.134942532E1,-1.086986661E0
8.526000000E0,1.360405445E1,-1.133533764E1,-1.864077568E0
8.546000000E0,1.284096622E1,-1.076179314E1,-2.358796120E0
8.566000000E0,1.102321053E1,-9.683549881E0,-2.509420156E0
8.586000000E0,9.233659744E0,-8.854389191E0,-2.336338520E0
8.606001562E0,7.798212051E0,-8.440050125E0,-2.113457441E0
8.628000000E0,6.391378880E0,-7.602452278E0,-9.933543205E-1
8.648000000E0,6.152245998E0,-7.679669857E0,-9.089730382E-1
8.668000000E0,6.002637386E0,-7.493401527E0,-7.545949221E-1
8.688000000E0,5.971570015E0,-7.223747253E0,-5.467112064E-1
8.708000000E0,6.541189194E0,-7.876530647E0,-1.089572549E0
8.728000000E0,6.422762394E0,-7.769375801E0,-7.778378129E-1
8.748000000E0,5.820179462E0,-7.694878101E0,-7.499118447E-1
8.768001562E0,5.581602573E0,-8.044124603E0,-6.308242679E-1
8.790000000E0,5.936834812E0,-8.730341911E0,-3.453683853E-1
8.810000000E0,6.249718666E0,-8.463339806E0,-1.521084309E-1
8.830000000E0,6.426764965E0,-8.016572952E0,-4.016321003E-1
8.850018750E0,6.942064285E0,-8.442770004E0,-1.000019670E0
8.872000000E0,7.358435154E0,-9.431392670E0,-1.321216345E0
8.892000000E0,5.740003109E0,-8.090562820E0,-9.709158540E-1
8.912000000E0,3.993767738E0,-6.380835056E0,-4.635557532E-1
8.932000000E0,3.272031069E0,-5.072633266E0,3.595133424E-1
8.952000000E0,5.280315876E0,-6.665419579E0,4.702212214E-1
8.972000000E0,7.790770531E0,-8.701946259E0,-8.705509305E-1
8.992000000E0,9.643221855E0,-9.697704315E0,-1.663156152E0
9.012000000E0,9.834136009E0,-8.796191216E0,-2.727407455E0
9.032000000E0,9.480368614E0,-7.841087341E0,-2.619285345E0
9.052000000E0,9.117053032E0,-7.430414677E0,-1.809547186E0
9.072001562E0,8.318078995E0,-7.012061596E0,-5.878148079E-1
9.094000000E0,7.375932217E0,-6.549405575E0,-3.259178698E-1
9.114001562E0,6.791947842E0,-5.582617760E0,-2.401480079E-1
9.136001562E0,7.147899151E0,-5.547068596E0,-5.811206698E-1
9.158000000E0,8.045561790E0,-5.820065022E0,-1.244371891E0
9.178000000E0,8.306902885E0,-5.495813370E0,-1.942329645E0
9.198000000E0,8.374974251E0,-5.035600185E0,-2.978137970E0
9.218000000E0,9.966458321E0,-5.438553810E0,-4.625521183E0
9.238000000E0,1.157738304E1,-5.746582031E0,-4.689819813E0
9.258000000E0,1.302756023E1,-5.654922485E0,-4.222059727E0
9.278000000E0,1.493594074E1,-6.268690586E0,-4.805756569E0
9.298000000E0,1.517014027E1,-5.949706078E0,-4.027209759E0
9.318000000E0,1.569172287E1,-5.367915154E0,-1.612447023E0
9.338000000E0,1.737882042E1,-4.718100071E0,6.479380131E-1
9.358000000E0,1.880632973E1,-3.468977928E0,1.753704786E0
9.378000000E0,2.023910522E1,-4.433056355E0,1.988355875E0
9.398000000E0,1.901231766E1,-6.183571815E0,3.665618658E0
9.418001562E0,1.417782974E1,-4.807096958E0,6.431869507E0
9.440000000E0,1.277404308E1,-7.079280853E0,7.013670444E0
9.460000000E0,1.400158882E1,-1.090173912E1,4.772544384E0
9.480000000E0,1.505467319E1,-1.407270622E1,2.164147615E0
9.500000000E0,1.420120716E1,-1.381261921E1,4.887331724E-1
9.520000000E0,1.190359783E1,-1.137584877E1,3.305051923E-1
9.541998437E0,9.572018623E0,-9.755721092E0,-6.954869032E-1
9.562003125E0,7.420895100E0,-7.957014561E0,-1.671976447E0
9.584000000E0,5.663340569E0,-6.448082924E0,-1.436530590E0
9.604001562E0,4.532740593E0,-5.531937122E0,-7.586554289E-1
9.626000000E0,2.980857611E0,-3.366649866E0,-4.052808881E-1
9.646000000E0,2.283589602E0,-1.142972827E0,-2.218467295E-1
9.666000000E0,5.446071148E0,-3.410693645E0,-7.046806216E-1
9.686000000E0,9.482790947E0,-8.659559250E0,-2.315863609E0
9.706000000E0,1.085838509E1,-1.301041794E1,-2.961359262E0
9.726000000E0,9.745693207E0,-1.422554207E1,-3.239737988E0
9.746000000E0,8.476604462E0,-1.370420933E1,-2.930234671E0
9.766000000E0,7.625120640E0,-1.417062855E1,-3.303337574E0
9.786020312E0,5.865008831E0,-1.313837337E1,-2.688382149E0
9.808000000E0,4.069931984E0,-1.089686394E1,-1.638352156E0
9.828000000E0,3.856455564E0,-9.820785522E0,-9.658209980E-2
9.848001562E0,4.343953609E0,-8.798643112E0,1.525355458E0
9.868007812E0,7.318701267E0,-1.058551311E1,1.204197288E0
9.890000000E0,8.230480194E0,-1.043416119E1,-2.030675650E0
9.910000000E0,4.881078243E0,-7.576231003E0,-3.905833483E0
9.930000000E0,2.828461885E0,-6.092783928E0,-3.861665249E0
9.950020312E0,4.452314854E0,-7.319879055E0,-3.107443810E0
9.970021875E0,8.278517723E0,-9.633367538E0,-2.740518093E0
9.992000000E0,1.137685394E1,-1.051179981E1,-2.494279385E0
1.001200000E1,1.169129848E1,-9.100359917E0,-2.158324957E0
1.003200000E1,9.991300583E0,-7.670103073E0,-1.230504751E0
1.005200000E1,7.098501682E0,-6.368720055E0,1.608137339E-1
1.007200000E1,4.437528133E0,-5.080304623E0,1.108266354E0
1.009202344E1,3.331981659E0,-4.128762722E0,1.780654073E0
1.011400312E1,3.921204329E0,-3.958898783E0,1.880501866E0
1.013600000E1,4.972622871E0,-3.823932886E0,4.772889018E-1
1.015600000E1,5.515704632E0,-4.097944260E0,-1.080723524E0
1.017600000E1,5.265816689E0,-3.118150949E0,-1.795737386E0
1.019600000E1,6.548314095E0,-2.992713928E0,-2.023521900E0
1.021600000E1,8.164563179E0,-4.033961773E0,-3.527157068E0
1.023600000E1,8.244127274E0,-4.799071789E0,-6.828866482E0
1.025600000E1,9.571146011E0,-5.454536915E0,-9.405247688E0
1.027600000E1,1.207908344E1,-6.813725471E0,-1.067563057E1
1.029600000E1,1.349408531E1,-7.121677399E0,-1.068719959E1
1.031600000E1,1.379665470E1,-7.604616642E0,-9.478931427E0
1.033600000E1,1.386456394E1,-7.881329060E0,-6.938109398E0
1.035600156E1,1.435598755E1,-8.131407738E0,-3.963629723E0
1.037800156E1,1.481613350E1,-8.416069031E0,-1.084736228E0
1.040000000E1,1.411697960E1,-8.334618568E0,9.473568797E-1
1.042000000E1,1.149375820E1,-5.494252205E0,2.668864489E0
1.044000000E1,1.080701447E1,-5.004350662E0,3.243099451E0
1.046000000E1,1.140927124E1,-5.577723503E0,2.506863356E0
1.048000000E1,1.252105236E1,-7.458858013E0,1.387784719E0
1.050000000E1,1.311741924E1,-9.412755966E0,9.050177932E-1
1.052000000E1,1.362832355E1,-1.106936169E1,6.253654957E-1
1.054000000E1,1.361564350E1,-1.157341766E1,3.976290300E-2
1.056000000E1,1.312171936E1,-1.130876255E1,-5.140830278E-1
1.058200000E1,1.158695030E1,-1.037916088E1,-7.673416734E-1
1.060200000E1,9.678953171E0,-9.293687820E0,-3.650391400E-1
1.062200000E1,7.866140366E0,-8.153894424E0,4.367981851E-2
1.064200000E1,6.883924007E0,-7.571308613E0,1.821987480E-1
1.066200469E1,6.479361057E0,-7.337605953E0,2.781487703E-1
1.068400000E1,5.965163231E0,-7.299403667E0,1.033050120E-1
1.070400000E1,5.346817493E0,-6.880514145E0,3.904080987E-1
1.072400469E1,4.460915089E0,-7.079232693E0,4.766377062E-2
1.074600000E1,4.043950558E0,-7.043473244E0,4.998805821E-1
1.076600000E1,4.697663307E0,-7.282347679E0,1.280141354E0
1.078602031E1,5.332576752E0,-8.359250069E0,1.368899226E0
1.080800000E1,5.148721218E0,-8.411060333E0,1.433513880E0
1.082800000E1,4.988989830E0,-8.589055061E0,1.278120637E0
1.084800000E1,5.242114067E0,-9.338554382E0,7.796957493E-1
1.086800000E1,5.561136723E0,-9.971390724E0,-9.710881859E-3
1.088800156E1,5.852970600E0,-1.018544102E1,-5.630300045E-1
1.091000000E1,5.392288208E0,-9.263012886E0,-1.053496599E0
1.093000000E1,5.268144131E0,-9.784153938E0,-1.810236692E0
1.095002031E1,4.421439648E0,-8.655728340E0,-2.553961992E0
1.097200000E1,3.682320595E0,-7.103529453E0,-1.823040843E0
1.099200000E1,4.347027302E0,-6.440412045E0,-4.400638342E-1
1.101200000E1,6.234683037E0,-7.665084362E0,3.198461831E-1
1.103200000E1,8.103634834E0,-9.332023621E0,1.190588623E-1
1.105200000E1,8.394368172E0,-1.054222584E1,-1.053965926E0
1.107200000E1,7.921992302E0,-1.064247513E1,-1.861338615E0
1.109200000E1,7.106411934E0,-9.707597733E0,-1.597411394E0
1.111400000E1,7.755997181E0,-9.316259384E0,-4.268478751E-1
1.113400000E1,8.121209145E0,-8.911362648E0,3.052224219E-1
1.115400625E1,7.658773422E0,-8.156221390E0,8.161163330E-1
1.117600000E1,6.640404701E0,-7.188379765E0,1.397725344E0
1.119600000E1,6.124502182E0,-6.558580399E0,1.694204092E0
1.121600000E1,6.521929741E0,-5.670053482E0,1.909548163E0
1.123600000E1,7.912080288E0,-6.012845993E0,1.620721340E0
1.125600000E1,9.090966225E0,-6.587913990E0,5.251442194E-1
1.127600156E1,9.584315300E0,-7.112091541E0,5.780560523E-2
1.129800000E1,9.531230927E0,-6.533441544E0,6.554366350E-1
1.131800000E1,1.031606960E1,-6.309573650E0,7.438688874E-1
1.133800000E1,1.178339005E1,-6.837648392E0,4.851323068E-1
1.135800000E1,1.270066547E1,-7.327042580E0,3.844991922E-1
1.137800000E1,1.279417419E1,-6.984623432E0,1.068216205E0
1.139800000E1,1.289571571E1,-6.676719666E0,1.338617325E0
1.141800000E1,1.323509026E1,-6.546504021E0,1.413574934E0
1.143800000E1,1.317132759E1,-6.189614773E0,1.756223559E0
1.145800156E1,1.375099182E1,-7.189251423E0,2.079201460E0
1.148000000E1,1.263810921E1,-7.163432121E0,2.327614307E0
1.150000000E1,1.006228447E1,-5.185458183E0,2.815562010E0
1.152000000E1,9.054306030E0,-5.074596882E0,3.060431480E0
1.154000000E1,9.866524696E0,-6.198817730E0,2.883518934E0
1.156000000E1,1.216817570E1,-8.586191177E0,2.531858683E0
1.158000000E1,1.403680229E1,-1.062895298E1,2.346767902E0
1.160000000E1,1.440209961E1,-1.087958813E1,2.725300550E0
1.162000000E1,1.450206280E1,-1.123867989E1,2.631831169E0
1.164000000E1,1.442862797E1,-1.111870098E1,1.689674258E0
1.166000000E1,1.330504799E1,-1.068503475E1,7.477858067E-1
1.168000000E1,1.138250351E1,-9.556858063E0,2.006436735E-1
1.170000156E1,1.081105614E1,-8.956900597E0,4.759673029E-2
1.172200000E1,1.112490749E1,-9.566569328E0,9.097008705E-1
1.174200000E1,1.063393307E1,-9.762491226E0,1.913168192E0
1.176200313E1,1.017229271E1,-9.885725975E0,3.207962275E0
1.178400000E1,1.003927994E1,-1.000321388E1,3.929526567E0
1.180401406E1,1.078161716E1,-1.073834896E1,4.998039722E0
1.182600156E1,1.153349209E1,-1.132013130E1,7.194672108E0
1.184800000E1,1.158987141E1,-1.084176826E1,7.905347824E0
1.186800000E1,1.137084961E1,-9.689842224E0,4.699789047E0
1.188800000E1,1.027809811E1,-8.614902496E0,2.518307686E0
1.190800000E1,7.794476986E0,-7.005060673E0,1.547324657E0
1.192800000E1,5.251078129E0,-5.229175568E0,2.726373196E0
1.194800000E1,3.964300156E0,-3.341912746E0,3.943269253E0
1.196800000E1,3.314418077E0,-2.479665041E0,3.631994486E0
1.198800000E1,2.716221809E0,-8.169686198E-1,3.607784271E0
1.200800000E1,2.542134523E0,3.527521193E-1,3.106304407E0
1.202800000E1,2.977802753E0,3.029048145E-1,3.822304726E0
1.204800000E1,3.251910210E0,1.398405284E-1,4.748755455E0
1.206802969E1,2.309054136E0,4.414524734E-1,4.572886944E0
1.209000156E1,5.824900866E-1,1.829514861E0,4.288359642E0
1.211200000E1,4.625406265E-1,1.829007268E0,3.191949606E0
1.213200000E1,1.235628247E0,2.931173444E-1,5.739954710E-1
1.215200000E1,5.950357914E-1,4.343082011E-2,9.867845774E-1
1.217200000E1,-3.313575089E-1,-4.127795398E-1,6.619536400E0
1.219200000E1,-8.527092934E-1,8.872912079E-2,1.177826595E1
1.221200000E1,-3.251709044E-1,4.368460476E-1,6.363893509E0
1.223200000E1,-2.110507965E0,8.864388466E-1,9.758201599E0
1.225200000E1,-2.881881237E0,8.209334612E-1,1.083914471E1
1.227200000E1,-2.569974422E0,8.192287683E-1,9.365618706E0
1.229200000E1,-2.309274673E0,7.535989285E-1,8.349452972E0
1.231200000E1,-2.505896091E0,2.114367336E-1,9.059812546E0
1.233200000E1,-1.884236693E0,1.539854705E-1,8.688059807E0
1.235200000E1,-1.678450346E0,4.638047516E-1,1.087984657E1
1.237200000E1,-9.991769791E-1,9.148052931E-1,1.045572758E1
1.239200000E1,-6.846842170E-1,1.145979881E0,1.115556240E1
1.241200000E1,-5.792148709E-1,1.960736275E0,1.131204796E1
1.243200000E1,-4.593707025E-1,2.651482582E0,1.090508080E1
1.245200000E1,-3.134488761E-1,2.527826786E0,1.155732918E1
1.247200000E1,2.348615974E-1,1.786007404E0,1.062851238E1
1.249200000E1,2.764440775E-1,1.946715832E0,1.017701340E1
1.251200000E1,-1.483447403E-1,1.070409298E0,1.226227760E1
1.253200000E1,-1.045126438E0,3.170880675E-1,1.409663868E1
1.255200000E1,-2.603091002E0,1.454927564E0,1.204299736E1
1.257200000E1,-3.476725578E0,2.534703016E0,9.589362144E0
1.259200000E1,-2.849176645E0,2.368095160E0,9.098119736E0
1.261200000E1,-1.887425780E0,1.254829884E0,1.010237217E1
1.263200000E1,-2.575519323E0,4.120421112E-1,1.018835258E1
1.265200000E1,-3.087121964E0,9.111565351E-1,1.021167278E1
1.267200000E1,-2.484501362E0,7.374715805E-1,1.018476200E1
1.269200000E1,-2.356909752E0,1.019412756E0,9.700270653E0
1.271200000E1,-2.381445408E0,1.372988582E0,9.091780663E0
1.273200000E1,-2.381732702E0,1.691829085E0,8.329437256E0
1.275200000E1,-2.619400501E0,1.715771079E0,7.572476864E0
1.277200000E1,-2.949081898E0,1.531973004E0,6.973964691E0
1.279200000E1,-4.102646351E0,2.757172346E0,3.515913725E0
1.281200000E1,-3.652393103E0,1.889523149E0,7.869041920E0
1.283200000E1,-4.093663692E0,2.222135305E0,9.945140839E0
1.285200000E1,-4.258068562E0,2.615856886E0,9.464068413E0
1.287200312E1,-3.885205030E0,2.129891396E0,9.436688423E0
1.289400156E1,-3.865448236E0,2.274472475E0,9.417219162E0
1.291400781E1,-3.275411606E0,2.323400497E0,9.955320358E0
1.293401562E1,-2.438944578E0,2.048459768E0,1.167926121E1
1.295600312E1,-1.623106003E0,1.681897998E0,1.241569805E1
1.297600312E1,-9.554300904E-1,1.251861095E0,1.234513569E1
1.299600625E1,-3.015257716E-1,7.190170884E-1,1.209485531E1
1.301800000E1,-2.655840218E-1,2.641762197E-1,1.291283035E1
1.303800625E1,-9.576998353E-1,6.224732399E-1,1.325178242E1
1.306000156E1,-9.890639186E-1,9.378854632E-1,1.190042782E1
1.308000313E1,-3.115335405E-1,3.047723174E-1,1.033067417E1
1.310200000E1,8.200619370E-2,8.105809242E-2,1.005954456E1
1.312200000E1,4.618031979E-1,3.225660026E-1,1.067805386E1
1.314200000E1,1.043163180E0,1.136776447E0,9.986924171E0
1.316200625E1,1.399755597E0,9.258186817E-1,9.233478546E0
1.318400156E1,7.642004490E-1,7.470483780E-1,8.185727119E0
1.320401562E1,-3.231406212E-1,1.399200201E0,7.303061962E0
1.322600000E1,-1.382574797E0,2.334049702E0,6.664653301E0
1.324600156E1,-1.562915802E0,2.636580944E0,6.571059227E0
1.326800000E1,-1.167307377E0,2.360778570E0,6.797780037E0
1.328800000E1,-1.186441898E0,2.362090588E0,6.965719223E0
1.330800000E1,-1.306391358E0,2.608999968E0,7.294098377E0
1.332800312E1,-1.425507665E0,2.802901506E0,7.422274590E0
1.335002031E1,-1.041362762E0,2.593456745E0,7.832956314E0
1.337200000E1,-7.929117680E-1,2.501327991E0,8.175969124E0
1.339200000E1,-1.126424074E0,2.843373060E0,8.782610893E0
1.341200156E1,-1.541473269E0,3.277604818E0,9.581279755E0
1.343400000E1,-1.329892874E0,2.806971788E0,1.057266998E1
1.345400000E1,-9.762501121E-1,2.158171654E0,1.150418758E1
1.347400000E1,-1.125179052E0,1.958964586E0,1.131221008E1
1.349401563E1,-1.291231275E0,1.551164865E0,1.159012032E1
1.351600313E1,-2.029440403E0,7.117099762E-1,1.274028397E1
1.353800000E1,-3.395140886E0,1.292418838E0,1.305585957E1
1.355800000E1,-3.679811239E0,2.633928299E0,9.700625420E0
1.357800156E1,-3.714278221E0,2.536388636E0,9.814388275E0
1.359800156E1,-2.516143084E0,1.244247437E0,1.139541435E1
1.362000781E1,-2.919978142E0,2.774534941E0,1.170010948E1
1.364200000E1,-1.712601185E0,2.771728992E0,1.152717209E1
1.366200000E1,-4.690624177E-1,2.616048336E0,1.085796261E1
1.368200000E1,-9.684066474E-2,2.893785477E0,9.873285294E0
1.370200000E1,1.604498178E-1,2.785739899E0,8.952963829E0
1.372200000E1,-9.816226549E-3,2.765800953E0,8.026647568E0
1.374200000E1,-5.533670783E-1,2.871921539E0,7.409786224E0
1.376200000E1,-1.134334445E0,2.762267113E0,7.227548599E0
1.378200000E1,-1.443435431E0,2.685126066E0,7.107637882E0
1.380200469E1,-1.552955866E0,2.704059362E0,7.750203133E0
1.382400156E1,-1.644701719E0,2.507600546E0,8.899266243E0
1.384401875E1,-1.205786943E0,1.744501591E0,9.858566284E0
1.386600000E1,-1.032762766E0,2.011857271E0,1.016583824E1
1.388600312E1,-9.764320850E-1,2.165047884E0,1.009801483E1
1.390800000E1,-1.270641088E0,2.105173588E0,9.630178452E0
1.392800000E1,-1.656797171E0,2.445274830E0,9.762740135E0
1.394800000E1,-1.080215931E0,2.160556316E0,9.292280197E0
1.396800156E1,-6.876530051E-1,2.055671215E0,9.103588104E0
1.399000000E1,-1.170822144E0,2.517876387E0,9.444187164E0
1.401000312E1,-1.164683342E0,2.299774408E0,1.056467342E1
1.403200000E1,-1.090645075E0,2.497267246E0,1.135620594E1
1.405200000E1,-6.873753071E-1,1.817773700E0,1.141171360E1
1.407200000E1,-8.982278705E-1,1.609669685E0,1.102079773E1
1.409200625E1,-1.244017601E0,1.968732953E0,1.117555904E1
1.411400000E1,-4.321821332E-1,2.086297750E0,1.120014286E1
1.413400469E1,-3.089190722E-1,2.927725554E0,1.028805637E1
1.415600000E1,-1.009012386E-1,2.300339460E0,8.328517914E0
1.417600313E1,-1.790403247E0,2.688448906E0,7.687053680E0
1.419800000E1,-2.396241426E0,2.219817638E0,8.342902184E0
1.421800000E1,-2.671689749E0,3.197992563E0,8.890886307E0
1.423800156E1,-2.337679386E0,3.186222553E0,8.825755119E0
1.426000000E1,-2.102827311E0,3.183033705E0,7.391800880E0
1.428000000E1,-2.694788933E0,3.888585806E0,6.037525177E0
1.430000000E1,-2.476859093E0,3.731564522E0,5.880398750E0
1.432000000E1,-2.338550806E0,3.977247715E0,6.067491055E0
1.434000000E1,-1.946495652E0,3.883375883E0,6.843346596E0
1.436000000E1,-1.716403246E0,3.735615492E0,7.541620731E0
1.438000000E1,-1.935367346E0,3.786209822E0,8.142086029E0
1.440000625E1,-2.436741829E0,3.714508057E0,8.622382164E0
1.442200000E1,-2.924488544E0,3.750718117E0,9.606781960E0
1.444200156E1,-3.205404997E0,3.553244352E0,9.910739899E0
1.446400156E1,-2.653608561E0,3.086212158E0,1.047166443E1
1.448400313E1,-2.390438080E0,3.127526522E0,1.017955208E1
1.450600156E1,-2.281099558E0,3.011752367E0,1.064491844E1
1.452800000E1,-2.010717630E0,2.513528824E0,1.148818493E1
1.454800000E1,-2.596578836E0,2.836343765E0,1.144407368E1
1.456800312E1,-2.909510612E0,2.088950396E0,1.087002087E1
1.459000469E1,-3.347228050E0,1.744022727E0,1.013372612E1
1.461200000E1,-3.350551367E0,1.775109053E0,9.930373192E0
1.463200156E1,-2.554938793E0,2.071683645E0,9.353667259E0
1.465400000E1,-9.575753212E-1,1.457609177E0,9.683836937E0
1.467400312E1,-1.178809166E0,1.256007791E0,9.434179306E0
1.469600000E1,-1.909615278E0,1.770809054E0,8.657567024E0
1.471600312E1,-1.982638478E0,2.176750660E0,7.567171574E0
1.473800156E1,-2.161418200E0,2.630566835E0,6.969779968E0
1.476000156E1,-2.273428679E0,2.986881495E0,6.586927891E0
1.478202969E1,-2.180801868E0,2.875302315E0,6.495382786E0
1.480400156E1,-2.054359198E0,2.792836189E0,6.835426807E0
1.482600000E1,-2.186260462E0,2.871873856E0,7.495239735E0
1.484600000E1,-2.303796530E0,2.949436188E0,7.787476063E0
1.486600000E1,-2.569284916E0,3.249008417E0,8.127902985E0
1.488600000E1,-2.860486746E0,3.519878626E0,8.415657043E0
1.490600000E1,-2.767381191E0,3.427136898E0,8.820267677E0
1.492600000E1,-2.795441151E0,3.153862715E0,9.931771278E0
1.494600000E1,-2.540851355E0,3.407571554E0,1.150072956E1
1.496600000E1,-1.674897313E0,3.127995968E0,1.173001766E1
1.498600000E1,-1.048478365E0,2.714928865E0,1.187295151E1
1.500600156E1,-9.961315393E-1,2.822936296E0,1.261617851E1
1.502800000E1,-1.485583067E0,3.341596842E0,1.200335979E1
1.504800000E1,-9.476633072E-1,2.687232971E0,1.114660835E1
1.506800938E1,-1.070619941E0,1.538695931E0,1.082814026E1
1.509000156E1,-1.804394841E0,2.346719980E0,9.587063789E0
1.511199844E1,-1.133098960E0,1.966673970E0,9.600470543E0
1.513200000E1,-6.631747484E-1,1.579320788E0,9.324831009E0
1.515200000E1,-1.070888042E0,1.616545796E0,9.095294952E0
1.517200000E1,-2.490381479E0,2.342984915E0,8.777794838E0
1.519200000E1,-2.980800390E0,2.143768311E0,8.149096489E0
1.521200000E1,-3.224520445E0,1.795957804E0,7.734315395E0
1.523200000E1,-3.317721844E0,2.402322769E0,7.347948551E0
1.525200000E1,-2.632070303E0,2.449526787E0,7.798518181E0
1.527200000E1,-2.772217512E0,2.416534901E0,7.129645348E0
1.529200000E1,-3.222384691E0,2.699136734E0,5.671184063E0
1.531200625E1,-5.306805611E0,4.229290009E0,6.656599045E0
1.533400000E1,-4.279616356E0,2.562169552E0,7.999056816E0
1.535402656E1,-4.899753094E0,3.245962858E0,8.009437561E0
1.537600000E1,-5.930131435E0,3.896342993E0,8.296473503E0
1.539600156E1,-6.114207268E0,3.875714540E0,8.275002480E0
1.541800000E1,-3.347601652E0,2.293329000E0,8.939297676E0
1.543800000E1,-3.309677601E0,1.903581858E0,9.084645271E0
1.545800000E1,-5.227480888E0,3.636227369E0,9.615602493E0
1.547800781E1,-4.753888607E0,3.350168228E0,1.128272343E1
1.550000000E1,-3.029555798E0,1.907039046E0,1.219315243E1
1.552000781E1,-2.303087950E0,8.184722066E-1,1.395124340E1
1.554200000E1,-2.086125374E0,1.277450323E-1,1.545765495E1
1.556200625E1,-2.303997755E0,2.669056058E-1,1.431859970E1
1.558400625E1,-2.080503941E0,-3.392584026E-1,1.221786022E1
1.560600000E1,-1.768472314E0,-3.073197305E-1,1.065793228E1
1.562600000E1,-2.018886566E0,4.255741239E-1,9.985717773E0
1.564600000E1,-1.458968997E0,6.357371807E-1,9.249959946E0
1.566600000E1,-7.686919570E-1,8.339291811E-1,9.369362831E0
1.568600625E1,-4.771356881E-1,9.989663363E-1,9.261575699E0
1.570800156E1,-4.073494971E-1,1.465299368E0,8.570993423E0
1.572801719E1,-2.808973193E-1,1.938604236E0,8.241742134E0
1.575002031E1,-1.246804520E-1,1.848180056E0,7.292048931E0
1.577200000E1,-4.605199099E-1,2.231281042E0,6.703027248E0
1.579200156E1,-8.751956224E-1,2.609421492E0,6.667622089E0
1.581400000E1,-9.428270459E-1,2.907422781E0,6.943318844E0
1.583400000E1,-8.885361552E-1,3.043442249E0,7.832324028E0
1.585401094E1,-5.323172212E-1,2.817343235E0,7.831798077E0
1.587600781E1,-6.434081793E-1,2.950145006E0,7.866982937E0
1.589602969E1,-9.077759385E-1,3.203183413E0,7.978782654E0
1.591800938E1,-1.608032107E0,3.285132170E0,8.647425652E0
1.594000000E1,-2.155030489E0,3.853343010E0,9.446074486E0
1.596000000E1,-1.267174363E0,3.136777878E0,9.717432976E0
1.598000000E1,-6.246951222E-1,2.657104254E0,1.021867275E1
1.600000000E1,-8.715755939E-1,2.814470291E0,1.040134048E1
1.602000000E1,-1.228522301E0,3.761817694E0,9.716302872E0
1.604000000E1,-1.464686394E0,4.131472588E0,1.107907200E1
1.606000000E1,-1.397342324E0,3.950643539E0,1.171305752E1
1.608000000E1,-8.298494816E-1,3.288761616E0,1.133478355E1
1.610000000E1,-2.984611690E-1,2.524312258E0,1.017696571E1
1.612000000E1,-4.739466012E-1,2.821509361E0,9.318472862E0
1.614000000E1,-2.661203146E-1,3.092398643E0,9.449138641E0
1.616000000E1,1.332804263E-1,3.324444771E0,9.582218170E0
1.618000000E1,-2.720770799E-2,2.863235235E0,9.579555511E0
1.620000625E1,-6.390124559E-1,2.442641020E0,1.015121365E1
1.622200000E1,-1.065639973E0,2.749453306E0,1.025060272E1
1.624200625E1,-6.103586555E-1,3.209006071E0,1.006542492E1
1.626400625E1,-7.595173717E-1,3.618749857E0,9.055694580E0
1.628601562E1,-1.243280172E0,3.926749229E0,6.894793510E0
1.630800469E1,-1.312721729E0,4.012739658E0,6.091174603E0
1.633000000E1,-1.243040800E0,4.019136906E0,6.149564266E0
1.635002500E1,-1.441290259E0,4.286932945E0,6.483613491E0
1.637200000E1,-1.902279377E0,4.235955715E0,7.244126320E0
1.639200625E1,-1.965735316E0,3.687846422E0,7.949353218E0
1.641400000E1,-1.950144291E0,3.123915911E0,9.191532135E0
1.643401562E1,-1.918914318E0,3.059311152E0,9.819061279E0
1.645600000E1,-2.287477732E0,3.215106487E0,1.087846661E1
1.647600000E1,-2.392611980E0,3.084066868E0,1.157467175E1
1.649600000E1,-2.402466536E0,2.542929411E0,1.194197178E1
1.651600000E1,-2.146583796E0,1.978281021E0,1.165431309E1
1.653600000E1,-1.885989308E0,2.430478811E0,1.073391533E1
1.655600000E1,-1.350483060E0,2.592738628E0,1.207412243E1
1.657600000E1,-7.788529396E-1,2.418469191E0,1.178004646E1
1.659600000E1,-7.320320010E-1,2.738373041E0,9.932498932E0
1.661600625E1,-9.662806392E-1,2.331205606E0,8.808918953E0
1.663800000E1,-1.610119700E0,2.219405651E0,8.897026062E0
1.665800156E1,-2.330353022E0,2.774649858E0,9.477236748E0
1.667800156E1,-2.648801088E0,3.707852364E0,9.108721733E0
1.669800781E1,-9.722470045E-1,3.064846516E0,9.689008713E0
1.672000000E1,5.041135550E-1,1.786562920E0,1.001481152E1
1.674000469E1,-1.237706542E-1,1.950192213E0,9.266317368E0
1.676200000E1,-5.967786908E-1,2.342170954E0,8.025115013E0
1.678200000E1,-6.881797314E-1,2.402054787E0,7.639122009E0
1.680200000E1,-6.383995414E-1,2.666422367E0,7.067769527E0
1.682200625E1,-1.692154646E0,3.510943651E0,6.784506798E0
1.684400781E1,-2.227143764E0,3.516479015E0,6.918323517E0
1.686600000E1,-1.944714189E0,2.974623203E0,7.618637085E0
1.688600000E1,-2.273802042E0,3.111839533E0,7.569805145E0
1.690600000E1,-2.497755527E0,3.242946386E0,7.380988598E0
1.692600000E1,-2.596051931E0,3.115430832E0,7.590902805E0
1.694600000E1,-2.250434637E0,3.206956625E0,7.798920631E0
1.696600000E1,-1.836323977E0,3.789187908E0,8.430012703E0
1.698600000E1,-8.853566051E-1,4.083502293E0,8.979261398E0
1.700600000E1,-3.975524008E-1,4.044247150E0,9.865068436E0
1.702600000E1,-5.451501608E-1,4.591427803E0,1.041895294E1
1.704600625E1,-7.994047999E-1,5.085217476E0,1.083031559E1
1.706800625E1,-4.056831002E-1,4.151603222E0,1.277235699E1
1.708802188E1,-3.168007731E-2,3.841812849E0,1.395522785E1
1.711000000E1,-2.457791716E-1,3.847003222E0,1.346658039E1
1.713000312E1,7.341580093E-2,3.074825525E0,1.136522770E1
1.715002031E1,-2.029899955E-1,3.282479286E0,9.946308136E0
1.717002188E1,-4.014597461E-2,3.262894869E0,1.071847725E1
1.719200000E1,6.339750290E-1,3.772897959E0,1.040508556E1
1.721200000E1,1.687682390E0,2.953908682E0,1.022920799E1
1.723200000E1,1.281213999E0,2.375431061E0,9.049306870E0
1.725200000E1,-2.128732651E-1,2.546080351E0,8.174819946E0
1.727200156E1,-1.373419404E0,2.931527615E0,7.382568836E0
1.729200156E1,-1.979430199E0,3.438945055E0,6.906879425E0
1.731200469E1,-1.953668594E0,3.563271284E0,6.863094330E0
1.733400469E1,-1.664908648E0,2.962517977E0,6.837428093E0
1.735400781E1,-2.454382420E0,3.138961077E0,6.765678883E0
1.737600000E1,-2.984247684E0,3.415127754E0,6.777621269E0
1.739600156E1,-3.662908554E0,3.789551973E0,6.719729424E0
1.741800156E1,-2.893660784E0,3.372194767E0,7.097275734E0
1.744000000E1,-2.968522787E0,3.849617720E0,7.766417027E0
1.746000156E1,-3.128129959E0,3.936862469E0,8.173823357E0
1.748000625E1,-3.618261337E0,4.200157642E0,8.345631599E0
1.750200000E1,-2.913781643E0,3.871232748E0,8.465379715E0
1.752200000E1,-2.828031063E0,3.825522423E0,9.395336151E0
1.754200000E1,-2.703331470E0,4.105462074E0,1.032094383E1
1.756200625E1,-2.739024162E0,4.045568943E0,1.136781311E1
1.758400000E1,-2.182573557E0,3.391329288E0,1.347657776E1
1.760400156E1,-2.172814608E0,3.529369354E0,1.322290802E1
1.762400156E1,-2.402724981E0,3.183675289E0,1.081861210E1
1.764400469E1,-2.333868027E0,2.822993755E0,9.434227943E0
1.766600000E1,-2.200721502E0,2.724180222E0,9.880458832E0
1.768602656E1,-1.833316922E0,2.672245026E0,1.083379078E1
1.770800000E1,-1.610225081E0,2.601424456E0,1.065814400E1
1.772800312E1,-9.994834661E-1,2.298146248E0,9.463618279E0
1.775002031E1,-1.069748402E0,2.671680212E0,8.729604721E0
1.777200000E1,-1.075647831E0,3.071023464E0,8.058394432E0
1.779200000E1,-1.410328507E0,3.204878330E0,7.691832542E0
1.781200000E1,-1.512742758E0,3.340696812E0,7.385058403E0
1.783200000E1,-1.546252131E0,3.436886311E0,7.569699764E0
1.785200156E1,-1.053573251E0,3.408701658E0,7.334953308E0
1.787400156E1,-4.024174213E-1,3.400934696E0,7.283554077E0
1.789400469E1,-8.540404439E-1,3.822572708E0,7.250830173E0
1.791600000E1,-1.284843564E0,3.794493675E0,7.899879456E0
1.793600000E1,-1.446231961E0,3.681975842E0,8.454692841E0
1.795600000E1,-1.681055188E0,3.669698238E0,8.662106514E0
1.797601094E1,-1.977591395E0,3.893307209E0,8.696267128E0
1.799800000E1,-2.015649557E0,3.913418531E0,9.141042709E0
1.801800000E1,-1.505359173E0,3.463988543E0,9.392731667E0
1.803800000E1,-1.191009998E0,3.446223497E0,9.572985649E0
1.805800000E1,-1.606940269E0,3.744445324E0,9.337195396E0
1.807800000E1,-1.931862235E0,3.735835791E0,1.016302204E1
1.809800000E1,-2.200558662E0,4.029891491E0,1.156280708E1
1.811800312E1,-1.949732542E0,3.924479723E0,1.238309860E1
1.814000000E1,-1.466458082E0,2.751435757E0,1.212766647E1
1.816000312E1,-1.497400761E0,2.722283840E0,1.053453541E1
1.818200000E1,-1.333235145E0,2.901360512E0,1.045062351E1
1.820400312E1,-6.611539721E-1,3.391425133E0,1.010114670E1
1.822600313E1,-6.500545144E-1,3.515473366E0,1.096916866E1
1.824800000E1,-3.900441825E-1,2.340619326E0,1.038820171E1
1.826800000E1,-5.491628647E-1,2.207147360E0,8.975545883E0
1.828800000E1,-1.554248691E0,2.704097748E0,8.033016205E0
1.830800625E1,-1.900469542E0,3.113400698E0,7.219495296E0
1.833000000E1,-1.289727807E0,2.126482248E0,6.586468220E0
1.835002656E1,-6.625618339E-1,2.646914482E0,6.977249622E0
1.837200000E1,-2.756588161E-1,2.688248158E0,7.298101425E0
1.839200000E1,3.799214959E-1,2.806579113E0,7.324456692E0
1.841200469E1,-1.581034958E-1,2.974565744E0,4.823655605E0
1.843400312E1,-1.897318602E0,3.040626526E0,8.309019089E0
1.845600000E1,-8.394646049E-1,2.221598864E0,7.885255337E0
1.847600000E1,-1.853552580E0,2.869738102E0,9.467602730E0
1.849600000E1,-2.907231092E0,3.492211342E0,1.183108234E1
1.851600156E1,-1.769267201E0,2.741475821E0,1.152932644E1
1.853800000E1,-7.007349133E-1,1.748159885E0,1.133844185E1
1.855800156E1,-1.444134474E0,1.744932532E0,1.216985130E1
1.858000000E1,-2.335400105E0,2.114740849E0,1.218940735E1
1.860000000E1,-1.995567083E0,1.655638337E0,1.328940964E1
1.862000000E1,-1.951580763E0,1.829993606E0,1.286849880E1
1.864000312E1,-1.407828808E0,9.152458310E-1,1.205958366E1
1.866200000E1,-5.163909793E-1,1.463336051E-1,1.101373959E1
1.868200156E1,1.870829165E-1,1.214147583E-1,1.096065521E1
1.870400625E1,-1.090798248E-2,9.041176438E-1,1.108700180E1
1.872600000E1,3.880809247E-1,1.031316757E0,1.014015293E1
1.874800781E1,1.056886792E0,2.221436203E-1,9.341380119E0
1.876801094E1,1.142101169E0,1.457111239E-1,8.921724319E0
1.879000625E1,1.046764135E0,3.340198696E-1,8.540194511E0
1.881200000E1,9.660699368E-1,5.683834553E-1,7.764223576E0
1.883200000E1,5.360138416E-1,8.634831905E-1,6.777726650E0
1.885200000E1,1.487565488E-1,1.787233233E0,6.277740955E0
1.887200156E1,3.198653460E-3,1.944340825E0,6.366795540E0
1.889402656E1,-1.353490204E-1,1.678000212E0,2.840816259E0
1.891402812E1,-5.387815833E-1,1.954032421E0,8.621644974E0
1.893600000E1,-3.435392082E-1,1.867199540E0,8.016860008E0
1.895600625E1,-1.710360289E0,3.069012165E0,9.583520889E0
1.897800000E1,-3.049389362E0,2.859749556E0,9.372447014E0
1.899800000E1,-4.274090290E0,2.728365183E0,1.038131618E1
1.901800000E1,-2.799013376E0,3.111945152E0,9.992018700E0
1.903800312E1,-5.618616939E-1,1.741187930E0,1.156475067E1
1.906000000E1,-6.069396734E-1,1.729226589E0,1.222615337E1
1.908000000E1,-9.830687642E-1,2.412378311E0,1.218712807E1
1.910000000E1,2.835021913E-1,1.637001991E0,1.327657604E1
1.912000000E1,1.398663998E0,1.089313865E0,1.345759678E1
1.914000000E1,1.397035837E0,1.473726988E0,1.209919453E1
1.916000000E1,1.515750051E0,2.230390310E0,1.097051907E1
1.918000625E1,1.720195532E0,1.316159725E0,1.127424812E1
1.920200000E1,2.467952728E0,1.466122866E0,1.060387135E1
1.922200000E1,1.983806729E0,2.038107395E0,1.046633911E1
1.924400625E1,1.406152964E0,1.962287664E0,8.945504189E0
1.926600000E1,5.786880851E-1,1.899157405E0,7.966869354E0
1.928602188E1,-6.592673808E-2,2.250952005E0,7.687733650E0
1.930800156E1,-7.738921642E-1,2.967019320E0,7.604836941E0
1.933000469E1,-8.430079818E-1,2.906723738E0,8.053290367E0
1.935002188E1,-3.723749816E-1,2.906388521E0,7.688107491E0
1.937002188E1,6.906793267E-2,2.812784672E0,7.506722450E0
1.939200000E1,-2.515444160E-1,2.825952768E0,7.563637733E0
1.941200625E1,-9.254547358E-1,3.010986328E0,7.168354988E0
1.943400000E1,-4.335420430E-1,3.173495054E0,8.196760178E0
1.945400781E1,-7.240927815E-1,3.510311604E0,8.615324020E0
1.947600156E1,-7.257495522E-1,3.469705820E0,9.744361877E0
1.949800000E1,-9.977883101E-1,3.557046413E0,9.804361343E0
1.951800000E1,-1.079401895E-1,3.511441708E0,1.097335434E1
1.953800000E1,2.906465232E-1,3.189881086E0,1.069017792E1
1.955800000E1,5.593812838E-2,2.666546822E0,1.053954411E1
1.957800000E1,-1.053333879E0,3.726402521E0,1.080253315E1
1.959800000E1,-6.041049585E-2,2.806895018E0,1.162227821E1
1.961800000E1,-3.906379268E-2,2.508270979E0,1.184831047E1
1.963800000E1,-5.951985717E-1,2.110747337E0,1.103137016E1
1.965800000E1,-1.027667999E0,1.619533777E0,1.025937462E1
1.967800000E1,-1.395244956E0,2.003726482E0,1.013892651E1
1.969800000E1,-2.860017717E-1,1.019776702E0,1.020690346E1
1.971800156E1,-2.193280309E-1,1.262481689E0,1.080773354E1
1.974000000E1,-4.481275380E-1,1.795900226E0,1.061227036E1
1.976000000E1,-6.198683977E-1,1.872150779E0,9.576997757E0
1.978000000E1,3.714843467E-2,1.222891212E0,8.165894508E0
1.980000156E1,1.024814099E-1,1.538245797E0,6.620532513E0
1.982199844E1,-7.094498724E-2,2.038337231E0,6.544521332E0
1.984200000E1,-4.124347568E-1,2.393636703E0,6.882515430E0
1.986200469E1,-4.358213246E-1,2.679762840E0,6.150895596E0
1.988400312E1,-5.434741974E-1,2.650180101E0,7.980736256E0
1.990400313E1,-3.598772585E-1,3.253566980E0,7.183218002E0
1.992400469E1,7.887458056E-2,3.301412582E0,6.925218582E0
1.994600000E1,-4.404373467E-1,3.727283716E0,7.674182415E0
1.996600156E1,-7.100244761E-1,3.554987192E0,7.883464336E0
1.998800000E1,-5.055021644E-1,3.610580683E0,8.714759827E0
2.000800000E1,-2.600964904E-1,3.400580406E0,9.786003113E0
2.002800156E1,-8.586564660E-2,3.703159571E0,1.137994766E1
2.005003750E1,3.199994266E-1,3.504689932E0,1.237340736E1
2.007200000E1,3.253241181E-1,4.049859047E0,1.276786613E1
2.009200156E1,1.378447294E0,3.639559984E0,1.274205685E1
2.011400000E1,2.291270256E0,2.841266155E0,1.297672653E1
2.013400469E1,1.824381709E0,2.490936995E0,1.212186241E1
2.015600000E1,2.158133388E-1,3.126501799E0,1.134724236E1
2.017800000E1,7.165175080E-1,2.794368744E0,1.106184387E1
2.019800000E1,1.626898289E0,2.190282822E0,1.089651966E1
2.021800000E1,1.430765390E0,2.600055218E0,1.033024311E1
2.023800000E1,1.200251579E0,2.783508539E0,9.389167786E0
2.025800469E1,7.434091568E-1,2.816864491E0,8.654991150E0
2.028000000E1,1.275726408E-1,2.952816963E0,7.980870247E0
2.030000625E1,-3.572053313E-1,3.222940207E0,7.458723545E0
2.032200000E1,-7.957560420E-1,3.363278866E0,7.182681561E0
2.034200469E1,-8.789497614E-1,3.694444895E0,6.854149342E0
2.036400156E1,-5.861388445E-1,3.776163578E0,7.293495178E0
2.038400781E1,-3.953018486E-1,3.786908865E0,7.486132145E0
2.040600000E1,-4.905240610E-2,3.617293835E0,7.702874660E0
2.042600000E1,7.488104701E-2,3.592691183E0,7.580779552E0
2.044600000E1,-2.045893222E-1,3.921587467E0,7.373289108E0
2.046600625E1,-5.321927667E-1,4.459899902E0,7.429811001E0
2.048800000E1,-2.451183647E-1,4.992197990E0,8.267073631E0
2.050800781E1,5.173103809E-1,4.815888882E0,9.305783272E0
2.053000000E1,1.096937060E0,4.139258862E0,9.681365967E0
2.055002344E1,4.464228451E-1,3.962471008E0,1.067189598E1
2.057200000E1,9.018479288E-2,4.656425476E0,1.011878681E1
2.059200000E1,6.638355255E-1,4.440793991E0,1.113683033E1
2.061400000E1,9.502969384E-1,3.795451403E0,1.099250793E1
2.063400156E1,-3.950624466E-1,4.108095646E0,1.075733948E1
2.065600312E1,-1.021759152E0,4.087189674E0,9.735906601E0
2.067800000E1,-7.436102629E-1,4.020544529E0,1.012358475E1
2.069800469E1,-3.492853045E-1,4.169023514E0,1.132271576E1
2.072000000E1,9.106202126E-1,3.412618399E0,1.111800194E1
2.074000469E1,1.409945488E0,2.987303019E0,1.020178890E1
2.076199844E1,1.020006537E0,2.985128880E0,8.954113007E0
2.078200000E1,6.948068738E-1,2.765293360E0,7.553668022E0
2.080200000E1,2.768367529E-1,2.892923594E0,6.437807083E0
2.082200625E1,9.510727227E-2,2.721230507E0,5.946583748E0
2.084400156E1,4.100405574E-1,2.575241804E0,5.879584789E0
2.086402031E1,-8.870995790E-2,2.531676769E0,6.352468491E0
2.088600000E1,-6.325959563E-1,3.051496267E0,6.393294334E0
2.090600625E1,-1.526073694E0,4.383265972E0,7.034413338E0
2.092800000E1,-2.595985174E0,5.900596142E0,6.168814182E0
2.094800625E1,-2.367760181E0,4.089315891E0,8.735685349E0
2.096800938E1,3.092350997E-2,3.288053036E0,8.435969353E0
2.099000000E1,1.378677130E0,1.955191255E0,9.218816757E0
2.101000000E1,1.830999255E0,2.005479097E0,1.008102512E1
2.103000000E1,7.441178709E-2,3.812756538E0,1.124879265E1
2.105003594E1,-4.017470405E-2,3.155203581E0,1.178582191E1
2.107200313E1,2.201324701E-1,3.290380239E0,1.146837902E1
2.109400000E1,1.164702535E0,2.872467518E0,1.270749378E1
2.111400781E1,1.177037477E0,2.863561153E0,1.334403515E1
2.113600000E1,-5.175880790E-1,2.605820417E0,1.325965405E1
2.115600000E1,-1.271378517E0,2.208459377E0,1.181488800E1
2.117600000E1,-3.522349596E-1,1.496577144E0,1.023062515E1
2.119600312E1,1.307990670E0,2.080484629E0,1.148582840E1
2.121800000E1,2.309513807E0,2.122545958E0,1.081812382E1
2.123800313E1,2.271369696E0,1.287122846E0,9.986742020E0
2.126000000E1,1.128971457E0,2.501567364E0,9.583481789E0
2.128000156E1,9.753978252E-2,2.247102022E0,8.782314301E0
2.130200156E1,-5.413289666E-1,2.218505621E0,7.996317863E0
2.132200156E1,-1.345483899E0,2.966492414E0,7.969042778E0
2.134400938E1,-1.619313478E0,3.149246931E0,7.365388393E0
2.136600156E1,-2.273409367E0,2.751991272E0,7.060501099E0
2.138600781E1,-1.846302986E0,2.993776798E0,4.529006004E0
2.140800000E1,-3.070841312E0,3.370566607E0,8.953452110E0
2.142801406E1,-1.378667474E0,2.718482018E0,9.439035416E0
2.145002656E1,-4.579629004E-1,2.307493448E0,9.594006538E0
2.147200000E1,-6.142659783E-1,2.967728138E0,1.014419460E1
2.149200156E1,-4.996124208E-1,3.516229868E0,1.108224201E1
2.151200312E1,3.610743284E-1,2.712218761E0,1.157861805E1
2.153400156E1,8.590204120E-1,2.706951380E0,1.158310890E1
2.155400469E1,4.654328153E-2,3.466765881E0,1.109594727E1
2.157600156E1,-9.265465140E-1,3.851408720E0,1.067600346E1
2.159800156E1,-2.235849142E0,3.302207470E0,1.003815079E1
2.162000938E1,-4.032927513E0,3.077775002E0,9.059736252E0
2.164200000E1,-4.470702648E0,3.745144367E0,8.376113892E0
2.166200000E1,-1.412013888E0,2.508395433E0,8.756046295E0
2.168200000E1,6.960998178E-1,1.385333061E0,1.115416431E1
2.170200781E1,1.867285818E-1,2.484980106E0,1.075204372E1
2.172400313E1,8.080526590E-1,2.437709332E0,1.097723198E1
2.174402031E1,3.819230795E-1,2.542421818E0,9.897046089E0
2.176600000E1,1.695573628E-1,2.525423050E0,9.200486183E0
2.178603281E1,-1.637921333E-1,2.940836191E0,9.181399345E0
2.180800000E1,-4.502727389E-1,3.329989672E0,8.669432640E0
2.182800000E1,-9.865068793E-1,3.286875010E0,7.081847668E0
2.184800000E1,-2.523383379E0,3.436014652E0,6.213049412E0
2.186800469E1,-1.962278128E0,3.150913000E0,5.843001366E0
2.188800625E1,-3.452783585E0,4.351251125E0,6.427885532E0
2.191000781E1,-1.405492127E-1,2.853821278E0,7.841968060E0
2.193200000E1,1.164597154E0,1.745373011E0,8.933244705E0
2.195200469E1,1.312568307E0,1.855956435E0,8.628904343E0
2.197400156E1,4.795490205E-1,2.443139076E0,1.001516628E1
2.199401250E1,3.298443854E-1,2.044217348E0,1.055220413E1
2.201600000E1,1.074747562E0,1.200672984E0,1.153405666E1
2.203600000E1,3.087562509E-2,2.740202188E0,1.231835938E1
2.205600000E1,1.803695858E-1,3.531160116E0,1.083478737E1
2.207600312E1,5.573509932E-1,2.846476078E0,1.057162571E1
2.209800000E1,-8.650059104E-1,1.903438210E0,1.028938866E1
2.211800000E1,-1.501001716E0,2.942397118E0,7.612469673E0
2.213800000E1,-3.474609137E0,2.868837833E0,1.051949024E1
2.215800312E1,-2.601826787E-1,6.974692345E-1,1.151863861E1
2.218000781E1,5.763130784E-1,5.671097636E-1,1.197315311E1
2.220200000E1,2.755534649E-1,8.968008757E-1,1.068333054E1
2.222200000E1,-2.398224026E-1,1.315441370E0,1.070698547E1
2.224200625E1,-1.598790407E0,1.340992451E0,1.025716209E1
2.226402031E1,-2.573958158E0,1.306132793E0,9.423913002E0
2.228601406E1,-2.865830898E0,1.811309338E0,8.832353592E0
2.230800938E1,-2.596722364E0,2.358671665E0,8.022720337E0
2.233000000E1,-2.791284800E0,1.927418590E0,7.100417137E0
2.235002344E1,-3.224089384E0,1.650083899E0,6.288945198E0
2.237200000E1,-3.628814936E0,1.708751321E0,5.901036739E0
2.239200000E1,-5.157445908E0,2.617418051E0,7.301673412E0
2.241200000E1,-4.544185162E0,2.402801752E0,9.046165466E0
2.243200781E1,-3.104302645E0,1.656327844E0,1.003906918E1
2.245400000E1,-2.119079113E0,1.022726417E0,9.278172493E0
2.247400469E1,-3.008850813E0,1.133137345E0,8.515763283E0
2.249400469E1,-3.668730974E0,7.534552813E-1,9.999048233E0
2.251400938E1,-4.497948170E0,5.508292317E-1,1.132631779E1
2.253600000E1,-4.083186626E0,9.182816744E-1,1.424801826E1
2.255600000E1,-4.015334606E0,3.779582381E-1,1.396088696E1
2.257600000E1,-4.130562782E0,1.030368656E-1,1.059984016E1
2.259600000E1,-6.317752361E0,-1.352580309E0,7.796698570E0
2.261600781E1,-7.514010906E0,-5.128188729E-1,7.669604778E0
2.263800000E1,-6.675685406E0,-2.938164473E-1,7.382022858E0
2.265800000E1,-5.574266434E0,6.570168734E-1,9.262199402E0
2.267800000E1,-5.826500416E0,1.749012321E-1,1.268089867E1
2.269800156E1,-5.242286682E0,-9.064159989E-1,1.257723904E1
2.272000000E1,-3.513424158E0,-2.333618879E0,8.841749191E0
2.274000625E1,-2.821442127E0,-9.217389822E-1,7.655038357E0
2.276199844E1,-2.651693344E0,6.896928549E-1,6.505151272E0
2.278203125E1,-1.306362629E0,1.612523556E0,7.132508755E0
2.280400625E1,1.180341393E-1,1.931191802E0,7.250341892E0
2.282600000E1,6.832285523E-1,2.277795553E0,5.783232212E0
2.284600000E1,1.144399643E0,2.864633560E0,3.790203333E0
2.286600156E1,9.423098564E-1,4.149065495E0,6.389032841E0
2.288801562E1,4.253155589E-1,5.290812492E0,7.870612144E0
2.291000000E1,-8.165185452E-1,4.699703217E0,6.258079052E0
2.293000781E1,3.969203532E-1,2.418296814E0,7.464671135E0
2.295002031E1,9.999909997E-1,1.158448815E0,7.246482372E0
2.297200625E1,1.604230046E0,1.949110031E0,6.656014442E0
2.299400313E1,2.967134237E0,2.139477730E0,7.388937473E0
2.301400625E1,3.678892136E0,2.188463211E0,7.420856953E0
2.303600000E1,2.849052191E0,1.669840813E0,7.985955715E0
2.305600000E1,3.237142563E0,1.389881968E0,9.364824295E0
2.307600000E1,3.561748505E0,2.592269182E0,1.240653324E1
2.309600000E1,3.411852360E0,3.052616596E0,1.504488564E1
2.311600000E1,1.534242749E0,7.258261442E-1,1.314140892E1
2.313600000E1,-4.849311709E-1,1.709412098E0,1.221467113E1
2.315600000E1,1.963255048E0,2.285524130E0,1.173763084E1
2.317600000E1,4.187295914E0,9.108692408E-1,1.158108902E1
2.319600000E1,2.258910179E0,8.882966638E-1,1.215500736E1
2.321600000E1,7.989929914E-1,1.459936261E0,1.161283588E1
2.323600000E1,8.069417626E-2,1.791198134E0,1.035012436E1
2.325600000E1,-1.795459688E-1,2.190752029E0,9.680208206E0
2.327600000E1,-3.347189724E-1,2.065228701E0,9.841787338E0
2.329600000E1,-6.179625988E-1,1.740747452E0,8.988828659E0
2.331600000E1,-7.703487277E-1,1.422989011E0,8.019253731E0
2.333600000E1,-1.762841225E0,1.139697552E0,7.027882099E0
2.335600000E1,-2.766260624E0,1.486607671E0,6.633403778E0
2.337600000E1,-3.677972555E0,2.621306181E0,6.740568161E0
2.339600000E1,-2.262932301E0,4.198893547E0,6.974261761E0
2.341600000E1,-1.440495372E0,4.475577354E0,5.992456913E0
2.343600000E1,4.482615888E-1,3.631563425E0,7.423260689E0
2.345600000E1,1.657745242E0,3.124184370E0,8.332157135E0
2.347600000E1,8.158003092E-1,4.256478786E0,8.762835503E0
2.349600000E1,8.699571490E-1,4.191663265E0,9.817309380E0
2.351600000E1,1.724131703E0,2.849301100E0,1.156440639E1
2.353600000E1,8.508992940E-2,2.986594200E0,1.200478649E1
2.355600000E1,-2.730730474E-1,3.133674860E0,1.198748016E1
2.357600000E1,7.719576359E-1,1.690191507E0,1.214852428E1
2.359600000E1,4.338867962E-1,7.005625367E-1,1.119518185E1
2.361600156E1,9.266901016E-1,-5.848843455E-1,7.855663300E0
2.363800000E1,2.418689728E0,-5.741391778E-1,7.948720932E0
2.365800000E1,3.749118567E0,-6.422877312E-1,2.964606047E0
2.367800156E1,4.380249500E0,-1.766566515E0,8.405103683E0
2.370000000E1,4.291070461E0,-2.219520807E0,1.118740559E1
2.372000000E1,4.665255547E0,-2.280438662E0,7.939431667E0
2.374000000E1,5.064378262E0,-9.076322913E-1,6.912730694E0
2.376000000E1,5.055596352E0,2.735710740E-1,6.276016712E0
2.378000156E1,5.272942066E0,2.177957445E-1,4.988089561E0
2.380200156E1,4.968093395E0,8.127836138E-2,3.477903605E0
2.382400156E1,4.745690823E0,-3.976577520E-1,3.106333017E0
2.384600000E1,4.953287125E0,-1.413258910E0,8.545767665E-1
2.386600156E1,6.244269371E0,-1.688534617E0,8.528434038E-1
2.388800156E1,9.365551949E0,-2.621497631E0,1.801071763E0
2.391000156E1,1.273304462E1,-4.725023746E0,1.839024663E0
2.393200000E1,1.433829021E1,-5.917202473E0,1.411745906E0
2.395200000E1,1.479200077E1,-7.050406933E0,1.756156445E0
2.397200000E1,1.568254757E1,-8.651199341E0,2.287094831E0
2.399200000E1,1.655353928E1,-9.249778748E0,3.815543413E0
2.401200156E1,1.762099838E1,-8.637724876E0,4.359918118E0
2.403400000E1,1.987781334E1,-9.787334442E0,3.414380550E0
2.405400156E1,1.802485275E1,-9.379840851E0,3.404037714E0
2.407600156E1,1.297684193E1,-5.044554234E0,5.220422745E0
2.409800156E1,1.134582520E1,-4.446751118E0,5.578221798E0
2.412000000E1,1.370364475E1,-6.049017429E0,5.416766644E0
2.414000000E1,1.525119877E1,-5.851534367E0,4.784026623E0
2.416000000E1,1.468479824E1,-4.535613537E0,4.320317745E0
2.418000000E1,1.245662880E1,-2.941113949E0,4.183800220E0
2.420000000E1,1.039871693E1,-1.737855196E0,4.874355316E0
2.422000000E1,8.824959755E0,-1.043345213E0,5.253491402E0
2.424000156E1,7.240468025E0,-2.436818480E-1,5.094018459E0
2.426000156E1,6.095541954E0,2.011608332E-1,4.209973812E0
2.428000156E1,5.785636425E0,4.844427705E-1,2.514237404E0
2.430000156E1,5.608580112E0,7.417332530E-1,1.276195645E0
2.432000156E1,6.061821938E0,6.763141155E-1,7.614231706E-1
2.434000156E1,6.812058926E0,5.143128037E-1,9.117886424E-1
2.436200156E1,6.842963696E0,9.310571551E-1,1.660177708E0
2.438200156E1,6.987468243E0,1.197694540E0,2.095731020E0
2.440200156E1,8.106863022E0,5.420951247E-1,2.765638113E0
2.442200156E1,9.211202621E0,-2.552793622E-1,3.330142975E0
2.444200156E1,1.022199631E1,-1.435410142E0,3.405186653E0
2.446200156E1,1.140432072E1,-2.439241409E0,3.199774027E0
2.448200156E1,1.243027306E1,-3.100634813E0,2.846073627E0
2.450200156E1,1.277407169E1,-3.431839228E0,2.329606295E0
2.452200156E1,1.295095539E1,-3.735902786E0,1.870838761E0
2.454200156E1,1.323991585E1,-4.273094654E0,1.708990693E0
2.456200156E1,1.254991722E1,-3.177766323E0,1.813301325E0
2.458200156E1,1.394959545E1,-3.780884981E0,2.041258097E0
2.460200156E1,1.692520523E1,-5.726365089E0,2.107960463E0
2.462200156E1,1.908691216E1,-7.598803520E0,1.749299526E0
2.464200156E1,1.903863525E1,-8.404337883E0,1.269520640E0
2.466401406E1,1.609530830E1,-7.617612362E0,3.718961477E-1
2.468600625E1,1.273718166E1,-7.001277924E0,-8.978831172E-1
2.470800000E1,9.296829224E0,-5.825389862E0,-2.122114897E0
2.472800000E1,6.322713375E0,-4.067624092E0,-2.583085060E0
2.474800156E1,3.886354446E0,-2.843717813E0,-2.492928982E0
2.477000313E1,2.146612644E0,-1.016597152E0,-2.005565405E0
2.479200156E1,3.224031925E0,-5.705478787E-1,-1.812898993E0
2.481200156E1,5.310952187E0,-1.208104610E0,-2.051553249E0
2.483200156E1,7.354403496E0,-2.124978542E0,-2.052769184E0
2.485400000E1,9.861362457E0,-4.451730728E0,-2.634752035E0
2.487400156E1,1.114339066E1,-6.204659462E0,-2.375747204E0
2.489401719E1,1.060922432E1,-7.032248974E0,-2.118207693E0
2.491600156E1,8.554089546E0,-7.212082386E0,-1.859787107E0
2.493800000E1,6.536908150E0,-7.056277275E0,-1.423496604E0
2.495800000E1,6.128983974E0,-7.029395580E0,-7.475847006E-1
2.497800000E1,6.822105408E0,-6.384215355E0,-1.128818244E-1
2.499800000E1,8.826636314E0,-6.512726784E0,-7.377014160E-1
2.501800000E1,1.102617931E1,-6.292757034E0,-2.565454006E0
2.503800000E1,1.317240906E1,-6.761378765E0,-4.646503925E0
2.505800000E1,1.242706585E1,-5.421813488E0,-6.143961906E0
2.507800000E1,9.816743851E0,-3.452649593E0,-5.345658779E0
2.509800156E1,9.218346596E0,-3.582472563E0,-3.296126127E0
2.512000000E1,1.122906399E1,-5.333534241E0,-1.262318850E0
2.514000000E1,1.312926579E1,-6.524554253E0,-5.484637618E-1
2.516000000E1,1.327607822E1,-6.192918777E0,6.192363426E-2
2.518000000E1,1.250762558E1,-5.386637688E0,7.918199301E-1
2.520000000E1,1.064071369E1,-4.436848640E0,1.362339139E0
2.522000000E1,8.063345909E0,-3.070448637E0,1.667906284E0
2.524000000E1,6.708189487E0,-1.862296224E0,2.046362638E0
2.526000000E1,6.643880844E0,-1.353107095E0,1.597631574E0
2.528000000E1,7.039412498E0,-1.022084713E0,7.335546613E-1
2.530000000E1,7.784124374E0,-1.330266356E0,-1.090127975E-1
2.532000000E1,8.098272324E0,-1.348835826E0,-8.569900990E-1
2.534000000E1,7.728550434E0,-1.137887478E0,-1.352618694E0
2.536000000E1,8.117157936E0,-8.148234487E-1,-1.129392833E-1
2.538000000E1,9.764062881E0,-7.333056927E-1,4.316170812E-1
2.540000000E1,1.186421776E1,-5.713810325E-1,1.332670212E0
2.542000000E1,1.399768066E1,-9.221794605E-1,2.360836267E0
2.544000000E1,1.531981659E1,-1.917966366E0,3.171598911E0
2.546000000E1,1.476657391E1,-1.711471200E0,3.628278494E0
2.548000000E1,1.289729691E1,-1.764584064E0,4.724678993E0
2.550000000E1,1.205650997E1,-2.054809332E0,5.973973751E0
2.552200000E1,1.163284206E1,-2.882350683E0,7.211862087E0
2.554400625E1,1.179938316E1,-3.448780537E0,7.474218845E0
2.556400781E1,1.189370441E1,-3.252896547E0,7.212896347E0
2.558600156E1,1.375645161E1,-4.975342751E0,6.159840107E0
2.560800156E1,1.600998878E1,-7.866609573E0,5.442183018E0
2.563000000E1,1.557549763E1,-9.597607613E0,4.291434288E0
2.565001875E1,1.410233688E1,-9.499713898E0,2.910928011E0
2.567200000E1,1.325837135E1,-8.337136269E0,1.851991534E0
2.569200000E1,1.429573059E1,-8.192786217E0,1.372586250E0
2.571200000E1,1.467945385E1,-8.193188667E0,7.727716565E-1
2.573200000E1,1.290939140E1,-7.264822006E0,2.105748355E-1
2.575200000E1,1.028668785E1,-6.687771320E0,-7.845320106E-1
2.577200000E1,7.257744789E0,-5.641102791E0,-1.181433201E0
2.579200000E1,6.422168255E0,-4.796256542E0,-1.116033196E0
2.581200000E1,7.394252300E0,-4.966790676E0,-1.586934328E0
2.583200000E1,8.075422287E0,-5.746247292E0,-1.973971486E0
2.585200000E1,6.818121433E0,-5.375998020E0,-2.496041536E0
2.587200000E1,6.345984936E0,-5.464372635E0,-2.477787971E0
2.589200000E1,6.693364143E0,-6.011668205E0,-2.551309347E0
2.591200000E1,6.484657288E0,-6.042505264E0,-2.731822491E0
2.593200000E1,6.833654881E0,-6.503906250E0,-2.508548737E0
2.595200000E1,7.748718739E0,-7.187345505E0,-2.105001211E0
2.597200000E1,8.644112587E0,-7.019291878E0,-2.346451759E0
2.599200000E1,9.257745743E0,-6.460801125E0,-3.530173779E0
2.601200000E1,9.084271431E0,-5.620867252E0,-4.019788265E0
2.603200000E1,8.680647850E0,-5.122557163E0,-4.121809483E0
2.605200000E1,8.317533493E0,-4.279922962E0,-4.623126984E0
2.607200000E1,7.890177727E0,-3.074748755E0,-4.366219044E0
2.609200156E1,9.350104332E0,-3.291577101E0,-3.075897932E0
2.611400000E1,1.105650997E1,-4.446338654E0,-1.012804866E0
2.613401094E1,1.194307327E1,-4.763810158E0,7.106181979E-1
2.615600000E1,1.280088711E1,-4.548197746E0,1.200471878E0
2.617600000E1,1.309220314E1,-4.364879131E0,1.182860136E0
2.619600000E1,1.221573448E1,-3.718482494E0,1.143604875E0
2.621600000E1,1.039879417E1,-2.488111734E0,8.947898149E-1
2.623600625E1,8.816322327E0,-1.534424663E0,7.745146751E-1
2.625800000E1,8.182749748E0,-7.089422345E-1,4.332643151E-1
2.627800000E1,7.433766365E0,-7.508216798E-2,-1.796608865E-1
2.629800000E1,7.031961918E0,1.208688840E-1,-8.574690223E-1
2.631800000E1,6.831471443E0,8.441955596E-2,-1.284546614E0
2.633800000E1,6.551550865E0,3.286759853E-1,-1.031527519E0
2.635800000E1,6.755996704E0,4.179318547E-1,-5.666500926E-1
2.637800000E1,9.107054710E0,1.959012508E0,-3.048297763E-1
2.639800000E1,1.161778736E1,1.911339164E0,-1.325870633E0
2.641800000E1,1.296644115E1,1.397524238E0,-2.217136145E0
2.643800000E1,1.345677376E1,1.104435682E0,-1.363909721E0
2.645800000E1,1.431578445E1,7.666042447E-1,-2.297859043E-1
2.647800000E1,1.462818909E1,8.939470053E-1,9.297546744E-1
2.649800000E1,1.520041275E1,6.854120493E-1,2.114961147E0
2.651800000E1,1.571473503E1,1.212711036E-1,2.728891850E0
2.653800000E1,1.408120060E1,4.993347228E-1,3.558904409E0
2.655800000E1,1.344429493E1,6.389645487E-2,3.642059565E0
2.657800000E1,1.478218460E1,-1.345656276E0,3.282258987E0
2.659800156E1,1.634721756E1,-3.043231487E0,2.980235338E0
2.662000000E1,1.644926834E1,-3.734897137E0,2.263803959E0
2.664000156E1,1.530147743E1,-3.319014788E0,1.241700053E0
2.666200469E1,1.482879448E1,-2.932858944E0,-5.935704708E-2
2.668400000E1,1.287609386E1,-3.229586601E0,-1.677693725E0
2.670400000E1,1.008016396E1,-2.739187002E0,-1.630853653E0
2.672400469E1,7.573185444E0,-2.489078999E0,-1.880588055E0
2.674600000E1,5.991968632E0,-2.346059084E0,-1.938747883E0
2.676600000E1,5.234165668E0,-2.603617668E0,-2.119222879E0
2.678602031E1,4.421956539E0,-2.992254257E0,-1.902470946E0
2.680800000E1,4.537491322E0,-3.425757885E0,-1.158439279E0
2.682800000E1,5.523404121E0,-3.965707779E0,-1.175648808E0
2.684800000E1,7.276294708E0,-4.617754459E0,-1.662849784E0
2.686800625E1,8.479822159E0,-5.022000790E0,-2.129211426E0
2.689000000E1,8.861007690E0,-5.360751629E0,-2.359303713E0
2.691000000E1,8.859695435E0,-6.037276268E0,-2.530498743E0
2.693000000E1,8.922635078E0,-6.629697800E0,-2.744061470E0
2.695002500E1,9.008729935E0,-6.609184265E0,-3.159340620E0
2.697200000E1,8.597472191E0,-6.530156136E0,-3.291433573E0
2.699200000E1,9.100302696E0,-6.936720848E0,-3.207349062E0
2.701200000E1,9.708793640E0,-7.178381920E0,-3.833499908E0
2.703200000E1,8.761457443E0,-5.646695614E0,-4.109014988E0
2.705200000E1,8.285441399E0,-4.078944206E0,-3.747730255E0
2.707200000E1,1.050206089E1,-4.957031727E0,-2.554574966E0
2.709200156E1,1.212117290E1,-5.792502880E0,-1.630566239E0
2.711400156E1,1.295452690E1,-5.570455074E0,-8.901258707E-1
2.713400156E1,1.300454712E1,-4.622743607E0,-8.208089471E-1
2.715600000E1,1.283747959E1,-3.866089821E0,-1.603042483E0
2.717600000E1,1.084202766E1,-2.927591562E0,-1.422040939E0
2.719600000E1,7.767460346E0,-1.197244525E0,-5.606358647E-1
2.721600156E1,6.627264977E0,-4.050414860E-1,-7.191320062E-1
2.723800000E1,6.143827915E0,1.344487965E-1,-1.654766798E0
2.725800000E1,5.865200043E0,5.187277198E-1,-2.199256182E0
2.727800000E1,6.007444859E0,4.825752974E-1,-2.395025492E0
2.729800000E1,5.740356922E0,6.027354598E-1,-2.087044716E0
2.731800156E1,6.228534698E0,5.286014676E-1,-1.859011531E0
2.734000156E1,7.447393894E0,3.995539546E-1,-1.866577148E0
2.736200312E1,9.234560966E0,2.274395972E-1,-1.792931557E0
2.738400000E1,1.156266308E1,-1.264138520E-1,-2.194611549E0
2.740400469E1,1.345982838E1,-6.305752397E-1,-2.680002451E0
2.742600000E1,1.412125111E1,-7.911112905E-1,-2.535315990E0
2.744600000E1,1.471862316E1,-1.186729074E0,-1.964681864E0
2.746600000E1,1.434342289E1,-1.150739551E0,-1.258066773E0
2.748800313E1,1.418270493E1,-1.804318190E0,-6.078974009E-1
2.751000000E1,1.326107121E1,-2.035282135E0,-1.543494016E-1
2.753000000E1,1.217798233E1,-1.374463201E0,1.051983476E0
2.755001875E1,1.447945213E1,-2.667284489E0,1.045308471E0
2.757200000E1,1.752317238E1,-4.768052578E0,5.701647997E-1
2.759200156E1,1.812181854E1,-6.032784939E0,4.580969810E-1
2.761400156E1,1.645765686E1,-5.638871670E0,3.761578202E-1
2.763401250E1,1.507099247E1,-5.322444439E0,-1.034036636E0
2.765600156E1,1.349746513E1,-4.846917629E0,-2.273332834E0
2.767800156E1,1.105939293E1,-4.087725639E0,-2.537633657E0
2.769800156E1,8.714204788E0,-3.391970873E0,-2.462627888E0
2.772000000E1,6.566921711E0,-2.667112112E0,-2.357082129E0
2.774000000E1,5.425615311E0,-2.370738506E0,-2.091603279E0
2.776000000E1,5.189863205E0,-2.585469723E0,-1.950422049E0
2.778000000E1,5.264858723E0,-2.779668331E0,-1.537498951E0
2.780000000E1,5.758236885E0,-3.617686749E0,-1.627607107E0
2.782000000E1,6.051583767E0,-4.398081779E0,-1.848065138E0
2.784000000E1,5.932812691E0,-4.959780216E0,-2.043949127E0
2.786000000E1,6.092946053E0,-5.289883137E0,-2.509449005E0
2.788000000E1,6.554740429E0,-6.297487736E0,-2.995156050E0
2.790000000E1,6.300312996E0,-7.020728588E0,-3.001218081E0
2.792000000E1,6.128744602E0,-7.274245739E0,-2.583113670E0
2.794000000E1,6.183361053E0,-6.865411758E0,-2.347725391E0
2.796000000E1,6.735741615E0,-6.053863049E0,-2.386961699E0
2.798000000E1,9.407125473E0,-6.874557495E0,-2.960373163E0
2.800000000E1,1.035363007E1,-6.549827099E0,-3.152033806E0
2.802000000E1,9.654973030E0,-4.710257053E0,-2.499737978E0
2.804000000E1,1.130170536E1,-5.091681480E0,-2.032083511E0
2.806000156E1,1.364820385E1,-6.306729317E0,-1.744434595E0
2.808200000E1,1.524365234E1,-6.772650719E0,-1.209110141E0
2.810200000E1,1.455871010E1,-5.496368885E0,-1.011176705E0
2.812200000E1,1.375908470E1,-4.515244007E0,-1.361793160E0
2.814200000E1,1.248921013E1,-3.625960827E0,-1.774103522E0
2.816200000E1,1.009257507E1,-2.312329531E0,-1.367050886E0
2.818200000E1,7.704244137E0,-9.087144732E-1,-1.281913042E0
2.820200000E1,6.484944344E0,-5.288312584E-2,-1.653972030E0
2.822200000E1,6.144297600E0,2.941899300E-1,-2.041133642E0
2.824200000E1,6.240371704E0,2.840576768E-1,-2.413901091E0
2.826200000E1,6.041681767E0,2.416419834E-1,-2.188874960E0
2.828200000E1,6.792541981E0,-4.811579287E-1,-1.865025640E0
2.830200156E1,7.935763836E0,-6.662871838E-1,-1.269242883E0
2.832200156E1,1.000825214E1,-6.744179130E-1,-9.314880967E-1
2.834400000E1,1.296414280E1,-7.071896791E-1,-1.123981953E0
2.836400781E1,1.374076366E1,-6.043922901E-1,-1.393281698E0
2.838600000E1,1.310283375E1,2.300444841E-1,-6.892140508E-1
2.840600000E1,1.382547092E1,-6.115748882E-1,2.997253239E-1
2.842600000E1,1.442308331E1,-8.881051540E-1,5.597643256E-1
2.844600000E1,1.389827347E1,-1.253115654E0,9.483624101E-1
2.846600000E1,1.321294785E1,-1.847720385E0,1.296680570E0
2.848600000E1,1.181270409E1,-1.955909491E0,1.645381570E0
2.850600000E1,1.109467316E1,-1.779093027E0,2.390600920E0
2.852600000E1,1.411518860E1,-3.852557898E0,2.269262791E0
2.854600000E1,1.789755821E1,-6.731795788E0,1.593609333E0
2.856600000E1,1.971813583E1,-8.920595169E0,8.451723456E-1
2.858600000E1,1.808685303E1,-8.584209442E0,5.334281325E-1
2.860600000E1,1.531659889E1,-7.120949745E0,3.874488771E-1
2.862600000E1,1.380433464E1,-6.502920151E0,-4.830541313E-1
2.864600156E1,1.192347813E1,-5.679381847E0,-1.512982249E0
2.866600156E1,9.269554138E0,-5.622888088E0,-2.549192667E0
2.868600156E1,5.765084267E0,-5.262263775E0,-3.094927073E0
2.870800000E1,2.787981033E0,-4.496789455E0,-2.968044043E0
2.872800000E1,1.484050632E0,-3.605926275E0,-2.915831327E0
2.874800156E1,2.116407156E0,-3.506068945E0,-2.901532888E0
2.877000156E1,3.711328506E0,-3.733431816E0,-2.534157276E0
2.879200000E1,4.978915215E0,-4.211209297E0,-2.179250240E0
2.881200156E1,5.371037006E0,-4.572226048E0,-1.861051321E0
2.883400156E1,6.197036743E0,-5.141538620E0,-1.589366794E0
2.885600000E1,7.824759007E0,-5.943442822E0,-1.734225631E0
2.887600000E1,9.428874016E0,-6.623453617E0,-2.210575819E0
2.889600000E1,1.033310604E1,-7.041203499E0,-2.678039074E0
2.891600000E1,1.041210556E1,-7.193273544E0,-2.630097628E0
2.893600000E1,9.473204613E0,-7.076570988E0,-2.362157822E0
2.895600000E1,9.535740852E0,-7.404700756E0,-1.708234072E0
2.897600000E1,9.799075127E0,-7.262083054E0,-1.288453937E0
2.899600156E1,8.865068436E0,-5.599472523E0,-1.035252810E0
2.901600156E1,8.641297340E0,-4.682991505E0,-6.624469161E-1
2.903800156E1,1.067404079E1,-5.630444527E0,-4.041604102E-1
2.905800156E1,1.258249664E1,-6.417408466E0,-3.542652428E-1
2.907800156E1,1.381534863E1,-5.893767834E0,-5.141883492E-1
2.909800312E1,1.468246078E1,-5.466001034E0,-1.343683481E0
2.912000156E1,1.422091579E1,-4.702844143E0,-2.044811010E0
2.914000156E1,1.192390060E1,-3.663952112E0,-1.747077703E0
2.916000156E1,8.901804924E0,-2.136643171E0,-7.627543211E-1
2.918200000E1,6.174770355E0,-3.891918659E-1,-5.618425012E-1
2.920200000E1,5.488018036E0,3.230927289E-1,-1.172785282E0
2.922200000E1,5.832591534E0,6.037505865E-1,-2.045893192E0
2.924200000E1,6.258558273E0,7.824347019E-1,-2.787846565E0
2.926400000E1,6.700920582E0,8.079856038E-1,-2.951591015E0
2.928400469E1,7.538785458E0,9.194979072E-1,-2.553617239E0
2.930600000E1,9.507365227E0,1.263688326E0,-1.797815681E0
2.932600000E1,1.221075344E1,1.099905849E0,-1.628124118E0
2.934600000E1,1.378457832E1,3.262626529E-1,-3.029680252E0
2.936600156E1,1.332512093E1,-5.813121796E-3,-3.851370335E0
2.938800156E1,1.282079697E1,-2.082955539E-1,-4.104571342E0
2.941000156E1,1.347123432E1,-1.000594378E0,-4.097791195E0
2.943200000E1,1.263444138E1,-9.057168961E-1,-3.187841415E0
2.945200000E1,1.307781887E1,-2.386664867E0,-1.777857542E0
2.947200312E1,1.318082714E1,-3.481667280E0,-4.640250206E-1
2.949400000E1,1.378866673E1,-3.913907051E0,1.193950057E0
2.951400625E1,1.789285469E1,-6.951938152E0,1.283617735E0
2.953600000E1,1.988597107E1,-1.047265053E1,5.893375278E-1
2.955600156E1,1.574729729E1,-9.326612473E0,1.203201294E0
2.957800000E1,1.213737679E1,-7.488976479E0,1.297475338E0
2.959800000E1,1.092227173E1,-6.493716717E0,-3.984143138E-1
2.961800000E1,9.719357491E0,-5.229042053E0,-2.246010303E0
2.963800000E1,7.689754486E0,-3.800364256E0,-3.335745335E0
2.965800000E1,5.142553806E0,-2.389461279E0,-3.611279726E0
2.967800000E1,3.655984402E0,-1.498061538E0,-3.579599619E0
2.969800000E1,4.102148533E0,-1.575815678E0,-2.916740894E0
2.971800000E1,5.839190006E0,-2.534262419E0,-2.598714352E0
2.973800000E1,7.229550838E0,-3.640489101E0,-1.873098850E0
2.975800000E1,7.829174042E0,-4.865707397E0,-1.078769803E0
2.977800000E1,8.384667397E0,-6.283707142E0,-1.091784716E0
2.979800000E1,8.052006721E0,-6.977450848E0,-9.710307717E-1
2.981800000E1,7.417112350E0,-7.232500553E0,-8.359115720E-1
2.983800000E1,8.172176361E0,-7.931750774E0,-9.961506724E-1
2.985800000E1,9.653765678E0,-9.256634712E0,-1.973693728E0
2.987800000E1,9.483968735E0,-9.736001968E0,-3.172824621E0
2.989800000E1,7.153031826E0,-8.151759148E0,-3.778663158E0
2.991800000E1,4.878971100E0,-6.239922047E0,-3.714670897E0
2.993800000E1,6.060988903E0,-6.155320168E0,-3.083224058E0
2.995800000E1,7.590347290E0,-6.007712841E0,-3.056150675E0
2.997800000E1,7.700968742E0,-4.571919918E0,-2.932092428E0
2.999800000E1,9.322207451E0,-4.414257050E0,-2.484405756E0
3.001800000E1,1.256459808E1,-6.028638363E0,-2.390916824E0
3.003800000E1,1.466672611E1,-7.049918652E0,-2.405329943E0
3.005800000E1,1.465935230E1,-6.810526848E0,-2.066866398E0
3.007800000E1,1.314300919E1,-6.127365589E0,-1.719266772E0
3.009800156E1,1.093791962E1,-5.149219036E0,-1.091076016E0
3.012000000E1,7.776051044E0,-3.698093414E0,9.054870903E-2
3.014000156E1,5.560179234E0,-2.529301643E0,7.907474041E-1
3.016200000E1,4.505906582E0,-1.266896605E0,5.376228094E-1
3.018200000E1,4.733326912E0,-7.252420187E-1,-1.101399779E0
3.020200000E1,5.345898151E0,-6.132603884E-1,-2.375469446E0
3.022200000E1,5.487472057E0,-5.197332501E-1,-2.810811996E0
3.024200000E1,6.150024414E0,-5.922297239E-1,-2.587672472E0
3.026400469E1,7.435039997E0,-8.066161275E-1,-2.936335087E0
3.028602031E1,9.141282082E0,-5.745892525E-1,-3.135312557E0
3.030800000E1,1.093443489E1,-4.802193940E-1,-3.288924456E0
3.032800000E1,1.233416080E1,-4.235055447E-1,-3.719899893E0
3.034800000E1,1.509529781E1,-1.260662079E0,-4.355148315E0
3.036800000E1,1.749977493E1,-1.525709867E0,-5.180487156E0
3.038800000E1,1.739650917E1,-5.997474790E-1,-4.114416599E0
3.040800000E1,1.574786091E1,2.507207990E-1,-1.668921351E0
3.042800000E1,1.517725658E1,-2.295081764E-1,2.630461454E-1
3.044800000E1,1.408217812E1,-4.869519174E-1,1.440361381E0
3.046800000E1,1.316777420E1,-3.917201161E-1,2.870916128E0
3.048800000E1,1.612072372E1,-2.797097921E0,3.404420614E0
3.050800000E1,1.989902306E1,-6.111209393E0,2.323668480E0
3.052800000E1,2.048901367E1,-8.541745186E0,1.370565534E0
3.054800000E1,1.789488602E1,-8.443803787E0,1.641598701E0
3.056800000E1,1.460256195E1,-7.618512630E0,5.625128746E-1
3.058800000E1,1.222983074E1,-6.423212528E0,-1.035386801E0
3.060800156E1,1.069607735E1,-5.290055752E0,-1.974459887E0
3.063000000E1,9.354031563E0,-4.368862629E0,-2.158861399E0
3.065001875E1,8.255571365E0,-3.900997400E0,-2.237371922E0
3.067200000E1,6.923188686E0,-4.295868397E0,-2.598532438E0
3.069200000E1,4.902865410E0,-4.064415932E0,-2.297054768E0
3.071200000E1,3.770810366E0,-4.170335293E0,-1.774649262E0
3.073200000E1,4.075304508E0,-4.642605782E0,-1.435802698E0
3.075200000E1,4.783462048E0,-5.395524979E0,-1.376800060E0
3.077200000E1,4.903679371E0,-5.993855476E0,-1.312060833E0
3.079200000E1,4.940023422E0,-5.795586586E0,-1.204848528E0
3.081200000E1,5.782743931E0,-5.847071171E0,-1.556278944E0
3.083200000E1,7.376746178E0,-6.349059105E0,-2.507294178E0
3.085200000E1,9.487618446E0,-7.241234303E0,-3.029373884E0
3.087200000E1,1.058492851E1,-7.758668900E0,-3.602009535E0
3.089200000E1,9.344415665E0,-7.134893417E0,-3.793967009E0
3.091200000E1,8.579373360E0,-6.681728363E0,-3.429109812E0
3.093200000E1,9.376545906E0,-7.179387093E0,-3.246049166E0
3.095200000E1,8.432234764E0,-5.734055519E0,-2.509181023E0
3.097200000E1,8.471269608E0,-4.560523510E0,-1.247541904E0
3.099200000E1,1.204322720E1,-5.555333138E0,-7.569987178E-1
3.101200000E1,1.506035233E1,-6.908104897E0,-4.105481207E-1
3.103200000E1,1.529690933E1,-6.391407490E0,4.529063404E-1
3.105200000E1,1.449004364E1,-5.164705276E0,7.001029253E-1
3.107200000E1,1.374241066E1,-4.455695152E0,8.175720274E-2
3.109200156E1,1.180629730E1,-3.395140886E0,-1.154005248E-2
3.111400156E1,9.062484741E0,-1.964892626E0,3.711587191E-1
3.113400469E1,7.417916775E0,-9.865930676E-1,1.586685330E-1
3.115401406E1,6.452718258E0,-4.676258862E-1,-5.093137622E-1
3.117600312E1,5.861331463E0,-1.308096051E-1,-6.232968569E-1
3.119800000E1,5.975132465E0,-3.633248806E-1,-5.378335118E-1
3.121800000E1,6.000884533E0,-5.213038921E-1,-4.280258119E-1
3.123800156E1,6.707145691E0,-7.661637068E-1,-2.522626519E-1
3.126000000E1,7.972643375E0,-5.967500210E-1,-2.281578481E-1
3.128003594E1,9.465524673E0,-5.840799212E-1,-2.184948474E-1
3.130200000E1,1.172733593E1,-1.056226015E0,-4.973331690E-1
3.132200000E1,1.366982937E1,-1.357473969E0,-2.696541548E-1
3.134200000E1,1.515340042E1,-7.824538350E-1,8.408532143E-1
3.136200312E1,1.694612122E1,-4.480221868E-1,7.163259983E-1
3.138401875E1,1.719355583E1,2.190119922E-1,-3.940951824E-1
3.140600000E1,1.648518944E1,-1.248145252E-1,-5.058661103E-1
3.142600000E1,1.508826828E1,-1.586963177E0,-7.064427733E-1
3.144600000E1,1.199913597E1,-1.030991077E0,7.210377604E-2
3.146600000E1,1.198162937E1,-1.518211126E0,7.639705539E-1
3.148600000E1,1.469272709E1,-3.647125721E0,6.610486507E-1
3.150600156E1,1.766428566E1,-6.085514545E0,5.254027843E-1
3.152800000E1,1.805026054E1,-6.795300007E0,3.001658618E-1
3.154800000E1,1.622121429E1,-5.391551018E0,3.073101640E-1
3.156800000E1,1.511086082E1,-4.893384457E0,-1.986900121E-1
3.158800000E1,1.376306820E1,-4.964597702E0,-3.503866196E-1
3.160800156E1,1.154996395E1,-4.728500366E0,-1.124508679E-1
3.163000000E1,9.099958420E0,-4.050299644E0,-1.184650976E-2
3.165002031E1,7.383076191E0,-3.712420464E0,-5.224531293E-1
3.167200000E1,6.205397606E0,-3.588055849E0,-1.079066634E0
3.169200000E1,5.462141037E0,-3.529618502E0,-1.249380589E0
3.171200000E1,5.535001278E0,-3.884572983E0,-1.286509871E0
3.173200000E1,5.602231026E0,-4.498589993E0,-1.350684047E0
3.175200000E1,5.402497292E0,-4.700938702E0,-1.281098962E0
3.177200000E1,5.194862366E0,-4.887389183E0,-1.425220370E0
3.179200000E1,5.373354912E0,-5.234759331E0,-1.858417749E0
3.181200000E1,5.904168606E0,-5.497815132E0,-1.964183927E0
3.183200000E1,6.942782879E0,-5.759970188E0,-1.852738619E0
3.185200000E1,8.160971642E0,-5.897589207E0,-1.919383645E0
3.187200000E1,9.262113571E0,-5.903813839E0,-2.307636976E0
3.189200000E1,9.649293900E0,-5.399384499E0,-2.478870392E0
3.191200000E1,1.033155441E1,-5.571766853E0,-2.999187708E0
3.193200000E1,1.099719048E1,-6.492021561E0,-3.843660831E0
3.195200000E1,9.193017006E0,-4.889429092E0,-3.482079029E0
3.197200000E1,7.845818520E0,-3.514525414E0,-2.581945419E0
3.199200000E1,8.525130272E0,-3.953583479E0,-1.371733904E0
3.201200000E1,1.095781136E1,-6.297995567E0,-6.867527962E-1
3.203200000E1,1.219215584E1,-7.449089527E0,-3.147896528E-1
3.205200000E1,1.193742275E1,-6.688930035E0,3.536618948E-1
3.207200000E1,1.146937466E1,-5.817173004E0,-4.146661758E-1
3.209200313E1,1.093112946E1,-4.966340542E0,-7.052456141E-1
3.211400156E1,9.687582016E0,-3.853142023E0,-3.666959107E-1
3.213400312E1,8.215291023E0,-2.662544012E0,-8.028237522E-2
3.215600000E1,7.228046894E0,-1.782703519E0,-1.044446528E-1
3.217600000E1,7.184156895E0,-1.554583907E0,-3.957328200E-1
3.219600000E1,7.308396339E0,-1.485343575E0,-6.053691506E-1
3.221600000E1,7.717019558E0,-1.758119702E0,-9.469738007E-1
3.223600000E1,8.046356201E0,-1.572923422E0,-1.020686507E0
3.225600000E1,8.949190140E0,-1.510521054E0,-1.210278511E0
3.227600000E1,1.079058075E1,-1.502217889E0,-1.120677948E0
3.229600000E1,1.287795162E1,-1.669294953E0,-1.400856972E0
3.231600000E1,1.451879311E1,-1.944551468E0,-1.669486403E0
3.233600000E1,1.534791470E1,-1.848438621E0,-1.458394408E0
3.235600000E1,1.606219101E1,-1.895776749E0,-9.798222780E-1
3.237600000E1,1.619307899E1,-1.714363337E0,-3.895844892E-2
3.239600000E1,1.526144600E1,-1.356477976E0,7.412257195E-1
3.241600000E1,1.407309818E1,-1.566880465E0,1.128435135E0
3.243600000E1,1.355846977E1,-2.828308821E0,1.198786378E0
3.245600000E1,1.087802601E1,-1.584530473E0,1.685364723E0
3.247600000E1,1.070704174E1,-1.320861936E0,2.767534494E0
3.249600000E1,1.426554394E1,-4.681354046E0,2.214368343E0
3.251600000E1,1.744212341E1,-7.679191589E0,1.756539583E0
3.253600000E1,1.788093185E1,-8.574057579E0,1.113648534E0
3.255600000E1,1.617092705E1,-7.227348328E0,1.623747498E-1
3.257600000E1,1.494968224E1,-6.728137493E0,-1.110382795E0
3.259600156E1,1.329375648E1,-6.018476963E0,-1.371848822E0
3.261600156E1,1.157808208E1,-5.367790699E0,-9.402604699E-1
3.263800000E1,9.885017395E0,-4.940186024E0,-6.993367076E-1
3.265800000E1,8.631126404E0,-4.770312786E0,-1.096439123E0
3.267800156E1,7.599301815E0,-4.798344135E0,-1.205633759E0
3.270000156E1,6.686966896E0,-5.159169197E0,-1.190971732E0
3.272200000E1,6.247736454E0,-5.061399937E0,-9.854726195E-1
3.274200000E1,6.580214500E0,-5.178572178E0,-1.388311386E0
3.276400156E1,7.080995083E0,-5.609001637E0,-1.926144838E0
3.278602031E1,7.743087769E0,-6.421737194E0,-2.498167515E0
3.280800000E1,8.287078857E0,-7.206824780E0,-2.648255110E0
3.282800000E1,8.104496956E0,-7.692311287E0,-2.940520287E0
3.284800000E1,7.683481216E0,-7.951421261E0,-3.136547804E0
3.286800312E1,7.179138184E0,-7.649962902E0,-2.885501385E0
3.289000000E1,6.365780354E0,-7.043109417E0,-3.024068356E0
3.291000000E1,6.629017353E0,-7.149545670E0,-2.939361334E0
3.293000000E1,7.186636925E0,-7.305504322E0,-3.197992563E0
3.295001875E1,6.592137814E0,-5.437500000E0,-2.381694317E0
3.297200000E1,7.423470974E0,-4.873943329E0,-2.247695684E0
3.299200000E1,9.738645554E0,-6.018323898E0,-1.958811283E0
3.301200000E1,1.143195915E1,-7.692349434E0,-1.350550056E0
3.303200000E1,1.174998569E1,-7.792992592E0,-4.136509895E-1
3.305400625E1,1.163786030E1,-6.541562557E0,-2.785892971E-2
3.307600000E1,1.211106968E1,-5.632503033E0,-1.126433611E0
3.309600156E1,1.169355869E1,-4.652891636E0,-1.295770645E0
3.311600156E1,1.007087421E1,-3.578833580E0,-8.379418850E-1
3.313800000E1,7.883569717E0,-2.237103701E0,-8.261911273E-1
3.315800000E1,7.307716370E0,-1.702133775E0,-6.501885653E-1
3.317800000E1,7.556464195E0,-1.805027008E0,-1.507140398E0
3.319800000E1,7.950224400E0,-1.536234736E0,-1.962450504E0
3.321800156E1,8.335384369E0,-1.360519528E0,-2.376158953E0
3.324000000E1,9.604004860E0,-1.153248668E0,-2.315595150E0
3.326000000E1,1.149025249E1,-1.159990668E0,-2.100030899E0
3.328000000E1,1.348435402E1,-1.399765253E0,-2.351556063E0
3.330000000E1,1.444673729E1,-1.076222420E0,-2.555293322E0
3.332000000E1,1.504050922E1,-7.823197842E-1,-2.448329926E0
3.334000000E1,1.586073399E1,-1.077084303E0,-1.377594948E0
3.336000000E1,1.630446625E1,-9.761447906E-1,6.092764139E-1
3.338000000E1,1.582181358E1,-9.437177181E-1,2.649595976E0
3.340000000E1,1.471598911E1,-1.297465801E0,3.817334175E0
3.342000000E1,1.361607456E1,-2.157166243E0,3.729371309E0
3.344000000E1,1.235451126E1,-1.420479894E0,3.385726690E0
3.346000000E1,1.548031425E1,-3.804932356E0,2.746743202E0
3.348003594E1,2.049096680E1,-7.919732094E0,1.234029055E0
3.350200000E1,2.240920067E1,-1.111043644E1,1.935281008E-1
3.352200000E1,1.844345474E1,-9.363608360E0,1.908849180E-1
3.354200000E1,1.518565559E1,-8.032862663E0,5.228649378E-1
3.356200313E1,1.327833843E1,-8.148061752E0,-2.893536389E-1
3.358400000E1,1.078536129E1,-7.519546032E0,-1.047836781E0
3.360400000E1,8.234262466E0,-6.074511051E0,-2.208162546E0
3.362400000E1,7.641803265E0,-5.116992950E0,-3.156850815E0
3.364400469E1,8.295018196E0,-5.746945858E0,-2.472999811E0
3.366401563E1,8.135085106E0,-6.052838802E0,-1.988892078E0
3.368600156E1,7.623128414E0,-6.383267403E0,-1.699768305E0
3.370800000E1,6.934479713E0,-6.325988293E0,-2.002395391E0
3.372800000E1,6.354220867E0,-6.272837639E0,-2.421668053E0
3.374800000E1,5.630042076E0,-6.418366432E0,-2.914614916E0
3.376800781E1,5.023466110E0,-6.317187309E0,-2.849875689E0
3.379000000E1,5.317254066E0,-6.788461685E0,-2.600716114E0
3.381000000E1,5.695489883E0,-6.823407650E0,-2.368995667E0
3.383000000E1,6.467638969E0,-6.560524464E0,-2.465749979E0
3.385002031E1,7.057972431E0,-6.114082336E0,-2.750468493E0
3.387200000E1,8.611676216E0,-6.318001270E0,-2.733833551E0
3.389200000E1,9.285010338E0,-6.477943897E0,-2.825627089E0
3.391200000E1,8.259220123E0,-4.886776447E0,-1.964337111E0
3.393200312E1,8.018468857E0,-3.754089117E0,-1.342064977E0
3.395400000E1,1.066629314E1,-4.998441696E0,-9.643844366E-1
3.397400781E1,1.312465954E1,-7.149842739E0,-1.224567175E0
3.399600000E1,1.393898392E1,-7.972318172E0,-6.737570763E-1
3.401600000E1,1.361293221E1,-7.463195801E0,-5.203270912E-1
3.403600000E1,1.384794712E1,-6.782122135E0,-7.799830437E-1
3.405600000E1,1.383804512E1,-5.736526489E0,1.333283037E-1
3.407600000E1,1.297860336E1,-4.291060448E0,6.489436030E-1
3.409600000E1,1.130457783E1,-2.797950268E0,8.168058395E-1
3.411600000E1,9.929932594E0,-1.534721613E0,3.662266433E-1
3.413600000E1,9.527534485E0,-1.008897424E0,-6.803650856E-1
3.415600000E1,1.008218479E1,-7.295898199E-1,-1.646214724E0
3.417600156E1,1.120858002E1,-6.322416663E-1,-2.201937675E0
3.419800000E1,1.310727692E1,2.360970080E-1,-1.302311659E0
3.421800000E1,1.451001167E1,1.170630574E0,-2.814527750E-1
3.423800000E1,1.348692131E1,1.859988332E0,-1.997530311E-1
3.425800000E1,1.196545410E1,2.708617926E0,2.518221140E-1
3.427800000E1,1.250739574E1,2.441549301E0,7.128400207E-1
3.429800000E1,1.404657078E1,1.559247851E0,1.516094685E0
3.431800000E1,1.427170181E1,9.119226933E-1,2.239718199E0
3.433800000E1,1.330990314E1,7.964742780E-1,2.668318510E0
3.435800000E1,1.414460850E1,-1.372739375E-1,2.981930494E0
3.437800000E1,1.393654251E1,-6.197247505E-1,2.705246925E0
3.439800000E1,1.260482025E1,-2.557869256E-1,2.785557747E0
3.441800000E1,1.329086494E1,-1.787482262E0,2.368257999E0
3.443800000E1,1.482124805E1,-3.634972811E0,1.983184338E0
3.445800156E1,1.618453598E1,-5.345917225E0,1.113763452E0
3.448000000E1,1.629466820E1,-5.049677849E0,6.894055605E-1
3.450000000E1,1.641493416E1,-4.867584705E0,-2.228522860E-2
3.452000000E1,1.577770329E1,-5.134231567E0,-6.200982928E-1
3.454000000E1,1.329792309E1,-4.852548599E0,-8.671511412E-1
3.456000156E1,1.015284157E1,-4.062347412E0,-1.293529630E0
3.458199844E1,7.226984024E0,-3.114032745E0,-1.695583224E0
3.460200000E1,5.988903999E0,-2.614497185E0,-1.765369415E0
3.462200000E1,5.865296364E0,-2.527759790E0,-1.433992743E0
3.464400156E1,6.813275337E0,-3.203614235E0,-1.421514153E0
3.466400938E1,7.745481968E0,-3.924067974E0,-1.575700760E0
3.468600156E1,8.354940414E0,-5.222778797E0,-2.139525652E0
3.470800000E1,7.261250019E0,-5.864942074E0,-2.733076811E0
3.472800000E1,6.733970165E0,-6.310387611E0,-3.309016705E0
3.474800000E1,6.495335102E0,-6.700546741E0,-3.563290358E0
3.476803125E1,6.299901485E0,-6.711129189E0,-3.728308439E0
3.479000000E1,6.822909832E0,-6.607431412E0,-3.443082333E0
3.481000000E1,7.444904327E0,-6.412505150E0,-3.339863539E0
3.483000000E1,8.507633209E0,-6.279751301E0,-3.135561466E0
3.485002031E1,1.052472878E1,-7.313702106E0,-3.590344906E0
3.487200000E1,1.017400646E1,-6.159102917E0,-3.492604017E0
3.489200000E1,9.025565147E0,-4.499068737E0,-3.060431480E0
3.491200000E1,9.499014854E0,-4.440104485E0,-2.656520128E0
3.493200000E1,1.126471901E1,-5.945655346E0,-2.111513376E0
3.495200000E1,1.192794132E1,-6.673731804E0,-8.645749688E-1
3.497200000E1,1.215561104E1,-5.803774834E0,-3.006638587E-1
3.499200000E1,1.297906303E1,-5.140887260E0,-1.397074103E0
3.501200000E1,1.332310104E1,-4.644377708E0,-2.800449848E0
3.503200000E1,1.164149857E1,-3.461757183E0,-2.739656210E0
3.505200000E1,8.969215393E0,-2.076088905E0,-2.009702444E0
3.507200000E1,6.933924198E0,-5.358989239E-1,-2.118887663E0
3.509200000E1,6.736469746E0,5.296931863E-1,-2.506767511E0
3.511200000E1,8.059112549E0,8.205312490E-1,-3.101994991E0
3.513200000E1,8.937755585E0,1.537431836E0,-2.085062265E0
3.515400000E1,9.235298157E0,1.947405338E0,3.624629676E-1
3.517400000E1,1.007142925E1,1.620089293E0,1.635881305E0
3.519400156E1,1.119750881E1,1.301057100E0,2.166676044E0
3.521600000E1,1.214557457E1,1.158889413E0,2.060334921E0
3.523600000E1,1.294913578E1,6.979863644E-1,1.822054625E0
3.525600000E1,1.360917854E1,2.324482501E-1,1.859949946E0
3.527600000E1,1.443017006E1,-2.431838512E-1,1.848122597E0
3.529600000E1,1.492595100E1,-8.074301481E-1,1.408499241E0
3.531600000E1,1.432818699E1,-1.080666065E0,1.082993150E0
3.533600156E1,1.345751095E1,-1.219625473E0,1.257042170E0
3.535600156E1,1.367038345E1,-2.645171404E0,1.387200475E0
3.537800000E1,1.251878262E1,-2.144113064E0,1.836726189E0
3.539800156E1,1.289235497E1,-2.265403271E0,1.930645943E0
3.542000000E1,1.591394234E1,-5.073983669E0,1.057451963E0
3.544000000E1,1.794771004E1,-7.626020908E0,5.602432489E-1
3.546000000E1,1.771366501E1,-8.580368996E0,2.360970080E-1
3.548000000E1,1.534540653E1,-7.414871693E0,5.701934695E-1
3.550000000E1,1.336072731E1,-6.513674736E0,2.590909302E-1
3.552000000E1,1.138520527E1,-5.599377155E0,-1.430870593E-1
3.554000000E1,9.311682701E0,-4.633374214E0,-5.475826263E-1
3.556000000E1,7.601849079E0,-4.114655972E0,-8.928073645E-1
3.558000000E1,6.144872189E0,-3.711050987E0,-1.084784031E0
3.560000000E1,5.120938778E0,-3.375020027E0,-1.236892462E0
3.562000000E1,4.902300358E0,-3.494768381E0,-1.355031967E0
3.564000000E1,5.218421459E0,-3.911196470E0,-1.515328646E0
3.566000000E1,5.568271637E0,-4.356930256E0,-1.614994407E0
3.568003438E1,5.906084061E0,-4.777093410E0,-1.748562098E0
3.570200000E1,6.569900513E0,-5.235372066E0,-1.875263333E0
3.572200000E1,7.559768677E0,-5.708102703E0,-1.965237379E0
3.574200156E1,8.542177200E0,-6.408291340E0,-2.262261868E0
3.576401094E1,9.349606514E0,-7.166123390E0,-2.923540592E0
3.578601406E1,9.243285179E0,-7.439531803E0,-3.419743538E0
3.580800000E1,7.893816948E0,-7.115414143E0,-3.797347546E0
3.582800000E1,7.109725475E0,-6.772612095E0,-3.222193241E0
3.584800000E1,8.279580116E0,-7.632657528E0,-3.151114225E0
3.586800156E1,8.141702652E0,-6.298205853E0,-2.221637249E0
3.588800469E1,8.229646683E0,-4.988319397E0,-1.493254066E0
3.591000000E1,1.055312443E1,-5.380269051E0,-1.039887905E0
3.593000000E1,1.253512096E1,-6.779881477E0,-9.541947246E-1
3.595002031E1,1.230508614E1,-6.839659691E0,-6.198875904E-1
3.597200000E1,1.180549240E1,-4.937523842E0,2.453290522E-1
3.599200000E1,1.272740459E1,-3.736774206E0,-5.643708110E-1
3.601200000E1,1.349870968E1,-2.149274826E0,-6.414832473E-1
3.603200000E1,1.304382133E1,1.969853342E-1,-2.434615791E-1
3.605200000E1,1.191507053E1,2.611097097E0,-4.513836503E-1
3.607200000E1,1.101080990E1,3.061915874E0,-7.125814557E-1
3.609200000E1,1.030613804E1,2.625567913E0,8.738932014E-1
3.611200000E1,9.782833099E0,1.908600092E0,2.855028152E0
3.613200000E1,9.208999634E0,2.040616512E0,4.303443432E0
3.615200000E1,9.360993385E0,2.279327869E0,5.199794292E0
3.617200000E1,1.034832382E1,1.556623816E0,5.057933331E0
3.619200000E1,1.068688297E1,1.110469103E0,4.325288296E0
3.621200000E1,1.108131313E1,6.277117729E-1,3.400159121E0
3.623200000E1,1.191337490E1,-1.287601590E-1,2.847529650E0
3.625200000E1,1.295826244E1,-9.249854684E-1,2.406325817E0
3.627200000E1,1.299889660E1,-1.118599772E0,2.065018177E0
3.629200000E1,1.331585026E1,-1.606729627E0,2.178570271E0
3.631200000E1,1.422786903E1,-3.093548059E0,2.203508377E0
3.633200000E1,1.370437241E1,-2.728729248E0,2.811587572E0
3.635200000E1,1.545147896E1,-4.732484341E0,2.689196110E0
3.637200000E1,1.680117607E1,-7.342786789E0,1.563978791E0
3.639200000E1,1.547706795E1,-7.487234116E0,1.167805433E0
3.641200000E1,1.346024036E1,-6.321851254E0,8.998080492E-1
3.643200000E1,1.223783779E1,-5.221686840E0,3.048584759E-1
3.645200000E1,1.133974457E1,-4.232162952E0,-2.479147911E-1
3.647400000E1,9.990621567E0,-3.223467112E0,-4.290217757E-1
3.649400000E1,8.382521629E0,-2.531293631E0,-1.084611654E0
3.651400156E1,6.752280712E0,-2.376063347E0,-1.993603826E0
3.653600000E1,4.723501682E0,-2.859979153E0,-2.705093622E0
3.655600000E1,3.140512705E0,-3.107970715E0,-2.754615307E0
3.657600000E1,2.853629827E0,-3.489788294E0,-2.504746914E0
3.659600000E1,4.101037502E0,-4.263412476E0,-2.376475096E0
3.661600000E1,5.918093204E0,-5.008507252E0,-2.552094460E0
3.663600000E1,7.437807560E0,-5.849551678E0,-2.656970263E0
3.665600000E1,8.381429672E0,-6.780896664E0,-2.784513950E0
3.667600000E1,8.865086555E0,-7.491754055E0,-2.772705793E0
3.669600000E1,8.789392471E0,-7.525244236E0,-2.969384670E0
3.671600000E1,7.937036991E0,-6.823704720E0,-3.410645723E0
3.673600000E1,7.122232914E0,-5.972785950E0,-3.362608433E0
3.675600000E1,9.155274391E0,-7.541074753E0,-3.252484560E0
3.677600000E1,9.761170387E0,-7.774652958E0,-2.744080782E0
3.679600000E1,9.065241814E0,-6.807692528E0,-1.397744536E0
3.681600000E1,9.649485588E0,-6.466968536E0,-8.848011494E-2
3.683600000E1,1.150094986E1,-7.259152412E0,8.382195830E-1
3.685600000E1,1.286108685E1,-7.598679066E0,1.232956409E0
3.687600000E1,1.338673782E1,-7.109993458E0,7.384484410E-1
3.689600000E1,1.335546970E1,-6.122682571E0,1.687816530E-1
3.691600000E1,1.285988998E1,-5.150176525E0,-1.178541064E0
3.693600000E1,1.152234459E1,-4.041604042E0,-1.937378407E0
3.695600000E1,8.954400063E0,-2.491492510E0,-8.300314546E-1
3.697600000E1,6.690797806E0,-1.226367593E0,-8.404318094E-1
3.699600000E1,5.614891529E0,-1.054980978E-1,-3.733039647E-2
3.701600000E1,6.061409950E0,-8.269572258E-2,-8.553141952E-1
3.703600781E1,7.640137196E0,3.002328798E-2,-9.573263526E-1
3.705800000E1,8.179559708E0,3.356000483E-1,-5.560868382E-1
3.707800000E1,8.910099030E0,2.938739061E-1,3.241270185E-1
3.709800000E1,9.767174721E0,2.111207098E-1,1.859528542E0
3.711800000E1,1.091945648E1,-4.637856185E-1,2.830770016E0
3.713800000E1,1.158470917E1,-1.492823124E0,3.309533596E0
3.715800000E1,1.244307804E1,-2.503645420E0,3.669219494E0
3.717800000E1,1.339098072E1,-3.743439674E0,3.396788120E0
3.719800000E1,1.361652470E1,-4.367282867E0,3.062432766E0
3.721800000E1,1.293183041E1,-3.963332653E0,3.108258009E0
3.723800000E1,1.288654232E1,-4.212128639E0,2.575480938E0
3.725800000E1,1.293906021E1,-4.960345268E0,1.988576055E0
3.727800000E1,1.173416424E1,-3.448282480E0,2.435908794E0
3.729800000E1,1.384851265E1,-4.241424084E0,3.162060499E0
3.731800000E1,1.737277794E1,-7.416422844E0,2.573153734E0
3.733800000E1,1.792222786E1,-9.254508972E0,2.324942112E0
3.735800000E1,1.571136379E1,-8.875343323E0,2.713071108E0
3.737800000E1,1.315205860E1,-7.835015774E0,2.501988888E0
3.739800000E1,1.120935535E1,-6.669307709E0,1.201630712E0
3.741800000E1,1.058353043E1,-6.088617802E0,-4.754980505E-1
3.743800000E1,9.342021942E0,-5.234749317E0,-1.171894670E0
3.745800000E1,7.630464554E0,-4.279788494E0,-1.282803655E0
3.747800156E1,6.162464142E0,-3.829726696E0,-1.431828380E0
3.750000000E1,4.715409279E0,-3.415108442E0,-1.362300754E0
3.752000000E1,3.930034161E0,-3.442641735E0,-1.327613473E0
3.754000000E1,3.910238981E0,-3.878300190E0,-1.206227541E0
3.756000000E1,4.047895908E0,-4.248405933E0,-1.102290392E0
3.758000000E1,5.008248329E0,-4.963113308E0,-1.169347286E0
3.760000000E1,6.185966015E0,-6.166946411E0,-1.469905734E0
3.762000000E1,7.303091049E0,-7.150963306E0,-1.571975350E0
3.764000000E1,8.019771576E0,-7.840637207E0,-1.736504912E0
3.766000000E1,8.246416092E0,-8.195908546E0,-2.146440268E0
3.768000000E1,8.123593330E0,-7.908306599E0,-2.331789494E0
3.770000156E1,8.123517036E0,-7.730101585E0,-2.477903128E0
3.772200000E1,8.731605530E0,-7.969397545E0,-2.197771788E0
3.774200000E1,9.822278976E0,-8.785398483E0,-2.180820704E0
3.776200000E1,8.915279388E0,-7.584227562E0,-1.625921488E0
3.778200156E1,8.372111320E0,-5.901735783E0,-3.561231494E-1
3.780400000E1,1.086025238E1,-6.599569321E0,1.871787012E-1
3.782400000E1,1.355782795E1,-7.792743683E0,6.638642401E-2
3.784400625E1,1.478285408E1,-7.995254517E0,6.647261977E-2
3.786401875E1,1.439783764E1,-7.072596073E0,-1.416505426E-1
3.788600000E1,1.296614456E1,-5.600334644E0,-4.313968420E-1
3.790600156E1,1.104688454E1,-3.915008307E0,-4.339921474E-1
3.792800000E1,8.674136162E0,-2.099159479E0,-2.428486645E-1
3.794800000E1,7.085007668E0,-4.830732942E-1,-3.296911716E-1
3.796802344E1,6.499970436E0,5.236119628E-1,-2.298826218E0
3.799000156E1,6.897081852E0,1.393511653E0,-4.906734467E0
3.801200000E1,7.575905323E0,1.877762794E0,-6.028551579E0
3.803200156E1,8.453016281E0,1.944360018E0,-4.381542683E0
3.805400156E1,9.467612267E0,1.474253654E0,-1.393683910E0
3.807600156E1,1.087206078E1,6.433220506E-1,1.308900476E0
3.809800156E1,1.155123806E1,3.002424538E-1,3.091134787E0
3.811800156E1,1.217730236E1,-2.358671725E-1,3.275258303E0
3.814000156E1,1.314718342E1,-1.258900046E0,2.750851631E0
3.816200469E1,1.350238800E1,-1.821527839E0,2.932753325E0
3.818400313E1,1.366985703E1,-2.162299395E0,3.064951658E0
3.820600000E1,1.288071918E1,-2.153210878E0,2.449009657E0
3.822600000E1,1.312704372E1,-2.654575825E0,2.729093075E0
3.824600000E1,1.331412697E1,-3.727053642E0,2.451470852E0
3.826600000E1,1.216544628E1,-3.047627211E0,2.772878170E0
3.828602031E1,1.472980881E1,-5.296740055E0,2.824219465E0
3.830800000E1,1.873233032E1,-9.186188698E0,2.535775661E0
3.832800000E1,1.808844376E1,-9.873410225E0,2.304361582E0
3.834800000E1,1.549770641E1,-8.562699318E0,2.497133255E0
3.836800000E1,1.393685818E1,-7.662086964E0,1.654402971E0
3.838800000E1,1.302192879E1,-6.808946609E0,3.640527427E-1
3.840800000E1,1.147684574E1,-5.978455544E0,-6.001976132E-1
3.842800000E1,8.718294144E0,-4.263958454E0,-9.328192472E-1
3.844800000E1,6.576067448E0,-3.423880816E0,-1.595620513E0
3.846800000E1,5.168363094E0,-3.017565727E0,-2.395255089E0
3.848800000E1,4.637568951E0,-3.197082758E0,-3.002022505E0
3.850800000E1,4.677762508E0,-3.981251001E0,-3.335572958E0
3.852800000E1,4.205204487E0,-4.886288166E0,-3.087294340E0
3.854800000E1,3.630998611E0,-5.005873680E0,-2.173638105E0
3.856800000E1,4.187497139E0,-5.434129238E0,-1.477222443E0
3.858800000E1,5.553657055E0,-6.235075474E0,-1.626362085E0
3.860800000E1,6.128811359E0,-7.008767128E0,-1.931287646E0
3.862800000E1,6.564709663E0,-7.989460468E0,-1.854941249E0
3.864800000E1,6.800615311E0,-8.640367508E0,-1.809355736E0
3.866800625E1,6.186214924E0,-8.328249931E0,-2.008993864E0
3.869000000E1,5.968639851E0,-7.461692333E0,-1.924890280E0
3.871000000E1,8.467286110E0,-7.872317314E0,-2.076778412E0
3.873000000E1,9.227732658E0,-6.887036324E0,-2.126204252E0
3.875002031E1,1.045946312E1,-5.975955963E0,-1.570356965E0
3.877200000E1,1.435202217E1,-7.511415005E0,-1.500580311E0
3.879200000E1,1.680310249E1,-9.626548767E0,-1.838928819E0
3.881200000E1,1.575081158E1,-8.756735802E0,-9.110608101E-1
3.883200000E1,1.394204998E1,-7.006583691E0,2.856953144E-1
3.885200000E1,1.348393345E1,-5.800786495E0,4.262636602E-2
3.887200000E1,1.305601311E1,-4.739887238E0,-8.577658534E-1
3.889200000E1,1.109787178E1,-2.891065598E0,-1.658856153E0
3.891200000E1,9.041137695E0,-1.481934190E0,-2.067872047E0
3.893200000E1,7.347354889E0,-3.713885844E-1,-2.533017635E0
3.895200000E1,6.172644615E0,3.586131036E-1,-3.200549603E0
3.897400000E1,6.268632889E0,8.953931332E-1,-3.670809031E0
3.899400625E1,7.238476276E0,1.052251577E0,-3.393551111E0
3.901600000E1,8.550776482E0,1.028750181E0,-2.123111010E0
3.903600000E1,1.000560856E1,1.293730855E0,-1.053094387E0
3.905600000E1,1.189797592E1,1.252167463E0,1.540812403E-1
3.907600000E1,1.314727020E1,1.061196446E0,1.554670095E0
3.909600000E1,1.412381744E1,7.584735155E-1,2.439193487E0
3.911600000E1,1.520320034E1,3.400724009E-2,2.787013769E0
3.913600000E1,1.552094936E1,-4.040933549E-1,3.272327900E0
3.915600000E1,1.524018574E1,-9.574029446E-1,2.732368469E0
3.917600000E1,1.644385529E1,-2.220488071E0,2.716949701E0
3.919600000E1,1.572737694E1,-3.007912159E0,1.860696912E0
3.921600000E1,1.436474133E1,-2.064816952E0,2.544251204E0
3.923600000E1,1.789434052E1,-4.787915230E0,2.166838646E0
3.925600000E1,2.117014503E1,-7.992218971E0,1.276051998E0
3.927600000E1,2.076086044E1,-1.005237198E1,7.506684065E-1
3.929600000E1,1.716077614E1,-9.041655540E0,9.291705489E-1
3.931600000E1,1.449551296E1,-7.601025581E0,6.155588627E-1
3.933600000E1,1.345240593E1,-6.882832050E0,-3.227192461E-1
3.935600000E1,1.242861748E1,-6.521049023E0,-1.320785284E0
3.937600156E1,1.049708939E1,-5.712919235E0,-1.803657413E0
3.939800156E1,8.230873108E0,-4.880647182E0,-1.978980064E0
3.942000156E1,6.592530251E0,-4.574792385E0,-2.426695824E0
3.944200000E1,5.128657818E0,-3.971099615E0,-2.060718060E0
3.946200000E1,4.744943619E0,-4.518443108E0,-2.049819708E0
3.948200000E1,4.107204914E0,-5.036816597E0,-2.045864582E0
3.950200000E1,3.744531393E0,-5.240783215E0,-1.814029217E0
3.952200000E1,4.163536072E0,-6.199555874E0,-2.710992813E0
3.954200000E1,4.031759262E0,-6.053509235E0,-2.252896070E0
3.956200000E1,4.604921341E0,-5.882333279E0,-2.016559362E0
3.958200000E1,6.578404427E0,-5.900625229E0,-2.800382853E0
3.960200000E1,8.288208961E0,-6.169139862E0,-3.856714010E0
3.962200000E1,9.272819519E0,-6.477570534E0,-4.347592831E0
3.964200000E1,9.028717041E0,-6.272406101E0,-3.858715773E0
3.966200000E1,8.552126884E0,-5.678251266E0,-2.880502462E0
3.968200000E1,9.755922318E0,-6.262723923E0,-2.672379255E0
3.970200000E1,9.946806908E0,-5.596216679E0,-2.203202009E0
3.972200000E1,1.008491421E1,-4.604528904E0,-1.751789570E0
3.974200000E1,1.198458862E1,-5.112874985E0,-1.634875894E0
3.976200000E1,1.350086498E1,-6.147907734E0,-1.221598268E0
3.978200000E1,1.390697002E1,-6.462936878E0,-2.983941436E-1
3.980200000E1,1.433157635E1,-5.569583416E0,-1.408365220E-1
3.982200000E1,1.563098621E1,-5.598351955E0,-1.126615644E0
3.984200000E1,1.556640053E1,-5.207771778E0,-1.650495648E0
3.986200000E1,1.321468163E1,-3.659776688E0,-1.131317735E0
3.988200156E1,1.069614315E1,-2.221943617E0,-7.755298018E-1
3.990401719E1,8.895235062E0,-7.098233700E-1,-1.096735954E0
3.992600000E1,8.347297668E0,7.888415456E-2,-1.896897197E0
3.994600000E1,8.488882065E0,1.513518542E-1,-2.233502865E0
3.996600000E1,8.659061432E0,6.119005084E-1,-2.549259663E0
3.998600000E1,9.308281898E0,1.922543943E-1,-2.412282705E0
4.000600000E1,9.289330482E0,2.701617181E-1,-1.850133777E0
4.002600000E1,9.700549126E0,7.637599707E-1,-1.485774517E0
4.004600000E1,1.126695061E1,4.912901819E-1,-1.346039295E0
4.006600000E1,1.282250214E1,4.468825459E-1,-1.045940518E0
4.008600000E1,1.446475220E1,2.533161044E-1,-7.533594966E-1
4.010600000E1,1.563599491E1,-1.063695922E-1,-6.604740620E-1
4.012600000E1,1.591989899E1,-4.564593434E-1,-2.625289857E-1
4.014600156E1,1.427776432E1,-5.169847608E-1,9.945514053E-2
4.016800000E1,1.265291500E1,-8.822728992E-1,5.788605213E-1
4.018800000E1,1.127292633E1,-4.458578229E-1,8.603420258E-1
4.020800000E1,1.287924385E1,-9.208195806E-1,1.161886930E0
4.022800000E1,1.665040779E1,-3.410980940E0,2.914988399E-1
4.024800000E1,1.964472198E1,-6.094133854E0,-5.755661130E-1
4.026800000E1,1.985433960E1,-7.371315956E0,-1.190157771E0
4.028800781E1,1.745508957E1,-6.534446716E0,-1.059300184E0
4.031000000E1,1.608088493E1,-6.530587196E0,-1.916548848E0
4.033000000E1,1.449484158E1,-6.246711254E0,-2.552247763E0
4.035002031E1,1.207349873E1,-5.301825523E0,-2.794311047E0
4.037002813E1,9.749964714E0,-4.328285694E0,-2.779285192E0
4.039200000E1,7.644015789E0,-3.329146862E0,-2.555321693E0
4.041400469E1,6.284367561E0,-2.522186041E0,-2.234221220E0
4.043400469E1,6.150570393E0,-2.495658398E0,-1.895355463E0
4.045600000E1,6.348666668E0,-3.057261467E0,-1.544365525E0
4.047600000E1,6.385508537E0,-3.567571402E0,-1.059759855E0
4.049600000E1,6.415627480E0,-4.154371262E0,-5.507717133E-1
4.051600000E1,6.751562595E0,-4.634484768E0,-4.017374516E-1
4.053600000E1,7.051996708E0,-4.903200626E0,-4.798554778E-1
4.055600000E1,7.379178524E0,-5.526401997E0,-1.532241225E0
4.057600000E1,7.380969524E0,-6.023821354E0,-2.105097055E0
4.059600000E1,7.525790215E0,-6.708783150E0,-2.449670553E0
4.061600000E1,7.068459034E0,-6.132862568E0,-2.712314367E0
4.063600000E1,6.848575592E0,-5.059532166E0,-3.250377655E0
4.065600000E1,7.205713749E0,-4.579581261E0,-3.354075432E0
4.067600000E1,8.140285492E0,-5.537597179E0,-3.376896858E0
4.069600000E1,7.252755165E0,-4.425767899E0,-2.153048038E0
4.071600156E1,8.109841347E0,-3.928358078E0,-1.884236693E0
4.073800000E1,1.184322548E1,-5.605199814E0,-2.251555204E0
4.075800156E1,1.456668758E1,-8.165387154E0,-2.554162979E0
4.078000000E1,1.473880196E1,-7.761264801E0,-1.133501172E0
4.080000000E1,1.454973602E1,-6.691429615E0,-7.164888382E-1
4.082000000E1,1.454619217E1,-5.687253952E0,-1.430516362E0
4.084000000E1,1.358292866E1,-4.379052162E0,-1.393300891E0
4.086000000E1,1.141585064E1,-2.729102612E0,-1.029573679E0
4.088000000E1,9.212944984E0,-1.427059054E0,-1.172325730E0
4.090000000E1,7.682236671E0,-6.735367775E-1,-1.687529206E0
4.092000156E1,6.875946522E0,-8.704359084E-2,-2.123503685E0
4.094200000E1,6.147946358E0,1.377910972E-1,-2.673672199E0
4.096200000E1,6.335412025E0,-2.790490091E-1,-2.908907175E0
4.098200000E1,6.825658321E0,-5.752404928E-1,-2.933500528E0
4.100200000E1,8.181168556E0,-6.389645338E-1,-2.830176353E0
4.102200000E1,1.016503334E1,-8.184530735E-1,-2.817036867E0
4.104200000E1,1.244214916E1,-1.093374491E0,-2.859471798E0
4.106200000E1,1.426210690E1,-1.278877139E0,-3.229959965E0
4.108400000E1,1.585475826E1,-1.295215249E0,-3.024298191E0
4.110400000E1,1.790593719E1,-1.910448432E0,-2.689090729E0
4.112400625E1,1.848559380E1,-1.975254774E0,-2.121176481E0
4.114400625E1,1.649145317E1,-1.721632123E0,-1.341327548E0
4.116600000E1,1.378090000E1,-2.275535345E0,4.130093753E-1
4.118600000E1,1.054388237E1,-9.282320142E-1,1.968148708E0
4.120600000E1,1.071664715E1,-6.731250286E-1,2.895700693E0
4.122600000E1,1.554188347E1,-3.817851543E0,2.094620228E0
4.124600000E1,2.020437050E1,-7.398523808E0,9.211355448E-1
4.126600000E1,2.202211761E1,-9.289062500E0,-7.448936105E-1
4.128602031E1,1.932447243E1,-8.518511772E0,-1.879237652E0
4.130800000E1,1.543054390E1,-7.478374958E0,-1.258957386E0
4.132800000E1,1.249578953E1,-6.783711910E0,-9.118460417E-1
4.134800000E1,1.016370201E1,-6.356902122E0,-1.304140925E0
4.136800000E1,7.715678692E0,-5.969692707E0,-1.697862506E0
4.138800156E1,5.503771305E0,-5.141165257E0,-2.132209063E0
4.141000000E1,4.056955338E0,-4.422588348E0,-2.554479361E0
4.143000000E1,3.840730429E0,-4.314935684E0,-2.493838787E0
4.145001875E1,4.210730553E0,-4.324837685E0,-2.294344187E0
4.147200000E1,4.884860992E0,-4.814318180E0,-2.547478437E0
4.149200000E1,5.296577454E0,-5.421162128E0,-2.552841663E0
4.151200000E1,6.121571064E0,-6.004629135E0,-2.421007156E0
4.153200000E1,7.263442993E0,-6.769672394E0,-2.425680637E0
4.155200000E1,8.117511749E0,-7.581976891E0,-2.477644444E0
4.157200000E1,8.497883797E0,-8.292624474E0,-2.940443516E0
4.159200000E1,7.818045616E0,-8.116774559E0,-3.309265614E0
4.161200000E1,5.809549809E0,-6.989862442E0,-2.922266960E0
4.163200000E1,4.840769768E0,-6.114983082E0,-1.955583930E0
4.165200000E1,6.898432732E0,-7.033255100E0,-1.785988331E0
4.167200000E1,7.309603214E0,-5.724689484E0,-1.469455719E0
4.169200000E1,8.067827225E0,-4.566987991E0,-1.281606555E0
4.171200000E1,1.090489006E1,-5.726183414E0,-1.725271344E0
4.173200156E1,1.329199505E1,-8.379839897E0,-1.669093728E0
4.175400000E1,1.303693581E1,-8.633118629E0,-8.481699228E-1
4.177400625E1,1.337007427E1,-7.916887760E0,-6.648027897E-1
4.179600000E1,1.478882122E1,-7.129329205E0,-1.564179778E0
4.181600000E1,1.432499695E1,-5.436695576E0,-1.615205050E0
4.183600000E1,1.201910305E1,-3.179882765E0,-1.236183882E0
4.185600000E1,9.138150215E0,-1.374492049E0,-1.115429759E0
4.187600000E1,7.554319382E0,-6.625713706E-1,-1.404477000E0
4.189600156E1,6.832352638E0,-6.877391934E-1,-1.569399118E0
4.191800000E1,6.590203285E0,-1.117977262E0,-1.636312366E0
4.193800000E1,7.148425102E0,-1.674571633E0,-1.071922421E0
4.195800000E1,7.923744678E0,-1.751550078E0,-4.447373450E-1
4.197800000E1,9.614586830E0,-1.531178236E0,2.627588511E-1
4.199800000E1,1.179140568E1,-1.707362652E0,-3.567360640E-1
4.201800000E1,1.403113270E1,-1.584118724E0,-2.060411692E0
4.203800000E1,1.559420204E1,-1.277297020E0,-4.793939114E0
4.205800000E1,1.630438042E1,-2.946496308E-1,-6.346042633E0
4.207800000E1,1.603231239E1,9.756658673E-1,-5.528470039E0
4.209800000E1,1.466722488E1,9.139720798E-1,-2.699577332E0
4.211800000E1,1.313234997E1,1.664736271E-1,-5.771558285E-1
4.213800000E1,1.208136272E1,-7.083101869E-1,6.590471268E-1
4.215800000E1,1.213301945E1,-1.167661786E0,1.929841399E0
4.217800000E1,1.614725304E1,-3.466727495E0,2.803926229E0
4.219800000E1,2.079491615E1,-6.918467522E0,2.029976606E0
4.221800156E1,2.185780716E1,-9.238755226E0,8.955272436E-1
4.224000000E1,1.777195930E1,-8.815067291E0,1.193298817E0
4.226000000E1,1.417618370E1,-7.915719032E0,7.307773829E-1
4.228000156E1,1.246639729E1,-7.179320335E0,-8.717479706E-1
4.230200000E1,1.115126228E1,-6.111391544E0,-1.772322178E0
4.232200000E1,9.816494942E0,-5.250551224E0,-2.025408506E0
4.234200000E1,8.342844963E0,-4.471957207E0,-2.477816820E0
4.236200312E1,7.168048382E0,-3.939103603E0,-2.782138824E0
4.238401406E1,6.624727726E0,-3.986719131E0,-2.241078138E0
4.240600000E1,6.663389206E0,-4.384712219E0,-1.334595084E0
4.242600000E1,7.199268341E0,-5.415224552E0,-1.101141214E0
