"Time (s)","Gyroscope x (rad/s)","Gyroscope y (rad/s)","Gyroscope z (rad/s)"
1.548525620E-1,-1.633366346E0,3.913551867E-1,-7.326194048E-1
1.748525620E-1,-1.581372976E0,5.041906834E-1,-4.625471532E-1
1.948525620E-1,-1.368896604E0,4.634372890E-1,-3.816860616E-1
2.148525620E-1,-9.323199987E-1,3.640407622E-1,-4.193153381E-1
2.348525620E-1,-3.378782868E-1,4.660028964E-2,-3.772529066E-1
2.548525620E-1,3.603406847E-1,-3.352428377E-1,-2.386039644E-1
2.748525620E-1,9.680817723E-1,-6.559645534E-1,-6.290166825E-2
2.948525620E-1,1.235867620E0,-8.714603186E-1,3.141592816E-2
3.168510000E-1,1.168148875E0,-7.714704275E-1,8.663814515E-2
3.368510000E-1,1.059798837E0,-3.577750325E-1,1.406037211E-1
3.568510000E-1,1.067705154E0,-1.973967440E-2,2.626022398E-1
3.768510000E-1,1.130990863E0,1.876927018E-1,4.943994284E-1
3.968510000E-1,9.087231159E-1,3.533942699E-1,6.576226354E-1
4.168510000E-1,4.230329096E-1,6.052801609E-1,7.437196970E-1
4.368510000E-1,-2.950304449E-1,5.958554149E-1,8.434303403E-1
4.568510000E-1,-1.181134105E0,3.707602918E-1,8.083841205E-1
4.768510000E-1,-1.841793537E0,5.236511230E-1,6.616019607E-1
4.968525620E-1,-2.065178394E0,1.064493775E0,7.055668235E-1
5.188510000E-1,-1.652547598E0,1.415776134E0,7.404559255E-1
5.388510000E-1,-8.368679285E-1,1.177643418E0,5.448394418E-1
5.588510000E-1,-3.871140257E-2,9.662142396E-2,1.108982190E-1
5.788510000E-1,5.637762547E-1,-1.025869608E0,-5.864306092E-1
5.988510000E-1,8.468512297E-1,-1.784215212E0,-1.367011666E0
6.188510000E-1,1.012552738E0,-2.045508385E0,-1.985364318E0
6.388510000E-1,1.238311052E0,-1.485432267E0,-2.293083429E0
6.588510000E-1,1.443282604E0,-9.241169095E-1,-2.610105038E0
6.788510000E-1,1.648306370E0,-6.472029686E-1,-3.024341345E0
6.988510000E-1,1.873104811E0,-3.334276974E-1,-3.067887306E0
7.188510000E-1,1.926860929E0,4.649557173E-2,-3.095917463E0
7.388510000E-1,1.747894883E0,3.328866363E-1,-3.179064751E0
7.588510000E-1,1.440455079E0,3.404613733E-1,-3.084188700E0
7.788525620E-1,1.087950945E0,1.580570191E-1,-2.887472630E0
8.008510000E-1,6.236759424E-1,2.635621727E-1,-2.558792353E0
8.208510000E-1,5.279621109E-2,1.300793886E-1,-2.167925835E0
8.408510000E-1,-4.897393882E-1,-9.758135676E-2,-1.872616053E0
8.628510000E-1,-1.044457436E0,-2.921506763E-1,-1.608722329E0
8.828510000E-1,-1.410348177E0,-3.827157915E-1,-1.265904784E0
9.028510000E-1,-1.531526446E0,-3.461686075E-1,-7.314849496E-1
9.248572500E-1,-1.348389030E0,-3.244916201E-1,-2.875081003E-1
9.448572500E-1,-8.693659306E-1,-4.995481372E-1,-1.121025011E-1
9.668510000E-1,-2.622880936E-1,-1.097113967E0,6.190682948E-2
9.868510000E-1,-7.742280513E-2,-1.504264355E0,2.452187538E-1
1.006852562E0,-2.961823642E-1,-1.340988874E0,4.117580652E-1
1.028851000E0,-7.538077235E-1,-9.066461921E-1,5.042430758E-1
1.048851000E0,-9.028064609E-1,-6.777811646E-1,3.681946695E-1
1.068861937E0,-7.312929630E-1,-6.152634621E-1,2.474702299E-1
1.090851000E0,-5.496391058E-1,-7.890284657E-1,2.211681157E-1
1.110851000E0,-6.516361237E-1,-8.573231697E-1,1.824916303E-1
1.130851000E0,-6.881484389E-1,-7.346963286E-1,2.083399594E-1
1.150871312E0,-6.703111529E-1,-5.568647385E-1,1.939060837E-1
1.172851000E0,-7.423932552E-1,-7.403512001E-1,7.813838869E-2
1.192851000E0,-7.367558479E-1,-1.163995028E0,1.225221157E-2
1.212852562E0,-5.261993408E-1,-1.064912677E0,1.988977194E-1
1.234857250E0,-3.846705556E-1,-3.818082213E-1,4.725478888E-1
1.256852562E0,-6.686705351E-1,1.024159193E-1,8.890183568E-1
1.276852562E0,-1.138216496E0,4.052130878E-1,1.111460567E0
1.296852562E0,-1.324251056E0,9.921324253E-1,1.042659640E0
1.318851000E0,-9.240296483E-1,2.140052795E0,9.958674312E-1
1.338851000E0,-2.789908946E-1,1.943650961E0,9.219003320E-1
1.358851000E0,5.826432705E-1,1.482081294E0,1.006548882E0
1.378852562E0,1.628374696E0,1.374464273E0,1.281281114E0
1.400852562E0,2.597556114E0,1.485973358E0,1.246531606E0
1.422851000E0,3.137351513E0,1.329172969E0,1.113781810E0
1.442852562E0,3.516681433E0,1.015903831E0,1.266236424E0
1.464857250E0,3.969698906E0,4.439594150E-1,1.508767366E0
1.486852562E0,4.030663490E0,1.758942753E-1,1.735311031E0
1.506852562E0,3.174579382E0,-2.312037647E-1,1.808981419E0
1.526852562E0,1.343083262E0,-1.140991569E0,1.394989252E0
1.546852562E0,-5.640205741E-1,-1.594183743E-1,9.103637338E-1
1.566852562E0,-1.335752845E0,1.440018773E0,1.016671777E0
1.588852562E0,-1.378199220E0,1.965624690E0,1.141846776E0
1.610852562E0,-7.521845698E-1,1.253792167E0,1.261873007E0
1.632851000E0,-1.255764365E-1,1.610938907E-1,1.255991340E0
1.652851000E0,1.739569604E-1,-7.749261856E-1,9.332100749E-1
1.672851000E0,2.416757345E-1,-1.638637304E0,4.794419408E-1
1.692851000E0,7.723081857E-2,-2.625463963E0,2.653424144E-1
1.712852562E0,-2.761459947E-1,-3.309126854E0,2.444682717E-1
1.734857250E0,-7.735473514E-1,-3.557661772E0,1.431169957E-1
1.756851000E0,-1.147396922E0,-3.326998949E0,3.759439290E-2
1.776852562E0,-1.371584415E0,-3.251391411E0,-2.321113348E-1
1.796852562E0,-1.575648308E0,-3.359723806E0,-5.527282953E-1
1.816852562E0,-1.667801738E0,-3.736697674E0,-6.788283587E-1
1.838851000E0,-1.604516029E0,-4.148298740E0,-5.970073342E-1
1.858851000E0,-1.485659122E0,-4.185613632E0,-5.903925300E-1
1.878854125E0,-1.404134870E0,-3.999858379E0,-7.127226591E-1
1.900851000E0,-1.371828794E0,-3.813753843E0,-7.088479996E-1
1.920851000E0,-1.350884795E0,-3.584225655E0,-5.567251444E-1
1.940851000E0,-1.206807852E0,-3.007132530E0,-3.200235665E-1
1.960851000E0,-8.925788403E-1,-2.094569683E0,-1.519134641E-1
1.980851000E0,-4.385139644E-1,-1.043986082E0,2.169444226E-2
2.000851000E0,4.515166581E-2,-3.832568526E-1,3.168121576E-1
2.020851000E0,6.270269752E-1,-5.583308265E-2,5.350830555E-1
2.040851000E0,1.463964701E0,1.198343039E-1,5.001764297E-1
2.060851000E0,2.349527359E0,2.534218132E-2,2.762157917E-1
2.080851000E0,3.139882326E0,-3.837106228E-1,-3.190461919E-2
2.100851000E0,3.763523340E0,-9.356011748E-1,-3.606199324E-1
2.120851000E0,4.140671253E0,-1.448012352E0,-4.212177694E-1
2.140851000E0,4.389764786E0,-1.942917943E0,-3.430619240E-1
2.160851000E0,4.949247360E0,-2.397035122E0,-2.070484012E-1
2.180851000E0,5.817845821E0,-2.417263508E0,-2.997253835E-1
2.200851000E0,6.474281311E0,-1.639335394E0,-4.825311899E-1
2.220851000E0,6.607240677E0,-8.841139674E-1,-7.662867904E-1
2.240851000E0,6.742712975E0,-2.540850341E-1,-9.324595928E-1
2.260851000E0,6.967668533E0,3.225542903E-1,-1.063359261E0
2.280851000E0,6.949918747E0,7.359006405E-1,-1.128233194E0
2.300851000E0,6.937963009E0,7.575775981E-1,-1.128337860E0
2.320851000E0,7.026346684E0,5.261818767E-1,-1.203875780E0
2.340851000E0,6.851796150E0,4.463505149E-1,-1.433997393E0
2.360851000E0,6.197891235E0,5.865178704E-1,-1.719882369E0
2.380851000E0,5.231659412E0,8.037765026E-1,-1.853330255E0
2.400852562E0,4.305604935E0,1.047633886E0,-1.865826726E0
2.422851000E0,3.333910465E0,1.320987344E0,-1.906353354E0
2.442851000E0,2.482870579E0,1.494787216E0,-1.916266799E0
2.462851000E0,1.940806150E0,1.477787733E0,-1.843154907E0
2.482851000E0,1.578109264E0,1.445027947E0,-1.714803457E0
2.502851000E0,1.181395888E0,1.466704845E0,-1.658324599E0
2.522851000E0,8.327838778E-1,1.556153059E0,-1.747458577E0
2.542851000E0,5.859245062E-1,1.643018007E0,-1.753340364E0
2.562851000E0,3.848101795E-1,1.540130854E0,-1.633680582E0
2.582851000E0,1.654746681E-1,1.305418968E0,-1.433700681E0
2.602851000E0,-1.432915330E-1,9.175370336E-1,-1.156664610E0
2.622851000E0,-4.522846341E-1,5.651376247E-1,-9.203993678E-1
2.642851000E0,-7.936012149E-1,5.246983171E-1,-6.731734872E-1
2.662851000E0,-1.155826807E0,6.538177729E-1,-3.744952977E-1
2.682851000E0,-1.407154202E0,5.688027740E-1,-7.030186057E-2
2.702851000E0,-1.543010712E0,3.473205259E-3,4.078310728E-1
2.722851000E0,-1.695709586E0,-6.911852956E-1,8.271988034E-1
2.742851000E0,-1.912025690E0,-9.919927716E-1,9.883799553E-1
2.762851000E0,-2.179567099E0,-8.937307596E-1,8.934340477E-1
2.782851000E0,-2.415500879E0,-5.257979035E-1,7.173652053E-1
2.802851000E0,-2.440773249E0,-2.925171852E-1,8.488059640E-1
2.822851000E0,-2.205886841E0,-6.919707060E-1,1.069031596E0
2.844851000E0,-2.035909176E0,-1.676790118E0,1.201048374E0
2.864851000E0,-2.217877150E0,-2.495576382E0,1.325193644E0
2.884851000E0,-2.598568439E0,-2.989347458E0,1.610834122E0
2.904858812E0,-2.866441488E0,-3.312181234E0,2.011492014E0
2.926852562E0,-2.906531811E0,-3.707707644E0,2.193774223E0
2.948852562E0,-2.729293585E0,-4.172663212E0,2.268543959E0
2.968860375E0,-2.286049604E0,-4.544819832E0,2.469850302E0
2.990851000E0,-1.609420419E0,-4.789270878E0,2.755874872E0
3.012851000E0,-8.548971415E-1,-4.692858696E0,2.371885061E0
3.034851000E0,-6.640105247E-1,-4.124806404E0,1.598948479E0
3.054854125E0,-9.451132417E-1,-3.632117510E0,9.057909846E-1
3.074854125E0,-1.498085856E0,-3.056891918E0,4.242197275E-1
3.096851000E0,-1.775855064E0,-1.188848495E0,2.369458973E-1
3.116851000E0,-1.397118568E0,2.121273130E-1,-7.361798733E-2
3.136851000E0,-6.009517908E-1,3.650705218E-1,-2.575931549E-1
3.156851000E0,3.759439290E-1,-5.660102963E-1,-3.573910594E-1
3.176854125E0,1.000405312E0,-1.290880442E0,-4.394215345E-1
3.198851000E0,1.134114981E0,-1.191291928E0,-4.593357444E-1
3.218851000E0,1.128861547E0,-2.938261926E-1,-6.084043384E-1
3.238851000E0,1.373137832E0,4.692841172E-1,-1.028749466E0
3.258851000E0,2.017513275E0,4.129972458E-1,-1.405339122E0
3.278851000E0,2.681157351E0,3.543542027E-1,-1.487561584E0
3.298851000E0,3.110298872E0,3.677583337E-1,-1.475728273E0
3.318851000E0,3.329390049E0,4.700171649E-1,-1.500773668E0
3.338851000E0,3.566109180E0,4.867025018E-1,-1.619892478E0
3.358851000E0,3.715683699E0,2.380280048E-1,-1.522991776E0
3.378858812E0,3.939766645E0,5.165302157E-1,-1.910210490E0
3.400851000E0,4.425090313E0,1.743496656E0,-3.111974478E0
3.420851000E0,4.533981323E0,2.894244671E0,-3.541953802E0
3.440851000E0,4.211444378E0,3.514080763E0,-3.316806316E0
3.460851000E0,3.673254728E0,3.671195269E0,-2.672570229E0
3.480879125E0,3.144612074E0,3.464530945E0,-2.181679010E0
3.502851000E0,2.687841892E0,3.146200418E0,-1.983933210E0
3.522851000E0,2.393335104E0,2.851501465E0,-1.973339081E0
3.542851000E0,2.223200321E0,2.556872368E0,-1.967143178E0
3.562851000E0,2.166861057E0,2.066155672E0,-1.890453339E0
3.582851000E0,2.114326715E0,1.569016099E0,-1.740442276E0
3.602851000E0,1.997703910E0,1.199390292E0,-1.559154987E0
3.622851000E0,1.805665255E0,1.126627445E0,-1.534039736E0
3.642851000E0,1.489394188E0,1.677889705E0,-1.695674658E0
3.662851000E0,1.228153229E0,2.325249910E0,-1.767843962E0
3.682851000E0,1.278715491E0,2.488001823E0,-1.403384328E0
3.702851000E0,1.783115625E0,2.195519447E0,-7.192676067E-1
3.722851000E0,2.591185570E0,1.569208026E0,1.467123777E-1
3.742851000E0,3.297433138E0,5.659055710E-1,9.558993578E-1
3.762851000E0,3.487272501E0,-4.619362950E-1,1.288541675E0
3.782851000E0,2.975384951E0,-1.450857282E0,1.373958111E0
3.802851000E0,1.721156478E0,-2.115827799E0,1.609403014E0
3.824851000E0,1.832595654E-2,-2.233846903E0,2.023255587E0
3.844851000E0,-1.298420191E0,-2.092824221E0,2.261283398E0
3.864851000E0,-2.292839050E0,-1.879073858E0,2.481631279E0
3.884852562E0,-2.846282959E0,-1.757372022E0,2.845986128E0
3.906851000E0,-2.799054384E0,-1.940771222E0,3.430305004E0
3.926852562E0,-2.158640623E0,-2.335948706E0,3.728843689E0
3.948852562E0,-1.104234934E0,-2.811847687E0,3.586442232E0
3.970869750E0,-2.283588797E-1,-2.914298296E0,3.308707952E0
3.992851000E0,2.496344447E-1,-2.709012747E0,3.159237862E0
4.012851000E0,2.757096589E-1,-2.312683344E0,3.117035866E0
4.032851000E0,-5.410520826E-3,-1.720510721E0,3.184510231E0
4.052851000E0,-3.670427501E-1,-1.085664630E0,3.443674326E0
4.072851000E0,-7.433880568E-1,-6.928259134E-1,3.690708160E0
4.092851000E0,-1.120990038E0,-6.184574366E-1,3.751899481E0
4.112851000E0,-1.434189439E0,-6.494195461E-1,3.797487259E0
4.132851000E0,-1.849979162E0,-7.436673641E-1,3.669362783E0
4.152851000E0,-2.583715677E0,-6.453704238E-1,3.604035139E0
4.172851000E0,-3.263102531E0,-5.291314721E-1,3.586983204E0
4.192851000E0,-3.578221560E0,-5.140169263E-1,3.413968801E0
4.212851000E0,-3.617334604E0,-5.510528088E-1,3.006085396E0
4.232851000E0,-3.589112520E0,-5.804616213E-1,2.359528065E0
4.252851000E0,-3.357385159E0,-4.690397680E-1,1.645967603E0
4.274851000E0,-2.512087345E0,1.093797833E-1,6.705031395E-1
4.294868187E0,-1.178638339E0,2.277654707E-1,-2.661277950E-1
4.316851000E0,4.702440500E-1,-3.807435632E-1,-9.117076397E-1
4.336851000E0,1.461608529E0,-1.110326052E0,-1.578353643E0
4.356851000E0,1.933737516E0,-1.569696784E0,-2.387331247E0
4.376851000E0,2.156057596E0,-1.263757944E0,-2.919359922E0
4.396851000E0,2.174278736E0,-6.167295575E-1,-3.144699335E0
4.416851000E0,2.072211981E0,2.579421997E-1,-3.234967709E0
4.436851000E0,1.984666228E0,1.106242061E0,-3.354243517E0
4.456851000E0,1.987895131E0,1.639527440E0,-3.471913576E0
4.476851000E0,2.173126936E0,1.770060539E0,-3.565184116E0
4.496851000E0,2.449499846E0,1.490476251E0,-3.678682804E0
4.516851000E0,2.692327499E0,1.022064805E0,-3.847944736E0
4.536851000E0,2.748806238E0,6.391919255E-1,-4.027574062E0
4.556851000E0,2.601395845E0,4.099778533E-1,-4.222649574E0
4.576851000E0,2.341341734E0,3.514395058E-1,-4.245775223E0
4.596851000E0,2.204769611E0,2.354274690E-1,-4.087595940E0
4.616851000E0,2.364938498E0,1.728574038E-1,-3.850318432E0
4.636851000E0,2.790065765E0,4.084070213E-3,-3.592027187E0
4.656851000E0,3.150528669E0,-3.014358282E-1,-3.296891928E0
4.676851000E0,3.229679346E0,-5.886122584E-1,-2.924421310E0
4.696852562E0,3.034307241E0,-6.788981557E-1,-2.541670561E0
4.718851000E0,2.523187637E0,-6.417400837E-1,-1.983357191E0
4.738851000E0,1.858025193E0,-5.073846579E-1,-1.224819660E0
4.758851000E0,1.179598212E0,-3.145083189E-1,-2.306452543E-1
4.778851000E0,6.676582694E-1,-3.324852139E-2,6.185446978E-1
4.798851000E0,3.622081876E-1,3.880565166E-1,1.081772566E0
4.818851000E0,2.492679209E-1,6.157696247E-1,1.378146887E0
4.838851000E0,2.978404462E-1,6.855304241E-1,1.582978725E0
4.858851000E0,3.817558587E-1,6.494544744E-1,1.679861903E0
4.878852562E0,2.550275028E-1,5.314003825E-1,1.912392139E0
4.900852562E0,-1.236740276E-1,3.867475092E-1,2.358236551E0
4.922851000E0,-1.003895879E0,7.031233311E-1,2.648589373E0
4.942851000E0,-2.103366137E0,1.189145207E0,2.808130026E0
4.962851000E0,-2.977898121E0,1.745364189E0,2.857069016E0
4.982851000E0,-3.332217455E0,1.905777335E0,2.836212397E0
5.002851000E0,-3.250431299E0,1.725607038E0,2.916776896E0
5.022851000E0,-2.761843920E0,1.475745678E0,3.209747791E0
5.042851000E0,-1.994021177E0,1.125719905E0,3.612499952E0
5.062851000E0,-1.399701715E0,6.266953945E-1,3.823667288E0
5.082851000E0,-9.287769794E-1,3.584557176E-1,3.935717344E0
5.102851000E0,-6.314601302E-1,5.330235511E-2,4.204463482E0
5.122851000E0,-4.919036031E-1,-4.477816820E-1,4.642488480E0
5.142851000E0,-2.739119828E-1,-1.117918253E0,4.805572033E0
5.162851000E0,-1.650034338E-1,-1.819994450E0,4.670919895E0
5.182851000E0,-3.699574471E-1,-2.093976259E0,4.173815250E0
5.202851000E0,-9.206960797E-1,-1.822053909E0,3.382605076E0
5.222851000E0,-1.550567985E0,-1.142876506E0,2.633876324E0
5.242851000E0,-1.977283478E0,-2.994635999E-1,2.130924940E0
5.262851000E0,-1.974089503E0,4.796688259E-1,1.811983347E0
5.284857250E0,-1.872982621E0,1.114567280E0,1.200158238E0
5.306851000E0,-1.995452404E0,1.553395391E0,3.951425478E-2
5.326851000E0,-1.719096899E0,1.425061345E0,-1.075105309E0
5.346851000E0,-8.212821484E-1,8.173376918E-1,-1.805333614E0
5.366851000E0,3.596076369E-1,1.103920713E-1,-2.440267086E0
5.386851000E0,1.404606104E0,-8.880235255E-2,-3.291656017E0
5.406851000E0,2.034600019E0,1.571668983E-1,-4.196259975E0
5.426851000E0,2.299820423E0,7.518878579E-1,-4.661652088E0
5.446851000E0,2.300064802E0,1.280757546E0,-4.813862324E0
5.466851000E0,2.162672281E0,1.620416045E0,-4.941533089E0
5.486851000E0,2.100590944E0,1.836906672E0,-5.042343616E0
5.506851000E0,2.180841208E0,2.103086948E0,-4.943400860E0
5.526851000E0,2.238210201E0,2.271755457E0,-4.770368576E0
5.546852562E0,2.150961161E0,2.499433756E0,-4.478078365E0
5.566852562E0,1.819627881E0,2.749923229E0,-4.007590294E0
5.588851000E0,1.398567200E0,3.156183481E0,-3.683953762E0
5.608851000E0,1.265834928E0,3.673254728E0,-3.621348858E0
5.628851000E0,1.225849390E0,4.291066647E0,-3.568831682E0
5.648851000E0,9.630203247E-1,5.056114197E0,-3.362027645E0
5.668852562E0,5.810201168E-1,6.162216663E0,-3.009104729E0
5.688852562E0,1.852841526E-1,7.600926399E0,-2.475330591E0
5.710851000E0,-1.253495514E-1,8.649956703E0,-1.869073033E0
5.730851000E0,-1.376366615E-1,8.017868042E0,-1.391062260E0
5.750871312E0,1.955117881E-1,6.083449841E0,-1.218204856E0
5.772851000E0,8.177914619E-1,3.583178282E0,-1.330813527E0
5.792851000E0,1.056395411E0,1.781771779E0,-1.517179847E0
5.812851000E0,7.720638514E-1,8.911476731E-1,-1.697053432E0
5.832851000E0,9.789551795E-2,5.726425052E-1,-1.704593301E0
5.852851000E0,-7.917162776E-1,7.145028710E-1,-1.620852351E0
5.872851000E0,-1.759047508E0,7.016746998E-1,-1.439652324E0
5.892851000E0,-2.574273348E0,5.576327071E-2,-1.152179122E0
5.912851000E0,-3.070889473E0,-8.140564561E-1,-6.969972253E-1
5.932851000E0,-3.264009953E0,-1.421431065E0,-6.898239255E-1
5.954851000E0,-2.953917503E0,-2.092457771E0,-9.841562510E-1
5.974855687E0,-2.461193562E0,-2.777639151E0,-9.424603581E-1
5.994857250E0,-1.977772236E0,-2.951945066E0,-8.296073675E-1
6.016851000E0,-1.766639709E0,-2.963761091E0,-5.390623808E-1
6.036851000E0,-1.793256044E0,-3.025039673E0,-5.518731102E-2
6.056851000E0,-1.734927058E0,-2.989365101E0,3.155729771E-1
6.076851000E0,-1.624482632E0,-2.857784748E0,4.401371181E-1
6.096851000E0,-1.694679737E0,-3.050119877E0,6.183527112E-1
6.116851000E0,-1.911571860E0,-3.371871471E0,9.396328926E-1
6.136852562E0,-2.226481676E0,-3.690463781E0,1.304860473E0
6.158851000E0,-2.609110117E0,-4.297698498E0,1.713162780E0
6.178851000E0,-2.903058529E0,-4.987854481E0,1.995539665E0
6.198851000E0,-3.280625582E0,-5.390501499E0,2.106298208E0
6.218851000E0,-4.015915394E0,-5.377272129E0,2.074899673E0
6.238851000E0,-4.408649445E0,-5.243056297E0,1.859613419E0
6.258851000E0,-4.733193398E0,-4.941271305E0,9.947329760E-1
6.278851000E0,-6.057810783E0,-3.809914112E0,1.673247218E-1
6.298851000E0,-7.896288395E0,-1.917523384E0,2.317448109E-1
6.318851000E0,-8.594123840E0,-2.232625186E-1,6.038664579E-1
6.338851000E0,-7.968283176E0,1.978679746E-1,8.638856411E-1
6.358851000E0,-6.420333385E0,-6.173229590E-2,1.105247140E0
6.378852562E0,-4.214516163E0,-7.261965871E-1,8.850390315E-1
6.400851000E0,-1.747092009E0,-1.137465954E0,5.410520826E-4
6.420851000E0,-4.185997546E-1,-9.561088085E-1,-5.954190493E-1
6.440851000E0,1.683370024E-1,-1.469392627E-1,-7.686778903E-1
6.460851000E0,7.953290939E-1,1.450839877E0,-6.266779304E-1
6.480851000E0,1.721871972E0,2.473829746E0,-6.672917008E-1
6.500851000E0,2.695416689E0,2.491248131E0,-8.527853489E-1
6.520851000E0,3.478144407E0,1.840554357E0,-1.069275975E0
6.540851000E0,3.952524900E0,5.826781392E-1,-1.308770061E0
6.560851000E0,4.030820370E0,-9.379399419E-1,-1.539240718E0
6.580851000E0,3.643479586E0,-1.275905490E0,-1.702097416E0
6.600851000E0,2.970201254E0,-5.261644125E-1,-2.045002222E0
6.620851000E0,2.398396492E0,3.322408795E-1,-2.334517479E0
6.642851000E0,2.159652948E0,5.364094973E-1,-2.460565090E0
6.662851000E0,2.024337530E0,4.033455849E-1,-2.393404961E0
6.682851000E0,1.955676317E0,3.860668242E-1,-2.365008354E0
6.702851000E0,2.045648098E0,3.929434121E-1,-2.244859934E0
6.722851000E0,2.222048521E0,2.353401929E-1,-2.109579563E0
6.742851000E0,2.337257624E0,1.108284071E-1,-1.883088112E0
6.762851000E0,2.576978683E0,5.235987919E-5,-1.561266780E0
6.782851000E0,2.851414204E0,-9.194394201E-2,-1.370188236E0
6.802851000E0,2.507584333E0,-7.390247583E-1,-1.000684500E0
6.822851000E0,1.411622286E0,-1.440071106E0,-2.309070528E-1
6.842851000E0,2.586577833E-1,-8.976402879E-1,4.190710187E-1
6.862851000E0,-5.478762984E-1,-2.256361693E-1,9.245183468E-1
6.882851000E0,-9.617113471E-1,2.725855112E-1,1.415444613E0
6.902851000E0,-9.774018526E-1,2.123891115E-1,1.869631648E0
6.922851000E0,-7.612777352E-1,-5.025326610E-1,2.148412943E0
6.942851000E0,-6.171309948E-1,-1.055941701E0,2.065160751E0
6.962851000E0,-8.673064709E-1,-6.085264683E-1,1.631603599E0
6.982851000E0,-1.352857113E0,3.027797043E-1,1.429285049E0
7.002851000E0,-1.609472871E0,7.659726739E-1,1.573920488E0
7.022851000E0,-1.574670911E0,6.335370541E-1,1.864168763E0
7.042851000E0,-1.429162860E0,6.925466657E-2,1.935814500E0
7.062851000E0,-1.305192113E0,-3.088534772E-1,1.738539934E0
7.082851000E0,-1.179126978E0,-3.664318621E-1,1.481034040E0
7.102851000E0,-1.074372292E0,-4.841543436E-1,1.164501071E0
7.122851000E0,-9.616240263E-1,-5.173504949E-1,9.290038347E-1
7.142851000E0,-6.671521068E-1,-3.401821256E-1,9.002931714E-1
7.162852562E0,-3.241949081E-1,-6.112317443E-1,9.839817286E-1
7.184857250E0,-1.022937447E-1,-1.102541924E0,9.769654870E-1
7.204858812E0,9.115854651E-2,-9.239249229E-1,8.805186152E-1
7.226851000E0,4.402244091E-1,-5.311735272E-1,7.238054872E-1
7.246851000E0,8.302007914E-1,-4.770333767E-1,4.676260650E-1
7.266851000E0,1.102943420E0,-4.232772589E-1,3.504621238E-2
7.286869750E0,1.156629682E0,-2.359510660E-1,-3.236887753E-1
7.308852562E0,9.382366538E-1,1.861044616E-1,-5.879490376E-1
7.330851000E0,7.768809795E-1,8.277747631E-1,-7.437894940E-1
7.350869750E0,1.075925708E0,1.320254326E0,-1.062975287E0
7.372851000E0,1.747685432E0,8.086808324E-1,-1.453806877E0
7.392851000E0,2.373438358E0,-1.787566245E-1,-1.690368772E0
7.412851000E0,2.771844625E0,-8.709192872E-1,-1.999327064E0
7.432851000E0,2.861886263E0,-9.654812217E-1,-2.355775595E0
7.452851000E0,3.042039156E0,-6.802071929E-1,-2.607434511E0
7.472851000E0,3.205593824E0,1.232202444E-2,-2.689028740E0
7.492851000E0,3.557871103E0,-2.190388143E-1,-2.896111965E0
7.512851000E0,3.520276785E0,-3.614576757E-1,-3.308254242E0
7.532851000E0,3.286769152E0,-5.249950290E-2,-3.580054283E0
7.552851000E0,2.809351683E0,2.644697428E-1,-3.491216898E0
7.572851000E0,2.389286041E0,2.748893499E-1,-3.170861721E0
7.592851000E0,2.179305315E0,5.440191180E-2,-2.710199594E0
7.612851000E0,2.142478943E0,-3.306002617E-1,-2.346752167E0
7.632851000E0,2.142705917E0,-6.495068073E-1,-2.158256769E0
7.652851000E0,2.130506039E0,-9.921149611E-1,-1.934732318E0
7.672851000E0,2.051529884E0,-1.227839112E0,-1.690874934E0
7.692851000E0,1.857169986E0,-1.183560133E0,-1.456791401E0
7.712851000E0,1.605214238E0,-1.145599246E0,-1.204015374E0
7.732851000E0,1.318945289E0,-1.109209061E0,-9.179210067E-1
7.752851000E0,1.063184738E0,-1.034578800E0,-6.081424952E-1
7.772851000E0,8.367632031E-1,-9.013403654E-1,-3.543193042E-1
7.792851000E0,5.213647485E-1,-6.085613966E-1,-2.499660552E-1
7.812851000E0,5.047492310E-2,-2.140122652E-1,-1.254193634E-1
7.832851000E0,-3.621732593E-1,-3.501130641E-2,3.862762749E-1
7.852851000E0,-5.757492185E-1,-1.395739764E-1,1.105474114E0
7.872851000E0,-8.159065247E-1,-1.647765338E-1,1.792086601E0
7.892851000E0,-1.203823447E0,1.068490595E-1,2.297656059E0
7.912851000E0,-1.558317184E0,2.784672678E-1,2.607399702E0
7.932851000E0,-1.695185900E0,1.863488108E-1,2.773205996E0
7.952851000E0,-1.655601859E0,9.543460608E-2,3.004793644E0
7.972851000E0,-1.542137980E0,1.288052946E-1,3.269211054E0
7.992851000E0,-1.640941143E0,2.994810343E-1,3.388661385E0
8.012851000E0,-1.854813695E0,5.338264108E-1,3.242699623E0
8.032851000E0,-1.973461270E0,7.042927146E-1,3.044534922E0
8.052852562E0,-1.904782534E0,6.972590089E-1,3.059981108E0
8.072852562E0,-1.643611431E0,5.351353884E-1,3.195069551E0
8.092852562E0,-1.461294413E0,3.176673651E-1,3.217741251E0
8.114852562E0,-1.723879099E0,8.492772281E-2,2.936394215E0
8.134852562E0,-2.178607225E0,7.583455741E-2,2.590888977E0
8.154852562E0,-2.503133774E0,2.549926043E-1,2.493115664E0
8.174852562E0,-2.586124182E0,2.859023809E-1,2.640334129E0
8.194852562E0,-2.438608885E0,1.598721556E-2,2.776888609E0
8.216852562E0,-2.083085299E0,-3.134262264E-1,2.656687737E0
8.238852562E0,-1.604446292E0,-5.208237171E-1,2.353209972E0
8.260851000E0,-1.332942843E0,-5.175250173E-1,2.170089960E0
8.280876000E0,-1.187801242E0,-6.864205599E-1,1.783691525E0
8.302851000E0,-1.116609335E0,-4.209734201E-1,1.315419793E0
8.322851000E0,-1.087392449E0,2.687981427E-1,6.928957105E-1
8.342851000E0,-7.713831663E-1,9.060004354E-1,6.600835174E-2
8.362855687E0,-6.211626902E-2,1.192234397E0,-3.624525368E-1
8.384852562E0,1.018591642E0,8.590335846E-1,-7.605621219E-1
8.404852562E0,1.832770228E0,-1.222952232E-1,-1.200472355E0
8.424861937E0,2.512715578E0,-9.880832434E-1,-1.745591044E0
8.446851000E0,3.220586300E0,-1.525121093E0,-2.489991426E0
8.466851000E0,3.550436020E0,-1.895811558E0,-3.186779261E0
8.486851000E0,3.705194473E0,-1.880993724E0,-3.725509882E0
8.506851000E0,3.781203508E0,-1.506446004E0,-3.854978561E0
8.526851000E0,3.656482220E0,-1.303656220E0,-4.064365864E0
8.546851000E0,3.378433704E0,-1.283742070E0,-4.483872890E0
8.566851000E0,2.893406868E0,-1.200018525E0,-4.964327335E0
8.586851000E0,2.356997252E0,-1.045399904E0,-5.264489174E0
8.606852562E0,1.890854836E0,-7.215889096E-1,-5.158983707E0
8.628851000E0,1.628549218E0,-3.073350191E-1,-4.740471363E0
8.648851000E0,1.587883115E0,5.131267942E-3,-4.198232651E0
8.668851000E0,1.605615616E0,4.298920333E-1,-3.596093893E0
8.688851000E0,1.617361665E0,4.926017225E-1,-3.052528381E0
8.708851000E0,1.495275974E0,4.178143740E-1,-2.604624748E0
8.728851000E0,1.326904058E0,4.286179543E-1,-2.341830492E0
8.748851000E0,1.189756036E0,1.392249167E-1,-2.102371216E0
8.768852562E0,9.938428402E-1,-1.258382350E-1,-1.731768012E0
8.790851000E0,8.823337555E-1,-3.290643692E-1,-1.072225571E0
8.810851000E0,8.482474685E-1,-3.624874353E-1,-4.070282280E-1
8.830851000E0,7.497760057E-1,-2.465975732E-1,1.311789453E-1
8.850869750E0,4.647113681E-1,-1.058542207E-1,4.540124834E-1
8.872851000E0,-2.879793290E-3,-1.059414819E-1,4.803844094E-1
8.892851000E0,-3.334102333E-1,-1.614429615E-2,6.650925875E-1
8.912851000E0,-4.977155328E-1,1.821076572E-1,1.103641510E0
8.932851000E0,-5.223770142E-1,2.425833046E-1,1.532730699E0
8.952851000E0,-3.076491952E-1,-1.075122785E-2,1.988540888E0
8.972851000E0,-9.688322991E-2,-2.446427941E-1,2.337798595E0
8.992851000E0,-1.961750165E-2,-4.594404697E-1,2.552963018E0
9.012851000E0,-3.143686950E-1,-2.829527855E-1,2.625045061E0
9.032851000E0,-8.430289030E-1,1.729446799E-1,2.690075874E0
9.052851000E0,-1.285504818E0,7.029138803E-1,2.630961657E0
9.072852562E0,-1.420628190E0,1.058943629E0,2.585827351E0
9.094851000E0,-1.337375998E0,1.194416046E0,2.745315552E0
9.114852562E0,-1.207837701E0,1.150503635E0,2.977304697E0
9.136852562E0,-1.140415549E0,1.006095052E0,3.193010092E0
9.158851000E0,-1.059746504E0,8.706225753E-1,3.300888777E0
9.178851000E0,-8.777435422E-1,1.092227101E0,3.513225555E0
9.198851000E0,-9.406102896E-1,1.160068035E0,3.794537783E0
9.218851000E0,-1.395914316E0,1.307530880E0,3.865293503E0
9.238851000E0,-1.799102783E0,1.247526407E0,3.731287003E0
9.258851000E0,-2.074603081E0,6.809402108E-1,3.584766626E0
9.278851000E0,-2.401258945E0,3.456624448E-1,3.283505440E0
9.298851000E0,-2.915991306E0,1.994562298E-1,2.893389463E0
9.318851000E0,-3.083403349E0,-5.286602303E-2,2.722975492E0
9.338851000E0,-2.749347448E0,-4.139746428E-1,2.375654936E0
9.358851000E0,-2.506031036E0,-7.589738965E-1,1.636298537E0
9.378851000E0,-2.432011604E0,-3.664493263E-1,6.302558184E-1
9.398851000E0,-1.857728481E0,8.799601197E-1,-6.843610406E-1
9.418852562E0,-6.271317005E-1,1.187033296E0,-1.869614124E0
9.440851000E0,1.245536804E0,1.249306649E-1,-2.335861444E0
9.460851000E0,2.657054424E0,-1.355178356E0,-2.589667082E0
9.480851000E0,3.286716700E0,-2.475540161E0,-2.968944788E0
9.500851000E0,3.440270901E0,-2.690477371E0,-3.453744888E0
9.520851000E0,3.441876650E0,-2.301321268E0,-3.738058805E0
9.542849437E0,3.178942680E0,-1.867554665E0,-3.919957161E0
9.562854125E0,2.631328106E0,-1.367203712E0,-3.956958055E0
9.584851000E0,1.962832212E0,-9.217607379E-1,-3.911527157E0
9.604852562E0,1.655968428E0,-6.291213632E-1,-3.818274260E0
9.626851000E0,1.721348405E0,-5.524665117E-1,-3.519316912E0
9.646851000E0,1.852475047E0,-6.707823873E-1,-3.219957829E0
9.666851000E0,1.770252585E0,-1.184415340E0,-3.155223608E0
9.686851000E0,1.558439374E0,-1.350780129E0,-3.562356710E0
9.706851000E0,1.376279354E0,-1.186073422E0,-3.797016144E0
9.726851000E0,1.119820714E0,-8.685979843E-1,-3.534955025E0
9.746851000E0,7.355166674E-1,-6.068509817E-1,-2.989993334E0
9.766851000E0,2.855882347E-1,-1.996482164E-1,-2.495768547E0
9.786871312E0,-2.650806010E-1,4.740314186E-2,-1.981158137E0
9.808851000E0,-7.010987401E-1,2.072927505E-1,-9.828996062E-1
9.828851000E0,-5.277875662E-1,3.824190795E-1,-2.685712576E-1
9.848852562E0,1.897347420E-1,2.687806962E-3,2.905624211E-1
9.868858812E0,1.250074625E0,-9.241343737E-1,7.436673641E-1
9.890851000E0,1.810098410E0,-1.246967912E0,3.249279559E-1
9.910851000E0,1.389631152E0,-1.020406723E0,-2.288126573E-2
9.930851000E0,5.777039528E-1,-6.653020382E-1,4.054923356E-1
9.950871312E0,-1.368512660E-1,-3.774972558E-1,1.317758441E0
9.970872875E0,-6.000092626E-1,-8.859290928E-2,2.108986139E0
9.992851000E0,-9.904045463E-1,4.142189920E-1,2.384678364E0
1.001285100E1,-1.328562021E0,1.049431562E0,2.047864676E0
1.003285100E1,-1.581844211E0,1.709759474E0,1.579034328E0
1.005285100E1,-1.612335205E0,2.051896334E0,1.325786948E0
1.007285100E1,-1.391044855E0,1.942289710E0,1.508714914E0
1.009287444E1,-9.946805835E-1,1.563902259E0,1.950632334E0
1.011485412E1,-3.648436368E-1,1.115317702E0,2.343662977E0
1.013685100E1,1.637467891E-1,8.378627300E-1,2.468122482E0
1.015685100E1,3.358013332E-1,6.338686943E-1,2.544986725E0
1.017685100E1,4.031186998E-1,3.930481374E-1,2.790118217E0
1.019685100E1,8.471304774E-1,1.071108580E-1,3.118676424E0
1.021685100E1,1.593642712E0,-3.706555665E-1,3.210829735E0
1.023685100E1,1.834079266E0,-1.048366904E0,3.338465691E0
1.025685100E1,1.491069674E0,-1.576974750E0,3.602534056E0
1.027685100E1,7.956956029E-1,-1.337672710E0,3.585901022E0
1.029685100E1,-1.143016145E-1,-5.613327622E-1,3.345813513E0
1.031685100E1,-1.055016637E0,2.219360620E-1,3.002472401E0
1.033685100E1,-1.785175085E0,6.235712171E-1,2.695626020E0
1.035685256E1,-2.205869198E0,6.671870351E-1,2.258665562E0
1.037885256E1,-2.277288198E0,5.929930806E-1,1.536902070E0
1.040085100E1,-1.851480126E0,7.101919055E-1,6.858620048E-1
1.042085100E1,-1.067548037E0,8.566250205E-1,6.044075266E-2
1.044085100E1,-9.615018964E-2,6.733305454E-1,-3.523470759E-1
1.046085100E1,7.851887345E-1,2.161764801E-1,-8.395557404E-1
1.048085100E1,1.314250350E0,-4.135034084E-1,-1.502745986E0
1.050085100E1,1.540567160E0,-1.003599167E0,-2.187281609E0
1.052085100E1,1.650837064E0,-1.274980426E0,-2.734058380E0
1.054085100E1,1.720964432E0,-1.014926434E0,-3.117472172E0
1.056085100E1,1.668761611E0,-4.089306295E-1,-3.450393677E0
1.058285100E1,1.465902090E0,2.834065557E-1,-3.826948643E0
1.060285100E1,1.308403492E0,6.886370778E-1,-4.094455242E0
1.062285100E1,1.239777207E0,7.565129399E-1,-4.237851620E0
1.064285100E1,1.260703683E0,8.247902393E-1,-4.250539780E0
1.066285569E1,1.373748660E0,1.082488060E0,-4.123462677E0
1.068485100E1,1.450647831E0,1.386716485E0,-3.895644665E0
1.070485100E1,1.482901573E0,1.501297355E0,-3.597402811E0
1.072485569E1,1.443177819E0,1.251156688E0,-3.172641993E0
1.074685100E1,1.276411653E0,4.591088593E-1,-2.605968475E0
1.076685100E1,1.242761731E0,-3.462558687E-1,-2.230827570E0
1.078687131E1,1.364271522E0,-7.951545715E-1,-1.988732815E0
1.080885100E1,1.445533991E0,-1.131566763E0,-1.726095676E0
1.082885100E1,1.547304153E0,-1.344287515E0,-1.333850384E0
1.084885100E1,1.602875471E0,-1.537286043E0,-8.779180646E-1
1.086885100E1,1.532067418E0,-1.619019747E0,-3.954043388E-1
1.088885256E1,1.378513455E0,-1.409178853E0,3.940953314E-2
1.091085100E1,1.242342830E0,-9.022479653E-1,4.607145488E-1
1.093085100E1,9.742253423E-1,-4.232074320E-1,8.697150350E-1
1.095087131E1,4.548502564E-1,6.133086979E-2,1.326816797E0
1.097285100E1,-1.483529806E-1,5.297423601E-1,1.976236343E0
1.099285100E1,-4.063999057E-1,8.026419878E-1,2.477931261E0
1.101285100E1,-3.792076707E-1,9.437170029E-1,2.679411888E0
1.103285100E1,-2.734232843E-1,9.337860346E-1,2.538563967E0
1.105285100E1,-3.459417224E-1,8.429940343E-1,2.386982203E0
1.107285100E1,-7.510849833E-1,7.552388906E-1,2.495489120E0
1.109285100E1,-1.293236613E0,9.613622427E-1,2.871659994E0
1.111485100E1,-1.772591233E0,1.266916990E0,3.153495789E0
1.113485100E1,-2.065056086E0,1.569085956E0,3.071395397E0
1.115485725E1,-2.289330959E0,1.816381574E0,2.897421122E0
1.117685100E1,-2.424995422E0,1.981367588E0,2.844799519E0
1.119685100E1,-2.341359138E0,1.991787195E0,3.038687944E0
1.121685100E1,-2.026100397E0,1.822053909E0,3.210376024E0
1.123685100E1,-1.708223581E0,1.318927884E0,3.080628395E0
1.125685100E1,-1.651517749E0,7.719591260E-1,2.692781210E0
1.127685256E1,-1.720248818E0,4.062951803E-1,2.345355988E0
1.129885100E1,-1.633366346E0,2.200336605E-1,2.305213451E0
1.131885100E1,-1.420488596E0,2.294235229E-1,2.302473307E0
1.133885100E1,-1.304127455E0,2.350958437E-1,2.051041126E0
1.135885100E1,-1.227420211E0,3.445978165E-1,1.651744723E0
1.137885100E1,-1.018399596E0,4.286528528E-1,1.288279891E0
1.139885100E1,-7.671769261E-1,4.124212861E-1,1.002394915E0
1.141885100E1,-6.171135306E-1,3.931179643E-1,6.515139341E-1
1.143885100E1,-5.307895541E-1,5.176995397E-1,1.977109015E-1
1.145885256E1,-3.466573060E-1,6.757391095E-1,-2.627243996E-1
1.148085100E1,7.951720059E-2,1.093553543E0,-8.478285670E-1
1.150085100E1,6.746046543E-1,1.191640973E0,-1.223720193E0
1.152085100E1,1.279675364E0,7.494792938E-1,-1.334478736E0
1.154085100E1,1.710579753E0,-1.674643457E-1,-1.398305416E0
1.156085100E1,1.938275337E0,-1.100220680E0,-1.560917735E0
1.158085100E1,2.005208731E0,-1.552540183E0,-2.006343126E0
1.160085100E1,2.108235598E0,-1.539711952E0,-2.524147511E0
1.162085100E1,2.255977631E0,-1.187452197E0,-3.018320084E0
1.164085100E1,2.326331854E0,-5.419771075E-1,-3.558900833E0
1.166085100E1,2.106804371E0,1.509186178E-1,-4.115905285E0
1.168085100E1,1.653140903E0,8.085412383E-1,-4.419452667E0
1.170085256E1,1.051927447E0,1.592874765E0,-4.453172684E0
1.172285100E1,6.313728690E-1,2.495768547E0,-4.538205147E0
1.174285100E1,5.995206237E-1,3.057642221E0,-4.584753036E0
1.176285412E1,7.372794151E-1,3.254707336E0,-4.478514671E0
1.178485100E1,9.446245432E-1,3.256801844E0,-4.196120739E0
1.180486506E1,1.160469413E0,3.249925137E0,-4.052288055E0
1.182685256E1,1.611881375E0,2.628465891E0,-4.132939816E0
1.184885100E1,2.165499926E0,1.347900271E0,-4.073598385E0
1.186885100E1,2.211925507E0,1.859665751E0,-3.777608156E0
1.188885100E1,1.719568133E0,3.467899323E0,-3.414352655E0
1.190885100E1,1.031192899E0,5.081002712E0,-2.908957720E0
1.192885100E1,5.335820317E-1,5.568071365E0,-2.393003464E0
1.194885100E1,3.302337527E-1,4.788118839E0,-1.943528891E0
1.196885100E1,2.917143404E-1,4.218286037E0,-1.543080449E0
1.198885100E1,2.099456489E-1,3.772651434E0,-1.000283122E0
1.200885100E1,-1.693492979E-1,3.562234402E0,-6.217735410E-1
1.202885100E1,-6.487737894E-1,3.286978483E0,-6.399249434E-1
1.204885100E1,-1.010999441E0,2.904664278E0,-7.785041332E-1
1.206888069E1,-1.170574903E0,2.825845242E0,-8.866272569E-1
1.209085256E1,-1.358250141E0,2.864643812E0,-7.313104272E-1
1.211285100E1,-1.832735300E0,2.684857368E0,-2.428276539E-1
1.213285100E1,-2.476639748E0,3.381942034E0,1.069712266E-1
1.215285100E1,-3.074868679E0,4.524329662E0,2.393369973E-1
1.217285100E1,-3.294361353E0,5.135456562E0,1.134114936E-1
1.219285100E1,-3.764675140E0,1.970441818E0,-2.500358820E-1
1.221285100E1,-3.644613981E0,3.443011045E-1,-5.093045235E-1
1.223285100E1,-2.941665173E0,-8.291361332E-1,-6.314077377E-1
1.225285100E1,-1.719079494E0,-1.740773916E0,-5.629559755E-1
1.227285100E1,-2.888170779E-1,-1.350588083E0,-5.287125707E-1
1.229285100E1,7.448366880E-1,-5.590813160E-1,-5.106135011E-1
1.231285100E1,1.370973587E0,-5.973913074E-1,-4.834736586E-1
1.233285100E1,1.709043860E0,-1.073761463E0,-5.525014400E-1
1.235285100E1,1.831461191E0,-1.690578222E0,-7.314849496E-1
1.237285100E1,1.817795277E0,-1.806049228E0,-1.025956869E0
1.239285100E1,1.974805117E0,-1.524300694E0,-1.002168059E0
1.241285100E1,2.040377140E0,-1.017771244E0,-5.478239655E-1
1.243285100E1,1.900139928E0,-4.593706504E-2,2.209586836E-2
1.245285100E1,1.663019538E0,5.791177154E-1,3.665889502E-1
1.247285100E1,1.295243740E0,1.024804950E0,3.758741021E-1
1.249285100E1,5.978276134E-1,1.271297812E0,8.953539282E-2
1.251285100E1,8.510225266E-2,8.688248992E-1,-2.106961459E-1
1.253285100E1,3.932924867E-1,9.770876765E-1,-2.702118754E-1
1.255285100E1,1.075890779E0,1.916790366E0,-1.571319848E-1
1.257285100E1,1.239271045E0,2.788372993E0,-6.452482194E-2
1.259285100E1,8.483172655E-1,2.376300573E0,-9.566149861E-2
1.261285100E1,6.677629799E-2,4.009370208E-1,-3.089756370E-1
1.263285100E1,-5.175075531E-1,-1.041961551E0,-5.587322712E-1
1.265285100E1,-8.524711728E-1,-8.697150350E-1,-3.190985322E-1
1.267285100E1,-9.349554181E-1,2.261946723E-2,9.098401666E-2
1.269285100E1,-8.099549413E-1,8.202174902E-1,2.255838066E-1
1.271285100E1,-5.862211585E-1,9.646958113E-1,1.416858286E-1
1.273285100E1,-2.459343374E-1,7.865326405E-1,6.770132482E-2
1.275285100E1,9.162978828E-2,7.899883986E-1,-5.078908056E-3
1.277285100E1,3.575132489E-1,1.121862769E0,-3.672172874E-2
1.279285100E1,-3.824016452E-1,1.081999421E0,2.377138473E-2
1.281285100E1,-8.110893965E-1,-8.588765562E-2,-2.818706818E-2
1.283285100E1,-2.270847857E-1,-4.475373328E-1,-1.033758521E-1
1.285285100E1,1.897696555E-1,-6.767863035E-1,-1.024508290E-2
1.287285412E1,1.524894089E-1,-1.057407737E0,1.667487621E-1
1.289485256E1,-6.347762793E-2,-1.353747129E0,2.969503105E-1
1.291485881E1,-2.665641308E-1,-1.487334728E0,3.011041880E-1
1.293486663E1,-4.404163957E-1,-1.806869507E0,1.045801267E-1
1.295685413E1,-5.147848725E-1,-1.884047985E0,-1.708502769E-1
1.297685413E1,-4.262966812E-1,-1.456197977E0,-2.440144867E-1
1.299685725E1,-2.417630106E-1,-9.497907162E-1,-2.212728411E-1
1.301885100E1,-9.225810319E-2,-1.103693843E0,-3.872885704E-1
1.303885725E1,5.934119690E-4,-1.401743770E0,-6.327865720E-1
1.306085256E1,2.977357209E-1,-1.043043613E0,-5.694136620E-1
1.308085412E1,7.274008989E-1,-3.504446447E-1,-2.458296269E-1
1.310285100E1,1.104374528E0,-1.564862132E-1,9.103637189E-2
1.312285100E1,1.127953887E0,-7.735997438E-1,1.022762954E-1
1.314285100E1,9.577843547E-1,-1.162965178E0,-2.284635976E-2
1.316285725E1,8.322079182E-1,-1.010475874E0,-1.816713214E-1
1.318485256E1,6.512172222E-1,-2.775247991E-1,-3.175801039E-1
1.320486663E1,3.133563995E-1,4.017398953E-1,-3.409326077E-1
1.322685100E1,-1.397310644E-1,8.053472638E-1,-1.909390241E-1
1.324685256E1,-4.121944010E-1,8.203047514E-1,7.332128286E-2
1.326885100E1,-3.277902901E-1,6.203773022E-1,2.178694457E-1
1.328885100E1,-6.817255914E-2,4.090179205E-1,1.227664575E-1
1.330885100E1,1.769240201E-1,1.578650326E-1,-2.586578019E-2
1.332885413E1,3.135134876E-1,1.413716702E-3,-4.352851212E-2
1.335087131E1,4.107806981E-1,8.217009902E-2,-1.438151300E-2
1.337285100E1,3.747920096E-1,3.130073547E-1,-3.279473633E-2
1.339285100E1,2.273989469E-1,4.281467199E-1,-2.956587821E-2
1.341285256E1,4.714134336E-2,4.179714620E-1,4.881685972E-2
1.343485100E1,-1.014210805E-1,4.508360028E-1,1.155582517E-1
1.345485100E1,-1.228537261E-1,6.756867766E-1,3.050835431E-2
1.347485100E1,-5.569345504E-2,1.173751354E0,9.529497474E-3
1.349486662E1,3.509857133E-2,1.496375442E0,-3.434807807E-2
1.351685412E1,1.518785506E-1,1.050129652E0,-2.230705321E-1
1.353885100E1,5.585228205E-1,8.784765601E-1,-1.518785506E-1
1.355885100E1,8.075987697E-1,1.191152334E0,2.346420586E-1
1.357885256E1,3.112794757E-1,4.603131413E-1,7.173478007E-1
1.359885256E1,-4.555309191E-3,-5.420818329E-1,5.052204728E-1
1.362085881E1,-4.319689795E-2,-1.048506498E0,2.580469251E-1
1.364285100E1,-2.270847857E-1,-1.626559615E0,2.967234254E-1
1.366285100E1,-4.155803323E-1,-1.650296092E0,3.479139209E-1
1.368285100E1,-5.446649194E-1,-1.229706645E0,3.547556102E-1
1.370285100E1,-6.077585220E-1,-5.881584883E-1,2.908242047E-1
1.372285100E1,-5.879316330E-1,4.691445082E-2,1.445481628E-1
1.374285100E1,-5.053077340E-1,4.055446982E-1,4.106759652E-2
1.376285100E1,-3.899938166E-1,4.410446882E-1,2.261946723E-2
1.378285100E1,-2.496518940E-1,2.575233281E-1,3.785619140E-2
1.380285569E1,-1.565385759E-1,-3.146828711E-2,4.954989627E-2
1.382485256E1,2.000147291E-2,-4.830198586E-1,2.342231758E-2
1.384486975E1,3.470936418E-1,-5.436351299E-1,7.682939619E-2
1.386685100E1,8.873079419E-1,2.402271181E-1,4.293335378E-1
1.388685413E1,1.281874537E0,9.624966979E-1,7.483099103E-1
1.390885100E1,1.380852103E0,1.011278629E0,6.516710520E-1
1.392885100E1,1.149822950E0,3.207391500E-1,4.011464715E-1
1.394885100E1,6.811496615E-1,-3.827157915E-1,9.461429715E-2
1.396885256E1,1.408306211E-1,-2.426531315E-1,8.791223168E-2
1.399085100E1,-2.743657529E-1,4.157025218E-1,3.506017327E-1
1.401085413E1,-4.995481372E-1,3.698003590E-1,2.460390627E-1
1.403285100E1,-5.399874449E-1,2.673844434E-2,-1.239881888E-1
1.405285100E1,-2.219186127E-1,1.822647303E-1,-2.603158653E-1
1.407285100E1,2.915747166E-1,6.864554286E-1,-7.880161703E-2
1.409285725E1,7.213969231E-1,9.765989780E-1,2.759889066E-1
1.411485100E1,6.694035530E-1,3.116808832E-1,2.325825691E-1
1.413485569E1,3.863635361E-1,3.830997646E-2,-9.908234328E-2
1.415685100E1,2.834414691E-2,6.117029786E-1,-4.009370208E-1
1.417685412E1,-7.897091508E-1,9.952216148E-1,-3.664144278E-1
1.419885100E1,-1.247369409E0,1.073935986E0,-3.134087622E-1
1.421885100E1,-8.813040257E-1,1.251558185E0,-2.698802650E-1
1.423885256E1,-1.729272157E-1,1.056168556E0,-1.883733869E-1
1.426085100E1,2.730393112E-1,3.897145689E-1,-1.028522551E-1
1.428085100E1,2.696882784E-1,-1.424188614E-1,1.213178337E-1
1.430085100E1,3.494149074E-2,-3.396759629E-1,2.388308495E-1
1.432085100E1,-2.342929989E-1,-3.222226799E-1,2.105390728E-1
1.434085100E1,-4.234517813E-1,-3.135134876E-1,7.410667837E-2
1.436085100E1,-4.327194691E-1,-2.526713014E-1,-8.377580345E-2
1.438085100E1,-2.843141258E-1,-1.588424146E-1,-1.319294423E-1
1.440085725E1,-1.017526910E-2,-2.518510073E-2,-9.819222242E-2
1.442285100E1,2.216219008E-1,-2.334552407E-1,-1.011592820E-1
1.444285256E1,2.552369535E-1,-6.183177829E-1,-9.943141043E-2
1.446485256E1,2.314830124E-1,-7.529699206E-1,6.293657422E-2
1.448485412E1,2.084097713E-1,-3.158522248E-1,3.244916201E-1
1.450685256E1,9.709266573E-2,1.299223155E-1,4.808731079E-1
1.452885100E1,-2.408903390E-1,-6.328564137E-2,2.595653534E-1
1.454885100E1,-2.871939242E-1,6.241297349E-2,2.205921561E-1
1.456885413E1,3.295181692E-2,3.895749450E-1,3.662398756E-1
1.459085569E1,3.792774975E-1,5.792224407E-1,6.325596571E-1
1.461285100E1,3.677059710E-1,2.865307033E-1,7.826405168E-1
1.463285256E1,1.208465993E-1,-2.480287403E-1,7.391644120E-1
1.465485100E1,-1.315105557E-1,-7.959399223E-1,4.709945619E-1
1.467485413E1,-1.531351954E-1,-8.213344812E-1,2.975088358E-1
1.469685100E1,-1.661553420E-2,-4.153883457E-2,4.788659811E-1
1.471685413E1,3.846705705E-2,8.244935274E-1,6.705729365E-1
1.473885256E1,1.996656694E-2,1.139665127E0,7.198086977E-1
1.476085256E1,5.433209985E-2,8.863130808E-1,6.109175682E-1
1.478288069E1,1.461887807E-1,4.707676470E-1,4.290019274E-1
1.480485256E1,1.725257933E-1,3.076142669E-1,2.780832946E-1
1.482685100E1,1.550201476E-1,3.871489465E-1,2.686585188E-1
1.484685100E1,1.402895600E-1,4.436452389E-1,2.366142869E-1
1.486685100E1,6.941174716E-2,3.467096686E-1,2.096489519E-1
1.488685100E1,1.953023486E-2,1.436231434E-1,2.197020501E-1
1.490685100E1,7.574729156E-3,-1.613731384E-1,1.634500772E-1
1.492685100E1,-1.605702937E-1,-8.659451008E-1,1.322785020E-1
1.494685100E1,-4.097509384E-1,-1.309817195E0,1.865582466E-1
1.496685100E1,-4.401022196E-1,-8.009665012E-1,2.580643892E-1
1.498685100E1,-2.803696990E-1,-3.789109737E-2,2.183930427E-1
1.500685256E1,-1.980250627E-1,2.221105993E-1,-6.630505621E-2
1.502885100E1,-1.819854826E-1,4.620584548E-1,-4.900361001E-1
1.504885100E1,-1.596627235E-1,9.538573623E-1,-5.444554687E-1
1.506886038E1,9.922196716E-2,1.275661111E0,-3.932924867E-1
1.509085256E1,3.389778435E-1,1.346818209E0,-2.696010172E-1
1.511284944E1,1.641133130E-1,6.013880968E-1,-5.696754456E-1
1.513285100E1,-1.498714238E-1,-3.190636337E-1,-9.868789911E-1
1.515285100E1,-3.805166781E-1,-6.621429920E-1,-1.262117386E0
1.517285100E1,-4.004483521E-1,-2.758492827E-1,-1.207453728E0
1.519285100E1,-2.886774540E-1,4.232074320E-1,-8.041778803E-1
1.521285100E1,-2.590417564E-1,8.146149516E-1,-3.889640868E-1
1.523285100E1,-2.632130980E-1,7.890633345E-1,-1.435184181E-1
1.525285100E1,-8.405505866E-2,6.504144073E-1,-2.015157193E-1
1.527285100E1,2.438748628E-1,7.731285095E-1,-4.085990191E-1
1.529285100E1,2.707529366E-1,5.937086344E-1,-5.266705751E-1
1.531285725E1,-2.093347907E-1,3.979350626E-2,-2.982244194E-1
1.533485100E1,-1.591740251E-1,4.420918971E-2,-1.338492930E-1
1.535487756E1,-2.021963894E-1,-2.071880400E-1,3.050835431E-2
1.537685100E1,-2.677335143E-1,-5.490805954E-2,2.240653634E-1
1.539685256E1,-3.410722315E-1,6.107081771E-1,9.559167922E-2
1.541885100E1,-7.415729165E-1,3.553141356E-1,-7.168067247E-2
1.543885100E1,-1.299502373E0,-5.926265717E-1,-1.943947673E-1
1.545885100E1,-1.736515284E0,-8.623497486E-1,-8.843583614E-2
1.547885881E1,-1.868497133E0,-8.415279388E-1,1.741838641E-2
1.550085100E1,-1.635722518E0,-8.599237204E-1,2.316051908E-2
1.552085881E1,-1.129873753E0,-1.219705939E0,-5.340707675E-2
1.554285100E1,-3.219957948E-1,-1.699950695E0,-3.431491852E-1
1.556285725E1,6.292610168E-1,-1.676772714E0,-3.665016890E-1
1.558485725E1,1.560237050E0,-1.219705939E0,8.726646192E-3
1.560685100E1,1.910018563E0,-1.067530632E0,3.411071599E-1
1.562685100E1,1.670803666E0,-1.075873256E0,5.755223036E-1
1.564685100E1,1.236373782E0,-1.080830097E0,7.487113476E-1
1.566685100E1,9.299986959E-1,-1.098597527E0,8.444252014E-1
1.568685725E1,7.375063300E-1,-1.165024757E0,7.115707397E-1
1.570885256E1,5.055345893E-1,-9.455146790E-1,3.788586259E-1
1.572886819E1,3.594854772E-1,-5.215044022E-1,1.273915768E-1
1.575087131E1,3.251723051E-1,-5.235987483E-4,2.686061710E-2
1.577285100E1,3.452959359E-1,3.013136387E-1,1.372177899E-1
1.579285256E1,3.144210577E-1,1.851270795E-1,3.487167954E-1
1.581485100E1,3.384367824E-1,-8.133234084E-2,3.825761676E-1
1.583485100E1,4.684289098E-1,-2.110801190E-1,1.875705272E-1
1.585486194E1,5.920156837E-1,-1.451764852E-1,-1.053829789E-1
1.587685881E1,5.260247588E-1,1.837831736E-2,-2.702991366E-1
1.589688069E1,3.486644328E-1,1.665218621E-1,-1.470265388E-1
1.591886038E1,2.674717009E-1,4.204148948E-1,1.183333248E-1
1.594085100E1,3.778463304E-1,6.772052050E-1,4.378333092E-1
1.596085100E1,5.704783201E-1,7.631277442E-1,4.945041239E-1
1.598085100E1,6.859318614E-1,4.476245940E-1,2.991494238E-1
1.600085100E1,7.702137828E-1,9.300859272E-2,1.366941929E-1
1.602085100E1,8.799426556E-1,2.063153684E-1,1.317898184E-1
1.604085100E1,7.848745584E-1,-2.591813803E-1,3.239331022E-2
1.606085100E1,4.791975915E-1,-1.259045601E0,-2.132966816E-1
1.608085100E1,2.747322619E-1,-1.051316500E0,-3.690673113E-1
1.610085100E1,2.904751599E-1,6.899286807E-2,-2.594431937E-1
1.612085100E1,3.021514118E-1,1.004140258E0,2.597049996E-2
1.614085100E1,-6.091198884E-3,8.070053458E-1,5.656611919E-2
1.616085100E1,-5.164952874E-1,5.916666240E-3,-2.287777513E-1
1.618085100E1,-8.383863568E-1,-3.770958483E-1,-3.880565166E-1
1.620085725E1,-9.806830287E-1,-2.598446310E-1,-3.831870258E-1
1.622285100E1,-9.741031528E-1,3.520678282E-1,-3.577750325E-1
1.624285725E1,-8.112988472E-1,7.256031632E-1,-4.351803958E-1
1.626485725E1,-6.915343404E-1,5.648059845E-1,-4.624424279E-1
1.628686663E1,-6.071651578E-1,4.129274487E-1,-2.621310055E-1
1.630885569E1,-6.277251244E-1,5.378929973E-1,-1.162389293E-1
1.633085100E1,-8.554556966E-1,3.517362177E-1,-2.538930476E-1
1.635087600E1,-1.128529906E0,8.431685716E-2,-4.291764498E-1
1.637285100E1,-1.286028385E0,-4.251622036E-2,-4.463155866E-1
1.639285725E1,-1.280408382E0,-2.289872058E-2,-3.219608963E-1
1.641485100E1,-1.077985168E0,-7.113961875E-2,-1.835911870E-1
1.643486662E1,-6.983411312E-1,-3.614576906E-2,-1.200088412E-1
1.645685100E1,-1.501681209E-1,7.728318125E-2,-1.014385372E-1
1.647685100E1,3.834663033E-1,1.014385372E-1,-1.073377505E-1
1.649685100E1,8.664163351E-1,-4.660028964E-3,-1.053306237E-1
1.651685100E1,1.243931055E0,-2.689377964E-1,2.864085324E-2
1.653685100E1,1.440333009E0,-1.627694070E-1,3.486469686E-1
1.655685100E1,1.427888751E0,-3.309318721E-1,7.942993641E-1
1.657685100E1,1.322435975E0,-6.250896454E-1,8.981289864E-1
1.659685100E1,1.314163089E0,1.931555867E-1,8.502720594E-1
1.661685725E1,1.324111462E0,1.194643021E0,7.975282073E-1
1.663885100E1,1.041717172E0,1.325978994E0,6.652322412E-1
1.665885256E1,4.906294942E-1,3.260624111E-1,4.290542901E-1
1.667885256E1,-8.744099736E-2,-5.818229318E-1,3.610911667E-1
1.669885881E1,-3.590840399E-1,-1.006129980E0,4.348487854E-1
1.672085100E1,-2.498613298E-1,-9.521468878E-1,2.599842548E-1
1.674085569E1,-5.061454605E-3,-3.005282283E-1,2.757620253E-2
1.676285100E1,1.384395212E-1,5.405459404E-1,2.996730246E-2
1.678285100E1,9.560913593E-2,7.817853093E-1,9.182177484E-2
1.680285100E1,1.371828746E-2,7.165274620E-1,1.258556992E-1
1.682285725E1,-4.921828397E-3,5.760459304E-1,2.372949570E-1
1.684485881E1,1.040914357E-1,6.223320365E-1,2.882760167E-1
1.686685100E1,2.537708580E-1,3.202679157E-1,3.953170776E-2
1.688685100E1,3.929085135E-1,-1.673596203E-1,-5.923647434E-2
1.690685100E1,4.204672575E-1,-4.523020685E-1,-3.954916075E-2
1.692685100E1,3.458893597E-1,-4.668581188E-1,1.623156248E-3
1.694685100E1,1.405339092E-1,-4.155105352E-1,7.208209950E-3
1.696685100E1,-2.238210291E-1,-4.873133898E-1,8.831365965E-3
1.698685100E1,-6.280218363E-1,-4.876275361E-1,4.131194204E-2
1.700685100E1,-9.622523785E-1,-4.792324901E-1,1.923352852E-2
1.702685100E1,-1.061596513E0,-3.967831433E-1,-4.756022245E-2
1.704685725E1,-9.154077172E-1,-2.722713538E-2,-6.181956083E-2
1.706885725E1,-6.860365868E-1,-3.585429788E-1,-2.886949182E-1
1.708887288E1,-5.871287584E-1,-1.150398850E0,-6.629458666E-1
1.711085100E1,-2.611187100E-1,-1.095316291E0,-6.444104910E-1
1.713085413E1,3.710395396E-1,-6.277949363E-2,-2.262644768E-1
1.715087131E1,8.511272669E-1,9.121439457E-1,2.442413718E-1
1.717087288E1,7.722558379E-1,2.324254960E-1,2.671226263E-1
1.719285100E1,2.637541592E-1,-1.136226773E0,-2.475225925E-1
1.721285100E1,6.304129213E-2,-1.188586712E0,-7.951719761E-1
1.723285100E1,1.411273181E-1,-2.825338840E-1,-1.086100936E0
1.725285100E1,1.421047002E-1,5.728170872E-1,-9.627236128E-1
1.727285256E1,-1.062556431E-1,7.994131446E-1,-7.076262832E-1
1.729285256E1,-3.802723289E-1,6.972590089E-1,-5.540547967E-1
1.731285569E1,-4.893554151E-1,6.159266829E-1,-4.710119963E-1
1.733485569E1,-3.282789886E-1,9.317091107E-1,-3.823318183E-1
1.735485881E1,-1.268156171E-1,1.379543185E0,-2.034006715E-1
1.737685100E1,1.311265826E-1,1.618513584E0,-1.584758982E-2
1.739685256E1,-6.635741889E-2,1.239375710E0,1.347394139E-1
1.741885256E1,-1.991944313E-1,2.185850292E-1,1.157502383E-1
1.744085100E1,1.199390292E-1,-8.602727950E-2,8.138470352E-2
1.746085256E1,3.850719929E-1,-4.014257342E-3,2.011666447E-1
1.748085725E1,3.886150122E-1,8.136724681E-2,4.214621186E-1
1.750285100E1,2.061408311E-1,9.356710315E-2,4.241499007E-1
1.752285100E1,-2.480112948E-2,-2.593559213E-2,3.036698401E-1
1.754285100E1,-1.384569705E-1,-8.562584966E-2,2.207841426E-1
1.756285725E1,-1.598547101E-1,-2.251998335E-1,2.312386781E-1
1.758485100E1,-1.463284045E-1,-6.394188404E-1,1.778141409E-1
1.760485256E1,3.317870945E-2,-3.769038618E-1,2.619564533E-1
1.762485256E1,2.367888242E-1,2.567204833E-1,4.925668240E-1
1.764485569E1,2.088635564E-1,1.927367151E-1,4.996004999E-1
1.766685100E1,1.268854365E-2,-5.400397778E-1,3.355919123E-1
1.768687756E1,7.885397226E-2,-8.095011711E-1,2.765823305E-1
1.770885100E1,3.003362417E-1,-7.032978535E-1,3.598170877E-1
1.772885412E1,3.395014405E-1,-5.216091275E-1,4.190186560E-1
1.775087131E1,1.790358722E-1,-2.193878889E-1,3.365692794E-1
1.777285100E1,-9.354964830E-3,9.402088821E-2,1.531526446E-1
1.779285100E1,-2.075022012E-1,6.979571283E-2,5.422737822E-2
1.781285100E1,-2.691297829E-1,-1.222777665E-1,1.074948311E-1
1.783285100E1,-1.629090309E-1,-2.168746144E-1,2.143962383E-1
1.785285256E1,6.627015024E-2,-4.649557173E-2,1.935570091E-1
1.787485256E1,1.918640435E-1,2.862688899E-1,4.799655639E-3
1.789485569E1,1.240056455E-1,3.025004566E-1,-1.250702888E-1
1.791685100E1,4.665265232E-2,1.833642870E-1,-1.683021039E-1
1.793685100E1,1.185776666E-1,1.849001795E-1,-1.852841526E-1
1.795685100E1,2.587799728E-1,2.680302262E-1,-1.272345036E-1
1.797686194E1,3.909886479E-1,3.148224950E-1,5.131267942E-3
1.799885100E1,4.602433145E-1,-4.220206290E-2,7.496189326E-2
1.801885100E1,3.930132389E-1,-5.985955596E-1,-4.162610322E-2
1.803885100E1,2.235417664E-1,-6.042504311E-1,-1.427155733E-1
1.805885100E1,4.876450077E-2,-1.125039235E-1,-3.314380348E-2
1.807885100E1,-1.707630157E-1,6.309365481E-2,-4.207988828E-2
1.809885100E1,-5.422388911E-1,-5.715778470E-1,-3.811798990E-1
1.811885413E1,-7.948229313E-1,-7.894298434E-1,-5.825385451E-1
1.814085100E1,-5.491504073E-1,-1.010545641E-1,-4.387059510E-1
1.816085412E1,-1.609019041E-1,8.876395226E-1,9.032078832E-2
1.818285100E1,5.480333790E-2,1.068281174E0,5.378755927E-1
1.820485412E1,-2.653424144E-1,-2.198765725E-1,1.774476171E-1
1.822685413E1,-5.503546596E-1,-1.065593362E0,-1.829105020E-1
1.824885100E1,-4.348313212E-1,-1.057180882E0,-4.807334840E-1
1.826885100E1,-3.163758218E-1,-3.593458235E-1,-6.314775944E-1
1.828885100E1,-5.014156103E-1,0.000000000E0,-6.333625317E-1
1.830885725E1,-9.299637675E-1,-3.088534772E-1,-4.935965538E-1
1.833085100E1,-1.348947525E0,-6.541668773E-1,-3.816511333E-1
1.835087756E1,-1.599681497E0,-8.670097589E-1,-3.313333094E-1
1.837285100E1,-1.563919783E0,-3.661526144E-1,-2.682571113E-1
1.839285100E1,-1.319940090E0,4.466122985E-1,-2.291966379E-1
1.841285569E1,-1.167311072E0,1.045731425E0,-1.891413331E-1
1.843485412E1,-1.372090578E0,7.243116386E-3,1.362927556E-1
1.845685100E1,-1.190105081E0,-2.820452116E-2,4.241499007E-1
1.847685100E1,-6.939079762E-1,5.241922140E-1,5.796587467E-1
1.849685100E1,-1.624726951E-1,6.047391295E-1,6.160837412E-1
1.851685256E1,2.849599123E-1,4.123689532E-1,3.079109788E-1
1.853885100E1,5.221326947E-1,5.689773336E-2,-2.707180083E-1
1.855885256E1,4.168195426E-1,-4.332605302E-1,-6.519153714E-1
1.858085100E1,2.052158117E-1,-7.801970840E-1,-5.689947605E-1
1.860085100E1,1.811128110E-1,-9.717993140E-1,-2.431592643E-1
1.862085100E1,3.181037009E-1,-9.113934636E-1,1.309695095E-1
1.864085412E1,5.036671162E-1,-5.951223373E-1,5.195496082E-1
1.866285100E1,6.612005234E-1,-3.226764798E-1,7.200879455E-1
1.868285256E1,5.608789921E-1,-5.790478587E-1,6.960198283E-1
1.870485725E1,2.491632104E-1,-1.207575798E0,5.937260985E-1
1.872685100E1,4.082325101E-2,-1.320865154E0,5.410695076E-1
1.874885881E1,-1.046324894E-1,-1.126767159E0,3.104417026E-1
1.876886194E1,-1.985311955E-1,-9.688497186E-1,-9.285151958E-3
1.879085725E1,-1.274090409E-1,-7.606668472E-1,-2.334028780E-1
1.881285100E1,1.333431602E-1,-2.860769033E-1,-2.637716234E-1
1.883285100E1,4.126656353E-1,7.132113576E-1,-1.329940930E-2
1.885285100E1,4.427202046E-1,1.576887488E0,6.784094572E-1
1.887285256E1,3.964166343E-1,2.484755516E0,1.272990823E0
1.889487756E1,1.927541643E-1,3.138102055E0,1.467594981E0
1.891487913E1,6.841690745E-3,2.381239891E0,1.352891922E0
1.893685100E1,-1.588249579E-3,1.783080697E0,1.199494958E0
1.895685725E1,1.661553383E-1,1.326485157E0,9.404357672E-1
1.897885100E1,5.245935917E-1,1.145529389E0,5.553113818E-1
1.899885100E1,6.041980982E-1,-1.988104582E-1,-9.168214351E-2
1.901885100E1,1.503426582E-1,-1.656195283E0,-5.571439862E-1
1.903885412E1,-2.128428966E-1,-2.073241711E0,-8.733103871E-1
1.906085100E1,-8.712683618E-2,-1.714367151E0,-1.148985147E0
1.908085100E1,1.028173491E-1,-1.244105577E0,-1.012465477E0
1.910085100E1,5.852089077E-2,-1.470125675E0,-9.427221417E-1
1.912085100E1,4.852015525E-3,-1.653804183E0,-1.056622267E0
1.914085100E1,1.398008764E-1,-1.186003566E0,-1.049169779E0
1.916085100E1,3.427652121E-1,-3.391349316E-1,-6.349333525E-1
1.918085725E1,3.584382534E-1,-5.468116701E-2,-1.909390241E-1
1.920285100E1,1.439896673E-1,-4.684114754E-1,-1.253495514E-1
1.922285100E1,6.848672032E-2,-4.715530574E-1,-3.413864076E-1
1.924485725E1,4.150392860E-2,-1.452812105E-1,-5.707575679E-1
1.926685100E1,-1.313185692E-1,1.166578084E-1,-5.968676805E-1
1.928687288E1,-3.052057326E-1,6.487388909E-2,-5.181184411E-1
1.930885256E1,-3.435331583E-1,-1.082802266E-1,-3.624525368E-1
1.933085569E1,-1.485798806E-1,-2.852391601E-1,-1.714611501E-1
1.935087288E1,1.204975322E-1,-2.411172390E-1,-1.123642996E-1
1.937087288E1,3.167423606E-1,6.471680850E-2,-6.159266829E-2
1.939285100E1,4.069584310E-1,4.087386429E-1,5.771803856E-2
1.941285725E1,3.369881809E-1,4.807334840E-1,1.098859310E-1
1.943485100E1,1.352804750E-1,2.865830660E-1,-4.801400751E-2
1.945485881E1,2.272418700E-2,2.248507738E-1,-5.853834376E-2
1.947685256E1,3.083996847E-2,-9.375908971E-2,-3.790855035E-2
1.949885100E1,2.262644768E-1,-8.211774379E-2,5.098106712E-2
1.951885100E1,4.014606476E-1,4.321435094E-2,1.129053459E-1
1.953885100E1,3.592585623E-1,1.248259470E-1,1.050862744E-1
1.955885100E1,2.205921561E-1,4.502600431E-1,5.633922666E-2
1.957885100E1,9.670869261E-2,6.665412188E-1,1.487893164E-1
1.959885100E1,-3.197443113E-2,2.491981089E-1,2.552194893E-1
1.961885100E1,-1.128180847E-1,-1.388409436E-1,1.503426582E-1
1.963885100E1,-2.701769583E-2,1.623854339E-1,1.197819486E-1
1.965885100E1,1.200262904E-1,7.234389782E-1,2.302438319E-1
1.967885100E1,1.028871611E-1,8.693833947E-1,4.536983371E-1
1.969885100E1,-1.792104095E-1,1.579173952E-1,3.760311902E-1
1.971885256E1,-3.315776587E-1,-6.273934841E-1,1.409353316E-1
1.974085100E1,-5.804964900E-2,-1.008608341E0,1.450543106E-1
1.976085100E1,3.381749988E-1,-8.388750553E-1,3.805166781E-1
1.978085100E1,5.029515028E-1,-3.976383507E-1,4.763701558E-1
1.980085256E1,3.303908408E-1,2.021440268E-1,4.717799425E-1
1.982284944E1,-8.412486874E-3,5.599365234E-1,5.990842581E-1
1.984285100E1,-3.282964230E-2,9.128770232E-1,7.297919989E-1
1.986285569E1,1.938537210E-1,1.341093540E0,9.151459336E-1
1.988485412E1,5.646489263E-1,1.345893145E0,8.863130808E-1
1.990485412E1,6.904696822E-1,6.609562039E-1,8.068482280E-1
1.992485569E1,7.124259472E-1,1.225221157E-1,7.110297084E-1
1.994685100E1,4.959702194E-1,-2.866005301E-1,5.054124594E-1
1.996685256E1,2.534916103E-1,-4.502251446E-1,1.445830762E-1
1.998885100E1,5.724680144E-3,-2.973866463E-1,-3.735353649E-1
2.000885100E1,-2.837730944E-1,-5.130220652E-1,-6.359106898E-1
2.002885256E1,-5.010316372E-1,-1.010091901E0,-5.145404935E-1
2.005088850E1,-4.130147099E-1,-1.241400361E0,-3.867475092E-1
2.007285100E1,3.558726236E-2,-6.127676368E-1,-2.675065994E-1
2.009285256E1,1.787566245E-1,-5.193750858E-1,-2.665641308E-1
2.011485100E1,-3.811798990E-2,-7.402814031E-1,-6.016324162E-1
2.013485569E1,-5.935864896E-2,-3.011391163E-1,-8.856498599E-1
2.015685100E1,8.546877652E-2,5.390623808E-1,-7.114136815E-1
2.017885100E1,1.444783509E-1,5.555732250E-1,-3.075095713E-1
2.019885100E1,9.430013597E-2,1.182460561E-1,-2.887472808E-1
2.021885100E1,-1.736602560E-2,-4.264712036E-1,-3.896098435E-1
2.023885100E1,-4.197516665E-2,-5.743005872E-1,-4.819726646E-1
2.025885569E1,-6.876597553E-2,-6.176022291E-1,-5.494819880E-1
2.028085100E1,-1.185253114E-1,-6.873455644E-1,-5.393765569E-1
2.030085725E1,-1.292765439E-1,-6.580066085E-1,-4.630533159E-1
2.032285100E1,-7.148868591E-2,-6.680596471E-1,-3.740938604E-1
2.034285569E1,2.104867063E-2,-5.783323050E-1,-2.291791886E-1
2.036485256E1,2.105914205E-1,-4.148124158E-1,-5.358160660E-2
2.038485881E1,4.356167316E-1,-2.247984111E-1,6.473426521E-2
2.040685100E1,6.447770000E-1,6.387905218E-3,6.681120396E-2
2.042685100E1,6.593679190E-1,2.486047000E-1,1.363102160E-2
2.044685100E1,5.087110996E-1,5.184500813E-1,-3.071779385E-3
2.046685725E1,2.559525371E-1,5.977403522E-1,6.766641140E-2
2.048885100E1,-1.139700040E-2,5.991191864E-1,2.294758856E-1
2.050885881E1,-3.087487444E-2,7.660948038E-1,2.268579006E-1
2.053085100E1,2.535963356E-1,1.514195323E0,2.958682179E-1
2.055087444E1,3.732735515E-1,1.371305227E0,5.203175545E-1
2.057285100E1,4.330860078E-1,1.261907935E0,7.485193610E-1
2.059285100E1,3.482280970E-1,8.007745147E-1,7.070503235E-1
2.061485100E1,2.154608965E-1,4.066966176E-1,3.859795630E-1
2.063485256E1,2.501056790E-1,5.031434894E-1,8.513715863E-2
2.065685413E1,3.111223876E-1,9.533511996E-1,-8.499753661E-3
2.067885100E1,7.363544405E-2,3.014183640E-1,2.366666496E-2
2.069885569E1,-2.684316337E-1,-1.010196567E0,-5.277875811E-2
2.072085100E1,-2.672099173E-1,-1.622737288E0,-3.013311028E-1
2.074085569E1,-4.010766745E-2,-1.313395143E0,-4.808556736E-1
2.076284944E1,6.127851084E-2,-5.761157274E-1,-3.849498332E-1
2.078285100E1,-6.421066076E-2,6.501351297E-2,-1.477770209E-1
2.080285100E1,-3.055722415E-1,5.966582298E-1,7.295475900E-2
2.082285725E1,-5.322905183E-1,9.114981890E-1,2.199289352E-1
2.084485256E1,-6.943618059E-1,1.074128032E0,1.661204398E-1
2.086487131E1,-6.423160434E-1,1.003058195E0,1.785122752E-1
2.088685100E1,-4.538903236E-1,6.854954958E-1,2.090729922E-1
2.090685725E1,-3.037745655E-1,4.618664682E-1,1.999798268E-1
2.092885100E1,-4.166799188E-1,8.723155409E-2,2.944195867E-1
2.094885725E1,-8.269718885E-1,-1.601566434E0,-1.694714651E-2
2.096886038E1,-7.943167686E-1,-1.624639750E0,-3.918438554E-1
2.099085100E1,-5.297772288E-1,-8.634492755E-1,-5.062327385E-1
2.101085100E1,-5.446997881E-1,-5.292885303E-1,-5.558524728E-1
2.103085100E1,-7.670722008E-1,-6.960198283E-1,-3.374070525E-1
2.105088694E1,-5.669353008E-1,-4.241673648E-1,-1.129577085E-1
2.107285413E1,-1.636246145E-1,7.505614161E-1,-2.138028294E-2
2.109485100E1,-2.668608427E-1,6.507111192E-1,-2.160019428E-1
2.111485881E1,-5.962393880E-1,-1.015083492E-1,-6.691069007E-1
2.113685100E1,-5.328664780E-1,-6.213546395E-1,-7.642621994E-1
2.115685100E1,-7.529350370E-2,-6.638708711E-1,-4.318642616E-1
2.117685100E1,2.020567656E-1,4.363323003E-2,-1.738871485E-1
2.119685412E1,-1.643052995E-1,-8.635714650E-1,-3.146654069E-1
2.121885100E1,-4.082325101E-1,-5.648234487E-1,-3.011565506E-1
2.123885412E1,-3.588745892E-1,1.225395650E-1,-3.230953515E-1
2.126085100E1,-3.966958821E-1,4.545535445E-1,-5.145754218E-1
2.128085256E1,-3.825761676E-1,6.448642612E-1,-4.731762111E-1
2.130285256E1,-2.774899006E-1,9.136449695E-1,-3.636393547E-1
2.132285256E1,-1.237787530E-1,9.887813926E-1,-2.150071114E-1
2.134486038E1,1.026428118E-1,8.621402979E-1,3.160791099E-2
2.136685256E1,2.628989518E-1,3.483153582E-1,2.443984598E-1
2.138685881E1,4.180936217E-1,-1.125388294E-1,2.484476119E-1
2.140885100E1,3.475299478E-1,-9.704554081E-1,-2.689377964E-1
2.142886506E1,1.733286530E-1,-1.391114712E0,-6.855478883E-1
2.145087756E1,4.344299138E-1,-5.709320903E-1,-4.007275999E-1
2.147285100E1,6.609736681E-1,3.940778971E-1,3.929783404E-1
2.149285256E1,5.197415948E-1,3.984062970E-1,7.608413696E-1
2.151285412E1,6.550744176E-1,6.190682650E-1,6.746395826E-1
2.153485256E1,9.748710990E-1,1.099016428E0,5.118876100E-1
2.155485569E1,1.185078502E0,1.723931551E0,5.533915162E-1
2.157685256E1,1.103362203E0,2.144957304E0,6.294006109E-1
2.159885256E1,7.165274620E-1,1.244018316E0,6.592981219E-1
2.162086038E1,3.397108912E-1,-9.813986719E-2,5.427450538E-1
2.164285100E1,-6.578145921E-2,-8.044222593E-1,1.093623340E-1
2.166285100E1,-5.691344142E-1,-1.496427894E0,-3.007900417E-1
2.168285100E1,-7.769333124E-1,-1.969220042E0,-5.887519121E-1
2.170285881E1,-6.175847650E-1,-1.857396841E0,-5.166348815E-1
2.172485412E1,-3.073524833E-1,-1.286604404E0,-1.850398034E-1
2.174487131E1,-1.583537161E-1,-3.636567891E-1,3.022212088E-1
2.176685100E1,6.904522330E-2,8.344244361E-1,7.160387635E-1
2.178688381E1,2.344326228E-1,1.476949930E0,8.116478920E-1
2.180885100E1,2.780483961E-1,1.559870601E0,6.790552735E-1
2.182885100E1,3.151192069E-1,1.386873484E0,6.026796699E-1
2.184885100E1,2.522698939E-1,8.512145281E-1,7.053748369E-1
2.186885569E1,7.068583369E-2,3.630982935E-1,5.444380045E-1
2.188885725E1,-5.450837612E-1,-3.350159526E-1,5.016076192E-2
2.191085881E1,-1.248137355E0,-1.255903959E0,-4.977504611E-1
2.193285100E1,-1.321545839E0,-1.172023535E0,-4.817981422E-1
2.195285569E1,-1.013949037E0,-2.741737664E-1,-1.368163526E-1
2.197485256E1,-4.864232540E-1,8.520697355E-1,2.045874894E-1
2.199486350E1,-8.901178837E-3,1.099539995E0,5.409647822E-1
2.201685100E1,4.425456822E-1,1.255275726E0,4.401720464E-1
2.203685100E1,7.681368589E-1,1.097864509E0,2.090031803E-1
2.205685100E1,8.049807549E-1,1.338719845E0,2.412045002E-2
2.207685412E1,3.461337090E-1,9.978047013E-1,-3.397108912E-1
2.209885100E1,-2.963045537E-1,1.490336657E-1,-1.095927119E0
2.211885100E1,-7.601781487E-1,2.314830124E-1,-1.549817443E0
2.213885100E1,-1.195672750E0,-4.229805470E-1,-1.398741722E0
2.215885412E1,-1.391952395E0,-1.109697819E0,-1.182600141E0
2.218085881E1,-1.215150595E0,-1.448413849E0,-9.757263064E-1
2.220285100E1,-8.098851442E-1,-5.714382529E-1,-8.143880963E-1
2.222285100E1,-5.232846141E-1,1.874832660E-1,-8.081048727E-1
2.224285725E1,-4.373271465E-1,4.103443623E-1,-6.377782226E-1
2.226487131E1,-2.806489468E-1,5.717872977E-1,-3.165329099E-1
2.228686506E1,-9.808750823E-3,1.018521786E0,7.483971864E-2
2.230886038E1,1.036725566E-2,1.248207092E0,7.459536940E-2
2.233085100E1,-1.550026834E-1,1.066972136E0,1.108633131E-1
2.235087444E1,-3.347192407E-1,6.131690741E-1,2.224422097E-1
2.237285100E1,-5.198637843E-1,5.433210135E-1,3.570594490E-1
2.239285100E1,-7.864802480E-1,2.558303475E-1,2.528982162E-1
2.241285100E1,-8.033576012E-1,-1.120501384E-1,-1.373574138E-2
2.243285881E1,-5.265658498E-1,4.773300886E-1,-8.702211827E-2
2.245485100E1,-3.281393647E-1,1.509430528E0,2.676811516E-1
2.247485569E1,-3.888069987E-1,2.411783218E0,5.551368594E-1
2.249485569E1,-6.092420816E-1,2.907317162E0,6.719517708E-1
2.251486038E1,-8.241444826E-1,2.869321346E0,9.501223564E-1
2.253685100E1,-8.056265116E-1,1.581006527E0,1.184572458E0
2.255685100E1,-4.544139206E-1,-1.757372022E-1,8.535358310E-1
2.257685100E1,-1.402197480E-1,-1.298524886E-1,1.257509738E-1
2.259685100E1,2.296504229E-1,1.370886326E0,-3.686833382E-1
2.261685881E1,2.439097613E-1,2.096070528E0,-6.901555657E-1
2.263885100E1,-5.842838883E-1,5.030911565E-1,-5.322032571E-1
2.265885100E1,-6.459289193E-1,-8.260468841E-1,-2.532647252E-1
2.267885100E1,4.934394956E-1,-2.323085546E0,4.701916873E-2
2.269885256E1,1.865774393E0,-3.985127687E0,3.044552207E-1
2.272085100E1,2.201558352E0,-5.707819939E0,5.899212882E-2
2.274085725E1,2.103278875E0,-6.246131897E0,-3.406358957E-1
2.276284944E1,2.562038660E0,-4.892035484E0,-2.802126110E-1
2.278288225E1,2.819701672E0,-3.186726809E0,-1.498190612E-1
2.280485725E1,2.634993315E0,-2.275891781E0,-2.586403489E-1
2.282685100E1,2.157890081E0,-1.723495126E0,-5.145928860E-1
2.284685100E1,1.290793180E0,-3.554886580E-1,-7.013081908E-1
2.286685256E1,5.007000566E-1,-2.785545401E-2,-6.856176853E-1
2.288886663E1,5.803219602E-2,-4.667359591E-1,-4.497189820E-1
2.291085100E1,-7.417649031E-2,-2.143264376E-2,-6.524040550E-2
2.293085881E1,-1.365371048E-1,7.661995478E-3,3.022910282E-2
2.295087131E1,-2.282192558E-1,-8.420690298E-1,-1.229409948E-1
2.297285725E1,-4.205719829E-1,-1.382370591E0,-2.158099562E-1
2.299485412E1,-8.551240563E-1,-1.482168555E0,-2.559525371E-1
2.301485725E1,-1.227507472E0,-1.099278212E0,-4.404687285E-1
2.303685100E1,-1.425166011E0,5.087634921E-2,-8.157843351E-1
2.305685100E1,-1.511751890E0,4.823042750E-1,-1.097271085E0
2.307685100E1,-1.774162054E0,-7.572983950E-2,-1.350989580E0
2.309685100E1,-1.330202699E0,-2.330014557E-1,-1.426317930E0
2.311685100E1,-2.807013094E-1,5.306149721E-1,-1.138862252E0
2.313685100E1,1.240929123E-2,5.087983608E-1,-2.676287889E-1
2.315685100E1,-6.816034317E-1,2.197369561E-2,4.434881732E-2
2.317685100E1,-1.168777227E0,2.269277126E-1,-5.392194986E-1
2.319685100E1,-1.010039449E0,6.346540451E-1,-8.801869750E-1
2.321685100E1,-7.523765564E-1,4.661948979E-1,-9.009040594E-1
2.323685100E1,-7.364940643E-1,2.221978605E-1,-8.932420611E-1
2.325685100E1,-7.513642311E-1,6.370452046E-2,-8.271638751E-1
2.327685100E1,-4.825311899E-1,-8.623671532E-2,-7.282909751E-1
2.329685100E1,1.944994926E-1,1.598023474E-1,-5.627290606E-1
2.331685100E1,8.989143968E-1,4.419871867E-1,-4.644495547E-1
2.333685100E1,1.246165037E0,-9.375908971E-2,-4.665265083E-1
2.335685100E1,1.360204935E0,-1.221363902E0,-3.926467299E-1
2.337685100E1,1.357464671E0,-2.211070299E0,-2.202605456E-1
2.339685100E1,1.166455865E0,-2.365270138E0,-4.836307466E-2
2.341685100E1,6.148271561E-1,-1.394168973E0,2.657612860E-1
2.343685100E1,1.744805574E-1,-4.569795430E-1,5.058487654E-1
2.345685100E1,-1.648463458E-1,3.671125472E-1,2.491457462E-1
2.347685100E1,-6.002536416E-1,7.766016722E-1,-7.890633494E-2
2.349685100E1,-1.264002323E0,6.043900847E-1,-3.629063070E-1
2.351685100E1,-1.694260955E0,5.187293291E-1,-6.229079962E-1
2.353685100E1,-1.556502104E0,1.173925877E0,-4.772951901E-1
2.355685100E1,-1.229968429E0,1.793046594E0,5.394812673E-2
2.357685100E1,-8.526282310E-1,1.645234585E0,3.266732693E-1
2.359685100E1,-1.601165086E-1,9.192299843E-1,3.620859981E-1
2.361685256E1,7.849967480E-1,2.545388043E-1,3.781954050E-1
2.363885100E1,5.557128191E-1,-3.034429550E-1,2.999871969E-1
2.365885100E1,-1.650784731E0,-1.003616691E0,1.586678773E-1
2.367885256E1,-2.806157827E0,-1.787496448E0,-1.845511198E-1
2.370085100E1,-2.441767931E0,-3.412066221E0,-3.678281307E-1
2.372085100E1,-1.709741950E0,-3.909101248E0,-3.542494774E-1
2.374085100E1,-7.650301456E-1,-3.622884750E0,-2.802475095E-1
2.376085100E1,2.823768258E-1,-3.191404343E0,-3.529928327E-1
2.378085256E1,9.844704270E-1,-2.885203838E0,-5.197765231E-1
2.380285256E1,1.184345484E0,-2.595165014E0,-5.098106861E-1
2.382485256E1,9.650972486E-1,-2.851065159E0,-3.649832606E-1
2.384685100E1,4.457570985E-2,-3.062267542E0,-1.919862181E-1
2.386685256E1,-9.136624336E-1,-3.405137300E0,5.438445881E-2
2.388885256E1,-1.504962444E0,-4.052864075E0,3.521027267E-1
2.391085256E1,-1.801109910E0,-4.199750900E0,9.779080003E-2
2.393285100E1,-2.291233301E0,-3.703623533E0,-3.046821356E-1
2.395285100E1,-2.893406868E0,-3.619184494E0,-3.694163859E-1
2.397285100E1,-3.554973841E0,-4.141648769E0,-1.334827840E-1
2.399285100E1,-3.922383070E0,-4.707048416E0,2.321985960E-1
2.401285256E1,-3.847508430E0,-4.651511669E0,6.210579872E-1
2.403485100E1,-3.536036968E0,-4.025113106E0,7.628136277E-1
2.405485256E1,-3.455123663E0,-3.359950781E0,2.437177747E-1
2.407685256E1,-3.308341503E0,-2.895518780E0,-8.141960949E-2
2.409885256E1,-2.768458605E0,-2.394679070E0,5.918411538E-2
2.412085100E1,-2.352389574E0,-2.445118904E0,3.374594152E-1
2.414085100E1,-2.003742695E0,-2.261894226E0,4.576427937E-1
2.416085100E1,-1.710562229E0,-1.469235659E0,3.120997846E-1
2.418085100E1,-1.575369120E0,-5.023406744E-1,3.152064681E-1
2.420085100E1,-1.165321469E0,2.043955028E-1,4.140968025E-1
2.422085100E1,-4.555483758E-1,3.424510658E-1,3.481757343E-1
2.424085256E1,4.238182902E-1,-6.508332491E-2,7.593927532E-2
2.426085256E1,1.166700244E0,-5.228133798E-1,-9.808750451E-2
2.428085256E1,1.465256214E0,-7.491127849E-1,-9.213592857E-2
2.430085256E1,1.268365622E0,-7.167019844E-1,3.440044075E-2
2.432085256E1,7.751531005E-1,-7.203148603E-1,1.550201476E-1
2.434085256E1,3.422416151E-1,-6.424556971E-1,2.051809132E-1
2.436285256E1,1.478119344E-1,-4.869643152E-1,1.672548950E-1
2.438285256E1,1.158724055E-1,-3.562566042E-1,1.356469840E-1
2.440285256E1,2.280621678E-1,-2.809107304E-1,-3.080506064E-2
2.442285256E1,5.337566137E-1,-2.579945624E-1,-2.697057426E-1
2.444285256E1,9.373639822E-1,-2.361081392E-1,-3.698527217E-1
2.446285256E1,1.332995176E0,-2.330189049E-1,-3.783175647E-1
2.448285256E1,1.660069942E0,-1.745329238E-2,-3.591538668E-1
2.450285256E1,1.930595994E0,3.863984346E-1,-4.314279258E-1
2.452285256E1,2.089839697E0,6.493322849E-1,-4.217588007E-1
2.454285256E1,2.316278696E0,6.246358752E-1,-2.883109450E-1
2.456285256E1,2.728560448E0,6.306747198E-1,-2.716255784E-1
2.458285256E1,2.994950056E0,1.541998386E-1,-3.962944448E-1
2.460285256E1,3.257552385E0,-3.256609738E-1,-5.699198246E-1
2.462285256E1,3.734131813E0,-4.318991899E-1,-7.827976346E-1
2.464285256E1,4.394197941E0,-1.632930040E-1,-1.131235123E0
2.466486506E1,4.937675953E0,1.264316440E-1,-1.586539149E0
2.468685725E1,4.926784992E0,8.567821234E-2,-1.901239514E0
2.470885100E1,4.584194660E0,1.149648353E-1,-2.050884008E0
2.472885100E1,4.025723934E0,3.668507636E-1,-2.063834429E0
2.474885256E1,3.577418804E0,6.053848863E-1,-2.024808884E0
2.477085413E1,3.215455055E0,4.683416486E-1,-1.761770248E0
2.479285256E1,2.838516235E0,1.413891166E-1,-1.588563800E0
2.481285256E1,2.482800722E0,-1.066396199E-2,-1.695796847E0
2.483285256E1,2.040673971E0,-1.355073601E-1,-1.956740975E0
2.485485100E1,1.413175583E0,-3.136880398E-1,-2.114832878E0
2.487485256E1,8.417897224E-1,-2.151467353E-1,-2.123210430E0
2.489486819E1,4.176398218E-1,9.962339699E-2,-2.071985006E0
2.491685256E1,2.328792810E-1,4.487939477E-1,-1.926215172E0
2.493885100E1,1.740093231E-1,2.973866463E-1,-1.390887737E0
2.495885100E1,4.189837277E-1,-5.124286562E-2,-5.608441234E-1
2.497885100E1,1.028086185E0,-4.352676570E-1,3.521725237E-1
2.499885100E1,1.889091969E0,-6.614797711E-1,1.072469950E0
2.501885100E1,2.278736830E0,-1.021209598E0,1.523375750E0
2.503885100E1,1.867746592E0,-1.406909943E0,1.592368603E0
2.505885100E1,6.358059645E-1,-1.149630904E0,1.291438937E0
2.507885100E1,-9.859015942E-1,-4.174304008E-1,1.175008059E0
2.509885256E1,-2.310327291E0,2.878920734E-1,1.426003814E0
2.512085100E1,-3.102619410E0,5.025151968E-1,1.802698255E0
2.514085100E1,-3.367734909E0,4.110948443E-1,2.145253897E0
2.516085100E1,-3.372709036E0,5.173854232E-1,2.411643505E0
2.518085100E1,-3.222226858E0,7.493221760E-1,2.427089691E0
2.520085100E1,-2.976484537E0,7.890982628E-1,2.247460365E0
2.522085100E1,-2.710112333E0,6.143209934E-1,2.148168802E0
2.524085100E1,-2.325651169E0,2.430545539E-1,2.208626986E0
2.526085100E1,-1.860922456E0,-2.710845470E-1,2.247338295E0
2.528085100E1,-1.595510125E0,-1.161656260E0,2.109666824E0
2.530085100E1,-1.539485097E0,-1.788735628E0,1.957543850E0
2.532085100E1,-1.727439642E0,-1.408166528E0,2.137347698E0
2.534085100E1,-2.120033979E0,-4.897742867E-1,2.506310225E0
2.536085100E1,-2.519731760E0,6.243042648E-2,2.867855310E0
2.538085100E1,-2.758056641E0,3.979176283E-1,3.116442442E0
2.540085100E1,-2.953516006E0,4.884129465E-1,3.017901182E0
2.542085100E1,-2.988265514E0,4.784820080E-1,2.661417723E0
2.544085100E1,-2.824082375E0,7.032455206E-1,2.005505562E0
2.546085100E1,-2.577083349E0,1.131462097E0,1.247247219E0
2.548085100E1,-2.416582823E0,1.150049806E0,8.635365367E-1
2.550085100E1,-2.113628626E0,9.555677772E-1,5.739864111E-1
2.552285100E1,-1.268732190E0,1.020616174E0,2.821499407E-1
2.554485725E1,-5.305800959E-2,9.001884460E-1,3.036698401E-1
2.556485881E1,1.247997642E0,6.033777595E-1,1.912531853E-1
2.558685256E1,2.303642511E0,-2.142566144E-1,-3.485073447E-1
2.560885256E1,3.076125383E0,-7.853632569E-1,-1.145302534E0
2.563085100E1,3.688317060E0,-6.962118149E-1,-1.786292076E0
2.565086975E1,3.983696461E0,-4.000120163E-1,-1.843538880E0
2.567285100E1,4.096654415E0,-2.491632104E-1,-1.769746423E0
2.569285100E1,4.001027584E0,-6.199409366E-1,-2.082020760E0
2.571285100E1,3.894702196E0,-7.095461488E-1,-2.747706652E0
2.573285100E1,3.762039661E0,-6.066240668E-1,-3.418000460E0
2.575285100E1,3.536002159E0,-2.720444798E-1,-3.947480917E0
2.577285100E1,3.209939718E0,9.279915690E-2,-4.018062115E0
2.579285100E1,2.848534346E0,-4.009021446E-2,-3.634334087E0
2.581285100E1,2.535823822E0,-4.900884628E-2,-3.205209970E0
2.583285100E1,2.321392536E0,1.037947312E-1,-3.250466347E0
2.585285100E1,2.028212309E0,2.049540132E-1,-3.246399641E0
2.587285100E1,1.672461748E0,1.194677874E-1,-2.891766310E0
2.589285100E1,1.400591850E0,-3.555235639E-2,-2.431610107E0
2.591285100E1,1.178219438E0,-3.235840499E-1,-2.084952831E0
2.593285100E1,9.444500208E-1,-4.981867671E-1,-1.773813009E0
2.595285100E1,8.425576687E-1,-6.088755727E-1,-1.226652265E0
2.597285100E1,7.888713479E-1,-6.728767753E-1,-5.834286809E-1
2.599285100E1,6.646562815E-1,-6.193824410E-1,-2.611012459E-1
2.601285100E1,4.497888088E-1,-7.395657897E-1,-3.505842984E-1
2.603285100E1,2.009921223E-1,-1.282188654E0,-1.203928143E-1
2.605285100E1,-4.335572422E-1,-1.559207320E0,4.031535983E-1
2.607285100E1,-1.491663098E0,-1.236478448E0,9.535781145E-1
2.609285256E1,-2.598062277E0,-6.554060578E-1,1.354427814E0
2.611485100E1,-3.291010380E0,-1.413018554E-1,1.563465953E0
2.613486194E1,-3.210096836E0,-1.097462997E-1,1.821216106E0
2.615685100E1,-2.610890388E0,-1.380904466E-1,2.135689497E0
2.617685100E1,-2.074079514E0,-1.906074136E-1,2.206986189E0
2.619685100E1,-1.607640266E0,-3.532371819E-1,2.109910965E0
2.621685100E1,-1.226652265E0,-4.498935342E-1,2.014546394E0
2.623685725E1,-1.007089853E0,-5.280842781E-1,1.979098678E0
2.625885100E1,-7.415205836E-1,-4.845557511E-1,1.830291867E0
2.627885100E1,-6.391221285E-1,-3.743905723E-1,1.690473557E0
2.629885100E1,-7.747341990E-1,-3.413864076E-1,1.609019041E0
2.631885100E1,-1.129559636E0,-2.342929989E-1,1.574897885E0
2.633885100E1,-1.461137295E0,-1.659633517E-1,1.670070648E0
2.635885100E1,-1.377937436E0,-1.590169519E-1,1.911345005E0
2.637885100E1,-9.441358447E-1,-2.247285992E-1,2.045665503E0
2.639885100E1,-6.377258301E-1,-7.233691812E-1,1.879335642E0
2.641885100E1,-1.029482484E0,-8.885994554E-1,1.692602873E0
2.643885100E1,-1.575578570E0,-6.479709148E-1,1.762904763E0
2.645885100E1,-1.961610436E0,-4.040611684E-1,1.692166567E0
2.647885100E1,-2.157069921E0,-6.955137104E-2,1.407852411E0
2.649885100E1,-1.997599125E0,7.264060527E-2,8.688772321E-1
2.651885100E1,-1.418237090E0,1.291543692E-1,4.828453362E-1
2.653885100E1,-5.585402846E-1,2.867401540E-1,1.384220570E-1
2.655885100E1,2.001892626E-1,1.041787043E-1,-2.937563658E-1
2.657885100E1,7.697774768E-1,7.670722157E-2,-6.928433776E-1
2.659885256E1,1.376104832E0,2.126160115E-1,-9.522865415E-1
2.662085100E1,2.132757425E0,4.062951803E-1,-1.080027223E0
2.664085256E1,2.698785067E0,4.649731517E-1,-1.232394457E0
2.666285569E1,3.060836315E0,2.979277074E-1,-1.645060062E0
2.668485100E1,3.072564840E0,3.445628881E-1,-2.211908102E0
2.670485100E1,2.995909929E0,2.740516067E-1,-2.554865360E0
2.672485569E1,2.768493652E0,3.279822767E-1,-2.618988752E0
2.674685100E1,2.477791548E0,4.236961305E-1,-2.540431499E0
2.676685100E1,2.217144012E0,3.847054839E-1,-2.551112890E0
2.678687131E1,1.955397129E0,2.817136049E-1,-2.410596371E0
2.680885100E1,1.920298457E0,-7.606144994E-2,-2.124275208E0
2.682885100E1,1.981943488E0,-3.717202246E-1,-1.823258162E0
2.684885100E1,1.947857261E0,-6.161884665E-1,-1.682043552E0
2.686885725E1,1.761752844E0,-8.256803751E-1,-1.630940318E0
2.689085100E1,1.476932526E0,-8.778133392E-1,-1.438133836E0
2.691085100E1,1.238433242E0,-7.265630960E-1,-1.052136779E0
2.693085100E1,1.008730531E0,-6.026447415E-1,-5.478588343E-1
2.695087600E1,6.837502122E-1,-4.383394420E-1,-7.103490178E-3
2.697285100E1,3.179989755E-1,-2.961998284E-1,4.381474555E-1
2.699285100E1,1.937489957E-1,-4.976980984E-1,8.340055943E-1
2.701285100E1,5.841616914E-2,-7.847698331E-1,1.323326111E0
2.703285100E1,-4.111297429E-1,-8.166046739E-1,1.725380182E0
2.705285100E1,-1.119890451E0,-4.432263672E-1,2.075004578E0
2.707285100E1,-1.681380391E0,-8.726646192E-3,2.044443846E0
2.709285256E1,-1.893961430E0,3.041934371E-1,2.015576124E0
2.711485256E1,-1.600746155E0,3.808657527E-1,2.269957781E0
2.713485256E1,-1.138600469E0,2.544341087E-1,2.387523174E0
2.715685100E1,-9.994453192E-1,3.254864514E-1,2.141187429E0
2.717685100E1,-9.528101683E-1,5.195845366E-1,1.789451122E0
2.719685100E1,-6.905046105E-1,4.248131514E-1,1.752345443E0
2.721685256E1,-3.459766209E-1,2.047620267E-1,1.816172123E0
2.723885100E1,-2.341359109E-1,1.123992056E-1,1.760147095E0
2.725885100E1,-3.971147537E-1,1.010720134E-1,1.672496676E0
2.727885100E1,-6.956358552E-1,1.215970889E-1,1.541946054E0
2.729885100E1,-9.297892451E-1,5.298819765E-2,1.531177402E0
2.731885256E1,-9.753597975E-1,-7.691665739E-2,1.694505215E0
2.734085256E1,-8.521220684E-1,-1.245641485E-1,1.883698940E0
2.736285413E1,-6.228556633E-1,-3.088534772E-1,1.873104811E0
2.738485100E1,-4.855680466E-1,-5.317145586E-1,1.658603787E0
2.740485569E1,-5.110498667E-1,-4.450764060E-1,1.324460506E0
2.742685100E1,-7.424281836E-1,-1.897347420E-1,9.526181817E-1
2.744685100E1,-9.060004354E-1,6.223843992E-2,6.376734972E-1
2.746685100E1,-9.902648926E-1,3.750887215E-1,1.848303676E-1
2.748885413E1,-1.034369349E0,6.934891343E-1,-3.222052455E-1
2.751085100E1,-7.089003921E-1,9.878912568E-1,-6.482327580E-1
2.753085100E1,-1.413716655E-2,8.365712166E-1,-8.426449895E-1
2.755086975E1,7.291461825E-1,2.174680233E-1,-1.076065302E0
2.757285100E1,1.293219209E0,-1.465552896E-1,-1.603992462E0
2.759285256E1,1.688937664E0,3.944443911E-2,-2.130296469E0
2.761485256E1,2.215381384E0,3.552443087E-1,-2.538808346E0
2.763486350E1,2.566908121E0,3.672521710E-1,-2.727565527E0
2.765685256E1,2.514966965E0,2.388657629E-1,-2.936097622E0
2.767885256E1,2.243742943E0,1.461189687E-1,-3.197635174E0
2.769885256E1,1.949410558E0,1.776919663E-1,-3.336476088E0
2.772085100E1,1.575508714E0,2.438399494E-1,-3.323421001E0
2.774085100E1,1.248887777E0,3.107733130E-1,-3.165119648E0
2.776085100E1,1.019691110E0,2.959205806E-1,-2.958874226E0
2.778085100E1,9.304524660E-1,1.741664112E-1,-2.782805204E0
2.780085100E1,9.101194143E-1,6.171484292E-2,-2.640910149E0
2.782085100E1,9.402961135E-1,2.165953629E-2,-2.445904493E0
2.784085100E1,9.614669681E-1,-1.356295347E-1,-2.060500860E0
2.786085100E1,8.271988034E-1,-3.583335578E-1,-1.584898591E0
2.788085100E1,5.694311261E-1,-3.011740148E-1,-1.176543951E0
2.790085100E1,2.664594054E-1,-1.617047489E-1,-7.350279689E-1
2.792085100E1,7.349581271E-2,-2.227389216E-1,-1.898918301E-2
2.794085100E1,4.738568887E-2,-4.514119625E-1,8.785812855E-1
2.796085100E1,1.209513191E-2,-5.234416723E-1,1.566398144E0
2.798085100E1,-1.257160604E-1,-7.297221422E-1,2.051268101E0
2.800085100E1,-3.984062970E-1,-8.032179475E-1,2.255087614E0
2.802085100E1,-7.932695746E-1,-6.378654838E-1,2.483498812E0
2.804085100E1,-1.201903582E0,-3.613355160E-1,2.750813484E0
2.806085256E1,-1.561423898E0,-4.005530477E-2,2.864451885E0
2.808285100E1,-1.536727548E0,3.433411717E-1,2.904995918E0
2.810285100E1,-1.188255072E0,5.416280031E-1,2.973552227E0
2.812285100E1,-9.591980577E-1,5.308768153E-1,2.885186434E0
2.814285100E1,-9.729686975E-1,5.249601603E-1,2.502662420E0
2.816285100E1,-9.500001669E-1,5.751383305E-1,2.142217159E0
2.818285100E1,-8.177391291E-1,5.784544945E-1,2.037794113E0
2.820285100E1,-7.582757473E-1,5.214171410E-1,2.040045500E0
2.822285100E1,-8.306545615E-1,3.205646276E-1,1.925342560E0
2.824285100E1,-9.934064746E-1,8.452629298E-2,1.724437714E0
2.826285100E1,-1.199826598E0,-1.167799830E-1,1.668517351E0
2.828285100E1,-1.306239367E0,-2.317797244E-1,1.885217428E0
2.830285256E1,-1.212183475E0,-2.913827300E-1,2.094150782E0
2.832285256E1,-9.221621752E-1,-3.313507438E-1,2.171015024E0
2.834485100E1,-5.739515424E-1,-4.427027702E-1,1.706164002E0
2.836485881E1,-5.525887012E-1,-4.558276534E-1,1.098510265E0
2.838685100E1,-6.662271023E-1,-4.395088255E-1,7.633371949E-1
2.840685100E1,-6.717597842E-1,-3.577052355E-1,5.200383067E-1
2.842685100E1,-6.981491446E-1,-1.654572040E-2,1.916720569E-1
2.844685100E1,-7.925190926E-1,4.772428274E-1,-3.351206779E-1
2.846685100E1,-7.444353104E-1,9.357582927E-1,-7.625692487E-1
2.848685100E1,-3.001093566E-1,1.277406454E0,-9.240645766E-1
2.850685100E1,5.137027502E-1,9.120392799E-1,-1.040146470E0
2.852685100E1,1.309921980E0,-1.366243660E-1,-1.298193336E0
2.854685100E1,1.818528414E0,-8.961218596E-1,-1.737126231E0
2.856685100E1,1.986551166E0,-8.302880526E-1,-2.257304192E0
2.858685100E1,2.091916800E0,-1.437976807E-1,-2.636878252E0
2.860685100E1,2.247181177E0,4.715181589E-1,-2.755019665E0
2.862685100E1,2.407437325E0,6.565753818E-1,-2.845323086E0
2.864685256E1,2.569438696E0,6.083868742E-1,-3.141016722E0
2.866685256E1,2.591778994E0,5.261120200E-1,-3.585080862E0
2.868685256E1,2.407297611E0,4.335921407E-1,-3.781936407E0
2.870885100E1,2.172725439E0,2.308547050E-1,-3.457636833E0
2.872885100E1,1.873052478E0,-8.796459064E-3,-2.816106081E0
2.874885256E1,1.506620526E0,-2.479589283E-1,-2.211506605E0
2.877085256E1,1.104863167E0,-3.860493898E-1,-1.831740499E0
2.879285100E1,8.869065046E-1,-3.043854237E-1,-1.587551475E0
2.881285256E1,7.967602611E-1,-2.905449569E-1,-1.355195761E0
2.883485256E1,7.476117611E-1,-5.354321003E-1,-9.190729260E-1
2.885685100E1,7.306297421E-1,-8.091171980E-1,-3.598694503E-1
2.887685100E1,6.103940010E-1,-9.863902926E-1,-3.342305496E-2
2.889685100E1,2.794621289E-1,-9.844006300E-1,1.270250678E-1
2.891685100E1,-1.599943340E-1,-7.712784410E-1,4.177969098E-1
2.893685100E1,-6.221575141E-1,-4.759512842E-1,7.844731212E-1
2.895685100E1,-9.168214798E-1,-4.169940650E-1,1.366313577E0
2.897685100E1,-1.015484929E0,-4.470835328E-1,1.914888024E0
2.899685256E1,-1.129873753E0,-4.597720802E-1,2.243166924E0
2.901685256E1,-1.265154243E0,-3.678804934E-1,2.432517767E0
2.903885256E1,-1.300270319E0,-2.852915227E-1,2.545946598E0
2.905885256E1,-1.148025274E0,-1.282642484E-1,2.800380707E0
2.907885256E1,-7.242941856E-1,-1.658062823E-2,3.029490232E0
2.909885413E1,-5.367062092E-1,1.500983140E-3,3.001076221E0
2.912085256E1,-6.652845740E-1,2.103819847E-1,2.580818415E0
2.914085256E1,-8.928755522E-1,5.559746027E-1,2.173004627E0
2.916085256E1,-8.510748744E-1,8.860512972E-1,1.922724485E0
2.918285100E1,-5.503546596E-1,9.643642306E-1,1.902792811E0
2.920285100E1,-3.577575982E-1,7.683637738E-1,1.910751581E0
2.922285100E1,-3.585255444E-1,4.608192742E-1,1.793360710E0
2.924285100E1,-5.653644800E-1,2.141344398E-1,1.696006298E0
2.926485100E1,-7.996749282E-1,1.284213215E-1,1.710701942E0
2.928485569E1,-8.531169295E-1,1.112298295E-1,1.858060002E0
2.930685100E1,-4.467868209E-1,-5.113814771E-2,1.890977025E0
2.932685100E1,2.889741659E-1,-5.810899138E-1,1.528611660E0
2.934685100E1,8.659800291E-1,-1.102960825E0,9.012007713E-1
2.936685256E1,1.117534280E0,-1.279605627E0,4.556879997E-1
2.938885256E1,8.527853489E-1,-1.273846030E0,3.298846781E-1
2.941085256E1,1.317723542E-1,-9.835104942E-1,1.319992542E-1
2.943285100E1,-6.586174369E-1,-3.783524632E-1,-2.772280872E-1
2.945285100E1,-1.185794115E0,1.097812131E-1,-6.136403084E-1
2.947285412E1,-1.223720193E0,5.196019411E-1,-7.466867566E-1
2.949485100E1,-7.223045230E-1,3.796091080E-1,-8.568170071E-1
2.951485725E1,-2.543817461E-1,-2.865307033E-1,-1.197575092E0
2.953685100E1,1.712168008E-2,-4.013035595E-1,-1.971174836E0
2.955685256E1,3.777590692E-1,1.057145894E-1,-2.551549196E0
2.957885100E1,1.181832194E0,6.101322174E-1,-2.448312998E0
2.959885100E1,1.909756660E0,8.149465919E-1,-2.217458248E0
2.961885100E1,2.286590815E0,7.368605733E-1,-2.292681932E0
2.963885100E1,2.273587942E0,1.649685204E-1,-2.639129877E0
2.965885100E1,1.997860909E0,-4.288623035E-1,-2.870420933E0
2.967885100E1,1.538734674E0,-5.890835524E-1,-2.677212954E0
2.969885100E1,1.045434713E0,-5.217137933E-1,-2.383700848E0
2.971885100E1,6.123138666E-1,-3.451563120E-1,-2.332440615E0
2.973885100E1,3.516140282E-1,-1.963495463E-1,-2.449150801E0
2.975885100E1,3.500607014E-1,-1.096066758E-1,-2.574011564E0
2.977885100E1,4.336270392E-1,-1.376715750E-1,-2.595810652E0
2.979885100E1,6.492624879E-1,-4.890412465E-2,-2.425292015E0
2.981885100E1,9.360550046E-1,-3.874630854E-2,-2.081392288E0
2.983885100E1,1.247945309E0,-3.097784817E-1,-1.665236115E0
2.985885100E1,1.458781123E0,-4.846430123E-1,-1.292084694E0
2.987885100E1,1.336346269E0,-4.723908007E-1,-9.743649364E-1
2.989885100E1,8.924915791E-1,-3.760660887E-1,-5.155004263E-1
2.991885100E1,3.273190558E-1,-1.963669956E-1,2.118306160E-1
2.993885100E1,4.358087108E-2,-2.706482112E-1,1.210647583E0
2.995885100E1,-1.242325380E-1,-3.969402313E-1,1.768001080E0
2.997885100E1,-4.217588007E-1,-4.273089468E-1,1.930456281E0
2.999885100E1,-6.756518483E-1,-3.721041977E-1,2.005487919E0
3.001885100E1,-9.985028505E-1,-2.665641308E-1,1.968975782E0
3.003885100E1,-1.255642176E0,1.744631082E-1,1.931782722E0
3.005885100E1,-1.335508466E0,9.027541280E-1,1.924015999E0
3.007885100E1,-1.445289731E0,1.436196566E0,1.859194517E0
3.009885256E1,-1.500686407E0,1.696215630E0,1.694540143E0
3.012085100E1,-1.281804681E0,1.630277157E0,1.596993685E0
3.014085256E1,-8.436572552E-1,1.278104663E0,1.673404217E0
3.016285100E1,-1.924050897E-1,8.378278613E-1,1.847500801E0
3.018285100E1,1.144412383E-1,6.120694876E-1,1.913439393E0
3.020285100E1,-7.466518879E-2,4.116010070E-1,1.754160643E0
3.022285100E1,-5.603379607E-1,3.171263337E-1,1.684975743E0
3.024285100E1,-8.929453492E-1,5.150291920E-1,1.884606481E0
3.026485569E1,-1.052590609E0,5.545260310E-1,2.208539724E0
3.028687131E1,-1.034212351E0,5.744576454E-1,2.358079433E0
3.030885100E1,-6.632600427E-1,2.565633953E-1,2.324604034E0
3.032885100E1,-2.540850341E-1,-2.782752812E-1,2.474964142E0
3.034885100E1,-1.639562249E-1,-9.470854402E-1,2.604816675E0
3.036885100E1,-6.125233173E-1,-1.072312832E0,2.302368641E0
3.038885100E1,-1.358634114E0,-4.647288322E-1,1.711120844E0
3.040885100E1,-1.920560360E0,1.692445725E-1,9.252339602E-1
3.042885100E1,-2.044600964E0,5.673890710E-1,2.361779511E-1
3.044885100E1,-1.568248153E0,9.830567241E-1,-2.894802988E-1
3.046885100E1,-7.150090337E-1,7.496188879E-1,-8.523140550E-1
3.048885100E1,3.530800939E-1,-1.440071166E-1,-1.457332492E0
3.050885100E1,1.187713981E0,-8.360999823E-1,-2.117136717E0
3.052885100E1,1.632511139E0,-7.030360699E-1,-2.879967690E0
3.054885100E1,2.024983406E0,-2.983989418E-1,-3.534029961E0
3.056885100E1,2.467476606E0,1.110378429E-1,-3.676588297E0
3.058885100E1,2.563487291E0,3.519281745E-1,-3.545060396E0
3.060885256E1,2.321235418E0,3.203726411E-1,-3.430409670E0
3.063085100E1,1.945466161E0,1.073551998E-1,-3.462733269E0
3.065086975E1,1.580884337E0,-1.064650808E-2,-3.627038479E0
3.067285100E1,1.071091056E0,2.095267773E-1,-3.877249002E0
3.069285100E1,6.172007918E-1,5.569345355E-1,-3.826477289E0
3.071285100E1,3.744429350E-1,8.148941994E-1,-3.492473602E0
3.073285100E1,4.020016789E-1,8.691565394E-1,-3.076631546E0
3.075285100E1,6.232047081E-1,7.658679485E-1,-2.754967213E0
3.077285100E1,8.645139337E-1,4.975410104E-1,-2.346036673E0
3.079285100E1,1.115038514E0,1.011069268E-1,-1.742920637E0
3.081285100E1,1.344915867E0,-1.007578596E-1,-1.044719219E0
3.083285100E1,1.244751334E0,-3.307224512E-1,-4.607843757E-1
3.085285100E1,8.905891776E-1,-5.097234249E-1,-3.434807807E-2
3.087285100E1,4.954989851E-1,-4.031884968E-1,3.513173163E-1
3.089285100E1,4.865977913E-2,-9.719738364E-2,6.343747973E-1
3.091285100E1,-5.164254904E-1,-7.244861871E-2,1.069677353E0
3.093285100E1,-1.130798817E0,-2.190213650E-1,1.714210033E0
3.095285100E1,-1.749971867E0,-9.852383286E-2,2.234684706E0
3.097285100E1,-2.238489389E0,-3.865904361E-2,2.768772840E0
3.099285100E1,-2.677806377E0,-6.372196972E-2,2.866860390E0
3.101285100E1,-3.001687050E0,1.464680284E-1,2.690826416E0
3.103285100E1,-2.867977381E0,4.841368794E-1,2.648571968E0
3.105285100E1,-2.487670183E0,6.636090875E-1,2.635743856E0
3.107285100E1,-2.356473684E0,6.552664042E-1,2.365916014E0
3.109285256E1,-2.349527359E0,6.931749582E-1,1.993724465E0
3.111485256E1,-2.212920427E0,7.134382129E-1,1.767058611E0
3.113485569E1,-2.006238461E0,6.071651578E-1,1.669180512E0
3.115486506E1,-1.934610248E0,4.647113681E-1,1.617082477E0
3.117685413E1,-1.944296837E0,1.645496339E-1,1.555559635E0
3.119885100E1,-1.958067417E0,-6.401867419E-2,1.546309352E0
3.121885100E1,-1.858705878E0,-2.320066094E-1,1.696931243E0
3.123885256E1,-1.741349936E0,-5.433733463E-1,1.925063252E0
3.126085100E1,-1.469462514E0,-8.554556966E-1,2.119842052E0
3.128088694E1,-1.104915619E0,-1.077409148E0,2.262557507E0
3.130285100E1,-8.836078644E-1,-1.366121531E0,2.258054733E0
3.132285100E1,-9.062098265E-1,-1.659319401E0,2.181487083E0
3.134285100E1,-6.186842918E-1,-1.672723532E0,2.205101252E0
3.136285413E1,-2.549227774E-1,-1.332157493E0,1.906231165E0
3.138486975E1,-4.186346829E-1,-3.626794219E-1,9.450783134E-1
3.140685100E1,-8.698720932E-1,6.799453497E-1,-1.430995464E-1
3.142685100E1,-8.138644695E-1,1.477840066E0,-6.641850471E-1
3.144685100E1,-4.325449467E-1,1.628025651E0,-9.794263840E-1
3.146685100E1,9.738937020E-2,8.916537762E-1,-1.175479293E0
3.148685100E1,6.006724834E-1,2.382898033E-1,-1.367901802E0
3.150685256E1,9.015498161E-1,4.508185387E-2,-1.699409604E0
3.152885100E1,1.113223314E0,4.345171750E-1,-2.087483644E0
3.154885100E1,1.342699289E0,1.065715432E0,-2.270778179E0
3.156885100E1,1.572978020E0,1.479707599E0,-2.496693373E0
3.158885100E1,1.833730221E0,1.689792871E0,-2.852496386E0
3.160885256E1,2.175291061E0,1.592455864E0,-3.177284718E0
3.163085100E1,2.525002718E0,1.271769047E0,-3.297764778E0
3.165087131E1,2.609581470E0,1.088055730E0,-3.274639130E0
3.167285100E1,2.467284679E0,8.535009027E-1,-3.221144676E0
3.169285100E1,2.347275734E0,5.588544011E-1,-3.061098099E0
3.171285100E1,2.245994329E0,1.976061761E-1,-2.902116060E0
3.173285100E1,2.154975414E0,-1.096764877E-1,-2.738090038E0
3.175285100E1,2.067499638E0,-3.375466764E-1,-2.476500034E0
3.177285100E1,1.951906443E0,-4.742059708E-1,-2.103924513E0
3.179285100E1,1.698467135E0,-5.785592198E-1,-1.625302911E0
3.181285100E1,1.341931343E0,-7.010464072E-1,-1.047057867E0
3.183285100E1,1.033845782E0,-7.348359823E-1,-4.590564966E-1
3.185285100E1,7.934615612E-1,-7.108202577E-1,1.027998924E-1
3.187285100E1,5.611582398E-1,-5.892929435E-1,6.178814769E-1
3.189285100E1,2.630734742E-1,-5.014854670E-1,9.550790787E-1
3.191285100E1,-6.625270098E-2,-4.929158986E-1,1.133870602E0
3.193285100E1,-5.614374876E-1,-2.871241271E-1,1.290723324E0
3.195285100E1,-1.184153557E0,6.920230389E-2,1.493966937E0
3.197285100E1,-1.800603867E0,3.653148711E-1,1.615721107E0
3.199285100E1,-2.203914404E0,4.966159761E-1,1.582437634E0
3.201285100E1,-2.315633059E0,3.312460482E-1,1.482517600E0
3.203285100E1,-2.110312462E0,1.358913332E-1,1.711504817E0
3.205285100E1,-1.656841040E0,-1.731366664E-2,2.167786121E0
3.207285100E1,-1.460107565E0,-1.278977245E-1,2.593053102E0
3.209285412E1,-1.561284304E0,-5.604252219E-2,2.765125036E0
3.211485256E1,-1.622615099E0,2.710496262E-2,2.707075357E0
3.213485413E1,-1.599297523E0,4.682718217E-2,2.633108377E0
3.215685100E1,-1.469881415E0,5.625196174E-2,2.636197567E0
3.217685100E1,-1.337341070E0,-8.595746756E-2,2.636843443E0
3.219685100E1,-1.253146410E0,-3.669554591E-1,2.545859337E0
3.221685100E1,-1.241697073E0,-5.213996768E-1,2.548547268E0
3.223685100E1,-1.254839420E0,-5.978101492E-1,2.671470642E0
3.225685100E1,-1.253600240E0,-5.714207888E-1,2.974023581E0
3.227685100E1,-1.166822433E0,-5.382595658E-1,3.118449688E0
3.229685100E1,-1.038313866E0,-6.589490771E-1,2.963935614E0
3.231685100E1,-1.035503864E0,-8.125554919E-1,2.533258200E0
3.233685100E1,-1.173733950E0,-8.277049661E-1,2.137574434E0
3.235685100E1,-1.354550004E0,-5.603379607E-1,1.768437386E0
3.237685100E1,-1.453632355E0,-1.439373046E-1,1.312714458E0
3.239685100E1,-1.441432476E0,3.289945722E-1,6.962816715E-1
3.241685100E1,-1.309101701E0,8.564156294E-1,-6.633996218E-2
3.243685100E1,-9.055466056E-1,1.171953678E0,-5.560444593E-1
3.245685100E1,-1.386140436E-1,1.244751334E0,-7.371048927E-1
3.247685100E1,7.413635254E-1,4.727747738E-1,-9.857619405E-1
3.249685100E1,1.418411613E0,-6.037617326E-1,-1.478049517E0
3.251685100E1,1.904363632E0,-1.153994203E0,-2.008350372E0
3.253685100E1,2.332353354E0,-9.160011411E-1,-2.429288864E0
3.255685100E1,2.510935307E0,-2.439621240E-1,-2.732435226E0
3.257685100E1,2.310658932E0,4.574508071E-1,-3.025057077E0
3.259685256E1,2.071915150E0,8.877617121E-1,-3.389010429E0
3.261685256E1,2.027898073E0,8.435176015E-1,-3.660932779E0
3.263885100E1,2.144730330E0,5.282064676E-1,-3.926275253E0
3.265885100E1,2.135602236E0,2.372076958E-1,-4.113217354E0
3.267885256E1,2.013080120E0,7.325147092E-2,-4.164407730E0
3.270085256E1,1.896736503E0,8.747590333E-2,-4.003837585E0
3.272285100E1,1.858356714E0,5.347688869E-2,-3.599759102E0
3.274285100E1,1.847431064E0,4.673991725E-2,-3.210062027E0
3.276485256E1,1.716688395E0,-9.555677325E-2,-2.905449629E0
3.278687131E1,1.445970416E0,-2.592163086E-1,-2.576402664E0
3.280885100E1,1.228449941E0,-3.261845708E-1,-2.094447374E0
3.282885100E1,9.831265211E-1,-3.422067165E-1,-1.676318884E0
3.284885100E1,6.596646309E-1,-3.022386730E-1,-1.143051028E0
3.286885412E1,3.774623573E-1,-2.961474657E-1,-4.854982495E-1
3.289085100E1,9.552186728E-2,-2.599493265E-1,1.533620805E-1
3.291085100E1,-1.444783509E-1,-3.116285503E-1,7.150962949E-1
3.293085100E1,-4.165053666E-1,-4.532445371E-1,1.327514887E0
3.295086975E1,-6.953915358E-1,-5.135805607E-1,1.842282295E0
3.297285100E1,-1.083954215E0,-4.754451513E-1,2.231752396E0
3.299285100E1,-1.484873772E0,-3.651228845E-1,2.223898411E0
3.301285100E1,-1.690403700E0,-2.353925556E-1,2.192971230E0
3.303285100E1,-1.524667263E0,-1.734857261E-1,2.638326883E0
3.305485725E1,-1.031838655E0,-1.921782047E-1,3.314275503E0
3.307685100E1,-9.117251039E-1,-4.604178667E-2,3.542773962E0
3.309685256E1,-9.816255569E-1,2.068040669E-1,3.305391788E0
3.311685256E1,-9.373115897E-1,3.503748477E-1,2.914315939E0
3.313885100E1,-7.972664237E-1,3.257831633E-1,2.841186523E0
3.315885100E1,-6.341654062E-1,1.181587875E-1,2.874958754E0
3.317885100E1,-5.878443718E-1,-9.894271195E-2,2.782334089E0
3.319885100E1,-6.378480196E-1,-2.599144280E-1,2.709135056E0
3.321885256E1,-8.036368489E-1,-3.099530339E-1,2.840156794E0
3.324085100E1,-9.203644991E-1,-2.912431061E-1,3.089163065E0
3.326085100E1,-7.711911798E-1,-3.518234789E-1,3.082600594E0
3.328085100E1,-6.313379407E-1,-5.096012354E-1,2.810695648E0
3.330085100E1,-7.410668135E-1,-6.093817353E-1,2.397017717E0
3.332085100E1,-1.120937705E0,-5.073671937E-1,2.076941729E0
3.334085100E1,-1.653455138E0,-1.654572189E-1,1.747737765E0
3.336085100E1,-1.999292135E0,2.264564633E-1,1.173629165E0
3.338085100E1,-1.948258638E0,7.344520092E-1,3.316300213E-1
3.340085100E1,-1.480876923E0,1.213283062E0,-4.166799188E-1
3.342085100E1,-6.281614304E-1,1.670664072E0,-8.856498599E-1
3.344085100E1,3.223797679E-1,1.676685452E0,-1.292189360E0
3.346085100E1,1.094775200E0,9.277471900E-1,-1.738749385E0
3.348088694E1,1.620032072E0,3.851243556E-1,-2.337781191E0
3.350285100E1,1.949829459E0,6.803991795E-1,-3.328901291E0
3.352285100E1,2.306557417E0,1.515748620E0,-3.942908287E0
3.354285100E1,2.835060358E0,1.815805674E0,-4.101191998E0
3.356285412E1,3.320122480E0,1.663839817E0,-4.284154892E0
3.358485100E1,3.599776506E0,1.331459284E0,-4.435701847E0
3.360485100E1,3.454983950E0,9.812589884E-1,-4.286773205E0
3.362485100E1,2.787378073E0,8.938878179E-1,-4.005809784E0
3.364485569E1,2.175919533E0,9.249547124E-1,-3.978355885E0
3.366486662E1,1.835091472E0,8.608661890E-1,-3.953066111E0
3.368685256E1,1.637747169E0,7.138396502E-1,-3.705473661E0
3.370885100E1,1.541282773E0,6.482676268E-1,-3.225857019E0
3.372885100E1,1.396752119E0,6.295053363E-1,-2.817764282E0
3.374885100E1,1.142579794E0,6.602405906E-1,-2.421714067E0
3.376885881E1,8.068133593E-1,4.411668777E-1,-1.893036485E0
3.379085100E1,5.575454235E-1,3.143338114E-2,-1.175461769E0
3.381085100E1,4.794943035E-1,-4.376936555E-1,-3.710570037E-1
3.383085100E1,3.699748814E-1,-9.587966204E-1,4.093146026E-1
3.385087131E1,1.083849445E-1,-1.163017631E0,1.003058195E0
3.387285100E1,-2.847679257E-1,-1.302661419E0,1.541370034E0
3.389285100E1,-6.274982095E-1,-1.342454910E0,1.916231871E0
3.391285100E1,-1.047633886E0,-1.473564029E0,2.306016207E0
3.393285412E1,-1.444678783E0,-1.462917566E0,2.678050756E0
3.395485100E1,-1.737405419E0,-1.034177423E0,2.751633644E0
3.397485881E1,-1.836906672E0,-5.337216854E-1,2.623212337E0
3.399685100E1,-1.786641240E0,-3.909362853E-1,2.937022686E0
3.401685100E1,-1.784040689E0,-7.592880130E-1,3.597507477E0
3.403685100E1,-1.963216186E0,-8.016297221E-1,4.187062263E0
3.405685100E1,-2.014912844E0,-4.594579339E-1,4.255077839E0
3.407685100E1,-1.788648367E0,-4.007275775E-2,3.928037882E0
3.409685100E1,-1.368198514E0,3.855432197E-2,3.433254719E0
3.411685100E1,-9.833883047E-1,-2.025454640E-1,3.046541929E0
3.413685100E1,-8.499928117E-1,-5.661324263E-1,2.707162857E0
3.415685100E1,-1.025415897E0,-7.005751729E-1,2.387767553E0
3.417685256E1,-1.512310386E0,-5.467593074E-1,2.105774641E0
3.419885100E1,-1.832403779E0,-4.691445082E-2,1.740808845E0
3.421885100E1,-1.588860512E0,3.486295044E-1,1.139630198E0
3.423885100E1,-1.419947505E0,2.171189636E-1,4.520751834E-1
3.425885100E1,-1.520164371E0,-2.992017865E-1,2.268404365E-1
3.427885100E1,-1.601042867E0,-6.467841268E-1,4.096287787E-1
3.429885100E1,-1.583991051E0,-4.904200733E-1,3.062005639E-1
3.431885100E1,-1.445272207E0,-7.463027537E-2,-5.747369304E-2
3.433885100E1,-1.158462286E0,2.942276001E-1,-4.166100919E-1
3.435885100E1,-7.625867128E-1,5.271418095E-1,-5.497089028E-1
3.437885100E1,-1.354899108E-1,8.885820508E-1,-7.007671595E-1
3.439885100E1,6.045994759E-1,1.016514659E0,-1.153715014E0
3.441885100E1,1.227350473E0,5.685061216E-1,-1.603660822E0
3.443885100E1,1.725484848E0,7.841764390E-2,-1.838774204E0
3.445885256E1,2.001910210E0,-1.188220158E-1,-1.947386026E0
3.448085100E1,2.108183146E0,1.355597228E-1,-2.104675055E0
3.450085100E1,2.197945595E0,6.159790754E-1,-2.342999697E0
3.452085100E1,2.304235935E0,1.002848744E0,-2.711543560E0
3.454085100E1,2.428678036E0,1.059205413E0,-3.156584978E0
3.456085256E1,2.473253727E0,9.241867661E-1,-3.443412542E0
3.458284944E1,2.335215569E0,7.594974637E-1,-3.479645491E0
3.460285100E1,2.100713253E0,6.128374338E-1,-3.295844793E0
3.462285100E1,1.903962255E0,4.873133898E-1,-3.088656902E0
3.464485256E1,1.786885500E0,3.051533699E-1,-2.938401461E0
3.466486038E1,1.730651021E0,1.925796270E-1,-2.866371632E0
3.468685256E1,1.755591750E0,2.549577057E-1,-2.734546900E0
3.470885100E1,1.683876157E0,3.202504516E-1,-2.456899881E0
3.472885100E1,1.398549795E0,1.732762903E-1,-1.935203671E0
3.474885100E1,1.080603123E0,-3.979350626E-2,-1.239794612E0
3.476888225E1,7.216413021E-1,-2.182883322E-1,-4.343949854E-1
3.479085100E1,3.687706292E-1,-2.782752812E-1,4.062428474E-1
3.481085100E1,1.638166010E-1,-2.859722078E-1,1.062643766E0
3.483085100E1,3.077015467E-2,-3.563962281E-1,1.608425617E0
3.485087131E1,-8.161159605E-2,-5.661150217E-1,1.999745846E0
3.487285100E1,-3.321361542E-1,-6.164153814E-1,2.404156208E0
3.489285100E1,-7.136301994E-1,-5.789082646E-1,2.670057058E0
3.491285100E1,-1.235082269E0,-2.668433785E-1,2.681297064E0
3.493285100E1,-1.612753987E0,1.257160604E-1,2.517812014E0
3.495285100E1,-1.497195840E0,4.010941088E-1,2.656461000E0
3.497285100E1,-9.406452179E-1,2.616772056E-1,3.095812559E0
3.499285100E1,-4.920083284E-1,8.326965570E-2,3.289334774E0
3.501285100E1,-5.533042550E-1,1.366418302E-1,3.011879683E0
3.503285100E1,-8.477413058E-1,2.884331048E-1,2.581010342E0
3.505285100E1,-1.041106343E0,3.922801912E-1,2.357992172E0
3.507285100E1,-1.305593491E0,5.417676568E-1,2.457598209E0
3.509285100E1,-1.748976946E0,7.833735943E-1,2.610837936E0
3.511285100E1,-2.315284014E0,1.236478448E0,2.425641060E0
3.513285100E1,-2.937650919E0,1.423769832E0,2.007477760E0
3.515485100E1,-2.940460920E0,9.339082241E-1,1.564478278E0
3.517485100E1,-2.355479002E0,2.047445774E-1,1.361129880E0
3.519485256E1,-1.639457583E0,-3.335673213E-1,1.234907746E0
3.521685100E1,-1.064214468E0,-6.838723421E-1,1.022954941E0
3.523685100E1,-7.655712366E-1,-6.696130037E-1,8.563981652E-1
3.525685100E1,-4.551644027E-1,-4.430692792E-1,7.282386422E-1
3.527685100E1,-1.208989546E-1,-3.583509922E-1,5.137900114E-1
3.529685100E1,8.812167495E-2,-3.630808294E-1,8.620180935E-2
3.531685100E1,1.240056455E-1,-1.282467991E-1,-2.988003790E-1
3.533685256E1,1.431519091E-1,2.257408798E-1,-5.921029449E-1
3.535685256E1,2.866528630E-1,4.313057661E-1,-7.673165202E-1
3.537885100E1,7.752926946E-1,5.291838050E-1,-8.559269309E-1
3.539885256E1,1.343938470E0,1.538333148E-1,-1.119105101E0
3.542085100E1,1.605109453E0,-4.345869720E-1,-1.628339767E0
3.544085100E1,1.632912636E0,-7.206988335E-1,-2.122442484E0
3.546085100E1,1.693684936E0,-4.359832406E-1,-2.453653574E0
3.548085100E1,1.841322303E0,1.018225104E-1,-2.625516176E0
3.550085100E1,1.989570618E0,5.144706964E-1,-2.730253458E0
3.552085100E1,2.118376017E0,6.868917942E-1,-2.883004665E0
3.554085100E1,2.154696226E0,6.131341457E-1,-3.058340549E0
3.556085100E1,2.089002132E0,5.029340982E-1,-3.221092463E0
3.558085100E1,1.964786887E0,3.715631366E-1,-3.297852039E0
3.560085100E1,1.772259712E0,2.241875380E-1,-3.209852457E0
3.562085100E1,1.524265885E0,9.328784794E-2,-2.989172935E0
3.564085100E1,1.273688912E0,6.572909653E-2,-2.719327688E0
3.566085100E1,1.040059209E0,8.801695704E-2,-2.441436291E0
3.568088538E1,8.717744946E-1,4.213224724E-2,-2.066085815E0
3.570285100E1,7.331081033E-1,-3.726277873E-2,-1.579435706E0
3.572285100E1,6.862459779E-1,-1.571494490E-1,-1.159928322E0
3.574285256E1,6.677455306E-1,-2.969328761E-1,-8.300262094E-1
3.576486194E1,5.138947368E-1,-4.369780719E-1,-5.205095410E-1
3.578686506E1,2.309943289E-1,-4.697902799E-1,-1.703790426E-1
3.580885100E1,-2.144486010E-1,-3.018546999E-1,2.561794221E-1
3.582885100E1,-5.879839659E-1,-2.552369535E-1,8.057661653E-1
3.584885100E1,-9.377828836E-1,-5.847376585E-1,1.494857073E0
3.586885256E1,-1.219252110E0,-7.000864744E-1,2.099491358E0
3.588885569E1,-1.452864408E0,-6.966656446E-1,2.580399513E0
3.591085100E1,-1.716409087E0,-4.962320030E-1,2.708523989E0
3.593085100E1,-1.913753510E0,-1.929985136E-1,2.612443686E0
3.595087131E1,-2.047847271E0,2.030690610E-1,2.907770872E0
3.597285100E1,-1.957473993E0,4.698950052E-1,3.531778336E0
3.599285100E1,-1.885199904E0,6.707474589E-1,3.786195040E0
3.601285100E1,-2.067063332E0,7.314325571E-1,3.501008272E0
3.603285100E1,-2.254738569E0,5.727821589E-1,2.797029734E0
3.605285100E1,-2.557710171E0,7.273310423E-1,2.235190868E0
3.607285100E1,-3.011391163E0,1.082261205E0,1.783394933E0
3.609285100E1,-3.399604559E0,1.010213971E0,1.258591771E0
3.611285100E1,-3.269961596E0,6.201503873E-1,8.196066022E-1
3.613285100E1,-2.635429621E0,2.605951130E-1,6.918310523E-1
3.615285100E1,-1.779764533E0,-1.022239327E-1,6.653369665E-1
3.617285100E1,-8.994379640E-1,-4.335746765E-1,4.858647585E-1
3.619285100E1,-1.810604632E-1,-5.989097357E-1,2.876477242E-1
3.621285100E1,2.245715111E-1,-6.681469679E-1,1.980774105E-1
3.623285100E1,4.128750861E-1,-6.703111529E-1,1.222428605E-1
3.625285100E1,4.461061656E-1,-5.490980148E-1,-4.906120524E-2
3.627285100E1,3.731513917E-1,-1.674119830E-1,-2.602635026E-1
3.629285100E1,3.213325739E-1,3.014532626E-1,-4.287924767E-1
3.631285100E1,4.786041975E-1,5.904448628E-1,-6.079854369E-1
3.633285100E1,9.398946762E-1,6.267826557E-1,-8.222769499E-1
3.635285100E1,1.524841785E0,1.614080518E-1,-1.120047569E0
3.637285100E1,1.894746900E0,-1.451241225E-1,-1.504822850E0
3.639285100E1,2.131483316E0,-7.278022915E-2,-1.711068392E0
3.641285100E1,2.346857071E0,1.094495952E-1,-1.582245708E0
3.643285100E1,2.507095575E0,2.965663373E-1,-1.350326300E0
3.645285100E1,2.602268457E0,4.540997744E-1,-1.319207072E0
3.647485100E1,2.693357229E0,4.613254368E-1,-1.626699209E0
3.649485100E1,2.702607393E0,3.383669853E-1,-1.993602276E0
3.651485256E1,2.569910049E0,3.828903437E-1,-2.327483892E0
3.653685100E1,2.297027826E0,5.879665017E-1,-2.633963585E0
3.655685100E1,2.017129421E0,6.253165603E-1,-2.565354824E0
3.657685100E1,1.782050967E0,3.792600334E-1,-2.117991924E0
3.659685100E1,1.604620814E0,7.948229462E-2,-1.515504241E0
3.661685100E1,1.430576563E0,-1.361531317E-1,-1.052834988E0
3.663685100E1,1.254106283E0,-1.763131618E-1,-8.418246508E-1
3.665685100E1,1.080079556E0,-2.244842499E-1,-6.642199755E-1
3.667685100E1,9.380097389E-1,-3.710744381E-1,-2.721491754E-1
3.669685100E1,8.133234382E-1,-4.893379509E-1,2.083050460E-1
3.671685100E1,4.805414975E-1,-4.277278483E-1,6.547602415E-1
3.673685100E1,-4.604178667E-2,-2.598795295E-1,1.081179142E0
3.675685100E1,-5.959950089E-1,-3.580542803E-1,1.544738531E0
3.677685100E1,-1.139647603E0,-4.148647487E-1,1.895322800E0
3.679685100E1,-1.619211793E0,-4.476594925E-1,2.311740875E0
3.681685100E1,-1.923754215E0,-3.304082751E-1,2.629041910E0
3.683685100E1,-1.874466181E0,-1.368512660E-1,2.674036503E0
3.685685100E1,-1.547164559E0,9.286896884E-2,2.699675322E0
3.687685100E1,-1.111355901E0,1.405688226E-1,2.837992668E0
3.689685100E1,-8.676206470E-1,3.436553106E-2,2.859163523E0
3.691685100E1,-9.831439853E-1,1.918814927E-1,2.597311735E0
3.693685100E1,-1.325472832E0,7.315024137E-1,2.179305315E0
3.695685100E1,-1.641359925E0,1.027143717E0,1.868392467E0
3.697685100E1,-1.858827949E0,1.173664093E0,1.832543373E0
3.699685100E1,-1.939043283E0,1.076431870E0,2.036362886E0
3.701685100E1,-2.214822769E0,1.446616173E0,2.224404573E0
3.703685881E1,-2.457737684E0,1.840397358E0,2.140471697E0
3.705885100E1,-2.732295513E0,1.554529905E0,1.758733392E0
3.707885100E1,-2.848796129E0,1.141113758E0,1.546640992E0
3.709885100E1,-2.699902058E0,8.550891280E-1,1.265154243E0
3.711885100E1,-2.292315483E0,6.117029786E-1,8.444601297E-1
3.713885100E1,-1.685918212E0,3.760311902E-1,4.972093999E-1
3.715885100E1,-1.039186478E0,1.323657632E-1,2.720270157E-1
3.717885100E1,-5.198986530E-1,-8.658578247E-2,7.232644409E-2
3.719885100E1,-1.321737766E-1,-9.562659264E-2,-6.258750707E-2
3.721885100E1,2.127905488E-1,8.833111078E-2,-1.821425557E-1
3.723885100E1,4.569970071E-1,2.703689635E-1,-2.275385708E-1
3.725885100E1,6.424382329E-1,4.362450540E-1,-1.839053482E-1
3.727885100E1,1.033095241E0,9.316567332E-2,-2.473655194E-1
3.729885100E1,1.648917317E0,-5.173330307E-1,-6.647086143E-1
3.731885100E1,2.045840025E0,-1.183507800E0,-1.486078024E0
3.733885100E1,2.257653236E0,-1.203963041E0,-2.297760963E0
3.735885100E1,2.637890577E0,-5.786988139E-1,-2.732155800E0
3.737885100E1,3.158400059E0,-1.674992442E-1,-2.704160690E0
3.739885100E1,3.523418427E0,-1.484751552E-1,-2.527952433E0
3.741885100E1,3.513208151E0,-3.099181056E-1,-2.559298515E0
3.743885100E1,3.242298126E0,-3.998723924E-1,-2.763781309E0
3.745885100E1,2.916968822E0,-5.616993308E-1,-2.987113476E0
3.747885256E1,2.567134857E0,-6.076538563E-1,-3.142220974E0
3.750085100E1,2.141379356E0,-4.866327047E-1,-3.156375647E0
3.752085100E1,1.739255548E0,-2.892708778E-1,-2.970637560E0
3.754085100E1,1.419755578E0,-7.560766488E-2,-2.641276598E0
3.756085100E1,1.240580082E0,8.759807795E-2,-2.261056662E0
3.758085100E1,1.104601383E0,-5.258677155E-2,-1.897417188E0
3.760085100E1,9.498081803E-1,-2.434908897E-1,-1.585823655E0
3.762085100E1,8.343023062E-1,-4.020889401E-1,-1.128617167E0
3.764085100E1,7.520972490E-1,-5.304579139E-1,-6.030112505E-1
3.766085100E1,5.059534907E-1,-5.064771175E-1,-1.351408362E-1
3.768085100E1,1.446703374E-1,-4.708200097E-1,3.013311028E-1
3.770085256E1,-3.033905923E-1,-4.582012892E-1,6.918659806E-1
3.772285100E1,-6.913248897E-1,-4.378856421E-1,1.130170465E0
3.774285100E1,-1.030442357E0,-5.666211247E-1,1.574897885E0
3.776285100E1,-1.449914813E0,-5.452408791E-1,1.941678762E0
3.778285256E1,-1.745259404E0,-5.156400800E-1,2.434140921E0
3.780485100E1,-1.799277425E0,-5.388180614E-1,2.764985561E0
3.782485100E1,-1.706914544E0,-5.123065114E-1,2.710443974E0
3.784485725E1,-1.459060311E0,-2.995159626E-1,2.641834974E0
3.786486975E1,-1.134690881E0,8.325220644E-2,2.670999527E0
3.788685100E1,-1.021035075E0,4.379205704E-1,2.603717089E0
3.790685256E1,-9.931098223E-1,6.092944145E-1,2.391188383E0
3.792885100E1,-8.325394988E-1,7.074866891E-1,2.134816885E0
3.794885100E1,-4.037819207E-1,7.690967917E-1,1.992293358E0
3.796887444E1,-5.537929758E-2,8.891754150E-1,2.022120953E0
3.799085256E1,-5.647187233E-1,9.662491679E-1,2.119964123E0
3.801285100E1,-1.961174130E0,9.039933085E-1,2.070414305E0
3.803285256E1,-3.160826206E0,7.254984379E-1,1.861009717E0
3.805485256E1,-3.568482637E0,5.425530672E-1,1.677819967E0
3.807685256E1,-3.121346712E0,1.975189149E-1,1.386559367E0
3.809885256E1,-2.136457443E0,-2.326698452E-1,1.004122853E0
3.811885256E1,-1.188097954E0,-5.237383842E-1,7.615569830E-1
3.814085256E1,-5.328140855E-1,-4.319340885E-1,6.779556870E-1
3.816285569E1,-1.995958537E-1,9.616764262E-3,5.672145486E-1
3.818485412E1,3.804817796E-2,2.214648277E-1,1.312662065E-1
3.820685100E1,1.280548126E-1,4.054923356E-1,-2.697580755E-1
3.822685100E1,2.798635364E-1,4.431216419E-1,-4.890063405E-1
3.824685100E1,5.870938301E-1,4.605574906E-1,-7.334396839E-1
3.826685100E1,1.095298767E0,3.238632977E-1,-1.004227519E0
3.828687131E1,1.481278419E0,-3.928037882E-1,-1.261873007E0
3.830885100E1,1.573135018E0,-9.384461045E-1,-1.837657213E0
3.832885100E1,1.621393442E0,-5.096535683E-1,-2.289069176E0
3.834885100E1,1.832997084E0,1.167799830E-1,-2.450215340E0
3.836885100E1,2.165587187E0,4.202927351E-1,-2.488054037E0
3.838885100E1,2.394870996E0,3.066892624E-1,-2.665554047E0
3.840885100E1,2.471787691E0,5.094616115E-2,-3.010274172E0
3.842885100E1,2.566593885E0,-2.998475730E-2,-3.336650610E0
3.844885100E1,2.721125364E0,-6.958627701E-2,-3.531778336E0
3.846885100E1,2.704160690E0,-5.668829381E-2,-3.477568626E0
3.848885100E1,2.396528959E0,-1.047023013E-1,-3.326632500E0
3.850885100E1,1.873314261E0,-1.663473248E-1,-3.228719473E0
3.852885100E1,1.300689220E0,-6.613052636E-2,-3.129584789E0
3.854885100E1,8.551415205E-1,6.822492182E-2,-2.659340620E0
3.856885100E1,6.866648793E-1,1.648987085E-1,-1.923736811E0
3.858885100E1,6.429793239E-1,1.680053920E-1,-1.467403054E0
3.860885100E1,5.349434018E-1,1.828057915E-1,-1.331476808E0
3.862885100E1,3.965213597E-1,-3.389429301E-2,-1.049920321E0
3.864885100E1,3.378608227E-1,-3.322583139E-1,-4.436452389E-1
3.866885725E1,2.399653196E-1,-4.187044799E-1,3.775147200E-1
3.869085100E1,1.096066739E-2,-5.642649531E-1,1.245885849E0
3.871085100E1,-2.808409333E-1,-9.427221417E-1,1.998209953E0
3.873085100E1,-6.929480433E-1,-1.078299284E0,2.412865400E0
3.875087131E1,-1.142509937E0,-9.997769594E-1,2.752122402E0
3.877285100E1,-1.557531834E0,-8.515287042E-1,2.790153027E0
3.879285100E1,-1.970581412E0,-5.862211585E-1,2.553521395E0
3.881285100E1,-2.079559803E0,7.681193948E-2,2.692432165E0
3.883285100E1,-1.687698483E0,6.485468745E-1,3.112742424E0
3.885285100E1,-1.119366884E0,7.780677676E-1,3.283487797E0
3.887285100E1,-7.010114789E-1,5.477017760E-1,2.980446339E0
3.889285100E1,-5.116606951E-1,3.058340549E-1,2.594466925E0
3.891285100E1,-5.590638518E-1,1.666091233E-1,2.336472273E0
3.893285100E1,-8.025547266E-1,1.766796857E-1,2.182115316E0
3.895285100E1,-1.245903254E0,3.475474119E-1,2.191627502E0
3.897485100E1,-1.948695064E0,5.166348815E-1,2.301042080E0
3.899485725E1,-2.550606728E0,5.061105490E-1,2.439376831E0
3.901685100E1,-2.734075785E0,4.232946932E-1,2.438766003E0
3.903685100E1,-2.716535091E0,5.904448777E-2,2.240409374E0
3.905685100E1,-2.550117970E0,-3.358013332E-1,1.829105020E0
3.907685100E1,-2.169252157E0,-6.102194786E-1,1.406002283E0
3.909685100E1,-1.658010483E0,-7.818202376E-1,9.371545315E-1
3.911685100E1,-1.251017094E0,-7.289018631E-1,4.144633412E-1
3.913685100E1,-8.541466594E-1,-4.387059510E-1,-5.557128415E-2
3.915685100E1,-6.585476398E-1,-1.123992074E-2,-5.474399924E-1
3.917685100E1,-5.095663071E-1,5.668829679E-1,-9.831090569E-1
3.919685100E1,-7.035422325E-2,1.440978765E0,-1.259726286E0
3.921685100E1,6.796835661E-1,1.700736046E0,-1.445848227E0
3.923685100E1,1.426789165E0,7.487462759E-1,-1.842980385E0
3.925685100E1,1.980180740E0,-4.860742018E-2,-2.521983385E0
3.927685100E1,2.252609253E0,-2.665117681E-1,-3.218125343E0
3.929685100E1,2.492173195E0,3.494149074E-2,-3.476992607E0
3.931685100E1,2.806192636E0,4.242371917E-1,-3.401175499E0
3.933685100E1,3.010186911E0,5.518032908E-1,-3.443377495E0
3.935685100E1,3.019576788E0,4.373271465E-1,-3.752126217E0
3.937685256E1,2.898852348E0,2.119178772E-1,-4.070613861E0
3.939885256E1,2.651172638E0,5.304055661E-2,-4.251430035E0
3.942085256E1,2.186007500E0,1.334129721E-1,-4.278081417E0
3.944285100E1,1.808091283E0,3.494149148E-1,-4.054399967E0
3.946285100E1,1.648638010E0,4.675562382E-1,-3.820211649E0
3.948285100E1,1.567445278E0,5.773723722E-1,-3.514010906E0
3.950285100E1,1.619299054E0,4.622853696E-1,-3.060330153E0
3.952285100E1,1.605283976E0,2.625324130E-1,-2.503203630E0
3.954285100E1,1.618199468E0,-3.185226023E-2,-1.760880113E0
3.956285100E1,1.683125734E0,-5.505117774E-1,-8.763821721E-1
3.958285100E1,1.601112723E0,-9.351124763E-1,-2.092824280E-1
3.960285100E1,1.104985356E0,-9.094735980E-1,1.893856823E-1
3.962285100E1,3.974463642E-1,-6.445500851E-1,5.804266930E-1
3.964285100E1,-3.063227236E-1,-4.188615680E-1,1.018766165E0
3.966285100E1,-8.167442679E-1,-3.966958821E-1,1.502920508E0
3.968285100E1,-1.149351716E0,-5.449441671E-1,2.150559902E0
3.970285100E1,-1.493233919E0,-6.261543036E-1,2.636948109E0
3.972285100E1,-1.868060827E0,-5.961521268E-1,2.991965532E0
3.974285100E1,-2.244057178E0,-3.132517040E-1,3.157667160E0
3.976285100E1,-2.456446171E0,1.216669008E-1,3.204529285E0
3.978285100E1,-2.247844458E0,2.885552943E-1,3.437478304E0
3.980285100E1,-1.656108022E0,1.401324868E-1,3.800349712E0
3.982285100E1,-1.201973319E0,-4.145156965E-2,3.877947092E0
3.984285100E1,-1.091005325E0,-1.661029905E-1,3.566091537E0
3.986285100E1,-9.884322882E-1,-2.843839526E-1,3.237568378E0
3.988285256E1,-8.211948872E-1,-3.406533599E-1,3.097837210E0
3.990486819E1,-6.458067298E-1,-1.862440854E-1,3.028093815E0
3.992685100E1,-6.757565737E-1,-1.888795346E-1,2.947826147E0
3.994685100E1,-9.476613998E-1,-2.601936758E-1,2.686777353E0
3.996685100E1,-1.185078502E0,-2.355670929E-1,2.547971249E0
3.998685100E1,-1.365685225E0,-2.489712238E-1,2.438783407E0
4.000685100E1,-1.382475257E0,-3.780034184E-1,2.326471567E0
4.002685100E1,-1.278540969E0,-5.733231902E-1,2.371343851E0
4.004685100E1,-1.145319939E0,-7.500203252E-1,2.192849159E0
4.006685100E1,-1.007718205E0,-8.195542693E-1,1.889964700E0
4.008685100E1,-9.014276266E-1,-7.078008056E-1,1.535802484E0
4.010685100E1,-1.012552738E0,-4.245688021E-1,1.083116412E0
4.012685100E1,-1.205952644E0,9.918706119E-2,4.618664682E-1
4.014685256E1,-1.227943897E0,8.529598713E-1,-2.338915765E-1
4.016885100E1,-8.917236328E-1,1.638550043E0,-6.818128824E-1
4.018885100E1,-1.499935985E-1,1.843207359E0,-8.611629009E-1
4.020885100E1,7.042403221E-1,9.350078106E-1,-1.292503595E0
4.022885100E1,1.425427794E0,-7.134906203E-2,-1.962395787E0
4.024885100E1,1.797183037E0,-3.925420046E-1,-2.581184864E0
4.026885100E1,2.017775059E0,1.289274693E-1,-3.090594053E0
4.028885881E1,2.362774372E0,8.266228437E-1,-3.426238298E0
4.031085100E1,2.648397446E0,9.768782258E-1,-3.544641495E0
4.033085100E1,2.757986784E0,8.383688927E-1,-3.712315321E0
4.035087131E1,2.700216293E0,5.502324700E-1,-3.852412939E0
4.037087912E1,2.397803068E0,2.541199327E-1,-3.981706858E0
4.039285100E1,1.918745160E0,1.809557378E-1,-3.982893705E0
4.041485569E1,1.388706088E0,4.368384480E-1,-3.776403904E0
4.043485569E1,9.991312027E-1,6.639232635E-1,-3.600596666E0
4.045685100E1,7.582757473E-1,7.074866891E-1,-3.539126396E0
4.047685100E1,7.097904682E-1,5.789431930E-1,-3.440689802E0
4.049685100E1,8.541815877E-1,3.712838888E-1,-3.174893618E0
4.051685100E1,1.145983219E0,1.331686229E-1,-2.715924263E0
4.053685100E1,1.429093003E0,-1.786518991E-1,-2.251911163E0
4.055685100E1,1.510320663E0,-3.546683490E-1,-1.893821836E0
4.057685100E1,1.386314988E0,-3.851592541E-1,-1.420645595E0
4.059685100E1,1.297774434E0,-3.306875229E-1,-6.780080795E-1
4.061685100E1,1.132247448E0,-4.140444696E-1,2.004161626E-1
4.063685100E1,7.179237604E-1,-3.798709214E-1,8.808153272E-1
4.065685100E1,1.959132105E-1,-1.985311955E-1,1.232219934E0
4.067685100E1,-2.698802650E-1,-1.418952644E-1,1.531055212E0
4.069685100E1,-5.897641778E-1,-1.597325355E-1,1.910227895E0
4.071685256E1,-8.159937859E-1,-1.912880838E-1,2.296957970E0
4.073885100E1,-1.219705939E0,-1.900489032E-1,2.442378759E0
4.075885256E1,-1.522433281E0,-1.541300267E-1,2.592826128E0
4.078085100E1,-1.392074585E0,2.724459022E-2,3.170163631E0
4.080085100E1,-9.455670118E-1,2.033657581E-1,3.720710278E0
4.082085100E1,-7.532491684E-1,4.160341322E-1,3.831713200E0
4.084085100E1,-6.299940348E-1,4.657585621E-1,3.485300303E0
4.086085100E1,-3.824540079E-1,4.298397005E-1,3.092269659E0
4.088085100E1,-1.542522013E-1,3.495545387E-1,2.828934431E0
4.090085100E1,-1.709550023E-1,2.224596590E-1,2.603978872E0
4.092085256E1,-3.345621526E-1,1.887399107E-1,2.379372358E0
4.094285100E1,-6.250722408E-1,3.038967252E-1,2.186112165E0
4.096285100E1,-9.253037572E-1,3.097784817E-1,2.239588976E0
4.098285100E1,-1.090080261E0,2.475575060E-1,2.459256172E0
4.100285100E1,-1.053131700E0,8.700466156E-2,2.749678850E0
4.102285100E1,-8.858069777E-1,-1.593136489E-1,2.854573250E0
4.104285100E1,-7.468438148E-1,-5.177868009E-1,2.808479071E0
4.106285100E1,-7.139618397E-1,-6.749013662E-1,2.680145025E0
4.108485100E1,-9.232617021E-1,-7.034898400E-1,2.483882666E0
4.110485100E1,-1.269936442E0,-5.963441133E-1,2.133647442E0
4.112485725E1,-1.727177858E0,-2.013062686E-1,1.426352859E0
4.114485725E1,-2.258909941E0,6.863856316E-1,5.386609435E-1
4.116685100E1,-2.351185322E0,1.576660633E0,-1.903456002E-1
4.118685100E1,-1.518576026E0,1.927646279E0,-3.477045000E-1
4.120685100E1,-3.685437143E-1,1.012587667E0,-6.398028135E-1
4.122685100E1,5.180137157E-1,-4.386535883E-1,-1.279029608E0
4.124685100E1,1.258644223E0,-1.177591085E0,-1.930770516E0
4.126685100E1,1.724263072E0,-7.417649031E-1,-2.698331356E0
4.128687131E1,1.637328267E0,3.924372792E-1,-3.447583675E0
4.130885100E1,1.584619284E0,1.355789185E0,-3.941372395E0
4.132885100E1,1.887992501E0,1.550480723E0,-4.223190784E0
4.134885100E1,2.271371365E0,1.327689409E0,-4.417410851E0
4.136885100E1,2.470967293E0,9.153553843E-1,-4.527366638E0
4.138885256E1,2.374066591E0,4.309043288E-1,-4.386082172E0
4.141085100E1,1.994771719E0,2.380105555E-1,-3.998619080E0
4.143085100E1,1.531613708E0,1.574810594E-1,-3.515511990E0
4.145086975E1,1.202846050E0,1.320865154E-1,-3.108483791E0
4.147285100E1,8.868541718E-1,1.265014708E-1,-2.792422056E0
4.149285100E1,6.618637443E-1,5.248204991E-2,-2.515996933E0
4.151285100E1,5.398128629E-1,-2.125985622E-1,-2.081636667E0
4.153285100E1,5.368458033E-1,-3.794171214E-1,-1.625948668E0
