"Time (s)","Linear Acceleration x (m/s^2)","Linear Acceleration y (m/s^2)","Linear Acceleration z (m/s^2)"
1.200000000E-2,3.263999820E-1,-2.133999914E-1,1.772699952E0
3.200000000E-2,-3.499999940E-1,-3.159999847E-2,1.473599911E0
5.200000000E-2,1.070000008E-1,3.849999979E-2,-3.000000026E-3
7.200156200E-2,7.303000093E-1,3.432999849E-1,-6.696000099E-1
1.020000000E-1,3.244999945E-1,-4.357999861E-1,-5.677999854E-1
1.220000000E-1,-2.205999941E-1,-8.192999959E-1,-1.242999956E-1
1.420015620E-1,-5.415999889E-1,-1.300999969E-1,6.366999745E-1
1.720000000E-1,-1.418999910E0,2.939999998E-1,1.042099953E0
1.920000000E-1,-1.422399998E0,-5.089999735E-2,1.394899964E0
2.120015620E-1,-1.572799921E0,-2.030999959E-1,1.749599934E0
2.420000000E-1,-1.527300000E0,-2.076999992E-1,2.095299959E0
2.620000000E-1,-1.030499935E0,-3.439999819E-1,1.536799908E0
2.820015620E-1,-4.255999923E-1,-2.676999867E-1,7.423999906E-1
3.120000000E-1,5.637999773E-1,-8.799999952E-3,-4.539999962E-1
3.320000000E-1,6.564999819E-1,7.402999997E-1,-8.617999554E-1
3.520000000E-1,2.248999923E-1,1.355399966E0,-7.716000080E-1
3.720000000E-1,2.167999893E-1,1.993299961E0,-1.257799983E0
3.920000000E-1,1.049700022E0,2.092999935E0,-2.192999840E0
4.120000000E-1,1.868999958E0,2.099200010E0,-3.001399994E0
4.320000000E-1,3.408099890E0,1.752799988E0,-2.737200022E0
4.520000000E-1,5.015599728E0,3.193999827E-1,-1.768999934E0
4.720000000E-1,5.164599895E0,7.970000058E-2,-5.550999641E-1
4.920000000E-1,3.673899889E0,2.025000006E-1,8.471999764E-1
5.120000000E-1,2.321599960E0,4.921000004E-1,2.670399904E0
5.320000000E-1,1.916599989E0,1.709000021E-1,3.456399918E0
5.520000000E-1,2.545300007E0,-4.904999733E-1,3.984200001E0
5.720015620E-1,3.081899881E0,-1.399599910E0,3.542899847E0
6.020000000E-1,3.693099976E0,-2.200599909E0,2.665099859E0
6.220000000E-1,2.486999989E0,-2.184799910E0,1.891499996E0
6.420000000E-1,2.473099947E0,-2.071399927E0,9.840999842E-1
6.620000000E-1,2.986599922E0,-2.797499895E0,5.949999690E-1
6.820000000E-1,1.374099970E0,-2.818099976E0,5.845999718E-1
7.020000000E-1,1.328199983E0,-2.208400011E0,-9.075999856E-1
7.220000000E-1,1.389099956E0,-2.455800056E0,-2.215499878E0
7.420000000E-1,8.736000061E-1,-2.329200029E0,-3.530299902E0
7.620000000E-1,7.224000096E-1,-1.862299919E0,-4.076200008E0
7.820015620E-1,5.999999866E-2,-1.485899925E0,-4.818799973E0
8.119984370E-1,-6.304999590E-1,-1.132099986E0,-4.865799904E0
8.320000000E-1,-5.331000090E-1,-1.377900004E0,-4.971799850E0
8.520000000E-1,-2.490999997E-1,-1.380699992E0,-5.230700016E0
8.720000000E-1,-7.577999830E-1,-1.098699927E0,-4.522299767E0
8.920000000E-1,-1.715299964E0,-7.957999706E-1,-3.734299898E0
9.120000000E-1,-1.505299926E0,-1.178799987E0,-3.040299892E0
9.320000000E-1,-1.029899955E0,-1.766799927E0,-2.395599842E0
9.520000000E-1,7.379999757E-2,-1.650599957E0,-1.776699901E0
9.720015620E-1,7.903999686E-1,-1.253000021E0,-1.521399975E0
1.002001562E0,1.517399907E0,-6.493999958E-1,-2.984200001E0
1.032000000E0,1.490700006E0,-5.356000066E-1,-2.351999998E0
1.052000000E0,1.448699951E0,-9.377999902E-1,-1.822600007E0
1.072001562E0,1.356400013E0,-8.337000012E-1,-1.777599931E0
1.102000000E0,6.171000004E-1,-1.021600008E0,-2.080399990E0
1.122000000E0,-2.269999869E-2,-9.267999530E-1,-1.819199920E0
1.142000000E0,2.838000059E-1,-7.745999694E-1,-1.981499910E0
1.162000000E0,9.473999739E-1,-1.016899943E0,-1.961299896E0
1.182000000E0,1.113999963E0,-1.502699971E0,-9.753999710E-1
1.202000000E0,7.259999961E-2,-4.824999869E-1,-2.159999907E-1
1.222001562E0,3.414999843E-1,3.299999833E-1,-6.901999712E-1
1.252001562E0,3.073999882E-1,4.553000033E-1,-1.018599987E0
1.272001562E0,9.354999661E-1,-1.116999984E-1,-8.102999926E-1
1.292001562E0,1.261500001E0,-7.177999616E-1,-1.189999953E-1
1.322000000E0,2.101399899E0,-2.126199961E0,2.420500040E0
1.342000000E0,1.528100014E0,-1.943099976E0,4.306299686E0
1.362001562E0,5.138999820E-1,-1.131600022E0,4.043900013E0
1.392000000E0,-1.931999922E-1,-1.735799909E0,2.789399862E0
1.412000000E0,2.586999834E-1,-2.484499931E0,1.548699975E0
1.432001562E0,-2.635999918E-1,-2.860999823E0,-1.519999951E-1
1.462000000E0,7.193999887E-1,-1.969399929E0,-1.460600019E0
1.482001562E0,1.375499964E0,-1.545399904E0,-3.401599884E0
1.502001562E0,7.951999903E-1,-1.419699907E0,-3.379899979E0
1.522009375E0,5.435000062E-1,-9.821999669E-1,-2.136499882E0
1.552001562E0,-1.104300022E0,1.563399911E0,-5.352499962E0
1.582000000E0,-2.556699991E0,2.369999886E-1,-2.001100063E0
1.602000000E0,-2.963399887E0,1.185599923E0,-3.098999858E-1
1.622000000E0,-1.960599899E0,6.306999922E-1,-7.798999548E-1
1.642000000E0,3.105999827E-1,-3.199999919E-3,-2.064599991E0
1.662000000E0,9.386000037E-1,9.539999813E-2,-3.110999823E0
1.682000000E0,6.962999701E-1,5.227000117E-1,-3.478099823E0
1.702000000E0,2.529999912E-1,1.240399957E0,-4.050399780E0
1.722000000E0,7.157999873E-1,1.521199942E0,-3.921000004E0
1.742000000E0,1.216599941E0,1.867799997E0,-3.675899982E0
1.762000000E0,1.792699933E0,1.672299981E0,-2.763499975E0
1.782001562E0,2.206199884E0,1.360199928E0,-1.866999984E0
1.802001562E0,2.058199883E0,6.193000078E-1,-9.124999642E-1
1.832000000E0,2.025199890E0,2.799999900E-3,8.885999918E-1
1.852000000E0,3.376299858E0,-1.032500029E0,1.604599953E0
1.872000000E0,4.262000084E0,-2.522099972E0,2.090600014E0
1.892000000E0,3.439899921E0,-3.475699902E0,3.111999989E0
1.912000000E0,2.138999939E0,-2.806900024E0,4.394999981E0
1.932000000E0,1.065099955E0,-2.464599848E0,5.362899780E0
1.952000000E0,7.577999830E-1,-1.944199920E0,6.203799725E0
1.972000000E0,8.749999851E-2,-9.062999487E-1,6.982399940E0
1.992000000E0,-7.141999602E-1,-1.159999967E-1,7.564799786E0
2.012000000E0,-4.472999871E-1,-1.432999969E-1,7.950099945E0
2.032000000E0,7.295999527E-1,-1.144400001E0,7.983799934E0
2.052000000E0,1.464800000E0,-1.829199910E0,7.625899792E0
2.072000000E0,1.914399981E0,-2.583799839E0,6.928099632E0
2.092000000E0,1.780999899E0,-3.285300016E0,6.132899761E0
2.112000000E0,1.372900009E0,-4.785199642E0,5.295399666E0
2.132000000E0,7.985999584E-1,-5.697299957E0,5.205299854E0
2.152000000E0,1.011600018E0,-5.914499760E0,6.568299770E0
2.172000000E0,2.121500015E0,-6.168900013E0,7.633999825E0
2.192000000E0,2.605399847E0,-5.439899921E0,6.158199787E0
2.212000000E0,2.689399958E0,-4.782000065E0,4.857299805E0
2.242000000E0,3.526499987E0,-5.846600056E0,3.915299892E0
2.262000000E0,4.009900093E0,-7.072399616E0,2.270799875E0
2.282000000E0,4.107500076E0,-7.768599987E0,8.999999762E-1
2.302000000E0,4.451099873E0,-8.352899551E0,4.869000018E-1
2.322000000E0,5.128499985E0,-8.882100105E0,-3.847000003E-1
2.352000000E0,4.595399857E0,-8.814000130E0,-3.520599842E0
2.372000000E0,2.808799982E0,-7.438399792E0,-4.754600048E0
2.392000000E0,1.412799954E0,-6.423199654E0,-4.831199646E0
2.412000000E0,6.098999977E-1,-5.771999836E0,-4.809299946E0
2.432000000E0,-3.217000067E-1,-5.570999622E0,-4.963999748E0
2.452000000E0,-1.037500024E0,-5.737099648E0,-4.058799744E0
2.472000000E0,-1.525900006E0,-5.895400047E0,-3.350999832E0
2.492000000E0,-1.603899956E0,-6.380599976E0,-3.639199972E0
2.512000000E0,-1.252599955E0,-6.787899971E0,-3.813399792E0
2.532000000E0,-1.475600004E0,-6.685799599E0,-3.919699907E0
2.552000000E0,-1.857999921E0,-6.938099861E0,-3.894799948E0
2.572000000E0,-1.732699990E0,-7.940999985E0,-4.394400120E0
2.592000000E0,-1.404999971E0,-8.764699936E0,-4.789299965E0
2.612000000E0,-1.136099935E0,-8.363699913E0,-4.720200062E0
2.632000000E0,-8.180999756E-1,-8.155699730E0,-5.027699947E0
2.652000000E0,-5.015000105E-1,-8.991899490E0,-5.576999664E0
2.672000000E0,-7.597000003E-1,-9.064799309E0,-5.597799778E0
2.692000000E0,-1.556999922E0,-7.905699730E0,-5.318899632E0
2.712000000E0,-1.964199901E0,-6.408699989E0,-5.087599754E0
2.732000000E0,-1.907199979E0,-4.412600040E0,-5.260799885E0
2.752000000E0,-1.812899947E0,-2.917899847E0,-5.141499996E0
2.772000000E0,-2.003999949E0,-2.236999989E0,-5.057499886E0
2.792000000E0,-2.349200010E0,-2.656399965E0,-4.785099983E0
2.812000000E0,-1.787299991E0,-3.273399830E0,-4.147900105E0
2.832000000E0,-1.836999953E-1,-3.288499832E0,-4.139800072E0
2.852000000E0,1.446799994E0,-3.669499874E0,-5.200599670E0
2.872000000E0,2.388999939E0,-3.945099831E0,-5.860699654E0
2.892000000E0,2.583400011E0,-3.363999844E0,-5.187299728E0
2.922000000E0,4.743299961E0,-2.860999823E0,-2.865700006E0
2.942000000E0,6.028800011E0,-2.382400036E0,-1.189700007E0
2.962000000E0,6.534899712E0,-8.743000031E-1,9.642999768E-1
2.982000000E0,7.574499607E0,1.180599928E0,2.787299871E0
3.002000000E0,1.001819992E1,2.697099924E0,4.478600025E0
3.022000000E0,1.117149925E1,3.265599966E0,4.435800076E0
3.042000000E0,9.828700066E0,4.692999840E0,5.368700027E0
3.062000000E0,7.928899765E0,5.936500072E0,7.031299591E0
3.082000000E0,6.845699787E0,6.619400024E0,7.834599972E0
3.102000000E0,6.796299934E0,4.142600060E0,8.967499733E0
3.122000000E0,5.680199623E0,1.781799912E0,1.067949963E1
3.142000000E0,4.388199806E0,9.623000026E-1,1.247519970E1
3.162000000E0,4.308000088E0,1.143499970E0,1.221299934E1
3.182000000E0,5.111299992E0,6.658999920E-1,1.033729935E1
3.202000000E0,7.230099678E0,-1.048200011E0,8.905599594E0
3.222000000E0,7.828699589E0,-2.205699921E0,8.356999397E0
3.252000000E0,4.937999725E0,-7.888999581E-1,1.074450016E1
3.272000000E0,3.102399826E0,-1.140999943E-1,1.013379955E1
3.292000000E0,3.604499817E0,-1.451099992E0,8.665499687E0
3.312000000E0,5.191099644E0,-3.502799988E0,7.265399933E0
3.332000000E0,6.969999790E0,-4.968499660E0,6.724199772E0
3.362000000E0,1.119549942E1,-8.984600067E0,5.934000015E0
3.382000000E0,1.293330002E1,-1.105599976E1,5.017799854E0
3.402000000E0,1.040699959E1,-1.063589954E1,2.935299873E0
3.422000000E0,4.962100029E0,-9.479999542E0,3.364000022E-1
3.442000000E0,1.806999892E-1,-6.955499649E0,-1.512499928E0
3.462000000E0,-2.339499950E0,-4.681799889E0,-2.266700029E0
3.482000000E0,-2.443399906E0,-4.488800049E0,-2.767400026E0
3.502000000E0,-1.900900006E0,-4.344999790E0,-3.046499968E0
3.522000000E0,-1.493699908E0,-5.008299828E0,-3.421099901E0
3.542000000E0,-1.524500012E0,-5.369299889E0,-3.583699942E0
3.562000000E0,-1.430599928E0,-5.723799706E0,-3.509999990E0
3.582000000E0,-5.238000154E-1,-5.944499969E0,-3.857199907E0
3.602000000E0,1.392300010E0,-7.418099880E0,-4.120100021E0
3.622000000E0,3.490599871E0,-9.658899307E0,-4.914899826E0
3.642000000E0,3.984099865E0,-1.135610008E1,-6.277599812E0
3.662000000E0,2.161700010E0,-1.132199955E1,-6.020899773E0
3.682000000E0,-1.043999940E-1,-1.078199959E1,-5.258899689E0
3.702000000E0,-1.833400011E0,-9.792599678E0,-4.494199753E0
3.722000000E0,-2.445099831E0,-8.819399834E0,-4.542799950E0
3.742000000E0,-1.483600020E0,-8.737999916E0,-5.655600071E0
3.762000000E0,-1.058099985E0,-7.565599918E0,-7.506199837E0
3.782000000E0,-2.109099865E0,-5.278599739E0,-9.056699753E0
3.802000000E0,-2.949499846E0,-3.930499792E0,-1.016189957E1
3.832000000E0,-3.355999887E-1,-6.999699593E0,-8.953700066E0
3.852000000E0,1.260499954E0,-9.482099533E0,-7.568999767E0
3.872000000E0,1.253399968E0,-1.036619949E1,-5.652699947E0
3.892000000E0,1.944999993E-1,-9.194499969E0,-3.111299992E0
3.912000000E0,-2.825999856E-1,-7.677899837E0,-7.996999621E-1
3.932000000E0,3.079999983E-1,-6.286599636E0,9.390999675E-1
3.952000000E0,7.310000062E-1,-5.614199638E0,1.075199962E0
3.972000000E0,2.079999894E-1,-4.314499855E0,5.550000072E-1
3.992000000E0,-1.219999976E-2,-3.272799969E0,2.215999961E-1
4.012000000E0,4.129000008E-1,-3.005699873E0,-9.145999551E-1
4.032000000E0,6.553999782E-1,-2.508699894E0,-1.501199961E0
4.052000000E0,7.215999961E-1,-1.029199958E0,-1.722899914E0
4.072000000E0,2.247400045E0,-4.113999903E-1,-1.797599912E0
4.092000000E0,4.454599857E0,-1.913999915E-1,-1.972399950E0
4.112000000E0,6.615699768E0,3.798999786E-1,-2.026599884E0
4.132000000E0,7.712599754E0,6.473999619E-1,-2.206899881E0
4.152000000E0,7.869599819E0,1.006099939E0,-2.397199869E0
4.172000000E0,8.980899811E0,9.728999734E-1,-8.489999771E-1
4.192000000E0,1.048639965E1,8.644999862E-1,1.613799930E0
4.212000000E0,1.170879936E1,9.452999830E-1,3.539599895E0
4.232000000E0,1.224219990E1,1.147499919E0,5.336400032E0
4.252000000E0,1.301769924E1,5.206999779E-1,7.006199837E0
4.282000000E0,1.176299953E1,1.834499955E0,1.027839947E1
4.302000000E0,1.074100018E1,2.529399872E0,1.230139923E1
4.332000000E0,1.106669998E1,-1.475099921E0,1.031909943E1
4.352000000E0,1.098329926E1,-3.848299980E0,8.704199791E0
4.372000000E0,9.136799812E0,-3.696399927E0,7.106699944E0
4.392000000E0,6.786399841E0,-2.160199881E0,6.503299713E0
4.412000000E0,5.361000061E0,-1.340399981E0,5.571700096E0
4.432000000E0,4.217599869E0,-1.106199980E0,5.100500107E0
4.452000000E0,3.054499865E0,-9.680999517E-1,4.793799877E0
4.472000000E0,2.094199896E0,-1.190400004E0,4.647900105E0
4.492000000E0,1.492900014E0,-1.916799903E0,4.376199722E0
4.512000000E0,1.435999990E0,-2.866400003E0,3.709899902E0
4.532000000E0,1.651899934E0,-4.435299873E0,2.417799950E0
4.552000000E0,1.413800001E0,-6.060100079E0,1.443899989E0
4.572000000E0,5.539000034E-1,-6.924900055E0,9.981999993E-1
4.592000000E0,3.425000012E-1,-8.428400040E0,1.326399922E0
4.622000000E0,5.020000041E-2,-1.072149944E1,1.884400010E0
4.642000000E0,-8.359999657E-1,-1.110120010E1,2.089699984E0
4.662000000E0,-2.076200008E0,-1.104839993E1,1.271700025E0
4.682000000E0,-2.404999971E0,-1.178030014E1,2.060000002E-1
4.702000000E0,-3.081899881E0,-1.225909996E1,-8.728999496E-1
4.722000000E0,-4.969099998E0,-1.104419994E1,-1.386899948E0
4.742000000E0,-6.960299969E0,-8.707399368E0,-1.487200022E0
4.762000000E0,-7.179399967E0,-7.411999702E0,-1.027799964E0
4.782000000E0,-5.628099918E0,-7.798699856E0,-6.169999838E-1
4.802000000E0,-5.000000000E0,-7.034199715E0,-2.499999944E-3
4.822000000E0,-4.045099735E0,-6.921399593E0,5.507999659E-1
4.842000000E0,-2.878299952E0,-7.342000008E0,4.802999794E-1
4.862000000E0,-1.913199902E0,-8.271800041E0,-3.764999807E-1
4.882001562E0,-1.177999973E0,-9.027400017E0,-1.458599925E0
4.912000000E0,-3.673000038E-1,-8.725299835E0,-3.111799955E0
4.932000000E0,-1.764199972E0,-5.600800037E0,-3.244499922E0
4.952000000E0,-2.811499834E0,-4.021399975E0,-2.274899960E0
4.972000000E0,-3.643800020E0,-3.025899887E0,-9.809999913E-2
4.992000000E0,-4.200299740E0,-2.408299923E0,1.730999947E0
5.012000000E0,-4.641200066E0,-1.196599960E0,2.731099844E0
5.032000000E0,-4.497699738E0,2.915000021E-1,3.332799911E0
5.052000000E0,-3.154199839E0,6.351999640E-1,2.867899895E0
5.072001562E0,-1.336099982E0,4.079999775E-2,1.396699905E0
5.092001562E0,-2.741000056E-1,1.039000005E-1,6.570000052E-1
5.112001562E0,9.333999753E-1,1.312000006E-1,2.213999927E-1
5.132001562E0,3.827999830E0,-2.152999938E-1,4.910000041E-2
5.162000000E0,8.856999397E0,-6.662999988E-1,-4.370999932E-1
5.182000000E0,1.189540005E1,-1.204100013E0,-1.635499954E0
5.202000000E0,1.347029972E1,-9.512999654E-1,-2.137699842E0
5.222000000E0,1.310349941E1,6.505999565E-1,-1.252200007E0
5.242000000E0,1.234739971E1,1.876599908E0,3.384999931E-1
5.262000000E0,1.214989948E1,3.129799843E0,2.341899872E0
5.292000000E0,1.290049934E1,3.259399891E0,3.284999847E0
5.312000000E0,1.167819977E1,3.844099998E0,4.860599995E0
5.332000000E0,1.056929970E1,3.678799868E0,7.819699764E0
5.352000000E0,1.148679924E1,1.188300014E0,8.975500107E0
5.372000000E0,1.373559952E1,-3.980199814E0,7.273200035E0
5.402000000E0,1.358409977E1,-8.322299957E0,4.052099705E0
5.422000000E0,9.936299324E0,-5.945799828E0,2.360599995E0
5.442000000E0,6.974099636E0,-4.513700008E0,1.197199941E0
5.472000000E0,4.314199924E0,-4.349299908E0,1.621999890E-1
5.492000000E0,2.675099850E0,-4.251199722E0,-3.534999788E-1
5.512000000E0,5.108000040E-1,-3.723799944E0,-5.720999837E-1
5.532000000E0,-1.082000017E0,-3.487200022E0,-1.506599903E0
5.552000000E0,-2.379699945E0,-3.062799931E0,-2.596799850E0
5.572000000E0,-2.125699997E0,-3.495399952E0,-3.467599869E0
5.592000000E0,-6.036999822E-1,-4.840499878E0,-3.539299965E0
5.612000000E0,4.761999846E-1,-6.407499790E0,-3.530200005E0
5.632000000E0,4.131999910E-1,-7.129099846E0,-4.185199738E0
5.652000000E0,6.843999624E-1,-7.397500038E0,-5.101200104E0
5.672000000E0,1.641199946E0,-8.034799576E0,-5.729499817E0
5.692001562E0,2.331300020E0,-8.835100174E0,-6.132499695E0
5.722001562E0,1.146499991E0,-7.134399891E0,-4.658899784E0
5.752000000E0,2.147699833E0,-4.916399956E0,-1.666099906E0
5.772000000E0,3.037400007E0,-4.197400093E0,-1.617900014E0
5.792000000E0,3.444499969E0,-4.735499859E0,-3.298699856E0
5.812000000E0,2.655499935E0,-3.806299925E0,-4.762199879E0
5.832000000E0,2.723099947E0,-3.778199911E0,-5.147799969E0
5.852000000E0,3.217199802E0,-5.257699966E0,-5.963399887E0
5.872000000E0,3.034499884E0,-5.602499962E0,-5.585199833E0
5.892000000E0,2.342900038E0,-4.161999702E0,-3.726300001E0
5.912000000E0,2.758800030E0,-3.622900009E0,-3.126699924E0
5.932000000E0,4.060999870E0,-4.821899891E0,-2.549899817E0
5.962000000E0,1.588499904E0,-2.750599861E0,-1.918399930E0
5.982000000E0,5.141999722E-1,-1.642300010E0,-2.760200024E0
6.002000000E0,-2.621999979E-1,-1.687399983E0,-4.046799660E0
6.022000000E0,-1.932899952E0,-1.187799931E0,-4.989799976E0
6.042000000E0,-2.654199839E0,-6.348999739E-1,-5.220999718E0
6.062000000E0,-1.755499959E0,-1.283599973E0,-5.152699947E0
6.082000000E0,-2.182199955E0,-1.134099960E0,-5.117399693E0
6.102000000E0,-2.398999929E0,-1.187399983E0,-5.311999798E0
6.122000000E0,-2.014099836E0,-1.551699996E0,-5.137599945E0
6.142000000E0,-1.028599977E0,-2.471600056E0,-4.546199799E0
6.162000000E0,5.931999683E-1,-3.137699842E0,-3.440599918E0
6.182000000E0,3.124799967E0,-3.996299982E0,-2.241400003E0
6.202000000E0,5.812299728E0,-5.393099785E0,-2.469799995E0
6.222000000E0,8.814299583E0,-6.483799934E0,-1.480299950E0
6.242000000E0,1.148600006E1,-8.625299454E0,1.097999930E0
6.262000000E0,1.267369938E1,-9.385999680E0,4.906999767E-1
6.282000000E0,1.064919949E1,-9.874099731E0,-1.218500018E0
6.302000000E0,7.958599567E0,-1.194950008E1,3.010999858E-1
6.332000000E0,3.745199919E0,-7.892899990E0,1.021049976E1
6.352000000E0,3.135200024E0,-5.729899883E0,1.373880005E1
6.372000000E0,5.606800079E0,-4.759599686E0,1.551249981E1
6.392000000E0,8.486700058E0,-5.800499916E0,1.581040001E1
6.412000000E0,7.242499828E0,-4.881899834E0,1.370059967E1
6.432000000E0,5.091000080E0,-2.886899948E0,1.200589943E1
6.452000000E0,3.495899916E0,-1.311900020E0,1.047489929E1
6.472000000E0,2.056200027E0,-3.458999991E-1,1.046430016E1
6.492000000E0,9.030999541E-1,5.500999689E-1,1.032579994E1
6.512000000E0,2.460999936E-1,7.698000073E-1,8.764900208E0
6.532000000E0,-3.790999949E-1,5.242999792E-1,6.799099922E0
6.552000000E0,-1.275699973E0,1.879699945E0,4.914199829E0
6.572001562E0,-8.686999679E-1,2.433699846E0,1.727499962E0
6.602000000E0,2.122200012E0,6.384999752E-1,-1.713899970E0
6.622000000E0,9.878000021E-1,7.705999613E-1,-1.109499931E0
6.642000000E0,5.399999674E-3,5.008999705E-1,-8.914999962E-1
6.662000000E0,2.972999811E-1,-6.737999916E-1,-1.576399922E0
6.682000000E0,1.253399968E0,-3.277999878E0,-2.479799986E0
6.702000000E0,1.012799978E0,-4.627799988E0,-2.693699837E0
6.722000000E0,3.069999814E-1,-5.445600033E0,-3.103399992E0
6.742000000E0,-5.430999994E-1,-6.134399891E0,-3.812199831E0
6.762000000E0,-1.003600001E0,-6.329899788E0,-4.122999668E0
6.782000000E0,-1.732100010E0,-6.583999634E0,-5.149300098E0
6.802000000E0,-2.411000013E0,-6.783999920E0,-5.896999836E0
6.822000000E0,-2.785599947E0,-6.585000038E0,-6.917699814E0
6.842000000E0,-4.446499825E0,-3.812199831E0,-5.921099663E0
6.862000000E0,-4.961999893E0,-2.627699852E0,-4.172499657E0
6.882000000E0,-4.169699669E0,-2.874199867E0,-2.616699934E0
6.902000000E0,-1.868899941E0,-3.844399929E0,-1.445099950E0
6.922000000E0,1.174000025E0,-4.464099884E0,-4.755999744E-1
6.942000000E0,3.878899813E0,-5.662699699E0,-1.125000000E0
6.962000000E0,4.061100006E0,-4.994299889E0,-2.139999866E0
6.982000000E0,1.296700001E0,-2.458299875E0,-1.323199987E0
7.002000000E0,-1.599299908E0,5.939999968E-2,5.794000030E-1
7.022000000E0,-2.932099819E0,2.474099874E0,2.220900059E0
7.042000000E0,-2.806799889E0,3.607299805E0,3.136699915E0
7.062000000E0,-2.099799871E0,3.873999834E0,3.219899893E0
7.082000000E0,-1.463699937E0,3.891799927E0,3.668599844E0
7.102000000E0,-1.063400030E0,3.742899895E0,4.370199680E0
7.122000000E0,-5.564000010E-1,4.010099888E0,4.906799793E0
7.142000000E0,-3.768000007E-1,3.566399813E0,5.229199886E0
7.162001562E0,-9.669999778E-2,3.420499802E0,5.771699905E0
7.192000000E0,2.348299980E0,2.743999958E0,5.543099880E0
7.212000000E0,3.958199978E0,2.282899857E0,5.721699715E0
7.232000000E0,5.023399830E0,2.391799927E0,6.265899658E0
7.252000000E0,6.057699680E0,1.779799938E0,5.888499737E0
7.272003125E0,6.096099854E0,1.956799984E0,5.331799984E0
7.302000000E0,5.673999786E0,2.167399883E0,4.629099846E0
7.322000000E0,6.467899799E0,8.784999847E-1,4.403199673E0
7.342000000E0,6.529199600E0,-4.690000042E-2,4.966799736E0
7.362000000E0,5.714200020E0,-1.092000008E-1,6.229399681E0
7.382000000E0,5.807799816E0,-1.381699920E0,6.217599869E0
7.402000000E0,7.271599770E0,-3.882699966E0,5.009099960E0
7.422000000E0,8.948599815E0,-6.656099796E0,3.411799908E0
7.442000000E0,8.887999535E0,-7.857499599E0,2.513900042E0
7.462000000E0,6.861999989E0,-6.155600071E0,1.934999943E0
7.482000000E0,5.756899834E0,-5.609699726E0,1.708400011E0
7.502001562E0,4.132699966E0,-5.698400021E0,7.440999746E-1
7.532000000E0,-5.317000151E-1,-4.715699673E0,-1.517499924E0
7.552000000E0,-4.108599663E0,-3.069099903E0,-1.918199897E0
7.572000000E0,-6.374799728E0,-2.276599884E0,-1.411899924E0
7.592000000E0,-7.320999622E0,-1.879299998E0,-5.579999685E-1
7.612000000E0,-7.072399616E0,-2.383299828E0,-1.404999942E-1
7.632000000E0,-6.662600040E0,-3.117699862E0,-1.367999911E-1
7.652000000E0,-6.057499886E0,-3.806299925E0,-2.529999986E-2
7.672000000E0,-5.252699852E0,-4.649399757E0,-4.102999866E-1
7.692000000E0,-4.689799786E0,-5.163399696E0,-5.038999915E-1
7.712000000E0,-3.970299959E0,-5.568299770E0,-3.479999900E-1
7.732000000E0,-2.600999832E0,-6.907700062E0,-5.013999939E-1
7.752000000E0,-1.034799933E0,-8.507499695E0,-4.921999872E-1
7.772000000E0,-9.349999577E-2,-9.377399445E0,-7.364999652E-1
7.792000000E0,-2.901999950E-1,-9.286699295E0,-9.949999452E-1
7.812000000E0,-1.801499963E0,-8.569199562E0,-1.119400024E0
7.832000000E0,-2.549499989E0,-9.164500237E0,-8.272999525E-1
7.852000000E0,-2.961400032E0,-9.140199661E0,-3.107999861E-1
7.872000000E0,-3.268299818E0,-7.353399754E0,-1.895999908E-1
7.892000000E0,-3.313199997E0,-5.367499828E0,-1.340999901E-1
7.912000000E0,-2.208699942E0,-5.000899792E0,5.177000165E-1
7.932000000E0,2.850000001E-2,-7.156599998E0,6.524999738E-1
7.952000000E0,1.414099932E0,-7.965899944E0,4.645999968E-1
7.972000000E0,1.962899923E0,-6.909399986E0,3.473999798E-1
7.992000000E0,2.350899935E0,-5.150300026E0,4.423999786E-1
8.012000000E0,2.567299843E0,-4.711299896E0,4.380999804E-1
8.032000000E0,1.634999990E0,-3.881999969E0,1.303300023E0
8.052001562E0,5.137999654E-1,-2.343699932E0,1.880199909E0
8.072001562E0,5.759999752E-1,-7.910999656E-1,2.575299978E0
8.092001562E0,1.113600016E0,5.860999823E-1,1.730999947E0
8.122000000E0,2.246000051E0,1.497299910E0,3.325999975E-1
8.142001562E0,2.222499847E0,1.659999967E0,5.766999722E-1
8.162001562E0,1.961699963E0,2.004099846E0,1.690999985E0
8.182001562E0,2.301300049E0,2.407699823E0,2.941999912E0
8.212000000E0,4.835499763E0,2.565899849E0,4.135699749E0
8.232000000E0,6.279500008E0,2.897199869E0,4.675099850E0
8.252000000E0,6.305199623E0,3.023900032E0,4.633299828E0
8.272000000E0,7.741199970E0,4.281199932E0,5.355400085E0
8.292000000E0,9.274299622E0,3.973199844E0,5.571199894E0
8.312000000E0,1.014319992E1,4.128200054E0,6.316299915E0
8.332000000E0,9.861499786E0,4.520999908E0,7.878599644E0
8.352000000E0,9.610799789E0,2.814999819E0,8.566399574E0
8.372000000E0,8.392999649E0,2.205199957E0,8.805500031E0
8.392000000E0,7.655900002E0,2.527699947E0,9.138899803E0
8.412000000E0,8.521900177E0,5.690000057E-1,8.406199455E0
8.432000000E0,1.008679962E1,-2.327899933E0,7.906499863E0
8.452000000E0,1.030079937E1,-4.604799747E0,6.536900043E0
8.472000000E0,9.908899307E0,-5.577799797E0,5.020199776E0
8.492000000E0,7.789700031E0,-4.782700062E0,3.644500017E0
8.512000000E0,7.288399696E0,-4.883899689E0,2.555599928E0
8.532000000E0,6.854199886E0,-4.852499962E0,1.479200006E0
8.552000000E0,5.223899841E0,-4.534899712E0,7.360999584E-1
8.572000000E0,2.878399849E0,-3.960599899E0,5.831999779E-1
8.592000000E0,7.771999836E-1,-3.843599796E0,6.841999888E-1
8.622000000E0,-2.043999910E0,-4.120299816E0,1.561299920E0
8.642000000E0,-2.779099941E0,-4.666699886E0,2.009700060E0
8.662000000E0,-3.064800024E0,-5.305200100E0,1.928999901E0
8.692000000E0,-3.298399925E0,-5.834399700E0,1.971899986E0
8.712000000E0,-2.907899857E0,-6.953799725E0,1.257699966E0
8.732000000E0,-3.166999817E0,-7.180899620E0,1.633499980E0
8.752000000E0,-3.827099800E0,-7.529599667E0,1.510900021E0
8.772000000E0,-3.995499849E0,-8.236299515E0,1.663299918E0
8.792000000E0,-3.554899931E0,-9.159500122E0,1.967499971E0
8.812000000E0,-3.265899897E0,-8.905900002E0,2.239199877E0
8.832000000E0,-3.014799833E0,-8.509399414E0,1.969199896E0
8.852000000E0,-2.467900038E0,-9.017799377E0,1.444800019E0
8.872000000E0,-2.123399973E0,-9.723199844E0,1.192600012E0
8.892000000E0,-3.749399900E0,-8.308400154E0,1.551800013E0
8.912000000E0,-5.489099979E0,-6.475299835E0,2.055199862E0
8.932000000E0,-6.226500034E0,-4.939599991E0,2.813400030E0
8.952000000E0,-4.217700005E0,-6.269000053E0,2.888900042E0
8.972000000E0,-1.690400004E0,-7.930799961E0,1.589900017E0
8.992000000E0,2.321999967E-1,-8.436699867E0,8.586999774E-1
9.012000000E0,5.065999627E-1,-7.105000019E0,-1.340000033E-1
9.032000000E0,2.637999952E-1,-5.677899837E0,2.300000004E-2
9.052000000E0,2.469999902E-2,-4.782599926E0,8.277999759E-1
9.072001562E0,-6.640999913E-1,-3.968899965E0,1.971399903E0
9.102000000E0,-1.728599906E0,-2.496500015E0,2.146499872E0
9.122000000E0,-1.844999909E0,-1.315699935E0,1.939799905E0
9.142000000E0,-1.024299979E0,-1.080199957E0,1.485799909E0
9.162000000E0,1.329999976E-2,-7.680999637E-1,7.468000054E-1
9.182000000E0,4.278999865E-1,2.184000015E-1,6.969999522E-2
9.202000000E0,1.158900023E0,1.006500006E0,-1.300599933E0
9.222000000E0,3.325999975E0,1.004999995E0,-2.740700006E0
9.242000000E0,5.307600021E0,1.289600015E0,-2.449199915E0
9.262003125E0,7.384099960E0,1.692199945E0,-2.064899921E0
9.292001562E0,9.881400108E0,1.592700005E0,-1.662099957E0
9.322000000E0,1.135319996E1,2.677700043E0,2.249799967E0
9.342000000E0,1.347459984E1,3.518899918E0,4.721499920E0
9.362000000E0,1.528659916E1,4.602099895E0,6.062799931E0
9.382000000E0,1.672309875E1,2.931900024E0,6.808599949E0
9.402001562E0,1.454809952E1,1.540199995E0,9.392999649E0
9.432000000E0,8.505700111E0,1.717299938E0,1.223530006E1
9.461998437E0,9.569399834E0,-4.171700001E0,9.286999702E0
9.482000000E0,1.022959995E1,-7.030799866E0,6.567299843E0
9.502000000E0,8.959099770E0,-6.390299797E0,4.799399853E0
9.522000000E0,6.311399937E0,-4.061599731E0,4.428800106E0
9.552000000E0,2.573600054E0,-2.060299873E0,2.511399984E0
9.572001562E0,2.255999893E-1,-4.916999936E-1,1.954499960E0
9.592001562E0,-1.507200003E0,1.931999922E-1,2.360199928E0
9.622000000E0,-4.030999660E0,1.679600000E0,2.934599876E0
9.642000000E0,-5.476599693E0,3.830999851E0,2.938999891E0
9.662000000E0,-3.532199860E0,2.288599968E0,2.673399925E0
9.682000000E0,6.445999742E-1,-3.244899988E0,1.067199945E0
9.702000000E0,2.405400038E0,-8.411600113E0,4.273999929E-1
9.722000000E0,1.494899988E0,-1.097329998E1,1.332999915E-1
9.742000000E0,-1.709000021E-1,-1.091809940E1,4.596000016E-1
9.762000000E0,-1.045300007E0,-1.176959991E1,2.217999995E-1
9.782000000E0,-2.636499882E0,-1.164289951E1,6.561999917E-1
9.802000000E0,-4.775300026E0,-9.764100075E0,1.578199983E0
9.822000000E0,-5.108500004E0,-8.922699928E0,3.003599882E0
9.842000000E0,-5.253200054E0,-7.666599751E0,4.502299786E0
9.862000000E0,-2.727399826E0,-8.646900177E0,5.073800087E0
9.882000000E0,-4.524999857E-1,-9.616799355E0,2.749399900E0
9.902000000E0,-2.473399878E0,-7.124499798E0,3.360999823E-1
9.922000000E0,-5.598799706E0,-4.509500027E0,-1.349000037E-1
9.942000000E0,-5.361199856E0,-4.703999996E0,5.236999989E-1
9.962000000E0,-1.947299957E0,-6.548500061E0,1.291700006E0
9.982000000E0,1.656099916E0,-8.021599770E0,1.545499921E0
1.000200000E1,3.410899878E0,-7.192999840E0,1.736299992E0
1.002200000E1,2.524299860E0,-5.222899914E0,2.262199879E0
1.005200000E1,-1.384699941E0,-3.127799988E0,3.871099949E0
1.007200000E1,-4.095999718E0,-1.728999972E0,4.601099968E0
1.009202344E1,-5.236499786E0,-5.831999779E-1,5.012899876E0
1.012200000E1,-4.100800037E0,1.820999980E-1,4.441499710E0
1.014200000E1,-3.043599844E0,4.210000038E-1,2.762300014E0
1.016200000E1,-2.716699839E0,9.085999727E-1,1.247499943E0
1.018200000E1,-2.431200027E0,2.326799870E0,8.560999632E-1
1.020200000E1,-3.786999881E-1,2.517699957E0,2.540000081E-1
1.022200000E1,1.113199949E0,2.019000053E0,-2.127599955E0
1.024200000E1,1.691299915E0,1.871199965E0,-5.487099648E0
1.026200000E1,4.242700100E0,1.638599992E0,-7.840999603E0
1.028200000E1,7.122699738E0,7.833999991E-1,-8.750100136E0
1.030200000E1,8.729700089E0,9.570999742E-1,-8.267399788E0
1.032200000E1,9.388500214E0,7.962999940E-1,-6.478699684E0
1.034200000E1,1.006409931E1,5.960999727E-1,-3.567099810E0
1.036200000E1,1.091759968E1,6.119999886E-1,-2.522999942E-1
1.038200000E1,1.163210011E1,6.560000032E-2,2.470299959E0
1.040200000E1,1.080029964E1,4.809999764E-1,4.610300064E0
1.043200000E1,7.734799862E0,3.539799929E0,6.952699661E0
1.045200000E1,7.839999676E0,3.274600029E0,6.702899933E0
1.047200000E1,8.713899612E0,1.850999951E0,5.452600002E0
1.049200000E1,9.336999893E0,-2.047999948E-1,4.498199940E0
1.051200000E1,9.595299721E0,-2.100299835E0,4.025399685E0
1.053200000E1,9.451299667E0,-3.309099913E0,3.393699884E0
1.055200000E1,8.745699883E0,-3.204599857E0,2.638700008E0
1.057200000E1,7.213699818E0,-3.047399998E0,1.939099908E0
1.059200000E1,4.850199699E0,-2.260299921E0,1.814000010E0
1.061200000E1,2.279500008E0,-1.581799984E0,2.082200050E0
1.063200000E1,2.978000045E-1,-1.189100027E0,2.100999832E0
1.065200000E1,-8.845999837E-1,-1.339599967E0,1.977599978E0
1.067200000E1,-1.783299923E0,-1.869499922E0,1.473399997E0
1.069200000E1,-2.785399914E0,-2.353800058E0,1.125299931E0
1.071200000E1,-3.844599962E0,-2.778699875E0,9.107999802E-1
1.073200000E1,-4.941599846E0,-3.368099928E0,3.887999952E-1
1.075200000E1,-5.200900078E0,-3.969899893E0,7.340999842E-1
1.077200000E1,-4.521999836E0,-4.979199886E0,1.272400022E0
1.079200000E1,-4.201699734E0,-6.310199738E0,1.220700026E0
1.081200000E1,-4.574800014E0,-6.517999649E0,1.457700014E0
1.083200000E1,-4.678400040E0,-7.130399704E0,1.496099949E0
1.086200000E1,-4.230700016E0,-8.479899406E0,8.418999910E-1
1.088200000E1,-3.842700005E0,-9.023200035E0,4.267999828E-1
1.090200000E1,-4.117099762E0,-8.314999580E0,3.632999957E-1
1.092200000E1,-4.278800011E0,-8.177299500E0,-1.286000013E-1
1.094200156E1,-4.775499821E0,-7.737499714E0,-9.738000035E-1
1.097200000E1,-5.839699745E0,-5.120699883E0,-5.052999854E-1
1.099200000E1,-5.115099907E0,-4.110599995E0,7.943999767E-1
1.101200000E1,-3.099099874E0,-4.820899963E0,1.379199982E0
1.103200000E1,-1.080899954E0,-6.002099991E0,1.017199993E0
1.105200000E1,-6.524999738E-1,-6.804699898E0,-2.721999884E-1
1.107200000E1,-9.458999634E-1,-6.479499817E0,-1.187999964E0
1.109200000E1,-1.526700020E0,-5.073100090E0,-9.945999980E-1
1.112200000E1,-1.890999973E-1,-3.834399939E0,4.472999871E-1
1.114200000E1,1.831000000E-1,-2.777400017E0,1.049399972E0
1.116200000E1,-2.712999880E-1,-1.522399902E0,1.502299905E0
1.118200000E1,-7.441999912E-1,-3.740999997E-1,2.110699892E0
1.120200000E1,-5.916000009E-1,6.956999898E-1,2.456699848E0
1.122200000E1,4.767999947E-1,1.807199955E0,2.587899923E0
1.124200000E1,2.390100002E0,1.670799971E0,1.945999980E0
1.126200000E1,3.947499990E0,1.243299961E0,1.252699971E0
1.128200000E1,4.460799694E0,1.263700008E0,1.276899934E0
1.130200000E1,4.891499996E0,2.125599861E0,2.035399914E0
1.133200000E1,7.262499809E0,2.102900028E0,2.336899996E0
1.135200000E1,8.790200233E0,1.618799925E0,2.223099947E0
1.137200625E1,9.332200050E0,1.750800014E0,2.966899872E0
1.140200000E1,9.805899620E0,2.313699961E0,3.671999931E0
1.142200000E1,1.020109940E1,2.537999868E0,3.827899933E0
1.144200000E1,1.024479961E1,2.771199942E0,4.412499905E0
1.146200469E1,1.083099937E1,1.481999993E0,4.597899914E0
1.149200000E1,7.735299587E0,3.088199854E0,5.216300011E0
1.151200000E1,5.705100060E0,3.973500013E0,5.216599941E0
1.153200000E1,5.591799736E0,3.231999874E0,5.052999973E0
1.155200000E1,7.157799721E0,1.268899918E0,4.450099945E0
1.157200000E1,9.213199615E0,-1.233299971E0,3.796799898E0
1.159200156E1,9.752799988E0,-2.295500040E0,3.789399862E0
1.162200000E1,9.386199951E0,-2.929999828E0,3.455600023E0
1.165200000E1,7.932499886E0,-3.090699911E0,1.650499940E0
1.167200000E1,5.599599838E0,-2.753000021E0,5.579000115E-1
1.169200000E1,3.608599901E0,-2.244600058E0,-1.111999974E-1
1.171200000E1,3.318199873E0,-3.377399921E0,-3.639999777E-2
1.173200000E1,2.725100040E0,-4.412300110E0,5.432000160E-1
1.175200000E1,1.853599906E0,-5.303599834E0,1.152999997E0
1.177200000E1,1.149999976E0,-6.128299713E0,1.381600022E0
1.179200000E1,1.311200023E0,-7.324899673E0,1.376399994E0
1.181200000E1,2.125499964E0,-8.809499741E0,2.234999895E0
1.183200000E1,2.824399948E0,-1.015520000E1,4.006700039E0
1.185200000E1,2.692199945E0,-1.017220020E1,3.001899958E0
1.187200000E1,2.669499874E0,-1.002260017E1,-3.953000009E-1
1.189200000E1,1.501899958E0,-9.618100166E0,-2.847599983E0
1.191200000E1,-6.196999550E-1,-8.621399879E0,-3.957199812E0
1.193200000E1,-2.159699917E0,-7.256799698E0,-3.198099852E0
1.195200000E1,-2.317100048E0,-5.923899651E0,-3.100399971E0
1.198200000E1,-2.038899899E0,-4.490699768E0,-4.138099670E0
1.200200156E1,-1.881399989E0,-3.155299902E0,-4.970799923E0
1.203200000E1,-3.940999806E-1,-3.067799807E0,-4.546400070E0
1.205200000E1,2.150999904E-1,-3.138299942E0,-4.024699688E0
1.207200000E1,-2.485999912E-1,-2.448899984E0,-4.566499710E0
1.209200156E1,-1.182500005E0,-9.849999547E-1,-5.067100048E0
1.212200000E1,-1.689999923E-2,-1.421000004E0,-7.794099808E0
1.214200000E1,7.303000093E-1,-1.820799947E0,-8.443300247E0
1.216200000E1,5.795999765E-1,-1.589100003E0,-7.651099682E0
1.218200469E1,4.208000004E-1,-1.252699971E0,7.058999538E-1
1.221200000E1,1.801699996E0,6.481999755E-1,-3.218299866E0
1.223200000E1,3.339999914E-2,1.796499968E0,2.202999890E-1
1.225200000E1,-9.776999950E-1,2.329399824E0,1.322899938E0
1.227200000E1,-1.018000007E0,2.604899883E0,-1.621000022E-1
1.229200000E1,-9.983999729E-1,2.552000046E0,-1.214200020E0
1.231200000E1,-1.294199944E0,1.842000008E0,-5.432999730E-1
1.233200000E1,-8.312000036E-1,1.511699915E0,-9.763000011E-1
1.235200000E1,-8.481999636E-1,1.518800020E0,1.161599994E0
1.237200000E1,-5.659999847E-1,1.589399934E0,6.706999540E-1
1.239200000E1,-6.067999601E-1,1.468500018E0,1.339499950E0
1.241200000E1,-7.524999976E-1,1.927799940E0,1.502099991E0
1.243200000E1,-7.899999619E-1,2.179100037E0,1.105399966E0
1.245200000E1,-6.258000135E-1,1.692099929E0,1.775200009E0
1.247200000E1,1.850000024E-2,6.809999943E-1,8.772999644E-1
1.249200000E1,2.900999784E-1,6.025999784E-1,4.546999931E-1
1.251200000E1,1.136000007E-1,-3.616999984E-1,2.558300018E0
1.253200000E1,-6.315000057E-1,-1.124799967E0,4.390299797E0
1.255200000E1,-1.954800010E0,-9.849999845E-2,2.368499994E0
1.257200000E1,-2.375699997E0,7.384999990E-1,9.999999747E-5
1.259200000E1,-1.215499997E0,3.585999906E-1,-3.695999980E-1
1.261200000E1,8.760000020E-2,-8.705999851E-1,7.202999592E-1
1.263200000E1,-5.748999715E-1,-1.678999901E0,8.036999702E-1
1.265200000E1,-1.255499959E0,-1.057899952E0,7.745999694E-1
1.267200000E1,-7.648999691E-1,-1.048300028E0,6.883999705E-1
1.269200000E1,-6.025999784E-1,-5.871999860E-1,1.729999930E-1
1.271200000E1,-4.579999745E-1,-9.629999846E-2,-4.253999889E-1
1.273200000E1,-3.030999899E-1,3.008999825E-1,-1.170300007E0
1.275200000E1,-3.791999817E-1,3.631999791E-1,-1.893999934E0
1.277200000E1,-5.559999943E-1,1.492999941E-1,-2.452399969E0
1.279200000E1,-1.491999984E0,1.318099976E0,-5.837199688E0
1.281200000E1,-8.898999691E-1,5.666999817E-1,-1.463099957E0
1.283200000E1,-1.349900007E0,1.021199942E0,5.910999775E-1
1.285200000E1,-1.616699934E0,1.439199924E0,7.869999856E-2
1.287200312E1,-1.388899922E0,9.093999863E-1,1.480000000E-2
1.290200000E1,-1.518700004E0,1.076799989E0,9.529999644E-2
1.292200469E1,-1.093299985E0,1.063699961E0,1.105399966E0
1.295200000E1,-4.159999788E-1,6.477000117E-1,2.674399853E0
1.297200469E1,-5.069999769E-2,2.987000048E-1,2.733099937E0
1.300200000E1,4.001999795E-1,-3.725000024E-1,2.589299917E0
1.302200625E1,1.573999971E-1,-5.796999931E-1,3.215699911E0
1.305200000E1,-1.156499982E0,1.404999942E-1,2.585999966E0
1.307200000E1,-6.865999699E-1,-3.698999882E-1,1.100499988E0
1.309200000E1,-3.524999917E-1,-8.127999902E-1,1.430999935E-1
1.311200000E1,-4.459999874E-2,-1.210600019E0,6.275999546E-1
1.313200000E1,3.467999995E-1,-6.274999976E-1,6.714000106E-1
1.315200000E1,7.024999857E-1,-4.681999981E-1,8.060000092E-2
1.317200000E1,4.287000000E-1,-1.046100020E0,-8.610999584E-1
1.319200000E1,-5.358999968E-1,-1.032400012E0,-1.766600013E0
1.321200781E1,-1.603699923E0,-2.726999819E-1,-2.537499905E0
1.324200000E1,-2.194900036E0,6.456999779E-1,-3.049700022E0
1.326200625E1,-1.709999919E0,5.268999934E-1,-2.887599945E0
1.329202500E1,-1.533100009E0,5.661000013E-1,-2.585199833E0
1.332200000E1,-1.643999934E0,8.779000044E-1,-2.267400026E0
1.334200000E1,-1.444199920E0,7.576999664E-1,-1.902199984E0
1.336200469E1,-1.077899933E0,5.045999885E-1,-1.641600013E0
1.339200000E1,-1.250899911E0,7.190999985E-1,-7.978999615E-1
1.341200156E1,-1.570199966E0,1.111799955E0,4.100000020E-3
1.344200000E1,-9.538999796E-1,2.851999998E-1,1.463899970E0
1.346200000E1,-9.032999873E-1,2.899999963E-3,1.921299934E0
1.348200000E1,-7.220000029E-1,-3.222000003E-1,1.688499928E0
1.350200000E1,-7.838000059E-1,-8.816999793E-1,2.516999960E0
1.352200000E1,-1.548599958E0,-1.407299995E0,3.325099945E0
1.354200000E1,-2.346899986E0,-7.009999752E-1,3.416299820E0
1.356200000E1,-2.618700027E0,5.586999655E-1,8.161000013E-1
1.358200156E1,-1.912699938E0,-4.329999983E-1,6.287999749E-1
1.360200469E1,-1.096699953E0,-1.041700006E0,2.139899969E0
1.363200000E1,-1.310500026E0,3.932999969E-1,2.676499844E0
1.365200625E1,-8.760000020E-2,1.752000004E-1,1.726399899E0
1.368200000E1,2.295999974E-1,5.285999775E-1,3.410999775E-1
1.370200000E1,2.644000053E-1,5.162000060E-1,-5.985000134E-1
1.372200000E1,2.119999938E-2,6.250000000E-1,-1.550499916E0
1.374200000E1,-4.912999868E-1,8.337000012E-1,-2.201999903E0
1.376200000E1,-9.965999722E-1,8.270999789E-1,-2.396499872E0
1.378200000E1,-1.233399987E0,8.098999858E-1,-2.525099993E0
1.380200469E1,-1.307999969E0,8.772000074E-1,-1.885999918E0
1.383200000E1,-1.435799956E0,4.086000025E-1,-1.657999903E-1
1.385200156E1,-1.014199972E0,-2.100999951E-1,4.092999995E-1
1.388200000E1,-8.702999949E-1,1.121999994E-1,5.260999799E-1
1.390200469E1,-9.406999946E-1,-2.807999849E-1,2.488999963E-1
1.393200000E1,-1.216499925E0,-2.646999955E-1,2.594999969E-1
1.395200781E1,-5.173999667E-1,-8.231999874E-1,-1.233999953E-1
1.398200000E1,-7.554999590E-1,-5.084999800E-1,-3.321999907E-1
1.400200469E1,-8.082999587E-1,-5.566999912E-1,7.745999694E-1
1.403200000E1,-6.742999554E-1,-3.076999784E-1,1.953199983E0
1.405200000E1,-2.527000010E-1,-8.831999898E-1,1.983399987E0
1.407200000E1,-3.995999992E-1,-1.058699965E0,1.588199973E0
1.409200625E1,-5.870999694E-1,-7.761999965E-1,1.764799953E0
1.412200000E1,4.955999851E-1,-5.546000004E-1,1.714299917E0
1.414200781E1,7.035999894E-1,-1.858000010E-1,6.563999653E-1
1.417200000E1,-6.414999962E-1,-3.601000011E-1,-1.383199930E0
1.419200000E1,-1.002699971E0,-7.500000000E-1,-1.131399989E0
1.421200000E1,-1.303399920E0,2.982999980E-1,-6.121999621E-1
1.423200000E1,-7.978999615E-1,7.910000086E-1,-1.909999996E-1
1.425200000E1,-1.077999994E-1,6.116999984E-1,-1.496899962E0
1.427200000E1,-7.565999627E-1,1.192700028E0,-2.851899862E0
1.429200312E1,-6.543999910E-1,1.248499990E0,-3.348500013E0
1.432200000E1,-4.301999807E-1,1.441599965E0,-3.180999994E0
1.434200000E1,-8.379999548E-2,1.357900023E0,-2.389799833E0
1.436200000E1,2.209999971E-2,1.319000006E0,-1.728299975E0
1.438202969E1,-2.963999808E-1,1.424499989E0,-1.204599977E0
1.441200000E1,-9.757999778E-1,1.385699987E0,-3.143999875E-1
1.443200781E1,-1.498699903E0,1.374899983E0,5.224999785E-1
1.446200000E1,-1.210199952E0,7.198999524E-1,1.060999990E0
1.448200469E1,-9.934999943E-1,6.541999578E-1,8.069999814E-1
1.451200000E1,-7.774999738E-1,2.892999947E-1,1.442299962E0
1.453200781E1,-7.969999909E-1,1.136999950E-1,2.068300009E0
1.456200000E1,-1.516299963E0,-1.188999936E-1,1.626199961E0
1.458200313E1,-1.864399910E0,-6.255999804E-1,9.821999669E-1
1.461200000E1,-1.901499987E0,-7.918999791E-1,5.561000109E-1
1.463200156E1,-1.115800023E0,-5.705999732E-1,6.300000008E-3
1.466200000E1,3.795000017E-1,-1.361699939E0,3.087999821E-1
1.468200625E1,-4.296000004E-1,-1.249899983E0,-2.369999886E-2
1.471200000E1,-9.654999971E-1,-5.848000050E-1,-1.659099936E0
1.473200000E1,-9.903999567E-1,-1.565999985E-1,-2.353999853E0
1.475200000E1,-9.808999896E-1,2.449999899E-1,-2.720899820E0
1.477200938E1,-8.730999827E-1,2.658999860E-1,-2.788499832E0
1.480200000E1,-5.216999650E-1,4.189999774E-2,-2.529399872E0
1.482200000E1,-5.943999887E-1,6.140000001E-2,-1.951099992E0
1.484200000E1,-6.434999704E-1,2.400000021E-2,-1.566699982E0
1.486200000E1,-7.516999841E-1,2.739000022E-1,-1.171199918E0
1.488200000E1,-1.144599915E0,6.669999957E-1,-8.914999962E-1
1.491200000E1,-1.088699937E0,4.837999940E-1,-1.218999997E-1
1.493200000E1,-1.078400016E0,2.532999814E-1,1.105700016E0
1.495200000E1,-9.054999948E-1,5.460999608E-1,2.312000036E0
1.498200000E1,-1.599999960E-3,1.094999984E-1,2.445999861E0
1.500200000E1,2.806999981E-1,-3.029999882E-2,2.990200043E0
1.502200000E1,-1.321000010E-1,6.265000105E-1,2.906399965E0
1.504200000E1,4.600000009E-2,4.748999774E-1,1.976300001E0
1.506200000E1,6.320999861E-1,-8.984999657E-1,1.786399961E0
1.508200000E1,1.933999956E-1,-4.973999858E-1,5.489000082E-1
1.510200000E1,2.798999846E-1,-4.737999737E-1,8.679999411E-2
1.512200000E1,1.400099993E0,-7.961999774E-1,3.850999773E-1
1.514200000E1,1.606899977E0,-1.043599963E0,-1.429999918E-1
1.516200000E1,3.035999835E-1,-4.397999942E-1,-4.059000015E-1
1.518200000E1,-8.192999959E-1,-4.759999737E-2,-7.953000069E-1
1.520200000E1,-9.319999814E-1,-4.417999983E-1,-1.169899940E0
1.522200000E1,-9.574999809E-1,2.969999984E-2,-1.764599919E0
1.524200000E1,-3.773999810E-1,2.838999927E-1,-1.579199910E0
1.526200000E1,4.710000008E-2,3.342999816E-1,-1.758399963E0
1.528200000E1,-2.407999933E-1,4.224999845E-1,-2.158799887E0
1.530200000E1,-1.750999928E0,1.462399960E0,-4.174900055E0
1.532200000E1,-1.680299997E0,1.518899918E0,-1.926399946E0
1.534200000E1,-1.339200020E0,5.713999867E-1,-1.057500005E0
1.536200625E1,-2.234499931E0,1.752299905E0,-9.840999842E-1
1.539200000E1,-3.319700003E0,1.963699937E0,-8.571999669E-1
1.541200469E1,-8.307999969E-1,8.959999681E-1,-4.032999873E-1
1.544200000E1,-6.689999700E-1,5.618999600E-1,-1.219999976E-2
1.546200000E1,-2.346099854E0,2.480900049E0,6.311999559E-1
1.548200000E1,-1.557899952E0,2.027299881E0,1.997199893E0
1.550200000E1,-2.436999977E-1,1.110899925E0,2.956599951E0
1.552200000E1,2.023999989E-1,3.507999778E-1,4.559400082E0
1.554200000E1,1.367999911E-1,-8.029999584E-2,5.901999950E0
1.556200625E1,-4.217000008E-1,8.999999613E-2,4.683099747E0
1.559200156E1,-3.913999796E-1,-1.035099983E0,2.070800066E0
1.562200000E1,-8.890999556E-1,-6.625999808E-1,4.011999965E-1
1.564200000E1,-7.125999928E-1,-7.493999600E-1,-3.562999964E-1
1.566200000E1,-1.796000004E-1,-8.102999926E-1,-3.378999829E-1
1.568200000E1,-9.719999880E-2,-7.993999720E-1,-3.096999824E-1
1.570200313E1,-1.389999986E-1,-6.856999993E-1,-8.299999833E-1
1.573200156E1,-2.733999789E-1,-1.187999994E-1,-1.501099944E0
1.576200000E1,-3.646000028E-1,-1.328999996E-1,-2.713799953E0
1.578200000E1,-7.791000009E-1,2.428999990E-1,-2.954399824E0
1.580200625E1,-9.835000038E-1,5.052999854E-1,-2.753899813E0
1.583200000E1,-9.854999781E-1,6.334999800E-1,-1.798299909E0
1.585200625E1,-6.887999773E-1,3.833999932E-1,-1.646600008E0
1.588200000E1,-9.099999666E-1,4.587999880E-1,-1.522399902E0
1.590200469E1,-1.137699962E0,4.499000013E-1,-1.314499974E0
1.593200000E1,-2.208999872E0,9.679999948E-1,-1.934999973E-1
1.595200000E1,-1.559399962E0,5.651000142E-1,1.806000024E-1
1.597200000E1,-6.319000125E-1,-1.466999948E-1,5.871999860E-1
1.599200000E1,-3.984999955E-1,-4.372999966E-1,1.106199980E0
1.601200000E1,-8.504999876E-1,1.526999921E-1,7.378000021E-1
1.603200000E1,-9.730999470E-1,6.104999781E-1,9.724999666E-1
1.605200000E1,-1.172500014E0,5.047999620E-1,2.582000017E0
1.608200000E1,-8.545999527E-1,-4.733999968E-1,2.158900023E0
1.610200000E1,-4.396999776E-1,-1.207099915E0,1.023499966E0
1.612200000E1,-5.551999807E-1,-9.274999499E-1,2.540999949E-1
1.614200000E1,-6.830000132E-2,-7.236999869E-1,4.685999751E-1
1.616200000E1,3.695999980E-1,-4.745000005E-1,5.741999745E-1
1.618200938E1,1.358999908E-1,-9.181999564E-1,5.403999686E-1
1.621200000E1,-7.659999728E-1,-8.871999979E-1,8.149999976E-1
1.623200000E1,-7.226999998E-1,-1.752000004E-1,1.202099919E0
1.625200000E1,-6.219999865E-2,1.775999963E-1,6.819999963E-2
1.627200000E1,-4.176999927E-1,9.293999672E-1,-1.002200007E0
1.629200469E1,-6.825000048E-1,1.239399910E0,-2.808699846E0
1.632200000E1,-4.081999958E-1,1.279500008E0,-3.406699896E0
1.634200312E1,-4.495999813E-1,1.761199951E0,-3.147199869E0
1.637200000E1,-9.570999742E-1,2.082000017E0,-2.286099911E0
1.639200625E1,-1.014899969E0,1.812500000E0,-1.637599945E0
1.642200000E1,-1.003199935E0,1.556199908E0,-1.400000006E-1
1.644200625E1,-1.000999928E0,1.698099971E0,3.941999972E-1
1.647200000E1,-1.440199971E0,1.889999986E0,1.700299978E0
1.649201719E1,-1.434399962E0,1.287999988E0,2.194599867E0
1.652200000E1,-1.107399940E0,3.251999915E-1,1.765899897E0
1.654200000E1,-9.506999850E-1,7.725999951E-1,1.295099974E0
1.656200000E1,-2.978999913E-1,2.395999879E-1,2.877199888E0
1.658200000E1,3.570000082E-2,3.700000048E-2,1.712499976E0
1.660200000E1,-1.601999998E-1,-8.639999479E-2,1.238999963E-1
1.662200000E1,-4.230999947E-1,-7.296999693E-1,-6.710000038E-1
1.664200000E1,-8.106999993E-1,-1.007599950E0,-1.797999889E-1
1.666200000E1,-1.381099939E0,-3.702999949E-1,1.906999946E-1
1.668200312E1,-1.498099923E0,3.215000033E-1,4.829999804E-2
1.671200000E1,8.958999515E-1,-1.218400002E0,9.082999825E-1
1.673200781E1,7.443000078E-1,-1.626500010E0,3.506999910E-1
1.676200000E1,-1.152999997E-1,-9.925999641E-1,-1.200999975E0
1.678200000E1,-8.810000122E-2,-9.599999785E-1,-1.567199945E0
1.680200000E1,9.829999506E-2,-7.095999718E-1,-2.120899916E0
1.682200625E1,-8.368999958E-1,1.307999939E-1,-2.394599915E0
1.685200000E1,-1.063300014E0,-1.304000020E-1,-2.219199896E0
1.687200781E1,-9.019999504E-1,-4.716999829E-1,-1.499899983E0
1.690200000E1,-1.415799975E0,-3.016999960E-1,-1.719200015E0
1.692200625E1,-1.637599945E0,-4.726999998E-1,-1.529399991E0
1.695200000E1,-1.278100014E0,-3.840000033E-1,-1.098199964E0
1.697200000E1,-8.405999541E-1,2.885999978E-1,-4.499999881E-1
1.699200000E1,4.809999838E-2,4.249999821E-1,1.195999980E-1
1.701200000E1,2.452999949E-1,6.861999631E-1,9.326999784E-1
1.704200000E1,-2.690999806E-1,1.943599939E0,1.324800014E0
1.706200000E1,-1.034999937E-1,1.513499975E0,2.848299980E0
1.708200000E1,4.135999978E-1,9.449999928E-1,4.404999733E0
1.710200000E1,3.879999742E-2,1.192299962E0,4.382999897E0
1.712200469E1,7.469999790E-2,6.758999825E-1,2.949499846E0
1.715200000E1,-8.089999855E-2,5.020999908E-1,5.579000115E-1
1.717200312E1,2.572000027E-1,3.274999857E-1,1.424799919E0
1.720200000E1,1.365099907E0,4.099999964E-1,1.128000021E0
1.722200000E1,1.626699924E0,-5.848000050E-1,3.576999903E-1
1.725200000E1,-2.547000051E-1,-6.182000041E-1,-1.118399978E0
1.727200156E1,-1.232499957E0,-2.418999970E-1,-1.916299939E0
1.729200156E1,-1.670599937E0,2.987000048E-1,-2.383699894E0
1.731200469E1,-1.477699995E0,5.170999765E-1,-2.455699921E0
1.734200000E1,-1.114799976E0,-1.119999960E-2,-2.587499857E0
1.736200000E1,-1.825099945E0,3.881999850E-1,-2.616899967E0
1.738200000E1,-1.914599895E0,7.188999653E-1,-4.189199924E0
1.740200000E1,-1.944899917E0,7.261999846E-1,-2.756399870E0
1.742200000E1,-1.185799956E0,5.461999774E-1,-1.904999971E0
1.744200000E1,-1.273299932E0,1.003099918E0,-1.409600019E0
1.746200313E1,-1.525799990E0,1.069899917E0,-1.076200008E0
1.749202500E1,-1.638399959E0,9.649999738E-1,-6.923999786E-1
1.752200000E1,-1.215199947E0,7.127999663E-1,2.317999899E-1
1.754200000E1,-1.114300013E0,9.914000034E-1,1.137799978E0
1.756200625E1,-1.185400009E0,9.623000026E-1,2.184799910E0
1.759200156E1,-6.288999915E-1,3.567999899E-1,4.508299828E0
1.761200312E1,-9.689999819E-1,3.893999755E-1,3.086400032E0
1.764200156E1,-9.969999790E-1,-3.019999862E-1,2.672999799E-1
1.767200000E1,-7.367999554E-1,-5.245000124E-1,1.078299999E0
1.769200156E1,-6.955999732E-1,-5.072999597E-1,1.728599906E0
1.772200000E1,-2.842999995E-1,-9.469999671E-1,6.520999670E-1
1.774200000E1,-1.508999914E-1,-8.296999931E-1,-2.160999924E-1
1.776200000E1,-4.775999784E-1,-5.386999846E-1,-6.963999867E-1
1.778201719E1,-6.674000025E-1,-1.934999973E-1,-1.439099908E0
1.781200000E1,-8.420999646E-1,7.199999876E-3,-1.830399990E0
1.783200000E1,-9.144999981E-1,1.460999995E-1,-1.661000013E0
1.785200156E1,-4.749999940E-1,1.356000006E-1,-1.906399965E0
1.788200000E1,1.480000019E-1,2.689000070E-1,-1.850199938E0
1.790200625E1,-4.457999766E-1,5.586999655E-1,-1.720199943E0
1.793200000E1,-6.599000096E-1,3.686999977E-1,-8.560999632E-1
1.795200000E1,-8.432999849E-1,2.913999856E-1,-5.124999881E-1
1.797200000E1,-1.070199966E0,4.520999789E-1,-4.907999933E-1
1.799200312E1,-1.194499969E0,4.605000019E-1,-1.900999993E-1
1.802200000E1,-4.717999995E-1,-2.646999955E-1,3.317999840E-1
1.804200625E1,-5.054999590E-1,-1.603000015E-1,4.931999743E-1
1.807200000E1,-1.170099974E0,1.281999946E-1,6.258000135E-1
1.809200938E1,-1.417799950E0,1.618999988E-1,2.186499834E0
1.812200313E1,-1.259500027E0,2.764999866E-1,3.227799892E0
1.814200313E1,-9.510999918E-1,-7.117999792E-1,2.819200039E0
1.817200000E1,-9.228999615E-1,-1.463999897E-1,6.604999900E-1
1.819200625E1,1.458999962E-1,-4.262000024E-1,1.004400015E0
1.822200000E1,2.353999913E-1,4.233999848E-1,1.471799970E0
1.824200312E1,9.239999950E-2,-5.133000016E-1,1.535799980E0
1.827200000E1,-2.450999916E-1,-7.344999909E-1,-6.685999632E-1
1.829200781E1,-1.381600022E0,-9.600000083E-2,-1.474699974E0
1.832200000E1,-1.082800031E0,-1.875000000E-1,-2.822299957E0
1.834200625E1,-5.676999688E-1,1.024999991E-1,-2.415099859E0
1.837200000E1,-1.643999964E-1,6.980999708E-1,-2.308199883E0
1.839200000E1,4.508999884E-1,1.088400006E0,-2.339200020E0
1.841200469E1,5.009999871E-2,1.491999984E0,-4.878799915E0
1.844200781E1,-7.748999596E-1,1.633099914E0,-2.452600002E0
1.847200000E1,-1.245700002E0,1.935099959E0,-8.269999623E-1
1.849200000E1,-2.379499912E0,2.824199915E0,1.756599903E0
1.851201094E1,-1.386399984E0,2.511199951E0,1.741400003E0
1.854200000E1,-8.689999580E-2,9.653999805E-1,1.666700006E0
1.856200000E1,-1.008499980E0,9.138000011E-1,2.525399923E0
1.858200781E1,-1.832799911E0,1.287299991E0,2.502699852E0
1.861200000E1,-1.675699949E0,1.016999960E0,3.496699810E0
1.863200000E1,-1.548499942E0,3.570999801E-1,2.850499868E0
1.865200000E1,-8.233000040E-1,-6.263999939E-1,1.574100018E0
1.867200000E1,-2.282999903E-1,-1.163900018E0,1.236699939E0
1.869200000E1,-4.329999909E-2,-8.789999485E-1,1.341300011E0
1.871200000E1,-3.887999952E-1,-2.425999939E-1,1.100099921E0
1.873200469E1,-1.022999957E-1,-5.443999767E-1,2.269999981E-1
1.876199844E1,6.909999996E-2,-1.223299980E0,-5.878999829E-1
1.878200469E1,-1.499999911E-1,-1.039700031E0,-1.050899982E0
1.881200000E1,-4.838999808E-1,-7.175999880E-1,-1.859599948E0
1.883200000E1,-9.224999547E-1,-4.653999805E-1,-2.843299866E0
1.885200000E1,-1.119499922E0,3.700999916E-1,-3.357299805E0
1.887200156E1,-9.269999862E-1,4.694999754E-1,-3.296299934E0
1.890201406E1,-3.172000051E-1,8.959999681E-2,-2.220299959E0
1.893200000E1,2.645999789E-1,2.180999964E-1,-1.884299994E0
1.895200000E1,-6.851999760E-1,1.271899939E0,-3.445000052E-1
1.897200312E1,-1.464699984E0,1.644299984E0,-1.489999890E-1
1.900200000E1,-2.793999910E0,1.016799927E0,6.679999828E-1
1.902200469E1,-1.189100027E0,1.109899998E0,4.180999994E-1
1.905200000E1,2.454999983E-1,-4.439999759E-1,2.577199936E0
1.907200156E1,-7.961999774E-1,6.141999960E-1,2.462499857E0
1.910200000E1,3.014999926E-1,-2.388999909E-1,3.689199924E0
1.912200156E1,1.072999954E0,-7.494999766E-1,3.766299963E0
1.915200000E1,5.644999743E-1,-1.146999970E-1,1.528199911E0
1.917200469E1,5.636000037E-1,-1.567000002E-1,9.584999681E-1
1.920200000E1,1.644699931E0,-5.672000051E-1,1.040400028E0
1.922200000E1,1.089900017E0,-2.279999852E-2,9.059000015E-1
1.925200000E1,1.808999926E-1,-1.507999897E-1,-1.111099958E0
1.927200000E1,-5.314999819E-1,-1.639000028E-1,-1.682399988E0
1.929201406E1,-1.120899916E0,2.752999961E-1,-1.891099930E0
1.932200000E1,-1.871999979E0,1.067999959E0,-1.703699946E0
1.934200156E1,-1.542500019E0,1.037599921E0,-1.793799996E0
1.936200781E1,-1.008700013E0,8.919000030E-1,-2.030799866E0
1.939200000E1,-1.171999931E0,7.838000059E-1,-1.995999932E0
1.941200625E1,-1.757499933E0,8.779999614E-1,-2.377799988E0
1.944200000E1,-1.376399994E0,1.211099982E0,-1.538299918E0
1.946200625E1,-1.309499979E0,1.101199985E0,-3.817999959E-1
1.949200000E1,-1.605799913E0,1.318599939E0,7.968999743E-1
1.951200000E1,-9.990999699E-1,1.340499997E0,1.169899940E0
1.953200000E1,-4.945999980E-1,9.467999935E-1,1.257499933E0
1.955200000E1,-4.745000005E-1,4.086000025E-1,1.037400007E0
1.957200000E1,-1.415300012E0,9.633999467E-1,9.745000005E-1
1.959200625E1,-7.903999686E-1,4.635999799E-1,2.041800022E0
1.962200000E1,-6.157999635E-1,8.599999361E-3,2.232499838E0
1.964200000E1,-1.180199981E0,-4.332999885E-1,1.316399932E0
1.966200313E1,-1.636299968E0,-6.354999542E-1,4.711999893E-1
1.969200000E1,-7.143999934E-1,-1.273299932E0,7.468000054E-1
1.971200000E1,-2.881000042E-1,-1.405699968E0,1.110299945E0
1.973200156E1,-5.518000126E-1,-8.944000006E-1,1.235299945E0
1.976200469E1,-1.124499917E0,-5.845000148E-1,-3.519999981E-2
1.978202812E1,-6.366999745E-1,-1.298599958E0,-1.447099924E0
1.981200000E1,-7.817999721E-1,-6.448999643E-1,-2.858199835E0
1.983200000E1,-8.639999628E-1,-3.630999923E-1,-2.793900013E0
1.986200469E1,-9.187999964E-1,1.358000040E-1,-3.322199821E0
1.989200000E1,-7.663999796E-1,4.194999933E-1,-1.796899915E0
1.991200000E1,-6.379999965E-2,4.332999885E-1,-2.253099918E0
1.993200000E1,-1.581999958E-1,6.737999916E-1,-2.363600016E0
1.995200000E1,-5.727999806E-1,6.664999723E-1,-1.621199965E0
1.997200000E1,-8.740999699E-1,5.156999826E-1,-1.498299956E0
1.999200000E1,-6.552999616E-1,5.173999667E-1,-3.209999800E-1
2.001200000E1,-6.101999879E-1,4.375000000E-1,6.837999821E-1
2.003200000E1,-3.599999845E-1,6.207000017E-1,2.251399994E0
2.005200625E1,-2.318999916E-1,6.351000071E-1,3.017999887E0
2.008200000E1,-4.899999872E-2,1.048099995E0,3.632799864E0
2.010200469E1,1.041299939E0,3.554999828E-1,3.567399979E0
2.013200000E1,9.213999510E-1,-4.429999888E-1,2.889400005E0
2.015200000E1,-5.052999854E-1,6.799999624E-3,2.115599871E0
2.017200000E1,-5.081999898E-1,1.080999970E-1,1.895799994E0
2.019200156E1,7.753999829E-1,-7.475000024E-1,1.493199944E0
2.022200000E1,7.127999663E-1,-3.921999931E-1,8.324999809E-1
2.024200469E1,3.373000026E-1,-2.161999941E-1,-8.349999785E-2
2.027200000E1,-5.381999612E-1,-1.450999975E-1,-1.093599916E0
2.029200000E1,-1.099900007E0,1.407999992E-1,-1.666799903E0
2.031200000E1,-1.734299898E0,2.816999853E-1,-2.014799833E0
2.033200000E1,-2.029199839E0,5.360000134E-1,-2.328399897E0
2.035200000E1,-1.949499965E0,7.163000107E-1,-2.205899954E0
2.037200000E1,-1.815599918E0,7.685999870E-1,-1.853799939E0
2.039200469E1,-1.622999907E0,6.295999885E-1,-1.595899940E0
2.042200000E1,-1.393000007E0,3.401999772E-1,-1.560899973E0
2.044200156E1,-1.485999942E0,4.458999932E-1,-1.757699966E0
2.047200000E1,-1.828399897E0,1.271499991E0,-1.558599949E0
2.049200469E1,-1.159600019E0,1.439799905E0,-6.315999627E-1
2.052200000E1,-4.419999942E-2,1.005900025E0,-1.365000010E0
2.054200000E1,-1.200000010E-2,3.334999979E-1,1.421899915E0
2.056200312E1,-3.450999856E-1,7.429999709E-1,1.117299914E0
2.058200781E1,-1.139999926E-2,1.005499959E0,1.376599908E0
2.061199844E1,8.807999492E-1,1.031999961E-1,1.964499950E0
2.063200625E1,-4.239999950E-1,2.991999984E-1,1.823199987E0
2.066200469E1,-8.855999708E-1,1.968999952E-1,7.892000079E-1
2.068200625E1,-4.120000005E-1,1.458999962E-1,1.388000011E0
2.071201094E1,4.996999800E-1,-1.153999940E-1,2.230000019E0
2.074200000E1,1.093099952E0,-8.231999874E-1,1.013399959E0
2.077200312E1,3.219999969E-1,-9.169999957E-1,-8.440999985E-1
2.080200000E1,-1.906999946E-1,-9.074999690E-1,-2.599699974E0
2.082200625E1,-2.568999827E-1,-1.005599976E0,-3.133599997E0
2.085200000E1,1.985999942E-1,-1.035899997E0,-3.113399982E0
2.087200000E1,-2.140999883E-1,-8.237999678E-1,-2.651099920E0
2.089200000E1,-6.441999674E-1,4.789999872E-2,-2.795799971E0
2.091200000E1,-1.470899940E0,1.495499969E0,-2.159100056E0
2.094200000E1,-3.037199974E0,1.664399981E0,-6.930999756E-1
2.097200000E1,8.329999447E-2,1.746999919E-1,-7.044000030E-1
2.099200000E1,1.227299929E0,-1.016600013E0,-2.545999885E-1
2.101200000E1,1.295400023E0,-5.533999801E-1,7.885999680E-1
2.103200000E1,-4.933999777E-1,1.168399930E0,1.888000011E0
2.105200000E1,-5.868999958E-1,6.159999967E-1,2.144599915E0
2.107200313E1,-3.897999823E-1,8.718999624E-1,1.965199947E0
2.110200000E1,9.851999879E-1,3.985999823E-1,3.570699930E0
2.112200469E1,3.698999882E-1,5.928999782E-1,3.790299892E0
2.115200000E1,-1.843499899E0,2.109999955E-1,2.730900049E0
2.117200469E1,-5.164999962E-1,-6.337999701E-1,-2.967999876E-1
2.120200000E1,1.310099959E0,-1.026999950E-1,1.754099965E0
2.122200781E1,1.659500003E0,-8.209999651E-2,7.504999638E-1
2.125200000E1,8.517000079E-1,6.719999760E-2,3.070999980E-1
2.127200312E1,-3.154000044E-1,6.639999747E-1,-3.899999857E-1
2.130200156E1,-9.493999481E-1,4.007000029E-1,-1.647099972E0
2.132200156E1,-1.556699991E0,1.189999938E0,-1.681499958E0
2.135200000E1,-1.664999962E0,1.195400000E0,-2.636199951E0
2.137200000E1,-2.373699903E0,9.431999922E-1,-2.559700012E0
2.139200000E1,-1.605399966E0,8.881999850E-1,-3.898699999E0
2.141200000E1,-2.748100042E0,1.459100008E0,-4.129000008E-1
2.143200000E1,-1.242999911E0,5.411999822E-1,7.719999552E-2
2.145200000E1,-7.482999563E-1,2.797999978E-1,-1.018999964E-1
2.147200000E1,-9.842999578E-1,8.147000074E-1,5.764999986E-1
2.149200156E1,-8.050999641E-1,1.244099975E0,1.535699964E0
2.151200312E1,8.819999546E-2,3.425000012E-1,2.057999849E0
2.154200000E1,5.162999630E-1,4.111000001E-1,2.035099983E0
2.156201250E1,-1.244999990E-1,8.750999570E-1,1.479499936E0
2.159200156E1,-9.149999619E-1,3.145000041E-1,8.524999619E-1
2.161200156E1,-3.321499825E0,-4.519999772E-2,3.850999773E-1
2.164200000E1,-3.654199839E0,3.707000017E-1,-8.104000092E-1
2.166200000E1,-7.626000047E-1,-8.430999517E-1,-4.526999891E-1
2.168200000E1,1.011099935E0,-1.820599914E0,1.873899937E0
2.170200781E1,1.827999949E-1,-5.868999958E-1,1.420599937E0
2.173200156E1,3.704999983E-1,-4.359000027E-1,1.105099916E0
2.175200625E1,-2.861999869E-1,-4.203999937E-1,1.279999912E-1
2.178202031E1,-4.981999993E-1,-7.239999622E-2,-1.924999952E-1
2.181200000E1,-5.336999893E-1,3.707000017E-1,-9.760999680E-1
2.183200000E1,-9.932999611E-1,1.964999884E-1,-2.417700052E0
2.185200469E1,-2.535799980E0,4.888999760E-1,-3.210399866E0
2.188200000E1,-1.865899920E0,7.987999916E-1,-4.074899673E0
2.190200156E1,-1.018100023E0,3.935999870E-1,-1.944199920E0
2.193200000E1,1.243999958E0,-9.429000020E-1,-5.091999769E-1
2.195200469E1,1.211300015E0,-5.708999634E-1,-8.841999769E-1
2.198202813E1,1.803999990E-1,2.439000010E-1,1.200699925E0
2.201200000E1,1.383999944E0,-9.922999740E-1,1.673299909E0
2.203200000E1,6.983999610E-1,1.146999970E-1,2.827299833E0
2.205200000E1,7.648999691E-1,1.066499949E0,1.581299901E0
2.207200000E1,1.429600000E0,5.515999794E-1,1.117900014E0
2.209200000E1,5.539999604E-1,-6.135999560E-1,1.091799974E0
2.211200000E1,-1.609999985E-1,-1.376999915E-1,1.048000008E-1
2.213200000E1,-2.692100048E0,1.016199946E0,-3.500999808E-1
2.215200000E1,4.238999784E-1,-1.066399932E0,9.975000024E-1
2.217200000E1,1.723999977E0,-1.400699973E0,3.179999828E0
2.219200781E1,1.349699974E0,-7.978000045E-1,1.106899977E0
2.222200000E1,6.100000143E-1,-2.689999901E-2,1.019999981E0
2.224200625E1,-6.653000116E-1,1.235999987E-1,5.600999594E-1
2.227200000E1,-1.621199965E0,4.176999927E-1,-4.688999951E-1
2.229200000E1,-1.603500009E0,9.161999822E-1,-7.379999757E-1
2.231200000E1,-1.068400025E0,1.281899929E0,-1.900200009E0
2.233200000E1,-1.151799917E0,8.181999922E-1,-2.596999884E0
2.236199844E1,-1.614099979E0,6.613000035E-1,-3.299399853E0
2.238203750E1,-1.768000007E0,1.267799973E0,-4.151400089E0
2.241200000E1,-2.460999966E0,1.662299991E0,-5.259000063E-1
2.243200781E1,-1.034199953E0,1.065699935E0,4.623999894E-1
2.246199844E1,-1.999999862E-3,6.857999563E-1,-1.085199952E0
2.248200469E1,-3.946000040E-1,5.587999821E-1,-1.986999959E-1
2.251200000E1,-9.523999691E-1,2.419999987E-1,2.064800024E0
2.253200625E1,-9.129999578E-2,5.159000158E-1,4.651599884E0
2.256200000E1,7.265999913E-1,-2.298000008E-1,4.250199795E0
2.258200156E1,-5.108000040E-1,-1.653999984E-1,7.448999882E-1
2.261200000E1,-3.080199957E0,-9.425999522E-1,-1.268599987E0
2.263200312E1,-2.091399908E0,-4.715999961E-1,-7.032999992E-1
2.266200000E1,-7.440999746E-1,6.958999634E-1,1.797799945E0
2.268200312E1,-1.089200020E0,1.062999964E-1,4.166100025E0
2.271200000E1,-6.493999958E-1,-2.254199982E0,1.086400032E0
2.273200625E1,1.589999907E-2,-2.331199884E0,-1.585799932E0
2.276199844E1,-1.751699924E0,-6.633999944E-1,-3.170899868E0
2.278203125E1,-1.162099957E0,-2.039999962E-1,-2.517099857E0
2.281200000E1,-3.113999963E-1,-5.672999620E-1,-2.471400023E0
2.283200000E1,-1.922999918E-1,-7.586999536E-1,-4.328599930E0
2.285200000E1,-1.425999999E-1,-2.741999924E-1,-4.601500034E0
2.287200625E1,-5.192999840E-1,9.680999517E-1,-1.788499951E0
2.290200000E1,-1.546100020E0,1.553599954E0,-2.231099844E0
2.292200469E1,-1.597199917E0,-1.923999935E-1,-2.615799904E0
2.295200000E1,-1.824999899E-1,-2.430599928E0,-1.842599988E0
2.297200625E1,2.299999893E-1,-1.624300003E0,-2.383299828E0
2.300200000E1,1.671899915E0,-1.306299925E0,-1.408399940E0
2.302200156E1,1.428200006E0,-1.098099947E0,-1.771999955E0
2.305200000E1,1.066499949E0,-1.582199931E0,-4.062999785E-1
2.307200000E1,1.737699986E0,-3.305999935E-1,2.728999853E0
2.309200000E1,1.892499924E0,8.594999909E-1,5.181799889E0
2.311200000E1,3.797000051E-1,-1.245700002E0,3.964799881E0
2.313200000E1,-2.111899853E0,-7.694000006E-1,3.131999969E0
2.315200000E1,-3.659999743E-2,1.422999948E-1,2.460099936E0
2.317200000E1,2.592000008E0,-8.015999794E-1,1.926499963E0
2.320200000E1,3.513999879E-1,-6.043999791E-1,2.691499949E0
2.322200000E1,-7.385999560E-1,-8.320000023E-2,1.525200009E0
2.324200000E1,-1.066399932E0,4.479999840E-1,4.628999829E-1
2.327200000E1,-1.313099980E0,7.897999883E-1,1.375999898E-1
2.329200000E1,-1.601699948E0,6.157999635E-1,-4.813999832E-1
2.331200000E1,-1.561999917E0,1.968999952E-1,-1.469699979E0
2.334200000E1,-3.034600019E0,-3.892999887E-1,-2.820400000E0
2.336200000E1,-4.128299713E0,-8.029999584E-2,-3.061800003E0
2.338200000E1,-4.898699760E0,9.453999996E-1,-2.427399874E0
2.341200000E1,-3.684700012E0,1.992699981E0,-3.168399811E0
2.343200000E1,-2.217999935E0,1.391099930E0,-1.934399962E0
2.345200000E1,-6.836999655E-1,4.706999958E-1,-9.185999632E-1
2.347200000E1,-1.261099935E0,1.574899912E0,-6.123999953E-1
2.349200000E1,-1.494199991E0,2.020200014E0,1.614999920E-1
2.351200000E1,-1.008999944E-1,8.754000068E-1,1.871999979E0
2.353200000E1,-1.463299990E0,9.817999601E-1,2.596799850E0
2.355200000E1,-1.920899987E0,1.633399963E0,2.472699881E0
2.357200000E1,-7.188999653E-1,6.527999640E-1,2.453999996E0
2.359200156E1,-3.947999775E-1,-3.102000058E-1,1.580799937E0
2.362200000E1,1.013899922E0,-1.813499928E0,-2.651000023E0
2.364200000E1,1.790499926E0,-1.936199903E0,-2.157399893E0
2.366200000E1,3.122699976E0,-2.178099871E0,-5.963699818E0
2.368200000E1,3.232199907E0,-2.697399855E0,-3.191999793E-1
2.370200000E1,2.715600014E0,-2.572499990E0,1.069399953E0
2.372200000E1,2.442999840E0,-2.063799858E0,-1.779799938E0
2.374200000E1,2.009799957E0,-4.152999818E-1,-2.517899990E0
2.376200000E1,1.343999982E0,6.951999664E-1,-2.959399939E0
2.378200000E1,1.100000024E0,4.688999951E-1,-4.078599930E0
2.380200156E1,2.292999923E-1,8.039999753E-2,-5.122799873E0
2.383200000E1,-6.184999943E-1,-1.126899958E0,-5.934299946E0
2.385200000E1,-6.843999624E-1,-1.993399978E0,-7.256199837E0
2.387200156E1,5.530999899E-1,-2.142099857E0,-6.436599731E0
2.390200000E1,4.422899723E0,-4.037300110E0,-4.801099777E0
2.392200000E1,6.086199760E0,-5.236899853E0,-4.430200100E0
2.394200156E1,6.412600040E0,-5.959099770E0,-3.957000017E0
2.396200469E1,6.738699913E0,-7.168999672E0,-2.883100033E0
2.399200000E1,7.479399681E0,-8.170700073E0,2.175000012E-1
2.401200156E1,8.277099609E0,-7.276499748E0,1.634499907E0
2.404200000E1,1.035099983E1,-8.443499565E0,2.017799854E0
2.406200000E1,6.547399998E0,-5.819200039E0,3.587899923E0
2.408200156E1,2.408200026E0,-2.481799841E0,5.887099743E0
2.411200000E1,3.101999998E0,-3.608099937E0,6.764799595E0
2.413200000E1,5.431999683E0,-4.297999859E0,6.798500061E0
2.415200000E1,5.658499718E0,-3.264899969E0,6.732899666E0
2.417200000E1,4.259200096E0,-1.788199902E0,6.724699974E0
2.419200000E1,1.932299972E0,-3.280999959E-1,7.391799927E0
2.421200000E1,1.556999981E-1,4.979999959E-1,7.868000031E0
2.423200000E1,-1.351899981E0,1.291299939E0,8.133399963E0
2.425200000E1,-2.780799866E0,1.943099976E0,7.453399658E0
2.427200156E1,-3.357199907E0,2.262300014E0,6.082499981E0
2.429200156E1,-3.530599833E0,2.695799828E0,4.639899731E0
2.431200156E1,-3.285899878E0,2.807099819E0,3.827799797E0
2.433200156E1,-2.515599966E0,2.716399908E0,3.832899809E0
2.435200156E1,-2.141999960E0,2.817199945E0,4.522599697E0
2.437200156E1,-2.192199945E0,3.435099840E0,5.111299992E0
2.439200156E1,-1.444199920E0,3.253799915E0,5.782799721E0
2.441200156E1,-3.226999938E-1,2.448400021E0,6.380899906E0
2.443200156E1,8.319999576E-1,1.481599927E0,6.737899780E0
2.445200156E1,1.852899909E0,2.877999842E-1,6.843400002E0
2.447200156E1,2.979499817E0,-4.969999790E-1,6.415299892E0
2.449200156E1,3.802599907E0,-9.455999732E-1,5.907599926E0
2.451200156E1,3.836299896E0,-1.125699997E0,5.230299950E0
2.453200156E1,4.379899979E0,-1.622099996E0,5.021899700E0
2.455200156E1,3.739499807E0,-1.316100001E0,4.365200043E0
2.457200156E1,3.666800022E0,-4.309999943E-1,4.363500118E0
2.459200156E1,6.187500000E0,-2.032799959E0,4.329400063E0
2.461200156E1,9.071899414E0,-4.007999897E0,4.228199959E0
2.463200156E1,1.019979954E1,-5.422999859E0,3.651000023E0
2.465200156E1,8.619199753E0,-5.448800087E0,2.711799860E0
2.468200000E1,3.987099886E0,-4.647299767E0,7.757999897E-1
2.470200000E1,7.580999732E-1,-3.912899971E0,-5.681999922E-1
2.472200156E1,-2.411999941E0,-2.554999828E0,-1.568899989E0
2.474200156E1,-5.075699806E0,-1.515399933E0,-1.718299985E0
2.477200000E1,-7.624499798E0,3.553999960E-1,-1.521499991E0
2.479200156E1,-6.547899723E0,3.018999994E-1,-1.516199946E0
2.481200156E1,-4.480599880E0,-6.148999929E-1,-1.806999922E0
2.483200156E1,-2.455600023E0,-1.848699927E0,-1.823099971E0
2.486200000E1,6.974999905E-1,-5.504799843E0,-2.339200020E0
2.488200000E1,1.450799942E0,-7.601099968E0,-1.882099986E0
2.490200000E1,1.664000005E-1,-8.112799644E0,-1.632099986E0
2.492200000E1,-1.761899948E0,-8.881299973E0,-1.495000005E0
2.494200000E1,-3.309599876E0,-8.883799553E0,-1.042799950E0
2.496200000E1,-3.443199873E0,-9.016900063E0,-3.735999763E-1
2.498200000E1,-2.405699968E0,-8.445699692E0,1.596999913E-1
2.500200000E1,-4.407999814E-1,-8.380399704E0,-5.972999930E-1
2.502200000E1,1.834899902E0,-7.983500004E0,-2.121199846E0
2.504200000E1,3.661299944E0,-7.951299667E0,-4.073599815E0
2.506200000E1,2.274999857E0,-6.013899803E0,-4.820699692E0
2.508200000E1,-2.436999977E-1,-3.963199854E0,-3.576399803E0
2.510200000E1,-2.264999896E-1,-4.501399994E0,-1.329499960E0
2.512200000E1,1.765799999E0,-5.857599735E0,2.140000015E-1
2.514200000E1,3.502499819E0,-6.653299809E0,7.565000057E-1
2.516200000E1,3.496199846E0,-5.801300049E0,1.260499954E0
2.518200000E1,2.622599840E0,-4.626199722E0,1.998299956E0
2.520200000E1,6.398999691E-1,-3.172399998E0,2.371299982E0
2.522200000E1,-1.808699965E0,-1.467700005E0,2.614699841E0
2.524200000E1,-2.932499886E0,4.079999775E-2,2.929499865E0
2.526200000E1,-2.852599859E0,8.807999492E-1,2.434900045E0
2.528200000E1,-2.291800022E0,1.604200006E0,1.785499930E0
2.530200000E1,-1.410200000E0,1.559399962E0,1.297699928E0
2.532200000E1,-9.850999713E-1,1.957099915E0,1.047399998E0
2.534200000E1,-1.087399960E0,2.461599827E0,9.805999994E-1
2.536200000E1,-4.463000000E-1,3.157099962E0,2.420899868E0
2.538200000E1,1.563300014E0,3.589999914E0,3.158200026E0
2.540200000E1,3.848399878E0,4.057399750E0,4.271100044E0
2.542200000E1,6.144299984E0,3.961099863E0,5.446199894E0
2.544200000E1,7.653199673E0,3.109099865E0,6.415099621E0
2.546200313E1,6.980299950E0,3.581300020E0,7.078199863E0
2.549200000E1,4.739500046E0,3.331300020E0,8.866700172E0
2.551200000E1,4.193999767E0,2.602900028E0,1.041419983E1
2.553200000E1,4.152699947E0,1.902499914E0,1.113269997E1
2.555200000E1,4.155799866E0,1.713299990E0,1.083010006E1
2.557200000E1,4.631700039E0,1.658100009E0,1.006919956E1
2.559200000E1,6.747900009E0,-4.170999825E-1,9.043499947E0
2.561200000E1,8.464599609E0,-3.039999962E0,8.119400024E0
2.563200000E1,7.647699833E0,-4.322799683E0,6.812199593E0
2.565200000E1,5.977699757E0,-4.219399929E0,5.097499847E0
2.567200000E1,5.106299877E0,-3.235599995E0,3.833999872E0
2.569200000E1,5.975399971E0,-3.238799810E0,2.995299816E0
2.571200000E1,6.144700050E0,-3.520399809E0,2.098599911E0
2.573200000E1,4.125400066E0,-3.011099815E0,1.303499937E0
2.575200000E1,1.258799911E0,-2.938899994E0,1.492999941E-1
2.577200000E1,-2.064499855E0,-2.643299818E0,-4.769999981E-1
2.579200000E1,-3.089599848E0,-2.424599886E0,-5.746999979E-1
2.581200000E1,-2.262399912E0,-3.242599964E0,-1.148899913E0
2.583200000E1,-1.672899961E0,-4.687099934E0,-1.614899993E0
2.585200000E1,-2.983999968E0,-4.875899792E0,-2.180700064E0
2.587200000E1,-3.466499805E0,-5.636099815E0,-2.206399918E0
2.589200000E1,-3.098599911E0,-6.721099854E0,-2.287899971E0
2.591200000E1,-3.249899864E0,-7.200399876E0,-2.429100037E0
2.593200000E1,-2.855399847E0,-8.018599510E0,-2.102799892E0
2.595200000E1,-1.866299987E0,-9.039500237E0,-1.554899931E0
2.597200000E1,-9.346999526E-1,-9.055699348E0,-1.658100009E0
2.599200000E1,-2.902999818E-1,-8.576099396E0,-2.691400051E0
2.601200000E1,-4.414999783E-1,-7.778499603E0,-3.024499893E0
2.603200000E1,-8.104999661E-1,-7.332099915E0,-2.939899921E0
2.605200000E1,-1.140900016E0,-6.488499641E0,-3.201900005E0
2.607200000E1,-1.547599912E0,-5.201399803E0,-2.667899847E0
2.609200156E1,-7.539999485E-2,-5.276899815E0,-1.223999977E0
2.612199844E1,1.932099938E0,-6.410500050E0,1.634999990E0
2.614200000E1,2.721799850E0,-6.294899940E0,2.789000034E0
2.616200000E1,3.346999884E0,-5.720200062E0,2.873499870E0
2.618200000E1,3.298300028E0,-5.121399879E0,2.766499996E0
2.620200000E1,2.106299877E0,-3.894099951E0,2.796900034E0
2.622200000E1,1.829999983E-1,-2.387399912E0,2.522599936E0
2.624200000E1,-1.104599953E0,-1.148100019E0,2.538300037E0
2.626200000E1,-1.562699914E0,-8.630000055E-2,2.224200010E0
2.628200000E1,-2.266399860E0,8.592000008E-1,1.689999938E0
2.630200000E1,-2.541100025E0,1.152899981E0,1.092700005E0
2.632200000E1,-2.681099892E0,1.410599947E0,8.861999512E-1
2.634200000E1,-2.919699907E0,2.087300062E0,1.430799961E0
2.636200000E1,-1.948399901E0,2.489399910E0,1.866799951E0
2.638200000E1,2.301999927E-1,4.180099964E0,2.233099937E0
2.640200000E1,2.767799854E0,4.256099701E0,9.459999800E-1
2.642200000E1,4.097599983E0,4.124199867E0,5.927999616E-1
2.644200000E1,4.787099838E0,4.090899944E0,1.920599937E0
2.646200000E1,5.673799992E0,4.013299942E0,3.175699949E0
2.648200000E1,6.150799751E0,4.197000027E0,4.448800087E0
2.650200000E1,6.849299908E0,4.000199795E0,5.716599941E0
2.652200000E1,6.987799644E0,3.598199844E0,6.206299782E0
2.654200000E1,5.305099964E0,3.798799992E0,7.171499729E0
2.656200000E1,5.106599808E0,3.233299971E0,7.163599968E0
2.658200000E1,6.575899601E0,1.678499937E0,6.773299694E0
2.660200000E1,8.046500206E0,-1.393000036E-1,6.342799664E0
2.662200000E1,7.645899773E0,-4.887999892E-1,5.432899952E0
2.664200000E1,6.438499928E0,-1.296999902E-1,4.125499725E0
2.666200469E1,5.938299656E0,1.504999995E-1,2.758399963E0
2.669200000E1,2.583400011E0,-1.532000005E-1,1.072399974E0
2.671200000E1,-1.485999972E-1,-2.357999980E-1,4.633999765E-1
2.673200000E1,-2.563400030E0,-1.226999983E-1,1.967999935E-1
2.675200000E1,-3.708899975E0,-7.181000113E-1,-1.316999942E-1
2.677200000E1,-4.605400085E0,-1.414899945E0,-4.980999827E-1
2.679200000E1,-5.343699932E0,-2.079400063E0,6.499999668E-3
2.681200000E1,-5.032399654E0,-2.979899883E0,3.892000020E-1
2.683200000E1,-3.765699863E0,-3.871599913E0,3.366999924E-1
2.685200000E1,-2.095399857E0,-4.743199825E0,-1.028999984E-1
2.687200000E1,-1.053900003E0,-5.381899834E0,-3.872999847E-1
2.690200000E1,-6.624999642E-1,-6.451299667E0,-3.958999813E-1
2.692200000E1,-5.895999670E-1,-7.319999695E0,-4.235999882E-1
2.694200000E1,-5.605999827E-1,-7.459599972E0,-6.427999735E-1
2.696200000E1,-5.367000103E-1,-7.479099751E0,-9.341999888E-1
2.698200000E1,-8.616999984E-1,-7.273200035E0,-6.313999891E-1
2.700200000E1,1.019999981E-1,-7.906499863E0,-8.151999712E-1
2.702200000E1,-1.368999928E-1,-6.888700008E0,-1.396099925E0
2.704200000E1,-1.226199985E0,-4.803100109E0,-1.184000015E0
2.706200000E1,-8.429999650E-2,-4.101200104E0,-6.300000101E-2
2.708200000E1,2.090499878E0,-4.916999817E0,9.247999787E-1
2.710200000E1,3.372200012E0,-5.169399738E0,1.752599955E0
2.712200000E1,3.733899832E0,-4.072999954E0,2.307600021E0
2.714200000E1,3.784600019E0,-2.896299839E0,1.751899958E0
2.716200000E1,3.323099852E0,-1.812799931E0,1.266899943E0
2.718200000E1,7.425999641E-1,-3.617999852E-1,1.769899964E0
2.720200000E1,-1.866799951E0,1.445400000E0,2.558799982E0
2.722200000E1,-2.526499987E0,2.381299973E0,1.875699997E0
2.724200000E1,-2.876699924E0,3.171999931E0,1.055899978E0
2.726200000E1,-2.932699919E0,3.794099808E0,4.957000017E-1
2.728200000E1,-2.751699924E0,3.998499870E0,4.517000020E-1
2.730200000E1,-2.863600016E0,4.312500000E0,8.369999528E-1
2.732200000E1,-2.034899950E0,4.412099838E0,1.078099966E0
2.734200000E1,-7.075999975E-1,4.559099674E0,1.178599954E0
2.736200312E1,1.065500021E0,4.669399738E0,1.331099987E0
2.739200000E1,4.560999870E0,4.536299706E0,8.896999955E-1
2.741200000E1,6.091099739E0,4.317899704E0,7.019999623E-1
2.743200000E1,6.788599968E0,4.191899776E0,1.134099960E0
2.745200000E1,7.217099667E0,4.043799877E0,1.886899948E0
2.747200000E1,6.658999920E0,4.032599926E0,2.621500015E0
2.749200000E1,6.714200020E0,3.085299969E0,3.145900011E0
2.751200000E1,5.450099945E0,3.032399893E0,3.657999992E0
2.753200000E1,4.507699966E0,3.439800024E0,4.740600109E0
2.755200000E1,6.865999699E0,1.832199931E0,4.432199955E0
2.757200000E1,9.504599571E0,-2.014999986E-1,3.915299892E0
2.759200156E1,9.974100113E0,-1.632099986E0,3.707099915E0
2.762200000E1,7.370699883E0,-1.458899975E0,3.009799957E0
2.764200000E1,5.870800018E0,-1.551299930E0,1.097999930E0
2.766200469E1,4.030299664E0,-1.353199959E0,9.529999644E-2
2.769200000E1,2.004999965E-1,-1.003600001E0,-2.361999899E-1
2.771200000E1,-2.114399910E0,-7.868999839E-1,-3.094999790E-1
2.773200000E1,-3.736599922E0,-8.668999672E-1,-2.173999995E-1
2.775200000E1,-4.307600021E0,-1.520099998E0,-1.206000000E-1
2.777200000E1,-4.443399906E0,-2.189100027E0,1.861999929E-1
2.779200000E1,-4.118499756E0,-3.293799877E0,2.513000071E-1
2.781200000E1,-3.622099876E0,-4.695499897E0,5.539999902E-2
2.783200000E1,-3.583099842E0,-5.785899639E0,-1.313000023E-1
2.785200000E1,-3.612599850E0,-6.455399990E0,-4.777999818E-1
2.787200000E1,-3.033399820E0,-7.514400005E0,-8.824999928E-1
2.789200000E1,-2.962699890E0,-8.596599579E0,-1.024299979E0
2.791200000E1,-3.207700014E0,-9.278599739E0,-7.427999973E-1
2.793200000E1,-3.230999947E0,-9.148399353E0,-1.870999932E-1
2.795200000E1,-3.015100002E0,-8.212800026E0,-1.755999923E-1
2.797200000E1,-1.055899978E0,-8.058099747E0,-3.237999976E-1
2.799200000E1,1.037899971E0,-8.257699966E0,-7.646999955E-1
2.801200000E1,2.759000063E-1,-6.128200054E0,-2.513999939E-1
2.803200000E1,9.840999842E-1,-5.206899643E0,3.946999907E-1
2.805200000E1,3.339499950E0,-5.741600037E0,9.746999741E-1
2.807200000E1,5.317899704E0,-6.353899956E0,1.350799918E0
2.809200156E1,5.717400074E0,-5.369599819E0,1.665099978E0
2.812200000E1,4.450900078E0,-2.823899984E0,1.274299979E0
2.814200000E1,3.256799936E0,-1.517599940E0,8.072999716E-1
2.816200000E1,9.454999566E-1,2.241999954E-1,1.159399986E0
2.818200000E1,-1.352899909E0,1.972899914E0,1.191699982E0
2.820200000E1,-2.473099947E0,3.154899836E0,7.641999722E-1
2.822200000E1,-2.724799871E0,3.769899845E0,3.325999975E-1
2.824200000E1,-2.489500046E0,4.078899860E0,-2.190000005E-2
2.826200000E1,-2.567699909E0,4.258800030E0,2.807999849E-1
2.828200000E1,-1.646399975E0,3.806899786E0,7.468000054E-1
2.830200156E1,-3.251999915E-1,3.874699831E0,1.499199986E0
2.832200156E1,1.970099926E0,4.147200108E0,1.988499999E0
2.835200000E1,5.733299732E0,4.564899921E0,1.856899977E0
2.837200000E1,5.979199886E0,5.063199997E0,2.130800009E0
2.839200000E1,5.777999878E0,5.511399746E0,2.836499929E0
2.841200000E1,6.580899715E0,4.970699787E0,3.683399916E0
2.843200000E1,7.213199615E0,4.387499809E0,4.217000008E0
2.845200000E1,6.278599739E0,4.201499939E0,4.799499989E0
2.847200000E1,5.536799908E0,3.235399961E0,4.975899696E0
2.849200000E1,3.728699923E0,3.381899834E0,5.321300030E0
2.851200000E1,3.881099939E0,2.832599878E0,5.795599937E0
2.853200000E1,7.397299767E0,1.919000000E-1,5.275300026E0
2.855200000E1,1.071199989E1,-2.851599932E0,4.432899952E0
2.857200000E1,1.146910000E1,-4.545599937E0,3.788999796E0
2.859200156E1,8.745599747E0,-3.736999989E0,3.531599998E0
2.862200000E1,5.395199776E0,-2.907999992E0,2.353800058E0
2.864200156E1,3.434199810E0,-2.469799995E0,1.096599936E0
2.866200469E1,7.479999661E-1,-2.766099930E0,-2.615999877E-1
2.869200000E1,-4.620599747E0,-2.979499817E0,-1.296399951E0
2.871200000E1,-7.192800045E0,-2.904299974E0,-1.382599950E0
2.873200156E1,-8.170100212E0,-2.646299839E0,-1.365999937E0
2.876200469E1,-6.483099937E0,-3.458400011E0,-1.132200003E0
2.879200000E1,-4.699500084E0,-4.449800014E0,-5.066999793E-1
2.881200156E1,-4.285599709E0,-5.080699921E0,-1.307999939E-1
2.884200156E1,-2.848500013E0,-6.251599789E0,2.272000015E-1
2.887200000E1,-4.282999933E-1,-7.393199921E0,-7.699999958E-3
2.889200000E1,7.386999726E-1,-7.876699924E0,-3.199000061E-1
2.891200000E1,1.001600027E0,-7.990399837E0,-1.644999981E-1
2.893200000E1,2.674999833E-1,-7.878399849E0,1.001999974E-1
2.895200000E1,1.620000042E-2,-7.905200005E0,9.550999999E-1
2.897200000E1,4.846999943E-1,-7.849199772E0,1.386399984E0
2.899200000E1,-3.249000013E-1,-6.062900066E0,1.739099979E0
2.901200156E1,-8.492999673E-1,-4.536600113E0,2.149999857E0
2.904200156E1,1.733999968E0,-5.012499809E0,2.668299913E0
2.906200156E1,3.706099987E0,-5.229000092E0,2.836599827E0
2.908200156E1,4.875400066E0,-3.880199909E0,2.499899864E0
2.910200156E1,5.717400074E0,-3.155599833E0,1.702699900E0
2.912200156E1,5.196000099E0,-1.925699949E0,1.140499949E0
2.914200156E1,2.760900021E0,-4.863999784E-1,1.547299981E0
2.916200156E1,-5.370000005E-2,1.376399994E0,2.412199974E0
2.919200000E1,-2.927199841E0,3.786399841E0,2.131700039E0
2.921200000E1,-2.806299925E0,4.551099777E0,1.244499922E0
2.923200000E1,-2.287400007E0,5.123399734E0,3.222000003E-1
2.925200000E1,-1.730199933E0,5.344500065E0,-1.674999893E-1
2.927200000E1,-1.088799953E0,5.705499649E0,-4.449999705E-2
2.929200000E1,2.877999842E-1,6.095699787E0,6.948999763E-1
2.931200000E1,2.601999998E0,6.649699688E0,1.389899969E0
2.933200000E1,5.349899769E0,6.499099731E0,9.496999979E-1
2.936200312E1,6.315999985E0,5.906399727E0,-6.337000132E-1
2.939200000E1,5.919099808E0,5.758800030E0,-1.029799938E0
2.941200000E1,6.570199966E0,5.166100025E0,-8.193999529E-1
2.943200000E1,5.796499729E0,5.279599667E0,1.940999925E-1
2.945200000E1,6.212399960E0,3.686399937E0,1.738399982E0
2.947200312E1,6.207699776E0,2.402299881E0,3.180799961E0
2.950200000E1,8.107399940E0,7.889999747E-1,5.214200020E0
2.952200000E1,1.201480007E1,-3.076900005E0,4.652100086E0
2.954200000E1,1.165069962E1,-5.449500084E0,4.460700035E0
2.956200469E1,6.773699760E0,-3.869199991E0,5.193699837E0
2.959200000E1,3.237200022E0,-2.391499996E0,3.851699829E0
2.961200000E1,1.845899940E0,-1.509599924E0,1.513599992E0
2.963200000E1,-1.065999940E-1,-3.057999909E-1,-8.379999548E-2
2.965200000E1,-2.815699816E0,7.184999585E-1,-7.638999820E-1
2.967200000E1,-4.956399918E0,1.533299923E0,-8.687999845E-1
2.969200000E1,-5.308899879E0,1.324699998E0,-3.671999872E-1
2.971200000E1,-3.863899946E0,1.744999886E-1,-4.299999680E-3
2.973200000E1,-2.289000034E0,-1.276199937E0,7.088999748E-1
2.975200000E1,-1.652499914E0,-2.869699955E0,1.542199969E0
2.977200000E1,-1.005599976E0,-4.744599819E0,1.790599942E0
2.979200000E1,-1.131699920E0,-6.184799671E0,1.905099988E0
2.981200000E1,-1.864699960E0,-6.897999763E0,1.967799902E0
2.984200000E1,-9.138000011E-1,-8.443599701E0,1.764699936E0
2.986200000E1,4.730999768E-1,-9.858900070E0,7.303999662E-1
2.988200000E1,-1.499999911E-1,-1.014369965E1,-2.255999893E-1
2.990200000E1,-2.615799904E0,-8.420199394E0,-7.246999741E-1
2.992200000E1,-4.439499855E0,-6.584799767E0,-2.842999995E-1
2.994200000E1,-2.687099934E0,-6.845499992E0,2.680999935E-1
2.996200000E1,-1.617900014E0,-5.943699837E0,2.590999901E-1
2.998200000E1,-1.336799979E0,-4.256700039E0,5.916000009E-1
3.000200000E1,7.700999975E-1,-4.237199783E0,1.069800019E0
3.002200000E1,3.964799881E0,-5.560599804E0,1.190299988E0
3.004200000E1,5.731699944E0,-6.091599941E0,1.189199924E0
3.006200000E1,5.373499870E0,-5.460000038E0,1.521799922E0
3.008200000E1,3.698799849E0,-4.377099991E0,1.741699934E0
3.010200000E1,1.182799935E0,-3.155599833E0,2.245499849E0
3.012200000E1,-1.723199964E0,-1.578999996E0,3.032699823E0
3.014200000E1,-3.768999815E0,-2.361999899E-1,3.439999819E0
3.016200000E1,-4.677499771E0,1.215099931E0,2.978199959E0
3.018200000E1,-4.386399746E0,2.061399937E0,1.226699948E0
3.020200000E1,-3.684000015E0,2.547899961E0,-1.660999954E-1
3.022200000E1,-3.449499846E0,2.946300030E0,-6.530999541E-1
3.024200000E1,-2.674499989E0,3.154299974E0,-4.442999959E-1
3.027200000E1,-6.017999649E-1,3.323400021E0,-9.502999783E-1
3.029200000E1,1.126500010E0,4.098400116E0,-1.014899969E0
3.031200000E1,2.906800032E0,4.434199810E0,-1.294099927E0
3.033200000E1,4.727200031E0,4.774899960E0,-1.633799911E0
3.035200000E1,7.995399952E0,4.247200012E0,-2.278699875E0
3.037200000E1,1.034439945E1,4.594199657E0,-2.719300032E0
3.039200000E1,1.009759998E1,5.863800049E0,-1.037199974E0
3.041200000E1,8.593199730E0,6.668599606E0,1.741499901E0
3.043200000E1,8.291899681E0,5.927799702E0,3.588799953E0
3.045200000E1,6.875999928E0,5.795899868E0,4.940799713E0
3.047200000E1,6.491600037E0,5.396199703E0,6.426799774E0
3.049200000E1,9.775899887E0,2.427299976E0,6.520099640E0
3.051200000E1,1.300859928E1,-1.023699999E0,5.240200043E0
3.053200000E1,1.257800007E1,-3.257099867E0,4.642799854E0
3.055200000E1,9.370599747E0,-3.267199993E0,4.679299831E0
3.057200000E1,5.904399872E0,-2.848500013E0,3.169199944E0
3.059200156E1,3.311699867E0,-2.071599960E0,1.363399982E0
3.062200000E1,9.429000020E-1,-1.310299993E0,1.158999950E-1
3.064200000E1,-4.973999858E-1,-1.123799920E0,-3.179999813E-2
3.066200469E1,-1.643299937E0,-1.815999985E0,-3.920999765E-1
3.069200000E1,-4.636099815E0,-2.799899817E0,-3.437999785E-1
3.071200000E1,-5.872200012E0,-3.667799950E0,3.159999847E-2
3.073200000E1,-5.596699715E0,-4.716599941E0,2.276999950E-1
3.075200000E1,-4.895099640E0,-6.037399769E0,1.252999902E-1
3.077200000E1,-4.735799789E0,-7.182199955E0,4.369999841E-2
3.079200000E1,-4.670700073E0,-7.348199844E0,1.036999971E-1
3.081200000E1,-3.774299860E0,-7.673199654E0,-2.199999988E-1
3.083200000E1,-2.133299828E0,-8.321599960E0,-1.073400021E0
3.085200000E1,-1.799999969E-3,-9.254899979E0,-1.496299982E0
3.087200000E1,1.119599938E0,-9.736700058E0,-1.947799921E0
3.089200000E1,-1.309999973E-1,-9.007299423E0,-2.047399998E0
3.091200000E1,-9.199999571E-1,-8.413000107E0,-1.676899910E0
3.093200000E1,-1.485999972E-1,-8.725399971E0,-1.491500020E0
3.095200000E1,-1.147899985E0,-6.939099789E0,-7.523999810E-1
3.097200000E1,-1.151099920E0,-5.421799660E0,4.896999896E-1
3.099200000E1,2.384099960E0,-5.960000038E0,9.496999979E-1
3.101200000E1,5.395499706E0,-6.816799641E0,1.298599958E0
3.103200000E1,5.637199879E0,-5.923699856E0,2.117499828E0
3.105200000E1,4.853499889E0,-4.235199928E0,2.297499895E0
3.107200000E1,4.135799885E0,-3.109299898E0,1.595899940E0
3.109200156E1,2.258199930E0,-1.648199916E0,1.470999956E0
3.112199844E1,-1.216599941E0,6.905999780E-1,1.806199908E0
3.114200000E1,-2.500699997E0,1.777899981E0,1.345199943E0
3.116200156E1,-3.167099953E0,2.481699944E0,1.289899945E0
3.119200000E1,-3.237900019E0,2.707099915E0,8.704999685E-1
3.121200000E1,-3.187899828E0,2.803799868E0,1.110599995E0
3.123200000E1,-2.617499828E0,2.748899937E0,1.436999917E0
3.125200000E1,-1.384599924E0,3.070899963E0,1.746699929E0
3.127200000E1,1.585000008E-1,3.549199820E0,2.145900011E0
3.129200000E1,2.148599863E0,3.617499828E0,2.158299923E0
3.131200000E1,4.579899788E0,3.368499994E0,2.327100039E0
3.133200000E1,6.527799606E0,3.918099880E0,3.512699842E0
3.135200000E1,8.568599701E0,4.747699738E0,4.436899662E0
3.137200000E1,1.023899937E1,5.375499725E0,3.904199839E0
3.139200000E1,9.807899475E0,6.172699928E0,3.311199903E0
3.141200000E1,9.497300148E0,5.042900085E0,3.469399929E0
3.143200000E1,6.915599823E0,4.066599846E0,3.323099852E0
3.145200000E1,4.244999886E0,4.498899937E0,4.002099991E0
3.147200000E1,5.134500027E0,3.188199997E0,4.239500046E0
3.149200156E1,8.074799538E0,6.168999672E-1,4.105599880E0
3.152200000E1,1.038869953E1,-2.179399967E0,3.558599949E0
3.154200000E1,8.569399834E0,-1.295699954E0,3.344399929E0
3.156200312E1,7.004699707E0,-6.915000081E-1,2.825599909E0
3.159200000E1,4.508399963E0,-1.240199924E0,1.891699910E0
3.161200000E1,1.979599953E0,-1.393000007E0,1.743699908E0
3.163200000E1,-4.138999879E-1,-1.311200023E0,1.318099976E0
3.165200000E1,-2.309399843E0,-1.589399934E0,4.520999789E-1
3.167200000E1,-3.460099936E0,-1.991400003E0,-3.197999895E-1
3.169200000E1,-4.295499802E0,-2.579299927E0,-7.250999808E-1
3.171200000E1,-4.268000126E0,-3.445199966E0,-8.761999607E-1
3.173200000E1,-4.209300041E0,-4.608900070E0,-9.789999723E-1
3.175200000E1,-4.380599976E0,-5.361399651E0,-8.427999616E-1
3.177200000E1,-4.545700073E0,-5.961599827E0,-8.941999674E-1
3.179200000E1,-4.312999725E0,-6.668999672E0,-1.189800024E0
3.181200000E1,-3.720899820E0,-7.225299835E0,-1.112399936E0
3.183200000E1,-2.635499954E0,-7.629399776E0,-8.125000000E-1
3.185200000E1,-1.383700013E0,-7.804499626E0,-7.224000096E-1
3.187200000E1,-2.766000032E-1,-7.740999699E0,-9.311999679E-1
3.189200000E1,9.640000015E-2,-7.080499649E0,-9.735999703E-1
3.191200000E1,7.576999664E-1,-7.079499722E0,-1.412899971E0
3.193200000E1,1.414600015E0,-7.760399818E0,-2.165199995E0
3.195200000E1,-4.238999784E-1,-5.930099964E0,-1.780699968E0
3.197200000E1,-1.796700001E0,-4.322299957E0,-9.217000008E-1
3.199200000E1,-1.149399996E0,-4.487599850E0,1.655000001E-1
3.201200000E1,1.255399942E0,-6.597699642E0,7.415999770E-1
3.203200000E1,2.477599859E0,-7.513199806E0,1.052500010E0
3.205200000E1,2.211899996E0,-6.489899635E0,1.682199955E0
3.207200000E1,1.763000011E0,-5.178800106E0,9.618999958E-1
3.209200313E1,1.281899929E0,-3.858999968E0,7.160999775E-1
3.212199844E1,-4.411999881E-1,-1.559799910E0,1.290099978E0
3.214200000E1,-1.638499975E0,2.799999900E-3,1.493600011E0
3.216200000E1,-2.068099976E0,1.064800024E0,1.471099973E0
3.218200000E1,-1.981399894E0,1.663399935E0,1.239099979E0
3.220200000E1,-1.504299998E0,2.008699894E0,1.044600010E0
3.222200000E1,-9.732999802E-1,2.214299917E0,1.026000023E0
3.224200000E1,-2.965999842E-1,2.857599974E0,1.160499930E0
3.226200000E1,1.137799978E0,3.292899847E0,1.138399959E0
3.228200000E1,3.603199959E0,3.719499826E0,1.543099999E0
3.230200000E1,6.017699718E0,3.884199858E0,1.284199953E0
3.232200000E1,7.567499638E0,4.059599876E0,1.463299990E0
3.234200000E1,8.720499992E0,4.364099979E0,1.925099969E0
3.236200312E1,9.649000168E0,4.483200073E0,2.861799955E0
3.239200000E1,9.294199944E0,5.069299698E0,4.497299671E0
3.241200000E1,8.013899803E0,5.080899715E0,5.044399738E0
3.243200000E1,7.604499817E0,3.680399895E0,5.317399979E0
3.245200000E1,5.006599903E0,4.235499859E0,5.462999821E0
3.248200000E1,4.905099869E0,3.929399967E0,6.536699772E0
3.250200000E1,8.640399933E0,3.066000044E-1,5.851299763E0
3.252200000E1,1.096119976E1,-2.306599855E0,5.224899769E0
3.254200000E1,1.030589962E1,-2.453500032E0,4.460700035E0
3.256200313E1,8.321399689E0,-1.497999907E0,3.061100006E0
3.259200000E1,5.729700089E0,-1.131600022E0,1.470799923E0
3.261200000E1,3.609399796E0,-8.640999794E-1,1.531399965E0
3.263200000E1,1.693099976E0,-9.477999806E-1,1.510399938E0
3.265200000E1,-1.679999940E-2,-1.220000029E0,1.041299939E0
3.267200000E1,-1.362200022E0,-1.970199943E0,5.860999823E-1
3.269200000E1,-2.323999882E0,-3.010799885E0,4.210999906E-1
3.271200000E1,-3.249300003E0,-3.584800005E0,5.715000033E-1
3.273200000E1,-3.292199850E0,-4.365699768E0,4.537999928E-1
3.275200000E1,-2.911000013E0,-5.173999786E0,-1.107999980E-1
3.277200000E1,-2.365900040E0,-6.217499733E0,-6.703000069E-1
3.279200000E1,-1.725600004E0,-7.459300041E0,-9.210999608E-1
3.281200000E1,-1.283699989E0,-8.593199730E0,-1.001299977E0
3.283200000E1,-1.470600009E0,-9.315799713E0,-1.189899921E0
3.285200000E1,-1.918799996E0,-9.693799973E0,-1.234899998E0
3.287200000E1,-2.341799974E0,-9.547399521E0,-9.573999643E-1
3.289200000E1,-3.107699871E0,-8.939099312E0,-1.015399933E0
3.291200000E1,-2.659699917E0,-9.188399315E0,-9.377999902E-1
3.293200156E1,-2.307899952E0,-8.890199661E0,-1.059399962E0
3.296200000E1,-2.724699974E0,-6.254099846E0,-8.590000123E-2
3.299200000E1,2.298999876E-1,-6.770699978E0,3.673999906E-1
3.301200000E1,1.916299939E0,-8.102799416E0,1.020399928E0
3.303200000E1,2.228299856E0,-7.872099876E0,1.988899946E0
3.306200000E1,2.328399897E0,-5.521999836E0,1.964599967E0
3.308200000E1,2.720099926E0,-3.837099791E0,1.212999940E0
3.310200000E1,2.100699902E0,-2.425400019E0,1.376299977E0
3.312200000E1,2.280999869E-1,-7.780999541E-1,1.792899966E0
3.314200000E1,-1.407299995E0,8.349999785E-1,1.749399900E0
3.316200000E1,-1.508899927E0,1.674999952E0,1.678900003E0
3.318200000E1,-1.059299946E0,2.074399948E0,9.241999984E-1
3.320200000E1,-4.253999889E-1,2.745499849E0,5.349000096E-1
3.322200000E1,3.082999885E-1,3.400199890E0,2.742999792E-1
3.324200000E1,1.880399942E0,3.991199970E0,5.752999783E-1
3.326200000E1,4.135299683E0,4.336499691E0,8.675000072E-1
3.328200000E1,6.531699657E0,4.568200111E0,7.368999720E-1
3.330200000E1,7.727299690E0,5.260900021E0,7.656999826E-1
3.332200000E1,8.667200089E0,5.719699860E0,1.081900001E0
3.334200000E1,9.709699631E0,5.632299900E0,2.498899937E0
3.336200312E1,1.035849953E1,5.752699852E0,4.739200115E0
3.339200000E1,9.218099594E0,5.628399849E0,7.678799629E0
3.341200000E1,8.156399727E0,4.480700016E0,8.127499580E0
3.344200156E1,5.986000061E0,4.731800079E0,7.502799988E0
3.346200312E1,9.420800209E0,1.751099944E0,6.402799606E0
3.349200000E1,1.510719967E1,-4.300199986E0,4.082799911E0
3.351200000E1,1.337179947E1,-5.268899918E0,3.046999931E0
3.353200000E1,8.445199966E0,-3.292699814E0,3.315699816E0
3.355200000E1,5.718800068E0,-3.679099798E0,2.450899839E0
3.357200000E1,3.314800024E0,-4.185599804E0,7.784000039E-1
3.359200000E1,4.120999873E-1,-3.728199959E0,-2.443999946E-1
3.361200000E1,-1.837099910E0,-3.174299955E0,-2.039399862E0
3.363200000E1,-1.680999994E0,-3.635099888E0,-2.591899872E0
3.365200000E1,-1.495100021E0,-4.930500031E0,-1.988099933E0
3.367200000E1,-1.853199959E0,-6.166299820E0,-1.849699974E0
3.369200000E1,-2.332700014E0,-7.023699760E0,-1.880800009E0
3.371200000E1,-2.949199915E0,-7.642799854E0,-2.322999954E0
3.373200000E1,-3.324599981E0,-8.285300255E0,-2.857199907E0
3.375200000E1,-4.048799992E0,-8.778800011E0,-3.279199839E0
3.377200000E1,-4.367099762E0,-9.276000023E0,-3.289099932E0
3.379200000E1,-3.922099829E0,-9.989099503E0,-3.027999878E0
3.381200000E1,-3.485899925E0,-1.015670013E1,-2.763099909E0
3.383200000E1,-2.650599957E0,-9.911799431E0,-2.772500038E0
3.385200000E1,-2.170099974E0,-9.286299706E0,-2.792199850E0
3.387200000E1,-7.149999738E-1,-9.366000175E0,-2.562299967E0
3.389200000E1,-1.247999966E-1,-9.232999802E0,-2.433799982E0
3.391200000E1,-1.252399921E0,-7.233699799E0,-1.328299999E0
3.393200312E1,-1.567600012E0,-5.644899845E0,-4.639999866E-1
3.396200000E1,2.188499928E0,-7.128099918E0,1.212999970E-1
3.398200000E1,3.921399832E0,-8.325699806E0,1.356000006E-1
3.400200000E1,4.121900082E0,-8.072099686E0,8.094999790E-1
3.402200000E1,3.895099878E0,-6.899799824E0,7.784999609E-1
3.404200000E1,4.358200073E0,-5.476599693E0,1.054999948E0
3.406200000E1,4.250599861E0,-3.438299894E0,1.969199896E0
3.408200000E1,3.325099945E0,-1.130699992E0,2.740399837E0
3.410200000E1,1.736499906E0,8.066999912E-1,2.747400045E0
3.412200000E1,8.511999846E-1,2.404399872E0,2.159999847E0
3.414200000E1,1.048499942E0,3.194099903E0,1.282799959E0
3.416200156E1,1.941999912E0,3.846099854E0,6.320999861E-1
3.419200000E1,4.534500122E0,4.865399837E0,1.046700001E0
3.421200000E1,6.401799679E0,6.038499832E0,2.468499899E0
3.423200000E1,6.297399998E0,6.819699764E0,2.887899876E0
3.425200000E1,4.567100048E0,7.701999664E0,3.195899963E0
3.427200000E1,4.477600098E0,7.808799744E0,4.042999744E0
3.429200000E1,6.149499893E0,6.822599888E0,4.986399651E0
3.431200000E1,6.761199951E0,6.129999638E0,5.834899902E0
3.433200000E1,6.170099735E0,5.648200035E0,6.682999611E0
3.435200000E1,6.164199829E0,4.948299885E0,7.067899704E0
3.437200000E1,6.677899837E0,3.873699903E0,6.925199986E0
3.439200000E1,5.063799858E0,4.273299694E0,6.737799644E0
3.442200000E1,5.475199699E0,2.075500011E0,5.897500038E0
3.444200000E1,7.042799950E0,-3.399999812E-3,5.415899754E0
3.446200000E1,7.858299732E0,-1.541799903E0,4.326699734E0
3.448200000E1,7.798599720E0,-1.322899938E0,3.826200008E0
3.450200000E1,7.719499588E0,-1.433200002E0,2.954799891E0
3.452200000E1,6.735799789E0,-2.024199963E0,2.060600042E0
3.454200000E1,3.876199961E0,-2.049299955E0,1.476799965E0
3.456200000E1,4.618999958E-1,-1.751299977E0,7.554000020E-1
3.459200000E1,-3.078199863E0,-1.435999990E0,-4.380000010E-2
3.461200000E1,-3.939099789E0,-1.638799906E0,-8.280000091E-2
3.463200000E1,-3.432099819E0,-2.503900051E0,8.630000055E-2
3.465200000E1,-2.551399946E0,-3.722299814E0,-8.909999579E-2
3.467200000E1,-1.633999944E0,-5.158799648E0,-4.091999829E-1
3.469200000E1,-1.423799992E0,-6.783699989E0,-1.000800014E0
3.471200000E1,-2.510099888E0,-7.630799770E0,-1.528599977E0
3.473200000E1,-2.782899857E0,-8.596300125E0,-2.028399944E0
3.475200000E1,-3.003199816E0,-9.058400154E0,-2.275799990E0
3.477200000E1,-3.049099922E0,-9.243700027E0,-2.267699957E0
3.480200000E1,-2.140799999E0,-8.975399971E0,-1.823699951E0
3.482200000E1,-1.459599972E0,-8.588299751E0,-1.601099968E0
3.484200000E1,3.626999855E-1,-8.947999954E0,-1.579100013E0
3.486200000E1,1.177699924E0,-8.795499802E0,-1.942199945E0
3.488200000E1,-3.819999844E-2,-6.348499775E0,-1.283200026E0
3.490200000E1,-6.439999938E-1,-4.851900101E0,-9.937999845E-1
3.493200000E1,1.666000009E0,-6.007999897E0,-5.909999833E-2
3.495200000E1,2.321199894E0,-6.314599991E0,1.149299979E0
3.497200000E1,2.576200008E0,-4.930099964E0,1.643899918E0
3.499200000E1,3.456499815E0,-3.747699976E0,5.345999599E-1
3.501200000E1,3.905699968E0,-2.650399923E0,-8.772000074E-1
3.503200000E1,2.356899977E0,-9.007999897E-1,-8.230999708E-1
3.505200000E1,-1.972000003E-1,8.775999546E-1,-9.579999745E-2
3.507200000E1,-2.094500065E0,2.807600021E0,-2.120999992E-1
3.509200000E1,-2.130599976E0,4.279200077E0,-6.006000042E-1
3.511200000E1,-6.362000108E-1,4.955899715E0,-1.207199931E0
3.513200000E1,3.825999796E-1,5.951699734E0,-2.001999915E-1
3.516200000E1,1.072199941E0,6.632899761E0,2.968499899E0
3.518200000E1,2.307499886E0,6.241899967E0,4.014899731E0
3.520200000E1,3.383499861E0,6.289399624E0,4.601200104E0
3.522200000E1,4.424900055E0,6.131000042E0,4.523399830E0
3.524200000E1,5.302099705E0,5.768199921E0,4.557699680E0
3.526200312E1,6.062500000E0,5.385499954E0,4.822499752E0
3.529200000E1,7.293999672E0,4.684599876E0,4.527899742E0
3.531200000E1,6.930299759E0,4.357199669E0,4.149499893E0
3.533200000E1,5.881899834E0,4.295199871E0,4.261300087E0
3.535200000E1,5.979399681E0,2.877899885E0,4.365799904E0
3.537200156E1,5.100500107E0,2.740000010E0,4.600299835E0
3.540200000E1,5.333600044E0,2.434999943E0,4.458399773E0
3.542200000E1,8.073299408E0,-3.915999830E-1,3.571899891E0
3.544200000E1,9.814999580E0,-3.149799824E0,2.935600042E0
3.546200000E1,9.133199692E0,-4.140699863E0,2.671000004E0
3.548200000E1,6.488399982E0,-3.270900011E0,2.889699936E0
3.550200000E1,4.321700096E0,-2.720799923E0,2.360299826E0
3.552200000E1,2.130800009E0,-2.244400024E0,1.722399950E0
3.554200000E1,-1.206999943E-1,-1.738499999E0,1.082299948E0
3.556200000E1,-2.021600008E0,-1.797899961E0,5.209000111E-1
3.558200000E1,-3.578999996E0,-2.075899839E0,1.366000026E-1
3.560200000E1,-4.606800079E0,-2.241400003E0,-9.969999641E-2
3.562200000E1,-4.825200081E0,-2.902400017E0,-2.924000025E-1
3.564200000E1,-4.502900124E0,-3.948699951E0,-4.728999734E-1
3.566200000E1,-4.161099911E0,-4.808899879E0,-5.697999597E-1
3.568200000E1,-3.766199827E0,-5.716000080E0,-7.299999595E-1
3.570200000E1,-3.108199835E0,-6.476799965E0,-8.046000004E-1
3.572200000E1,-2.075700045E0,-7.225399971E0,-8.704999685E-1
3.574200156E1,-1.056699991E0,-8.108300209E0,-1.104599953E0
3.577200000E1,-1.537999958E-1,-9.133600235E0,-1.820199966E0
3.579200000E1,-5.234000087E-1,-9.397500038E0,-2.168900013E0
3.581200000E1,-1.982999921E0,-8.852499962E0,-2.319999933E0
3.583200000E1,-2.208400011E0,-8.791899681E0,-1.615899920E0
3.585200000E1,-1.184999943E0,-9.236100197E0,-1.527099967E0
3.587200000E1,-1.531799912E0,-7.302299976E0,-3.459999859E-1
3.589200000E1,-1.190999985E0,-5.780900002E0,3.398999870E-1
3.592200000E1,2.353199959E0,-6.546400070E0,9.844999909E-1
3.594200000E1,3.067199945E0,-6.879799843E0,1.047500014E0
3.596200000E1,2.144799948E0,-5.107100010E0,1.948499918E0
3.598200000E1,2.599099874E0,-3.165499926E0,1.878899932E0
3.600200000E1,3.780200005E0,-1.112800002E0,1.037899971E0
3.602200000E1,4.138199806E0,1.434299946E0,1.399699926E0
3.604200000E1,3.250499964E0,4.556099892E0,1.388000011E0
3.606200000E1,2.409699917E0,6.244499683E0,1.053799987E0
3.609200000E1,1.375499964E0,6.252799988E0,2.698499918E0
3.611200000E1,8.989999890E-1,5.601599693E0,4.767999649E0
3.613200000E1,3.601000011E-1,5.752299786E0,6.361099720E0
3.615200000E1,5.607999563E-1,6.005300045E0,7.403199673E0
3.617200000E1,1.591599941E0,5.315000057E0,7.400599957E0
3.619200000E1,1.985199928E0,4.907399654E0,6.813399792E0
3.621200000E1,2.438899994E0,4.468999863E0,6.003599644E0
3.623200000E1,3.311800003E0,3.779899836E0,5.545799732E0
3.625200000E1,4.408699989E0,3.020200014E0,5.173199654E0
3.627200000E1,4.467599869E0,2.831599951E0,4.869599819E0
3.629200000E1,4.762599945E0,2.312899828E0,4.969699860E0
3.631200000E1,5.611799717E0,7.552999854E-1,4.897900105E0
3.633200000E1,4.998199940E0,1.043499947E0,5.351299763E0
3.635200000E1,6.670599937E0,-1.058200002E0,5.067699909E0
3.637200000E1,7.914899826E0,-3.818599939E0,3.807499886E0
3.639200000E1,6.498899937E0,-4.151599884E0,3.295799971E0
3.641200000E1,4.381400108E0,-3.188599825E0,2.899600029E0
3.643200000E1,3.057299852E0,-2.274499893E0,2.136600018E0
3.645200000E1,2.068799973E0,-1.446299911E0,1.378600001E0
3.648200000E1,-5.729999766E-2,-3.869999945E-1,6.449999809E-1
3.650200000E1,-1.782199979E0,-1.806999892E-1,-3.474999964E-1
3.652200000E1,-3.495699883E0,-7.276999950E-1,-1.393299937E0
3.654200000E1,-5.538099766E0,-1.513599992E0,-2.042899847E0
3.656200000E1,-6.888099670E0,-2.310799837E0,-2.133299828E0
3.659200000E1,-6.067800045E0,-3.823999882E0,-2.003999949E0
3.661200000E1,-4.238899708E0,-4.844699860E0,-2.121999979E0
3.663200000E1,-2.617100000E0,-5.932600021E0,-2.226300001E0
3.666200000E1,-1.205399990E0,-7.470499992E0,-2.273499966E0
3.668200000E1,-8.540999889E-1,-8.069199562E0,-2.218899965E0
3.670200000E1,-1.182199955E0,-7.873499870E0,-2.456199884E0
3.672200000E1,-2.239099979E0,-6.887799740E0,-2.760799885E0
3.674200000E1,-2.220299959E0,-6.393300056E0,-2.421000004E0
3.676200000E1,-1.386999935E-1,-7.879099846E0,-2.416299820E0
3.678200000E1,-2.037999928E-1,-7.039700031E0,-1.359200001E0
3.680200000E1,-7.189999819E-1,-5.851799965E0,-3.599999845E-2
3.682200000E1,4.860000014E-1,-5.443699837E0,1.437199950E0
3.684200000E1,2.402099848E0,-5.741399765E0,2.183599949E0
3.686200000E1,3.661000013E0,-5.362199783E0,2.568099976E0
3.688200000E1,4.100599766E0,-4.174399853E0,1.881599903E0
3.690200000E1,4.013400078E0,-2.683399916E0,1.149500012E0
3.692200000E1,3.584399939E0,-1.261500001E0,1.018999964E-1
3.694200000E1,1.985499978E0,3.129999936E-1,2.129999921E-2
3.696200000E1,-4.463000000E-1,2.137500048E0,5.701999664E-1
3.698200000E1,-2.457900047E0,3.719099998E0,6.067999601E-1
3.700200000E1,-3.009399891E0,4.741499901E0,2.845999897E-1
3.702200000E1,-1.730799913E0,5.060400009E0,1.753999889E-1
3.704200000E1,-2.058999985E-1,5.481999874E0,8.125000000E-1
3.706200000E1,3.924999833E-1,6.021999836E0,9.244999886E-1
3.709200000E1,1.789099932E0,6.223299980E0,2.959800005E0
3.711200000E1,2.989499807E0,5.809199810E0,4.220799923E0
3.713200000E1,3.985199928E0,4.931799889E0,5.016699791E0
3.716200000E1,5.274099827E0,3.311899900E0,5.813699722E0
3.718200000E1,6.137700081E0,2.186300039E0,5.463599682E0
3.720200000E1,6.142199993E0,1.729499936E0,5.344299793E0
3.722200000E1,5.434799671E0,2.156499863E0,5.248399734E0
3.724200000E1,5.582099915E0,1.587499976E0,4.584099770E0
3.727200000E1,4.436999798E0,2.031399965E0,4.413300037E0
3.729200000E1,5.154900074E0,2.641599894E0,5.242700100E0
3.731200000E1,8.452599525E0,-3.328999877E-1,4.341499805E0
3.733200000E1,1.047219944E1,-3.301599979E0,3.876999855E0
3.735200000E1,8.610899925E0,-3.483799934E0,4.216199875E0
3.737200000E1,5.680899620E0,-2.960599899E0,3.955499887E0
3.739200000E1,3.115399837E0,-2.101099968E0,2.742300034E0
3.741200000E1,2.105200052E0,-1.714399934E0,9.099999666E-1
3.743200000E1,8.988999724E-1,-1.498799920E0,-4.320999980E-1
3.745200000E1,-1.003799915E0,-9.259999990E-1,-8.547999859E-1
3.747200000E1,-2.738800049E0,-8.338999748E-1,-1.124699950E0
3.749200000E1,-4.280399799E0,-1.063799977E0,-1.129799962E0
3.751200000E1,-5.454499722E0,-1.509299994E0,-1.090099931E0
3.753200000E1,-5.873899937E0,-2.298599958E0,-9.585999846E-1
3.755200000E1,-5.760399818E0,-3.337599993E0,-8.841999769E-1
3.757200000E1,-5.326099873E0,-4.147399902E0,-8.040999770E-1
3.759200000E1,-4.067199707E0,-5.727599621E0,-1.168699980E0
3.761200000E1,-2.931999922E0,-7.124399662E0,-1.286199927E0
3.763200000E1,-2.026000023E0,-8.168399811E0,-1.262399912E0
3.765200000E1,-1.504400015E0,-8.844099998E0,-1.565999985E0
3.767200000E1,-1.632799983E0,-8.751899719E0,-1.652199984E0
3.770200000E1,-1.660099983E0,-8.317299843E0,-1.738299966E0
3.772200000E1,-1.044999957E0,-8.436399460E0,-1.394699931E0
3.774200000E1,4.250000045E-2,-9.015299797E0,-1.286199927E0
3.776200000E1,-8.519999981E-1,-7.504999638E0,-6.297000051E-1
3.778200156E1,-1.369899988E0,-5.459099770E0,7.475999594E-1
3.781200156E1,2.319700003E0,-5.975499630E0,1.462799907E0
3.784200000E1,5.217899799E0,-6.177999973E0,1.555799961E0
3.786200000E1,5.089200020E0,-4.897399902E0,1.526700020E0
3.788200156E1,4.033299923E0,-3.140499830E0,1.213599920E0
3.791200000E1,1.349900007E0,-2.410000004E-2,1.198699951E0
3.793200000E1,-6.365999579E-1,2.009899855E0,1.321799994E0
3.795200000E1,-1.902999997E0,3.849900007E0,9.085999727E-1
3.797200156E1,-2.129499912E0,5.121099949E0,-1.469599962E0
3.800200000E1,-1.126600027E0,6.764899731E0,-4.736899853E0
3.802200156E1,-1.876999885E-1,7.189499855E0,-4.300600052E0
3.805200000E1,1.421399951E0,7.166199684E0,-1.820999980E-1
3.807200000E1,2.908699989E0,6.498399734E0,2.667599916E0
3.809201094E1,3.887099981E0,6.187699795E0,4.903199673E0
3.812200000E1,4.951999664E0,5.515799999E0,5.690399647E0
3.814200000E1,5.946499825E0,4.626499653E0,5.522099972E0
3.816200469E1,6.305799961E0,4.234600067E0,5.760200024E0
3.819200000E1,6.265100002E0,3.935599804E0,5.678099632E0
3.821200000E1,5.677999973E0,4.023699760E0,5.216499805E0
3.823200156E1,6.105599880E0,2.912400007E0,5.184199810E0
3.826199844E1,4.859399796E0,2.950799942E0,5.059099674E0
3.828200000E1,6.464299679E0,1.159799933E0,5.220399857E0
3.830200000E1,1.030179977E1,-2.504899979E0,4.757899761E0
3.832200000E1,1.087269974E1,-4.520599842E0,4.336100101E0
3.834200000E1,8.183899879E0,-3.692099810E0,4.678499699E0
3.836200000E1,5.984600067E0,-2.982899904E0,3.838899851E0
3.838200469E1,4.808499813E0,-2.478600025E0,2.428099871E0
3.841200000E1,2.024499893E0,-1.676499963E0,5.016999841E-1
3.843200000E1,-9.976999760E-1,-5.432000160E-1,1.999999949E-4
3.845200000E1,-3.123899937E0,-4.725999832E-1,-8.761999607E-1
3.847200000E1,-4.536399841E0,-7.835999727E-1,-1.764099956E0
3.849200000E1,-5.066099644E0,-1.694700003E0,-2.405699968E0
3.851200000E1,-5.082799911E0,-3.192299843E0,-2.707700014E0
3.853200000E1,-5.745800018E0,-4.493499756E0,-2.263999939E0
3.855200000E1,-6.155499935E0,-5.205699921E0,-1.402899981E0
3.858200000E1,-4.554399967E0,-6.771100044E0,-9.440000057E-1
3.860200000E1,-3.707000017E0,-7.855499744E0,-1.296700001E0
3.862200000E1,-3.274699926E0,-8.980699539E0,-1.318799973E0
3.864200000E1,-2.851899862E0,-1.005119991E1,-1.163399935E0
3.866200000E1,-3.285300016E0,-1.016059971E1,-1.315699935E0
3.868200000E1,-3.898399830E0,-9.302999496E0,-1.309399962E0
3.870200000E1,-2.232800007E0,-9.033599854E0,-1.140299916E0
3.872200000E1,-5.370000005E-1,-8.484499931E0,-1.142099977E0
3.874200000E1,-7.649999857E-2,-6.529799938E0,-5.302999616E-1
3.876200000E1,2.554399967E0,-6.484699726E0,-1.039999947E-1
3.878200000E1,6.393899918E0,-8.417399406E0,-1.799999923E-1
3.880200000E1,6.958399773E0,-8.479999542E0,2.289999872E-1
3.882200000E1,5.246599674E0,-6.581500053E0,1.619499922E0
3.884200000E1,4.039400101E0,-4.383500099E0,2.111000061E0
3.886200000E1,4.045300007E0,-2.918799877E0,1.272699952E0
3.888200000E1,3.034799814E0,-8.729999661E-1,2.212999910E-1
3.890200000E1,8.844999671E-1,1.349200010E0,-2.884999812E-1
3.892200000E1,-7.739999890E-1,2.980599880E0,-6.769999862E-1
3.894200000E1,-2.049299955E0,4.174600124E0,-1.228699923E0
3.896200000E1,-2.536599874E0,5.302499771E0,-1.854099989E0
3.898200000E1,-1.760199904E0,5.782599926E0,-1.940099955E0
3.900200000E1,-2.824999988E-1,6.059999943E0,-9.529999495E-1
3.902200000E1,9.551999569E-1,6.679199696E0,3.247999847E-1
3.904200000E1,2.939499855E0,7.005699635E0,1.609899998E0
3.906200000E1,4.992300034E0,7.013000011E0,3.219499826E0
3.908200156E1,6.352999687E0,6.996299744E0,5.069600105E0
3.910200156E1,7.549099922E0,6.566400051E0,5.966300011E0
3.913200000E1,8.734600067E0,5.643099785E0,7.023399830E0
3.915200000E1,8.501399994E0,5.086800098E0,6.816799641E0
3.917200000E1,9.191599846E0,3.924499989E0,6.869400024E0
3.919200000E1,9.242599487E0,2.324100018E0,5.883599758E0
3.921200000E1,6.963199615E0,3.533299923E0,6.177599907E0
3.923200000E1,9.449099541E0,1.142300010E0,5.874199867E0
3.925200000E1,1.301459980E1,-2.234099865E0,4.614799976E0
3.927200000E1,1.311739922E1,-5.084799767E0,3.789499998E0
3.929200000E1,9.582399368E0,-5.026899815E0,3.713500023E0
3.931200000E1,6.232299805E0,-3.918099880E0,3.338699818E0
3.933200000E1,4.739900112E0,-3.445999861E0,2.230399847E0
3.935200000E1,3.564800024E0,-3.623099804E0,8.780999780E-1
3.937200000E1,1.591399908E0,-3.458400011E0,8.129999787E-2
3.939200156E1,-6.279000044E-1,-3.281800032E0,-2.390999943E-1
3.942200000E1,-3.207199812E0,-3.921499968E0,-9.332999587E-1
3.944200000E1,-4.575699806E0,-4.120299816E0,-5.812000036E-1
3.946200000E1,-4.927599907E0,-5.382800102E0,-6.273999810E-1
3.948200000E1,-5.497299671E0,-6.580199718E0,-6.854000092E-1
3.950200000E1,-5.751100063E0,-7.345699787E0,-4.966000021E-1
3.952200000E1,-5.197299957E0,-8.854199409E0,-1.394599915E0
3.954200000E1,-5.196899891E0,-9.107399940E0,-8.815000057E-1
3.956200000E1,-4.526000023E0,-9.165800095E0,-5.131999850E-1
3.958200000E1,-2.482599974E0,-9.252200127E0,-1.031499982E0
3.960200000E1,-7.285000086E-1,-9.481399536E0,-1.835899949E0
3.962200000E1,2.784000039E-1,-9.715600014E0,-2.131500006E0
3.964200000E1,3.499999875E-3,-9.351599693E0,-1.513099909E0
3.966200000E1,-5.083999634E-1,-8.577400208E0,-4.914999902E-1
3.968200000E1,6.128999591E-1,-8.882200241E0,-2.633999884E-1
3.970200000E1,7.263000011E-1,-7.920499802E0,2.435999960E-1
3.972200000E1,7.818999887E-1,-6.451799870E0,7.591999769E-1
3.974200000E1,2.608799934E0,-6.539000034E0,9.006999731E-1
3.976200000E1,4.047399998E0,-7.042799950E0,1.290699959E0
3.978200000E1,4.405699730E0,-6.869899750E0,2.141299963E0
3.980200000E1,4.805500031E0,-5.377999783E0,2.250599861E0
3.982200000E1,6.136499882E0,-4.845099926E0,1.257499933E0
3.984200000E1,6.165099621E0,-3.721799850E0,7.818999887E-1
3.986200000E1,3.944299936E0,-1.587099910E0,1.366099954E0
3.988200156E1,1.598099947E0,4.188999832E-1,1.834399939E0
3.991200000E1,-1.934999973E-1,3.058399916E0,1.506099939E0
3.993200000E1,-1.973999888E-1,3.918999910E0,6.690999866E-1
3.995200000E1,1.319999993E-1,4.529200077E0,6.847999692E-1
3.997200000E1,7.755999565E-1,5.241299629E0,5.338999629E-1
3.999200000E1,1.553299904E0,4.968599796E0,8.348000050E-1
4.002200000E1,1.978099942E0,6.111799717E0,1.990599990E0
4.004200000E1,3.836999893E0,6.126499653E0,2.370899916E0
4.006200000E1,5.640699863E0,6.271699905E0,2.914399862E0
4.008200000E1,7.743599892E0,6.296000004E0,3.569000006E0
4.010200469E1,9.115300179E0,6.088500023E0,3.655999899E0
4.013200000E1,9.465899467E0,5.622799873E0,4.535900116E0
4.015200156E1,7.614899635E0,5.424200058E0,5.003599644E0
4.018200000E1,5.135099888E0,5.132100105E0,5.221199989E0
4.020200000E1,5.238499641E0,5.205800056E0,5.637300014E0
4.022200000E1,8.620200157E0,2.910399914E0,4.654799938E0
4.024200000E1,1.170659924E1,8.449999988E-2,3.751899958E0
4.026200000E1,1.281339931E1,-2.163100004E0,2.796599865E0
4.028200000E1,1.045590019E1,-1.993899941E0,2.534399986E0
4.030200000E1,8.357699394E0,-1.926199913E0,1.857100010E0
4.032200000E1,6.792899609E0,-2.463700056E0,5.726000071E-1
4.035199844E1,2.926699877E0,-1.929600000E0,-3.888999820E-1
4.037200000E1,3.919000030E-1,-1.483699918E0,-5.460000038E-1
4.039200000E1,-1.712999940E0,-1.215999961E0,-4.666000009E-1
4.042200000E1,-3.465999842E0,-1.271199942E0,-1.755999923E-1
4.044200000E1,-3.381899834E0,-2.331599951E0,3.489999846E-2
4.046200000E1,-3.320400000E0,-3.481199980E0,2.199999988E-1
4.048200000E1,-3.267999887E0,-4.673699856E0,5.350999832E-1
4.050200000E1,-3.091199875E0,-5.833399773E0,9.857999682E-1
4.052200000E1,-2.648000002E0,-6.830299854E0,1.099099994E0
4.054200000E1,-2.181499958E0,-7.479099751E0,7.919999957E-1
4.056200000E1,-1.925899982E0,-8.515299797E0,-8.929999918E-2
4.059200000E1,-1.520299911E0,-9.847499847E0,-4.840999842E-1
4.061200000E1,-1.892300010E0,-9.526199341E0,-6.186000109E-1
4.063200000E1,-2.164700031E0,-8.418199539E0,-1.052099943E0
4.066200000E1,-1.460500002E0,-7.692699909E0,-1.070299983E0
4.068200000E1,-1.238600016E0,-7.995800018E0,-7.999999523E-1
4.070200000E1,-2.009399891E0,-6.318099976E0,5.169000030E-1
4.072200000E1,-5.016999841E-1,-6.042799950E0,2.874999940E-1
4.074200156E1,3.264599800E0,-7.771499634E0,4.839999974E-2
4.077200000E1,5.364299774E0,-9.100199699E0,5.651000142E-1
4.079200000E1,5.128200054E0,-7.482699871E0,1.702399969E0
4.081200000E1,4.996900082E0,-5.841799736E0,9.926999807E-1
4.083200000E1,4.654099941E0,-4.017600060E0,7.443999648E-1
4.085200000E1,2.921200037E0,-1.794099927E0,1.017400026E0
4.087200000E1,6.563000083E-1,2.795000076E-1,1.025699973E0
4.089200000E1,-9.831999540E-1,1.699899912E0,4.888999760E-1
4.092200000E1,-2.182699919E0,3.333699942E0,-1.815999895E-1
4.094200000E1,-2.719899893E0,3.873600006E0,-7.103999853E-1
4.096200000E1,-2.347499847E0,3.862999916E0,-9.352999926E-1
4.098200000E1,-1.691900015E0,3.886499882E0,-9.370999932E-1
4.100200000E1,-8.829999715E-2,4.245899677E0,-7.662000060E-1
4.102200000E1,2.183699846E0,4.468599796E0,-6.582999825E-1
4.104200000E1,4.782700062E0,4.601999760E0,-5.661000013E-1
4.106200000E1,6.960199833E0,4.805599689E0,-7.673000097E-1
4.109200313E1,9.852999687E0,5.128099918E0,-2.083999962E-1
4.112200000E1,1.226620007E1,4.864799976E0,9.933999777E-1
4.114200000E1,1.068400002E1,5.200900078E0,1.889899969E0
4.116200469E1,8.311200142E0,4.580599785E0,3.735299826E0
4.119200000E1,3.654299974E0,6.166699886E0,6.080699921E0
4.121200000E1,5.257599831E0,5.009900093E0,6.222899914E0
4.123200000E1,1.040769958E1,1.382200003E0,5.318999767E0
4.125200000E1,1.441189957E1,-2.023299932E0,4.073100090E0
4.127200000E1,1.466699982E1,-3.446300030E0,2.275799990E0
4.130200000E1,8.804299355E0,-2.250599861E0,1.769899964E0
4.132200000E1,5.320199966E0,-2.153599977E0,1.813099980E0
4.134200000E1,2.308599949E0,-2.146299839E0,1.280200005E0
4.137200000E1,-1.872099996E0,-2.479699850E0,6.269999593E-2
4.139200000E1,-4.191800117E0,-2.585500002E0,-6.930999756E-1
4.141200000E1,-5.584899902E0,-2.648000002E0,-1.172699928E0
4.143200000E1,-5.765100002E0,-3.215799809E0,-1.156599998E0
4.145200000E1,-5.472699642E0,-3.907099962E0,-1.055400014E0
4.147200000E1,-4.846999645E0,-4.943799973E0,-1.330299973E0
4.149200000E1,-4.419499874E0,-6.015100002E0,-1.346400023E0
4.151200000E1,-3.550199986E0,-7.090600014E0,-1.203599930E0
4.153200000E1,-2.355599880E0,-8.221799850E0,-1.148199916E0
4.155200000E1,-1.443699956E0,-9.308199883E0,-1.091899991E0
4.157200000E1,-1.008399963E0,-1.020650005E1,-1.456499934E0
4.159200000E1,-1.652099967E0,-1.015649986E1,-1.706299901E0
4.161200000E1,-3.637799978E0,-9.058599472E0,-1.231299996E0
4.163200000E1,-4.600599766E0,-8.134399414E0,-2.063999921E-1
4.165200000E1,-2.569599867E0,-8.854299545E0,2.769999951E-2
4.167200000E1,-2.190500021E0,-7.261299610E0,4.369999766E-1
4.169200000E1,-1.461300015E0,-5.657000065E0,8.012999892E-1
4.171200000E1,1.373399973E0,-6.389499664E0,5.322999954E-1
4.173200156E1,3.771399975E0,-8.683699608E0,7.293999791E-1
4.176200000E1,3.398599863E0,-7.856799603E0,2.089799881E0
4.178200000E1,4.517600060E0,-6.671499729E0,1.601799965E0
4.180200000E1,5.564899921E0,-4.869800091E0,9.344999790E-1
4.182200000E1,4.700999737E0,-2.211999893E0,1.120599985E0
4.184200000E1,2.196300030E0,6.712999940E-1,1.497599959E0
4.186200000E1,-2.236999869E-1,2.585000038E0,1.357599974E0
4.188200000E1,-1.244199991E0,3.491199970E0,1.158499956E0
4.190200000E1,-1.613899946E0,3.623899937E0,1.027899981E0
4.192200000E1,-1.541599989E0,3.509299994E0,1.204599977E0
4.194200000E1,-6.291999817E-1,3.296199799E0,1.910799980E0
4.196200000E1,5.110999942E-1,3.697899818E0,2.788300037E0
4.198200000E1,2.607399940E0,4.138599873E0,3.225399971E0
4.200200000E1,5.214299679E0,4.412499905E0,2.513200045E0
4.202200000E1,7.847899914E0,5.060599804E0,5.494999886E-1
4.204200000E1,9.589900017E0,5.736199856E0,-2.093199968E0
4.206200000E1,1.047139931E1,7.100100040E0,-3.211199999E0
4.209200156E1,9.555399895E0,8.388999939E0,-1.272999942E-1
4.212200156E1,7.180899620E0,7.045799732E0,3.245499849E0
4.215200000E1,5.759699821E0,5.839699745E0,5.175399780E0
4.217200000E1,8.252799988E0,4.135099888E0,6.281399727E0
4.219200000E1,1.297399998E1,5.263000131E-1,5.841099739E0
4.221200000E1,1.524279976E1,-2.503999949E0,4.545599937E0
4.223200000E1,1.251340008E1,-3.295399904E0,4.288899899E0
4.225200000E1,7.828199863E0,-2.682499886E0,4.073599815E0
4.227200000E1,5.063099861E0,-2.363899946E0,2.453199863E0
4.229200000E1,3.460500002E0,-1.938299894E0,8.436999917E-1
4.231200000E1,1.894199967E0,-1.524099946E0,3.950999975E-1
4.233200000E1,1.757999957E-1,-1.328999996E0,-8.579999954E-2
4.235200000E1,-1.454499960E0,-1.207000017E0,-7.310000062E-1
4.237200000E1,-2.415299892E0,-1.730099916E0,-4.569999874E-1
4.239200000E1,-2.955199957E0,-2.654599905E0,3.797000051E-1
4.241200000E1,-2.702899933E0,-3.940199852E0,9.766999483E-1
4.243200000E1,-2.110100031E0,-5.820099831E0,1.121999979E0
4.245200000E1,-2.078700066E0,-7.413499832E0,9.799999595E-1
4.247200000E1,-2.869400024E0,-7.906499863E0,1.127300024E0
4.249200000E1,-2.793399811E0,-8.881999969E0,8.641999960E-1
4.251200000E1,-1.929399967E0,-1.046269989E1,4.715999961E-1
4.253200000E1,-1.487900019E0,-1.161989975E1,2.987999916E-1
4.255200000E1,-1.746399999E0,-1.148139954E1,3.350999951E-1
4.257200000E1,-2.525199890E0,-1.076270008E1,6.805999875E-1
4.259200000E1,-2.739599943E0,-9.760799408E0,2.365299940E0
4.261200000E1,-1.070199966E0,-9.812799454E0,2.672600031E0
4.263200000E1,-1.249699950E0,-8.266799927E0,2.079699993E0
4.265200000E1,-1.281099916E0,-6.389100075E0,1.853299975E0
4.267200000E1,1.376999974E0,-6.488800049E0,1.588299990E0
4.269200000E1,5.180500031E0,-8.426199913E0,3.863999844E-1
4.271200000E1,6.332799911E0,-7.898399830E0,-4.659999907E-2
4.273200000E1,5.821699619E0,-6.474199772E0,-1.961999983E-1
4.275200000E1,4.965399742E0,-5.242199898E0,-2.660999894E-1
4.277200000E1,3.084199905E0,-3.762599945E0,7.434999943E-1
4.279200000E1,6.730999947E-1,-1.884099960E0,1.835799932E0
4.281200000E1,-1.272499919E0,1.576000005E-1,2.461400032E0
4.283200000E1,-1.968699932E0,1.580099940E0,2.260400057E0
4.285200000E1,-2.155799866E0,2.478999853E0,1.192600012E0
4.287200000E1,-2.545699835E0,3.299499989E0,2.128999978E-1
4.289200000E1,-2.633899927E0,3.662699938E0,-4.438999891E-1
4.291200000E1,-2.348399878E0,3.948599815E0,-1.760699987E0
4.293200000E1,-1.814700007E0,5.107500076E0,-2.779099941E0
4.295200000E1,5.866999626E-1,5.841099739E0,-2.619699955E0
4.297200000E1,3.321199894E0,6.873299599E0,-1.035899997E0
4.299200000E1,5.940999985E0,7.742099762E0,-1.288999915E0
4.301200000E1,8.953100204E0,8.935799599E0,-3.776700020E0
4.303200000E1,1.198789978E1,9.277799606E0,-6.181399822E0
4.305200000E1,1.370349979E1,8.847499847E0,-5.571700096E0
4.307200312E1,1.267070007E1,8.496799469E0,-1.067899942E0
4.310200000E1,1.141139984E1,5.081799984E0,4.746399879E0
4.312200000E1,9.970600128E0,4.917500019E0,7.483199596E0
4.314200000E1,1.262329960E1,2.021899939E0,6.424799919E0
4.316200469E1,1.465419960E1,-2.108399868E0,4.275499821E0
4.319200000E1,1.161079979E1,-4.758199692E0,3.237399817E0
4.321200000E1,7.525599957E0,-3.834499836E0,2.771999836E0
4.323200000E1,5.148200035E0,-3.456199884E0,1.623799920E0
4.325200000E1,3.678699970E0,-3.328899860E0,8.334999681E-1
4.328200000E1,9.977999926E-1,-3.164000034E0,7.741999626E-1
4.330200000E1,-8.561999798E-1,-3.629999876E0,6.572999954E-1
4.332200000E1,-2.655099869E0,-4.095099926E0,7.037999630E-1
4.334200000E1,-3.899199963E0,-4.732199669E0,7.016999722E-1
4.337200000E1,-4.407499790E0,-6.053899765E0,9.646999836E-1
4.339200000E1,-4.381099701E0,-6.747200012E0,1.059199929E0
4.341200000E1,-4.195199966E0,-8.115699768E0,6.082000136E-1
4.343200000E1,-4.217599869E0,-8.966599464E0,3.283999860E-1
4.345200000E1,-4.280799866E0,-9.570899963E0,3.322999775E-1
4.347200000E1,-3.401700020E0,-1.011590004E1,4.122999907E-1
4.349200000E1,-2.010699987E0,-1.073379993E1,1.271999925E-1
4.351200000E1,-1.524999976E0,-1.054959965E1,-1.895999908E-1
4.353200000E1,-1.307600021E0,-1.011009979E1,-2.435999960E-1
4.355200000E1,-1.670199990E0,-9.612099648E0,-1.923999935E-1
4.357200000E1,-1.463699937E0,-9.471399307E0,3.299999833E-1
4.359200000E1,-6.513999701E-1,-9.938099861E0,2.821999788E-1
4.361200000E1,-1.500299931E0,-8.226399422E0,8.272999525E-1
4.363200000E1,-1.640299916E0,-6.478499889E0,1.010699987E0
4.365200000E1,9.710999727E-1,-6.537799835E0,5.460000038E-1
4.367200000E1,4.108099937E0,-7.755599976E0,9.420000017E-2
4.369200000E1,4.877199650E0,-8.112799644E0,1.670999974E-1
4.371200000E1,3.934999943E0,-6.794499874E0,9.528999925E-1
4.373200000E1,4.631000042E0,-5.701999664E0,6.631000042E-1
4.375200000E1,5.126499653E0,-3.821299791E0,-1.354999989E-1
4.377200000E1,5.326299667E0,-1.558799982E0,-1.179999951E-2
4.379200000E1,4.602900028E0,1.140499949E0,3.287999928E-1
4.381200000E1,2.941399813E0,3.085799932E0,4.851999879E-1
4.384199844E1,9.666999578E-1,5.305399895E0,-1.581999958E-1
4.386200000E1,9.763999581E-1,5.707999706E0,5.169999972E-2
4.388200000E1,1.688899994E0,5.344399929E0,8.218999505E-1
4.390200469E1,2.440399885E0,5.679999828E0,1.723999977E0
4.393200000E1,4.250199795E0,6.523999691E0,2.111899853E0
4.395200000E1,5.106299877E0,6.865399837E0,2.161900043E0
4.397200000E1,6.351699829E0,6.549399853E0,2.600999832E0
4.399200000E1,7.737099648E0,6.054800034E0,3.480199814E0
4.401200000E1,9.442099571E0,5.310499668E0,4.177599907E0
4.403200000E1,1.045739937E1,4.748300076E0,4.772099972E0
4.405200000E1,1.007530022E1,4.912099838E0,5.490499973E0
4.407200000E1,1.002549934E1,4.211199760E0,5.311500072E0
4.409200000E1,7.819799900E0,5.300699711E0,5.236700058E0
4.411200000E1,8.489399910E0,4.535900116E0,5.006199837E0
4.413200000E1,1.149909973E1,1.166199923E0,3.637499809E0
4.415200000E1,1.299329948E1,-2.006199837E0,3.024499893E0
4.417200000E1,1.073579979E1,-2.562500000E0,3.248899937E0
4.419200000E1,8.386699677E0,-2.418499947E0,3.266899824E0
4.421200000E1,6.898499966E0,-2.827499866E0,1.705899954E0
