"Time (s)","Acceleration x (m/s^2)","Acceleration y (m/s^2)","Acceleration z (m/s^2)"
0.000000000E0,-3.086623907E0,5.598591805E0,8.356807709E0
2.000156200E-2,-3.226502895E0,5.553312302E0,8.481363297E0
4.200000000E-2,-2.760725260E0,5.340496540E0,7.970556259E0
6.200156200E-2,-2.112193346E0,5.070890427E0,7.781031132E0
8.400781200E-2,-1.707889438E0,4.717917919E0,8.115980148E0
1.060015620E-1,-1.517722726E0,4.146508217E0,8.578874588E0
1.260046870E-1,-1.730222583E0,4.079652786E0,8.518589020E0
1.480015620E-1,-2.209340572E0,4.432031155E0,8.387482643E0
1.680015620E-1,-2.599260330E0,4.881164551E0,8.087287903E0
1.880015620E-1,-2.297265291E0,4.836479187E0,7.365847588E0
2.080015620E-1,-1.934610724E0,4.645249367E0,7.062502384E0
2.300015620E-1,-1.555694818E0,4.573155403E0,7.114408493E0
2.500031250E-1,-1.569954753E0,4.686171055E0,6.848087311E0
2.720000000E-1,-1.862669826E0,4.938356876E0,7.285067558E0
2.920078120E-1,-2.238750935E0,5.299747467E0,7.610065937E0
3.140000000E-1,-1.918061972E0,5.042686939E0,7.794581890E0
3.340062500E-1,-1.752804637E0,4.721145630E0,7.675925732E0
3.560062500E-1,-1.854433775E0,4.977286816E0,7.749781609E0
3.760078120E-1,-1.976346493E0,5.483439922E0,7.785905838E0
3.980000000E-1,-1.893171906E0,5.778243065E0,8.063910484E0
4.180062500E-1,-1.577271342E0,5.536572456E0,8.132959366E0
4.400000000E-1,-1.246632099E0,5.547097206E0,8.186417580E0
4.600000000E-1,-9.522123337E-1,5.598189354E0,8.309833527E0
4.800000000E-1,-7.881999612E-1,5.694570541E0,8.548401833E0
5.000031250E-1,-1.175926566E0,6.205856800E0,9.122808456E0
5.200031250E-1,-1.429242730E0,6.642904282E0,9.227981567E0
5.420015620E-1,-5.263891816E-1,5.920401096E0,9.403351784E0
5.640000000E-1,2.855708003E-1,5.133982658E0,9.977778435E0
5.840000000E-1,5.985983014E-1,4.712009430E0,9.714195251E0
6.040000000E-1,4.970650077E-1,4.711827278E0,9.709157944E0
6.240000000E-1,2.621171996E-2,4.895069599E0,9.259996414E0
6.440000000E-1,2.495907396E-1,4.908755302E0,9.861783981E0
6.640000000E-1,1.017832637E0,4.566058636E0,9.388689041E0
6.840000000E-1,2.350119591E0,3.573154449E0,8.802618027E0
7.040000000E-1,2.137227297E0,3.136930943E0,8.685157776E0
7.240000000E-1,1.002538443E0,3.646780968E0,8.848902702E0
7.440000000E-1,4.014214575E-1,4.293043137E0,9.077587128E0
7.640000000E-1,5.295495391E-1,4.451185226E0,8.642675400E0
7.840000000E-1,7.233457565E-1,4.449030399E0,7.676098347E0
8.040000000E-1,2.252656519E-1,4.640163898E0,7.191271782E0
8.240000000E-1,-3.549930751E-1,4.666069508E0,7.144393444E0
8.440000000E-1,-6.567390561E-1,4.728701591E0,6.944985390E0
8.640015620E-1,-6.490105987E-1,4.800987244E0,7.382923126E0
8.860015620E-1,-5.162568688E-1,4.775445938E0,8.054075241E0
9.060015620E-1,-2.471965402E-1,4.582559586E0,8.420963287E0
9.260015620E-1,1.240196545E-2,4.587223530E0,8.967942238E0
9.480000000E-1,7.977480069E-3,4.738709450E0,9.059774399E0
9.680015620E-1,-1.072602347E-2,5.049706459E0,8.890284538E0
9.880015620E-1,-3.442861885E-2,5.437576771E0,8.461060524E0
1.008001562E0,-8.214984834E-2,5.802788734E0,8.514202118E0
1.028001562E0,8.099105954E-2,6.014809132E0,8.933685303E0
1.050000000E0,4.921233952E-1,5.640384674E0,9.276544571E0
1.070001562E0,5.615456700E-1,5.208451748E0,9.177645683E0
1.090001562E0,2.896122038E-1,5.395410061E0,9.088025093E0
1.112000000E0,-7.627926767E-2,5.504652977E0,9.507959366E0
1.132001562E0,-8.976341039E-2,5.538114071E0,9.523607254E0
1.154001562E0,1.541291326E-1,5.140523434E0,9.867185593E0
1.176001562E0,5.032420158E-1,4.490468979E0,9.432034492E0
1.196017187E0,3.310414851E-1,4.088319778E0,8.908584595E0
1.218001562E0,-9.558610618E-2,3.956341743E0,8.655019760E0
1.238001562E0,-4.391923547E-2,3.793401957E0,8.527638435E0
1.260000000E0,3.729974627E-1,3.552114248E0,8.410532951E0
1.280001562E0,6.138541698E-1,3.399967432E0,8.154354095E0
1.302000000E0,5.520933270E-1,3.520970345E0,7.968803883E0
1.322001562E0,4.090732932E-1,3.734322548E0,7.979500771E0
1.342001562E0,3.657574058E-1,3.899972677E0,7.996289253E0
1.364000000E0,2.870264947E-1,4.170163155E0,7.783913612E0
1.384000000E0,1.893621981E-1,4.285161018E0,7.554424763E0
1.404000000E0,1.316619366E-1,4.363547325E0,7.285326004E0
1.424000000E0,9.562440962E-2,4.674793720E0,7.186387539E0
1.444000000E0,-3.703351319E-2,4.986212254E0,7.252889156E0
1.464000000E0,-6.022853777E-2,5.094172001E0,7.615189552E0
1.484000000E0,1.171530783E-1,4.908324242E0,7.664586544E0
1.504000000E0,2.164166868E-1,4.748200417E0,7.510993481E0
1.524000000E0,3.976290300E-2,4.624898434E0,7.706035137E0
1.544000000E0,-3.346040547E-1,4.794245243E0,7.645969391E0
1.564000000E0,-5.356499553E-1,5.105328560E0,8.022672653E0
1.584000000E0,6.498821080E-2,4.611471653E0,8.598918915E0
1.604001562E0,5.915880799E-1,4.043069363E0,9.542616844E0
1.626000000E0,6.177518964E-1,3.896639824E0,1.080421734E1
1.646000000E0,1.112202525E0,3.450734138E0,1.151356220E1
1.666000000E0,1.293357253E0,3.102349043E0,1.101515770E1
1.686001562E0,1.459218025E0,3.464505672E0,1.139633274E1
1.708000000E0,2.325238943E0,3.072852612E0,1.063615513E1
1.728000000E0,3.205941439E0,2.467856884E0,1.074691010E1
1.748000000E0,2.843631506E0,2.193155766E0,1.237398148E1
1.768000000E0,2.460061312E0,1.985597610E0,9.973918915E0
1.788000000E0,2.883423328E0,2.346758366E0,7.723397732E0
1.808000000E0,2.665866852E0,3.295005560E0,6.784420490E0
1.828000000E0,2.277613878E0,4.121187687E0,1.058751488E1
1.848000000E0,1.667389154E0,3.331387997E0,1.097578716E1
1.868000000E0,1.809671760E0,3.194334269E0,6.815133095E0
1.888000000E0,1.115401149E0,2.816117525E0,8.567947388E0
1.908000000E0,1.842194498E-1,2.744741440E0,8.141291618E0
1.928000000E0,-2.982887924E-1,2.348616123E0,8.239319801E0
1.948000000E0,-7.827315927E-1,2.244602203E0,7.876378059E0
1.968000000E0,-1.373543978E0,3.155318260E0,7.492750168E0
1.988000000E0,-1.243816495E0,3.261314392E0,8.204967499E0
2.008000000E0,-1.234048247E0,3.185743809E0,8.213758469E0
2.028000000E0,-1.412425756E0,2.819364071E0,9.478664398E0
2.048000000E0,-1.533984184E0,2.561786175E0,1.001793385E1
2.068000000E0,-1.730567217E0,2.675147057E0,1.013126564E1
2.088000000E0,-1.947740555E0,2.757315874E0,9.853174210E0
2.108000000E0,-1.725271344E0,2.944245577E0,9.523607254E0
2.128000000E0,-1.306688190E0,3.278476000E0,9.598325729E0
2.148042187E0,-8.257888556E-1,3.609354734E0,9.245774269E0
2.170000000E0,-3.266744614E-1,3.794637203E0,9.180327415E0
2.190000000E0,-6.010786891E-1,4.114607811E0,9.490529060E0
2.210000000E0,-1.018493414E0,4.287564754E0,9.956881523E0
2.230000000E0,-1.084113598E0,4.490497589E0,1.050024128E1
2.250000000E0,-9.618274570E-1,4.090034008E0,1.096791458E1
2.270000000E0,1.301392168E-1,3.698725700E0,1.118068218E1
2.290000000E0,2.813378572E-1,2.759393930E0,1.076608276E1
2.310000000E0,-5.223861337E-1,2.467502594E0,1.049822903E1
2.330000000E0,-1.152674079E0,2.420288801E0,1.009385872E1
2.350001562E0,-8.332779408E-1,2.281731606E0,9.692437172E0
2.372000000E0,-3.441138268E-1,2.138443708E0,9.254882812E0
2.392000000E0,1.076337248E-1,1.749730468E0,9.876196861E0
2.412000000E0,3.567073345E-1,1.732894421E0,9.973362923E0
2.432000000E0,5.270020962E-1,2.216063499E0,9.435692787E0
2.452000000E0,4.071866870E-1,2.580183268E0,8.628291130E0
2.472000000E0,3.004723191E-1,2.854798317E0,7.917242050E0
2.492000000E0,1.169519648E-1,3.227728844E0,7.488191605E0
2.512000000E0,8.659349382E-2,3.433409691E0,7.253080845E0
2.532000000E0,1.810974181E-1,3.419216871E0,6.981635571E0
2.552000000E0,4.155376554E-2,3.488974333E0,7.168172836E0
2.572000000E0,9.135315567E-2,3.580432892E0,8.062282562E0
2.592000000E0,1.119720265E-1,3.796064138E0,8.693691254E0
2.612000000E0,3.434625864E-1,3.720915079E0,8.753842354E0
2.632000000E0,5.524859950E-2,3.739589930E0,8.720573425E0
2.652001562E0,-2.809835076E-1,3.948575020E0,8.604904175E0
2.674000000E0,-1.832139045E-1,3.990166903E0,8.835025787E0
2.694000000E0,1.310298741E-1,4.009023666E0,9.150102615E0
2.714000000E0,4.467867613E-1,3.769737482E0,9.654053688E0
2.734000000E0,5.192065835E-1,3.647518396E0,9.838560104E0
2.754000000E0,3.920265734E-1,3.404641151E0,9.697110176E0
2.774000000E0,-1.786649078E-1,4.193156719E0,9.581576347E0
2.794000000E0,2.821231484E-1,4.556118011E0,1.016900826E1
2.814000000E0,1.508203387E0,4.364945889E0,1.144087505E1
2.834000000E0,2.515137672E0,3.002779007E0,1.220520020E1
2.854000000E0,2.334442377E0,1.645601749E0,1.173080254E1
2.874000000E0,1.555225611E0,1.580039024E0,1.079496670E1
2.894000000E0,8.697847128E-1,2.877983570E0,1.107695580E1
2.914000000E0,1.067229748E0,3.480958462E0,1.089534187E1
2.934000000E0,2.403883696E0,3.194899321E0,8.568866730E0
2.954000000E0,2.590880632E0,2.896658421E0,7.931961536E0
2.974000000E0,1.844186544E0,2.990721941E0,7.662144661E0
2.994000000E0,8.557356000E-1,2.978224039E0,7.766761780E0
3.014000000E0,8.293514699E-2,3.029814482E0,7.915891647E0
3.034000000E0,-1.999541521E-1,3.284911871E0,7.609797955E0
3.054000000E0,-3.943058848E-1,3.582846165E0,7.143023968E0
3.074000000E0,-4.227298200E-1,3.575098515E0,6.732370377E0
3.094000000E0,-3.963553309E-1,3.564803362E0,6.231197357E0
3.114000000E0,-4.360320270E-1,3.799320221E0,6.136807919E0
3.134000000E0,-4.093222916E-1,3.923617601E0,7.225863934E0
3.154000000E0,-4.889726043E-1,3.906513691E0,7.949745655E0
3.174000000E0,-4.524466693E-1,4.039027691E0,8.754848480E0
3.194000000E0,-3.236290216E-1,4.005336761E0,8.671751022E0
3.214000000E0,1.241728738E-1,3.625970602E0,9.530387878E0
3.234000000E0,4.340496361E-1,3.582185507E0,1.004603195E1
3.254000000E0,7.341963053E-1,3.271475554E0,1.128406429E1
3.274000000E0,3.160633445E-1,4.366841793E0,1.125571632E1
3.294000000E0,-3.275938332E-1,5.359449387E0,1.119822788E1
3.314000000E0,-2.158133388E-1,5.065364838E0,1.016493797E1
3.334000000E0,-1.359427869E-1,5.197495937E0,9.635177612E0
3.354000000E0,-9.894086123E-1,5.417829514E0,1.065222454E1
3.374000000E0,-1.169443011E0,4.933808327E0,1.063481426E1
3.394000000E0,-6.864367723E-1,4.056955338E0,1.125662708E1
3.414000000E0,-5.279980898E-1,3.049896955E0,1.136232662E1
3.434000000E0,-7.036750317E-1,2.978128433E0,1.106335735E1
3.454000000E0,-8.258367777E-1,3.256679535E0,1.126365662E1
3.474000000E0,-4.287823737E-1,3.153699875E0,1.125041103E1
3.494000000E0,3.258221149E-1,2.709345818E0,1.054112434E1
3.514000000E0,8.181849122E-1,2.484951496E0,9.084558487E0
3.534000000E0,2.283014953E-1,2.957700968E0,8.167158127E0
3.554000000E0,-2.233311348E-2,3.225765467E0,7.553869247E0
3.574000000E0,-1.062067896E-1,3.288493395E0,7.055779457E0
3.594000000E0,-4.526956379E-2,3.230611324E0,6.467390060E0
3.614000000E0,-1.548569649E-1,3.212108850E0,6.236004829E0
3.634000000E0,-2.668002546E-1,3.080217123E0,6.797464371E0
3.654000000E0,-3.694827855E-1,3.026012421E0,7.542185783E0
3.674000000E0,-4.285812676E-1,3.393167973E0,8.060233116E0
3.694000000E0,-2.806578875E-1,3.689263582E0,8.445737839E0
3.714000000E0,9.323021770E-2,3.121761322E0,9.001327515E0
3.734001562E0,-1.428859588E-2,2.867621660E0,8.830735207E0
3.756000000E0,-4.098681509E-1,3.076434374E0,9.020873070E0
3.776000000E0,-2.767888904E-1,3.393685102E0,9.067224503E0
3.796007812E0,1.999924630E-1,3.404468536E0,9.698087692E0
3.818000000E0,9.438996315E-1,3.356862307E0,1.040882015E1
3.838000000E0,1.301133633E0,2.703417778E0,1.161566067E1
3.858000000E0,1.154579878E0,3.283743382E0,1.051198196E1
3.878000000E0,5.839458108E-1,5.010135174E0,1.029738522E1
3.898000000E0,6.797043085E-1,5.110682011E0,1.110100365E1
3.918000000E0,1.601366520E0,4.069865227E0,1.138857651E1
3.938000000E0,2.103095531E0,2.336721659E0,1.088948059E1
3.958000000E0,1.903169990E0,1.864144683E0,9.181657791E0
3.978000000E0,6.576680541E-1,3.793488026E0,8.436103821E0
3.998001562E0,-6.888022423E-1,4.377299786E0,7.530157089E0
4.020007812E0,3.769814074E-1,3.850230694E0,7.271688461E0
4.042000000E0,1.422663331E0,2.400618076E0,7.626633644E0
4.062000000E0,3.823731542E-1,2.082639456E0,8.860346794E0
4.082000000E0,-1.726506799E-1,1.688122869E0,8.817959785E0
4.102000000E0,-1.101993561E0,2.134833097E0,6.950319767E0
4.122001562E0,-1.283722997E0,2.032811165E0,6.082287788E0
4.142001562E0,-2.126147032E0,1.237457514E0,6.814663887E0
4.164001562E0,-5.340927601E0,1.527960300E0,7.287021160E0
4.186025000E0,-4.782102108E0,3.825742900E-1,6.696409702E0
4.208001562E0,-5.128945351E0,1.246162891E0,6.333094120E0
4.228001562E0,-5.439463615E0,5.843767524E-1,5.688010216E0
4.250000000E0,-8.116707802E0,7.164792418E-1,6.143598080E0
4.270000000E0,-6.920727730E0,-1.502313763E-1,7.055310249E0
4.290000000E0,-7.170250893E0,-3.493140340E-1,8.678281784E0
4.310000000E0,-7.291895390E0,-1.427710354E-1,9.752646446E0
4.330001562E0,-7.292384148E0,-2.241250515E0,1.288465500E1
4.350001562E0,-9.055387497E0,-1.598254204E0,1.250960827E1
4.372000000E0,-8.043512344E0,-1.462914705E0,1.134121895E1
4.392000000E0,-8.031081200E0,-8.213356733E-1,9.725314140E0
4.412000000E0,-7.537961960E0,-6.590758562E-1,8.838042259E0
4.432000000E0,-7.255753040E0,-1.092598796E0,8.502374649E0
4.452000000E0,-8.608409882E0,-5.742923617E-1,7.282328606E0
4.472000000E0,-7.065998077E0,-1.163198948E0,7.032900333E0
4.492003125E0,-6.205933571E0,-1.362702966E0,7.997466564E0
4.514000000E0,-6.598333359E0,-1.070572019E0,8.721559525E0
4.534000000E0,-6.051996231E0,-2.348520279E0,9.629948616E0
4.554000000E0,-5.832524300E0,-2.547909498E0,1.019977856E1
4.574003125E0,-5.403272629E0,-1.585229754E0,9.761333466E0
4.596000000E0,-5.433957100E0,-1.553741097E-1,8.933120728E0
4.616009375E0,-5.642147064E0,7.662594318E-1,7.264343262E0
4.638000000E0,-5.211899281E0,1.175284863E0,5.542806625E0
4.658000000E0,-5.069329739E0,2.473459482E0,6.374897003E0
4.678000000E0,-3.523383856E0,1.633946896E0,6.246932030E0
4.698000000E0,-1.274644256E0,1.189008474E0,4.245283604E0
4.718000000E0,-1.918397188E0,2.032514334E0,5.598591805E0
4.738000000E0,-1.992751598E0,1.522779346E0,4.998145103E0
4.758001562E0,-5.464382172E0,3.055853844E0,6.551684856E0
4.780000000E0,-1.044137192E1,6.415962219E0,9.612355232E0
4.800000000E0,-7.123372555E0,4.910757065E0,6.725839138E0
4.820001562E0,-5.788174152E0,2.278686285E0,5.645211220E0
4.842000000E0,-3.539089918E0,2.023646355E0,5.915047646E0
4.862000000E0,-2.364580631E0,2.200098991E0,7.078897953E0
4.882000000E0,-2.415222883E0,1.780309200E0,7.516213417E0
4.902000000E0,-3.848535538E0,2.382403135E0,8.994402885E0
4.922006250E0,-3.460358858E0,4.097589970E0,1.053847122E1
4.944000000E0,-2.810294867E0,2.887368917E0,1.114959621E1
4.964001562E0,-4.067451954E0,1.804069281E0,9.993436813E0
4.986012500E0,-4.995444298E0,7.332961261E-2,8.122770309E0
5.008000000E0,-3.039764643E0,1.065295339E0,8.572304726E0
5.028000000E0,-1.512292743E0,-9.106968641E-1,8.206748962E0
5.048000000E0,-3.805631399E-1,-1.964653254E0,8.320741653E0
5.068001562E0,-2.495524287E-1,-2.225592613E0,6.316210270E0
5.090000000E0,-1.787894070E-1,-2.323639870E0,6.862557411E0
5.110001562E0,-4.379473925E-1,-2.288569689E0,6.897876740E0
5.130001562E0,-1.280160546E0,-1.505292058E0,7.848518372E0
5.152000000E0,-2.247973442E0,-1.964653254E0,7.350821972E0
5.172000000E0,-5.257121086E0,-1.882800274E-2,9.185537338E0
5.192000000E0,-4.499863625E0,-1.267586231E0,9.699524879E0
5.212001562E0,-2.581389904E0,-2.886727333E0,9.470216751E0
5.232001562E0,-3.254917145E0,-4.664105892E0,8.743988037E0
5.254000000E0,-4.474437714E0,-3.204150677E0,1.123754978E1
5.274000000E0,-5.270509243E0,-4.909933209E-1,1.295011234E1
5.294000000E0,-5.731604099E0,-5.801629424E-1,1.381516647E1
5.314001562E0,-4.436465263E0,-1.800535440E0,1.230692482E1
5.336000000E0,-4.609345913E0,-2.135215998E0,1.260541439E1
5.356003125E0,-4.197533607E0,-2.003774405E0,1.181521320E1
5.378000000E0,-4.334137440E0,-2.868876219E0,1.168738174E1
5.398000000E0,-4.738882065E0,-3.628087044E0,1.123828697E1
5.418000000E0,-5.413472176E0,-3.798764944E0,1.031091690E1
5.438000000E0,-5.076128960E0,-3.664833307E0,9.652396202E0
5.458000000E0,-4.204955578E0,-4.009732246E0,9.133784294E0
5.478000000E0,-3.966320753E0,-4.637137890E0,7.908383369E0
5.498000000E0,-5.391742229E0,-5.191012383E0,7.171936512E0
5.518000000E0,-6.361930370E0,-5.360608101E0,6.433698654E0
5.538000000E0,-6.186282158E0,-4.416708469E0,6.548677921E0
5.558000000E0,-5.076808929E0,-4.449566364E0,7.125747681E0
5.578001562E0,-5.280258656E0,-6.508666039E0,8.370205879E0
5.600001562E0,-6.972882748E0,-7.337385178E0,7.367370605E0
5.622000000E0,-8.635272026E0,-5.263911247E0,6.618847370E0
5.642000000E0,-7.322062492E0,-4.623653889E0,7.560908318E0
5.662000000E0,-6.612239361E0,-5.269053936E0,6.695203304E0
5.682000000E0,-6.780254841E0,-3.922056675E0,5.575253010E0
5.702000000E0,-5.046105385E0,-3.129346132E0,5.843480110E0
5.722000000E0,-4.479762077E0,-3.946266890E0,6.104055882E0
5.742000000E0,-4.264082909E0,-3.223610640E0,4.614268780E0
5.762000000E0,-2.442976236E0,-2.528028011E0,5.162683964E0
5.782000000E0,-4.311459541E0,-2.399478436E0,8.224360466E0
5.802000000E0,-4.386799812E0,-2.555896521E0,6.331198215E0
5.822000000E0,-4.331599236E0,-4.310760021E0,3.924652100E0
5.842000000E0,-5.456194401E0,-6.264936447E0,5.513558865E0
5.862000000E0,-4.731057644E0,-5.450850010E0,5.393360615E0
5.882000000E0,-5.459172249E0,-4.404545784E0,5.546656609E0
5.902000000E0,-5.709998608E0,-3.836181402E0,7.668436527E0
5.922000000E0,-1.775166512E0,-7.530338764E0,7.637896061E0
5.942000000E0,-8.128544807E0,-8.931252480E0,5.591150284E0
5.962000000E0,-7.213614941E0,-9.590501785E0,5.818580627E0
5.982000000E0,-5.502612591E0,-1.081716633E1,7.889325619E0
6.002000000E0,-8.302612305E0,-9.043713570E0,7.764559269E0
6.022000000E0,-7.872565746E0,-7.631776333E0,7.466998100E0
6.042000000E0,-7.007426262E0,-6.154008389E0,7.076838970E0
6.062000000E0,-7.458589554E0,-3.407428026E0,6.027402878E0
6.082001562E0,-6.828474045E0,-2.788708687E0,7.678176403E0
6.102001562E0,-6.159620285E0,-3.772323132E0,9.003711700E0
6.122001562E0,-7.344471931E0,-3.554135084E0,9.876570702E0
6.144000000E0,-7.848844051E0,-4.298491955E0,9.303589821E0
6.164000000E0,-7.300945759E0,-4.312991619E0,7.732314110E0
6.184000000E0,-6.056248188E0,-4.193712234E0,6.349892139E0
6.204000000E0,-5.843633175E0,-1.736725211E0,5.471411705E0
6.224001562E0,-5.726011276E0,7.699752692E-3,5.118793488E0
6.246000000E0,-6.790549755E0,2.975083113E0,3.264340878E0
6.266001562E0,-6.553428173E0,-4.864059985E-1,7.290277481E0
6.286004687E0,-5.543323517E0,-9.868899733E-2,7.640683174E0
6.308000000E0,-4.084987164E0,-5.731048584E-1,5.594617367E0
6.328000000E0,-6.748162746E0,6.850960255E-1,6.264582157E0
6.348000000E0,-5.917652130E0,-3.169884682E0,4.668434620E0
6.368000000E0,-5.980840206E0,-3.774497271E0,3.574265480E0
6.388000000E0,-7.156269073E0,-2.432403564E0,5.360330105E0
6.408000000E0,-8.062206268E0,3.284270167E-1,6.088483810E0
6.428000000E0,-7.927402973E0,-2.505761862E0,9.072779655E0
6.448000000E0,-9.269573212E0,-2.505254507E0,8.739870071E0
6.468000000E0,-9.406033516E0,-2.092561007E0,8.019905090E0
6.488000000E0,-9.615678787E0,-3.080801249E0,8.339569092E0
6.508000000E0,-9.857033730E0,-4.117681980E0,8.568196297E0
6.528000000E0,-1.019820690E1,-3.986288309E0,8.019675255E0
6.548000000E0,-9.931684494E0,-3.437767029E0,7.522533894E0
6.568000000E0,-9.862836838E0,-2.603368759E0,7.831682682E0
6.588000000E0,-1.010830116E1,-2.768099308E0,9.281286240E0
6.608000000E0,-1.059044456E1,-3.677685261E0,1.117409420E1
6.628000000E0,-1.124415684E1,-4.727389812E0,1.164510059E1
6.648000000E0,-1.142415333E1,-4.297659397E0,9.465610504E0
6.668000000E0,-1.076332474E1,-4.157703400E0,9.372064590E0
6.688000000E0,-1.013361263E1,-4.427970886E0,9.263117790E0
6.708000000E0,-9.019609451E0,-4.403109550E0,6.431553841E0
6.728000000E0,-8.903288841E0,-4.554030418E0,6.728702545E0
6.748000000E0,-9.296245575E0,-1.892693162E0,7.993837357E0
6.768000000E0,-7.199565411E0,-4.481055260E0,9.247718811E0
6.788006250E0,-5.935724258E0,-5.034882069E0,7.876971722E0
6.810000000E0,-7.729728222E0,-5.766338825E0,5.282193184E0
6.830000000E0,-4.887044430E0,-8.900961876E0,6.368672371E0
6.850000000E0,-5.154802322E0,-9.679614067E0,5.474964619E0
6.870000000E0,-6.034805775E0,-1.003128433E1,4.428794384E0
6.890001562E0,-6.591467381E0,-9.787879944E0,4.205692768E0
6.912000000E0,-7.411960125E0,-1.062285233E1,5.949926376E0
6.932000000E0,-9.135459900E0,-1.161658955E1,5.448915482E0
6.952000000E0,-8.904601097E0,-1.260344124E1,5.143616676E0
6.972000000E0,-9.906565666E0,-1.272903252E1,4.660007477E0
6.992000000E0,-1.171635151E1,-1.097049141E1,4.788863182E0
7.012000000E0,-1.254123020E1,-7.927776337E0,5.807883263E0
7.032000000E0,-1.307646847E1,-3.504603863E0,7.165242195E0
7.052000000E0,-1.286013889E1,1.357981563E0,7.787208080E0
7.072000000E0,-1.153106976E1,7.079127789E0,9.368559837E0
7.092000000E0,-8.833474159E0,7.866513729E0,8.873122215E0
7.112000000E0,-6.832716465E0,6.145331383E0,9.574594498E0
7.132000000E0,-4.141107082E0,3.902204037E0,9.751190186E0
7.152000000E0,-2.709230661E0,1.959950924E0,9.546361923E0
7.172000000E0,-8.977298737E-1,9.584467858E-2,7.337720871E0
7.192000000E0,-2.597009659E0,4.904952943E-1,6.527484417E0
7.212000000E0,-5.372866154E0,-3.563357353E0,5.241166115E0
7.232000000E0,-5.757547379E0,-8.287701607E0,5.053010941E0
7.252000000E0,-5.822622299E0,-9.273613930E0,1.738381982E-1
7.272000000E0,-1.012371922E1,-3.568270206E0,4.398129463E0
7.292000000E0,-5.196749210E0,-6.198013425E-1,7.001239777E0
7.312000000E0,-2.215641975E0,-5.685558796E0,5.477024078E0
7.332000000E0,-3.652306795E0,-5.008832455E0,4.182450294E0
7.352000000E0,-9.057810783E0,-2.826020002E0,2.427375793E0
7.372000000E0,-7.103146553E0,-7.489925027E-1,6.093272209E0
7.392000000E0,-6.095589638E0,7.731930614E-1,8.749792099E0
7.412000000E0,-9.507661819E0,1.235178232E0,9.295707703E0
7.432000000E0,-9.760403633E0,7.211431265E-1,5.628433228E0
7.452000000E0,-8.733616829E0,4.415444374E0,6.448973656E0
7.472000000E0,-9.178737640E0,6.319342136E0,6.760114670E0
7.492000000E0,-8.261940002E0,7.389320374E0,6.814980030E0
7.512000000E0,-5.224646091E0,6.366431236E0,6.618483543E0
7.532000000E0,-8.148589134E0,7.474142075E0,8.014322281E0
7.552000000E0,-5.498829842E0,5.403617859E0,9.099459648E0
7.572000000E0,-3.845863819E0,2.848257303E0,1.802292824E1
7.592000000E0,-3.525691986E0,2.493120670E0,1.375648880E1
7.612000000E0,-6.133360386E0,2.473564625E0,8.964092255E0
7.632000000E0,-7.652328014E0,3.792137623E0,9.225079536E0
7.652000000E0,-9.340365410E0,3.776862860E0,1.032898808E1
7.672000000E0,-6.595010757E0,1.756482124E0,9.440672874E0
7.692000000E0,-4.682311535E0,4.025036335E0,9.492828369E0
7.712000000E0,-5.936442375E0,5.094975948E0,7.022030830E0
7.732000000E0,-1.212332726E1,9.246369362E0,1.055395699E1
7.752000000E0,-1.344328880E1,9.027768135E0,1.076201344E1
7.772000000E0,4.049361348E-1,-4.944581985E0,5.362035275E0
7.792000000E0,-7.607815415E-2,-9.703402519E0,-1.777110577E0
7.812000000E0,-3.503205538E0,1.225687623E0,-5.450447798E-1
7.832000000E0,-5.793451309E0,5.571815014E0,8.698804975E-1
7.852000000E0,-5.959273338E0,9.766523242E-1,-2.880876064E0
7.872000000E0,-5.904312134E0,-2.722657442E0,-9.927604795E-1
7.892000000E0,-7.348532677E0,-1.555647016E0,2.157156467E0
7.912000000E0,-6.069664955E0,-1.261840016E-1,2.888479710E0
7.932000000E0,-7.394980431E0,1.939973682E-1,1.936909109E-1
7.952000000E0,-1.319327736E1,6.075047851E-1,-4.874556065E0
7.972000000E0,-1.411264038E1,2.601683140E0,5.343053818E0
7.992000000E0,-8.961965561E0,2.415701628E0,8.128199577E0
8.012000000E0,-9.485022545E0,2.242696732E-1,7.060835838E0
8.032000000E0,-1.359781170E1,2.450379133E0,5.182622910E0
8.052000000E0,-1.032369232E1,7.039335966E-1,7.005788803E0
8.072000000E0,-7.792370319E0,3.746446848E0,1.092498112E1
8.092007812E0,-1.097929192E1,9.685560226E0,1.398826694E1
8.114000000E0,-1.242989063E1,5.974576950E0,5.829584599E0
8.134004687E0,-8.078017235E0,-9.246790409E-1,6.160807610E0
8.156001562E0,-6.247717381E0,-5.666558266E0,3.075783014E0
8.176003125E0,-1.809123039E1,2.928137541E0,6.967634201E0
8.198000000E0,-9.133419991E0,-3.534473896E0,7.141760349E0
8.218000000E0,-4.457821846E0,-4.382126331E0,4.653274536E0
8.238000000E0,-5.737598896E0,-4.417206764E0,7.628405094E0
8.258006250E0,-3.005872250E0,-1.065228224E0,1.183203030E1
8.280000000E0,1.319205046E0,4.764844477E-1,1.718754387E1
8.300004687E0,4.025275707E0,-2.412253857E0,1.193596649E1
8.322000000E0,2.556327343E0,-7.980640531E-1,8.360629082E0
8.342003125E0,-1.519867897E0,-7.960241437E-1,8.354097366E0
8.364000000E0,-2.566565275E0,-3.062969208E0,8.713342667E0
8.384000000E0,-2.605868101E0,-1.998832822E0,8.045983315E0
8.404000000E0,-1.157548651E-1,1.687241793E-1,1.006776142E1
8.424006250E0,2.016674519E0,1.220113873E0,1.128932190E1
8.446000000E0,3.286396265E0,2.103162557E-1,1.563764286E1
8.466001562E0,-8.142201602E-2,1.007164121E0,1.158399010E1
8.486001562E0,-2.968580246E0,8.444923759E-1,8.805184364E0
8.506003125E0,-4.436839104E0,2.083999157E0,6.527436733E0
8.528000000E0,-6.507555008E0,4.893384457E0,1.158196926E1
8.548007812E0,-5.300235748E0,6.992974758E0,1.099167442E1
8.570000000E0,-6.115279675E0,4.347985268E0,1.153534985E1
8.590007812E0,-5.693286896E0,7.831912488E-2,1.033596992E1
8.612000000E0,-5.321678162E0,8.336131573E-1,1.024023056E1
8.632000000E0,-6.920545578E0,9.795636535E-1,9.544772148E0
8.652000000E0,-7.969819069E0,-7.449797988E-1,7.532063007E0
8.672003125E0,-7.239960670E0,-2.004770279E0,7.985179901E0
8.694000000E0,-6.021934509E0,-5.702317715E0,5.861398220E0
8.714000000E0,-5.176474571E0,-5.873905659E0,6.571460724E0
8.734000000E0,-3.524073601E0,-6.164083004E0,1.343220901E1
8.754000000E0,-2.062997341E0,-6.499395370E0,1.109179974E1
8.774000000E0,-2.770397663E0,-6.062855721E0,9.040246964E0
8.794000000E0,-3.896908045E0,-2.551500797E0,8.897801399E0
8.814000000E0,-1.820359468E0,-1.677856565E0,7.793414116E0
8.834000000E0,1.797183603E-1,-4.465741634E0,5.206641674E0
8.854000000E0,-3.051955938E0,-5.628864169E-1,7.134472370E0
8.874000000E0,-3.449565887E0,2.591608286E0,6.072442532E0
8.894000000E0,-3.342401385E-1,4.342842102E0,5.496541023E0
8.914000000E0,5.986940861E-1,3.863417864E0,2.584617376E0
8.934000000E0,-7.780389190E-1,2.335180044E0,5.394893169E0
8.954000000E0,5.426219106E-1,5.330929756E0,1.024799728E1
8.974000000E0,-9.324649572E-1,2.927294731E0,1.339548111E1
8.994000000E0,-2.585268497E0,2.374732018E0,1.309421444E1
9.014000000E0,-1.790441513E0,7.672363520E-1,1.361889935E1
9.034000000E0,-2.078243732E0,4.531553388E-1,1.389011383E1
9.054000000E0,-1.873596907E0,1.130637765E0,1.046240330E1
9.074000000E0,-1.288137913E0,4.627513140E-2,1.116377926E1
9.094000000E0,-2.560885906E0,1.262443304E0,1.040731716E1
9.114000000E0,-3.677637339E0,2.257751465E0,6.862758636E0
9.134043750E0,-1.930559635E0,1.175102949E0,3.090875864E0
9.156001562E0,-3.661175013E0,-1.443818569E0,2.482279539E0
9.178000000E0,-5.426372051E0,-7.193283081E0,4.186692715E0
9.198000000E0,-4.837771893E0,-5.555534363E0,1.072497129E0
9.218000000E0,-5.066600323E0,-7.341139793E0,1.618384570E-1
9.238000000E0,-5.227940559E0,-8.597042084E0,3.247686625E-1
9.258000000E0,-4.322261810E0,-1.147275543E1,1.012916756E1
9.278000000E0,-7.669470787E0,-9.428692818E0,6.397421837E0
9.298000000E0,-1.254432392E1,-1.361086464E1,1.087761497E1
9.318000000E0,-9.149652481E0,-1.888967705E1,5.287977695E0
9.338000000E0,-4.291817188E0,-1.453903866E1,7.542281151E0
9.358017187E0,-1.318707108E0,-1.107377625E1,1.712744832E0
9.380000000E0,-3.911417007E0,-4.968657970E0,-4.472943544E-1
9.400000000E0,-4.486743450E0,-2.385812521E0,1.354974508E0
9.420000000E0,-4.486389160E0,-1.184861660E0,2.465060472E0
9.440000000E0,-5.292957306E0,-9.367074370E-1,4.008056164E0
9.460000000E0,-7.021532536E0,-1.530938745E0,5.354603291E0
9.480000000E0,-7.798949242E0,-5.008354187E0,6.865191460E0
9.500004687E0,-1.181663990E1,-4.948297977E0,9.605325699E0
9.522000000E0,-1.342921066E1,-5.052934170E0,5.988214493E0
9.542000000E0,-1.374400139E1,-6.415320873E0,8.808373451E0
9.562000000E0,-1.353954601E1,-4.126607895E0,7.242373943E0
9.582000000E0,-1.257699013E1,-3.946257353E0,3.289920330E0
9.602000000E0,-1.107003212E1,-4.269148827E0,-7.681173682E-1
9.622001562E0,-9.486028671E0,-4.760735989E0,-2.519542933E0
9.644000000E0,-8.613801956E0,-5.459709167E0,-3.447391748E0
9.664000000E0,-1.001719666E1,-4.750718594E0,-3.663550138E0
9.684000000E0,-1.118600655E1,-4.567313671E0,-4.854617596E0
9.704000000E0,-1.201478386E1,-3.559919357E0,-6.634974480E0
9.724000000E0,-1.078561974E1,-2.924431086E0,-6.952972889E0
9.744000000E0,-9.634085655E0,-8.328949213E-1,-5.005452156E0
9.764000000E0,-8.023975372E0,3.752671778E-1,-1.805189848E0
9.784000000E0,-7.091022015E0,1.615837216E0,-1.335236669E0
9.804000000E0,-6.201815605E0,1.059874773E0,-3.096947670E-1
9.824000000E0,-5.721673012E0,-6.247908622E-2,9.862866402E-1
9.844000000E0,-5.700871944E0,-3.658052981E-1,2.113447905E0
9.864000000E0,-5.875773430E0,-2.282536179E-1,1.652133346E0
9.884000000E0,-6.571537495E0,-3.765504658E-1,-1.521754637E-2
9.904000000E0,-6.637359142E0,-9.538308382E-1,-1.210259438E0
9.924000000E0,-7.321516514E0,-1.566133499E0,-1.385151029E0
9.944000000E0,-8.875555038E0,-1.589855194E0,-1.222872019E0
9.964000000E0,-1.085107708E1,-8.194012046E-1,-4.046488106E-1
9.984000000E0,-1.245020294E1,-7.444052398E-2,2.074719369E-1
1.000400000E1,-1.406112671E1,1.019700050E0,-1.645199656E-1
1.002400000E1,-1.445682240E1,2.109071493E0,2.024728507E-1
1.004400000E1,-1.398222351E1,2.562073469E0,5.808716416E-1
1.006400000E1,-1.328261948E1,2.028061390E0,2.162634611E0
1.008400000E1,-1.470008183E1,1.001293421E0,3.000739336E0
1.010400000E1,-1.348470879E1,5.500917882E-2,6.786317229E-1
1.012400000E1,-1.063112736E1,-1.326502681E0,-2.406833410E0
1.014400000E1,-8.753680229E0,-1.758043170E0,-6.685798645E0
1.016400000E1,-9.143733978E0,-1.866921902E0,-9.007130623E0
1.018400000E1,-1.051987267E1,-2.911138773E0,-7.626787186E0
1.020400000E1,-1.171159172E1,-2.948574305E0,-4.222155571E0
1.022400000E1,-1.131512165E1,-3.188990593E0,-1.277335286E0
1.024400000E1,-1.040900326E1,-3.158200979E0,-2.454190969E0
1.026400000E1,-8.609032631E0,-3.221379042E0,-2.205356598E0
1.028400000E1,-8.395469666E0,-2.518853426E0,-6.337260008E-1
1.030400000E1,-6.918026924E0,-8.259899616E-1,-1.104272842E0
1.032400000E1,-5.953383923E0,1.548569649E-2,-1.566813469E0
1.034400000E1,-4.691285133E0,7.244758010E-1,-1.456009746E0
1.036400000E1,-4.023456097E0,4.329099655E-1,-2.645803452E0
1.038400000E1,-3.804434299E0,-9.046251774E-1,-3.505312443E0
1.040400000E1,-3.942589283E0,-2.207339048E0,-3.633143663E0
1.042400000E1,-4.528976917E0,-2.824583530E0,-2.151477575E0
1.044400000E1,-5.719144344E0,-2.951543331E0,-9.896289110E-1
1.046400000E1,-8.176466942E0,-3.150376797E0,9.746028781E-1
1.048400000E1,-1.234035778E1,-3.842253208E0,4.645441055E0
1.050400000E1,-1.666218758E1,-3.596454859E0,7.610650063E0
1.052400156E1,-1.766954231E1,-3.968044519E0,7.971283913E0
1.054600781E1,-1.314010620E1,-3.313460112E0,9.415638924E0
1.056800000E1,-9.752062798E0,-2.101994038E0,6.996652126E0
1.058800000E1,-1.089681625E1,-3.199917793E0,2.339518070E0
1.060800000E1,-1.064266682E1,-4.784304619E0,-2.568212271E0
1.062800000E1,-1.040516186E1,-5.808218479E0,-5.696227074E0
1.064800000E1,-1.100460339E1,-8.692771912E0,-4.527828217E0
1.066800000E1,-1.097389030E1,-7.922566891E0,-5.890110016E0
1.068800000E1,-1.107150650E1,-4.620301723E0,-5.830455780E0
1.070800000E1,-1.063568592E1,-1.563672185E0,-6.331360817E0
1.072800000E1,-9.468416214E0,1.187428311E-1,-5.889439583E0
1.074800000E1,-7.780724525E0,4.883500934E-1,-4.199113846E0
1.076800000E1,-6.779086590E0,1.337602139E0,-2.200989485E0
1.078800000E1,-5.588411808E0,1.633831978E0,-3.107951403E0
1.080800000E1,-4.840539455E0,8.776760101E-1,-1.640382409E0
1.082800000E1,-4.788997173E0,2.564860582E-1,7.590768337E-1
1.084800000E1,-5.214054108E0,-3.876021206E-1,1.945911407E0
1.086800156E1,-6.724987030E0,-6.740347743E-1,1.349860430E0
1.088800781E1,-7.648602962E0,-7.290056944E-1,-1.103286505E0
1.091000000E1,-7.436591625E0,-1.043584645E-1,-2.288081169E0
1.093000156E1,-7.769979477E0,7.000741363E-1,-1.348146200E0
1.095200000E1,-9.411520958E0,1.223982930E0,4.131530225E-1
1.097200000E1,-1.147749615E1,1.743285298E0,1.222613454E0
1.099200000E1,-1.330721283E1,1.799529910E0,1.722130179E0
1.101200000E1,-1.424049091E1,1.469704747E0,1.231289983E0
1.103200000E1,-1.420315170E1,1.392640114E0,2.568882704E-1
1.105200000E1,-1.259873962E1,1.010764837E0,8.644504547E-1
1.107200000E1,-1.231395435E1,7.583873272E-1,2.765111446E0
1.109200000E1,-1.433354855E1,5.801534057E-1,1.851139307E0
1.111200000E1,-1.302651691E1,-7.498639636E-3,-1.125140786E0
1.113200000E1,-9.852953911E0,-1.335275054E0,-2.949139357E0
1.115200000E1,-8.489340782E0,-1.908925772E0,-8.006095886E0
1.117200000E1,-1.018403435E1,-2.370278835E0,-8.315100670E0
1.119200000E1,-1.239320183E1,-2.928367138E0,-7.067051411E0
1.121200000E1,-1.285438251E1,-3.274837017E0,-3.304448605E0
1.123200000E1,-1.222940063E1,-2.951581478E0,-1.150969386E0
1.125200000E1,-9.484418869E0,-2.672321796E0,-8.731557727E-1
1.127200000E1,-9.166163445E0,-2.424225092E0,-7.540777326E-2
1.129200000E1,-8.044775963E0,-1.338866353E0,-2.202225208E0
1.131200000E1,-6.708333015E0,-1.296699643E-1,-1.176970482E0
1.133200000E1,-5.139489174E0,6.935427785E-1,1.985272020E-2
1.135200000E1,-4.351748943E0,6.477943659E-1,-9.147287011E-1
1.137200000E1,-4.220968246E0,2.233981788E-1,-2.618682146E0
1.139200000E1,-3.725435257E0,-9.405477643E-1,-3.633957863E0
1.141200156E1,-3.528517008E0,-2.175419331E0,-3.554862738E0
1.143400000E1,-4.369255543E0,-2.946429253E0,-2.195712805E0
1.145400000E1,-6.277194977E0,-2.755228281E0,-1.250022292E0
1.147400156E1,-9.610115051E0,-3.293272257E0,1.569217324E0
1.149600156E1,-1.455869007E1,-4.635318279E0,4.701924801E0
1.151800000E1,-1.819517517E1,-5.812145233E0,7.013967514E0
1.153800000E1,-1.731996155E1,-4.897330284E0,1.027555943E1
1.155800000E1,-1.081675434E1,-2.526447773E0,9.611934662E0
1.157800000E1,-1.154122066E1,-2.929803610E0,5.946488380E0
1.159800000E1,-1.250052929E1,-3.779582500E0,1.188213587E0
1.161800000E1,-1.046508408E1,-5.027047634E0,-3.342104435E0
1.163800000E1,-9.330568314E0,-6.149842262E0,-3.992618561E0
1.165800781E1,-8.852560997E0,-6.794945240E0,-4.835578442E0
1.168000000E1,-9.789374352E0,-5.355158806E0,-5.956610680E0
1.170000000E1,-1.146363831E1,-1.798687100E0,-7.602941036E0
1.172000781E1,-1.173184681E1,2.835405171E-1,-7.345314980E0
1.174200000E1,-9.787965775E0,1.020427942E0,-4.925523758E0
1.176200000E1,-7.702367306E0,1.416534185E0,-3.003679276E0
1.178200000E1,-6.418653965E0,2.200395823E0,-2.595736027E0
1.180200000E1,-5.257293224E0,2.290082693E0,-2.336702585E0
1.182200000E1,-4.565589428E0,1.080943704E0,-9.906249493E-2
1.184200000E1,-5.077747345E0,5.106736422E-1,1.573622584E0
1.186200000E1,-5.959809780E0,-1.472529769E-1,1.629800200E0
1.188200000E1,-6.781126022E0,-7.889086008E-1,-1.326387748E-2
1.190200000E1,-7.021456242E0,-1.258047581E0,-1.739952564E0
1.192200000E1,-6.944487095E0,-9.974052906E-1,-1.910898566E0
1.194200000E1,-7.665582657E0,7.532158494E-2,-8.853182793E-1
1.196200000E1,-9.549493790E0,1.013848662E0,1.806760430E-1
1.198200000E1,-1.160634232E1,1.464159727E0,1.480124235E0
1.200200000E1,-1.364767742E1,1.309599638E0,2.523191690E0
1.202200000E1,-1.497167110E1,1.511928797E0,2.123350382E0
1.204200000E1,-1.426266193E1,2.402121782E0,1.157261357E-1
1.206200000E1,-1.211970806E1,2.751100540E0,7.512334585E-1
1.208200000E1,-1.343296623E1,2.890864611E0,2.258651495E0
1.210200000E1,-1.495952702E1,1.885357141E0,9.972233176E-1
1.212200000E1,-1.236838913E1,3.002424538E-1,-1.173992038E0
1.214200156E1,-9.348697662E0,-8.753967285E-1,-4.062069416E0
1.216400000E1,-9.195764542E0,-1.835136533E0,-7.517218590E0
1.218400000E1,-1.127572250E1,-3.350417137E0,-6.258969784E0
1.220400000E1,-1.316387558E1,-4.047455311E0,-4.575242519E0
1.222400000E1,-1.347255611E1,-3.455158710E0,-2.462695122E0
1.224400000E1,-1.067644405E1,-2.902931213E0,-1.678220510E0
1.226400000E1,-7.843615055E0,-2.768578053E0,-9.664338827E-1
1.228400000E1,-7.010739803E0,-2.216772318E0,-4.081347585E-1
1.230400000E1,-6.632130146E0,-1.546060562E0,-1.682482123E0
1.232400000E1,-6.089001179E0,-3.455598950E-1,-2.115698576E0
1.234400000E1,-5.828358173E0,4.045147300E-1,-5.449969769E-1
1.236400000E1,-5.708341599E0,8.188936114E-1,-4.940674603E-1
1.238400000E1,-5.520579338E0,2.647795379E-1,-2.212941408E0
1.240400000E1,-4.922804356E0,-7.691133618E-1,-2.908313513E0
1.242400156E1,-4.295667171E0,-2.114386559E0,-2.840863943E0
1.244600000E1,-4.883932114E0,-2.622847795E0,-2.492737532E0
1.246600625E1,-6.826338291E0,-2.133070707E0,-9.990524650E-1
1.248800000E1,-1.060523129E1,-1.759527564E0,2.893459797E0
1.250800000E1,-1.454590511E1,-2.224586964E0,5.390669346E0
1.252800000E1,-1.732403183E1,-3.372663975E0,6.773972034E0
1.254800000E1,-1.603838348E1,-2.849885225E0,1.004845524E1
1.256800000E1,-9.884605408E0,-5.292047858E-1,1.014577484E1
1.258800000E1,-1.123910046E1,-1.136039138E0,5.170997143E0
1.260800000E1,-1.216446972E1,-3.528009415E0,-7.785943896E-2
1.262800000E1,-1.074739933E1,-4.517083168E0,-4.000998497E0
1.264800000E1,-9.380482674E0,-5.574544430E0,-5.701551914E0
1.266800000E1,-9.173163414E0,-7.761293411E0,-4.974834919E0
1.268800000E1,-1.091218758E1,-7.390565395E0,-6.404738903E0
1.270800000E1,-1.228250408E1,-2.667150497E0,-6.621413708E0
1.272800000E1,-1.128699493E1,-3.403980136E-1,-5.616730213E0
1.274800000E1,-9.323576927E0,5.913391113E-1,-5.105616093E0
1.276800000E1,-8.195601463E0,1.378887773E0,-3.087591410E0
1.278800000E1,-7.203722000E0,2.361630917E0,-2.629915476E0
1.280800000E1,-5.781058788E0,2.202703953E0,-1.014653087E0
1.282800000E1,-5.589053154E0,1.167451024E0,9.746795297E-1
1.284800000E1,-5.887495041E0,3.362608254E-1,1.906531453E0
1.286800000E1,-6.695835114E0,-7.794563174E-1,1.129287481E0
1.288800000E1,-7.266957283E0,-1.292457104E0,-3.027324378E-1
1.290800000E1,-6.961370945E0,-1.374530435E0,-1.940529227E0
1.292800000E1,-6.587588310E0,-6.325959563E-1,-1.028577805E0
1.294800000E1,-7.514910698E0,5.584331751E-1,-1.535736620E-1
1.296800000E1,-9.585397720E0,1.436540127E0,4.898249507E-1
1.298800000E1,-1.171804714E1,1.951695800E0,1.347092748E0
1.300800000E1,-1.294864750E1,2.068513632E0,1.580192208E0
1.302800000E1,-1.341914654E1,1.623948693E0,1.994973421E0
1.304800000E1,-1.395774651E1,2.263411045E0,1.761854768E0
1.306800156E1,-1.241678047E1,2.426638365E0,1.645764589E0
1.308800156E1,-1.447550583E1,2.172536850E0,2.495495558E0
1.311000000E1,-1.485325432E1,9.914772511E-1,1.253939152E0
1.313000000E1,-1.153747559E1,-1.394095719E-1,-1.944273710E0
1.315000000E1,-8.756227493E0,-1.092206001E0,-5.756158829E0
1.317000000E1,-9.057284355E0,-2.428860188E0,-6.782294273E0
1.319000000E1,-1.158342552E1,-4.431408882E0,-5.222424507E0
1.321000000E1,-1.429941750E1,-4.645737648E0,-3.998230696E0
1.323000000E1,-1.336925125E1,-4.364696980E0,-2.494987965E0
1.325000000E1,-9.893483162E0,-3.499125719E0,-1.865178823E0
1.327000000E1,-6.803076267E0,-3.006427765E0,-1.711461544E0
1.329000000E1,-6.419142246E0,-1.933643460E0,-1.736840129E0
1.331000000E1,-6.278831959E0,-1.155039549E0,-1.941046357E0
1.333000000E1,-5.751121521E0,2.952242196E-1,-1.192705035E0
1.335000000E1,-5.672342777E0,1.797173977E0,-8.199183345E-1
1.337000000E1,-5.830896378E0,2.156371355E0,-1.520758629E0
1.339000000E1,-5.604462624E0,1.108678222E0,-2.811693192E0
1.341000000E1,-4.909003735E0,-7.890905738E-1,-2.247982979E0
1.343000000E1,-5.052732944E0,-1.835337520E0,-1.741140127E0
1.345000000E1,-5.876836300E0,-2.475413084E0,-1.527213335E0
1.347000000E1,-8.419344902E0,-2.032897472E0,5.259007812E-1
1.349000000E1,-1.197259903E1,-2.515434504E0,4.185888290E0
1.351000000E1,-1.580180740E1,-3.497842550E0,5.665504932E0
1.353000000E1,-1.741510773E1,-4.572446346E0,6.519066334E0
1.355000000E1,-1.344602871E1,-2.596607447E0,9.460123062E0
1.357000000E1,-9.914034843E0,-3.731315732E-1,7.897111416E0
1.359000000E1,-1.231180859E1,-1.307502270E0,3.138769865E0
1.361000000E1,-1.216320515E1,-3.249161720E0,-1.419014692E0
1.363000000E1,-1.056680012E1,-4.350676060E0,-5.043376446E0
1.365000000E1,-9.684057236E0,-6.690654278E0,-4.254036427E0
1.367000000E1,-9.439533234E0,-7.334253788E0,-5.876204014E0
1.369000000E1,-1.078855038E1,-3.768109560E0,-6.943271160E0
1.371000000E1,-1.154203415E1,-1.097406268E0,-7.243618965E0
1.373000000E1,-1.062076473E1,2.985282242E-1,-6.673416138E0
1.375000000E1,-9.180183411E0,1.181586385E0,-5.218852043E0
1.377000000E1,-8.556406975E0,2.024431705E0,-3.289460659E0
1.379000000E1,-7.588125706E0,2.642873049E0,-3.051323891E0
1.381000000E1,-6.065403461E0,2.290992498E0,-1.319703102E0
1.383000156E1,-5.248770237E0,8.961975574E-1,4.179126918E-1
1.385200156E1,-5.528221130E0,-2.347658426E-1,1.757880330E0
1.387400000E1,-6.056200027E0,-1.743151188E0,1.295837760E0
1.389400469E1,-6.601858139E0,-2.531466007E0,-8.063287735E-1
1.391600000E1,-6.369304180E0,-2.127736568E0,-2.035444975E0
1.393600000E1,-7.042065620E0,-9.011104703E-1,-1.864824533E0
1.395600469E1,-8.586287498E0,6.324044466E-1,-4.508951902E-1
1.397800000E1,-1.099035358E1,1.846753120E0,1.481522441E0
1.399800156E1,-1.297724342E1,2.676047087E0,3.033941984E0
1.402000156E1,-1.483627415E1,3.860180855E0,2.966502190E0
1.404200000E1,-1.428037930E1,3.631362200E0,5.382261276E-1
1.406200000E1,-1.232018852E1,3.030034781E0,1.015208602E0
1.408200000E1,-1.338253403E1,1.901666522E0,3.838805676E0
1.410200000E1,-1.469766903E1,3.700095117E-1,2.243807554E0
1.412200000E1,-1.197304916E1,-8.200332522E-1,-1.557265401E0
1.414200000E1,-9.052705765E0,-1.663271070E0,-5.298923969E0
1.416200000E1,-9.587513924E0,-3.188540220E0,-7.337653637E0
1.418200000E1,-1.228116322E1,-5.512199402E0,-6.745787621E0
1.420200000E1,-1.551426506E1,-6.387145996E0,-5.641534328E0
1.422200000E1,-1.612516975E1,-6.206278324E0,-4.402237892E0
1.424200000E1,-1.227158546E1,-4.483698368E0,-3.769211054E0
1.426200000E1,-7.422082424E0,-3.581984282E0,-3.800134182E0
1.428200000E1,-6.334483147E0,-2.053621769E0,-3.055125952E0
1.430200000E1,-6.236253738E0,-7.384005189E-1,-1.778489590E0
1.432200000E1,-5.428660870E0,2.955690026E-1,-1.257511377E0
1.434200000E1,-4.119951725E0,1.006819248E0,-5.944994688E-1
1.436200000E1,-3.120209932E0,1.788928390E0,-6.737954021E-1
1.438200000E1,-2.871232033E0,2.485976219E0,-2.148097038E0
1.440200000E1,-2.933557749E0,2.369369030E0,-2.740853310E0
1.442200000E1,-3.599529028E0,1.839254498E0,-9.133017659E-1
1.444200156E1,-5.249631882E0,1.010946870E0,-6.773483753E-1
1.446200156E1,-8.658831596E0,8.279340863E-1,3.536140025E-1
1.448200156E1,-1.311451721E1,-2.136585563E-1,3.822745323E0
1.450200156E1,-1.725113297E1,-3.803946018E0,4.154399395E0
1.452200156E1,-1.853407097E1,-4.332317352E0,1.928443193E0
1.454400000E1,-1.480852032E1,-3.306536198E0,5.269168377E0
1.456400000E1,-1.094203854E1,-2.082926750E0,7.613599777E0
1.458400000E1,-1.343043709E1,-2.998028994E0,4.044812202E0
1.460400000E1,-1.454912281E1,-2.943134785E0,-1.829601049E0
1.462400000E1,-1.248547459E1,-3.243616581E0,-4.910833359E0
1.464400000E1,-1.119400406E1,-3.885387182E0,-6.115901947E0
1.466400000E1,-1.057914448E1,-5.104399681E0,-6.474141598E0
1.468400000E1,-9.115577698E0,-4.418614388E0,-8.775447845E0
1.470400000E1,-7.261307240E0,-1.984668732E0,-8.347518921E0
1.472400000E1,-5.593324184E0,-1.204455853E0,-6.817163467E0
1.474400000E1,-5.580692291E0,-1.604383349E0,-4.927209377E0
1.476400000E1,-6.738222122E0,-1.325688601E0,-3.451653481E0
1.478400000E1,-5.770638943E0,-1.220918298E0,-2.053966522E0
1.480400000E1,-4.639196873E0,-9.844956994E-1,-1.802738190E0
1.482400000E1,-3.864327669E0,-1.119978905E0,-1.233320355E0
1.484400000E1,-5.135476589E0,3.027228639E-2,-1.493407249E0
1.486400000E1,-6.984087467E0,9.418119192E-1,-1.677368164E0
1.488400000E1,-8.753767014E0,1.315709591E0,-1.861980200E0
1.490400000E1,-1.057246876E1,1.679915547E0,-1.616737485E0
1.492400000E1,-1.103358269E1,2.290590286E0,-1.034247160E0
1.494400000E1,-1.008534431E1,3.301422119E0,-1.213266492E0
1.496400000E1,-9.708574295E0,3.731545448E0,2.427433133E-1
1.498400000E1,-1.094742966E1,3.560407639E0,2.370795965E0
1.500400000E1,-1.242848301E1,2.783719301E0,4.116044521E0
1.502400000E1,-1.399729824E1,3.323803186E0,1.987082005E0
1.504400000E1,-1.410838890E1,3.693927526E0,-1.133960962E0
1.506400000E1,-1.194082260E1,3.375393629E0,-1.447572589E0
1.508400000E1,-1.319084454E1,3.717218399E0,-1.171923518E0
1.510400000E1,-1.435169697E1,3.154130936E0,-1.329567313E0
1.512400000E1,-1.152817631E1,1.179671049E0,-2.757775545E0
1.514400000E1,-8.210445404E0,-1.341174364E0,-3.624735117E0
1.516400000E1,-8.886463165E0,-3.162041187E0,-5.037620544E0
1.518400000E1,-1.045030785E1,-5.395620823E0,-3.101420164E0
1.520400000E1,-1.353804207E1,-6.531267166E0,-4.113535881E0
1.522400000E1,-1.502545452E1,-5.766242981E0,-4.792741776E0
1.524400000E1,-1.212651634E1,-5.207149506E0,-3.646263838E0
1.526400000E1,-8.279322624E0,-3.969825983E0,-2.063763618E0
1.528400000E1,-7.555133343E0,-2.671297073E0,-2.040204525E0
1.530400000E1,-7.121275425E0,-1.740479231E0,-2.162979364E0
1.532400000E1,-6.449797153E0,-9.913814664E-1,-2.106064320E0
1.534400000E1,-6.046700001E0,6.598324180E-1,-1.043804884E0
1.536400000E1,-5.185840607E0,1.182237625E0,-3.345657289E-1
1.538400000E1,-4.154591084E0,1.202856541E0,-2.164511442E0
1.540400000E1,-3.408471584E0,6.941556931E-1,-3.138664246E0
1.542400000E1,-4.139488697E0,-2.888173461E-1,-3.374378443E0
1.544400000E1,-5.421401501E0,-1.757037640E0,-3.560503483E0
1.546400000E1,-7.456454277E0,-1.821901202E0,-2.313871384E0
1.548400000E1,-9.909390450E0,-1.171205163E0,-3.441808522E-1
1.550400000E1,-1.276856518E1,-1.104062080E0,2.142245531E0
1.552400000E1,-1.659543800E1,-3.974786520E0,6.272549629E0
1.554400000E1,-1.822764969E1,-4.377730846E0,6.364248276E0
1.556400000E1,-1.293651390E1,-1.797834873E0,8.016668320E0
1.558400000E1,-1.181165028E1,-2.141374111E0,5.052349567E0
1.560400000E1,-1.272121716E1,-2.777417660E0,7.947791815E-1
1.562400000E1,-1.015136719E1,-3.423459530E0,-1.857048273E0
1.564400000E1,-8.544723511E0,-4.613789558E0,-5.011638641E0
1.566400000E1,-1.003588104E1,-5.162214756E0,-5.570560455E0
1.568400000E1,-1.136733532E1,-4.016829014E0,-7.410197735E0
1.570400000E1,-1.195785904E1,-1.295349360E0,-8.678081512E0
1.572400000E1,-9.962187767E0,-4.713512957E-1,-8.010453224E0
1.574400000E1,-7.904590607E0,2.769133747E-1,-6.328306198E0
1.576400156E1,-7.362198830E0,1.188893557E0,-5.018515110E0
1.578600000E1,-6.677715778E0,1.192628503E0,-2.591254234E0
1.580600469E1,-6.690759182E0,1.207414985E0,-1.349123001E0
1.582800000E1,-6.368959427E0,4.313776791E-1,-3.650678694E-2
1.584800000E1,-6.570637703E0,-3.294900656E-1,1.490725756E0
1.586800000E1,-7.038934231E0,-6.472197175E-1,2.063619852E0
1.588800000E1,-7.415522575E0,-6.023811698E-1,7.036367059E-1
1.590800000E1,-7.248340130E0,-3.407523632E-1,-1.710791111E0
1.592800000E1,-7.214189529E0,3.152397573E-1,-1.631782651E0
1.594800156E1,-7.857329369E0,1.178876162E0,-5.521603823E-1
1.597000000E1,-9.529151917E0,1.670855999E0,9.325607419E-1
1.599000000E1,-1.169628811E1,1.568106294E0,2.323601484E0
1.601000000E1,-1.334755993E1,1.127621055E0,2.464639187E0
1.603000781E1,-1.442803383E1,1.430525899E0,1.539864421E0
1.605200000E1,-1.358964157E1,2.524762154E0,-6.134328246E-1
1.607200000E1,-1.295804214E1,3.048824310E0,5.116313100E-1
1.609200000E1,-1.542521858E1,2.122660875E0,2.110048294E0
1.611200000E1,-1.410674191E1,7.418960333E-1,7.265157700E-1
1.613200000E1,-1.082039356E1,2.580087483E-1,-2.736428976E0
1.615200000E1,-8.003787994E0,-5.673395991E-1,-5.600257874E0
1.617200000E1,-8.095657349E0,-2.354065180E0,-5.808917522E0
1.619200000E1,-1.005870247E1,-4.735922337E0,-4.131166458E0
1.621200000E1,-1.286174679E1,-5.232163906E0,-3.776700020E0
1.623200000E1,-1.321824455E1,-5.011715412E0,-2.774400949E0
1.625200000E1,-9.692619324E0,-4.436206341E0,-3.128886461E0
1.627200000E1,-6.292172909E0,-3.672217131E0,-3.506883144E0
1.629200000E1,-5.807576656E0,-2.565588236E0,-3.386339903E0
1.631200000E1,-6.645240784E0,-7.993282080E-1,-2.162222624E0
1.633200156E1,-6.808324337E0,7.252516150E-1,-5.248760581E-1
1.635200156E1,-6.114437103E0,1.538322568E0,-4.407725334E-1
1.637400000E1,-6.307524204E0,2.210834503E0,-1.340082586E-1
1.639400000E1,-6.479638577E0,1.344152689E0,-1.711452007E0
1.641400000E1,-6.143396854E0,-1.191498399E0,-2.376494169E0
1.643400000E1,-6.238628864E0,-2.578153133E0,-2.156323433E0
1.645400000E1,-6.562832355E0,-3.237382174E0,-1.950699806E0
1.647400000E1,-7.730954170E0,-2.443301916E0,-3.573776782E-1
1.649400000E1,-1.035937595E1,-1.954980612E0,1.595026731E0
1.651400000E1,-1.330309486E1,-2.197005510E0,3.844542027E0
1.653400000E1,-1.547161961E1,-2.364120960E0,3.864864111E0
1.655400000E1,-1.554587650E1,-1.696483374E0,6.068765163E0
1.657400000E1,-1.334767437E1,5.219359882E-3,6.949917316E0
1.659400000E1,-1.254950523E1,-1.530670643E0,3.496674061E0
1.661400000E1,-1.214665604E1,-3.501663685E0,-3.081529140E-1
1.663400000E1,-1.023518372E1,-4.264274597E0,-3.687080145E0
1.665400000E1,-8.912396431E0,-5.208719730E0,-5.379684925E0
1.667400000E1,-8.770736694E0,-7.463243484E0,-5.359525681E0
1.669400000E1,-9.395499229E0,-7.589839935E0,-6.499750137E0
1.671400000E1,-1.148793602E1,-2.503482580E0,-6.954025745E0
1.673400469E1,-1.075814438E1,-8.318222761E-1,-6.806878567E0
1.675600000E1,-8.787121773E0,2.160431892E-1,-5.420549393E0
1.677600000E1,-8.514634132E0,1.227152824E0,-4.609968185E0
1.679600000E1,-8.040782928E0,1.801033497E0,-3.510704041E0
1.681600000E1,-6.756839275E0,1.893516779E0,-2.124250650E0
1.683600156E1,-6.103825569E0,1.708703518E0,-1.210259438E0
1.685600156E1,-5.650363922E0,8.778771162E-1,5.546215773E-1
1.687600156E1,-5.744848728E0,6.983407587E-2,1.167182803E0
1.689600625E1,-6.083953381E0,-9.827719331E-1,9.009189606E-1
1.691800000E1,-6.912654400E0,-1.390025616E0,-1.011368275E0
1.693800000E1,-7.198244095E0,-8.519048691E-1,-1.941640139E0
1.695800000E1,-7.766158104E0,3.335314691E-1,-1.754174113E0
1.697800000E1,-9.181207657E0,1.445245504E0,-5.725302100E-1
1.699800000E1,-1.109912586E1,2.173982859E0,9.530455470E-1
1.701800156E1,-1.270232201E1,2.212740421E0,2.055489302E0
1.704000000E1,-1.422066689E1,2.561882019E0,2.765044451E0
1.706000000E1,-1.401126099E1,3.056284666E0,1.247302532E0
1.708000156E1,-1.233447647E1,2.834179401E0,1.505675197E0
1.710000156E1,-1.474122429E1,2.399584055E0,1.894550920E0
1.712000156E1,-1.448024750E1,1.369148135E0,-2.840480767E-2
1.714200000E1,-1.086687851E1,5.809578300E-1,-3.307953596E0
1.716200000E1,-7.952819824E0,-1.066444516E0,-6.039412022E0
1.718200000E1,-8.733760834E0,-3.382403612E0,-5.614096642E0
1.720200000E1,-1.125680828E1,-5.479599476E0,-4.305320263E0
1.722200000E1,-1.451203251E1,-5.401060581E0,-3.887637615E0
1.724200000E1,-1.436341858E1,-5.267253399E0,-3.593782902E0
1.726200000E1,-9.899669647E0,-4.834496498E0,-3.270316601E0
1.728200000E1,-6.799647808E0,-3.759394884E0,-3.366946697E0
1.730200000E1,-6.605085373E0,-2.501519203E0,-3.340294361E0
1.732200000E1,-6.955213547E0,-9.982576370E-1,-2.249678135E0
1.734200000E1,-6.512975693E0,3.439606130E-1,-2.053679228E0
1.736200000E1,-5.757327080E0,1.478582382E0,-9.151117802E-1
1.738200000E1,-5.198711872E0,2.257090569E0,-1.064768553E0
1.740200000E1,-4.672284603E0,1.823261261E0,-2.793832302E0
1.742200000E1,-4.534656048E0,6.101192236E-1,-2.641589880E0
1.744200000E1,-4.907414436E0,-6.723397374E-1,-2.360539198E0
1.746200000E1,-5.693162441E0,-1.487393022E0,-1.984161139E0
1.748200000E1,-7.873724937E0,-1.386980176E0,-6.233639717E-1
1.750200000E1,-1.127509117E1,-1.154196739E0,1.803781986E0
1.752200000E1,-1.464239120E1,-2.214090586E0,3.471726656E0
1.754200000E1,-1.723910522E1,-4.076061249E0,3.361124039E0
1.756200000E1,-1.512227631E1,-2.823932171E0,7.181704998E0
1.758200000E1,-1.190641308E1,-3.363661766E-1,6.767652035E0
1.760200000E1,-1.241047859E1,-2.101477146E0,2.358144999E0
1.762200000E1,-1.225537300E1,-3.824765921E0,-1.771613479E0
1.764200000E1,-1.010275555E1,-4.600765228E0,-4.831901550E0
1.766200000E1,-8.930994987E0,-7.733338356E0,-4.543103218E0
1.768200000E1,-1.027141190E1,-8.031301498E0,-7.547577381E0
1.770200000E1,-1.142890358E1,-3.870409012E0,-7.615783215E0
1.772200000E1,-1.116391277E1,-9.621338844E-1,-7.321908951E0
1.774200000E1,-1.005330086E1,4.545727372E-1,-7.342202663E0
1.776200000E1,-8.900952339E0,1.437507391E0,-6.620896339E0
1.778200000E1,-8.412832260E0,2.304974556E0,-4.482779026E0
1.780200000E1,-7.122271061E0,2.647575140E0,-2.641091824E0
1.782200000E1,-5.622888088E0,2.453980207E0,-1.380046606E0
1.784200000E1,-4.736305714E0,1.204982519E0,4.329195619E-1
1.786200000E1,-5.119923592E0,3.412216306E-1,1.481378794E0
1.788200000E1,-5.510609150E0,-1.013810396E0,1.593906283E0
1.790200000E1,-6.104773998E0,-1.918569565E0,-2.762908638E-1
1.792200000E1,-6.234597206E0,-2.243903399E0,-2.485238791E0
1.794200000E1,-6.615782738E0,-1.264033198E0,-3.189593792E0
1.796200000E1,-7.466184139E0,1.722867638E-1,-2.244995117E0
1.798200000E1,-9.817539215E0,1.351641774E0,-5.890981555E-1
1.800200156E1,-1.229929161E1,2.306430101E0,1.319645643E0
1.802400000E1,-1.385585880E1,2.874277353E0,2.917229414E0
1.804400000E1,-1.550299263E1,2.980628014E0,3.009061575E0
1.806400000E1,-1.414251041E1,2.209197044E0,1.755572438E0
1.808400000E1,-1.443523502E1,2.854960918E0,1.428581834E0
1.810400000E1,-1.593772125E1,3.171790600E0,2.425517887E-1
1.812400000E1,-1.438753414E1,2.446251631E0,-2.376676083E0
1.814400000E1,-1.034533596E1,8.009275198E-1,-5.500496387E0
1.816400156E1,-8.480023384E0,-1.398309588E0,-7.082958698E0
1.818600938E1,-8.569335938E0,-3.998556137E0,-5.345342636E0
1.820800000E1,-1.170496464E1,-4.499749184E0,-5.207369804E0
1.822800000E1,-1.402831745E1,-4.577981949E0,-5.221830368E0
1.824800000E1,-1.222678566E1,-4.345073700E0,-4.329453945E0
1.826800000E1,-8.173421860E0,-4.069922447E0,-3.530547380E0
1.828800156E1,-6.424754143E0,-2.714622498E0,-3.031806469E0
1.831000000E1,-7.156843185E0,-1.468708634E0,-2.613185167E0
1.833000000E1,-7.053758621E0,-1.044159234E-1,-3.088788271E0
1.835000000E1,-6.134021282E0,1.468517065E0,-1.554622173E0
1.837000000E1,-5.365128517E0,2.544193506E0,-2.875915170E-1
1.839000000E1,-4.392765999E0,1.945049405E0,-1.569064021E0
1.841000000E1,-4.273956776E0,9.046730399E-1,-2.648485184E0
1.843000000E1,-4.539521694E0,-7.433708906E-1,-2.427260637E0
1.845000000E1,-4.936853409E0,-1.983998299E0,-2.159636974E0
1.847000000E1,-6.238341331E0,-2.454391956E0,-1.330649376E0
1.849000000E1,-9.152372360E0,-2.297523975E0,4.116207361E-1
1.851000000E1,-1.296676636E1,-2.859203577E0,1.640344262E0
1.853000000E1,-1.729086685E1,-4.383936405E0,1.869114995E0
1.855000000E1,-1.821415901E1,-4.557248116E0,6.254037857E0
1.857000000E1,-1.332961273E1,-9.153032899E-1,7.373202801E0
1.859000000E1,-1.086007023E1,-4.486063421E-1,5.354526997E0
1.861000000E1,-1.097736740E1,-2.687271357E0,7.661924362E-1
1.863000000E1,-9.399951935E0,-3.943393707E0,-3.811607361E0
1.865000000E1,-8.497836113E0,-5.932353020E0,-6.516049862E0
1.867000000E1,-9.960089684E0,-9.595577240E0,-7.153060436E0
1.869000000E1,-1.208292294E1,-8.019464493E0,-9.527869225E0
1.871000000E1,-1.107114220E1,-2.787904263E0,-8.914464951E0
1.873000000E1,-9.634247780E0,-3.932906985E-1,-8.417017937E0
1.875000000E1,-9.551064491E0,1.362856150E0,-7.719404221E0
1.877000000E1,-8.841011047E0,1.658023000E0,-4.811914444E0
1.879000000E1,-7.502958775E0,2.971568108E0,-3.519103050E0
1.881000000E1,-5.859167099E0,3.355464220E0,-1.480583906E0
1.883000000E1,-5.040091515E0,2.782234907E0,9.972329140E-1
1.885000156E1,-4.933539867E0,1.717992902E0,1.715244412E0
1.887200000E1,-4.985283375E0,8.934203535E-2,2.397333145E0
1.889200313E1,-5.288733959E0,-1.910486817E0,-7.898184061E-1
1.891400156E1,-6.111161709E0,-3.217950583E0,-4.816587925E0
1.893600781E1,-6.864118576E0,-1.922697186E0,-3.965602636E0
1.895800000E1,-7.958211422E0,-4.319139756E-3,-1.502131701E0
1.897800000E1,-1.087755775E1,1.384595633E0,-4.381676316E-1
1.899800781E1,-1.422688293E1,2.734877348E0,1.044437051E0
1.902000625E1,-1.625558662E1,3.813618660E0,5.932161212E-1
1.904200000E1,-1.667995262E1,5.050740719E0,-1.921030879E0
1.906200000E1,-1.387136364E1,4.163621902E0,-1.395819485E-1
1.908200000E1,-1.360045433E1,3.601788998E0,1.860907555E0
1.910200000E1,-1.434563446E1,2.503645420E0,-6.203951240E-1
1.912200000E1,-1.192391014E1,1.051820636E0,-2.548780918E0
1.914200000E1,-8.849285126E0,-9.244587421E-1,-4.552871704E0
1.916200000E1,-8.270932198E0,-2.389700651E0,-6.809473515E0
1.918200000E1,-9.431210518E0,-3.075897932E0,-6.285152912E0
1.920200000E1,-1.143510914E1,-2.815246105E0,-4.843948841E0
1.922200000E1,-1.221404839E1,-3.071597815E0,-4.391607285E0
1.924200000E1,-1.128597927E1,-3.871625185E0,-4.581496716E0
1.926200000E1,-8.971389771E0,-3.550294638E0,-3.668817043E0
1.928200000E1,-7.913392067E0,-3.089717388E0,-2.707966566E0
1.930200000E1,-6.942323208E0,-1.963417768E0,-2.550839901E0
1.932200000E1,-6.352401257E0,-4.493246078E-1,-1.286720634E0
1.934200000E1,-5.541044235E0,5.233724713E-1,-3.554719090E-1
1.936200000E1,-5.137822628E0,1.237064838E0,-1.324309587E0
1.938200000E1,-4.516288280E0,7.713447213E-1,-3.257225275E0
1.940200000E1,-3.774133205E0,-2.236950547E-1,-3.590182066E0
1.942200000E1,-3.359361887E0,-1.230179191E0,-3.839495182E0
1.944200000E1,-3.904770613E0,-1.507667065E0,-3.609469652E0
1.946200000E1,-5.448915482E0,-1.535889983E0,-2.310021400E0
1.948200000E1,-8.861993790E0,-2.368076086E0,1.975503713E-1
1.950200000E1,-1.441842842E1,-4.342133999E0,2.819938660E0
1.952200000E1,-1.916483879E1,-5.160146713E0,2.425125360E0
1.954200000E1,-1.918544769E1,-5.410599232E0,6.772286415E0
1.956200000E1,-1.446881294E1,-2.938298225E0,8.117541313E0
1.958200000E1,-1.083784294E1,-2.157798290E0,4.812057972E0
1.960200000E1,-1.199082279E1,-2.833566427E0,9.798892736E-1
1.962200000E1,-1.002120876E1,-3.791457653E0,-1.682214022E0
1.964200000E1,-8.240746498E0,-5.265826225E0,-4.542241096E0
1.966200000E1,-8.072673798E0,-8.375655174E0,-4.325489044E0
1.968200000E1,-8.735359192E0,-8.495460510E0,-7.568885803E0
1.970200000E1,-9.166364670E0,-6.382319450E0,-7.047141075E0
1.972200000E1,-1.058155727E1,-1.684273124E0,-7.242163181E0
1.974200000E1,-1.121880722E1,4.845385551E-1,-7.337213039E0
1.976200000E1,-1.068643284E1,1.594758511E0,-5.583076954E0
1.978200000E1,-8.751832008E0,2.137026072E0,-3.865697384E0
1.980200000E1,-7.616147041E0,3.159081936E0,-2.692452192E0
1.982200000E1,-6.197132111E0,2.592297792E0,-1.309685826E0
1.984200000E1,-5.264744282E0,1.506623268E0,2.109100223E-1
1.986200000E1,-5.131080627E0,6.202418804E-1,1.751799107E0
1.988200000E1,-4.897377968E0,-7.214400172E-1,7.930457592E-1
1.990200000E1,-5.153576851E0,-1.642958641E0,-1.127582788E0
1.992200000E1,-5.529150486E0,-1.742921352E0,-2.590516567E0
1.994200000E1,-6.273785114E0,-8.602749705E-1,-2.513260603E0
1.996200000E1,-7.516864300E0,5.277203321E-1,-1.738401175E0
1.998200000E1,-9.688241959E0,1.744530320E0,-6.663351059E-1
2.000200000E1,-1.252939320E1,2.201152325E0,8.632341623E-1
2.002200781E1,-1.525971317E1,2.948976517E0,1.319798946E0
2.004400000E1,-1.683102798E1,4.509201050E0,-1.015495896E0
2.006400469E1,-1.386178589E1,4.120220184E0,-6.533871889E-1
2.008600312E1,-1.243842411E1,3.151123762E0,2.869268894E0
2.010801562E1,-1.565217018E1,2.511460304E0,1.759182692E0
2.013000000E1,-1.298964596E1,1.019881964E0,-1.778374791E0
2.015000000E1,-8.793577194E0,-3.545908630E-1,-2.778949976E0
2.017000000E1,-6.466805458E0,-2.076069832E0,-4.956284523E0
2.019000000E1,-7.868332863E0,-3.337105513E0,-4.905106544E0
2.021000000E1,-1.205104160E1,-3.320949316E0,-5.089000225E0
2.023000000E1,-1.500540066E1,-3.066110373E0,-4.600898743E0
2.025000000E1,-1.318534756E1,-2.958476782E0,-3.236596584E0
2.027000000E1,-9.682333946E0,-1.939140677E0,-2.075332165E0
2.029000000E1,-8.172482491E0,-1.285580873E0,-2.047234058E0
2.031000000E1,-7.672602654E0,-6.988099813E-1,-2.258689880E0
2.033000000E1,-6.539360046E0,-9.325893968E-2,-2.086795807E0
2.035000000E1,-5.769298553E0,3.623672128E-1,-4.992293715E-1
2.037000000E1,-5.052301884E0,5.556367636E-1,-8.082824945E-2
2.039000000E1,-4.738115788E0,1.984027028E-1,-1.434854627E0
2.041000000E1,-4.667132378E0,-2.468326092E-1,-3.093624592E0
2.043000000E1,-4.370816231E0,-1.346460700E0,-3.622695208E0
2.045000000E1,-4.521871090E0,-2.124643326E0,-3.719890356E0
2.047000000E1,-5.252485752E0,-2.364197493E0,-2.961378336E0
2.049000000E1,-7.688049793E0,-2.207788944E0,-1.255059719E0
2.051000000E1,-1.159348106E1,-2.498368740E0,1.175418973E0
2.053000000E1,-1.593039513E1,-2.751550674E0,2.122162819E0
2.055000000E1,-1.900071144E1,-4.073743820E0,5.627714634E0
2.057000000E1,-1.595214462E1,-3.067470551E0,9.372055054E0
2.059000313E1,-1.155087376E1,-1.089725733E0,8.410572052E0
2.061200000E1,-1.224960709E1,-2.359763384E0,3.025935888E0
2.063200000E1,-1.095168209E1,-3.997991323E0,-1.378016353E0
2.065200000E1,-8.954429626E0,-4.605064869E0,-4.792129040E0
2.067200000E1,-8.617756844E0,-6.587635994E0,-5.792474270E0
2.069200000E1,-9.535952568E0,-9.383901596E0,-6.445325375E0
2.071200000E1,-1.031176949E1,-7.125345230E0,-7.536899090E0
2.073200000E1,-1.057489204E1,-2.175630093E0,-6.027862072E0
2.075200000E1,-1.123062611E1,5.040752292E-1,-5.966963291E0
2.077200000E1,-1.046001816E1,1.551691651E0,-4.532482624E0
2.079200000E1,-8.854533195E0,2.216848850E0,-2.571104527E0
2.081200000E1,-7.153740883E0,3.483170986E0,-1.829821348E0
2.083200000E1,-5.571221352E0,2.747518778E0,-6.730100513E-1
2.085200000E1,-4.699587822E0,1.509486675E0,5.422101021E-1
2.087200000E1,-5.348799706E0,3.572053313E-1,1.379586935E0
2.089200000E1,-6.142640591E0,-8.128506541E-1,2.029421031E-1
2.091200000E1,-6.493027210E0,-1.501423120E0,-1.483658075E0
2.093200156E1,-5.645067692E0,-1.762228251E0,-2.656548738E0
2.095400156E1,-5.677485466E0,-9.222465158E-1,-2.447017908E0
2.097600000E1,-7.430730343E0,3.434625864E-1,-9.184731841E-1
2.099600000E1,-1.011525249E1,1.149513721E0,4.695604146E-1
2.101600938E1,-1.299150372E1,1.755419016E0,1.448779345E0
2.103800000E1,-1.489743137E1,1.468526721E0,2.213228703E0
2.105800000E1,-1.558756542E1,2.003228426E0,4.073494971E-1
2.107800469E1,-1.325707817E1,2.300224543E0,9.495308399E-1
2.110000000E1,-1.218956089E1,2.488351345E0,3.845088005E0
2.112000000E1,-1.450978088E1,2.316102743E0,3.276618242E0
2.114000000E1,-1.198369789E1,1.209694386E0,-8.945695311E-2
2.116000000E1,-8.416135788E0,-2.471486479E-1,-3.186672926E0
2.118000000E1,-8.102773666E0,-1.328140259E0,-8.460659027E0
2.120000000E1,-1.094166470E1,-2.355329275E0,-9.157428741E0
2.122000000E1,-1.407180595E1,-3.270498753E0,-6.953001022E0
2.124000000E1,-1.483824730E1,-2.424033403E0,-3.213526249E0
2.126000000E1,-1.243155766E1,-2.350636721E0,-1.313200474E0
2.128000000E1,-9.617115021E0,-1.948784471E0,-1.812831998E0
2.130000000E1,-7.657729626E0,-2.455550671E0,-2.085234880E0
2.132000000E1,-7.444425106E0,-1.702047586E0,-1.940529227E0
2.134000000E1,-6.772583485E0,-5.442978144E-1,-2.762219191E0
2.136000000E1,-5.873484612E0,6.818974018E-1,-1.053420067E0
2.138000000E1,-5.221868515E0,1.755591512E0,5.142745096E-3
2.140000156E1,-4.716462612E0,2.120937109E0,-1.643561959E0
2.142200000E1,-3.687300444E0,1.057796597E0,-3.696494102E0
2.144200000E1,-3.332767010E0,-4.786775112E-1,-3.270805120E0
2.146200156E1,-4.448464870E0,-1.544786811E0,-2.628105640E0
2.148400000E1,-7.369276524E0,-1.745650768E0,-1.746752024E0
2.150400000E1,-1.087760544E1,-2.584828138E0,1.850622147E-1
2.152400000E1,-1.545276165E1,-5.930236340E0,2.723950148E0
2.154400000E1,-1.976845551E1,-7.447662830E0,3.481801271E0
2.156400000E1,-1.606869507E1,-4.043557644E0,8.781491280E0
2.158400000E1,-1.030517101E1,-2.557390332E-1,8.811562538E0
2.160400000E1,-1.156486511E1,-5.849513412E-1,3.825982094E0
2.162400000E1,-1.106692982E1,-3.069050550E0,-2.115267515E0
2.164400000E1,-9.501495361E0,-4.474178791E0,-5.421574116E0
2.166400000E1,-9.559492111E0,-8.205723763E0,-5.771816730E0
2.168400156E1,-1.103681087E1,-8.378029823E0,-9.562087059E0
2.170600000E1,-1.109590816E1,-3.627646446E0,-9.152668953E0
2.172600625E1,-9.593652725E0,-1.167317033E0,-7.923361301E0
2.174800000E1,-9.263626099E0,6.031664610E-1,-7.150513172E0
2.176800000E1,-8.933781624E0,1.531637788E0,-4.551779747E0
2.178800000E1,-8.224801064E0,3.000882864E0,-3.974049330E0
2.180800000E1,-6.171265602E0,2.732147932E0,-1.328073263E0
2.182800000E1,-5.566662788E0,2.017794847E0,8.575072885E-1
2.184800000E1,-5.601119995E0,1.055574775E0,2.568604946E0
2.186800000E1,-5.839888573E0,-1.233780012E-1,1.845833778E0
2.188800000E1,-5.886029720E0,-1.199246049E0,-9.515419602E-1
2.190800000E1,-5.850682259E0,-9.690483212E-1,-2.887110233E0
2.192800156E1,-5.930514336E0,-4.502248466E-1,-2.397658825E0
2.195000000E1,-7.272607803E0,5.312637687E-1,-9.846394062E-1
2.197000000E1,-9.669663429E0,1.163218141E0,1.750927567E-1
2.199000156E1,-1.324979019E1,1.786170244E0,1.687663198E0
2.201200000E1,-1.723522568E1,2.881795168E0,2.876729012E0
2.203200000E1,-1.691223907E1,4.691313744E0,-7.239300013E-1
2.205200156E1,-1.287245369E1,4.421898842E0,-1.703675628E0
2.207200156E1,-1.211238098E1,3.849541187E0,1.295550466E0
2.209400000E1,-1.443747616E1,2.225295544E0,1.424224377E0
2.211400000E1,-1.185228539E1,4.407821000E-1,-1.593647718E0
2.213400156E1,-8.592838287E0,-1.170190096E0,-4.542020798E0
2.215600156E1,-8.570256233E0,-2.262664318E0,-8.509443283E0
2.217600938E1,-1.007963657E1,-4.158077240E0,-6.189049721E0
2.219800000E1,-1.292277050E1,-4.177460670E0,-4.665073395E0
2.221800156E1,-1.301834774E1,-3.935454607E0,-3.247619629E0
2.224000000E1,-1.107883263E1,-3.198557615E0,-4.357475758E0
2.226000000E1,-7.724240780E0,-3.058487415E0,-3.788900852E0
2.228000000E1,-6.561156750E0,-2.239928961E0,-2.130676746E0
2.230000000E1,-6.320338249E0,-1.213544130E0,-1.908619285E0
2.232000625E1,-6.247420311E0,1.261552721E-1,-1.407800198E0
2.234200000E1,-5.992839813E0,1.391337633E0,-7.807778716E-1
2.236200000E1,-5.253874302E0,1.655848980E0,-1.684885979E0
2.238200000E1,-4.083445072E0,1.021596313E0,-2.064309359E0
2.240200000E1,-3.391415596E0,-2.911827862E-1,-2.623298168E0
2.242200000E1,-3.822802782E0,-1.406009316E0,-3.124040604E0
2.244200000E1,-5.193875790E0,-1.981288075E0,-2.367597342E0
2.246200000E1,-8.478489876E0,-2.362646341E0,-9.094997644E-1
2.248200000E1,-1.274599266E1,-4.073112011E0,1.745095372E0
2.250200000E1,-1.706253624E1,-5.281110764E0,2.170669317E0
2.252200000E1,-1.892341614E1,-6.610103607E0,4.724047184E0
2.254200000E1,-1.535281849E1,-4.715533733E0,8.114466667E0
2.256200000E1,-1.133687115E1,-1.604210973E0,7.343744755E0
2.258200000E1,-1.212888145E1,-2.247906446E0,3.160106897E0
2.260200000E1,-1.146831226E1,-3.943508863E0,-1.595065117E0
2.262200000E1,-9.894776344E0,-4.725991249E0,-4.758370399E0
2.264200000E1,-8.458934784E0,-6.862682343E0,-5.964990616E0
2.266200000E1,-9.007360458E0,-8.102256775E0,-7.753689289E0
2.268200000E1,-1.020906734E1,-6.481276512E0,-8.891375542E0
2.270200000E1,-1.043451595E1,-3.450762987E0,-6.794993877E0
2.272200000E1,-1.103394604E1,-7.474793792E-1,-6.465685368E0
2.274200000E1,-9.847361565E0,2.442851812E-1,-4.396510601E0
2.276200000E1,-8.374745369E0,1.612887502E0,-2.706194878E0
2.278200000E1,-6.605123520E0,2.498502731E0,-2.221704245E0
2.280200000E1,-5.092677593E0,2.345848322E0,-5.028015375E-1
2.282200000E1,-4.467551708E0,1.511057258E0,8.641535640E-1
2.284200000E1,-4.446741104E0,4.842991233E-1,1.308526993E0
2.286200000E1,-5.074864864E0,-3.450810909E-1,-2.112643607E-2
2.288200000E1,-5.495296478E0,-9.964379668E-1,-2.060966969E0
2.290200000E1,-6.204209805E0,-1.031824350E0,-3.514218807E0
2.292200000E1,-7.138992310E0,3.184288368E-2,-3.578115225E0
2.294200000E1,-8.527887344E0,1.113303781E0,-2.576314211E0
2.296200000E1,-1.058424950E1,1.790968299E0,-3.768185973E-1
2.298200000E1,-1.263611794E1,2.115832806E0,1.245569110E0
2.300200000E1,-1.428066635E1,2.361209631E0,2.331061840E0
2.302200000E1,-1.540583611E1,2.609660625E0,1.970600367E0
2.304200156E1,-1.406173992E1,2.565770149E0,7.120547295E-1
2.306200156E1,-1.257023907E1,2.101658821E0,1.958456993E0
2.308400000E1,-1.555176640E1,1.472797990E0,2.364542246E0
2.310400000E1,-1.429987717E1,5.997380018E-1,-7.978246212E-1
2.312400000E1,-1.042480469E1,1.307808757E-1,-3.038376093E0
2.314400000E1,-7.690511227E0,-1.408020377E0,-5.449049950E0
2.316400000E1,-7.087852001E0,-3.110585213E0,-4.882256508E0
2.318400000E1,-1.018682003E1,-3.658225298E0,-4.006322861E0
2.320400000E1,-1.354739857E1,-3.631218672E0,-3.374119520E0
2.322400000E1,-1.339630604E1,-4.380077362E0,-2.823501110E0
2.324400000E1,-1.030280590E1,-3.677062750E0,-2.768329382E0
2.326400000E1,-7.636737347E0,-2.698705912E0,-3.479158163E0
2.328400000E1,-7.109457493E0,-1.634971499E0,-3.632118940E0
2.330400000E1,-6.865469456E0,-5.282087922E-1,-3.149131775E0
2.332400000E1,-6.567773819E0,1.059769467E-1,-1.272412896E0
2.334400000E1,-6.502901077E0,1.176836252E0,-4.629907310E-1
2.336400000E1,-5.929690361E0,1.690296888E0,-1.399171472E0
2.338400000E1,-4.783442497E0,1.249706268E0,-2.937867403E0
2.340400000E1,-3.847558737E0,2.242026180E-1,-2.892731905E0
2.342400000E1,-4.013611317E0,-7.166324258E-1,-2.805334091E0
2.344400000E1,-5.516499519E0,-1.142005444E0,-2.398626328E0
2.346400000E1,-8.135612488E0,-1.200376153E0,-8.891586065E-1
2.348400000E1,-1.170052147E1,-2.064912796E0,3.040559530E0
2.350400000E1,-1.642772865E1,-3.410578728E0,3.752777100E0
2.352400000E1,-1.837921333E1,-4.188665390E0,4.261745930E0
2.354400000E1,-1.412537766E1,-3.056189060E0,6.725484848E0
2.356400000E1,-1.137546444E1,-2.461258650E0,5.618233681E0
2.358400000E1,-1.305475807E1,-3.415443659E0,1.355309725E0
2.360400000E1,-1.152391529E1,-4.180055618E0,-2.095788240E0
2.362400000E1,-9.442683220E0,-5.290477276E0,-4.754740715E0
2.364400000E1,-8.997295380E0,-8.109687805E0,-5.047101498E0
2.366400000E1,-9.856966972E0,-8.424065590E0,-7.439388275E0
2.368400000E1,-1.089691257E1,-3.729735374E0,-8.167493820E0
2.370400000E1,-1.137829018E1,-7.004668117E-1,-7.527762890E0
2.372400000E1,-1.103567123E1,1.129938722E0,-6.402382851E0
2.374400000E1,-8.830649376E0,1.981795669E0,-5.235841274E0
2.376400000E1,-6.953479767E0,2.848534822E0,-3.108363390E0
2.378400000E1,-5.507104397E0,3.321016312E0,-2.230572224E0
2.380400000E1,-4.976022243E0,2.379453421E0,-7.153204083E-1
2.382400000E1,-4.948010445E0,1.239133477E0,1.181586385E0
2.384400000E1,-5.807011604E0,2.327738702E-1,1.593140125E0
2.386400000E1,-6.577781677E0,-8.945216537E-1,-6.356126815E-2
2.388400000E1,-6.815124035E0,-1.747623563E0,-2.286558390E0
2.390400000E1,-6.250408173E0,-1.767773151E0,-3.210069180E0
2.392400000E1,-6.066955090E0,-7.078888416E-1,-2.603148460E0
2.394400000E1,-7.477599621E0,5.656923652E-1,-1.169165254E0
2.396400000E1,-1.007724285E1,1.288683891E0,2.719238698E-1
2.398400000E1,-1.302031040E1,1.749232531E0,1.183712482E0
2.400400000E1,-1.488857365E1,1.673968434E0,1.862401605E0
2.402400156E1,-1.613058853E1,2.703704834E0,-3.927831352E-1
2.404600000E1,-1.373041153E1,2.775415897E0,-6.653199196E-1
2.406600000E1,-1.436384106E1,3.665905714E0,1.400991082E-1
2.408600000E1,-1.540035725E1,2.704729795E0,-6.886681914E-2
2.410600000E1,-1.439220715E1,1.513643026E0,-2.871614933E0
2.412601094E1,-1.039226246E1,7.769662887E-2,-5.025735855E0
2.414800000E1,-7.426124096E0,-1.627769947E0,-5.975764751E0
2.416800000E1,-7.089653015E0,-2.760753870E0,-5.305301666E0
2.418800000E1,-9.194318771E0,-2.631859541E0,-4.165422440E0
2.420800000E1,-1.098095798E1,-2.999810219E0,-3.646196842E0
2.422800000E1,-1.088333225E1,-4.063774586E0,-4.282048702E0
2.424800000E1,-8.990897179E0,-3.865390778E0,-3.273860216E0
2.426800000E1,-7.460524082E0,-2.665866852E0,-3.732665777E0
2.428800000E1,-7.564355850E0,-2.136729240E0,-3.700181246E0
2.430800000E1,-8.045743942E0,-8.985726237E-1,-2.511412382E0
2.432800000E1,-8.294223785E0,1.824477613E-1,-1.612897038E0
2.434800000E1,-7.429706097E0,8.937075734E-1,-8.986109495E-1
2.436800000E1,-6.012414932E0,6.844543815E-1,-1.672886252E0
2.438800000E1,-4.932151318E0,5.320969820E-1,-2.407676220E0
2.440800000E1,-4.135648251E0,-1.840183437E-1,-2.866558552E0
2.442800000E1,-4.045080185E0,-1.031000733E0,-2.969537735E0
2.444800000E1,-4.976836205E0,-1.362789154E0,-2.492153406E0
2.446800000E1,-6.906582355E0,-1.544154763E0,-9.569624066E-1
2.448800000E1,-9.616244316E0,-2.556088209E0,3.540832698E-1
2.450800000E1,-1.349170971E1,-2.950575829E0,3.685442507E-1
2.452800000E1,-1.733411598E1,-4.762478828E0,1.245109320E0
2.454800000E1,-1.723104095E1,-5.371563911E0,5.239307880E0
2.456800156E1,-1.387272263E1,-3.310146809E0,5.749742031E0
2.459000000E1,-1.239713764E1,-3.030398369E0,3.537691593E0
2.461000625E1,-1.268104267E1,-2.874133825E0,-4.182191566E-2
2.463200000E1,-1.052918148E1,-4.128676414E0,-3.303825855E0
2.465200000E1,-8.627726555E0,-7.169092178E0,-3.912968159E0
2.467200000E1,-8.438603401E0,-7.211373806E0,-6.256125450E0
2.469200000E1,-7.879538059E0,-5.788710594E0,-7.166812897E0
2.471200000E1,-9.872040749E0,-1.639252424E0,-7.269035816E0
2.473200000E1,-1.147370434E1,6.895779967E-1,-7.152304173E0
2.475200000E1,-1.122154713E1,2.292122602E0,-6.049659252E0
2.477200000E1,-8.538977623E0,2.453999281E0,-4.373383045E0
2.479200000E1,-7.065356255E0,3.289671421E0,-2.936833143E0
2.481200000E1,-5.725781441E0,3.022373199E0,-1.762141943E0
2.483200000E1,-4.950108051E0,2.301172495E0,-9.733291864E-1
2.485200000E1,-4.415453434E0,1.077476978E0,9.487359524E-1
2.487200000E1,-5.038731575E0,2.009501308E-1,1.186288595E0
2.489200000E1,-5.786412239E0,-1.002337337E0,-8.735963702E-2
2.491200000E1,-6.376420021E0,-2.233608246E0,-1.918550372E0
2.493200000E1,-6.609299183E0,-2.503214598E0,-2.560292244E0
2.495200000E1,-7.440001011E0,-8.339962363E-1,-2.560684919E0
2.497200000E1,-8.734823227E0,9.748423696E-1,-1.081499219E0
2.499200156E1,-1.079086781E1,1.981154084E0,9.545298815E-1
2.501400000E1,-1.340954971E1,2.582299709E0,2.664717674E0
2.503400000E1,-1.557351589E1,3.360358000E0,1.545667887E0
2.505400000E1,-1.553942299E1,3.887838840E0,-1.580920219E0
2.507400000E1,-1.273436642E1,3.243664503E0,6.094679981E-2
2.509400000E1,-1.341969204E1,3.293741703E0,2.350196362E0
2.511400000E1,-1.576824093E1,2.096841812E0,1.269597292E0
2.513400000E1,-1.325837135E1,5.167549253E-1,-2.157396078E0
2.515400000E1,-9.052916527E0,-8.094029427E-1,-5.101201057E0
2.517400000E1,-7.229090691E0,-1.947376609E0,-7.108222008E0
2.519400000E1,-8.769271851E0,-2.951073885E0,-5.477406502E0
2.521400000E1,-1.191530991E1,-3.224434376E0,-4.697548389E0
2.523400000E1,-1.386671734E1,-3.062135935E0,-4.278505325E0
2.525400000E1,-1.188726902E1,-3.164081335E0,-4.460244656E0
2.527400000E1,-9.166517258E0,-2.166819572E0,-3.865572691E0
2.529400000E1,-7.842993259E0,-1.785011530E0,-3.006188393E0
2.531400000E1,-7.553638935E0,-1.098153353E0,-3.064405680E0
2.533400000E1,-6.943079472E0,-3.655084372E-1,-1.609210014E0
2.535400000E1,-6.125622749E0,3.908869326E-1,1.386817396E-1
2.537400000E1,-5.424149990E0,1.072688580E0,3.386071324E-1
2.539400000E1,-4.701359749E0,9.226678610E-1,-1.145041347E0
2.541400000E1,-4.147303104E0,1.241920292E-1,-2.601405621E0
2.543400156E1,-3.960651398E0,-1.148306966E0,-2.895154715E0
2.545400156E1,-4.339854717E0,-1.809863329E0,-2.736141682E0
2.547600938E1,-6.120211601E0,-2.056514025E0,-2.302858114E0
2.549800156E1,-8.987669945E0,-1.994494557E0,-7.944822907E-1
2.552000000E1,-1.289889526E1,-3.724688292E0,1.557638884E0
2.554000000E1,-1.740873909E1,-5.423546791E0,1.063609719E0
2.556000000E1,-1.843355179E1,-4.730109215E0,5.988434792E0
2.558000000E1,-1.341963482E1,-1.369761109E0,8.598918915E0
2.560000156E1,-1.161153316E1,6.780954003E-1,7.471001148E0
2.562200000E1,-1.312295532E1,-1.305280566E0,2.724409819E0
2.564200000E1,-1.024978828E1,-3.126396418E0,-2.143002033E0
2.566200000E1,-8.487981796E0,-4.883816719E0,-5.152293682E0
2.568200000E1,-8.877509117E0,-7.288304329E0,-5.231522560E0
2.570200000E1,-1.149347115E1,-6.576824188E0,-8.660852432E0
2.572200000E1,-1.239225388E1,-2.965362549E0,-8.259383202E0
2.574200000E1,-1.196101093E1,-5.145426393E-1,-7.202956200E0
2.576200000E1,-1.089827251E1,1.415021062E0,-6.125871658E0
2.578200000E1,-8.648373604E0,2.145252705E0,-3.832925320E0
2.580200000E1,-7.190773964E0,2.953515768E0,-2.353567362E0
2.582200000E1,-5.735042095E0,3.263986349E0,-1.885529637E0
2.584200000E1,-5.088291645E0,2.154484510E0,1.864317060E-1
2.586200000E1,-4.856590271E0,1.060324907E0,1.689923286E0
2.588200000E1,-5.256278515E0,3.256114200E-3,1.385093570E0
2.590200000E1,-5.900510311E0,-8.583787680E-1,3.113419712E-1
2.592200000E1,-5.823914528E0,-1.893401742E0,-1.681304216E0
2.594200000E1,-5.456788063E0,-1.919498563E0,-2.932724714E0
2.596200156E1,-5.754789352E0,-1.136096597E0,-2.833106756E0
2.598400000E1,-7.398332119E0,2.879841626E-1,-2.112576723E0
2.600400000E1,-9.671348572E0,1.089878917E0,-6.242641807E-1
2.602400000E1,-1.269736099E1,1.737654209E0,1.638131976E0
2.604400000E1,-1.603850746E1,2.567005634E0,3.886775970E0
2.606400000E1,-1.775419426E1,4.314370632E0,2.632424831E0
2.608400000E1,-1.391820335E1,4.370835304E0,1.264502406E0
2.610400000E1,-1.293002987E1,3.734131098E0,2.084593058E0
2.612400000E1,-1.624586487E1,2.658368349E0,5.802491307E-1
2.614400000E1,-1.474814796E1,1.153459311E0,-2.682319880E0
2.616400000E1,-1.080636311E1,-4.252102226E-3,-4.975792885E0
2.618400000E1,-8.149316788E0,-9.200342298E-1,-7.936673164E0
2.620400000E1,-7.155206203E0,-2.741514206E0,-5.311067581E0
2.622400000E1,-9.770747185E0,-3.825972557E0,-3.345858574E0
2.624400000E1,-1.330084419E1,-4.273343563E0,-3.692558050E0
2.626400000E1,-1.322808933E1,-4.762306690E0,-5.403971672E0
2.628400000E1,-8.927192688E0,-3.791141748E0,-4.839917183E0
2.630400000E1,-6.035121441E0,-2.810965061E0,-3.723098516E0
2.632400000E1,-5.346884251E0,-1.896217227E0,-3.977257252E0
2.634400000E1,-5.446138859E0,-5.928330421E-1,-2.594069481E0
2.636400000E1,-5.963908672E0,9.204173088E-1,-3.944973946E-1
2.638400000E1,-6.472350597E0,2.305970430E0,-3.672035038E-1
2.640400000E1,-6.692033291E0,2.648676395E0,-1.706998825E0
2.642400000E1,-5.903564930E0,1.277747154E0,-1.792720795E0
2.644400000E1,-5.390372753E0,-1.323313594E0,-1.999665976E0
2.646400000E1,-6.081712723E0,-2.320479393E0,-2.025092363E0
2.648400000E1,-7.007291794E0,-3.084440470E0,-1.582414031E0
2.650400000E1,-9.155015945E0,-3.217462301E0,3.947751224E-1
2.652400000E1,-1.236537170E1,-4.104514122E0,2.834083557E0
2.654400000E1,-1.563574600E1,-4.626363754E0,2.709699869E0
2.656400000E1,-1.578139973E1,-5.199641228E0,4.399039268E0
2.658400000E1,-1.268898106E1,-4.830378532E0,6.271735668E0
2.660400000E1,-1.146161842E1,-2.006886959E0,4.807835102E0
2.662400000E1,-1.265558720E1,-2.251708508E0,1.164051294E0
2.664400000E1,-1.106951427E1,-2.915534496E0,-2.569466829E0
2.666400000E1,-9.556886673E0,-3.462245703E0,-5.372521400E0
2.668400000E1,-9.489744186E0,-5.457592487E0,-7.237863064E0
2.670400000E1,-1.175160313E1,-4.782475471E0,-1.029369831E1
2.672400000E1,-1.215437603E1,-2.184546232E0,-9.532925606E0
2.674400000E1,-1.155346012E1,-8.455362916E-2,-7.733932018E0
2.676400000E1,-1.024481773E1,1.152587891E0,-5.684294224E0
2.678400000E1,-8.402670860E0,1.599594831E0,-3.619908333E0
2.680400000E1,-6.791622639E0,2.554507732E0,-2.661069155E0
2.682400000E1,-5.264533520E0,2.039582253E0,-1.505301595E0
2.684400000E1,-4.582348824E0,1.231768966E0,2.340571582E-1
2.686400000E1,-4.149821758E0,1.220372468E-1,1.437344551E0
2.688400000E1,-5.000903130E0,-6.693900824E-1,8.938608170E-1
2.690400000E1,-5.888750076E0,-1.584884882E0,-3.639665544E-1
2.692400000E1,-6.387050152E0,-1.945700645E0,-2.586159229E0
2.694400000E1,-6.403771400E0,-1.247743011E0,-3.068619728E0
2.696400000E1,-6.986050606E0,3.223552927E-2,-2.185475111E0
2.698400000E1,-8.634764671E0,1.333464980E0,-1.139716625E0
2.700400000E1,-1.068670082E1,2.138118029E0,4.583459795E-1
2.702400000E1,-1.297013760E1,2.701751232E0,2.298395157E0
2.704400000E1,-1.449217033E1,3.289115906E0,2.572569847E0
2.706400156E1,-1.514395809E1,4.009952545E0,-3.554815054E-1
2.708600000E1,-1.265783787E1,3.645344496E0,-1.246584177E0
2.710600000E1,-1.295635605E1,3.729208469E0,1.594145656E0
2.712600000E1,-1.604015541E1,2.920954943E0,1.919306993E0
2.714601875E1,-1.309524918E1,5.448245257E-2,-1.642412901E0
2.716800000E1,-8.507709503E0,-1.915648699E0,-4.876357079E0
2.718800000E1,-7.829154491E0,-2.157980204E0,-8.331792831E0
2.720800000E1,-9.848089218E0,-3.204974174E0,-5.642338276E0
2.722800000E1,-1.324069214E1,-3.576966047E0,-4.829957008E0
2.724800000E1,-1.458337975E1,-3.689062595E0,-3.779611349E0
2.726800000E1,-1.154733944E1,-3.411316156E0,-3.196029425E0
2.728800000E1,-7.988770962E0,-2.523641825E0,-3.724630833E0
2.730800000E1,-6.513684273E0,-1.788593173E0,-3.811061621E0
2.732800000E1,-5.895626068E0,-9.668743610E-1,-3.837914705E0
2.734800000E1,-5.877822876E0,-1.360864285E-2,-1.736840129E0
2.736800000E1,-5.935408115E0,9.188084006E-1,-6.493554115E-1
2.738800000E1,-5.984766483E0,1.739387631E0,-8.580052257E-1
2.740800000E1,-5.159275055E0,9.738176465E-1,-1.856799245E0
2.742800000E1,-4.438744545E0,-7.726663351E-1,-2.100404501E0
2.744800000E1,-4.540115356E0,-1.890452027E0,-2.198624372E0
2.746800000E1,-5.034766674E0,-2.677167654E0,-1.823433638E0
2.748800000E1,-7.564298153E0,-2.286912918E0,-6.759214401E-1
2.750800000E1,-1.128215790E1,-2.575854540E0,1.699040413E0
2.752800000E1,-1.542284393E1,-3.325948477E0,3.179614782E0
2.754800000E1,-1.732788086E1,-4.565560341E0,3.853793144E0
2.756800000E1,-1.396905613E1,-3.643266439E0,7.270797729E0
2.758800000E1,-1.013389969E1,-1.669495940E0,7.224321842E0
2.760800000E1,-1.268176079E1,-1.706558228E0,2.980187178E0
2.762800000E1,-1.251266289E1,-2.977582455E0,-2.745450258E0
2.764800000E1,-1.061211681E1,-3.744579315E0,-5.816636086E0
2.766800000E1,-1.032021618E1,-4.981021404E0,-6.536266804E0
2.768800000E1,-1.283358192E1,-3.982706547E0,-9.628061295E0
2.770800000E1,-1.288397503E1,-1.051006675E0,-1.018551826E1
2.772800000E1,-1.147846413E1,-2.194620967E-1,-8.070959091E0
2.774800000E1,-1.043382549E1,8.806448579E-1,-6.556463718E0
2.776800000E1,-8.918525696E0,1.529684186E0,-3.743592978E0
2.778800000E1,-6.994344234E0,2.061244965E0,-2.514007568E0
2.780800000E1,-4.564038277E0,2.079929113E0,-1.222105861E0
2.782800000E1,-3.766845465E0,1.428045511E0,-3.239737749E-1
2.784800000E1,-3.075926781E0,1.124125570E-1,1.707228661E0
2.786800000E1,-4.357006550E0,-7.351635695E-1,1.386290669E0
2.788800000E1,-5.897685051E0,-1.587279081E0,-5.761981606E-1
2.790800000E1,-6.823359966E0,-2.137150526E0,-2.497324705E0
2.792800000E1,-7.121773243E0,-1.635096073E0,-2.842089891E0
2.794800000E1,-7.656753063E0,-3.025313094E-2,-2.054857254E0
2.796800000E1,-9.499368668E0,1.252809048E0,-5.817910433E-1
2.798800000E1,-1.199299717E1,1.998670101E0,1.109185815E0
2.800800000E1,-1.374806118E1,2.689655781E0,3.679543257E0
2.802800000E1,-1.421770763E1,4.000213146E0,4.124232769E0
2.804800000E1,-1.350306702E1,5.215480804E0,8.869559169E-1
2.806800000E1,-1.102413940E1,4.198366642E0,1.032753348E0
2.808800000E1,-1.280026436E1,3.297313690E0,2.772753716E0
2.810800000E1,-1.405845547E1,2.023866653E0,-5.020545125E-1
2.812800000E1,-1.028321075E1,-8.919071555E-1,-3.101630926E0
2.814800000E1,-8.304422379E0,-1.663002968E0,-8.165788651E0
2.816800000E1,-1.047972775E1,-2.448425531E0,-7.803450108E0
2.818800000E1,-1.390148258E1,-3.620875835E0,-5.638268471E0
2.820800000E1,-1.531905079E1,-4.187410831E0,-3.841017723E0
2.822800000E1,-1.474957561E1,-2.711174726E0,-2.681754827E0
2.824800000E1,-1.106744671E1,-2.063830614E0,-2.757411718E0
2.826800000E1,-8.380012512E0,-2.004952431E0,-2.765331745E0
2.828800000E1,-7.635252953E0,-1.256362200E0,-1.267662764E0
2.830800000E1,-6.553035259E0,-1.976557225E-1,-1.584329486E0
2.832800000E1,-5.372981548E0,3.538917601E-1,-9.694697261E-1
2.834800000E1,-4.711654663E0,1.174623966E0,-6.816292405E-1
2.836800000E1,-4.488917351E0,1.874975920E0,-1.315834165E0
2.838800000E1,-4.247802258E0,1.952021360E0,-4.065814018E0
2.840800000E1,-3.841362476E0,1.065639973E0,-4.685002327E0
2.842800000E1,-3.836353779E0,-4.390391111E-1,-3.082841158E0
2.844800000E1,-5.930744171E0,-6.853162646E-1,-1.708349109E0
2.846800000E1,-9.484764099E0,-2.197972834E-1,1.925895810E-1
2.848800000E1,-1.288448238E1,-3.001850128E0,1.363832951E0
2.850800000E1,-1.734652710E1,-8.462957382E0,5.722697735E0
2.852800000E1,-2.034808922E1,-6.926646233E0,6.302448750E0
2.854800000E1,-1.283170509E1,-4.890051842E0,8.617344856E0
2.856800000E1,-1.161089134E1,-5.862154961E0,4.240217209E0
2.858800000E1,-1.239536667E1,-3.762545347E0,-1.553980589E0
2.860800000E1,-9.577956200E0,-2.618404388E0,-3.110556364E0
2.862800000E1,-7.380845070E0,-3.807068110E0,-4.312723637E0
2.864800000E1,-9.917588234E0,-2.764536858E0,-6.951420784E0
2.866800000E1,-1.412309837E1,-9.804255962E-1,-1.122194958E1
2.868800000E1,-1.386480236E1,2.694530189E-1,-1.165158367E1
2.870800000E1,-1.068863583E1,1.223523259E0,-9.186532974E0
2.872800000E1,-8.265244484E0,1.917592764E0,-5.495028496E0
2.874800000E1,-6.168200970E0,1.833106160E0,-2.681410074E0
2.876800000E1,-4.687856674E0,1.341959596E0,-7.425568700E-1
2.878800000E1,-4.253892899E0,-5.500917882E-2,1.342227817E0
2.880800000E1,-5.147945404E0,-1.001743555E0,2.432662010E0
2.882800000E1,-6.220020771E0,-2.349573612E0,1.489796758E0
2.884800000E1,-6.266564369E0,-2.787023306E0,-5.914444327E-1
2.886800000E1,-5.186166286E0,-1.741140127E0,-2.344344616E0
2.888800000E1,-4.569487095E0,-6.326342821E-1,-3.180725574E0
2.890800000E1,-6.060385227E0,1.035827398E0,-2.317185163E0
2.892800000E1,-8.344779015E0,2.757344723E0,-1.312587500E0
2.894800000E1,-1.111554146E1,3.506289244E0,8.141722679E-1
2.896800000E1,-1.450161266E1,4.205511093E0,3.348051786E0
2.898800000E1,-1.654150200E1,5.620062828E0,2.604297638E0
2.900800000E1,-1.516252708E1,5.769039631E0,-1.183176160E0
2.902800000E1,-1.201141262E1,4.887360573E0,-3.289824426E-1
2.904800000E1,-1.417097378E1,3.567504168E0,2.008246899E0
2.906800000E1,-1.496109867E1,1.145874500E0,2.690412402E-1
2.908800000E1,-1.122284985E1,-1.420767188E0,-3.321408987E0
2.910800000E1,-9.351714134E0,-2.258383512E0,-8.533164978E0
2.912800000E1,-9.698729515E0,-4.332308292E0,-7.644484997E0
2.914800000E1,-1.350134373E1,-5.340525627E0,-6.606157780E0
2.916800000E1,-1.609375763E1,-5.090417385E0,-4.937255859E0
2.918800000E1,-1.385431671E1,-4.289365768E0,-4.472579479E0
2.920800000E1,-9.064342499E0,-3.657660246E0,-3.605610371E0
2.922800000E1,-5.559882164E0,-2.527721405E0,-2.143021345E0
2.924800000E1,-4.649683475E0,-1.309886932E0,-2.534425259E0
2.926800000E1,-4.525146484E0,1.403289437E-1,-1.343721747E0
2.928800000E1,-4.822592735E0,1.497822165E0,-1.684933782E0
2.930800000E1,-5.133503437E0,2.916166544E0,-1.879027009E0
2.932800000E1,-5.140619278E0,3.929929018E0,-2.588141680E0
2.934800000E1,-3.551223516E0,2.543417931E0,-1.652592897E0
2.936800000E1,-3.073063135E0,-1.294975877E-1,-1.393348813E0
2.938800000E1,-5.567055225E0,-1.365327001E0,-1.562637925E0
2.940800000E1,-9.932700157E0,-2.409380913E0,-3.297103047E-1
2.942800000E1,-1.421572590E1,-5.699607849E0,2.688765049E0
2.944800000E1,-1.751382446E1,-8.680465698E0,3.327710390E0
2.946800000E1,-1.627821541E1,-7.843117714E0,4.705995083E0
2.948800000E1,-1.169218922E1,-4.530624390E0,7.888645649E0
2.950800000E1,-1.023141956E1,-1.170209169E0,6.410264015E0
2.952800000E1,-1.136429882E1,-2.692739487E0,6.879978180E-1
2.954800000E1,-1.056521034E1,-3.475039959E0,-4.360435009E0
2.956800938E1,-1.079802227E1,-3.697518826E0,-6.688891888E0
2.959000000E1,-1.299207783E1,-6.341301918E0,-1.035019112E1
2.961000000E1,-1.453804302E1,-4.903267384E0,-1.297722435E1
2.963000000E1,-1.122402763E1,-2.994859219E0,-1.014800549E1
2.965000000E1,-9.465054512E0,-1.382067204E0,-8.049670219E0
2.967000000E1,-7.887812614E0,-5.312829614E-1,-4.863600731E0
2.969000000E1,-7.383229256E0,9.488413334E-1,-3.224520445E0
2.971000000E1,-5.843183041E0,1.279710293E0,-2.734551668E0
2.973000000E1,-4.975917339E0,9.378375411E-1,-1.426944276E-3
2.975000000E1,-4.695335865E0,2.248442620E-1,1.988556862E0
2.977000000E1,-5.499998569E0,-2.754768431E-1,2.250089884E0
2.979000000E1,-4.990081310E0,-1.353758335E0,4.453598261E-1
2.981000000E1,-4.173294544E0,-1.655523419E0,-2.551424026E0
2.983000000E1,-4.749128819E0,-2.130935192E-1,-3.621890783E0
2.985000000E1,-6.169991493E0,1.071156263E0,-2.335515022E0
2.987000000E1,-8.633309364E0,2.421572208E0,-8.639620543E-1
2.989000000E1,-1.226728630E1,3.989678383E0,8.456033468E-1
2.991000000E1,-1.508967686E1,4.836028576E0,1.530536532E0
2.993000000E1,-1.612725639E1,5.778204441E0,-2.390849739E-1
2.995000000E1,-1.425713539E1,4.741706848E0,4.482041299E-1
2.997000000E1,-1.252034378E1,3.435229301E0,4.368795395E0
2.999000000E1,-1.434378719E1,8.089241385E-1,7.227232933E0
3.001000156E1,-1.379775620E1,-5.427272320E-1,4.984536469E-1
3.003200000E1,-9.667183876E0,-1.993421912E0,-5.079231739E0
3.005200000E1,-9.118231773E0,-1.406133771E0,-1.268602276E1
3.007200000E1,-1.064892101E1,-3.362368822E0,-1.041826344E1
3.009204219E1,-1.399782562E1,-3.957136393E0,-7.137277603E0
3.011400000E1,-1.493700314E1,-3.468642712E0,-3.615483999E0
3.013400000E1,-1.303896618E1,-2.243012667E0,-4.609297752E0
3.015400000E1,-8.729278564E0,-1.808484197E0,-5.055414677E0
3.017400000E1,-5.198146820E0,-1.391366363E0,-3.067834139E0
3.019400000E1,-4.770944595E0,-8.233276606E-1,-1.395848274E0
3.021400000E1,-5.341176987E0,9.523176402E-2,-1.249533772E0
3.023400000E1,-5.214408875E0,1.365489841E0,-2.130609512E0
3.025400000E1,-5.222519875E0,2.776402473E0,-1.178904891E0
3.027400000E1,-4.791487217E0,2.845633268E0,-1.619667888E0
3.029400000E1,-3.136816025E0,1.080263853E-1,-1.903457403E0
3.031400000E1,-3.483697414E0,-1.458442330E0,-2.225477457E0
3.033400000E1,-5.254372597E0,-2.416879654E0,-1.777445793E0
3.035400000E1,-8.798902512E0,-3.080322504E0,-4.348061681E-1
3.037400000E1,-1.342600250E1,-5.801505089E0,1.814910293E0
3.039400000E1,-1.742713547E1,-9.053836823E0,1.730461955E0
3.041400000E1,-1.848221207E1,-9.199538231E0,5.599606991E0
3.043400000E1,-1.415882969E1,-3.235217810E0,8.449874878E0
3.045400156E1,-1.133010960E1,5.937237144E-1,6.308213711E0
3.047600000E1,-1.171107483E1,-1.711145520E0,1.764009476E0
3.049600000E1,-1.045249081E1,-3.187707186E0,-4.575510979E0
3.051600156E1,-1.063780212E1,-5.633671284E0,-8.324275017E0
3.053600156E1,-1.289771748E1,-7.710612774E0,-1.025173283E1
3.055600625E1,-1.268559170E1,-5.039162636E0,-1.294770908E1
3.057601094E1,-9.834988594E0,-1.694625497E0,-1.065052891E1
3.059601094E1,-8.650844574E0,-4.394126236E-1,-8.722832680E0
3.061800000E1,-8.643230438E0,8.956804276E-1,-6.892130852E0
3.063800000E1,-8.364689827E0,1.976528406E0,-4.774325848E0
3.065800000E1,-6.672132492E0,2.687500954E0,-3.213756084E0
3.067800000E1,-5.689284325E0,2.345867634E0,4.411556125E-1
3.069800000E1,-4.986432552E0,1.213659167E0,2.866271257E0
3.071800000E1,-4.924250603E0,-1.979238540E-1,4.080514431E0
3.073800781E1,-5.127642632E0,-1.826555610E0,1.934792757E0
3.076000000E1,-4.868523121E0,-2.568413258E0,-3.197006464E0
3.078000000E1,-4.390793324E0,-1.793611407E0,-3.804731131E0
3.080000313E1,-5.235352993E0,8.811619878E-2,-2.521420002E0
3.082200000E1,-8.212724686E0,2.115066290E0,-5.167549253E-1
3.084200000E1,-1.183469200E1,3.390611172E0,1.166445494E0
3.086200000E1,-1.536198330E1,4.975802422E0,2.031911135E0
3.088200000E1,-1.707239151E1,6.536937237E0,7.590577006E-2
3.090200000E1,-1.448076344E1,5.848660946E0,-1.439346194E0
3.092200000E1,-1.197459030E1,3.126128435E0,3.938548088E0
3.094200000E1,-1.407804966E1,-6.367618591E-2,8.395919800E0
3.096200000E1,-1.404996109E1,-1.189947009E0,4.900930822E-1
3.098200000E1,-1.004987240E1,-2.683133781E-1,-9.168709755E0
3.100200000E1,-9.123545647E0,1.041573510E-1,-1.365919781E1
3.102200000E1,-9.848203659E0,-2.595477581E0,-7.916495323E0
3.104200000E1,-1.306668186E1,-3.754769087E0,-3.787761211E0
3.106200000E1,-1.588010788E1,-2.980043650E0,-1.265728235E0
3.108200000E1,-1.399625397E1,-2.962623596E0,-3.043623924E0
3.110200000E1,-1.002673435E1,-3.309543133E0,-4.946976185E0
3.112200000E1,-7.484149933E0,-3.782043695E0,-3.996928215E0
3.114200000E1,-6.644542217E0,-2.995404720E0,-1.784034610E0
3.116200000E1,-5.480538368E0,-1.945193172E0,-1.355395913E0
3.118200000E1,-4.269273281E0,-9.177836776E-1,-8.143829107E-1
3.120200000E1,-3.709863424E0,3.314532638E-1,1.492736787E-1
3.122200000E1,-3.641504049E0,1.689023018E0,-1.039160132E0
3.124200000E1,-3.400264502E0,2.174212933E0,-1.874123693E0
3.126200000E1,-2.847491264E0,1.240617871E0,-2.307589054E0
3.128200000E1,-4.126454353E0,1.425220370E-1,-1.484098673E0
3.130200000E1,-7.894228935E0,-3.938078582E-1,-7.117770314E-1
3.132200000E1,-1.298794079E1,-2.382987261E0,1.377690673E0
3.134200000E1,-1.851491737E1,-5.524505138E0,1.796225786E0
3.136200000E1,-1.968879509E1,-6.585615635E0,3.992676020E0
3.138200000E1,-1.410967159E1,-2.947702885E0,8.995111465E0
3.140200000E1,-1.103274059E1,-9.818908572E-1,9.107715607E0
3.142200000E1,-1.346660805E1,-1.969834208E0,3.159522772E0
3.144200000E1,-1.247786999E1,-3.141240597E0,-3.582558870E0
3.146200000E1,-1.080931377E1,-4.493706226E0,-6.281494617E0
3.148200000E1,-1.113300896E1,-7.452134609E0,-6.319735050E0
3.150200156E1,-1.266344070E1,-4.873378277E0,-9.431756973E0
3.152400000E1,-1.094510269E1,-1.438982248E0,-8.758028030E0
3.154400000E1,-9.611771584E0,-5.936566591E-1,-7.554280758E0
3.156400000E1,-8.816858292E0,1.015352249E0,-6.634754181E0
3.158400000E1,-7.728588581E0,1.981987238E0,-3.747098207E0
3.160400000E1,-5.683681488E0,1.975379109E0,-2.550236464E0
3.162400000E1,-4.017221451E0,1.435381293E0,-3.143012226E-1
3.164400000E1,-3.832858324E0,1.144581676E0,1.071539283E0
3.166400000E1,-3.926529169E0,8.563580364E-2,1.820752025E0
3.168400000E1,-4.872679234E0,-1.632922173E0,5.204515457E-1
3.170400000E1,-6.012845993E0,-2.354505777E0,-2.965640068E0
3.172400000E1,-6.495296955E0,-1.342151165E0,-3.794819355E0
3.174400000E1,-7.018238068E0,5.773473382E-1,-2.239306450E0
3.176400000E1,-8.690655708E0,1.811472178E0,8.100446463E-1
3.178400000E1,-1.177897453E1,2.949273348E0,2.954042673E0
3.180400000E1,-1.428736019E1,3.294613123E0,4.312522411E0
3.182400000E1,-1.537805367E1,3.567216873E0,4.686439037E0
3.184400000E1,-1.401588631E1,3.281885386E0,1.698437095E0
3.186400000E1,-1.218442726E1,2.994772911E0,2.050806046E0
3.188400000E1,-1.506452751E1,2.338704109E0,2.557831049E0
3.190400000E1,-1.354750347E1,-6.060203165E-2,-1.458882809E0
3.192400000E1,-9.852216721E0,-1.627511263E0,-7.463320255E0
3.194400000E1,-9.514126778E0,-3.055662155E0,-1.083512306E1
3.196400000E1,-1.192819023E1,-4.664326191E0,-6.763409138E0
3.198400000E1,-1.503624725E1,-4.288819790E0,-5.088741779E0
3.200400000E1,-1.476446724E1,-2.828912020E0,-5.241376877E0
3.202400000E1,-1.143346214E1,-2.604307413E0,-4.172307968E0
3.204400000E1,-8.329484940E0,-2.350761175E0,-2.716901779E0
3.206400000E1,-7.047610283E0,-1.084908605E0,-6.952953339E-1
3.208400000E1,-6.251213074E0,-4.881298542E-2,4.456088245E-1
3.210400000E1,-4.958889484E0,1.723537892E-1,3.315490484E-2
3.212400000E1,-4.737071991E0,1.520825624E0,9.549800158E-1
3.214400000E1,-4.570425987E0,2.447439194E0,3.593217731E-1
3.216400000E1,-4.049169540E0,2.380564213E0,-1.321034312E0
3.218400000E1,-3.822668791E0,1.783651471E0,-2.640354156E0
3.220400000E1,-4.366420269E0,4.573595524E-1,-2.622110605E0
3.222400000E1,-6.559710503E0,-3.463931084E-1,-2.109253407E0
3.224400000E1,-9.346963882E0,-6.665936112E-1,-9.623350501E-1
3.226400000E1,-1.261056614E1,-2.559296370E0,1.223801017E0
3.228400000E1,-1.766770554E1,-5.252121925E0,1.776899934E0
3.230400000E1,-1.909486961E1,-4.258815289E0,6.660812855E0
3.232400000E1,-1.267883968E1,-3.080944777E0,8.660201073E0
3.234400000E1,-1.197215843E1,-3.330114365E0,7.211680412E0
3.236400000E1,-1.312579918E1,-2.643265724E0,1.866481304E0
3.238400156E1,-1.128184319E1,-2.932667255E0,-5.168449402E0
3.240600000E1,-1.117463017E1,-4.874814987E0,-5.404833317E0
3.242600000E1,-1.324071121E1,-4.268621922E0,-9.335165024E0
3.244601250E1,-1.371931267E1,-6.273287535E-1,-1.056971073E1
3.246601250E1,-1.066035557E1,-7.309018821E-2,-9.284675598E0
3.248800000E1,-8.519316673E0,1.583141923E0,-7.687953949E0
3.250800000E1,-7.694198132E0,2.074652433E0,-4.528976917E0
3.252800000E1,-6.663570881E0,2.343750954E0,-3.163860798E0
3.254800000E1,-4.894131184E0,1.784331560E0,-1.274165392E0
3.256800000E1,-4.624937057E0,1.148441076E0,1.352628231E0
3.258800000E1,-4.885004997E0,2.038519084E-1,2.769756079E0
3.260800000E1,-6.094305992E0,-8.016265631E-1,2.591474295E0
3.262800000E1,-5.686286449E0,-2.453874826E0,-4.875169396E-1
3.264800000E1,-5.043079376E0,-2.700046539E0,-4.221629143E0
3.266800000E1,-4.862087250E0,-1.291528225E0,-4.132219791E0
3.268800000E1,-6.332711220E0,6.018256545E-1,-2.661279678E0
3.270800000E1,-8.856602669E0,2.266600370E0,-1.761557758E-1
3.272800000E1,-1.206081009E1,3.240140200E0,2.683114767E0
3.274800000E1,-1.487642002E1,3.219818115E0,4.353673935E0
3.276800000E1,-1.693405533E1,3.387517691E0,4.043165207E0
3.278800000E1,-1.423756027E1,2.726756334E0,1.296862483E0
3.280800000E1,-1.289886761E1,2.095577717E0,2.133789062E0
3.282800000E1,-1.557396603E1,1.989763498E0,1.392391086E0
3.284800000E1,-1.269032192E1,3.598868251E-1,-2.525442123E0
3.286800000E1,-8.984807014E0,-2.862507701E-1,-6.982335091E0
3.288800000E1,-7.689984322E0,-5.199248791E-1,-9.685512543E0
3.290800000E1,-9.204499245E0,-1.858130336E0,-6.048979282E0
3.292800000E1,-1.289224052E1,-2.068599939E0,-4.268717766E0
3.294800000E1,-1.392823029E1,-2.591541290E0,-3.977755308E0
3.296800000E1,-1.139011860E1,-2.633123875E0,-3.247408867E0
3.298800000E1,-8.840579987E0,-2.898976088E0,-2.646272898E0
3.300800156E1,-7.870995522E0,-2.324377298E0,-1.688419819E0
3.303000000E1,-7.246750355E0,-9.746699333E-1,-8.887180686E-1
3.305000000E1,-6.441771984E0,-1.403576881E-1,-4.545535445E-1
3.307000000E1,-5.986212730E0,1.252828240E0,8.902503848E-1
3.309000000E1,-5.036318302E0,1.569743991E0,-3.879468739E-1
3.311000000E1,-4.196815491E0,1.262941360E0,-2.077314615E0
3.313000000E1,-3.729515076E0,3.532405198E-1,-3.109503031E0
3.315000000E1,-4.235840797E0,-1.059376836E0,-2.833116293E0
3.317000000E1,-6.547739029E0,-1.411688328E0,-2.191977739E0
3.319000000E1,-9.863421440E0,-1.743697166E0,-5.845395327E-1
3.321000000E1,-1.431932831E1,-3.962279320E0,1.878538609E0
3.323000000E1,-1.855377007E1,-4.543783188E0,1.649384618E0
3.325000000E1,-1.533694077E1,-2.730922222E0,8.144202232E0
3.327000000E1,-1.174935341E1,-8.446456194E-1,9.204010963E0
3.329000000E1,-1.350918770E1,-5.616126657E-1,5.681210995E0
3.331000000E1,-1.254126835E1,-1.983270526E0,-1.193930864E0
3.333000000E1,-1.061174297E1,-3.371237040E0,-7.190573215E0
3.335000000E1,-1.087433052E1,-6.092448235E0,-7.797531605E0
3.337000000E1,-1.304977798E1,-5.277720928E0,-1.174787903E1
3.339000000E1,-1.178444195E1,-1.519120932E0,-1.122620106E1
3.341000000E1,-9.715986252E0,1.591665298E-2,-8.028744698E0
3.343000000E1,-9.013115883E0,1.672435999E0,-6.372052670E0
3.345000156E1,-8.309124947E0,2.280410051E0,-4.670579910E0
3.347200000E1,-6.525741577E0,3.046784401E0,-2.764460087E0
3.349200000E1,-5.439013004E0,3.227297544E0,-1.823519826E0
3.351200000E1,-5.188493729E0,2.681611300E0,7.342920899E-1
3.353200000E1,-4.997369289E0,1.289890528E0,4.026511192E0
3.355200000E1,-4.837982655E0,-1.245693564E0,3.004455090E0
3.357200000E1,-5.286876202E0,-3.049207449E0,-2.282488346E0
3.359200000E1,-5.016848564E0,-3.325517416E0,-4.274608135E0
3.361200000E1,-5.534455776E0,-2.080149412E0,-2.904932976E0
3.363200000E1,-7.354460716E0,-8.163269609E-2,-6.931501627E-1
3.365200000E1,-1.006784725E1,1.563768029E0,1.071740508E0
3.367200000E1,-1.310172272E1,2.776345015E0,2.150740147E0
3.369200000E1,-1.480065823E1,3.442172527E0,3.347668648E0
3.371200000E1,-1.575135708E1,4.330862045E0,1.504707932E0
3.373200000E1,-1.269352150E1,3.595784426E0,4.371812567E-2
3.375200000E1,-1.221005440E1,2.415768623E0,2.133166790E0
3.377200000E1,-1.511031437E1,1.791648149E0,8.689036220E-2
3.379200000E1,-1.342455673E1,3.689081669E-1,-4.005738735E0
3.381200000E1,-1.012942696E1,-3.765504658E-1,-6.603103161E0
3.383200000E1,-8.253646851E0,-1.199351430E0,-9.352575302E0
3.385200000E1,-8.206298828E0,-2.682693243E0,-6.249182701E0
3.387200000E1,-1.142018890E1,-1.778997183E0,-4.882629395E0
3.389200000E1,-1.270397854E1,-2.172249556E0,-5.666069984E0
3.391200000E1,-1.192056751E1,-2.531916142E0,-5.823445320E0
3.393200156E1,-9.763161659E0,-2.658128977E0,-3.963466883E0
3.395400156E1,-8.439034462E0,-2.617465734E0,-2.486158133E0
3.397600000E1,-7.596849918E0,-7.703966498E-1,-4.690336883E-1
3.399600781E1,-6.502192020E0,5.182967708E-2,-4.920850396E-1
3.401800000E1,-5.257092476E0,1.230657935E0,1.028051019E0
3.403800000E1,-4.415779114E0,1.722302437E0,4.884075522E-1
3.405800000E1,-3.651559830E0,1.224605441E0,-1.566669822E0
3.407800000E1,-3.235284567E0,8.359594643E-2,-2.702000141E0
3.409800000E1,-3.902395487E0,-7.262858748E-1,-2.986029387E0
3.411800000E1,-6.056305885E0,-1.352992058E0,-2.404190540E0
3.413800000E1,-9.379045486E0,-1.401163459E0,-1.272422433E0
3.415800000E1,-1.391256237E1,-3.524753332E0,1.816088080E0
3.417800000E1,-1.961487198E1,-4.799952984E0,8.463024497E-1
3.419800000E1,-1.835301208E1,-3.471199751E0,7.039498806E0
3.421800000E1,-1.268582153E1,-6.477369070E-1,8.389952660E0
3.423800000E1,-1.102577782E1,-6.454384923E-1,7.047026157E0
3.425800000E1,-1.268323517E1,-1.442592740E0,1.432766914E0
3.427800000E1,-1.123733902E1,-2.428639889E0,-5.450994015E0
3.429800000E1,-1.019641685E1,-5.381475925E0,-7.561070919E0
3.431800000E1,-1.135010529E1,-7.640749931E0,-9.255773544E0
3.433800000E1,-1.252697086E1,-2.937752485E0,-1.237979507E1
3.435800000E1,-1.055635166E1,-1.211954474E0,-1.075161362E1
3.437800000E1,-9.449636459E0,9.454894066E-1,-8.090697289E0
3.439800000E1,-8.498046875E0,2.138414860E0,-6.406223297E0
3.441800000E1,-7.573022842E0,2.766394854E0,-3.272423506E0
3.443800000E1,-5.833481789E0,3.047435760E0,-2.332297087E0
3.445800313E1,-5.091805935E0,2.556164503E0,-3.696551621E-1
3.448000000E1,-4.659337044E0,1.386913180E0,2.383437157E0
3.450000625E1,-4.785597324E0,-2.621363401E-1,3.033721685E0
3.452200000E1,-4.840232849E0,-1.886515975E0,-1.742978767E-2
3.454200000E1,-4.407773495E0,-2.884132147E0,-3.450810909E0
3.456200000E1,-4.836182117E0,-1.872993588E0,-3.667169809E0
3.458200000E1,-6.223583698E0,-1.437574476E-1,-1.595189571E0
3.460200000E1,-1.007153511E1,1.438723683E0,1.330697298E0
3.462200000E1,-1.447648335E1,2.516420841E0,3.291759253E0
3.464200000E1,-1.654929733E1,3.503751516E0,3.941593409E0
3.466200000E1,-1.620780754E1,4.722936630E0,3.933865130E-1
3.468200000E1,-1.255344105E1,3.751091480E0,2.985569537E-1
3.470200000E1,-1.203222370E1,2.385869980E0,2.510291815E0
3.472200000E1,-1.452617645E1,1.720052004E0,-6.296558976E-1
3.474200000E1,-1.149990654E1,-7.614231706E-1,-3.467981815E0
3.476200000E1,-9.134808540E0,-1.271780729E0,-8.770343781E0
3.478200000E1,-9.027979851E0,-1.628210306E0,-1.074895954E1
3.480200000E1,-1.039604473E1,-2.320766926E0,-6.791660786E0
3.482200000E1,-1.276387215E1,-1.148345351E0,-3.493475676E0
3.484200000E1,-1.307261944E1,-1.995078683E0,-4.162376881E0
3.486200000E1,-1.143957233E1,-2.614315033E0,-5.020209789E0
3.488200000E1,-9.676759720E0,-3.591408014E0,-4.414534569E0
3.490200000E1,-8.751784325E0,-2.421246529E0,-1.684665680E0
3.492200156E1,-7.449070454E0,-9.007465839E-1,-1.197100878E0
3.494400000E1,-6.138943672E0,8.899534941E-1,3.261381388E-1
3.496400000E1,-5.242190838E0,2.138175249E0,1.702468842E-1
3.498400000E1,-4.267243385E0,1.927495122E0,-1.249562621E0
3.500400000E1,-3.097100973E0,1.029707909E0,-2.679600000E0
3.502400000E1,-2.514017105E0,-2.559880614E-1,-3.023761749E0
3.504400000E1,-3.332364798E0,-1.232305169E0,-3.023053169E0
3.506400000E1,-5.863639355E0,-1.362272143E0,-2.404152155E0
3.508400000E1,-9.782152176E0,-1.388636947E0,-6.404106617E-1
3.510400000E1,-1.489746952E1,-3.785386324E0,2.817889214E0
3.512400000E1,-2.007651138E1,-5.453905106E0,2.317156315E0
3.514400000E1,-1.663750076E1,-3.793804169E0,8.652329445E0
3.516400000E1,-1.088726902E1,-1.863579631E0,8.364832878E0
3.518400000E1,-1.179046726E1,-2.441559076E0,3.795298100E0
3.520400000E1,-1.149391079E1,-2.764891148E0,-2.632980108E0
3.522400000E1,-1.012489700E1,-4.095099926E0,-7.507977009E0
3.524400000E1,-1.056440544E1,-6.986050606E0,-8.094163895E0
3.526400156E1,-1.252124405E1,-4.876136780E0,-1.253829098E1
3.528400156E1,-1.192388058E1,-1.380285978E0,-1.114304543E1
3.530400156E1,-1.076654339E1,3.988548517E-1,-8.715085983E0
3.532400156E1,-1.021599102E1,2.477845430E0,-6.329551220E0
3.534400156E1,-8.684066772E0,2.915582180E0,-4.372205257E0
3.536600469E1,-6.491169453E0,3.205558300E0,-2.447295427E0
3.538600938E1,-5.904321671E0,3.139286757E0,-4.415482581E-1
3.540601406E1,-4.661194801E0,1.834619284E0,1.581035018E0
3.542800000E1,-4.381302834E0,-8.400775492E-2,3.675712585E0
3.544800000E1,-4.701331139E0,-2.481666803E0,6.216975451E-1
3.546800000E1,-4.907174587E0,-3.088481903E0,-2.510253429E0
3.548800000E1,-5.002033234E0,-2.046123028E0,-3.091297388E0
3.550800156E1,-5.912414074E0,-5.919328332E-1,-1.849338889E0
3.553000000E1,-9.114304543E0,9.157725573E-1,3.620128930E-1
3.555000000E1,-1.253083992E1,1.591684461E0,2.850278139E0
3.557000000E1,-1.562127495E1,2.348750353E0,4.449489594E0
3.559000000E1,-1.604018402E1,3.445725679E0,1.489653230E0
3.561000000E1,-1.273416519E1,3.075467110E0,-2.030187368E0
3.563000000E1,-1.142384720E1,2.980714083E0,-1.030665517E0
3.565000000E1,-1.418605709E1,2.632012844E0,-1.423496604E-1
3.567000000E1,-1.320203018E1,9.085325599E-1,-2.960679531E0
3.569000000E1,-9.924578667E0,-9.556887150E-1,-6.084614754E0
3.571000000E1,-8.741661072E0,-1.299247026E0,-1.117382526E1
3.573000000E1,-8.516922951E0,-2.478573561E0,-7.523022652E0
3.575000000E1,-1.140225220E1,-2.258048296E0,-4.170057774E0
3.577000000E1,-1.366562366E1,-3.009032726E0,-3.304189920E0
3.579000000E1,-1.342211533E1,-3.990147591E0,-3.958889246E0
3.581000000E1,-1.117425728E1,-4.118745327E0,-4.550046444E0
3.583000000E1,-9.234339714E0,-3.826010942E0,-2.816615582E0
3.585000000E1,-7.685856819E0,-1.547698140E0,-8.879232407E-1
3.587000000E1,-6.349987984E0,4.235821590E-2,-9.156768322E-1
3.589000000E1,-5.496665478E0,1.535286665E0,-1.387200505E-1
3.591000000E1,-4.984909534E0,2.474771500E0,-9.242193103E-1
3.593000000E1,-3.703600168E0,2.114606857E0,-1.929602027E0
3.595000000E1,-2.676516294E0,1.230226994E0,-2.470672607E0
3.597000000E1,-3.597623348E0,3.399287760E-1,-2.314388752E0
3.599000000E1,-5.848153591E0,-2.426092476E-1,-2.257224560E0
3.601000000E1,-8.196636200E0,-3.933002949E-1,-1.577031970E0
3.603000000E1,-1.114566994E1,-6.856706738E-1,-2.150567770E-1
3.605000000E1,-1.492792416E1,-4.547814846E0,3.176090479E0
3.607000000E1,-1.817869568E1,-5.758926868E0,3.821663141E0
3.609000000E1,-1.461486816E1,-2.251162529E0,7.271707535E0
3.611000000E1,-1.203327751E1,-4.873636961E-1,5.180248260E0
3.613000000E1,-1.200627041E1,-2.568691075E-1,3.011704683E0
3.615000000E1,-1.134512615E1,-1.990089178E0,-4.527636528E0
3.617000000E1,-1.293675327E1,-4.248673916E0,-6.751151085E0
3.619000000E1,-1.672939873E1,-2.777666569E0,-1.207666874E1
3.621000000E1,-1.380579948E1,-3.745010495E-1,-1.272405148E1
3.623000000E1,-8.578243256E0,-4.088147283E-1,-7.743690968E0
3.625000000E1,-6.777956009E0,8.633970618E-1,-5.258528709E0
3.627000000E1,-6.427023888E0,1.150854468E0,-3.114511728E0
3.629000000E1,-5.529600620E0,1.227861524E0,-2.155930758E0
3.631000000E1,-4.566087246E0,1.570213199E0,-1.563490391E0
3.633000000E1,-3.916301012E0,7.239682674E-1,3.791649342E-1
3.635000000E1,-4.467465401E0,-1.490725726E-1,1.216043830E0
3.637000000E1,-5.394529343E0,-1.362176299E0,5.300284028E-1
3.639000000E1,-5.974845409E0,-1.983778119E0,-1.501202703E0
3.641000000E1,-6.055922508E0,-1.975446343E0,-2.383647919E0
3.643000000E1,-7.046643257E0,-6.442605257E-1,-1.804787636E0
3.645000000E1,-8.851210594E0,9.525188208E-1,-6.931692362E-2
3.647000000E1,-1.136957550E1,2.271800518E0,1.635211110E0
3.649000000E1,-1.324511623E1,2.915256500E0,2.963274717E0
3.651000000E1,-1.423786736E1,3.269962311E0,3.501165628E0
3.653000000E1,-1.415802574E1,4.600937366E0,1.928385794E-1
3.655000000E1,-1.185007191E1,3.744320869E0,3.614286780E-1
3.657000000E1,-1.192404366E1,2.545247078E0,2.526581764E0
3.659000000E1,-1.323133469E1,1.341748953E0,-2.389604747E-1
3.661000000E1,-9.841796875E0,-1.429376721E0,-3.376217127E0
3.663000000E1,-9.156567574E0,-1.400196195E0,-9.645060539E0
3.665000000E1,-1.224271202E1,-5.285439491E-1,-1.202814388E1
3.667000000E1,-1.365310764E1,-1.714985847E0,-7.179636002E0
3.669000000E1,-1.476923656E1,-1.005210400E0,-2.056829929E0
3.671000000E1,-1.267849541E1,-2.066646338E0,-2.696349859E0
3.673000000E1,-9.353973389E0,-3.051410198E0,-4.719249725E0
3.675000000E1,-7.672200203E0,-3.588419914E0,-3.854118824E0
3.677000000E1,-7.066304207E0,-2.429166555E0,-2.188118458E0
3.679000000E1,-5.838500500E0,-1.226118565E0,-1.263075471E0
3.681000156E1,-5.049266338E0,8.146031946E-2,-6.316861510E-1
3.683000156E1,-4.875973701E0,1.338837624E0,-1.085052174E-2
3.685200156E1,-4.234748840E0,1.734254360E0,-1.890701056E0
3.687400000E1,-3.224386215E0,1.091181397E0,-2.836075783E0
3.689400156E1,-3.665484428E0,-3.842885196E-1,-2.518269300E0
3.691603281E1,-6.364123344E0,-6.829699874E-1,-1.741791248E0
3.693800156E1,-1.024996090E1,-5.345582366E-1,-3.071282059E-2
3.695800156E1,-1.484911633E1,-3.362033606E0,3.815926552E0
3.698000000E1,-1.935634613E1,-5.065354824E0,2.119433641E0
3.700000156E1,-1.492975330E1,-3.259313107E0,7.555238724E0
3.702200000E1,-1.151562214E1,-1.580901027E0,6.589982986E0
3.704200000E1,-1.267774773E1,-1.697766781E0,2.870456219E0
3.706200000E1,-1.133960915E1,-2.393694162E0,-4.404450417E0
3.708200000E1,-1.048349094E1,-3.565924168E0,-8.147113800E0
3.710200000E1,-1.246643543E1,-4.768665314E0,-9.395957947E0
3.712200000E1,-1.448603153E1,-2.269109488E0,-1.295400143E1
3.714200156E1,-1.111741829E1,-8.671511412E-1,-1.047251606E1
3.716200156E1,-8.959102631E0,7.581192255E-1,-7.150024891E0
3.718400000E1,-7.768092632E0,1.679178119E0,-4.895970345E0
3.720400000E1,-6.838472366E0,1.977945805E0,-2.523967505E0
3.722400000E1,-5.914051533E0,2.342237949E0,-1.854749799E0
3.724400000E1,-4.880743027E0,1.324922442E0,2.610254586E-1
3.726400000E1,-4.613138199E0,4.769632816E-1,2.678029537E0
3.728400000E1,-5.290410042E0,-6.481678486E-1,3.264254570E0
3.730400000E1,-5.118209362E0,-1.616852283E0,-3.976769149E-1
3.732400000E1,-4.791927814E0,-1.177123666E0,-3.957376003E0
3.734400000E1,-4.707297325E0,-2.421016619E-2,-3.582510948E0
3.736400000E1,-6.674315929E0,1.381147981E0,-1.788315415E0
3.738400000E1,-9.524805069E0,2.270536423E0,8.201577067E-1
3.740400000E1,-1.258878899E1,2.808858395E0,2.517742395E0
3.742400000E1,-1.506920147E1,3.050615311E0,3.801034689E0
3.744400000E1,-1.622089767E1,2.755458117E0,1.877925634E0
3.746400000E1,-1.385484314E1,1.686877966E0,9.320340157E-1
3.748400000E1,-1.383013439E1,8.265262842E-1,2.877648354E0
3.750400000E1,-1.587432289E1,1.880233645E0,-5.973054469E-2
3.752400000E1,-1.218732071E1,1.187859297E0,-3.806339979E0
3.754400000E1,-9.143312454E0,9.446370602E-1,-8.505076408E0
3.756400000E1,-8.798068047E0,8.048539758E-1,-1.044477177E1
3.758400000E1,-9.257411003E0,-5.356978178E-1,-6.284942150E0
3.760400000E1,-1.192376518E1,-1.055325747E0,-3.615273237E0
3.762400000E1,-1.318485928E1,-1.977495670E0,-2.643983841E0
3.764400000E1,-1.155913830E1,-2.081021070E0,-2.429789066E0
3.766400000E1,-8.898165703E0,-2.587040186E0,-3.199764490E0
3.768400000E1,-7.678942204E0,-1.982351065E0,-1.907652020E0
3.770400000E1,-6.879815578E0,-8.720256686E-1,-8.639332652E-1
3.772400000E1,-5.738614082E0,-4.657201171E-1,-7.682610750E-1
3.774400000E1,-5.114493847E0,4.011819959E-1,1.752459854E-1
3.776400000E1,-4.622015953E0,8.157907128E-1,-5.578873158E-1
3.778400000E1,-4.111792564E0,1.301411390E0,-1.542900205E0
3.780400000E1,-3.603244781E0,8.432474136E-1,-2.764421940E0
3.782400156E1,-4.466651440E0,-2.400139272E-1,-2.896926403E0
3.784600000E1,-7.520081997E0,-5.513463616E-1,-2.114195108E0
3.786600000E1,-1.071424389E1,-8.040016294E-1,-8.561856747E-1
3.788600000E1,-1.490431786E1,-3.077995300E0,1.644462228E0
3.790600000E1,-1.842802811E1,-3.778596163E0,3.413480520E0
3.792600156E1,-1.537733459E1,-2.070218325E0,7.843691826E0
3.794800000E1,-1.243286896E1,-1.013274074E0,7.025392056E0
3.796800000E1,-1.318343258E1,2.778423131E-1,4.119338989E0
3.798800000E1,-1.143856621E1,-1.359379888E0,-2.959405661E0
3.800800000E1,-1.084463310E1,-4.696102142E0,-6.877210617E0
3.802800000E1,-1.246280670E1,-6.403531551E0,-9.965835571E0
3.804800000E1,-1.329409218E1,-1.380994797E0,-1.173906708E1
3.806800000E1,-1.060061550E1,4.900452122E-2,-8.486401558E0
3.808800000E1,-9.655039787E0,2.368449688E0,-5.970037460E0
3.810800000E1,-8.356903076E0,2.910899162E0,-4.363394737E0
3.812800000E1,-6.669968128E0,3.077238798E0,-2.611614227E0
3.814800000E1,-5.305024624E0,2.638688087E0,-1.999273300E0
3.816800000E1,-4.501233578E0,1.465749383E0,-4.511825144E-1
3.818800000E1,-4.469629765E0,3.145693541E-1,2.218180001E-1
3.820800000E1,-5.207254410E0,-1.342218280E0,5.640355945E-1
3.822800000E1,-6.084078312E0,-2.338608503E0,-4.760535061E-1
3.824800000E1,-5.669459820E0,-2.511297464E0,-1.829332829E0
3.826800000E1,-5.251662254E0,-1.207060695E0,-2.394795418E0
3.828800000E1,-6.350533485E0,1.083845615E0,-1.202080846E0
3.830800000E1,-8.612652779E0,2.685049295E0,1.023253083E0
3.832800000E1,-1.155568123E1,3.218822241E0,2.653168201E0
3.834800000E1,-1.442290974E1,3.484884977E0,3.730357647E0
3.836800000E1,-1.591484261E1,3.684264660E0,3.260347128E0
3.838800000E1,-1.394606209E1,3.305319786E0,1.713453531E0
3.840800000E1,-1.250456142E1,3.282498598E0,1.812669277E0
3.842800000E1,-1.503642941E1,3.513835669E0,-1.436329484E-1
3.844800000E1,-1.376413155E1,2.573977470E0,-3.513184547E0
3.846800000E1,-9.960558891E0,1.222383618E0,-6.751984119E0
3.848800000E1,-9.568330765E0,9.256941676E-1,-1.198052788E1
3.850800000E1,-8.982469559E0,-1.301804066E0,-7.225001335E0
3.852800000E1,-1.296356869E1,-9.764320850E-1,-4.519314289E0
3.854800000E1,-1.446608257E1,-1.686485171E0,-3.190723896E0
3.856800000E1,-1.284830189E1,-2.309858561E0,-4.205090046E0
3.858800000E1,-1.031562901E1,-2.511316299E0,-3.838183165E0
3.860800000E1,-8.618254662E0,-2.927390337E0,-2.483888388E0
3.862800000E1,-6.986673355E0,-1.500522852E0,-1.149427533E0
3.864800000E1,-5.189508915E0,-8.639620543E-1,-1.336280584E0
3.866800000E1,-4.551693439E0,3.256114125E-1,2.501940727E-1
3.868800000E1,-4.455935001E0,1.596377134E0,2.243845761E-1
3.870800000E1,-4.484512329E0,2.191431999E0,-1.313937902E0
3.872800000E1,-3.734801531E0,1.710944414E0,-2.836994886E0
3.874800000E1,-3.641331673E0,2.143289335E-2,-2.226042509E0
3.876800000E1,-5.917662144E0,-4.017853439E-1,-1.921164870E0
3.878800000E1,-8.551274300E0,-4.138042331E-1,-1.150825739E0
3.880800000E1,-1.209877205E1,-1.946361423E0,-3.674525023E-1
3.882800000E1,-1.650866127E1,-5.042973995E0,2.310768604E0
3.884800000E1,-1.774058342E1,-2.774956226E0,5.760506630E0
3.886800000E1,-1.295889473E1,3.519380689E-1,8.545729637E0
3.888800000E1,-1.351008797E1,5.882745385E-1,5.764959812E0
3.890800000E1,-1.379654884E1,-4.160835147E-1,1.534032106E0
3.892800625E1,-1.197576809E1,-1.999723554E0,-3.962978601E0
3.895000000E1,-1.151778603E1,-4.624036789E0,-5.705584049E0
3.897000000E1,-1.154684162E1,-5.434109688E0,-9.297030449E0
3.899000156E1,-1.211368370E1,-1.583438873E0,-1.106119251E1
3.901200000E1,-1.062815857E1,2.053171545E-1,-9.323825836E0
3.903200000E1,-8.581393242E0,1.744204760E0,-6.801093578E0
3.905200000E1,-7.294988632E0,2.650247335E0,-4.509641647E0
3.907200000E1,-5.752835751E0,2.513605118E0,-2.902030945E0
3.909200000E1,-4.559163570E0,2.477357149E0,-1.946112394E0
3.911200000E1,-4.418183327E0,1.679340959E0,3.720493913E-1
3.913200000E1,-4.748927593E0,8.106670976E-1,1.228302121E0
3.915200000E1,-5.628059387E0,-8.089432716E-1,2.214445114E0
3.917200000E1,-6.804914951E0,-2.018187523E0,-2.112643570E-1
3.919200000E1,-6.414152145E0,-2.260815859E0,-2.896074295E0
3.921200000E1,-5.752481461E0,-9.540127516E-1,-3.236577749E0
3.923200000E1,-6.932449341E0,9.254547358E-1,-1.142311931E0
3.925200000E1,-9.428251266E0,2.040922880E0,1.270554900E0
3.927200000E1,-1.274109840E1,3.076108694E0,2.507303715E0
3.929200000E1,-1.530761623E1,3.289479971E0,3.432231665E0
3.931200000E1,-1.693008995E1,4.035953522E0,1.207510829E0
3.933200000E1,-1.316673088E1,3.090368509E0,1.184133887E0
3.935200000E1,-1.327144337E1,2.467617512E0,3.059751511E0
3.937200000E1,-1.430780697E1,8.776760101E-1,-5.608082414E-1
3.939200000E1,-1.104238415E1,-1.201027393E0,-4.344278812E0
3.941200000E1,-9.157763481E0,-1.333953381E0,-1.073576355E1
3.943200156E1,-1.009001827E1,-1.390686393E0,-1.074071503E1
3.945400000E1,-1.166497135E1,-1.445063472E0,-6.450592518E0
3.947400000E1,-1.307332802E1,-7.382473350E-1,-3.608033180E0
3.949400000E1,-1.239285755E1,-9.562249780E-1,-4.683326721E0
3.951400000E1,-1.029819965E1,-2.065784216E0,-4.542413712E0
3.953400000E1,-8.971427917E0,-2.501040459E0,-2.558625937E0
3.955400000E1,-8.411309242E0,-1.293596745E0,-8.654177189E-1
3.957400000E1,-7.005913258E0,-2.871605456E-1,-5.190533400E-1
3.959400000E1,-5.222060680E0,8.848298788E-1,7.567688823E-1
3.961400000E1,-4.125391483E0,1.503501177E0,-1.112537608E-1
3.963400000E1,-3.243195295E0,1.776162505E0,-2.049494028E0
3.965400000E1,-2.676257849E0,1.587336540E0,-3.946544647E0
3.967400000E1,-2.074671745E0,-1.026154831E-1,-3.332278490E0
3.969400000E1,-3.676133871E0,-1.097473383E0,-3.418900967E0
3.971400000E1,-6.755738258E0,-1.853983641E0,-2.490046501E0
3.973400000E1,-1.114856148E1,-2.673547506E0,-1.087015510E0
3.975400000E1,-1.621056557E1,-5.857462406E0,1.506240129E0
3.977400000E1,-2.006080437E1,-6.015661716E0,1.950489163E0
3.979400000E1,-1.724369049E1,-2.162883520E0,9.449176788E0
3.981400000E1,-1.270017719E1,2.634292245E-1,8.856880188E0
3.983400000E1,-1.249315548E1,-1.435908079E0,5.096987247E0
3.985400000E1,-1.197494411E1,-2.560579538E0,-6.953240633E-1
3.987400000E1,-1.070998287E1,-3.766347408E0,-5.385239601E0
3.989400000E1,-1.042606831E1,-6.608983040E0,-7.042343140E0
3.991400000E1,-1.147934437E1,-7.259468555E0,-1.003774834E1
3.993400000E1,-1.164534950E1,-3.456030369E0,-1.250059700E1
3.995400000E1,-9.481527328E0,-1.183022976E0,-1.023729992E1
3.997400000E1,-8.914033890E0,1.064414144E0,-8.482474327E0
3.999400000E1,-7.959389687E0,1.861779213E0,-5.931232452E0
4.001400000E1,-7.556301594E0,2.805774689E0,-2.860343218E0
4.003400000E1,-6.099956512E0,3.143041134E0,-1.185800195E0
4.005400000E1,-5.240170002E0,2.262137413E0,1.005018830E0
4.007400000E1,-4.974442482E0,1.334307790E0,2.415356874E0
4.009400000E1,-5.263374329E0,-1.192791313E-1,3.287784815E0
4.011400000E1,-5.204084396E0,-1.571745515E0,8.067405820E-1
4.013400000E1,-4.776508808E0,-2.454823017E0,-3.878185272E0
4.015400000E1,-4.668319702E0,-1.243433475E0,-4.635375500E0
4.017400000E1,-6.075258255E0,8.705796599E-1,-2.349918365E0
4.019400000E1,-9.114448547E0,2.009127855E0,4.380144179E-1
4.021400000E1,-1.274546623E1,2.689080954E0,2.310557842E0
4.023400000E1,-1.601789856E1,3.379070997E0,2.680816412E0
4.025400000E1,-1.695284462E1,3.292937040E0,1.829687238E0
4.027400000E1,-1.456361294E1,2.357197046E0,-7.225604653E-1
4.029400000E1,-1.175035858E1,2.227421522E0,8.970977664E-1
4.031400000E1,-1.357734585E1,2.069385290E0,2.608511448E0
4.033400000E1,-1.393283653E1,5.836489201E-1,-7.847714424E-1
4.035400000E1,-9.944039345E0,-1.722704768E0,-4.297936916E0
4.037400000E1,-7.870306015E0,-1.715761542E0,-9.638596535E0
4.039400000E1,-8.455496788E0,-2.735605240E0,-8.443918228E0
4.041400000E1,-1.196678543E1,-3.407648087E0,-5.762125015E0
4.043400156E1,-1.465035915E1,-3.141183138E0,-4.283063889E0
4.045400156E1,-1.363160706E1,-3.254897833E0,-4.536667347E0
4.047600469E1,-9.590722084E0,-3.042388678E0,-4.236357689E0
4.049600469E1,-6.797464371E0,-2.789196968E0,-2.752575397E0
4.051601719E1,-6.328784466E0,-1.354782939E0,-2.117728710E0
4.053800000E1,-5.508799553E0,-1.384614706E-1,-5.763609409E-1
4.055800000E1,-5.115786552E0,7.854130864E-1,-1.963436902E-1
4.057800000E1,-5.037438393E0,1.975810170E0,-4.662372768E-1
4.059800000E1,-4.383429050E0,2.132065535E0,-1.309791088E0
4.061800000E1,-3.450466156E0,1.326789975E0,-2.347419024E0
4.063800000E1,-3.703887463E0,-4.793192074E-2,-2.560205936E0
4.065800000E1,-5.801821232E0,-1.090932369E0,-2.314953566E0
4.067800156E1,-9.173421860E0,-1.362923265E0,-1.534051299E0
4.070000156E1,-1.321926880E1,-2.238406181E0,7.602452636E-1
4.072200000E1,-1.806518936E1,-3.927026987E0,1.615013599E0
4.074200000E1,-1.778955078E1,-3.939419508E0,5.340123177E0
4.076200000E1,-1.408274174E1,-5.702030659E-1,8.256740570E0
4.078200000E1,-1.153409576E1,-3.834649324E-1,7.083102226E0
4.080200000E1,-1.160343170E1,-1.857210994E0,2.579522371E0
4.082200000E1,-1.056429005E1,-2.763780355E0,-3.448493242E0
4.084200000E1,-9.722708702E0,-4.838375092E0,-6.912012100E0
4.086200156E1,-1.127279186E1,-8.338438988E0,-7.923935890E0
4.088400000E1,-1.374274635E1,-4.190963745E0,-1.234628487E1
4.090400000E1,-1.106046486E1,-1.142120361E0,-9.507231712E0
4.092400156E1,-8.964418411E0,5.262455344E-1,-7.041337490E0
4.094600313E1,-8.176649094E0,2.053085566E0,-6.071475029E0
4.096800000E1,-7.401358604E0,3.124327898E0,-3.347553730E0
4.098800000E1,-5.941824436E0,3.446032047E0,-2.402294159E0
4.100800156E1,-5.172826290E0,2.766193628E0,-8.203493059E-2
4.103000000E1,-5.153020859E0,1.058016896E0,3.072172642E0
4.105000000E1,-5.634706020E0,-9.367170334E-1,3.698380947E0
4.107000000E1,-6.041375637E0,-2.868224859E0,4.471219480E-1
4.109000000E1,-4.998039722E0,-3.247705698E0,-3.881824493E0
4.111000000E1,-4.830473900E0,-1.378092885E0,-3.833308458E0
4.113000000E1,-6.414947033E0,8.789976239E-1,-1.310566902E0
4.115000000E1,-9.504290581E0,2.485727310E0,1.240751982E0
4.117000000E1,-1.291304970E1,3.317837000E0,2.495744705E0
4.119000156E1,-1.586934376E1,3.785338163E0,3.086020708E0
4.121200000E1,-1.644094467E1,3.512284517E0,-1.345541328E-1
4.123200000E1,-1.243141270E1,2.544040442E0,-1.204953864E-1
4.125200000E1,-1.190818501E1,1.635517478E0,3.882198095E0
4.127200000E1,-1.499825573E1,1.354304075E0,1.700457811E0
4.129200000E1,-1.216487217E1,-2.651434541E-1,-3.080303192E0
4.131200000E1,-8.982527733E0,-1.043125033E0,-7.603821754E0
4.133200000E1,-8.562469482E0,-1.388282537E0,-1.177267265E1
4.135200000E1,-1.021668053E1,-2.969317675E0,-8.047965050E0
4.137200000E1,-1.302675629E1,-2.043613911E0,-4.636198997E0
